trial_type,trial_index,time_elapsed,internal_node_id,interactions,blur_events,focus_events,fullscreenenter_events,fullscreenexit_events,success,rt,stimulus,key_press,prompt,subject_id,participant_id,age,gender,button_pressed,next_reward,animation_sequence,responses,planet,curr_prac_trial,n_prac_rounds,alien,aliens,reward_received,decay_rate_actual,decay_rate_exp,time_in_block,block_num,prt,last_trial_on_planet,button_html,bonus,num_failures
pavlovia,0,1,0.0-0.0,"""event"",""trial"",""time""
""fullscreenenter"",""1"",""3817""
","
","
","""event"",""trial"",""time""
""fullscreenenter"",""1"",""3817""
","
",,,,,,,,,,,,,,,,,,,,,,,,,,,,
fullscreen,1,4801,0.0-1.0,"""event"",""trial"",""time""
""fullscreenenter"",""1"",""3817""
""fullscreenexit"",""2"",""6618""
","
","
","""event"",""trial"",""time""
""fullscreenenter"",""1"",""3817""
","""event"",""trial"",""time""
""fullscreenexit"",""2"",""6618""
",TRUE,,,,,,,,,,,,,,,,,,,,,,,,,,,
instruc_welcome,2,14599,0.0-2.0,"""event"",""trial"",""time""
""fullscreenenter"",""1"",""3817""
""fullscreenexit"",""2"",""6618""
","
","
","""event"",""trial"",""time""
""fullscreenenter"",""1"",""3817""
","""event"",""trial"",""time""
""fullscreenexit"",""2"",""6618""
",,null,run_exp/static/audio/clip_1_welcome.m4a,null,"<p>Howdy! In this experiment, you’ll be an explorer traveling through space to collect space treasure.</p><p>Your mission is to collect as much treasure as possible.</p><br><br><p><img src='run_exp/static/images/task_images/opening_img-01.jpg' height='300' width='auto'></p>",9299,2558,16.42,Female,,,,,,,,,,,,,,,,,,,
audio-keyboard-response,3,31218,0.0-3.0,"""event"",""trial"",""time""
""fullscreenenter"",""1"",""3817""
""fullscreenexit"",""2"",""6618""
","
","
","""event"",""trial"",""time""
""fullscreenenter"",""1"",""3817""
","""event"",""trial"",""time""
""fullscreenexit"",""2"",""6618""
",,null,run_exp/static/audio/clip_2_move.m4a,null,,,,,,,,,,,,,,,,,,,,,,,,
welcome_dec,4,33867,0.0-4.0,"""event"",""trial"",""time""
""fullscreenenter"",""1"",""3817""
""fullscreenexit"",""2"",""6618""
","
","
","""event"",""trial"",""time""
""fullscreenenter"",""1"",""3817""
","""event"",""trial"",""time""
""fullscreenexit"",""2"",""6618""
",,2636.1,"<p>Howdy! In this experiment, you’ll be an explorer traveling through space to collect space treasure.</p><p>Your mission is to collect as much treasure as possible.</p><br><br><p><img src='run_exp/static/images/task_images/opening_img-01.jpg' height='300' width='auto'></p>",,,,,,,0,,,,,,,,,,,,,,,,,,
html-keyboard-response,5,35295,0.0-5.0,"""event"",""trial"",""time""
""fullscreenenter"",""1"",""3817""
""fullscreenexit"",""2"",""6618""
","
","
","""event"",""trial"",""time""
""fullscreenenter"",""1"",""3817""
","""event"",""trial"",""time""
""fullscreenexit"",""2"",""6618""
",,1425.5,"<p>Howdy! In this experiment, you’ll be an explorer traveling through space to collect space treasure.</p><p>Your mission is to collect as much treasure as possible.</p><br><br><p><img src='run_exp/static/images/task_images/opening_img-01.jpg' height='300' width='auto'></p><button class=""jspsych-html-btn-chosen""><img src=""run_exp/static/images/task_images/planet-01.jpg"" height=""50""></button><button class=""jspsych-html-btn-unchosen""><img src=""run_exp/static/images/task_images/planet-02.jpg"" height=""50""></button><p><b>[press the space bar to lock in your answer]<b><br></p>",32,,,,,,,,,,,,,,,,,,,,,,,,
instruc_welcome,6,45084,0.0-6.0-0.0,"""event"",""trial"",""time""
""fullscreenenter"",""1"",""3817""
""fullscreenexit"",""2"",""6618""
","
","
","""event"",""trial"",""time""
""fullscreenenter"",""1"",""3817""
","""event"",""trial"",""time""
""fullscreenexit"",""2"",""6618""
",,null,run_exp/static/audio/clip_1_welcome.m4a,null,"<p>Howdy! In this experiment, you’ll be an explorer traveling through space to collect space treasure.</p><p>Your mission is to collect as much treasure as possible.</p><br><br><p><img src='run_exp/static/images/task_images/opening_img-01.jpg' height='300' width='auto'></p>",9299,2558,16,Female,,,,,,,,,,,,,,,,,,,
audio-keyboard-response,7,61702,0.0-6.0-1.0,"""event"",""trial"",""time""
""fullscreenenter"",""1"",""3817""
""fullscreenexit"",""2"",""6618""
","
","
","""event"",""trial"",""time""
""fullscreenenter"",""1"",""3817""
","""event"",""trial"",""time""
""fullscreenexit"",""2"",""6618""
",,null,run_exp/static/audio/clip_2_move.m4a,null,,,,,,,,,,,,,,,,,,,,,,,,
welcome_dec,8,64580,0.0-6.0-2.0,"""event"",""trial"",""time""
""fullscreenenter"",""1"",""3817""
""fullscreenexit"",""2"",""6618""
","
","
","""event"",""trial"",""time""
""fullscreenenter"",""1"",""3817""
","""event"",""trial"",""time""
""fullscreenexit"",""2"",""6618""
",,2874.2,"<p>Howdy! In this experiment, you’ll be an explorer traveling through space to collect space treasure.</p><p>Your mission is to collect as much treasure as possible.</p><br><br><p><img src='run_exp/static/images/task_images/opening_img-01.jpg' height='300' width='auto'></p>",,,,,,,1,,,,,,,,,,,,,,,,,,
html-keyboard-response,9,65402,0.0-6.0-3.0,"""event"",""trial"",""time""
""fullscreenenter"",""1"",""3817""
""fullscreenexit"",""2"",""6618""
","
","
","""event"",""trial"",""time""
""fullscreenenter"",""1"",""3817""
","""event"",""trial"",""time""
""fullscreenexit"",""2"",""6618""
",,819.6,"<p>Howdy! In this experiment, you’ll be an explorer traveling through space to collect space treasure.</p><p>Your mission is to collect as much treasure as possible.</p><br><br><p><img src='run_exp/static/images/task_images/opening_img-01.jpg' height='300' width='auto'></p><button class=""jspsych-html-btn-unchosen""><img src=""run_exp/static/images/task_images/planet-01.jpg"" height=""50""></button><button class=""jspsych-html-btn-chosen""><img src=""run_exp/static/images/task_images/planet-02.jpg"" height=""50""></button><p><b>[press the space bar to lock in your answer]<b><br></p>",32,,,,,,,,,,,,,,,,,,,,,,,,
instruc_goal,10,75483,0.0-7.0-0.0,"""event"",""trial"",""time""
""fullscreenenter"",""1"",""3817""
""fullscreenexit"",""2"",""6618""
","
","
","""event"",""trial"",""time""
""fullscreenenter"",""1"",""3817""
","""event"",""trial"",""time""
""fullscreenexit"",""2"",""6618""
",,null,run_exp/static/audio/clip_3_goal.m4a,null,"<p> As a space explorer, you’ll visit different planets to dig for space treasure, these pink gems.</p> <p> The more treasure you dig up, the more bonus money you’ll win! </p><br><br><p><img src='run_exp/static/images/task_images/pink_gem.jpg' height='300' width='auto'></p>",,,,,,,,,,,,,,,,,,,,,,,
instruc_goal,11,77697,0.0-7.0-1.0,"""event"",""trial"",""time""
""fullscreenenter"",""1"",""3817""
""fullscreenexit"",""2"",""6618""
","
","
","""event"",""trial"",""time""
""fullscreenenter"",""1"",""3817""
","""event"",""trial"",""time""
""fullscreenexit"",""2"",""6618""
",,2210.6,"<p> As a space explorer, you’ll visit different planets to dig for space treasure, these pink gems.</p> <p> The more treasure you dig up, the more bonus money you’ll win! </p><br><br><p><img src='run_exp/static/images/task_images/pink_gem.jpg' height='300' width='auto'></p>",,,,,,,1,,,,,,,,,,,,,,,,,,
html-keyboard-response,12,78407,0.0-7.0-2.0,"""event"",""trial"",""time""
""fullscreenenter"",""1"",""3817""
""fullscreenexit"",""2"",""6618""
","
","
","""event"",""trial"",""time""
""fullscreenenter"",""1"",""3817""
","""event"",""trial"",""time""
""fullscreenexit"",""2"",""6618""
",,708,"<p> As a space explorer, you’ll visit different planets to dig for space treasure, these pink gems.</p> <p> The more treasure you dig up, the more bonus money you’ll win! </p><br><br><p><img src='run_exp/static/images/task_images/pink_gem.jpg' height='300' width='auto'></p><button class=""jspsych-html-btn-unchosen""><img src=""run_exp/static/images/task_images/planet-01.jpg"" height=""50""></button><button class=""jspsych-html-btn-chosen""><img src=""run_exp/static/images/task_images/planet-02.jpg"" height=""50""></button><p><b>[press the space bar to lock in your answer]<b><br></p>",32,,,,,,,,,,,,,,,,,,,,,,,,
instruc_dig,13,94448,0.0-8.0-0.0,"""event"",""trial"",""time""
""fullscreenenter"",""1"",""3817""
""fullscreenexit"",""2"",""6618""
""blur"",""14"",""220464""
""focus"",""14"",""246663""
","""event"",""trial"",""time""
""blur"",""14"",""220464""
","""event"",""trial"",""time""
""focus"",""14"",""246663""
","""event"",""trial"",""time""
""fullscreenenter"",""1"",""3817""
","""event"",""trial"",""time""
""fullscreenexit"",""2"",""6618""
",,null,run_exp/static/audio/clip_4_dig.m4a,null,,,,,,,100,,,,,,,,,,,,,,,,,
instruc_dig_try,14,254256,0.0-8.0-1.0,"""event"",""trial"",""time""
""fullscreenenter"",""1"",""3817""
""fullscreenexit"",""2"",""6618""
""blur"",""14"",""220464""
""focus"",""14"",""246663""
","""event"",""trial"",""time""
""blur"",""14"",""220464""
","""event"",""trial"",""time""
""focus"",""14"",""246663""
","""event"",""trial"",""time""
""fullscreenenter"",""1"",""3817""
","""event"",""trial"",""time""
""fullscreenexit"",""2"",""6618""
",,140644.5,"<p> When you’ve arrived at a new planet, you will dig once. </p> <p>Then, you get to decide if you want to stay on the planet and dig again or travel to a new planet and dig there.</p> <p> To stay and dig, press the letter <strong>‘A’</strong> on your keyboard. Try pressing it now! </p><p><img src='run_exp/static/images/task_images/land.jpg'  height='700' width='auto'></p>",65,"<p> When you’ve arrived at a new planet, you will dig once. </p> <p>Then, you get to decide if you want to stay on the planet and dig again or travel to a new planet and dig there.</p> <p> To stay and dig, press the letter <strong>‘A’</strong> on your keyboard. Try pressing it now! </p><p><img src='run_exp/static/images/task_images/land.jpg'  height='700' width='auto'></p>",,,,,,100,,,,,,,,,,,,,,,,,
dig_prac,15,256275,0.0-8.0-2.0,"""event"",""trial"",""time""
""fullscreenenter"",""1"",""3817""
""fullscreenexit"",""2"",""6618""
""blur"",""14"",""220464""
""focus"",""14"",""246663""
","""event"",""trial"",""time""
""blur"",""14"",""220464""
","""event"",""trial"",""time""
""focus"",""14"",""246663""
","""event"",""trial"",""time""
""fullscreenenter"",""1"",""3817""
","""event"",""trial"",""time""
""fullscreenexit"",""2"",""6618""
",,,,,,,,,,,,"[{""stimulus"":""run_exp/static/images/task_images/dig.jpg"",""time"":0.6000000238418579},{""stimulus"":""run_exp/static/images/task_images/land.jpg"",""time"":679.1000000238419},{""stimulus"":""run_exp/static/images/task_images/dig.jpg"",""time"":1337.1000000238419}]",[],,,,,,,,,,,,,,,
instruc_travel,16,292526,0.0-8.0-3.0,"""event"",""trial"",""time""
""fullscreenenter"",""1"",""3817""
""fullscreenexit"",""2"",""6618""
""blur"",""14"",""220464""
""focus"",""14"",""246663""
","""event"",""trial"",""time""
""blur"",""14"",""220464""
","""event"",""trial"",""time""
""focus"",""14"",""246663""
","""event"",""trial"",""time""
""fullscreenenter"",""1"",""3817""
","""event"",""trial"",""time""
""fullscreenexit"",""2"",""6618""
",,null,run_exp/static/audio/clip_5_travel.m4a,null,"<p>Every time you dig up gems, there are less gems on the planet, so the more you dig on a planet the fewer gems you’ll get with each dig.</p><p>When gems are running low, you may want to travel to a new planet. </p> <p>  Planets are very far apart in this galaxy, so it will take some time to travel between them. </p> <br><p>There are lots and lots of planets for you to visit, so you won’t be able to return to any planets you’ve seen before. </p><br><p>To leave this planet and travel to a new one, press the letter <strong>‘L’</strong> on your keyboard. Try pressing it now! </p><p><img src='run_exp/static/images/task_images/rocket-01.jpg'  height='600' width='auto'></p>",,,,,,,,,,,,,,,,,,,,,,,
instruc_travel_try,17,293261,0.0-8.0-4.0,"""event"",""trial"",""time""
""fullscreenenter"",""1"",""3817""
""fullscreenexit"",""2"",""6618""
""blur"",""14"",""220464""
""focus"",""14"",""246663""
","""event"",""trial"",""time""
""blur"",""14"",""220464""
","""event"",""trial"",""time""
""focus"",""14"",""246663""
","""event"",""trial"",""time""
""fullscreenenter"",""1"",""3817""
","""event"",""trial"",""time""
""fullscreenexit"",""2"",""6618""
",,732.1,"<p>Every time you dig up gems, there are less gems on the planet, so the more you dig on a planet the fewer gems you’ll get with each dig.</p><p>When gems are running low, you may want to travel to a new planet. </p> <p>  Planets are very far apart in this galaxy, so it will take some time to travel between them. </p> <br><p>There are lots and lots of planets for you to visit, so you won’t be able to return to any planets you’ve seen before. </p><br><p>To leave this planet and travel to a new one, press the letter <strong>‘L’</strong> on your keyboard. Try pressing it now! </p><p><img src='run_exp/static/images/task_images/rocket-01.jpg'  height='600' width='auto'></p>",76,"<p>Every time you dig up gems, there are less gems on the planet, so the more you dig on a planet the fewer gems you’ll get with each dig.</p><p>When gems are running low, you may want to travel to a new planet. </p> <p>  Planets are very far apart in this galaxy, so it will take some time to travel between them. </p> <br><p>There are lots and lots of planets for you to visit, so you won’t be able to return to any planets you’ve seen before. </p><br><p>To leave this planet and travel to a new one, press the letter <strong>‘L’</strong> on your keyboard. Try pressing it now! </p><p><img src='run_exp/static/images/task_images/rocket-01.jpg'  height='600' width='auto'></p>",,,,,,,,,,,,,,,,,,,,,,,
travel_prac,18,303274,0.0-8.0-5.0,"""event"",""trial"",""time""
""fullscreenenter"",""1"",""3817""
""fullscreenexit"",""2"",""6618""
""blur"",""14"",""220464""
""focus"",""14"",""246663""
","""event"",""trial"",""time""
""blur"",""14"",""220464""
","""event"",""trial"",""time""
""focus"",""14"",""246663""
","""event"",""trial"",""time""
""fullscreenenter"",""1"",""3817""
","""event"",""trial"",""time""
""fullscreenexit"",""2"",""6618""
",,,,,,,,,,,,"[{""stimulus"":""run_exp/static/images/task_images/rocket-01.jpg"",""time"":0.29999998211860657},{""stimulus"":""run_exp/static/images/task_images/rocket-02.jpg"",""time"":1124.5999999940395},{""stimulus"":""run_exp/static/images/task_images/rocket-03.jpg"",""time"":2224.5999999940395},{""stimulus"":""run_exp/static/images/task_images/rocket-04.jpg"",""time"":3339.5999999940395},{""stimulus"":""run_exp/static/images/task_images/rocket-05.jpg"",""time"":4447.799999982119},{""stimulus"":""run_exp/static/images/task_images/rocket-06.jpg"",""time"":5564.5999999940395},{""stimulus"":""run_exp/static/images/task_images/rocket-07.jpg"",""time"":6676.5999999940395},{""stimulus"":""run_exp/static/images/task_images/rocket-08.jpg"",""time"":7784.399999976158},{""stimulus"":""run_exp/static/images/task_images/rocket-09.jpg"",""time"":8897.699999988079}]",[],0,,,,,,,,,,,,,,
instruc_alien_greet,19,330499,0.0-8.0-6.0,"""event"",""trial"",""time""
""fullscreenenter"",""1"",""3817""
""fullscreenexit"",""2"",""6618""
""blur"",""14"",""220464""
""focus"",""14"",""246663""
","""event"",""trial"",""time""
""blur"",""14"",""220464""
","""event"",""trial"",""time""
""focus"",""14"",""246663""
","""event"",""trial"",""time""
""fullscreenenter"",""1"",""3817""
","""event"",""trial"",""time""
""fullscreenexit"",""2"",""6618""
",,null,run_exp/static/audio/clip_6_alien.m4a,null,"<p>When you arrive at a new planet, the alien who owns the treasure mine on that planet will greet you!</p><p>The better an alien takes care of their mine the easier it is to dig for gems. Some aliens take better care of their mine than others. So, you won’t get exactly the same amount of gems on each planet.</p><p>What the alien looks like does not tell you anything about how many gems there are on the planet.</p><br><p><img src=""run_exp/static/images/task_images/aliens/instructions_aliens/planet/alien_planet-1.jpg""  height=""600"" width=""auto""></p>",,,,,,,,,,,,,,,,,,,,,,,
instruc_alien_greet,20,334468,0.0-8.0-7.0,"""event"",""trial"",""time""
""fullscreenenter"",""1"",""3817""
""fullscreenexit"",""2"",""6618""
""blur"",""14"",""220464""
""focus"",""14"",""246663""
","""event"",""trial"",""time""
""blur"",""14"",""220464""
","""event"",""trial"",""time""
""focus"",""14"",""246663""
","""event"",""trial"",""time""
""fullscreenenter"",""1"",""3817""
","""event"",""trial"",""time""
""fullscreenexit"",""2"",""6618""
",,3964.5,"<p>When you arrive at a new planet, the alien who owns the treasure mine on that planet will greet you!</p><p>The better an alien takes care of their mine the easier it is to dig for gems. Some aliens take better care of their mine than others. So, you won’t get exactly the same amount of gems on each planet.</p><p>What the alien looks like does not tell you anything about how many gems there are on the planet.</p><br><p><img src=""run_exp/static/images/task_images/aliens/instructions_aliens/planet/alien_planet-1.jpg""  height=""600"" width=""auto""></p>",,,,,,,1,,,,,,,,,,,,,,,,,,
html-keyboard-response,21,336845,0.0-8.0-8.0,"""event"",""trial"",""time""
""fullscreenenter"",""1"",""3817""
""fullscreenexit"",""2"",""6618""
""blur"",""14"",""220464""
""focus"",""14"",""246663""
","""event"",""trial"",""time""
""blur"",""14"",""220464""
","""event"",""trial"",""time""
""focus"",""14"",""246663""
","""event"",""trial"",""time""
""fullscreenenter"",""1"",""3817""
","""event"",""trial"",""time""
""fullscreenexit"",""2"",""6618""
",,2375.2,"<p>When you arrive at a new planet, the alien who owns the treasure mine on that planet will greet you!</p><p>The better an alien takes care of their mine the easier it is to dig for gems. Some aliens take better care of their mine than others. So, you won’t get exactly the same amount of gems on each planet.</p><p>What the alien looks like does not tell you anything about how many gems there are on the planet.</p><br><p><img src=""run_exp/static/images/task_images/aliens/instructions_aliens/planet/alien_planet-1.jpg""  height=""600"" width=""auto""></p><button class=""jspsych-html-btn-unchosen""><img src=""run_exp/static/images/task_images/planet-01.jpg"" height=""50""></button><button class=""jspsych-html-btn-chosen""><img src=""run_exp/static/images/task_images/planet-02.jpg"" height=""50""></button><p><b>[press the space bar to lock in your answer]<b><br></p>",32,,,,,,,,,,,,,,,,,,,,,,,,
time_out,22,347971,0.0-9.0-0.0,"""event"",""trial"",""time""
""fullscreenenter"",""1"",""3817""
""fullscreenexit"",""2"",""6618""
""blur"",""14"",""220464""
""focus"",""14"",""246663""
","""event"",""trial"",""time""
""blur"",""14"",""220464""
","""event"",""trial"",""time""
""focus"",""14"",""246663""
","""event"",""trial"",""time""
""fullscreenenter"",""1"",""3817""
","""event"",""trial"",""time""
""fullscreenexit"",""2"",""6618""
",,null,run_exp/static/audio/clip_7_timeout.m4a,null,"<p>If you don't make your choice fast enough, you’ll have to wait a few seconds before you can make another one.</p><p>You can’t dig for more gems or travel to new planets. You just have to sit and wait.</p><br><p><img src='run_exp/static/images/task_images/time_out.jpg'  height='600' width='auto'></p>",,,,,,,,,,,,,,,,,,,,,,,
time_out,23,350262,0.0-9.0-1.0,"""event"",""trial"",""time""
""fullscreenenter"",""1"",""3817""
""fullscreenexit"",""2"",""6618""
""blur"",""14"",""220464""
""focus"",""14"",""246663""
","""event"",""trial"",""time""
""blur"",""14"",""220464""
","""event"",""trial"",""time""
""focus"",""14"",""246663""
","""event"",""trial"",""time""
""fullscreenenter"",""1"",""3817""
","""event"",""trial"",""time""
""fullscreenexit"",""2"",""6618""
",,2284.2,"<p>If you don't make your choice fast enough, you’ll have to wait a few seconds before you can make another one.</p><p>You can’t dig for more gems or travel to new planets. You just have to sit and wait.</p><br><p><img src='run_exp/static/images/task_images/time_out.jpg'  height='600' width='auto'></p>",,,,,,,1,,,,,,,,,,,,,,,,,,
html-keyboard-response,24,351194,0.0-9.0-2.0,"""event"",""trial"",""time""
""fullscreenenter"",""1"",""3817""
""fullscreenexit"",""2"",""6618""
""blur"",""14"",""220464""
""focus"",""14"",""246663""
","""event"",""trial"",""time""
""blur"",""14"",""220464""
","""event"",""trial"",""time""
""focus"",""14"",""246663""
","""event"",""trial"",""time""
""fullscreenenter"",""1"",""3817""
","""event"",""trial"",""time""
""fullscreenexit"",""2"",""6618""
",,930.1,"<p>If you don't make your choice fast enough, you’ll have to wait a few seconds before you can make another one.</p><p>You can’t dig for more gems or travel to new planets. You just have to sit and wait.</p><br><p><img src='run_exp/static/images/task_images/time_out.jpg'  height='600' width='auto'></p><button class=""jspsych-html-btn-unchosen""><img src=""run_exp/static/images/task_images/planet-01.jpg"" height=""50""></button><button class=""jspsych-html-btn-chosen""><img src=""run_exp/static/images/task_images/planet-02.jpg"" height=""50""></button><p><b>[press the space bar to lock in your answer]<b><br></p>",32,,,,,,,,,,,,,,,,,,,,,,,,
instruc_break,25,366872,0.0-10.0-0.0,"""event"",""trial"",""time""
""fullscreenenter"",""1"",""3817""
""fullscreenexit"",""2"",""6618""
""blur"",""14"",""220464""
""focus"",""14"",""246663""
","""event"",""trial"",""time""
""blur"",""14"",""220464""
","""event"",""trial"",""time""
""focus"",""14"",""246663""
","""event"",""trial"",""time""
""fullscreenenter"",""1"",""3817""
","""event"",""trial"",""time""
""fullscreenexit"",""2"",""6618""
",,null,run_exp/static/audio/clip_8_break.m4a,null,"<p> After digging and traveling for a while, you’ll be able to take a break at home base. </p><p>The game will last 20 minutes no matter what.</p><p>You will visit home base every 5 minutes, so, you will visit home base three times during the game.</p><br><p><img src='run_exp/static/images/task_images/home_base.jpg' height='600' width='auto'></p>",,,,,,,,,,,,,,,,,,,,,,,
instruc_break,26,369264,0.0-10.0-1.0,"""event"",""trial"",""time""
""fullscreenenter"",""1"",""3817""
""fullscreenexit"",""2"",""6618""
""blur"",""14"",""220464""
""focus"",""14"",""246663""
","""event"",""trial"",""time""
""blur"",""14"",""220464""
","""event"",""trial"",""time""
""focus"",""14"",""246663""
","""event"",""trial"",""time""
""fullscreenenter"",""1"",""3817""
","""event"",""trial"",""time""
""fullscreenexit"",""2"",""6618""
",,2389.2,"<p> After digging and traveling for a while, you’ll be able to take a break at home base. </p><p>The game will last 20 minutes no matter what.</p><p>You will visit home base every 5 minutes, so, you will visit home base three times during the game.</p><br><p><img src='run_exp/static/images/task_images/home_base.jpg' height='600' width='auto'></p>",,,,,,,1,,,,,,,,,,,,,,,,,,
html-keyboard-response,27,373326,0.0-10.0-2.0,"""event"",""trial"",""time""
""fullscreenenter"",""1"",""3817""
""fullscreenexit"",""2"",""6618""
""blur"",""14"",""220464""
""focus"",""14"",""246663""
","""event"",""trial"",""time""
""blur"",""14"",""220464""
","""event"",""trial"",""time""
""focus"",""14"",""246663""
","""event"",""trial"",""time""
""fullscreenenter"",""1"",""3817""
","""event"",""trial"",""time""
""fullscreenexit"",""2"",""6618""
",,4059.3,"<p> After digging and traveling for a while, you’ll be able to take a break at home base. </p><p>The game will last 20 minutes no matter what.</p><p>You will visit home base every 5 minutes, so, you will visit home base three times during the game.</p><br><p><img src='run_exp/static/images/task_images/home_base.jpg' height='600' width='auto'></p><button class=""jspsych-html-btn-unchosen""><img src=""run_exp/static/images/task_images/planet-01.jpg"" height=""50""></button><button class=""jspsych-html-btn-chosen""><img src=""run_exp/static/images/task_images/planet-02.jpg"" height=""50""></button><p><b>[press the space bar to lock in your answer]<b><br></p>",32,,,,,,,,,,,,,,,,,,,,,,,,
instruc_prac_game,28,383490,0.0-11.0-0.0,"""event"",""trial"",""time""
""fullscreenenter"",""1"",""3817""
""fullscreenexit"",""2"",""6618""
""blur"",""14"",""220464""
""focus"",""14"",""246663""
","""event"",""trial"",""time""
""blur"",""14"",""220464""
","""event"",""trial"",""time""
""focus"",""14"",""246663""
","""event"",""trial"",""time""
""fullscreenenter"",""1"",""3817""
","""event"",""trial"",""time""
""fullscreenexit"",""2"",""6618""
",,null,run_exp/static/audio/clip_9_practice.m4a,null,"<p> Are you ready to play a practice game? </p> <p>In this practice game, you'll be digging up barrels of gems. But, in the real game, you'll be digging up the gems themselves. </p>",,,,,,,,,,,,,,,,,,,,,,,
html-button-response,29,386879,0.0-11.0-1.0,"""event"",""trial"",""time""
""fullscreenenter"",""1"",""3817""
""fullscreenexit"",""2"",""6618""
""blur"",""14"",""220464""
""focus"",""14"",""246663""
","""event"",""trial"",""time""
""blur"",""14"",""220464""
","""event"",""trial"",""time""
""focus"",""14"",""246663""
","""event"",""trial"",""time""
""fullscreenenter"",""1"",""3817""
","""event"",""trial"",""time""
""fullscreenexit"",""2"",""6618""
",,3385.5,"<p> Are you ready to play a practice game? </p> <p>In this practice game, you'll be digging up barrels of gems. But, in the real game, you'll be digging up the gems themselves. </p>",,,,,,,0,,,,,,,,,,,,,,,,,,
alien_welcome_prac,30,391887,0.0-12.0-0.0,"""event"",""trial"",""time""
""fullscreenenter"",""1"",""3817""
""fullscreenexit"",""2"",""6618""
""blur"",""14"",""220464""
""focus"",""14"",""246663""
","""event"",""trial"",""time""
""blur"",""14"",""220464""
","""event"",""trial"",""time""
""focus"",""14"",""246663""
","""event"",""trial"",""time""
""fullscreenenter"",""1"",""3817""
","""event"",""trial"",""time""
""fullscreenexit"",""2"",""6618""
",,null,run_exp/static/images/task_images/aliens/practice_aliens/planet/alien_planet-5.jpg,null,,,,,,,,,,,,,,,,,,,,,,,,
land_prac,31,392396,0.0-12.0-1.0,"""event"",""trial"",""time""
""fullscreenenter"",""1"",""3817""
""fullscreenexit"",""2"",""6618""
""blur"",""14"",""220464""
""focus"",""14"",""246663""
","""event"",""trial"",""time""
""blur"",""14"",""220464""
","""event"",""trial"",""time""
""focus"",""14"",""246663""
","""event"",""trial"",""time""
""fullscreenenter"",""1"",""3817""
","""event"",""trial"",""time""
""fullscreenexit"",""2"",""6618""
",,null,run_exp/static/images/task_images/land.jpg,null,,,,,,,96,,,0,,,,,,,,,,,,,,
dig_prac,32,394408,0.0-12.0-2.0,"""event"",""trial"",""time""
""fullscreenenter"",""1"",""3817""
""fullscreenexit"",""2"",""6618""
""blur"",""14"",""220464""
""focus"",""14"",""246663""
","""event"",""trial"",""time""
""blur"",""14"",""220464""
","""event"",""trial"",""time""
""focus"",""14"",""246663""
","""event"",""trial"",""time""
""fullscreenenter"",""1"",""3817""
","""event"",""trial"",""time""
""fullscreenexit"",""2"",""6618""
",,,,,,,,,,,,"[{""stimulus"":""run_exp/static/images/task_images/dig.jpg"",""time"":0.5999999940395355},{""stimulus"":""run_exp/static/images/task_images/land.jpg"",""time"":675.7000000178814},{""stimulus"":""run_exp/static/images/task_images/dig.jpg"",""time"":1343.7000000178814}]",[],,,,,,,,,,,,,,,
harvest_prac,33,395416,0.0-12.0-3.0,"""event"",""trial"",""time""
""fullscreenenter"",""1"",""3817""
""fullscreenexit"",""2"",""6618""
""blur"",""14"",""220464""
""focus"",""14"",""246663""
","""event"",""trial"",""time""
""blur"",""14"",""220464""
","""event"",""trial"",""time""
""focus"",""14"",""246663""
","""event"",""trial"",""time""
""fullscreenenter"",""1"",""3817""
","""event"",""trial"",""time""
""fullscreenexit"",""2"",""6618""
",,null,run_exp/static/images/task_images/barrel_text.jpg,null,,,,,,,,,,,,,,,,,,,,,,,,
decision_prac,34,398424,0.0-12.0-4.0,"""event"",""trial"",""time""
""fullscreenenter"",""1"",""3817""
""fullscreenexit"",""2"",""6618""
""blur"",""14"",""220464""
""focus"",""14"",""246663""
","""event"",""trial"",""time""
""blur"",""14"",""220464""
","""event"",""trial"",""time""
""focus"",""14"",""246663""
","""event"",""trial"",""time""
""fullscreenenter"",""1"",""3817""
","""event"",""trial"",""time""
""fullscreenexit"",""2"",""6618""
",,null,run_exp/static/images/task_images/land.jpg,null,,,,,,,,,,,1,,,,,,,,,,,,,
time_out,35,400441,0.0-13.0-0.0,"""event"",""trial"",""time""
""fullscreenenter"",""1"",""3817""
""fullscreenexit"",""2"",""6618""
""blur"",""14"",""220464""
""focus"",""14"",""246663""
","""event"",""trial"",""time""
""blur"",""14"",""220464""
","""event"",""trial"",""time""
""focus"",""14"",""246663""
","""event"",""trial"",""time""
""fullscreenenter"",""1"",""3817""
","""event"",""trial"",""time""
""fullscreenexit"",""2"",""6618""
",,null,run_exp/static/images/task_images/time_out.jpg,null,,,,,,,,,,,,,,,,,,,,,,,,
decision_prac,36,400627,0.0-13.0-1.0,"""event"",""trial"",""time""
""fullscreenenter"",""1"",""3817""
""fullscreenexit"",""2"",""6618""
""blur"",""14"",""220464""
""focus"",""14"",""246663""
","""event"",""trial"",""time""
""blur"",""14"",""220464""
","""event"",""trial"",""time""
""focus"",""14"",""246663""
","""event"",""trial"",""time""
""fullscreenenter"",""1"",""3817""
","""event"",""trial"",""time""
""fullscreenexit"",""2"",""6618""
",,182.8,run_exp/static/images/task_images/land.jpg,76,,,,,,,,,,,2,,,,,,,,,,,,,
travel,37,410449,0.0-14.0-0.0,"""event"",""trial"",""time""
""fullscreenenter"",""1"",""3817""
""fullscreenexit"",""2"",""6618""
""blur"",""14"",""220464""
""focus"",""14"",""246663""
","""event"",""trial"",""time""
""blur"",""14"",""220464""
","""event"",""trial"",""time""
""focus"",""14"",""246663""
","""event"",""trial"",""time""
""fullscreenenter"",""1"",""3817""
","""event"",""trial"",""time""
""fullscreenexit"",""2"",""6618""
",,,,,,,,,,,,"[{""stimulus"":""run_exp/static/images/task_images/rocket-01.jpg"",""time"":0.30000001192092896},{""stimulus"":""run_exp/static/images/task_images/rocket-02.jpg"",""time"":1094.9000000059605},{""stimulus"":""run_exp/static/images/task_images/rocket-03.jpg"",""time"":2186.5999999940395},{""stimulus"":""run_exp/static/images/task_images/rocket-04.jpg"",""time"":3278},{""stimulus"":""run_exp/static/images/task_images/rocket-05.jpg"",""time"":4370.9000000059605},{""stimulus"":""run_exp/static/images/task_images/rocket-06.jpg"",""time"":5458.9000000059605},{""stimulus"":""run_exp/static/images/task_images/rocket-07.jpg"",""time"":6543.5999999940395},{""stimulus"":""run_exp/static/images/task_images/rocket-08.jpg"",""time"":7642.9000000059605},{""stimulus"":""run_exp/static/images/task_images/rocket-09.jpg"",""time"":8726.800000011921}]",[],0,,,,,,,,,,,,,,
alien_welcome_prac,38,415466,0.0-14.0-1.0,"""event"",""trial"",""time""
""fullscreenenter"",""1"",""3817""
""fullscreenexit"",""2"",""6618""
""blur"",""14"",""220464""
""focus"",""14"",""246663""
","""event"",""trial"",""time""
""blur"",""14"",""220464""
","""event"",""trial"",""time""
""focus"",""14"",""246663""
","""event"",""trial"",""time""
""fullscreenenter"",""1"",""3817""
","""event"",""trial"",""time""
""fullscreenexit"",""2"",""6618""
",,null,run_exp/static/images/task_images/aliens/practice_aliens/planet/alien_planet-4.jpg,null,,,,,,,,,,,,,,,,,,,,,,,,
land_prac,39,415974,0.0-14.0-2.0,"""event"",""trial"",""time""
""fullscreenenter"",""1"",""3817""
""fullscreenexit"",""2"",""6618""
""blur"",""14"",""220464""
""focus"",""14"",""246663""
","""event"",""trial"",""time""
""blur"",""14"",""220464""
","""event"",""trial"",""time""
""focus"",""14"",""246663""
","""event"",""trial"",""time""
""fullscreenenter"",""1"",""3817""
","""event"",""trial"",""time""
""fullscreenexit"",""2"",""6618""
",,null,run_exp/static/images/task_images/land.jpg,null,,,,,,,95,,,0,,,,,,,,,,,,,,
dig_prac,40,417981,0.0-14.0-3.0,"""event"",""trial"",""time""
""fullscreenenter"",""1"",""3817""
""fullscreenexit"",""2"",""6618""
""blur"",""14"",""220464""
""focus"",""14"",""246663""
","""event"",""trial"",""time""
""blur"",""14"",""220464""
","""event"",""trial"",""time""
""focus"",""14"",""246663""
","""event"",""trial"",""time""
""fullscreenenter"",""1"",""3817""
","""event"",""trial"",""time""
""fullscreenexit"",""2"",""6618""
",,,,,,,,,,,,"[{""stimulus"":""run_exp/static/images/task_images/dig.jpg"",""time"":0.5999999940395355},{""stimulus"":""run_exp/static/images/task_images/land.jpg"",""time"":681.2000000178814},{""stimulus"":""run_exp/static/images/task_images/dig.jpg"",""time"":1341}]",[],,,,,,,,,,,,,,,
harvest_prac,41,418991,0.0-14.0-4.0,"""event"",""trial"",""time""
""fullscreenenter"",""1"",""3817""
""fullscreenexit"",""2"",""6618""
""blur"",""14"",""220464""
""focus"",""14"",""246663""
","""event"",""trial"",""time""
""blur"",""14"",""220464""
","""event"",""trial"",""time""
""focus"",""14"",""246663""
","""event"",""trial"",""time""
""fullscreenenter"",""1"",""3817""
","""event"",""trial"",""time""
""fullscreenexit"",""2"",""6618""
",,null,run_exp/static/images/task_images/barrel_text.jpg,null,,,,,,,,,,,,,,,,,,,,,,,,
decision_prac,42,419631,0.0-14.0-5.0,"""event"",""trial"",""time""
""fullscreenenter"",""1"",""3817""
""fullscreenexit"",""2"",""6618""
""blur"",""14"",""220464""
""focus"",""14"",""246663""
","""event"",""trial"",""time""
""blur"",""14"",""220464""
","""event"",""trial"",""time""
""focus"",""14"",""246663""
","""event"",""trial"",""time""
""fullscreenenter"",""1"",""3817""
","""event"",""trial"",""time""
""fullscreenexit"",""2"",""6618""
",,638.6,run_exp/static/images/task_images/land.jpg,65,,,,,,,,,,,3,,,,,,,,,,,,,
dig_prac,43,421641,0.0-15.0-0.0,"""event"",""trial"",""time""
""fullscreenenter"",""1"",""3817""
""fullscreenexit"",""2"",""6618""
""blur"",""14"",""220464""
""focus"",""14"",""246663""
","""event"",""trial"",""time""
""blur"",""14"",""220464""
","""event"",""trial"",""time""
""focus"",""14"",""246663""
","""event"",""trial"",""time""
""fullscreenenter"",""1"",""3817""
","""event"",""trial"",""time""
""fullscreenexit"",""2"",""6618""
",,,,,,,,,,,,"[{""stimulus"":""run_exp/static/images/task_images/dig.jpg"",""time"":0.19999998807907104},{""stimulus"":""run_exp/static/images/task_images/land.jpg"",""time"":679.3000000119209},{""stimulus"":""run_exp/static/images/task_images/dig.jpg"",""time"":1339.5999999940395}]",[],,,,,,,,,,,,,,,
harvest_prac,44,422649,0.0-15.0-1.0,"""event"",""trial"",""time""
""fullscreenenter"",""1"",""3817""
""fullscreenexit"",""2"",""6618""
""blur"",""14"",""220464""
""focus"",""14"",""246663""
","""event"",""trial"",""time""
""blur"",""14"",""220464""
","""event"",""trial"",""time""
""focus"",""14"",""246663""
","""event"",""trial"",""time""
""fullscreenenter"",""1"",""3817""
","""event"",""trial"",""time""
""fullscreenexit"",""2"",""6618""
",,null,run_exp/static/images/task_images/barrel_text.jpg,null,,,,,,,,,,,,,,,,,,,,,,,,
decision_prac,45,422958,0.0-15.0-2.0,"""event"",""trial"",""time""
""fullscreenenter"",""1"",""3817""
""fullscreenexit"",""2"",""6618""
""blur"",""14"",""220464""
""focus"",""14"",""246663""
","""event"",""trial"",""time""
""blur"",""14"",""220464""
","""event"",""trial"",""time""
""focus"",""14"",""246663""
","""event"",""trial"",""time""
""fullscreenenter"",""1"",""3817""
","""event"",""trial"",""time""
""fullscreenexit"",""2"",""6618""
",,306.7,run_exp/static/images/task_images/land.jpg,65,,,,,,,,,,,4,,,,,,,,,,,,,
dig_prac,46,424969,0.0-16.0-0.0,"""event"",""trial"",""time""
""fullscreenenter"",""1"",""3817""
""fullscreenexit"",""2"",""6618""
""blur"",""14"",""220464""
""focus"",""14"",""246663""
","""event"",""trial"",""time""
""blur"",""14"",""220464""
","""event"",""trial"",""time""
""focus"",""14"",""246663""
","""event"",""trial"",""time""
""fullscreenenter"",""1"",""3817""
","""event"",""trial"",""time""
""fullscreenexit"",""2"",""6618""
",,,,,,,,,,,,"[{""stimulus"":""run_exp/static/images/task_images/dig.jpg"",""time"":0.19999998807907104},{""stimulus"":""run_exp/static/images/task_images/land.jpg"",""time"":679.0999999940395},{""stimulus"":""run_exp/static/images/task_images/dig.jpg"",""time"":1342.5999999940395}]",[],,,,,,,,,,,,,,,
harvest_prac,47,425977,0.0-16.0-1.0,"""event"",""trial"",""time""
""fullscreenenter"",""1"",""3817""
""fullscreenexit"",""2"",""6618""
""blur"",""14"",""220464""
""focus"",""14"",""246663""
","""event"",""trial"",""time""
""blur"",""14"",""220464""
","""event"",""trial"",""time""
""focus"",""14"",""246663""
","""event"",""trial"",""time""
""fullscreenenter"",""1"",""3817""
","""event"",""trial"",""time""
""fullscreenexit"",""2"",""6618""
",,null,run_exp/static/images/task_images/barrel_text.jpg,null,,,,,,,,,,,,,,,,,,,,,,,,
decision_prac,48,426328,0.0-16.0-2.0,"""event"",""trial"",""time""
""fullscreenenter"",""1"",""3817""
""fullscreenexit"",""2"",""6618""
""blur"",""14"",""220464""
""focus"",""14"",""246663""
","""event"",""trial"",""time""
""blur"",""14"",""220464""
","""event"",""trial"",""time""
""focus"",""14"",""246663""
","""event"",""trial"",""time""
""fullscreenenter"",""1"",""3817""
","""event"",""trial"",""time""
""fullscreenexit"",""2"",""6618""
",,349,run_exp/static/images/task_images/land.jpg,65,,,,,,,,,,,,1,,,,,,,,,,,,
quiz_instruc,49,428400,0.0-17.0-0.0,"""event"",""trial"",""time""
""fullscreenenter"",""1"",""3817""
""fullscreenexit"",""2"",""6618""
""blur"",""14"",""220464""
""focus"",""14"",""246663""
","""event"",""trial"",""time""
""blur"",""14"",""220464""
","""event"",""trial"",""time""
""focus"",""14"",""246663""
","""event"",""trial"",""time""
""fullscreenenter"",""1"",""3817""
","""event"",""trial"",""time""
""fullscreenexit"",""2"",""6618""
",,2068.5,run_exp/static/audio/clip_10_quiz.m4a,,,,,,,0,,,,,,,,,,,,,,,,,,
instruc_repeat,50,471190,0.0-17.0-1.0,"""event"",""trial"",""time""
""fullscreenenter"",""1"",""3817""
""fullscreenexit"",""2"",""6618""
""blur"",""14"",""220464""
""focus"",""14"",""246663""
","""event"",""trial"",""time""
""blur"",""14"",""220464""
","""event"",""trial"",""time""
""focus"",""14"",""246663""
","""event"",""trial"",""time""
""fullscreenenter"",""1"",""3817""
","""event"",""trial"",""time""
""fullscreenexit"",""2"",""6618""
",,null,"<p> Are you ready to play a practice game? </p> <p>In this practice game, you'll be digging up barrels of gems. But, in the real game, you'll be digging up the gems themselves. </p>",null,"<p>In this game, your goal is to collect as many gems as you can. That’s how you will win bonus money. </p> <p>The entire game will last 20 minutes no matter how many gems you collect or how many planets you visit. </p><p>To stay on a planet and dig again, press the letter A on your keyboard. To leave for a new planet, press the letter L.</p><p>The more you dig on a planet, the fewer gems you’ll get with each dig which is why you might consider leaving for a new planet. </p><p>When you arrive at a new planet, you’ll be greeted by an alien. What the alien looks like does not tell you anything about how much treasure is on the planet. </p>",,,,,,,,,,,,,,,,,,,,,,,
instruc_repeat_continue,51,472412,0.0-17.0-2.0,"""event"",""trial"",""time""
""fullscreenenter"",""1"",""3817""
""fullscreenexit"",""2"",""6618""
""blur"",""14"",""220464""
""focus"",""14"",""246663""
","""event"",""trial"",""time""
""blur"",""14"",""220464""
","""event"",""trial"",""time""
""focus"",""14"",""246663""
","""event"",""trial"",""time""
""fullscreenenter"",""1"",""3817""
","""event"",""trial"",""time""
""fullscreenexit"",""2"",""6618""
",,1219.6,"<p> Are you ready to play a practice game? </p> <p>In this practice game, you'll be digging up barrels of gems. But, in the real game, you'll be digging up the gems themselves. </p>",,,,,,,0,,,,,,,,,,,,,,,,,,
quiz_q_1_ask,52,476331,0.0-17.0-3.0,"""event"",""trial"",""time""
""fullscreenenter"",""1"",""3817""
""fullscreenexit"",""2"",""6618""
""blur"",""14"",""220464""
""focus"",""14"",""246663""
","""event"",""trial"",""time""
""blur"",""14"",""220464""
","""event"",""trial"",""time""
""focus"",""14"",""246663""
","""event"",""trial"",""time""
""fullscreenenter"",""1"",""3817""
","""event"",""trial"",""time""
""fullscreenexit"",""2"",""6618""
",,3915.9,run_exp/static/audio/clip_11_q1_ask.m4a,,,,,,,2,,,,,,,,,,,,,,,,,,
quiz_q_1_fb_correct,53,480171,0.0-18.0-0.0,"""event"",""trial"",""time""
""fullscreenenter"",""1"",""3817""
""fullscreenexit"",""2"",""6618""
""blur"",""14"",""220464""
""focus"",""14"",""246663""
","""event"",""trial"",""time""
""blur"",""14"",""220464""
","""event"",""trial"",""time""
""focus"",""14"",""246663""
","""event"",""trial"",""time""
""fullscreenenter"",""1"",""3817""
","""event"",""trial"",""time""
""fullscreenexit"",""2"",""6618""
",,null,run_exp/static/audio/clip_12_q1_correct.m4a,null,<p>That’s correct. You win extra money by collecting more gems.</p>,,,,,,,,,,,,,,,,,,,,,,,
quiz_q_2_ask,54,484653,0.0-18.0-1.0,"""event"",""trial"",""time""
""fullscreenenter"",""1"",""3817""
""fullscreenexit"",""2"",""6618""
""blur"",""14"",""220464""
""focus"",""14"",""246663""
","""event"",""trial"",""time""
""blur"",""14"",""220464""
","""event"",""trial"",""time""
""focus"",""14"",""246663""
","""event"",""trial"",""time""
""fullscreenenter"",""1"",""3817""
","""event"",""trial"",""time""
""fullscreenexit"",""2"",""6618""
",,4478.7,run_exp/static/audio/clip_14_q2_ask.m4a,,,,,,,1,,,,,,,,,,,,,,,,,,
quiz_q_2_fb_correct,55,488662,0.0-19.0-0.0,"""event"",""trial"",""time""
""fullscreenenter"",""1"",""3817""
""fullscreenexit"",""2"",""6618""
""blur"",""14"",""220464""
""focus"",""14"",""246663""
","""event"",""trial"",""time""
""blur"",""14"",""220464""
","""event"",""trial"",""time""
""focus"",""14"",""246663""
","""event"",""trial"",""time""
""fullscreenenter"",""1"",""3817""
","""event"",""trial"",""time""
""fullscreenexit"",""2"",""6618""
",,null,run_exp/static/audio/clip_15_q2_correct.m4a,null,<p>That’s correct. The experiment is 20 minutes no matter what.</p>,,,,,,,,,,,,,,,,,,,,,,,
quiz_q_3_ask,56,491933,0.0-19.0-1.0,"""event"",""trial"",""time""
""fullscreenenter"",""1"",""3817""
""fullscreenexit"",""2"",""6618""
""blur"",""14"",""220464""
""focus"",""14"",""246663""
","""event"",""trial"",""time""
""blur"",""14"",""220464""
","""event"",""trial"",""time""
""focus"",""14"",""246663""
","""event"",""trial"",""time""
""fullscreenenter"",""1"",""3817""
","""event"",""trial"",""time""
""fullscreenexit"",""2"",""6618""
",,3268.8,run_exp/static/audio/clip_17_q3_ask.m4a,,,,,,,1,,,,,,,,,,,,,,,,,,
quiz_q_3_fb_correct,57,495915,0.0-20.0-0.0,"""event"",""trial"",""time""
""fullscreenenter"",""1"",""3817""
""fullscreenexit"",""2"",""6618""
""blur"",""14"",""220464""
""focus"",""14"",""246663""
","""event"",""trial"",""time""
""blur"",""14"",""220464""
","""event"",""trial"",""time""
""focus"",""14"",""246663""
","""event"",""trial"",""time""
""fullscreenenter"",""1"",""3817""
","""event"",""trial"",""time""
""fullscreenexit"",""2"",""6618""
",,null,run_exp/static/audio/clip_18_q3_correct.m4a,null,<p> That’s correct. You press the letter L to travel to a new planet.</p>,,,,,,,,,,,,,,,,,,,,,,,
quiz_q_4_ask,58,497937,0.0-20.0-1.0,"""event"",""trial"",""time""
""fullscreenenter"",""1"",""3817""
""fullscreenexit"",""2"",""6618""
""blur"",""14"",""220464""
""focus"",""14"",""246663""
","""event"",""trial"",""time""
""blur"",""14"",""220464""
","""event"",""trial"",""time""
""focus"",""14"",""246663""
","""event"",""trial"",""time""
""fullscreenenter"",""1"",""3817""
","""event"",""trial"",""time""
""fullscreenexit"",""2"",""6618""
",,2019.8,run_exp/static/audio/clip_20_q4_ask.m4a,,,,,,,0,,,,,,,,,,,,,,,,,,
quiz_q_4_fb_correct,59,503253,0.0-21.0-0.0,"""event"",""trial"",""time""
""fullscreenenter"",""1"",""3817""
""fullscreenexit"",""2"",""6618""
""blur"",""14"",""220464""
""focus"",""14"",""246663""
","""event"",""trial"",""time""
""blur"",""14"",""220464""
","""event"",""trial"",""time""
""focus"",""14"",""246663""
","""event"",""trial"",""time""
""fullscreenenter"",""1"",""3817""
","""event"",""trial"",""time""
""fullscreenexit"",""2"",""6618""
",,null,run_exp/static/audio/clip_21_q4_correct.m4a,null,<p> That’s correct. The more you dig on a planet the fewer gems you’ll get with each dig. </p>,,,,,,,,,,,,,,,,,,,,,,,
quiz_q_5_ask,60,506352,0.0-21.0-1.0,"""event"",""trial"",""time""
""fullscreenenter"",""1"",""3817""
""fullscreenexit"",""2"",""6618""
""blur"",""14"",""220464""
""focus"",""14"",""246663""
","""event"",""trial"",""time""
""blur"",""14"",""220464""
","""event"",""trial"",""time""
""focus"",""14"",""246663""
","""event"",""trial"",""time""
""fullscreenenter"",""1"",""3817""
","""event"",""trial"",""time""
""fullscreenexit"",""2"",""6618""
",,3096.3,run_exp/static/audio/clip_23_q5_ask.m4a,,,,,,,1,,,,,,,,,,,,,,,,,,
quiz_q_5_fb_correct,61,511360,0.0-22.0-0.0,"""event"",""trial"",""time""
""fullscreenenter"",""1"",""3817""
""fullscreenexit"",""2"",""6618""
""blur"",""14"",""220464""
""focus"",""14"",""246663""
","""event"",""trial"",""time""
""blur"",""14"",""220464""
","""event"",""trial"",""time""
""focus"",""14"",""246663""
","""event"",""trial"",""time""
""fullscreenenter"",""1"",""3817""
","""event"",""trial"",""time""
""fullscreenexit"",""2"",""6618""
",,null,run_exp/static/audio/clip_24_q5_correct.m4a,null,<p> That’s correct. The alien tells you nothing about how much treasure is on the planet.</p>,,,,,,,,,,,,,,,,,,,,,,,
quiz_correct,62,514816,0.0-23.0-0.0,"""event"",""trial"",""time""
""fullscreenenter"",""1"",""3817""
""fullscreenexit"",""2"",""6618""
""blur"",""14"",""220464""
""focus"",""14"",""246663""
","""event"",""trial"",""time""
""blur"",""14"",""220464""
","""event"",""trial"",""time""
""focus"",""14"",""246663""
","""event"",""trial"",""time""
""fullscreenenter"",""1"",""3817""
","""event"",""trial"",""time""
""fullscreenexit"",""2"",""6618""
",,null,run_exp/static/audio/clip_26_correct_quiz.m4a,null,,,,,,,,,,,,,,,,,,,,,,,,
quiz_correct_continue,63,515482,0.0-23.0-1.0,"""event"",""trial"",""time""
""fullscreenenter"",""1"",""3817""
""fullscreenexit"",""2"",""6618""
""blur"",""14"",""220464""
""focus"",""14"",""246663""
","""event"",""trial"",""time""
""blur"",""14"",""220464""
","""event"",""trial"",""time""
""focus"",""14"",""246663""
","""event"",""trial"",""time""
""fullscreenenter"",""1"",""3817""
","""event"",""trial"",""time""
""fullscreenexit"",""2"",""6618""
",,664.6,<p>Good job! You're now ready to move on to the real game!</p>,,,,,,,0,,,,,,,,,,,,,,,,,,
audio-keyboard-response,64,525589,0.0-23.0-2.0,"""event"",""trial"",""time""
""fullscreenenter"",""1"",""3817""
""fullscreenexit"",""2"",""6618""
""blur"",""14"",""220464""
""focus"",""14"",""246663""
","""event"",""trial"",""time""
""blur"",""14"",""220464""
","""event"",""trial"",""time""
""focus"",""14"",""246663""
","""event"",""trial"",""time""
""fullscreenenter"",""1"",""3817""
","""event"",""trial"",""time""
""fullscreenexit"",""2"",""6618""
",,null,run_exp/static/audio/clip_28_real_game.m4a,null,,,,,,,,,,,,,,,,,,,,,,,,
instruc_begin_exp_contine,65,527017,0.0-23.0-3.0,"""event"",""trial"",""time""
""fullscreenenter"",""1"",""3817""
""fullscreenexit"",""2"",""6618""
""blur"",""14"",""220464""
""focus"",""14"",""246663""
","""event"",""trial"",""time""
""blur"",""14"",""220464""
","""event"",""trial"",""time""
""focus"",""14"",""246663""
","""event"",""trial"",""time""
""fullscreenenter"",""1"",""3817""
","""event"",""trial"",""time""
""fullscreenexit"",""2"",""6618""
",,1424.2,"<p>Now that you know how  to dig for space treasure and travel to new planets,you can start exploring! </p><p>Do you want to go over the instructions again or get started with the real game?</p>",,,,,,,1,,,,,,1,,,,,,,,,,,,
alien_welcome,66,532030,0.0-24.0-0.0,"""event"",""trial"",""time""
""fullscreenenter"",""1"",""3817""
""fullscreenexit"",""2"",""6618""
""blur"",""14"",""220464""
""focus"",""14"",""246663""
","""event"",""trial"",""time""
""blur"",""14"",""220464""
","""event"",""trial"",""time""
""focus"",""14"",""246663""
","""event"",""trial"",""time""
""fullscreenenter"",""1"",""3817""
","""event"",""trial"",""time""
""fullscreenexit"",""2"",""6618""
",,null,run_exp/static/images/task_images/aliens/old_aliens/planet/alien_planet-50.jpg,null,,,,,,,,,,,,,50,"50,39,20,44,24,77,58,73,23,51,37,47,7,41,5,36,54,70,4,61,6,31,18,71,14,68,48,42,72,65,79,16,55,17,63,1,46,27,28,43",,,,,,,,,,
land,67,532537,0.0-24.0-1.0,"""event"",""trial"",""time""
""fullscreenenter"",""1"",""3817""
""fullscreenexit"",""2"",""6618""
""blur"",""14"",""220464""
""focus"",""14"",""246663""
","""event"",""trial"",""time""
""blur"",""14"",""220464""
","""event"",""trial"",""time""
""focus"",""14"",""246663""
","""event"",""trial"",""time""
""fullscreenenter"",""1"",""3817""
","""event"",""trial"",""time""
""fullscreenexit"",""2"",""6618""
",,null,run_exp/static/images/task_images/land.jpg,null,,,,,,,100,,,1,,,,,,,,,,,,,,
dig,68,534551,0.0-24.0-2.0,"""event"",""trial"",""time""
""fullscreenenter"",""1"",""3817""
""fullscreenexit"",""2"",""6618""
""blur"",""14"",""220464""
""focus"",""14"",""246663""
","""event"",""trial"",""time""
""blur"",""14"",""220464""
","""event"",""trial"",""time""
""focus"",""14"",""246663""
","""event"",""trial"",""time""
""fullscreenenter"",""1"",""3817""
","""event"",""trial"",""time""
""fullscreenexit"",""2"",""6618""
",,,,,,,,,,,,"[{""stimulus"":""run_exp/static/images/task_images/dig.jpg"",""time"":0.29999998211860657},{""stimulus"":""run_exp/static/images/task_images/land.jpg"",""time"":675.9000000059605},{""stimulus"":""run_exp/static/images/task_images/dig.jpg"",""time"":1340.0999999940395}]",[],1,,,,,,,,,,,,,,
harvest,69,535561,0.0-24.0-3.0,"""event"",""trial"",""time""
""fullscreenenter"",""1"",""3817""
""fullscreenexit"",""2"",""6618""
""blur"",""14"",""220464""
""focus"",""14"",""246663""
","""event"",""trial"",""time""
""blur"",""14"",""220464""
","""event"",""trial"",""time""
""focus"",""14"",""246663""
","""event"",""trial"",""time""
""fullscreenenter"",""1"",""3817""
","""event"",""trial"",""time""
""fullscreenexit"",""2"",""6618""
",,null,run_exp/static/images/task_images/gems/100.jpg,null,,,,,,,18,,,1,,,,,100,0.179211549,0.18,,,,,,,
decision,70,535988,0.0-24.0-4.0,"""event"",""trial"",""time""
""fullscreenenter"",""1"",""3817""
""fullscreenexit"",""2"",""6618""
""blur"",""14"",""220464""
""focus"",""14"",""246663""
","""event"",""trial"",""time""
""blur"",""14"",""220464""
","""event"",""trial"",""time""
""focus"",""14"",""246663""
","""event"",""trial"",""time""
""fullscreenenter"",""1"",""3817""
","""event"",""trial"",""time""
""fullscreenexit"",""2"",""6618""
",,424.7,run_exp/static/images/task_images/land.jpg,65,,,,,,,18,,,1,,,,,,,,8970,1,0,FALSE,,,
dig,71,538572,0.0-25.0-0.0,"""event"",""trial"",""time""
""fullscreenenter"",""1"",""3817""
""fullscreenexit"",""2"",""6618""
""blur"",""14"",""220464""
""focus"",""14"",""246663""
","""event"",""trial"",""time""
""blur"",""14"",""220464""
","""event"",""trial"",""time""
""focus"",""14"",""246663""
","""event"",""trial"",""time""
""fullscreenenter"",""1"",""3817""
","""event"",""trial"",""time""
""fullscreenexit"",""2"",""6618""
",,,,,,,,,,,,"[{""stimulus"":""run_exp/static/images/task_images/dig.jpg"",""time"":0.19999998807907104},{""stimulus"":""run_exp/static/images/task_images/land.jpg"",""time"":863.3000000119209},{""stimulus"":""run_exp/static/images/task_images/dig.jpg"",""time"":1728.9000000059605}]",[],1,,,,,,,,,,,,,,
harvest,72,539580,0.0-25.0-1.0,"""event"",""trial"",""time""
""fullscreenenter"",""1"",""3817""
""fullscreenexit"",""2"",""6618""
""blur"",""14"",""220464""
""focus"",""14"",""246663""
","""event"",""trial"",""time""
""blur"",""14"",""220464""
","""event"",""trial"",""time""
""focus"",""14"",""246663""
","""event"",""trial"",""time""
""fullscreenenter"",""1"",""3817""
","""event"",""trial"",""time""
""fullscreenexit"",""2"",""6618""
",,null,run_exp/static/images/task_images/gems/18.jpg,null,,,,,,,3,,,1,,,,,18,0.17008621,0.166666667,,,,,,,
decision,73,540028,0.0-25.0-2.0,"""event"",""trial"",""time""
""fullscreenenter"",""1"",""3817""
""fullscreenexit"",""2"",""6618""
""blur"",""14"",""220464""
""focus"",""14"",""246663""
","""event"",""trial"",""time""
""blur"",""14"",""220464""
","""event"",""trial"",""time""
""focus"",""14"",""246663""
","""event"",""trial"",""time""
""fullscreenenter"",""1"",""3817""
","""event"",""trial"",""time""
""fullscreenexit"",""2"",""6618""
",,445.6,run_exp/static/images/task_images/land.jpg,65,,,,,,,3,,,1,,,,,,,,13009,1,1,FALSE,,,
dig,74,542589,0.0-26.0-0.0,"""event"",""trial"",""time""
""fullscreenenter"",""1"",""3817""
""fullscreenexit"",""2"",""6618""
""blur"",""14"",""220464""
""focus"",""14"",""246663""
","""event"",""trial"",""time""
""blur"",""14"",""220464""
","""event"",""trial"",""time""
""focus"",""14"",""246663""
","""event"",""trial"",""time""
""fullscreenenter"",""1"",""3817""
","""event"",""trial"",""time""
""fullscreenexit"",""2"",""6618""
",,,,,,,,,,,,"[{""stimulus"":""run_exp/static/images/task_images/dig.jpg"",""time"":0.19999998807907104},{""stimulus"":""run_exp/static/images/task_images/land.jpg"",""time"":857.0999999940395},{""stimulus"":""run_exp/static/images/task_images/dig.jpg"",""time"":1709.5}]",[],1,,,,,,,,,,,,,,
harvest,75,543597,0.0-26.0-1.0,"""event"",""trial"",""time""
""fullscreenenter"",""1"",""3817""
""fullscreenexit"",""2"",""6618""
""blur"",""14"",""220464""
""focus"",""14"",""246663""
","""event"",""trial"",""time""
""blur"",""14"",""220464""
","""event"",""trial"",""time""
""focus"",""14"",""246663""
","""event"",""trial"",""time""
""fullscreenenter"",""1"",""3817""
","""event"",""trial"",""time""
""fullscreenexit"",""2"",""6618""
",,null,run_exp/static/images/task_images/gems/3.jpg,null,,,,,,,1,,,1,,,,,3,0.222977243,0.333333333,,,,,,,
decision,76,543660,0.0-26.0-2.0,"""event"",""trial"",""time""
""fullscreenenter"",""1"",""3817""
""fullscreenexit"",""2"",""6618""
""blur"",""14"",""220464""
""focus"",""14"",""246663""
","""event"",""trial"",""time""
""blur"",""14"",""220464""
","""event"",""trial"",""time""
""focus"",""14"",""246663""
","""event"",""trial"",""time""
""fullscreenenter"",""1"",""3817""
","""event"",""trial"",""time""
""fullscreenexit"",""2"",""6618""
",,61.5,run_exp/static/images/task_images/land.jpg,76,,,,,,,1,,,1,,,,,,,,16641,1,2,TRUE,,,
travel,77,553605,0.0-27.0-0.0,"""event"",""trial"",""time""
""fullscreenenter"",""1"",""3817""
""fullscreenexit"",""2"",""6618""
""blur"",""14"",""220464""
""focus"",""14"",""246663""
","""event"",""trial"",""time""
""blur"",""14"",""220464""
","""event"",""trial"",""time""
""focus"",""14"",""246663""
","""event"",""trial"",""time""
""fullscreenenter"",""1"",""3817""
","""event"",""trial"",""time""
""fullscreenexit"",""2"",""6618""
",,,,,,,,,,,,"[{""stimulus"":""run_exp/static/images/task_images/rocket-01.jpg"",""time"":0.19999998807907104},{""stimulus"":""run_exp/static/images/task_images/rocket-02.jpg"",""time"":1110.2999999821186},{""stimulus"":""run_exp/static/images/task_images/rocket-03.jpg"",""time"":2219.0999999940395},{""stimulus"":""run_exp/static/images/task_images/rocket-04.jpg"",""time"":3323.0999999940395},{""stimulus"":""run_exp/static/images/task_images/rocket-05.jpg"",""time"":4427},{""stimulus"":""run_exp/static/images/task_images/rocket-06.jpg"",""time"":5526.5999999940395},{""stimulus"":""run_exp/static/images/task_images/rocket-07.jpg"",""time"":6635},{""stimulus"":""run_exp/static/images/task_images/rocket-08.jpg"",""time"":7739.0999999940395},{""stimulus"":""run_exp/static/images/task_images/rocket-09.jpg"",""time"":8842.899999976158}]",[],1,,,,,,,,,,,,,,
alien_welcome,78,558612,0.0-27.0-1.0,"""event"",""trial"",""time""
""fullscreenenter"",""1"",""3817""
""fullscreenexit"",""2"",""6618""
""blur"",""14"",""220464""
""focus"",""14"",""246663""
","""event"",""trial"",""time""
""blur"",""14"",""220464""
","""event"",""trial"",""time""
""focus"",""14"",""246663""
","""event"",""trial"",""time""
""fullscreenenter"",""1"",""3817""
","""event"",""trial"",""time""
""fullscreenexit"",""2"",""6618""
",,null,run_exp/static/images/task_images/aliens/old_aliens/planet/alien_planet-39.jpg,null,,,,,,,,,,,,,39,"50,39,20,44,24,77,58,73,23,51,37,47,7,41,5,36,54,70,4,61,6,31,18,71,14,68,48,42,72,65,79,16,55,17,63,1,46,27,28,43",,,,,,,,,,
land,79,559120,0.0-27.0-2.0,"""event"",""trial"",""time""
""fullscreenenter"",""1"",""3817""
""fullscreenexit"",""2"",""6618""
""blur"",""14"",""220464""
""focus"",""14"",""246663""
","""event"",""trial"",""time""
""blur"",""14"",""220464""
","""event"",""trial"",""time""
""focus"",""14"",""246663""
","""event"",""trial"",""time""
""fullscreenenter"",""1"",""3817""
","""event"",""trial"",""time""
""fullscreenexit"",""2"",""6618""
",,null,run_exp/static/images/task_images/land.jpg,null,,,,,,,96,,,2,,,,,,,,,,,,,,
dig,80,561132,0.0-27.0-3.0,"""event"",""trial"",""time""
""fullscreenenter"",""1"",""3817""
""fullscreenexit"",""2"",""6618""
""blur"",""14"",""220464""
""focus"",""14"",""246663""
","""event"",""trial"",""time""
""blur"",""14"",""220464""
","""event"",""trial"",""time""
""focus"",""14"",""246663""
","""event"",""trial"",""time""
""fullscreenenter"",""1"",""3817""
","""event"",""trial"",""time""
""fullscreenexit"",""2"",""6618""
",,,,,,,,,,,,"[{""stimulus"":""run_exp/static/images/task_images/dig.jpg"",""time"":0.6000000238418579},{""stimulus"":""run_exp/static/images/task_images/land.jpg"",""time"":678.1000000238419},{""stimulus"":""run_exp/static/images/task_images/dig.jpg"",""time"":1341}]",[],2,,,,,,,,,,,,,,
harvest,81,562145,0.0-27.0-4.0,"""event"",""trial"",""time""
""fullscreenenter"",""1"",""3817""
""fullscreenexit"",""2"",""6618""
""blur"",""14"",""220464""
""focus"",""14"",""246663""
","""event"",""trial"",""time""
""blur"",""14"",""220464""
","""event"",""trial"",""time""
""focus"",""14"",""246663""
","""event"",""trial"",""time""
""fullscreenenter"",""1"",""3817""
","""event"",""trial"",""time""
""fullscreenexit"",""2"",""6618""
",,null,run_exp/static/images/task_images/gems/96.jpg,null,,,,,,,19,,,2,,,,,96,0.201508247,0.197916667,,,,,,,
decision,82,562548,0.0-27.0-5.0,"""event"",""trial"",""time""
""fullscreenenter"",""1"",""3817""
""fullscreenexit"",""2"",""6618""
""blur"",""14"",""220464""
""focus"",""14"",""246663""
","""event"",""trial"",""time""
""blur"",""14"",""220464""
","""event"",""trial"",""time""
""focus"",""14"",""246663""
","""event"",""trial"",""time""
""fullscreenenter"",""1"",""3817""
","""event"",""trial"",""time""
""fullscreenexit"",""2"",""6618""
",,401.4,run_exp/static/images/task_images/land.jpg,65,,,,,,,19,,,2,,,,,,,,35529,1,0,FALSE,,,
dig,83,565160,0.0-28.0-0.0,"""event"",""trial"",""time""
""fullscreenenter"",""1"",""3817""
""fullscreenexit"",""2"",""6618""
""blur"",""14"",""220464""
""focus"",""14"",""246663""
","""event"",""trial"",""time""
""blur"",""14"",""220464""
","""event"",""trial"",""time""
""focus"",""14"",""246663""
","""event"",""trial"",""time""
""fullscreenenter"",""1"",""3817""
","""event"",""trial"",""time""
""fullscreenexit"",""2"",""6618""
",,,,,,,,,,,,"[{""stimulus"":""run_exp/static/images/task_images/dig.jpg"",""time"":0.19999998807907104},{""stimulus"":""run_exp/static/images/task_images/land.jpg"",""time"":869.9000000059605},{""stimulus"":""run_exp/static/images/task_images/dig.jpg"",""time"":1744.9000000059605}]",[],2,,,,,,,,,,,,,,
harvest,84,566168,0.0-28.0-1.0,"""event"",""trial"",""time""
""fullscreenenter"",""1"",""3817""
""fullscreenexit"",""2"",""6618""
""blur"",""14"",""220464""
""focus"",""14"",""246663""
","""event"",""trial"",""time""
""blur"",""14"",""220464""
","""event"",""trial"",""time""
""focus"",""14"",""246663""
","""event"",""trial"",""time""
""fullscreenenter"",""1"",""3817""
","""event"",""trial"",""time""
""fullscreenexit"",""2"",""6618""
",,null,run_exp/static/images/task_images/gems/19.jpg,null,,,,,,,5,,,2,,,,,19,0.245327579,0.263157895,,,,,,,
decision,85,566497,0.0-28.0-2.0,"""event"",""trial"",""time""
""fullscreenenter"",""1"",""3817""
""fullscreenexit"",""2"",""6618""
""blur"",""14"",""220464""
""focus"",""14"",""246663""
","""event"",""trial"",""time""
""blur"",""14"",""220464""
","""event"",""trial"",""time""
""focus"",""14"",""246663""
","""event"",""trial"",""time""
""fullscreenenter"",""1"",""3817""
","""event"",""trial"",""time""
""fullscreenexit"",""2"",""6618""
",,326.8,run_exp/static/images/task_images/land.jpg,76,,,,,,,5,,,2,,,,,,,,39478,1,1,TRUE,,,
travel,86,576176,0.0-29.0-0.0,"""event"",""trial"",""time""
""fullscreenenter"",""1"",""3817""
""fullscreenexit"",""2"",""6618""
""blur"",""14"",""220464""
""focus"",""14"",""246663""
","""event"",""trial"",""time""
""blur"",""14"",""220464""
","""event"",""trial"",""time""
""focus"",""14"",""246663""
","""event"",""trial"",""time""
""fullscreenenter"",""1"",""3817""
","""event"",""trial"",""time""
""fullscreenexit"",""2"",""6618""
",,,,,,,,,,,,"[{""stimulus"":""run_exp/static/images/task_images/rocket-01.jpg"",""time"":0.09999999403953552},{""stimulus"":""run_exp/static/images/task_images/rocket-02.jpg"",""time"":1082.9000000059605},{""stimulus"":""run_exp/static/images/task_images/rocket-03.jpg"",""time"":2154.9000000059605},{""stimulus"":""run_exp/static/images/task_images/rocket-04.jpg"",""time"":3228.199999988079},{""stimulus"":""run_exp/static/images/task_images/rocket-05.jpg"",""time"":4304.0999999940395},{""stimulus"":""run_exp/static/images/task_images/rocket-06.jpg"",""time"":5380.300000011921},{""stimulus"":""run_exp/static/images/task_images/rocket-07.jpg"",""time"":6452.199999988079},{""stimulus"":""run_exp/static/images/task_images/rocket-08.jpg"",""time"":7521.199999988079},{""stimulus"":""run_exp/static/images/task_images/rocket-09.jpg"",""time"":8604.300000011921}]",[],2,,,,,,,,,,,,,,
alien_welcome,87,581188,0.0-29.0-1.0,"""event"",""trial"",""time""
""fullscreenenter"",""1"",""3817""
""fullscreenexit"",""2"",""6618""
""blur"",""14"",""220464""
""focus"",""14"",""246663""
","""event"",""trial"",""time""
""blur"",""14"",""220464""
","""event"",""trial"",""time""
""focus"",""14"",""246663""
","""event"",""trial"",""time""
""fullscreenenter"",""1"",""3817""
","""event"",""trial"",""time""
""fullscreenexit"",""2"",""6618""
",,null,run_exp/static/images/task_images/aliens/old_aliens/planet/alien_planet-20.jpg,null,,,,,,,,,,,,,20,"50,39,20,44,24,77,58,73,23,51,37,47,7,41,5,36,54,70,4,61,6,31,18,71,14,68,48,42,72,65,79,16,55,17,63,1,46,27,28,43",,,,,,,,,,
land,88,581695,0.0-29.0-2.0,"""event"",""trial"",""time""
""fullscreenenter"",""1"",""3817""
""fullscreenexit"",""2"",""6618""
""blur"",""14"",""220464""
""focus"",""14"",""246663""
","""event"",""trial"",""time""
""blur"",""14"",""220464""
","""event"",""trial"",""time""
""focus"",""14"",""246663""
","""event"",""trial"",""time""
""fullscreenenter"",""1"",""3817""
","""event"",""trial"",""time""
""fullscreenexit"",""2"",""6618""
",,null,run_exp/static/images/task_images/land.jpg,null,,,,,,,95,,,3,,,,,,,,,,,,,,
dig,89,583712,0.0-29.0-3.0,"""event"",""trial"",""time""
""fullscreenenter"",""1"",""3817""
""fullscreenexit"",""2"",""6618""
""blur"",""14"",""220464""
""focus"",""14"",""246663""
","""event"",""trial"",""time""
""blur"",""14"",""220464""
","""event"",""trial"",""time""
""focus"",""14"",""246663""
","""event"",""trial"",""time""
""fullscreenenter"",""1"",""3817""
","""event"",""trial"",""time""
""fullscreenexit"",""2"",""6618""
",,,,,,,,,,,,"[{""stimulus"":""run_exp/static/images/task_images/dig.jpg"",""time"":0.5999999940395355},{""stimulus"":""run_exp/static/images/task_images/land.jpg"",""time"":679.4000000059605},{""stimulus"":""run_exp/static/images/task_images/dig.jpg"",""time"":1341.4000000059605}]",[],3,,,,,,,,,,,,,,
harvest,90,584720,0.0-29.0-4.0,"""event"",""trial"",""time""
""fullscreenenter"",""1"",""3817""
""fullscreenexit"",""2"",""6618""
""blur"",""14"",""220464""
""focus"",""14"",""246663""
","""event"",""trial"",""time""
""blur"",""14"",""220464""
","""event"",""trial"",""time""
""focus"",""14"",""246663""
","""event"",""trial"",""time""
""fullscreenenter"",""1"",""3817""
","""event"",""trial"",""time""
""fullscreenexit"",""2"",""6618""
",,null,run_exp/static/images/task_images/gems/95.jpg,null,,,,,,,42,,,3,,,,,95,0.444100737,0.442105263,,,,,,,
decision,91,585118,0.0-29.0-5.0,"""event"",""trial"",""time""
""fullscreenenter"",""1"",""3817""
""fullscreenexit"",""2"",""6618""
""blur"",""14"",""220464""
""focus"",""14"",""246663""
","""event"",""trial"",""time""
""blur"",""14"",""220464""
","""event"",""trial"",""time""
""focus"",""14"",""246663""
","""event"",""trial"",""time""
""fullscreenenter"",""1"",""3817""
","""event"",""trial"",""time""
""fullscreenexit"",""2"",""6618""
",,395.4,run_exp/static/images/task_images/land.jpg,65,,,,,,,42,,,3,,,,,,,,58099,1,0,FALSE,,,
dig,92,587732,0.0-30.0-0.0,"""event"",""trial"",""time""
""fullscreenenter"",""1"",""3817""
""fullscreenexit"",""2"",""6618""
""blur"",""14"",""220464""
""focus"",""14"",""246663""
","""event"",""trial"",""time""
""blur"",""14"",""220464""
","""event"",""trial"",""time""
""focus"",""14"",""246663""
","""event"",""trial"",""time""
""fullscreenenter"",""1"",""3817""
","""event"",""trial"",""time""
""fullscreenexit"",""2"",""6618""
",,,,,,,,,,,,"[{""stimulus"":""run_exp/static/images/task_images/dig.jpg"",""time"":0.19999998807907104},{""stimulus"":""run_exp/static/images/task_images/land.jpg"",""time"":874.6999999880791},{""stimulus"":""run_exp/static/images/task_images/dig.jpg"",""time"":1743.0999999940395}]",[],3,,,,,,,,,,,,,,
harvest,93,588744,0.0-30.0-1.0,"""event"",""trial"",""time""
""fullscreenenter"",""1"",""3817""
""fullscreenexit"",""2"",""6618""
""blur"",""14"",""220464""
""focus"",""14"",""246663""
","""event"",""trial"",""time""
""blur"",""14"",""220464""
","""event"",""trial"",""time""
""focus"",""14"",""246663""
","""event"",""trial"",""time""
""fullscreenenter"",""1"",""3817""
","""event"",""trial"",""time""
""fullscreenexit"",""2"",""6618""
",,null,run_exp/static/images/task_images/gems/42.jpg,null,,,,,,,21,,,3,,,,,42,0.497470455,0.5,,,,,,,
decision,94,589079,0.0-30.0-2.0,"""event"",""trial"",""time""
""fullscreenenter"",""1"",""3817""
""fullscreenexit"",""2"",""6618""
""blur"",""14"",""220464""
""focus"",""14"",""246663""
","""event"",""trial"",""time""
""blur"",""14"",""220464""
","""event"",""trial"",""time""
""focus"",""14"",""246663""
","""event"",""trial"",""time""
""fullscreenenter"",""1"",""3817""
","""event"",""trial"",""time""
""fullscreenexit"",""2"",""6618""
",,333.5,run_exp/static/images/task_images/land.jpg,65,,,,,,,21,,,3,,,,,,,,62060,1,1,FALSE,,,
dig,95,591748,0.0-31.0-0.0,"""event"",""trial"",""time""
""fullscreenenter"",""1"",""3817""
""fullscreenexit"",""2"",""6618""
""blur"",""14"",""220464""
""focus"",""14"",""246663""
","""event"",""trial"",""time""
""blur"",""14"",""220464""
","""event"",""trial"",""time""
""focus"",""14"",""246663""
","""event"",""trial"",""time""
""fullscreenenter"",""1"",""3817""
","""event"",""trial"",""time""
""fullscreenexit"",""2"",""6618""
",,,,,,,,,,,,"[{""stimulus"":""run_exp/static/images/task_images/dig.jpg"",""time"":0.29999998211860657},{""stimulus"":""run_exp/static/images/task_images/land.jpg"",""time"":890},{""stimulus"":""run_exp/static/images/task_images/dig.jpg"",""time"":1782.5999999940395}]",[],3,,,,,,,,,,,,,,
harvest,96,592756,0.0-31.0-1.0,"""event"",""trial"",""time""
""fullscreenenter"",""1"",""3817""
""fullscreenexit"",""2"",""6618""
""blur"",""14"",""220464""
""focus"",""14"",""246663""
","""event"",""trial"",""time""
""blur"",""14"",""220464""
","""event"",""trial"",""time""
""focus"",""14"",""246663""
","""event"",""trial"",""time""
""fullscreenenter"",""1"",""3817""
","""event"",""trial"",""time""
""fullscreenexit"",""2"",""6618""
",,null,run_exp/static/images/task_images/gems/21.jpg,null,,,,,,,11,,,3,,,,,21,0.517808168,0.523809524,,,,,,,
decision,97,593054,0.0-31.0-2.0,"""event"",""trial"",""time""
""fullscreenenter"",""1"",""3817""
""fullscreenexit"",""2"",""6618""
""blur"",""14"",""220464""
""focus"",""14"",""246663""
","""event"",""trial"",""time""
""blur"",""14"",""220464""
","""event"",""trial"",""time""
""focus"",""14"",""246663""
","""event"",""trial"",""time""
""fullscreenenter"",""1"",""3817""
","""event"",""trial"",""time""
""fullscreenexit"",""2"",""6618""
",,296.9,run_exp/static/images/task_images/land.jpg,65,,,,,,,11,,,3,,,,,,,,66036,1,2,FALSE,,,
dig,98,595768,0.0-32.0-0.0,"""event"",""trial"",""time""
""fullscreenenter"",""1"",""3817""
""fullscreenexit"",""2"",""6618""
""blur"",""14"",""220464""
""focus"",""14"",""246663""
","""event"",""trial"",""time""
""blur"",""14"",""220464""
","""event"",""trial"",""time""
""focus"",""14"",""246663""
","""event"",""trial"",""time""
""fullscreenenter"",""1"",""3817""
","""event"",""trial"",""time""
""fullscreenexit"",""2"",""6618""
",,,,,,,,,,,,"[{""stimulus"":""run_exp/static/images/task_images/dig.jpg"",""time"":0.29999998211860657},{""stimulus"":""run_exp/static/images/task_images/land.jpg"",""time"":910.9000000059605},{""stimulus"":""run_exp/static/images/task_images/dig.jpg"",""time"":1813.5999999940395}]",[],3,,,,,,,,,,,,,,
harvest,99,596776,0.0-32.0-1.0,"""event"",""trial"",""time""
""fullscreenenter"",""1"",""3817""
""fullscreenexit"",""2"",""6618""
""blur"",""14"",""220464""
""focus"",""14"",""246663""
","""event"",""trial"",""time""
""blur"",""14"",""220464""
","""event"",""trial"",""time""
""focus"",""14"",""246663""
","""event"",""trial"",""time""
""fullscreenenter"",""1"",""3817""
","""event"",""trial"",""time""
""fullscreenexit"",""2"",""6618""
",,null,run_exp/static/images/task_images/gems/11.jpg,null,,,,,,,5,,,3,,,,,11,0.494567135,0.454545455,,,,,,,
decision,100,597123,0.0-32.0-2.0,"""event"",""trial"",""time""
""fullscreenenter"",""1"",""3817""
""fullscreenexit"",""2"",""6618""
""blur"",""14"",""220464""
""focus"",""14"",""246663""
","""event"",""trial"",""time""
""blur"",""14"",""220464""
","""event"",""trial"",""time""
""focus"",""14"",""246663""
","""event"",""trial"",""time""
""fullscreenenter"",""1"",""3817""
","""event"",""trial"",""time""
""fullscreenexit"",""2"",""6618""
",,344.3,run_exp/static/images/task_images/land.jpg,76,,,,,,,5,,,3,,,,,,,,70104,1,3,TRUE,,,
travel,101,606782,0.0-33.0-0.0,"""event"",""trial"",""time""
""fullscreenenter"",""1"",""3817""
""fullscreenexit"",""2"",""6618""
""blur"",""14"",""220464""
""focus"",""14"",""246663""
","""event"",""trial"",""time""
""blur"",""14"",""220464""
","""event"",""trial"",""time""
""focus"",""14"",""246663""
","""event"",""trial"",""time""
""fullscreenenter"",""1"",""3817""
","""event"",""trial"",""time""
""fullscreenexit"",""2"",""6618""
",,,,,,,,,,,,"[{""stimulus"":""run_exp/static/images/task_images/rocket-01.jpg"",""time"":0.19999998807907104},{""stimulus"":""run_exp/static/images/task_images/rocket-02.jpg"",""time"":1077.9000000059605},{""stimulus"":""run_exp/static/images/task_images/rocket-03.jpg"",""time"":2150.800000011921},{""stimulus"":""run_exp/static/images/task_images/rocket-04.jpg"",""time"":3222.199999988079},{""stimulus"":""run_exp/static/images/task_images/rocket-05.jpg"",""time"":4294.9000000059605},{""stimulus"":""run_exp/static/images/task_images/rocket-06.jpg"",""time"":5369.800000011921},{""stimulus"":""run_exp/static/images/task_images/rocket-07.jpg"",""time"":6442.300000011921},{""stimulus"":""run_exp/static/images/task_images/rocket-08.jpg"",""time"":7510.800000011921},{""stimulus"":""run_exp/static/images/task_images/rocket-09.jpg"",""time"":8582.300000011921}]",[],3,,,,,,,,,,,,,,
alien_welcome,102,611787,0.0-33.0-1.0,"""event"",""trial"",""time""
""fullscreenenter"",""1"",""3817""
""fullscreenexit"",""2"",""6618""
""blur"",""14"",""220464""
""focus"",""14"",""246663""
","""event"",""trial"",""time""
""blur"",""14"",""220464""
","""event"",""trial"",""time""
""focus"",""14"",""246663""
","""event"",""trial"",""time""
""fullscreenenter"",""1"",""3817""
","""event"",""trial"",""time""
""fullscreenexit"",""2"",""6618""
",,null,run_exp/static/images/task_images/aliens/old_aliens/planet/alien_planet-44.jpg,null,,,,,,,,,,,,,44,"50,39,20,44,24,77,58,73,23,51,37,47,7,41,5,36,54,70,4,61,6,31,18,71,14,68,48,42,72,65,79,16,55,17,63,1,46,27,28,43",,,,,,,,,,
land,103,612296,0.0-33.0-2.0,"""event"",""trial"",""time""
""fullscreenenter"",""1"",""3817""
""fullscreenexit"",""2"",""6618""
""blur"",""14"",""220464""
""focus"",""14"",""246663""
","""event"",""trial"",""time""
""blur"",""14"",""220464""
","""event"",""trial"",""time""
""focus"",""14"",""246663""
","""event"",""trial"",""time""
""fullscreenenter"",""1"",""3817""
","""event"",""trial"",""time""
""fullscreenexit"",""2"",""6618""
",,null,run_exp/static/images/task_images/land.jpg,null,,,,,,,99,,,4,,,,,,,,,,,,,,
dig,104,614312,0.0-33.0-3.0,"""event"",""trial"",""time""
""fullscreenenter"",""1"",""3817""
""fullscreenexit"",""2"",""6618""
""blur"",""14"",""220464""
""focus"",""14"",""246663""
","""event"",""trial"",""time""
""blur"",""14"",""220464""
","""event"",""trial"",""time""
""focus"",""14"",""246663""
","""event"",""trial"",""time""
""fullscreenenter"",""1"",""3817""
","""event"",""trial"",""time""
""fullscreenexit"",""2"",""6618""
",,,,,,,,,,,,"[{""stimulus"":""run_exp/static/images/task_images/dig.jpg"",""time"":0.5},{""stimulus"":""run_exp/static/images/task_images/land.jpg"",""time"":678.2000000178814},{""stimulus"":""run_exp/static/images/task_images/dig.jpg"",""time"":1338.7000000178814}]",[],4,,,,,,,,,,,,,,
harvest,105,615320,0.0-33.0-4.0,"""event"",""trial"",""time""
""fullscreenenter"",""1"",""3817""
""fullscreenexit"",""2"",""6618""
""blur"",""14"",""220464""
""focus"",""14"",""246663""
","""event"",""trial"",""time""
""blur"",""14"",""220464""
","""event"",""trial"",""time""
""focus"",""14"",""246663""
","""event"",""trial"",""time""
""fullscreenenter"",""1"",""3817""
","""event"",""trial"",""time""
""fullscreenexit"",""2"",""6618""
",,null,run_exp/static/images/task_images/gems/99.jpg,null,,,,,,,44,,,4,,,,,99,0.449443485,0.444444444,,,,,,,
decision,106,615701,0.0-33.0-5.0,"""event"",""trial"",""time""
""fullscreenenter"",""1"",""3817""
""fullscreenexit"",""2"",""6618""
""blur"",""14"",""220464""
""focus"",""14"",""246663""
","""event"",""trial"",""time""
""blur"",""14"",""220464""
","""event"",""trial"",""time""
""focus"",""14"",""246663""
","""event"",""trial"",""time""
""fullscreenenter"",""1"",""3817""
","""event"",""trial"",""time""
""fullscreenexit"",""2"",""6618""
",,378.1,run_exp/static/images/task_images/land.jpg,65,,,,,,,44,,,4,,,,,,,,88682,1,0,FALSE,,,
dig,107,618336,0.0-34.0-0.0,"""event"",""trial"",""time""
""fullscreenenter"",""1"",""3817""
""fullscreenexit"",""2"",""6618""
""blur"",""14"",""220464""
""focus"",""14"",""246663""
","""event"",""trial"",""time""
""blur"",""14"",""220464""
","""event"",""trial"",""time""
""focus"",""14"",""246663""
","""event"",""trial"",""time""
""fullscreenenter"",""1"",""3817""
","""event"",""trial"",""time""
""fullscreenexit"",""2"",""6618""
",,,,,,,,,,,,"[{""stimulus"":""run_exp/static/images/task_images/dig.jpg"",""time"":0.19999998807907104},{""stimulus"":""run_exp/static/images/task_images/land.jpg"",""time"":880},{""stimulus"":""run_exp/static/images/task_images/dig.jpg"",""time"":1760.0999999940395}]",[],4,,,,,,,,,,,,,,
harvest,108,619344,0.0-34.0-1.0,"""event"",""trial"",""time""
""fullscreenenter"",""1"",""3817""
""fullscreenexit"",""2"",""6618""
""blur"",""14"",""220464""
""focus"",""14"",""246663""
","""event"",""trial"",""time""
""blur"",""14"",""220464""
","""event"",""trial"",""time""
""focus"",""14"",""246663""
","""event"",""trial"",""time""
""fullscreenenter"",""1"",""3817""
","""event"",""trial"",""time""
""fullscreenexit"",""2"",""6618""
",,null,run_exp/static/images/task_images/gems/44.jpg,null,,,,,,,22,,,4,,,,,44,0.507339245,0.5,,,,,,,
decision,109,620127,0.0-34.0-2.0,"""event"",""trial"",""time""
""fullscreenenter"",""1"",""3817""
""fullscreenexit"",""2"",""6618""
""blur"",""14"",""220464""
""focus"",""14"",""246663""
","""event"",""trial"",""time""
""blur"",""14"",""220464""
","""event"",""trial"",""time""
""focus"",""14"",""246663""
","""event"",""trial"",""time""
""fullscreenenter"",""1"",""3817""
","""event"",""trial"",""time""
""fullscreenexit"",""2"",""6618""
",,780.8,run_exp/static/images/task_images/land.jpg,65,,,,,,,22,,,4,,,,,,,,93108,1,1,FALSE,,,
dig,110,622355,0.0-35.0-0.0,"""event"",""trial"",""time""
""fullscreenenter"",""1"",""3817""
""fullscreenexit"",""2"",""6618""
""blur"",""14"",""220464""
""focus"",""14"",""246663""
","""event"",""trial"",""time""
""blur"",""14"",""220464""
","""event"",""trial"",""time""
""focus"",""14"",""246663""
","""event"",""trial"",""time""
""fullscreenenter"",""1"",""3817""
","""event"",""trial"",""time""
""fullscreenexit"",""2"",""6618""
",,,,,,,,,,,,"[{""stimulus"":""run_exp/static/images/task_images/dig.jpg"",""time"":0.09999999403953552},{""stimulus"":""run_exp/static/images/task_images/land.jpg"",""time"":748.0999999940395},{""stimulus"":""run_exp/static/images/task_images/dig.jpg"",""time"":1486.5999999940395}]",[],4,,,,,,,,,,,,,,
harvest,111,623368,0.0-35.0-1.0,"""event"",""trial"",""time""
""fullscreenenter"",""1"",""3817""
""fullscreenexit"",""2"",""6618""
""blur"",""14"",""220464""
""focus"",""14"",""246663""
","""event"",""trial"",""time""
""blur"",""14"",""220464""
","""event"",""trial"",""time""
""focus"",""14"",""246663""
","""event"",""trial"",""time""
""fullscreenenter"",""1"",""3817""
","""event"",""trial"",""time""
""fullscreenexit"",""2"",""6618""
",,null,run_exp/static/images/task_images/gems/22.jpg,null,,,,,,,11,,,4,,,,,22,0.512944773,0.5,,,,,,,
decision,112,624849,0.0-35.0-2.0,"""event"",""trial"",""time""
""fullscreenenter"",""1"",""3817""
""fullscreenexit"",""2"",""6618""
""blur"",""14"",""220464""
""focus"",""14"",""246663""
","""event"",""trial"",""time""
""blur"",""14"",""220464""
","""event"",""trial"",""time""
""focus"",""14"",""246663""
","""event"",""trial"",""time""
""fullscreenenter"",""1"",""3817""
","""event"",""trial"",""time""
""fullscreenexit"",""2"",""6618""
",,1478.6,run_exp/static/images/task_images/land.jpg,65,,,,,,,11,,,4,,,,,,,,97830,1,2,FALSE,,,
dig,113,626384,0.0-36.0-0.0,"""event"",""trial"",""time""
""fullscreenenter"",""1"",""3817""
""fullscreenexit"",""2"",""6618""
""blur"",""14"",""220464""
""focus"",""14"",""246663""
","""event"",""trial"",""time""
""blur"",""14"",""220464""
","""event"",""trial"",""time""
""focus"",""14"",""246663""
","""event"",""trial"",""time""
""fullscreenenter"",""1"",""3817""
","""event"",""trial"",""time""
""fullscreenexit"",""2"",""6618""
",,,,,,,,,,,,"[{""stimulus"":""run_exp/static/images/task_images/dig.jpg"",""time"":0.29999998211860657},{""stimulus"":""run_exp/static/images/task_images/land.jpg"",""time"":511.59999999403954},{""stimulus"":""run_exp/static/images/task_images/dig.jpg"",""time"":1025.5999999940395}]",[],4,,,,,,,,,,,,,,
harvest,114,627392,0.0-36.0-1.0,"""event"",""trial"",""time""
""fullscreenenter"",""1"",""3817""
""fullscreenexit"",""2"",""6618""
""blur"",""14"",""220464""
""focus"",""14"",""246663""
","""event"",""trial"",""time""
""blur"",""14"",""220464""
","""event"",""trial"",""time""
""focus"",""14"",""246663""
","""event"",""trial"",""time""
""fullscreenenter"",""1"",""3817""
","""event"",""trial"",""time""
""fullscreenexit"",""2"",""6618""
",,null,run_exp/static/images/task_images/gems/11.jpg,null,,,,,,,4,,,4,,,,,11,0.362852607,0.363636364,,,,,,,
decision,115,627777,0.0-36.0-2.0,"""event"",""trial"",""time""
""fullscreenenter"",""1"",""3817""
""fullscreenexit"",""2"",""6618""
""blur"",""14"",""220464""
""focus"",""14"",""246663""
","""event"",""trial"",""time""
""blur"",""14"",""220464""
","""event"",""trial"",""time""
""focus"",""14"",""246663""
","""event"",""trial"",""time""
""fullscreenenter"",""1"",""3817""
","""event"",""trial"",""time""
""fullscreenexit"",""2"",""6618""
",,382.9,run_exp/static/images/task_images/land.jpg,76,,,,,,,4,,,4,,,,,,,,100758,1,3,TRUE,,,
travel,116,637400,0.0-37.0-0.0,"""event"",""trial"",""time""
""fullscreenenter"",""1"",""3817""
""fullscreenexit"",""2"",""6618""
""blur"",""14"",""220464""
""focus"",""14"",""246663""
","""event"",""trial"",""time""
""blur"",""14"",""220464""
","""event"",""trial"",""time""
""focus"",""14"",""246663""
","""event"",""trial"",""time""
""fullscreenenter"",""1"",""3817""
","""event"",""trial"",""time""
""fullscreenexit"",""2"",""6618""
",,,,,,,,,,,,"[{""stimulus"":""run_exp/static/images/task_images/rocket-01.jpg"",""time"":0.09999999403953552},{""stimulus"":""run_exp/static/images/task_images/rocket-02.jpg"",""time"":1073.0999999940395},{""stimulus"":""run_exp/static/images/task_images/rocket-03.jpg"",""time"":2145.0999999940395},{""stimulus"":""run_exp/static/images/task_images/rocket-04.jpg"",""time"":3207.4000000059605},{""stimulus"":""run_exp/static/images/task_images/rocket-05.jpg"",""time"":4283.4000000059605},{""stimulus"":""run_exp/static/images/task_images/rocket-06.jpg"",""time"":5347.0999999940395},{""stimulus"":""run_exp/static/images/task_images/rocket-07.jpg"",""time"":6419.300000011921},{""stimulus"":""run_exp/static/images/task_images/rocket-08.jpg"",""time"":7483},{""stimulus"":""run_exp/static/images/task_images/rocket-09.jpg"",""time"":8555.09999999404}]",[],4,,,,,,,,,,,,,,
alien_welcome,117,642403,0.0-37.0-1.0,"""event"",""trial"",""time""
""fullscreenenter"",""1"",""3817""
""fullscreenexit"",""2"",""6618""
""blur"",""14"",""220464""
""focus"",""14"",""246663""
","""event"",""trial"",""time""
""blur"",""14"",""220464""
","""event"",""trial"",""time""
""focus"",""14"",""246663""
","""event"",""trial"",""time""
""fullscreenenter"",""1"",""3817""
","""event"",""trial"",""time""
""fullscreenexit"",""2"",""6618""
",,null,run_exp/static/images/task_images/aliens/old_aliens/planet/alien_planet-24.jpg,null,,,,,,,,,,,,,24,"50,39,20,44,24,77,58,73,23,51,37,47,7,41,5,36,54,70,4,61,6,31,18,71,14,68,48,42,72,65,79,16,55,17,63,1,46,27,28,43",,,,,,,,,,
land,118,642912,0.0-37.0-2.0,"""event"",""trial"",""time""
""fullscreenenter"",""1"",""3817""
""fullscreenexit"",""2"",""6618""
""blur"",""14"",""220464""
""focus"",""14"",""246663""
","""event"",""trial"",""time""
""blur"",""14"",""220464""
","""event"",""trial"",""time""
""focus"",""14"",""246663""
","""event"",""trial"",""time""
""fullscreenenter"",""1"",""3817""
","""event"",""trial"",""time""
""fullscreenexit"",""2"",""6618""
",,null,run_exp/static/images/task_images/land.jpg,null,,,,,,,101,,,5,,,,,,,,,,,,,,
dig,119,644928,0.0-37.0-3.0,"""event"",""trial"",""time""
""fullscreenenter"",""1"",""3817""
""fullscreenexit"",""2"",""6618""
""blur"",""14"",""220464""
""focus"",""14"",""246663""
","""event"",""trial"",""time""
""blur"",""14"",""220464""
","""event"",""trial"",""time""
""focus"",""14"",""246663""
","""event"",""trial"",""time""
""fullscreenenter"",""1"",""3817""
","""event"",""trial"",""time""
""fullscreenexit"",""2"",""6618""
",,,,,,,,,,,,"[{""stimulus"":""run_exp/static/images/task_images/dig.jpg"",""time"":0.5},{""stimulus"":""run_exp/static/images/task_images/land.jpg"",""time"":675.1999999880791},{""stimulus"":""run_exp/static/images/task_images/dig.jpg"",""time"":1339.8999999761581}]",[],5,,,,,,,,,,,,,,
harvest,120,645936,0.0-37.0-4.0,"""event"",""trial"",""time""
""fullscreenenter"",""1"",""3817""
""fullscreenexit"",""2"",""6618""
""blur"",""14"",""220464""
""focus"",""14"",""246663""
","""event"",""trial"",""time""
""blur"",""14"",""220464""
","""event"",""trial"",""time""
""focus"",""14"",""246663""
","""event"",""trial"",""time""
""fullscreenenter"",""1"",""3817""
","""event"",""trial"",""time""
""fullscreenexit"",""2"",""6618""
",,null,run_exp/static/images/task_images/gems/101.jpg,null,,,,,,,51,,,5,,,,,101,0.501389869,0.504950495,,,,,,,
decision,121,646240,0.0-37.0-5.0,"""event"",""trial"",""time""
""fullscreenenter"",""1"",""3817""
""fullscreenexit"",""2"",""6618""
""blur"",""14"",""220464""
""focus"",""14"",""246663""
","""event"",""trial"",""time""
""blur"",""14"",""220464""
","""event"",""trial"",""time""
""focus"",""14"",""246663""
","""event"",""trial"",""time""
""fullscreenenter"",""1"",""3817""
","""event"",""trial"",""time""
""fullscreenexit"",""2"",""6618""
",,301.6,run_exp/static/images/task_images/land.jpg,65,,,,,,,51,,,5,,,,,,,,119221,1,0,FALSE,,,
dig,122,648948,0.0-38.0-0.0,"""event"",""trial"",""time""
""fullscreenenter"",""1"",""3817""
""fullscreenexit"",""2"",""6618""
""blur"",""14"",""220464""
""focus"",""14"",""246663""
","""event"",""trial"",""time""
""blur"",""14"",""220464""
","""event"",""trial"",""time""
""focus"",""14"",""246663""
","""event"",""trial"",""time""
""fullscreenenter"",""1"",""3817""
","""event"",""trial"",""time""
""fullscreenexit"",""2"",""6618""
",,,,,,,,,,,,"[{""stimulus"":""run_exp/static/images/task_images/dig.jpg"",""time"":0.09999999403953552},{""stimulus"":""run_exp/static/images/task_images/land.jpg"",""time"":904.8000000119209},{""stimulus"":""run_exp/static/images/task_images/dig.jpg"",""time"":1802.5999999940395}]",[],5,,,,,,,,,,,,,,
harvest,123,649956,0.0-38.0-1.0,"""event"",""trial"",""time""
""fullscreenenter"",""1"",""3817""
""fullscreenexit"",""2"",""6618""
""blur"",""14"",""220464""
""focus"",""14"",""246663""
","""event"",""trial"",""time""
""blur"",""14"",""220464""
","""event"",""trial"",""time""
""focus"",""14"",""246663""
","""event"",""trial"",""time""
""fullscreenenter"",""1"",""3817""
","""event"",""trial"",""time""
""fullscreenexit"",""2"",""6618""
",,null,run_exp/static/images/task_images/gems/51.jpg,null,,,,,,,29,,,5,,,,,51,0.566439542,0.568627451,,,,,,,
decision,124,650282,0.0-38.0-2.0,"""event"",""trial"",""time""
""fullscreenenter"",""1"",""3817""
""fullscreenexit"",""2"",""6618""
""blur"",""14"",""220464""
""focus"",""14"",""246663""
","""event"",""trial"",""time""
""blur"",""14"",""220464""
","""event"",""trial"",""time""
""focus"",""14"",""246663""
","""event"",""trial"",""time""
""fullscreenenter"",""1"",""3817""
","""event"",""trial"",""time""
""fullscreenexit"",""2"",""6618""
",,325,run_exp/static/images/task_images/land.jpg,65,,,,,,,29,,,5,,,,,,,,123264,1,1,FALSE,,,
dig,125,652968,0.0-39.0-0.0,"""event"",""trial"",""time""
""fullscreenenter"",""1"",""3817""
""fullscreenexit"",""2"",""6618""
""blur"",""14"",""220464""
""focus"",""14"",""246663""
","""event"",""trial"",""time""
""blur"",""14"",""220464""
","""event"",""trial"",""time""
""focus"",""14"",""246663""
","""event"",""trial"",""time""
""fullscreenenter"",""1"",""3817""
","""event"",""trial"",""time""
""fullscreenexit"",""2"",""6618""
",,,,,,,,,,,,"[{""stimulus"":""run_exp/static/images/task_images/dig.jpg"",""time"":0.30000001192092896},{""stimulus"":""run_exp/static/images/task_images/land.jpg"",""time"":894.6000000238419},{""stimulus"":""run_exp/static/images/task_images/dig.jpg"",""time"":1794}]",[],5,,,,,,,,,,,,,,
harvest,126,653976,0.0-39.0-1.0,"""event"",""trial"",""time""
""fullscreenenter"",""1"",""3817""
""fullscreenexit"",""2"",""6618""
""blur"",""14"",""220464""
""focus"",""14"",""246663""
","""event"",""trial"",""time""
""blur"",""14"",""220464""
","""event"",""trial"",""time""
""focus"",""14"",""246663""
","""event"",""trial"",""time""
""fullscreenenter"",""1"",""3817""
","""event"",""trial"",""time""
""fullscreenexit"",""2"",""6618""
",,null,run_exp/static/images/task_images/gems/29.jpg,null,,,,,,,14,,,5,,,,,29,0.484485762,0.482758621,,,,,,,
decision,127,654415,0.0-39.0-2.0,"""event"",""trial"",""time""
""fullscreenenter"",""1"",""3817""
""fullscreenexit"",""2"",""6618""
""blur"",""14"",""220464""
""focus"",""14"",""246663""
","""event"",""trial"",""time""
""blur"",""14"",""220464""
","""event"",""trial"",""time""
""focus"",""14"",""246663""
","""event"",""trial"",""time""
""fullscreenenter"",""1"",""3817""
","""event"",""trial"",""time""
""fullscreenexit"",""2"",""6618""
",,436.4,run_exp/static/images/task_images/land.jpg,65,,,,,,,14,,,5,,,,,,,,127396,1,2,FALSE,,,
dig,128,656992,0.0-40.0-0.0,"""event"",""trial"",""time""
""fullscreenenter"",""1"",""3817""
""fullscreenexit"",""2"",""6618""
""blur"",""14"",""220464""
""focus"",""14"",""246663""
","""event"",""trial"",""time""
""blur"",""14"",""220464""
","""event"",""trial"",""time""
""focus"",""14"",""246663""
","""event"",""trial"",""time""
""fullscreenenter"",""1"",""3817""
","""event"",""trial"",""time""
""fullscreenexit"",""2"",""6618""
",,,,,,,,,,,,"[{""stimulus"":""run_exp/static/images/task_images/dig.jpg"",""time"":0.30000001192092896},{""stimulus"":""run_exp/static/images/task_images/land.jpg"",""time"":861.3000000119209},{""stimulus"":""run_exp/static/images/task_images/dig.jpg"",""time"":1717.800000011921}]",[],5,,,,,,,,,,,,,,
harvest,129,657998,0.0-40.0-1.0,"""event"",""trial"",""time""
""fullscreenenter"",""1"",""3817""
""fullscreenexit"",""2"",""6618""
""blur"",""14"",""220464""
""focus"",""14"",""246663""
","""event"",""trial"",""time""
""blur"",""14"",""220464""
","""event"",""trial"",""time""
""focus"",""14"",""246663""
","""event"",""trial"",""time""
""fullscreenenter"",""1"",""3817""
","""event"",""trial"",""time""
""fullscreenexit"",""2"",""6618""
",,null,run_exp/static/images/task_images/gems/14.jpg,null,,,,,,,7,,,5,,,,,14,0.478873563,0.5,,,,,,,
decision,130,658748,0.0-40.0-2.0,"""event"",""trial"",""time""
""fullscreenenter"",""1"",""3817""
""fullscreenexit"",""2"",""6618""
""blur"",""14"",""220464""
""focus"",""14"",""246663""
","""event"",""trial"",""time""
""blur"",""14"",""220464""
","""event"",""trial"",""time""
""focus"",""14"",""246663""
","""event"",""trial"",""time""
""fullscreenenter"",""1"",""3817""
","""event"",""trial"",""time""
""fullscreenexit"",""2"",""6618""
",,748.1,run_exp/static/images/task_images/land.jpg,76,,,,,,,7,,,5,,,,,,,,131729,1,3,TRUE,,,
travel,131,668003,0.0-41.0-0.0,"""event"",""trial"",""time""
""fullscreenenter"",""1"",""3817""
""fullscreenexit"",""2"",""6618""
""blur"",""14"",""220464""
""focus"",""14"",""246663""
","""event"",""trial"",""time""
""blur"",""14"",""220464""
","""event"",""trial"",""time""
""focus"",""14"",""246663""
","""event"",""trial"",""time""
""fullscreenenter"",""1"",""3817""
","""event"",""trial"",""time""
""fullscreenexit"",""2"",""6618""
",,,,,,,,,,,,"[{""stimulus"":""run_exp/static/images/task_images/rocket-01.jpg"",""time"":0.20000001788139343},{""stimulus"":""run_exp/static/images/task_images/rocket-02.jpg"",""time"":1039.1000000238419},{""stimulus"":""run_exp/static/images/task_images/rocket-03.jpg"",""time"":2063.2000000178814},{""stimulus"":""run_exp/static/images/task_images/rocket-04.jpg"",""time"":3095.2000000178814},{""stimulus"":""run_exp/static/images/task_images/rocket-05.jpg"",""time"":4117.100000023842},{""stimulus"":""run_exp/static/images/task_images/rocket-06.jpg"",""time"":5137.700000017881},{""stimulus"":""run_exp/static/images/task_images/rocket-07.jpg"",""time"":6175.100000023842},{""stimulus"":""run_exp/static/images/task_images/rocket-08.jpg"",""time"":7195},{""stimulus"":""run_exp/static/images/task_images/rocket-09.jpg"",""time"":8223.200000017881}]",[],5,,,,,,,,,,,,,,
alien_welcome,132,673012,0.0-41.0-1.0,"""event"",""trial"",""time""
""fullscreenenter"",""1"",""3817""
""fullscreenexit"",""2"",""6618""
""blur"",""14"",""220464""
""focus"",""14"",""246663""
","""event"",""trial"",""time""
""blur"",""14"",""220464""
","""event"",""trial"",""time""
""focus"",""14"",""246663""
","""event"",""trial"",""time""
""fullscreenenter"",""1"",""3817""
","""event"",""trial"",""time""
""fullscreenexit"",""2"",""6618""
",,null,run_exp/static/images/task_images/aliens/old_aliens/planet/alien_planet-77.jpg,null,,,,,,,,,,,,,77,"50,39,20,44,24,77,58,73,23,51,37,47,7,41,5,36,54,70,4,61,6,31,18,71,14,68,48,42,72,65,79,16,55,17,63,1,46,27,28,43",,,,,,,,,,
land,133,673520,0.0-41.0-2.0,"""event"",""trial"",""time""
""fullscreenenter"",""1"",""3817""
""fullscreenexit"",""2"",""6618""
""blur"",""14"",""220464""
""focus"",""14"",""246663""
","""event"",""trial"",""time""
""blur"",""14"",""220464""
","""event"",""trial"",""time""
""focus"",""14"",""246663""
","""event"",""trial"",""time""
""fullscreenenter"",""1"",""3817""
","""event"",""trial"",""time""
""fullscreenexit"",""2"",""6618""
",,null,run_exp/static/images/task_images/land.jpg,null,,,,,,,108,,,6,,,,,,,,,,,,,,
dig,134,675536,0.0-41.0-3.0,"""event"",""trial"",""time""
""fullscreenenter"",""1"",""3817""
""fullscreenexit"",""2"",""6618""
""blur"",""14"",""220464""
""focus"",""14"",""246663""
","""event"",""trial"",""time""
""blur"",""14"",""220464""
","""event"",""trial"",""time""
""focus"",""14"",""246663""
","""event"",""trial"",""time""
""fullscreenenter"",""1"",""3817""
","""event"",""trial"",""time""
""fullscreenexit"",""2"",""6618""
",,,,,,,,,,,,"[{""stimulus"":""run_exp/static/images/task_images/dig.jpg"",""time"":0.4000000059604645},{""stimulus"":""run_exp/static/images/task_images/land.jpg"",""time"":674.3000000119209},{""stimulus"":""run_exp/static/images/task_images/dig.jpg"",""time"":1338.300000011921}]",[],6,,,,,,,,,,,,,,
harvest,135,676544,0.0-41.0-4.0,"""event"",""trial"",""time""
""fullscreenenter"",""1"",""3817""
""fullscreenexit"",""2"",""6618""
""blur"",""14"",""220464""
""focus"",""14"",""246663""
","""event"",""trial"",""time""
""blur"",""14"",""220464""
","""event"",""trial"",""time""
""focus"",""14"",""246663""
","""event"",""trial"",""time""
""fullscreenenter"",""1"",""3817""
","""event"",""trial"",""time""
""fullscreenexit"",""2"",""6618""
",,null,run_exp/static/images/task_images/gems/108.jpg,null,,,,,,,80,,,6,,,,,108,0.74489081,0.740740741,,,,,,,
decision,136,677276,0.0-41.0-5.0,"""event"",""trial"",""time""
""fullscreenenter"",""1"",""3817""
""fullscreenexit"",""2"",""6618""
""blur"",""14"",""220464""
""focus"",""14"",""246663""
","""event"",""trial"",""time""
""blur"",""14"",""220464""
","""event"",""trial"",""time""
""focus"",""14"",""246663""
","""event"",""trial"",""time""
""fullscreenenter"",""1"",""3817""
","""event"",""trial"",""time""
""fullscreenexit"",""2"",""6618""
",,729.9,run_exp/static/images/task_images/land.jpg,65,,,,,,,80,,,6,,,,,,,,150257,1,0,FALSE,,,
dig,137,679556,0.0-42.0-0.0,"""event"",""trial"",""time""
""fullscreenenter"",""1"",""3817""
""fullscreenexit"",""2"",""6618""
""blur"",""14"",""220464""
""focus"",""14"",""246663""
","""event"",""trial"",""time""
""blur"",""14"",""220464""
","""event"",""trial"",""time""
""focus"",""14"",""246663""
","""event"",""trial"",""time""
""fullscreenenter"",""1"",""3817""
","""event"",""trial"",""time""
""fullscreenexit"",""2"",""6618""
",,,,,,,,,,,,"[{""stimulus"":""run_exp/static/images/task_images/dig.jpg"",""time"":0.20000001788139343},{""stimulus"":""run_exp/static/images/task_images/land.jpg"",""time"":757.5},{""stimulus"":""run_exp/static/images/task_images/dig.jpg"",""time"":1520.6000000238419}]",[],6,,,,,,,,,,,,,,
harvest,138,680568,0.0-42.0-1.0,"""event"",""trial"",""time""
""fullscreenenter"",""1"",""3817""
""fullscreenexit"",""2"",""6618""
""blur"",""14"",""220464""
""focus"",""14"",""246663""
","""event"",""trial"",""time""
""blur"",""14"",""220464""
","""event"",""trial"",""time""
""focus"",""14"",""246663""
","""event"",""trial"",""time""
""fullscreenenter"",""1"",""3817""
","""event"",""trial"",""time""
""fullscreenexit"",""2"",""6618""
",,null,run_exp/static/images/task_images/gems/80.jpg,null,,,,,,,68,,,6,,,,,80,0.853046291,0.85,,,,,,,
decision,139,681102,0.0-42.0-2.0,"""event"",""trial"",""time""
""fullscreenenter"",""1"",""3817""
""fullscreenexit"",""2"",""6618""
""blur"",""14"",""220464""
""focus"",""14"",""246663""
","""event"",""trial"",""time""
""blur"",""14"",""220464""
","""event"",""trial"",""time""
""focus"",""14"",""246663""
","""event"",""trial"",""time""
""fullscreenenter"",""1"",""3817""
","""event"",""trial"",""time""
""fullscreenexit"",""2"",""6618""
",,531.7,run_exp/static/images/task_images/land.jpg,65,,,,,,,68,,,6,,,,,,,,154083,1,1,FALSE,,,
dig,140,683579,0.0-43.0-0.0,"""event"",""trial"",""time""
""fullscreenenter"",""1"",""3817""
""fullscreenexit"",""2"",""6618""
""blur"",""14"",""220464""
""focus"",""14"",""246663""
","""event"",""trial"",""time""
""blur"",""14"",""220464""
","""event"",""trial"",""time""
""focus"",""14"",""246663""
","""event"",""trial"",""time""
""fullscreenenter"",""1"",""3817""
","""event"",""trial"",""time""
""fullscreenexit"",""2"",""6618""
",,,,,,,,,,,,"[{""stimulus"":""run_exp/static/images/task_images/dig.jpg"",""time"":0.09999999403953552},{""stimulus"":""run_exp/static/images/task_images/land.jpg"",""time"":827.0999999940395},{""stimulus"":""run_exp/static/images/task_images/dig.jpg"",""time"":1654.4000000059605}]",[],6,,,,,,,,,,,,,,
harvest,141,684587,0.0-43.0-1.0,"""event"",""trial"",""time""
""fullscreenenter"",""1"",""3817""
""fullscreenexit"",""2"",""6618""
""blur"",""14"",""220464""
""focus"",""14"",""246663""
","""event"",""trial"",""time""
""blur"",""14"",""220464""
","""event"",""trial"",""time""
""focus"",""14"",""246663""
","""event"",""trial"",""time""
""fullscreenenter"",""1"",""3817""
","""event"",""trial"",""time""
""fullscreenexit"",""2"",""6618""
",,null,run_exp/static/images/task_images/gems/68.jpg,null,,,,,,,56,,,6,,,,,68,0.816962688,0.823529412,,,,,,,
decision,142,684996,0.0-43.0-2.0,"""event"",""trial"",""time""
""fullscreenenter"",""1"",""3817""
""fullscreenexit"",""2"",""6618""
""blur"",""14"",""220464""
""focus"",""14"",""246663""
","""event"",""trial"",""time""
""blur"",""14"",""220464""
","""event"",""trial"",""time""
""focus"",""14"",""246663""
","""event"",""trial"",""time""
""fullscreenenter"",""1"",""3817""
","""event"",""trial"",""time""
""fullscreenexit"",""2"",""6618""
",,406.8,run_exp/static/images/task_images/land.jpg,65,,,,,,,56,,,6,,,,,,,,157977,1,2,FALSE,,,
dig,143,687599,0.0-44.0-0.0,"""event"",""trial"",""time""
""fullscreenenter"",""1"",""3817""
""fullscreenexit"",""2"",""6618""
""blur"",""14"",""220464""
""focus"",""14"",""246663""
","""event"",""trial"",""time""
""blur"",""14"",""220464""
","""event"",""trial"",""time""
""focus"",""14"",""246663""
","""event"",""trial"",""time""
""fullscreenenter"",""1"",""3817""
","""event"",""trial"",""time""
""fullscreenexit"",""2"",""6618""
",,,,,,,,,,,,"[{""stimulus"":""run_exp/static/images/task_images/dig.jpg"",""time"":0.20000001788139343},{""stimulus"":""run_exp/static/images/task_images/land.jpg"",""time"":869.9000000059605},{""stimulus"":""run_exp/static/images/task_images/dig.jpg"",""time"":1734}]",[],6,,,,,,,,,,,,,,
harvest,144,688604,0.0-44.0-1.0,"""event"",""trial"",""time""
""fullscreenenter"",""1"",""3817""
""fullscreenexit"",""2"",""6618""
""blur"",""14"",""220464""
""focus"",""14"",""246663""
","""event"",""trial"",""time""
""blur"",""14"",""220464""
","""event"",""trial"",""time""
""focus"",""14"",""246663""
","""event"",""trial"",""time""
""fullscreenenter"",""1"",""3817""
","""event"",""trial"",""time""
""fullscreenexit"",""2"",""6618""
",,null,run_exp/static/images/task_images/gems/56.jpg,null,,,,,,,47,,,6,,,,,56,0.844934891,0.839285714,,,,,,,
decision,145,689010,0.0-44.0-2.0,"""event"",""trial"",""time""
""fullscreenenter"",""1"",""3817""
""fullscreenexit"",""2"",""6618""
""blur"",""14"",""220464""
""focus"",""14"",""246663""
","""event"",""trial"",""time""
""blur"",""14"",""220464""
","""event"",""trial"",""time""
""focus"",""14"",""246663""
","""event"",""trial"",""time""
""fullscreenenter"",""1"",""3817""
","""event"",""trial"",""time""
""fullscreenexit"",""2"",""6618""
",,403.7,run_exp/static/images/task_images/land.jpg,65,,,,,,,47,,,6,,,,,,,,161991,1,3,FALSE,,,
dig,146,691616,0.0-45.0-0.0,"""event"",""trial"",""time""
""fullscreenenter"",""1"",""3817""
""fullscreenexit"",""2"",""6618""
""blur"",""14"",""220464""
""focus"",""14"",""246663""
","""event"",""trial"",""time""
""blur"",""14"",""220464""
","""event"",""trial"",""time""
""focus"",""14"",""246663""
","""event"",""trial"",""time""
""fullscreenenter"",""1"",""3817""
","""event"",""trial"",""time""
""fullscreenexit"",""2"",""6618""
",,,,,,,,,,,,"[{""stimulus"":""run_exp/static/images/task_images/dig.jpg"",""time"":0.29999998211860657},{""stimulus"":""run_exp/static/images/task_images/land.jpg"",""time"":872.1999999880791},{""stimulus"":""run_exp/static/images/task_images/dig.jpg"",""time"":1734.8999999761581}]",[],6,,,,,,,,,,,,,,
harvest,147,692619,0.0-45.0-1.0,"""event"",""trial"",""time""
