trial_type,trial_index,time_elapsed,internal_node_id,success,rt,stimulus,key_press,prompt,subject_id,age,gender,button_pressed,next_reward,animation_sequence,responses,planet,curr_prac_trial,n_prac_rounds,alien,aliens,reward_received,decay_rate_actual,decay_rate_exp,time_in_block,block_num,prt,last_trial_on_planet,button_html,bonus,num_failures
pavlovia,0,5,0.0-0.0,,,,,,,,,,,,,,,,,,,,,,,,,,,
fullscreen,1,4079,0.0-1.0,TRUE,,,,,,,,,,,,,,,,,,,,,,,,,,
instruc_welcome,2,13945,0.0-2.0,,null,run_exp/static/audio/clip_1_welcome.m4a,null,"<p>Howdy! In this experiment, you’ll be an explorer traveling through space to collect space treasure.</p><p>Your mission is to collect as much treasure as possible.</p><br><br><p><img src='run_exp/static/images/task_images/opening_img-01.jpg' height='300' width='auto'></p>",yLNyOKoVGca8bOH_a5Ke5UddwllDBGZ_MLRP_2fRtFvg2Z76wOai,10.27,female,,,,,,,,,,,,,,,,,,,
audio-keyboard-response,3,30967,0.0-3.0,,null,run_exp/static/audio/clip_2_move.m4a,null,,,,,,,,,,,,,,,,,,,,,,,
welcome_dec,4,31076,0.0-4.0,,103.93,"<p>Howdy! In this experiment, you’ll be an explorer traveling through space to collect space treasure.</p><p>Your mission is to collect as much treasure as possible.</p><br><br><p><img src='run_exp/static/images/task_images/opening_img-01.jpg' height='300' width='auto'></p>",,,,,,1,,,,,,,,,,,,,,,,,,
html-keyboard-response,5,32039,0.0-5.0,,958.58,"<p>Howdy! In this experiment, you’ll be an explorer traveling through space to collect space treasure.</p><p>Your mission is to collect as much treasure as possible.</p><br><br><p><img src='run_exp/static/images/task_images/opening_img-01.jpg' height='300' width='auto'></p><button class=""jspsych-html-btn-unchosen""><img src=""run_exp/static/images/task_images/planet-01.jpg"" height=""50""></button><button class=""jspsych-html-btn-chosen""><img src=""run_exp/static/images/task_images/planet-02.jpg"" height=""50""></button><p><b>[press the space bar to lock in your answer]<b><br></p>",32,,,,,,,,,,,,,,,,,,,,,,,
instruc_goal,6,42487,0.0-6.0-0.0,,null,run_exp/static/audio/clip_3_goal.m4a,null,"<p> As a space explorer, you’ll visit different planets to dig for space treasure, these pink gems.</p> <p> The more treasure you dig up, the more bonus money you’ll win! </p><br><br><p><img src='run_exp/static/images/task_images/pink_gem.jpg' height='300' width='auto'></p>",,,,,,,,,,,,,,,,,,,,,,
instruc_goal,7,46365,0.0-6.0-1.0,,3873.445,"<p> As a space explorer, you’ll visit different planets to dig for space treasure, these pink gems.</p> <p> The more treasure you dig up, the more bonus money you’ll win! </p><br><br><p><img src='run_exp/static/images/task_images/pink_gem.jpg' height='300' width='auto'></p>",,,,,,1,,,,,,,,,,,,,,,,,,
html-keyboard-response,8,47015,0.0-6.0-2.0,,647.43,"<p> As a space explorer, you’ll visit different planets to dig for space treasure, these pink gems.</p> <p> The more treasure you dig up, the more bonus money you’ll win! </p><br><br><p><img src='run_exp/static/images/task_images/pink_gem.jpg' height='300' width='auto'></p><button class=""jspsych-html-btn-unchosen""><img src=""run_exp/static/images/task_images/planet-01.jpg"" height=""50""></button><button class=""jspsych-html-btn-chosen""><img src=""run_exp/static/images/task_images/planet-02.jpg"" height=""50""></button><p><b>[press the space bar to lock in your answer]<b><br></p>",32,,,,,,,,,,,,,,,,,,,,,,,
instruc_dig,9,63350,0.0-7.0-0.0,,null,run_exp/static/audio/clip_4_dig.m4a,null,,,,,,100,,,,,,,,,,,,,,,,,
instruc_dig_try,10,64218,0.0-7.0-1.0,,864.88,"<p> When you’ve arrived at a new planet, you will dig once. </p> <p>Then, you get to decide if you want to stay on the planet and dig again or travel to a new planet and dig there.</p> <p> To stay and dig, press the letter <strong>‘A’</strong> on your keyboard. Try pressing it now! </p><p><img src='run_exp/static/images/task_images/land.jpg'  height='700' width='auto'></p>",65,"<p> When you’ve arrived at a new planet, you will dig once. </p> <p>Then, you get to decide if you want to stay on the planet and dig again or travel to a new planet and dig there.</p> <p> To stay and dig, press the letter <strong>‘A’</strong> on your keyboard. Try pressing it now! </p><p><img src='run_exp/static/images/task_images/land.jpg'  height='700' width='auto'></p>",,,,,100,,,,,,,,,,,,,,,,,
dig_prac,11,66226,0.0-7.0-2.0,,,,,,,,,,,"[{""stimulus"":""run_exp/static/images/task_images/dig.jpg"",""time"":0.28500000189524144},{""stimulus"":""run_exp/static/images/task_images/land.jpg"",""time"":668.5400000133086},{""stimulus"":""run_exp/static/images/task_images/dig.jpg"",""time"":1335.3550000028918}]",[],,,,,,,,,,,,,,,
instruc_travel,12,102774,0.0-7.0-3.0,,null,run_exp/static/audio/clip_5_travel.m4a,null,"<p>Every time you dig up gems, there are less gems on the planet, so the more you dig on a planet the fewer gems you’ll get with each dig.</p><p>When gems are running low, you may want to travel to a new planet. </p> <p>  Planets are very far apart in this galaxy, so it will take some time to travel between them. </p> <br><p>There are lots and lots of planets for you to visit, so you won’t be able to return to any planets you’ve seen before. </p><br><p>To leave this planet and travel to a new one, press the letter <strong>‘L’</strong> on your keyboard. Try pressing it now! </p><p><img src='run_exp/static/images/task_images/rocket-01.jpg'  height='600' width='auto'></p>",,,,,,,,,,,,,,,,,,,,,,
instruc_travel_try,13,105021,0.0-7.0-4.0,,2243.65,"<p>Every time you dig up gems, there are less gems on the planet, so the more you dig on a planet the fewer gems you’ll get with each dig.</p><p>When gems are running low, you may want to travel to a new planet. </p> <p>  Planets are very far apart in this galaxy, so it will take some time to travel between them. </p> <br><p>There are lots and lots of planets for you to visit, so you won’t be able to return to any planets you’ve seen before. </p><br><p>To leave this planet and travel to a new one, press the letter <strong>‘L’</strong> on your keyboard. Try pressing it now! </p><p><img src='run_exp/static/images/task_images/rocket-01.jpg'  height='600' width='auto'></p>",76,"<p>Every time you dig up gems, there are less gems on the planet, so the more you dig on a planet the fewer gems you’ll get with each dig.</p><p>When gems are running low, you may want to travel to a new planet. </p> <p>  Planets are very far apart in this galaxy, so it will take some time to travel between them. </p> <br><p>There are lots and lots of planets for you to visit, so you won’t be able to return to any planets you’ve seen before. </p><br><p>To leave this planet and travel to a new one, press the letter <strong>‘L’</strong> on your keyboard. Try pressing it now! </p><p><img src='run_exp/static/images/task_images/rocket-01.jpg'  height='600' width='auto'></p>",,,,,,,,,,,,,,,,,,,,,,
travel_prac,14,115024,0.0-7.0-5.0,,,,,,,,,,,"[{""stimulus"":""run_exp/static/images/task_images/rocket-01.jpg"",""time"":0.5649999948218465},{""stimulus"":""run_exp/static/images/task_images/rocket-02.jpg"",""time"":1113.2349999970756},{""stimulus"":""run_exp/static/images/task_images/rocket-03.jpg"",""time"":2224.130000002333},{""stimulus"":""run_exp/static/images/task_images/rocket-04.jpg"",""time"":3335.2500000037253},{""stimulus"":""run_exp/static/images/task_images/rocket-05.jpg"",""time"":4446.255000002566},{""stimulus"":""run_exp/static/images/task_images/rocket-06.jpg"",""time"":5557.394999996177},{""stimulus"":""run_exp/static/images/task_images/rocket-07.jpg"",""time"":6668.195000005653},{""stimulus"":""run_exp/static/images/task_images/rocket-08.jpg"",""time"":7779.114999997546},{""stimulus"":""run_exp/static/images/task_images/rocket-09.jpg"",""time"":8890.119999996386}]",[],0,,,,,,,,,,,,,,
instruc_alien_greet,15,142501,0.0-7.0-6.0,,null,run_exp/static/audio/clip_6_alien.m4a,null,"<p>When you arrive at a new planet, the alien who owns the treasure mine on that planet will greet you!</p><p>The better an alien takes care of their mine the easier it is to dig for gems. Some aliens take better care of their mine than others. So, you won’t get exactly the same amount of gems on each planet.</p><p>What the alien looks like does not tell you anything about how many gems there are on the planet.</p><br><p><img src=""run_exp/static/images/task_images/aliens/instructions_aliens/planet/alien_planet-1.jpg""  height=""600"" width=""auto""></p>",,,,,,,,,,,,,,,,,,,,,,
instruc_alien_greet,16,146336,0.0-7.0-7.0,,3831.495,"<p>When you arrive at a new planet, the alien who owns the treasure mine on that planet will greet you!</p><p>The better an alien takes care of their mine the easier it is to dig for gems. Some aliens take better care of their mine than others. So, you won’t get exactly the same amount of gems on each planet.</p><p>What the alien looks like does not tell you anything about how many gems there are on the planet.</p><br><p><img src=""run_exp/static/images/task_images/aliens/instructions_aliens/planet/alien_planet-1.jpg""  height=""600"" width=""auto""></p>",,,,,,1,,,,,,,,,,,,,,,,,,
html-keyboard-response,17,147660,0.0-7.0-8.0,,1320.725,"<p>When you arrive at a new planet, the alien who owns the treasure mine on that planet will greet you!</p><p>The better an alien takes care of their mine the easier it is to dig for gems. Some aliens take better care of their mine than others. So, you won’t get exactly the same amount of gems on each planet.</p><p>What the alien looks like does not tell you anything about how many gems there are on the planet.</p><br><p><img src=""run_exp/static/images/task_images/aliens/instructions_aliens/planet/alien_planet-1.jpg""  height=""600"" width=""auto""></p><button class=""jspsych-html-btn-unchosen""><img src=""run_exp/static/images/task_images/planet-01.jpg"" height=""50""></button><button class=""jspsych-html-btn-chosen""><img src=""run_exp/static/images/task_images/planet-02.jpg"" height=""50""></button><p><b>[press the space bar to lock in your answer]<b><br></p>",32,,,,,,,,,,,,,,,,,,,,,,,
time_out,18,159140,0.0-8.0-0.0,,null,run_exp/static/audio/clip_7_timeout.m4a,null,"<p>If you don't make your choice fast enough, you’ll have to wait a few seconds before you can make another one.</p><p>You can’t dig for more gems or travel to new planets. You just have to sit and wait.</p><br><p><img src='run_exp/static/images/task_images/time_out.jpg'  height='600' width='auto'></p>",,,,,,,,,,,,,,,,,,,,,,
time_out,19,161459,0.0-8.0-1.0,,2314.865,"<p>If you don't make your choice fast enough, you’ll have to wait a few seconds before you can make another one.</p><p>You can’t dig for more gems or travel to new planets. You just have to sit and wait.</p><br><p><img src='run_exp/static/images/task_images/time_out.jpg'  height='600' width='auto'></p>",,,,,,1,,,,,,,,,,,,,,,,,,
html-keyboard-response,20,162354,0.0-8.0-2.0,,893.155,"<p>If you don't make your choice fast enough, you’ll have to wait a few seconds before you can make another one.</p><p>You can’t dig for more gems or travel to new planets. You just have to sit and wait.</p><br><p><img src='run_exp/static/images/task_images/time_out.jpg'  height='600' width='auto'></p><button class=""jspsych-html-btn-unchosen""><img src=""run_exp/static/images/task_images/planet-01.jpg"" height=""50""></button><button class=""jspsych-html-btn-chosen""><img src=""run_exp/static/images/task_images/planet-02.jpg"" height=""50""></button><p><b>[press the space bar to lock in your answer]<b><br></p>",32,,,,,,,,,,,,,,,,,,,,,,,
instruc_break,21,178340,0.0-9.0-0.0,,null,run_exp/static/audio/clip_8_break.m4a,null,"<p> After digging and traveling for a while, you’ll be able to take a break at home base. </p><p>The game will last 20 minutes no matter what.</p><p>You will visit home base every 5 minutes, so, you will visit home base three times during the game.</p><br><p><img src='run_exp/static/images/task_images/home_base.jpg' height='600' width='auto'></p>",,,,,,,,,,,,,,,,,,,,,,
instruc_break,22,179987,0.0-9.0-1.0,,1643.615,"<p> After digging and traveling for a while, you’ll be able to take a break at home base. </p><p>The game will last 20 minutes no matter what.</p><p>You will visit home base every 5 minutes, so, you will visit home base three times during the game.</p><br><p><img src='run_exp/static/images/task_images/home_base.jpg' height='600' width='auto'></p>",,,,,,1,,,,,,,,,,,,,,,,,,
html-keyboard-response,23,181257,0.0-9.0-2.0,,1267.78,"<p> After digging and traveling for a while, you’ll be able to take a break at home base. </p><p>The game will last 20 minutes no matter what.</p><p>You will visit home base every 5 minutes, so, you will visit home base three times during the game.</p><br><p><img src='run_exp/static/images/task_images/home_base.jpg' height='600' width='auto'></p><button class=""jspsych-html-btn-unchosen""><img src=""run_exp/static/images/task_images/planet-01.jpg"" height=""50""></button><button class=""jspsych-html-btn-chosen""><img src=""run_exp/static/images/task_images/planet-02.jpg"" height=""50""></button><p><b>[press the space bar to lock in your answer]<b><br></p>",32,,,,,,,,,,,,,,,,,,,,,,,
instruc_prac_game,24,191652,0.0-10.0-0.0,,null,run_exp/static/audio/clip_9_practice.m4a,null,"<p> Are you ready to play a practice game? </p> <p>In this practice game, you'll be digging up barrels of gems. But, in the real game, you'll be digging up the gems themselves. </p>",,,,,,,,,,,,,,,,,,,,,,
html-button-response,25,195223,0.0-10.0-1.0,,3568.87,"<p> Are you ready to play a practice game? </p> <p>In this practice game, you'll be digging up barrels of gems. But, in the real game, you'll be digging up the gems themselves. </p>",,,,,,0,,,,,,,,,,,,,,,,,,
alien_welcome_prac,26,200228,0.0-11.0-0.0,,null,run_exp/static/images/task_images/aliens/practice_aliens/planet/alien_planet-5.jpg,null,,,,,,,,,,,,,,,,,,,,,,,
land_prac,27,200730,0.0-11.0-1.0,,null,run_exp/static/images/task_images/land.jpg,null,,,,,,95,,,0,,,,,,,,,,,,,,
dig_prac,28,202734,0.0-11.0-2.0,,,,,,,,,,,"[{""stimulus"":""run_exp/static/images/task_images/dig.jpg"",""time"":0.3949999954784289},{""stimulus"":""run_exp/static/images/task_images/land.jpg"",""time"":668.8350000040373},{""stimulus"":""run_exp/static/images/task_images/dig.jpg"",""time"":1335.5549999978393}]",[],,,,,,,,,,,,,,,
harvest_prac,29,203736,0.0-11.0-3.0,,null,run_exp/static/images/task_images/barrel_text.jpg,null,,,,,,,,,,,,,,,,,,,,,,,
decision_prac,30,205394,0.0-11.0-4.0,,1655.285,run_exp/static/images/task_images/land.jpg,76,,,,,,,,,,1,,,,,,,,,,,,,
travel,31,213742,0.0-12.0-0.0,,,,,,,,,,,"[{""stimulus"":""run_exp/static/images/task_images/rocket-01.jpg"",""time"":0.13499999477062374},{""stimulus"":""run_exp/static/images/task_images/rocket-02.jpg"",""time"":928.459999995539},{""stimulus"":""run_exp/static/images/task_images/rocket-03.jpg"",""time"":1855.2249999920605},{""stimulus"":""run_exp/static/images/task_images/rocket-04.jpg"",""time"":2782.405000005383},{""stimulus"":""run_exp/static/images/task_images/rocket-05.jpg"",""time"":3709.1550000041025},{""stimulus"":""run_exp/static/images/task_images/rocket-06.jpg"",""time"":4636.320000005071},{""stimulus"":""run_exp/static/images/task_images/rocket-07.jpg"",""time"":5563.265000004321},{""stimulus"":""run_exp/static/images/task_images/rocket-08.jpg"",""time"":6490.445000003092},{""stimulus"":""run_exp/static/images/task_images/rocket-09.jpg"",""time"":7417.430000001332}]",[],0,,,,,,,,,,,,,,
alien_welcome_prac,32,218745,0.0-12.0-1.0,,null,run_exp/static/images/task_images/aliens/practice_aliens/planet/alien_planet-4.jpg,null,,,,,,,,,,,,,,,,,,,,,,,
land_prac,33,219247,0.0-12.0-2.0,,null,run_exp/static/images/task_images/land.jpg,null,,,,,,100,,,0,,,,,,,,,,,,,,
dig_prac,34,221252,0.0-12.0-3.0,,,,,,,,,,,"[{""stimulus"":""run_exp/static/images/task_images/dig.jpg"",""time"":0.18000000272877514},{""stimulus"":""run_exp/static/images/task_images/land.jpg"",""time"":668.1299999909243},{""stimulus"":""run_exp/static/images/task_images/dig.jpg"",""time"":1335.6849999981932}]",[],,,,,,,,,,,,,,,
harvest_prac,35,222253,0.0-12.0-4.0,,null,run_exp/static/images/task_images/barrel_text.jpg,null,,,,,,,,,,,,,,,,,,,,,,,
decision_prac,36,223179,0.0-12.0-5.0,,924.24,run_exp/static/images/task_images/land.jpg,76,,,,,,,,,,2,,,,,,,,,,,,,
travel,37,232259,0.0-13.0-0.0,,,,,,,,,,,"[{""stimulus"":""run_exp/static/images/task_images/rocket-01.jpg"",""time"":0.39500001003034413},{""stimulus"":""run_exp/static/images/task_images/rocket-02.jpg"",""time"":1009.6050000138348},{""stimulus"":""run_exp/static/images/task_images/rocket-03.jpg"",""time"":2017.550000004121},{""stimulus"":""run_exp/static/images/task_images/rocket-04.jpg"",""time"":3025.4400000121677},{""stimulus"":""run_exp/static/images/task_images/rocket-05.jpg"",""time"":4033.785000006901},{""stimulus"":""run_exp/static/images/task_images/rocket-06.jpg"",""time"":5041.785000008531},{""stimulus"":""run_exp/static/images/task_images/rocket-07.jpg"",""time"":6049.810000011348},{""stimulus"":""run_exp/static/images/task_images/rocket-08.jpg"",""time"":7057.795000000624},{""stimulus"":""run_exp/static/images/task_images/rocket-09.jpg"",""time"":8065.305000010994}]",[],0,,,,,,,,,,,,,,
alien_welcome_prac,38,237261,0.0-13.0-1.0,,null,run_exp/static/images/task_images/aliens/practice_aliens/planet/alien_planet-3.jpg,null,,,,,,,,,,,,,,,,,,,,,,,
land_prac,39,237764,0.0-13.0-2.0,,null,run_exp/static/images/task_images/land.jpg,null,,,,,,103,,,0,,,,,,,,,,,,,,
dig_prac,40,239768,0.0-13.0-3.0,,,,,,,,,,,"[{""stimulus"":""run_exp/static/images/task_images/dig.jpg"",""time"":0.40499999886378646},{""stimulus"":""run_exp/static/images/task_images/land.jpg"",""time"":668.6550000013085},{""stimulus"":""run_exp/static/images/task_images/dig.jpg"",""time"":1336.040000009234}]",[],,,,,,,,,,,,,,,
harvest_prac,41,240770,0.0-13.0-4.0,,null,run_exp/static/images/task_images/barrel_text.jpg,null,,,,,,,,,,,,,,,,,,,,,,,
decision_prac,42,241413,0.0-13.0-5.0,,641.2,run_exp/static/images/task_images/land.jpg,65,,,,,,,,,,3,,,,,,,,,,,,,
dig_prac,43,243422,0.0-14.0-0.0,,,,,,,,,,,"[{""stimulus"":""run_exp/static/images/task_images/dig.jpg"",""time"":0.5799999926239252},{""stimulus"":""run_exp/static/images/task_images/land.jpg"",""time"":668.8449999928707},{""stimulus"":""run_exp/static/images/task_images/dig.jpg"",""time"":1336.0700000048382}]",[],,,,,,,,,,,,,,,
harvest_prac,44,244424,0.0-14.0-1.0,,null,run_exp/static/images/task_images/barrel_text.jpg,null,,,,,,,,,,,,,,,,,,,,,,,
decision_prac,45,245644,0.0-14.0-2.0,,1217.975,run_exp/static/images/task_images/land.jpg,76,,,,,,,,,,4,,,,,,,,,,,,,
travel,46,254426,0.0-15.0-0.0,,,,,,,,,,,"[{""stimulus"":""run_exp/static/images/task_images/rocket-01.jpg"",""time"":0.14000000373926014},{""stimulus"":""run_exp/static/images/task_images/rocket-02.jpg"",""time"":976.4349999895785},{""stimulus"":""run_exp/static/images/task_images/rocket-03.jpg"",""time"":1951.374999989639},{""stimulus"":""run_exp/static/images/task_images/rocket-04.jpg"",""time"":2926.404999991064},{""stimulus"":""run_exp/static/images/task_images/rocket-05.jpg"",""time"":3901.4049999968847},{""stimulus"":""run_exp/static/images/task_images/rocket-06.jpg"",""time"":4876.204999993206},{""stimulus"":""run_exp/static/images/task_images/rocket-07.jpg"",""time"":5851.324999995995},{""stimulus"":""run_exp/static/images/task_images/rocket-08.jpg"",""time"":6826.099999991129},{""stimulus"":""run_exp/static/images/task_images/rocket-09.jpg"",""time"":7801.364999992074}]",[],0,,,,,,,,,,,,,,
alien_welcome_prac,47,259428,0.0-15.0-1.0,,null,run_exp/static/images/task_images/aliens/practice_aliens/planet/alien_planet-2.jpg,null,,,,,,,,,,,,,,,,,,,,,,,
land_prac,48,259930,0.0-15.0-2.0,,null,run_exp/static/images/task_images/land.jpg,null,,,,,,102,,,0,,,,,,,,,,,,,,
dig_prac,49,261935,0.0-15.0-3.0,,,,,,,,,,,"[{""stimulus"":""run_exp/static/images/task_images/dig.jpg"",""time"":0.415000002249144},{""stimulus"":""run_exp/static/images/task_images/land.jpg"",""time"":668.9000000042142},{""stimulus"":""run_exp/static/images/task_images/dig.jpg"",""time"":1335.415000008652}]",[],,,,,,,,,,,,,,,
harvest_prac,50,262937,0.0-15.0-4.0,,null,run_exp/static/images/task_images/barrel_text.jpg,null,,,,,,,,,,,,,,,,,,,,,,,
decision_prac,51,263764,0.0-15.0-5.0,,824.885,run_exp/static/images/task_images/land.jpg,76,,,,,,,,,,,1,,,,,,,,,,,,
quiz_instruc,52,268893,0.0-16.0-0.0,,5123.095,run_exp/static/audio/clip_10_quiz.m4a,,,,,,0,,,,,,,,,,,,,,,,,,
instruc_repeat,53,311967,0.0-16.0-1.0,,null,"<p> Are you ready to play a practice game? </p> <p>In this practice game, you'll be digging up barrels of gems. But, in the real game, you'll be digging up the gems themselves. </p>",null,"<p>In this game, your goal is to collect as many gems as you can. That’s how you will win bonus money. </p> <p>The entire game will last 20 minutes no matter how many gems you collect or how many planets you visit. </p><p>To stay on a planet and dig again, press the letter A on your keyboard. To leave for a new planet, press the letter L.</p><p>The more you dig on a planet, the fewer gems you’ll get with each dig which is why you might consider leaving for a new planet. </p><p>When you arrive at a new planet, you’ll be greeted by an alien. What the alien looks like does not tell you anything about how much treasure is on the planet. </p>",,,,,,,,,,,,,,,,,,,,,,
instruc_repeat_continue,54,314932,0.0-16.0-2.0,,2962.09,"<p> Are you ready to play a practice game? </p> <p>In this practice game, you'll be digging up barrels of gems. But, in the real game, you'll be digging up the gems themselves. </p>",,,,,,0,,,,,,,,,,,,,,,,,,
quiz_q_1_ask,55,320161,0.0-16.0-3.0,,5224.85,run_exp/static/audio/clip_11_q1_ask.m4a,,,,,,2,,,,,,,,,,,,,,,,,,
quiz_q_1_fb_correct,56,324383,0.0-17.0-0.0,,null,run_exp/static/audio/clip_12_q1_corrrect.m4a,null,<p>That’s correct. You win extra money by collecting more gems.</p>,,,,,,,,,,,,,,,,,,,,,,
quiz_q_2_ask,57,332624,0.0-17.0-1.0,,8237,run_exp/static/audio/clip_14_q2_ask.m4a,,,,,,1,,,,,,,,,,,,,,,,,,
quiz_q_2_fb_correct,58,336798,0.0-18.0-0.0,,null,run_exp/static/audio/clip_15_q2_correct.m4a,null,<p>That’s correct. The experiment is 20 minutes no matter what.</p>,,,,,,,,,,,,,,,,,,,,,,
quiz_q_3_ask,59,339099,0.0-18.0-1.0,,2296.83,run_exp/static/audio/clip_17_q3_ask.m4a,,,,,,1,,,,,,,,,,,,,,,,,,
quiz_q_3_fb_correct,60,343455,0.0-19.0-0.0,,null,run_exp/static/audio/clip_18_q3_correct.m4a,null,<p> That’s correct. You press the letter L to travel to a new planet.</p>,,,,,,,,,,,,,,,,,,,,,,
quiz_q_4_ask,61,347905,0.0-19.0-1.0,,4447.49,run_exp/static/audio/clip_20_q4_ask.m4a,,,,,,0,,,,,,,,,,,,,,,,,,
quiz_q_4_fb_correct,62,353438,0.0-20.0-0.0,,null,run_exp/static/audio/clip_21_q4_correct.m4a,null,<p> That’s correct. The more you dig on a planet the fewer gems you’ll get with each dig. </p>,,,,,,,,,,,,,,,,,,,,,,
quiz_q_5_ask,63,356218,0.0-20.0-1.0,,2775.46,run_exp/static/audio/clip_23_q5_ask.m4a,,,,,,1,,,,,,,,,,,,,,,,,,
quiz_q_5_fb_correct,64,361502,0.0-21.0-0.0,,null,run_exp/static/audio/clip_24_q5_correct.m4a,null,<p> That’s correct. The alien tells you nothing about how much treasure is on the planet.</p>,,,,,,,,,,,,,,,,,,,,,,
quiz_correct,65,365342,0.0-22.0-0.0,,null,run_exp/static/audio/clip_26_correct_quiz.m4a,null,,,,,,,,,,,,,,,,,,,,,,,
quiz_correct_continue,66,367173,0.0-22.0-1.0,,1828.375,<p>Good job! You're now ready to move on to the real game!</p>,,,,,,0,,,,,,,,,,,,,,,,,,
audio-keyboard-response,67,377630,0.0-22.0-2.0,,null,run_exp/static/audio/clip_28_real_game.m4a,null,,,,,,,,,,,,,,,,,,,,,,,
instruc_begin_exp_contine,68,379025,0.0-22.0-3.0,,1392.14,"<p>Now that you know how  to dig for space treasure and travel to new planets,you can start exploring! </p><p>Do you want to go over the instructions again or get started with the real game?</p>",,,,,,1,,,,,,1,,,,,,,,,,,,
alien_welcome,69,384032,0.0-23.0-0.0,,null,run_exp/static/images/task_images/aliens/old_aliens/planet/alien_planet-10.jpg,null,,,,,,,,,,,,10,"10,66,67,11,15,61,58,32,55,18,51,34,9,12,31,63,43,40,49,73,41,7,23,47,68,37,16,74,33,46,21,1,69,79,54,35,76,72,44,8,65,52,30,22,45,78,17,13,50",,,,,,,,,,
land,70,384534,0.0-23.0-1.0,,null,run_exp/static/images/task_images/land.jpg,null,,,,,,103,,,1,,,,,,,,,,,,,,
dig,71,386539,0.0-23.0-2.0,,,,,,,,,,,"[{""stimulus"":""run_exp/static/images/task_images/dig.jpg"",""time"":0.44499999785330147},{""stimulus"":""run_exp/static/images/task_images/land.jpg"",""time"":669.1149999969639},{""stimulus"":""run_exp/static/images/task_images/dig.jpg"",""time"":1335.8549999975367}]",[],1,,,,,,,,,,,,,,
harvest,72,387541,0.0-23.0-3.0,,null,run_exp/static/images/task_images/gems/103.jpg,null,,,,,,14,,,1,,,,,103,0.138561133,0.13592233,,,,,,,
decision,73,389988,0.0-23.0-4.0,,2442.79,run_exp/static/images/task_images/land.jpg,76,,,,,,14,,,1,,,,,,,,10961,1,0,TRUE,,,
travel,74,397546,0.0-24.0-0.0,,,,,,,,,,,"[{""stimulus"":""run_exp/static/images/task_images/rocket-01.jpg"",""time"":0.14000000373926014},{""stimulus"":""run_exp/static/images/task_images/rocket-02.jpg"",""time"":839.7150000091642},{""stimulus"":""run_exp/static/images/task_images/rocket-03.jpg"",""time"":1678.9750000025379},{""stimulus"":""run_exp/static/images/task_images/rocket-04.jpg"",""time"":2517.9650000063702},{""stimulus"":""run_exp/static/images/task_images/rocket-05.jpg"",""time"":3357.029999999213},{""stimulus"":""run_exp/static/images/task_images/rocket-06.jpg"",""time"":4197.029999995721},{""stimulus"":""run_exp/static/images/task_images/rocket-07.jpg"",""time"":5035.134999998263},{""stimulus"":""run_exp/static/images/task_images/rocket-08.jpg"",""time"":5874.089999997523},{""stimulus"":""run_exp/static/images/task_images/rocket-09.jpg"",""time"":6712.809999997262}]",[],1,,,,,,,,,,,,,,
alien_welcome,75,402549,0.0-24.0-1.0,,null,run_exp/static/images/task_images/aliens/old_aliens/planet/alien_planet-66.jpg,null,,,,,,,,,,,,66,"10,66,67,11,15,61,58,32,55,18,51,34,9,12,31,63,43,40,49,73,41,7,23,47,68,37,16,74,33,46,21,1,69,79,54,35,76,72,44,8,65,52,30,22,45,78,17,13,50",,,,,,,,,,
land,76,403051,0.0-24.0-2.0,,null,run_exp/static/images/task_images/land.jpg,null,,,,,,85,,,2,,,,,,,,,,,,,,
dig,77,405055,0.0-24.0-3.0,,,,,,,,,,,"[{""stimulus"":""run_exp/static/images/task_images/dig.jpg"",""time"":0.39999998989515007},{""stimulus"":""run_exp/static/images/task_images/land.jpg"",""time"":668.7299999903189},{""stimulus"":""run_exp/static/images/task_images/dig.jpg"",""time"":1335.5099999898812}]",[],2,,,,,,,,,,,,,,
harvest,78,406057,0.0-24.0-4.0,,null,run_exp/static/images/task_images/gems/85.jpg,null,,,,,,18,,,2,,,,,85,0.209981005,0.211764706,,,,,,,
decision,79,407631,0.0-24.0-5.0,,1569.9,run_exp/static/images/task_images/land.jpg,76,,,,,,18,,,2,,,,,,,,28602,1,0,TRUE,,,
travel,80,416066,0.0-25.0-0.0,,,,,,,,,,,"[{""stimulus"":""run_exp/static/images/task_images/rocket-01.jpg"",""time"":0.375000003259629},{""stimulus"":""run_exp/static/images/task_images/rocket-02.jpg"",""time"":937.7349999995204},{""stimulus"":""run_exp/static/images/task_images/rocket-03.jpg"",""time"":1873.8049999956274},{""stimulus"":""run_exp/static/images/task_images/rocket-04.jpg"",""time"":2809.7799999959534},{""stimulus"":""run_exp/static/images/task_images/rocket-05.jpg"",""time"":3745.77500000305},{""stimulus"":""run_exp/static/images/task_images/rocket-06.jpg"",""time"":4681.704999995418},{""stimulus"":""run_exp/static/images/task_images/rocket-07.jpg"",""time"":5617.834999997285},{""stimulus"":""run_exp/static/images/task_images/rocket-08.jpg"",""time"":6553.975000002538},{""stimulus"":""run_exp/static/images/task_images/rocket-09.jpg"",""time"":7489.699999990989}]",[],2,,,,,,,,,,,,,,
alien_welcome,81,421069,0.0-25.0-1.0,,null,run_exp/static/images/task_images/aliens/old_aliens/planet/alien_planet-67.jpg,null,,,,,,,,,,,,67,"10,66,67,11,15,61,58,32,55,18,51,34,9,12,31,63,43,40,49,73,41,7,23,47,68,37,16,74,33,46,21,1,69,79,54,35,76,72,44,8,65,52,30,22,45,78,17,13,50",,,,,,,,,,
land,82,421571,0.0-25.0-2.0,,null,run_exp/static/images/task_images/land.jpg,null,,,,,,96,,,3,,,,,,,,,,,,,,
dig,83,423576,0.0-25.0-3.0,,,,,,,,,,,"[{""stimulus"":""run_exp/static/images/task_images/dig.jpg"",""time"":0.470000013592653},{""stimulus"":""run_exp/static/images/task_images/land.jpg"",""time"":668.5000000143191},{""stimulus"":""run_exp/static/images/task_images/dig.jpg"",""time"":1336.700000014389}]",[],3,,,,,,,,,,,,,,
harvest,84,424578,0.0-25.0-4.0,,null,run_exp/static/images/task_images/gems/96.jpg,null,,,,,,55,,,3,,,,,96,0.575858003,0.572916667,,,,,,,
decision,85,425004,0.0-25.0-5.0,,422.395,run_exp/static/images/task_images/land.jpg,76,,,,,,55,,,3,,,,,,,,45975,1,0,TRUE,,,
travel,86,434588,0.0-26.0-0.0,,,,,,,,,,,"[{""stimulus"":""run_exp/static/images/task_images/rocket-01.jpg"",""time"":0.38499999209307134},{""stimulus"":""run_exp/static/images/task_images/rocket-02.jpg"",""time"":1065.7049999863375},{""stimulus"":""run_exp/static/images/task_images/rocket-03.jpg"",""time"":2129.849999997532},{""stimulus"":""run_exp/static/images/task_images/rocket-04.jpg"",""time"":3193.9799999963725},{""stimulus"":""run_exp/static/images/task_images/rocket-05.jpg"",""time"":4257.849999994505},{""stimulus"":""run_exp/static/images/task_images/rocket-06.jpg"",""time"":5321.809999994002},{""stimulus"":""run_exp/static/images/task_images/rocket-07.jpg"",""time"":6385.699999998906},{""stimulus"":""run_exp/static/images/task_images/rocket-08.jpg"",""time"":7449.819999994361},{""stimulus"":""run_exp/static/images/task_images/rocket-09.jpg"",""time"":8513.57999999891}]",[],3,,,,,,,,,,,,,,
alien_welcome,87,439591,0.0-26.0-1.0,,null,run_exp/static/images/task_images/aliens/old_aliens/planet/alien_planet-11.jpg,null,,,,,,,,,,,,11,"10,66,67,11,15,61,58,32,55,18,51,34,9,12,31,63,43,40,49,73,41,7,23,47,68,37,16,74,33,46,21,1,69,79,54,35,76,72,44,8,65,52,30,22,45,78,17,13,50",,,,,,,,,,
land,88,440094,0.0-26.0-2.0,,null,run_exp/static/images/task_images/land.jpg,null,,,,,,107,,,4,,,,,,,,,,,,,,
dig,89,442100,0.0-26.0-3.0,,,,,,,,,,,"[{""stimulus"":""run_exp/static/images/task_images/dig.jpg"",""time"":0.21499999274965376},{""stimulus"":""run_exp/static/images/task_images/land.jpg"",""time"":668.4899999963818},{""stimulus"":""run_exp/static/images/task_images/dig.jpg"",""time"":1335.2199999935692}]",[],4,,,,,,,,,,,,,,
harvest,90,443102,0.0-26.0-4.0,,null,run_exp/static/images/task_images/gems/107.jpg,null,,,,,,55,,,4,,,,,107,0.51200644,0.514018692,,,,,,,
decision,91,443665,0.0-26.0-5.0,,558.235,run_exp/static/images/task_images/land.jpg,65,,,,,,55,,,4,,,,,,,,64636,1,0,FALSE,,,
dig,92,446109,0.0-27.0-0.0,,,,,,,,,,,"[{""stimulus"":""run_exp/static/images/task_images/dig.jpg"",""time"":0.15500000154133886},{""stimulus"":""run_exp/static/images/task_images/land.jpg"",""time"":814.3299999937881},{""stimulus"":""run_exp/static/images/task_images/dig.jpg"",""time"":1627.519999994547}]",[],4,,,,,,,,,,,,,,
harvest,93,447111,0.0-27.0-1.0,,null,run_exp/static/images/task_images/gems/55.jpg,null,,,,,,28,,,4,,,,,55,0.509925347,0.509090909,,,,,,,
decision,94,448157,0.0-27.0-2.0,,1042.48,run_exp/static/images/task_images/land.jpg,76,,,,,,28,,,4,,,,,,,,69128,1,1,TRUE,,,
travel,95,457116,0.0-28.0-0.0,,,,,,,,,,,"[{""stimulus"":""run_exp/static/images/task_images/rocket-01.jpg"",""time"":0.15500000154133886},{""stimulus"":""run_exp/static/images/task_images/rocket-02.jpg"",""time"":996.4049999980489},{""stimulus"":""run_exp/static/images/task_images/rocket-03.jpg"",""time"":1991.1900000006426},{""stimulus"":""run_exp/static/images/task_images/rocket-04.jpg"",""time"":2986.400000008871},{""stimulus"":""run_exp/static/images/task_images/rocket-05.jpg"",""time"":3981.420000010985},{""stimulus"":""run_exp/static/images/task_images/rocket-06.jpg"",""time"":4976.2400000036},{""stimulus"":""run_exp/static/images/task_images/rocket-07.jpg"",""time"":5971.550000002026},{""stimulus"":""run_exp/static/images/task_images/rocket-08.jpg"",""time"":6966.645000007702},{""stimulus"":""run_exp/static/images/task_images/rocket-09.jpg"",""time"":7961.4350000047125}]",[],4,,,,,,,,,,,,,,
alien_welcome,96,462119,0.0-28.0-1.0,,null,run_exp/static/images/task_images/aliens/old_aliens/planet/alien_planet-15.jpg,null,,,,,,,,,,,,15,"10,66,67,11,15,61,58,32,55,18,51,34,9,12,31,63,43,40,49,73,41,7,23,47,68,37,16,74,33,46,21,1,69,79,54,35,76,72,44,8,65,52,30,22,45,78,17,13,50",,,,,,,,,,
land,97,462621,0.0-28.0-2.0,,null,run_exp/static/images/task_images/land.jpg,null,,,,,,93,,,5,,,,,,,,,,,,,,
dig,98,464626,0.0-28.0-3.0,,,,,,,,,,,"[{""stimulus"":""run_exp/static/images/task_images/dig.jpg"",""time"":0.4099999932805076},{""stimulus"":""run_exp/static/images/task_images/land.jpg"",""time"":668.8599999906728},{""stimulus"":""run_exp/static/images/task_images/dig.jpg"",""time"":1335.8749999897555}]",[],5,,,,,,,,,,,,,,
harvest,99,465628,0.0-28.0-4.0,,null,run_exp/static/images/task_images/gems/93.jpg,null,,,,,,50,,,5,,,,,93,0.542926545,0.537634409,,,,,,,
decision,100,465645,0.0-28.0-5.0,,13.05000001,run_exp/static/images/task_images/land.jpg,76,,,,,,50,,,5,,,,,,,,86616,1,0,TRUE,,,
travel,101,475631,0.0-29.0-0.0,,,,,,,,,,,"[{""stimulus"":""run_exp/static/images/task_images/rocket-01.jpg"",""time"":0.1500000071246177},{""stimulus"":""run_exp/static/images/task_images/rocket-02.jpg"",""time"":1110.3750000038417},{""stimulus"":""run_exp/static/images/task_images/rocket-03.jpg"",""time"":2219.505000000936},{""stimulus"":""run_exp/static/images/task_images/rocket-04.jpg"",""time"":3328.559999994468},{""stimulus"":""run_exp/static/images/task_images/rocket-05.jpg"",""time"":4437.279999998282},{""stimulus"":""run_exp/static/images/task_images/rocket-06.jpg"",""time"":5546.375000005355},{""stimulus"":""run_exp/static/images/task_images/rocket-07.jpg"",""time"":6655.020000005607},{""stimulus"":""run_exp/static/images/task_images/rocket-08.jpg"",""time"":7764.280000003055},{""stimulus"":""run_exp/static/images/task_images/rocket-09.jpg"",""time"":8873.279999999795}]",[],5,,,,,,,,,,,,,,
alien_welcome,102,480634,0.0-29.0-1.0,,null,run_exp/static/images/task_images/aliens/old_aliens/planet/alien_planet-61.jpg,null,,,,,,,,,,,,61,"10,66,67,11,15,61,58,32,55,18,51,34,9,12,31,63,43,40,49,73,41,7,23,47,68,37,16,74,33,46,21,1,69,79,54,35,76,72,44,8,65,52,30,22,45,78,17,13,50",,,,,,,,,,
land,103,481136,0.0-29.0-2.0,,null,run_exp/static/images/task_images/land.jpg,null,,,,,,97,,,6,,,,,,,,,,,,,,
dig,104,483141,0.0-29.0-3.0,,,,,,,,,,,"[{""stimulus"":""run_exp/static/images/task_images/dig.jpg"",""time"":0.375000003259629},{""stimulus"":""run_exp/static/images/task_images/land.jpg"",""time"":668.8050000084331},{""stimulus"":""run_exp/static/images/task_images/dig.jpg"",""time"":1335.6199999980163}]",[],6,,,,,,,,,,,,,,
harvest,105,484143,0.0-29.0-4.0,,null,run_exp/static/images/task_images/gems/97.jpg,null,,,,,,82,,,6,,,,,97,0.849713444,0.845360825,,,,,,,
decision,106,485229,0.0-29.0-5.0,,1083.09,run_exp/static/images/task_images/land.jpg,76,,,,,,82,,,6,,,,,,,,106201,1,0,TRUE,,,
travel,107,494146,0.0-30.0-0.0,,,,,,,,,,,"[{""stimulus"":""run_exp/static/images/task_images/rocket-01.jpg"",""time"":0.18999999156221747},{""stimulus"":""run_exp/static/images/task_images/rocket-02.jpg"",""time"":991.5099999925587},{""stimulus"":""run_exp/static/images/task_images/rocket-03.jpg"",""time"":1981.4800000021933},{""stimulus"":""run_exp/static/images/task_images/rocket-04.jpg"",""time"":2971.4399999938905},{""stimulus"":""run_exp/static/images/task_images/rocket-05.jpg"",""time"":3961.4549999969313},{""stimulus"":""run_exp/static/images/task_images/rocket-06.jpg"",""time"":4951.374999989639},{""stimulus"":""run_exp/static/images/task_images/rocket-07.jpg"",""time"":5941.485000003013},{""stimulus"":""run_exp/static/images/task_images/rocket-08.jpg"",""time"":6931.440000000293},{""stimulus"":""run_exp/static/images/task_images/rocket-09.jpg"",""time"":7921.514999994542}]",[],6,,,,,,,,,,,,,,
alien_welcome,108,499149,0.0-30.0-1.0,,null,run_exp/static/images/task_images/aliens/old_aliens/planet/alien_planet-58.jpg,null,,,,,,,,,,,,58,"10,66,67,11,15,61,58,32,55,18,51,34,9,12,31,63,43,40,49,73,41,7,23,47,68,37,16,74,33,46,21,1,69,79,54,35,76,72,44,8,65,52,30,22,45,78,17,13,50",,,,,,,,,,
land,109,499652,0.0-30.0-2.0,,null,run_exp/static/images/task_images/land.jpg,null,,,,,,103,,,7,,,,,,,,,,,,,,
dig,110,501657,0.0-30.0-3.0,,,,,,,,,,,"[{""stimulus"":""run_exp/static/images/task_images/dig.jpg"",""time"":0.455000001238659},{""stimulus"":""run_exp/static/images/task_images/land.jpg"",""time"":669.0099999977974},{""stimulus"":""run_exp/static/images/task_images/dig.jpg"",""time"":1336.0000000102445}]",[],7,,,,,,,,,,,,,,
harvest,111,502659,0.0-30.0-4.0,,null,run_exp/static/images/task_images/gems/103.jpg,null,,,,,,75,,,7,,,,,103,0.730711288,0.72815534,,,,,,,
decision,112,502697,0.0-30.0-5.0,,32.85,run_exp/static/images/task_images/land.jpg,76,,,,,,75,,,7,,,,,,,,123668,1,0,TRUE,,,
travel,113,512665,0.0-31.0-0.0,,,,,,,,,,,"[{""stimulus"":""run_exp/static/images/task_images/rocket-01.jpg"",""time"":0.12499999138526618},{""stimulus"":""run_exp/static/images/task_images/rocket-02.jpg"",""time"":1108.4399999963352},{""stimulus"":""run_exp/static/images/task_images/rocket-03.jpg"",""time"":2215.379999994184},{""stimulus"":""run_exp/static/images/task_images/rocket-04.jpg"",""time"":3322.40499999898},{""stimulus"":""run_exp/static/images/task_images/rocket-05.jpg"",""time"":4429.369999998016},{""stimulus"":""run_exp/static/images/task_images/rocket-06.jpg"",""time"":5536.414999995031},{""stimulus"":""run_exp/static/images/task_images/rocket-07.jpg"",""time"":6643.404999995255},{""stimulus"":""run_exp/static/images/task_images/rocket-08.jpg"",""time"":7750.38999998651},{""stimulus"":""run_exp/static/images/task_images/rocket-09.jpg"",""time"":8857.194999989588}]",[],7,,,,,,,,,,,,,,
alien_welcome,114,517668,0.0-31.0-1.0,,null,run_exp/static/images/task_images/aliens/old_aliens/planet/alien_planet-32.jpg,null,,,,,,,,,,,,32,"10,66,67,11,15,61,58,32,55,18,51,34,9,12,31,63,43,40,49,73,41,7,23,47,68,37,16,74,33,46,21,1,69,79,54,35,76,72,44,8,65,52,30,22,45,78,17,13,50",,,,,,,,,,
land,115,518171,0.0-31.0-2.0,,null,run_exp/static/images/task_images/land.jpg,null,,,,,,95,,,8,,,,,,,,,,,,,,
dig,116,520176,0.0-31.0-3.0,,,,,,,,,,,"[{""stimulus"":""run_exp/static/images/task_images/dig.jpg"",""time"":0.44499999785330147},{""stimulus"":""run_exp/static/images/task_images/land.jpg"",""time"":668.6449999979232},{""stimulus"":""run_exp/static/images/task_images/dig.jpg"",""time"":1336.0200000024633}]",[],8,,,,,,,,,,,,,,
harvest,117,521178,0.0-31.0-4.0,,null,run_exp/static/images/task_images/gems/95.jpg,null,,,,,,72,,,8,,,,,95,0.758329351,0.757894737,,,,,,,
decision,118,521556,0.0-31.0-5.0,,374.495,run_exp/static/images/task_images/land.jpg,76,,,,,,72,,,8,,,,,,,,142527,1,0,TRUE,,,
travel,119,531183,0.0-32.0-0.0,,,,,,,,,,,"[{""stimulus"":""run_exp/static/images/task_images/rocket-01.jpg"",""time"":0.3150000120513141},{""stimulus"":""run_exp/static/images/task_images/rocket-02.jpg"",""time"":1070.8450000092853},{""stimulus"":""run_exp/static/images/task_images/rocket-03.jpg"",""time"":2139.4600000057835},{""stimulus"":""run_exp/static/images/task_images/rocket-04.jpg"",""time"":3208.7200000096345},{""stimulus"":""run_exp/static/images/task_images/rocket-05.jpg"",""time"":4277.1950000023935},{""stimulus"":""run_exp/static/images/task_images/rocket-06.jpg"",""time"":5346.755000005942},{""stimulus"":""run_exp/static/images/task_images/rocket-07.jpg"",""time"":6415.865000002668},{""stimulus"":""run_exp/static/images/task_images/rocket-08.jpg"",""time"":7484.75000000326},{""stimulus"":""run_exp/static/images/task_images/rocket-09.jpg"",""time"":8553.810000012163}]",[],8,,,,,,,,,,,,,,
alien_welcome,120,536186,0.0-32.0-1.0,,null,run_exp/static/images/task_images/aliens/old_aliens/planet/alien_planet-55.jpg,null,,,,,,,,,,,,55,"10,66,67,11,15,61,58,32,55,18,51,34,9,12,31,63,43,40,49,73,41,7,23,47,68,37,16,74,33,46,21,1,69,79,54,35,76,72,44,8,65,52,30,22,45,78,17,13,50",,,,,,,,,,
land,121,536689,0.0-32.0-2.0,,null,run_exp/static/images/task_images/land.jpg,null,,,,,,90,,,9,,,,,,,,,,,,,,
dig,122,538693,0.0-32.0-3.0,,,,,,,,,,,"[{""stimulus"":""run_exp/static/images/task_images/dig.jpg"",""time"":0.4250000056345016},{""stimulus"":""run_exp/static/images/task_images/land.jpg"",""time"":668.8800000119954},{""stimulus"":""run_exp/static/images/task_images/dig.jpg"",""time"":1336.0000000102445}]",[],9,,,,,,,,,,,,,,
harvest,123,539695,0.0-32.0-4.0,,null,run_exp/static/images/task_images/gems/90.jpg,null,,,,,,13,,,9,,,,,90,0.149012698,0.144444444,,,,,,,
decision,124,539709,0.0-32.0-5.0,,10.46,run_exp/static/images/task_images/land.jpg,76,,,,,,13,,,9,,,,,,,,160680,1,0,TRUE,,,
travel,125,549694,0.0-33.0-0.0,,,,,,,,,,,"[{""stimulus"":""run_exp/static/images/task_images/rocket-01.jpg"",""time"":0.1500000071246177},{""stimulus"":""run_exp/static/images/task_images/rocket-02.jpg"",""time"":1109.7149999986868},{""stimulus"":""run_exp/static/images/task_images/rocket-03.jpg"",""time"":2219.410000005155},{""stimulus"":""run_exp/static/images/task_images/rocket-04.jpg"",""time"":3328.495000008843},{""stimulus"":""run_exp/static/images/task_images/rocket-05.jpg"",""time"":4437.245000008261},{""stimulus"":""run_exp/static/images/task_images/rocket-06.jpg"",""time"":5546.065000002272},{""stimulus"":""run_exp/static/images/task_images/rocket-07.jpg"",""time"":6654.9099999974715},{""stimulus"":""run_exp/static/images/task_images/rocket-08.jpg"",""time"":7764.360000001034},{""stimulus"":""run_exp/static/images/task_images/rocket-09.jpg"",""time"":8873.254999998608}]",[],9,,,,,,,,,,,,,,
alien_welcome,126,554697,0.0-33.0-1.0,,null,run_exp/static/images/task_images/aliens/old_aliens/planet/alien_planet-18.jpg,null,,,,,,,,,,,,18,"10,66,67,11,15,61,58,32,55,18,51,34,9,12,31,63,43,40,49,73,41,7,23,47,68,37,16,74,33,46,21,1,69,79,54,35,76,72,44,8,65,52,30,22,45,78,17,13,50",,,,,,,,,,
land,127,555199,0.0-33.0-2.0,,null,run_exp/static/images/task_images/land.jpg,null,,,,,,90,,,10,,,,,,,,,,,,,,
dig,128,557204,0.0-33.0-3.0,,,,,,,,,,,"[{""stimulus"":""run_exp/static/images/task_images/dig.jpg"",""time"":0.5499999970197678},{""stimulus"":""run_exp/static/images/task_images/land.jpg"",""time"":668.5699999943608},{""stimulus"":""run_exp/static/images/task_images/dig.jpg"",""time"":1335.9849999978906}]",[],10,,,,,,,,,,,,,,
harvest,129,558206,0.0-33.0-4.0,,null,run_exp/static/images/task_images/gems/90.jpg,null,,,,,,17,,,10,,,,,90,0.19081571,0.188888889,,,,,,,
decision,130,558998,0.0-33.0-5.0,,788.235,run_exp/static/images/task_images/land.jpg,65,,,,,,17,,,10,,,,,,,,179969,1,0,FALSE,,,
dig,131,561219,0.0-34.0-0.0,,,,,,,,,,,"[{""stimulus"":""run_exp/static/images/task_images/dig.jpg"",""time"":0.40499999886378646},{""stimulus"":""run_exp/static/images/task_images/land.jpg"",""time"":739.0650000015739},{""stimulus"":""run_exp/static/images/task_images/dig.jpg"",""time"":1476.0349999996834}]",[],10,,,,,,,,,,,,,,
harvest,132,562221,0.0-34.0-1.0,,null,run_exp/static/images/task_images/gems/17.jpg,null,,,,,,4,,,10,,,,,17,0.218581449,0.235294118,,,,,,,
decision,133,563474,0.0-34.0-2.0,,1249.425,run_exp/static/images/task_images/land.jpg,65,,,,,,4,,,10,,,,,,,,184445,1,1,FALSE,,,
dig,134,565232,0.0-35.0-0.0,,,,,,,,,,,"[{""stimulus"":""run_exp/static/images/task_images/dig.jpg"",""time"":0.44499999785330147},{""stimulus"":""run_exp/static/images/task_images/land.jpg"",""time"":584.949999989476},{""stimulus"":""run_exp/static/images/task_images/dig.jpg"",""time"":1167.894999991404}]",[],10,,,,,,,,,,,,,,
harvest,135,566234,0.0-35.0-1.0,,null,run_exp/static/images/task_images/gems/4.jpg,null,,,,,,1,,,10,,,,,4,0.196270821,0.25,,,,,,,
decision,136,567922,0.0-35.0-2.0,,1684.125,run_exp/static/images/task_images/land.jpg,76,,,,,,1,,,10,,,,,,,,188893,1,2,TRUE,,,
travel,137,576234,0.0-36.0-0.0,,,,,,,,,,,"[{""stimulus"":""run_exp/static/images/task_images/rocket-01.jpg"",""time"":0.15999999595806003},{""stimulus"":""run_exp/static/images/task_images/rocket-02.jpg"",""time"":924.0649999992456},{""stimulus"":""run_exp/static/images/task_images/rocket-03.jpg"",""time"":1847.4849999911385},{""stimulus"":""run_exp/static/images/task_images/rocket-04.jpg"",""time"":2770.4999999987194},{""stimulus"":""run_exp/static/images/task_images/rocket-05.jpg"",""time"":3693.2700000033947},{""stimulus"":""run_exp/static/images/task_images/rocket-06.jpg"",""time"":4616.374999997788},{""stimulus"":""run_exp/static/images/task_images/rocket-07.jpg"",""time"":5539.309999992838},{""stimulus"":""run_exp/static/images/task_images/rocket-08.jpg"",""time"":6462.429999999586},{""stimulus"":""run_exp/static/images/task_images/rocket-09.jpg"",""time"":7385.425000000396}]",[],10,,,,,,,,,,,,,,
alien_welcome,138,581237,0.0-36.0-1.0,,null,run_exp/static/images/task_images/aliens/old_aliens/planet/alien_planet-51.jpg,null,,,,,,,,,,,,51,"10,66,67,11,15,61,58,32,55,18,51,34,9,12,31,63,43,40,49,73,41,7,23,47,68,37,16,74,33,46,21,1,69,79,54,35,76,72,44,8,65,52,30,22,45,78,17,13,50",,,,,,,,,,
land,139,581740,0.0-36.0-2.0,,null,run_exp/static/images/task_images/land.jpg,null,,,,,,101,,,11,,,,,,,,,,,,,,
dig,140,583745,0.0-36.0-3.0,,,,,,,,,,,"[{""stimulus"":""run_exp/static/images/task_images/dig.jpg"",""time"":0.4000000044470653},{""stimulus"":""run_exp/static/images/task_images/land.jpg"",""time"":668.53500000434},{""stimulus"":""run_exp/static/images/task_images/dig.jpg"",""time"":1336.074999999255}]",[],11,,,,,,,,,,,,,,
harvest,141,584747,0.0-36.0-4.0,,null,run_exp/static/images/task_images/gems/101.jpg,null,,,,,,17,,,11,,,,,101,0.164165736,0.168316832,,,,,,,
decision,142,585429,0.0-36.0-5.0,,678.795,run_exp/static/images/task_images/land.jpg,65,,,,,,17,,,11,,,,,,,,206400,1,0,FALSE,,,
dig,143,587754,0.0-37.0-0.0,,,,,,,,,,,"[{""stimulus"":""run_exp/static/images/task_images/dig.jpg"",""time"":0.1500000071246177},{""stimulus"":""run_exp/static/images/task_images/land.jpg"",""time"":774.5500000019092},{""stimulus"":""run_exp/static/images/task_images/dig.jpg"",""time"":1547.3850000125822}]",[],11,,,,,,,,,,,,,,
harvest,144,588757,0.0-37.0-1.0,,null,run_exp/static/images/task_images/gems/17.jpg,null,,,,,,4,,,11,,,,,17,0.221986348,0.235294118,,,,,,,
decision,145,590000,0.0-37.0-2.0,,1239.1,run_exp/static/images/task_images/land.jpg,65,,,,,,4,,,11,,,,,,,,210971,1,1,FALSE,,,
dig,146,591766,0.0-38.0-0.0,,,,,,,,,,,"[{""stimulus"":""run_exp/static/images/task_images/dig.jpg"",""time"":0.1449999981559813},{""stimulus"":""run_exp/static/images/task_images/land.jpg"",""time"":587.2650000092108},{""stimulus"":""run_exp/static/images/task_images/dig.jpg"",""time"":1173.2449999981327}]",[],11,,,,,,,,,,,,,,
harvest,147,592769,0.0-38.0-1.0,,null,run_exp/static/images/task_images/gems/4.jpg,null,,,,,,0,,,11,,,,,4,0.103261734,0,,,,,,,
decision,148,593752,0.0-38.0-2.0,,980.575,run_exp/static/images/task_images/land.jpg,76,,,,,,0,,,11,,,,,,,,214723,1,2,TRUE,,,
travel,149,602779,0.0-39.0-0.0,,,,,,,,,,,"[{""stimulus"":""run_exp/static/images/task_images/rocket-01.jpg"",""time"":0.3949999954784289},{""stimulus"":""run_exp/static/images/task_images/rocket-02.jpg"",""time"":1003.6499999987427},{""stimulus"":""run_exp/static/images/task_images/rocket-03.jpg"",""time"":2006.0749999975087},{""stimulus"":""run_exp/static/images/task_images/rocket-04.jpg"",""time"":3007.9249999980675},{""stimulus"":""run_exp/static/images/task_images/rocket-05.jpg"",""time"":4009.909999993397},{""stimulus"":""run_exp/static/images/task_images/rocket-06.jpg"",""time"":5011.895000003278},{""stimulus"":""run_exp/static/images/task_images/rocket-07.jpg"",""time"":6013.974999994389},{""stimulus"":""run_exp/static/images/task_images/rocket-08.jpg"",""time"":7015.935000003083},{""stimulus"":""run_exp/static/images/task_images/rocket-09.jpg"",""time"":8017.7200000034645}]",[],11,,,,,,,,,,,,,,
alien_welcome,150,607781,0.0-39.0-1.0,,null,run_exp/static/images/task_images/aliens/old_aliens/planet/alien_planet-34.jpg,null,,,,,,,,,,,,34,"10,66,67,11,15,61,58,32,55,18,51,34,9,12,31,63,43,40,49,73,41,7,23,47,68,37,16,74,33,46,21,1,69,79,54,35,76,72,44,8,65,52,30,22,45,78,17,13,50",,,,,,,,,,
land,151,608284,0.0-39.0-2.0,,null,run_exp/static/images/task_images/land.jpg,null,,,,,,104,,,12,,,,,,,,,,,,,,
dig,152,610288,0.0-39.0-3.0,,,,,,,,,,,"[{""stimulus"":""run_exp/static/images/task_images/dig.jpg"",""time"":0.40499999886378646},{""stimulus"":""run_exp/static/images/task_images/land.jpg"",""time"":668.7999999994645},{""stimulus"":""run_exp/static/images/task_images/dig.jpg"",""time"":1336.1900000018068}]",[],12,,,,,,,,,,,,,,
harvest,153,611290,0.0-39.0-4.0,,null,run_exp/static/images/task_images/gems/104.jpg,null,,,,,,27,,,12,,,,,104,0.256313418,0.259615385,,,,,,,
decision,154,611659,0.0-39.0-5.0,,367.2,run_exp/static/images/task_images/land.jpg,65,,,,,,27,,,12,,,,,,,,232630,1,0,FALSE,,,
dig,155,614296,0.0-40.0-0.0,,,,,,,,,,,"[{""stimulus"":""run_exp/static/images/task_images/dig.jpg"",""time"":0.13000000035390258},{""stimulus"":""run_exp/static/images/task_images/land.jpg"",""time"":878.4949999972014},{""stimulus"":""run_exp/static/images/task_images/dig.jpg"",""time"":1755.3849999967497}]",[],12,,,,,,,,,,,,,,
harvest,156,615298,0.0-40.0-1.0,,null,run_exp/static/images/task_images/gems/27.jpg,null,,,,,,5,,,12,,,,,27,0.182043115,0.185185185,,,,,,,
decision,157,615360,0.0-40.0-2.0,,58.515,run_exp/static/images/task_images/land.jpg,65,,,,,,5,,,12,,,,,,,,236331,1,1,FALSE,,,
dig,158,618308,0.0-41.0-0.0,,,,,,,,,,,"[{""stimulus"":""run_exp/static/images/task_images/dig.jpg"",""time"":0.33999999868683517},{""stimulus"":""run_exp/static/images/task_images/land.jpg"",""time"":981.7049999983283},{""stimulus"":""run_exp/static/images/task_images/dig.jpg"",""time"":1961.779999997816}]",[],12,,,,,,,,,,,,,,
harvest,159,619311,0.0-41.0-1.0,,null,run_exp/static/images/task_images/gems/5.jpg,null,,,,,,1,,,12,,,,,5,0.161261576,0.2,,,,,,,
decision,160,620498,0.0-41.0-2.0,,1181.98,run_exp/static/images/task_images/land.jpg,65,,,,,,1,,,12,,,,,,,,241469,1,2,FALSE,,,
dig,161,622322,0.0-42.0-0.0,,,,,,,,,,,"[{""stimulus"":""run_exp/static/images/task_images/dig.jpg"",""time"":0.13499999477062374},{""stimulus"":""run_exp/static/images/task_images/land.jpg"",""time"":607.415000005858},{""stimulus"":""run_exp/static/images/task_images/dig.jpg"",""time"":1213.30499999749}]",[],12,,,,,,,,,,,,,,
harvest,162,623324,0.0-42.0-1.0,,null,run_exp/static/images/task_images/gems/1.jpg,null,,,,,,0,,,12,,,,,1,0.23216784,0,,,,,,,
decision,163,624197,0.0-42.0-2.0,,869.32,run_exp/static/images/task_images/land.jpg,76,,,,,,0,,,12,,,,,,,,245169,1,3,TRUE,,,
travel,164,633330,0.0-43.0-0.0,,,,,,,,,,,"[{""stimulus"":""run_exp/static/images/task_images/rocket-01.jpg"",""time"":0.16500000492669642},{""stimulus"":""run_exp/static/images/task_images/rocket-02.jpg"",""time"":1015.5700000032084},{""stimulus"":""run_exp/static/images/task_images/rocket-03.jpg"",""time"":2029.4850000063889},{""stimulus"":""run_exp/static/images/task_images/rocket-04.jpg"",""time"":3043.4150000073714},{""stimulus"":""run_exp/static/images/task_images/rocket-05.jpg"",""time"":4057.5100000132807},{""stimulus"":""run_exp/static/images/task_images/rocket-06.jpg"",""time"":5071.555000002263},{""stimulus"":""run_exp/static/images/task_images/rocket-07.jpg"",""time"":6085.280000013881},{""stimulus"":""run_exp/static/images/task_images/rocket-08.jpg"",""time"":7098.865000007208},{""stimulus"":""run_exp/static/images/task_images/rocket-09.jpg"",""time"":8113.3850000042}]",[],12,,,,,,,,,,,,,,
alien_welcome,165,638332,0.0-43.0-1.0,,null,run_exp/static/images/task_images/aliens/old_aliens/planet/alien_planet-9.jpg,null,,,,,,,,,,,,9,"10,66,67,11,15,61,58,32,55,18,51,34,9,12,31,63,43,40,49,73,41,7,23,47,68,37,16,74,33,46,21,1,69,79,54,35,76,72,44,8,65,52,30,22,45,78,17,13,50",,,,,,,,,,
land,166,638834,0.0-43.0-2.0,,null,run_exp/static/images/task_images/land.jpg,null,,,,,,107,,,13,,,,,,,,,,,,,,
dig,167,640837,0.0-43.0-3.0,,,,,,,,,,,"[{""stimulus"":""run_exp/static/images/task_images/dig.jpg"",""time"":0.16500000492669642},{""stimulus"":""run_exp/static/images/task_images/land.jpg"",""time"":668.4950000053504},{""stimulus"":""run_exp/static/images/task_images/dig.jpg"",""time"":1335.5650000012247}]",[],13,,,,,,,,,,,,,,
harvest,168,641840,0.0-43.0-4.0,,null,run_exp/static/images/task_images/gems/107.jpg,null,,,,,,21,,,13,,,,,107,0.192470003,0.196261682,,,,,,,
decision,169,643422,0.0-43.0-5.0,,1578.62,run_exp/static/images/task_images/land.jpg,65,,,,,,21,,,13,,,,,,,,264393,1,0,FALSE,,,
dig,170,644847,0.0-44.0-0.0,,,,,,,,,,,"[{""stimulus"":""run_exp/static/images/task_images/dig.jpg"",""time"":0.15500000154133886},{""stimulus"":""run_exp/static/images/task_images/land.jpg"",""time"":474.27999999490567},{""stimulus"":""run_exp/static/images/task_images/dig.jpg"",""time"":947.424999991199}]",[],13,,,,,,,,,,,,,,
harvest,171,645849,0.0-44.0-1.0,,null,run_exp/static/images/task_images/gems/21.jpg,null,,,,,,6,,,13,,,,,21,0.274211745,0.285714286,,,,,,,
decision,172,647709,0.0-44.0-2.0,,1858.745,run_exp/static/images/task_images/land.jpg,65,,,,,,6,,,13,,,,,,,,268680,1,1,FALSE,,,
dig,173,648858,0.0-45.0-0.0,,,,,,,,,,,"[{""stimulus"":""run_exp/static/images/task_images/dig.jpg"",""time"":0.43000000005122274},{""stimulus"":""run_exp/static/images/task_images/land.jpg"",""time"":382.11500000033993},{""stimulus"":""run_exp/static/images/task_images/dig.jpg"",""time"":761.979999995674}]",[],13,,,,,,,,,,,,,,
harvest,174,649861,0.0-45.0-1.0,,null,run_exp/static/images/task_images/gems/6.jpg,null,,,,,,2,,,13,,,,,6,0.263789916,0.333333333,,,,,,,
decision,175,651128,0.0-45.0-2.0,,1263.375,run_exp/static/images/task_images/land.jpg,76,,,,,,2,,,13,,,,,,,,272099,1,2,TRUE,,,
travel,176,659864,0.0-46.0-0.0,,,,,,,,,,,"[{""stimulus"":""run_exp/static/images/task_images/rocket-01.jpg"",""time"":0.13000000035390258},{""stimulus"":""run_exp/static/images/task_images/rocket-02.jpg"",""time"":971.5300000098068},{""stimulus"":""run_exp/static/images/task_images/rocket-03.jpg"",""time"":1941.3950000016484},{""stimulus"":""run_exp/static/images/task_images/rocket-04.jpg"",""time"":2911.449999999604},{""stimulus"":""run_exp/static/images/task_images/rocket-05.jpg"",""time"":3881.4600000041537},{""stimulus"":""run_exp/static/images/task_images/rocket-06.jpg"",""time"":4851.215000002412},{""stimulus"":""run_exp/static/images/task_images/rocket-07.jpg"",""time"":5821.295000001555},{""stimulus"":""run_exp/static/images/task_images/rocket-08.jpg"",""time"":6791.305000006105},{""stimulus"":""run_exp/static/images/task_images/rocket-09.jpg"",""time"":7761.270000002696}]",[],13,,,,,,,,,,,,,,
alien_welcome,177,664867,0.0-46.0-1.0,,null,run_exp/static/images/task_images/aliens/old_aliens/planet/alien_planet-12.jpg,null,,,,,,,,,,,,12,"10,66,67,11,15,61,58,32,55,18,51,34,9,12,31,63,43,40,49,73,41,7,23,47,68,37,16,74,33,46,21,1,69,79,54,35,76,72,44,8,65,52,30,22,45,78,17,13,50",,,,,,,,,,
land,178,665370,0.0-46.0-2.0,,null,run_exp/static/images/task_images/land.jpg,null,,,,,,94,,,14,,,,,,,,,,,,,,
dig,179,667374,0.0-46.0-3.0,,,,,,,,,,,"[{""stimulus"":""run_exp/static/images/task_images/dig.jpg"",""time"":0.4149999876972288},{""stimulus"":""run_exp/static/images/task_images/land.jpg"",""time"":668.9249999908498},{""stimulus"":""run_exp/static/images/task_images/dig.jpg"",""time"":1335.9549999877345}]",[],14,,,,,,,,,,,,,,
harvest,180,668377,0.0-46.0-4.0,,null,run_exp/static/images/task_images/gems/94.jpg,null,,,,,,77,,,14,,,,,94,0.818689862,0.819148936,,,,,,,
decision,181,668565,0.0-46.0-5.0,,184.635,run_exp/static/images/task_images/land.jpg,65,,,,,,77,,,14,,,,,,,,289536,1,0,FALSE,,,
dig,182,671392,0.0-47.0-0.0,,,,,,,,,,,"[{""stimulus"":""run_exp/static/images/task_images/dig.jpg"",""time"":0.20000000949949026},{""stimulus"":""run_exp/static/images/task_images/land.jpg"",""time"":939.555000004475},{""stimulus"":""run_exp/static/images/task_images/dig.jpg"",""time"":1877.5100000057137}]",[],14,,,,,,,,,,,,,,
harvest,183,672395,0.0-47.0-1.0,,null,run_exp/static/images/task_images/gems/77.jpg,null,,,,,,65,,,14,,,,,77,0.842638938,0.844155844,,,,,,,
decision,184,673826,0.0-47.0-2.0,,1427.485,run_exp/static/images/task_images/land.jpg,65,,,,,,65,,,14,,,,,,,,294797,1,1,FALSE,,,
dig,185,675403,0.0-48.0-0.0,,,,,,,,,,,"[{""stimulus"":""run_exp/static/images/task_images/dig.jpg"",""time"":0.1250000059371814},{""stimulus"":""run_exp/static/images/task_images/land.jpg"",""time"":525.4100000020117},{""stimulus"":""run_exp/static/images/task_images/dig.jpg"",""time"":1049.2750000121305}]",[],14,,,,,,,,,,,,,,
harvest,186,676406,0.0-48.0-1.0,,null,run_exp/static/images/task_images/gems/65.jpg,null,,,,,,53,,,14,,,,,65,0.81799362,0.815384615,,,,,,,
decision,187,676519,0.0-48.0-2.0,,109.82,run_exp/static/images/task_images/land.jpg,65,,,,,,53,,,14,,,,,,,,297490,1,2,FALSE,,,
dig,188,679414,0.0-49.0-0.0,,,,,,,,,,,"[{""stimulus"":""run_exp/static/images/task_images/dig.jpg"",""time"":0.29999999969732016},{""stimulus"":""run_exp/static/images/task_images/land.jpg"",""time"":964.5250000030501},{""stimulus"":""run_exp/static/images/task_images/dig.jpg"",""time"":1927.6050000044052}]",[],14,,,,,,,,,,,,,,
harvest,189,680417,0.0-49.0-1.0,,null,run_exp/static/images/task_images/gems/53.jpg,null,,,,,,42,,,14,,,,,53,0.784241848,0.79245283,,,,,,,
decision,190,682012,0.0-49.0-2.0,,1591.965,run_exp/static/images/task_images/land.jpg,76,,,,,,42,,,14,,,,,,,,302983,1,3,TRUE,,,
end_of_block_continue,191,691028,0.0-50.0-0.0,,null,run_exp/static/audio/clip_32_block_end.m4a,,,,,,null,,,,,,,,,,,,,,,,,,
alien_welcome,192,696036,0.0-51.0-0.0,,null,run_exp/static/images/task_images/aliens/old_aliens/planet/alien_planet-31.jpg,null,,,,,,,,,,,,31,"10,66,67,11,15,61,58,32,55,18,51,34,9,12,31,63,43,40,49,73,41,7,23,47,68,37,16,74,33,46,21,1,69,79,54,35,76,72,44,8,65,52,30,22,45,78,17,13,50",,,,,,,,,,
land,193,696539,0.0-51.0-1.0,,null,run_exp/static/images/task_images/land.jpg,null,,,,,,104,,,15,,,,,,,,,,,,,,
dig,194,698544,0.0-51.0-2.0,,,,,,,,,,,"[{""stimulus"":""run_exp/static/images/task_images/dig.jpg"",""time"":0.44499999785330147},{""stimulus"":""run_exp/static/images/task_images/land.jpg"",""time"":669.0450000023702},{""stimulus"":""run_exp/static/images/task_images/dig.jpg"",""time"":1335.6150000035996}]",[],15,,,,,,,,,,,,,,
harvest,195,699546,0.0-51.0-3.0,,null,run_exp/static/images/task_images/gems/104.jpg,null,,,,,,21,,,15,,,,,104,0.20192669,0.201923077,,,,,,,
decision,196,699576,0.0-51.0-4.0,,26.31,run_exp/static/images/task_images/land.jpg,65,,,,,,21,,,15,,,,,,,,8542,2,0,FALSE,,,
dig,197,702554,0.0-52.0-0.0,,,,,,,,,,,"[{""stimulus"":""run_exp/static/images/task_images/dig.jpg"",""time"":0.11500000255182385},{""stimulus"":""run_exp/static/images/task_images/land.jpg"",""time"":992.4100000062026},{""stimulus"":""run_exp/static/images/task_images/dig.jpg"",""time"":1983.2850000093458}]",[],15,,,,,,,,,,,,,,
harvest,198,703557,0.0-52.0-1.0,,null,run_exp/static/images/task_images/gems/21.jpg,null,,,,,,4,,,15,,,,,21,0.196024736,0.19047619,,,,,,,
decision,199,703753,0.0-52.0-2.0,,192.01,run_exp/static/images/task_images/land.jpg,76,,,,,,4,,,15,,,,,,,,12719,2,1,TRUE,,,
travel,200,713563,0.0-53.0-0.0,,,,,,,,,,,"[{""stimulus"":""run_exp/static/images/task_images/rocket-01.jpg"",""time"":0.43000000005122274},{""stimulus"":""run_exp/static/images/task_images/rocket-02.jpg"",""time"":1090.8249999920372},{""stimulus"":""run_exp/static/images/task_images/rocket-03.jpg"",""time"":2179.7549999901094},{""stimulus"":""run_exp/static/images/task_images/rocket-04.jpg"",""time"":3268.8300000008894},{""stimulus"":""run_exp/static/images/task_images/rocket-05.jpg"",""time"":4357.684999995399},{""stimulus"":""run_exp/static/images/task_images/rocket-06.jpg"",""time"":5446.960000001127},{""stimulus"":""run_exp/static/images/task_images/rocket-07.jpg"",""time"":6536.019999999553},{""stimulus"":""run_exp/static/images/task_images/rocket-08.jpg"",""time"":7624.814999988303},{""stimulus"":""run_exp/static/images/task_images/rocket-09.jpg"",""time"":8713.464999993448}]",[],15,,,,,,,,,,,,,,
alien_welcome,201,718566,0.0-53.0-1.0,,null,run_exp/static/images/task_images/aliens/old_aliens/planet/alien_planet-63.jpg,null,,,,,,,,,,,,63,"10,66,67,11,15,61,58,32,55,18,51,34,9,12,31,63,43,40,49,73,41,7,23,47,68,37,16,74,33,46,21,1,69,79,54,35,76,72,44,8,65,52,30,22,45,78,17,13,50",,,,,,,,,,
land,202,719069,0.0-53.0-2.0,,null,run_exp/static/images/task_images/land.jpg,null,,,,,,98,,,16,,,,,,,,,,,,,,
dig,203,721073,0.0-53.0-3.0,,,,,,,,,,,"[{""stimulus"":""run_exp/static/images/task_images/dig.jpg"",""time"":0.4250000056345016},{""stimulus"":""run_exp/static/images/task_images/land.jpg"",""time"":668.8350000040373},{""stimulus"":""run_exp/static/images/task_images/dig.jpg"",""time"":1335.9900000068592}]",[],16,,,,,,,,,,,,,,
harvest,204,722076,0.0-53.0-4.0,,null,run_exp/static/images/task_images/gems/98.jpg,null,,,,,,38,,,16,,,,,98,0.383288188,0.387755102,,,,,,,
decision,205,723598,0.0-53.0-5.0,,1518.865,run_exp/static/images/task_images/land.jpg,65,,,,,,38,,,16,,,,,,,,32564,2,0,FALSE,,,
dig,206,725083,0.0-54.0-0.0,,,,,,,,,,,"[{""stimulus"":""run_exp/static/images/task_images/dig.jpg"",""time"":0.13499999477062374},{""stimulus"":""run_exp/static/images/task_images/land.jpg"",""time"":494.35999999695923},{""stimulus"":""run_exp/static/images/task_images/dig.jpg"",""time"":987.3850000003586}]",[],16,,,,,,,,,,,,,,
harvest,207,726086,0.0-54.0-1.0,,null,run_exp/static/images/task_images/gems/38.jpg,null,,,,,,7,,,16,,,,,38,0.193804454,0.184210526,,,,,,,
decision,208,726102,0.0-54.0-2.0,,13.24499999,run_exp/static/images/task_images/land.jpg,76,,,,,,7,,,16,,,,,,,,35069,2,1,TRUE,,,
travel,209,736089,0.0-55.0-0.0,,,,,,,,,,,"[{""stimulus"":""run_exp/static/images/task_images/rocket-01.jpg"",""time"":0.14999999257270247},{""stimulus"":""run_exp/static/images/task_images/rocket-02.jpg"",""time"":1110.3049999946961},{""stimulus"":""run_exp/static/images/task_images/rocket-03.jpg"",""time"":2219.4449999951757},{""stimulus"":""run_exp/static/images/task_images/rocket-04.jpg"",""time"":3328.385000000708},{""stimulus"":""run_exp/static/images/task_images/rocket-05.jpg"",""time"":4437.404999989667},{""stimulus"":""run_exp/static/images/task_images/rocket-06.jpg"",""time"":5546.314999999595},{""stimulus"":""run_exp/static/images/task_images/rocket-07.jpg"",""time"":6655.480000001262},{""stimulus"":""run_exp/static/images/task_images/rocket-08.jpg"",""time"":7764.434999990044},{""stimulus"":""run_exp/static/images/task_images/rocket-09.jpg"",""time"":8873.334999996587}]",[],16,,,,,,,,,,,,,,
alien_welcome,210,741092,0.0-55.0-1.0,,null,run_exp/static/images/task_images/aliens/old_aliens/planet/alien_planet-43.jpg,null,,,,,,,,,,,,43,"10,66,67,11,15,61,58,32,55,18,51,34,9,12,31,63,43,40,49,73,41,7,23,47,68,37,16,74,33,46,21,1,69,79,54,35,76,72,44,8,65,52,30,22,45,78,17,13,50",,,,,,,,,,
land,211,741595,0.0-55.0-2.0,,null,run_exp/static/images/task_images/land.jpg,null,,,,,,94,,,17,,,,,,,,,,,,,,
dig,212,743600,0.0-55.0-3.0,,,,,,,,,,,"[{""stimulus"":""run_exp/static/images/task_images/dig.jpg"",""time"":0.40499999886378646},{""stimulus"":""run_exp/static/images/task_images/land.jpg"",""time"":668.5599999909755},{""stimulus"":""run_exp/static/images/task_images/dig.jpg"",""time"":1335.9550000022864}]",[],17,,,,,,,,,,,,,,
harvest,213,744602,0.0-55.0-4.0,,null,run_exp/static/images/task_images/gems/94.jpg,null,,,,,,15,,,17,,,,,94,0.154966363,0.159574468,,,,,,,
decision,214,747526,0.0-55.0-5.0,,2920.74,run_exp/static/images/task_images/land.jpg,65,,,,,,15,,,17,,,,,,,,56492,2,0,FALSE,,,
dig,215,747610,0.0-56.0-0.0,,,,,,,,,,,"[{""stimulus"":""run_exp/static/images/task_images/dig.jpg"",""time"":0.13000000035390258},{""stimulus"":""run_exp/static/images/task_images/land.jpg"",""time"":26.760000007925555},{""stimulus"":""run_exp/static/images/task_images/dig.jpg"",""time"":52.999999999883585}]",[],17,,,,,,,,,,,,,,
harvest,216,748612,0.0-56.0-1.0,,null,run_exp/static/images/task_images/gems/15.jpg,null,,,,,,3,,,17,,,,,15,0.194953861,0.2,,,,,,,
decision,217,748649,0.0-56.0-2.0,,33.40500001,run_exp/static/images/task_images/land.jpg,76,,,,,,3,,,17,,,,,,,,57615,2,1,TRUE,,,
travel,218,758620,0.0-57.0-0.0,,,,,,,,,,,"[{""stimulus"":""run_exp/static/images/task_images/rocket-01.jpg"",""time"":0.39000000106170774},{""stimulus"":""run_exp/static/images/task_images/rocket-02.jpg"",""time"":1108.7399999960326},{""stimulus"":""run_exp/static/images/task_images/rocket-03.jpg"",""time"":2215.4450000089128},{""stimulus"":""run_exp/static/images/task_images/rocket-04.jpg"",""time"":3322.860000000219},{""stimulus"":""run_exp/static/images/task_images/rocket-05.jpg"",""time"":4429.860000003828},{""stimulus"":""run_exp/static/images/task_images/rocket-06.jpg"",""time"":5536.735000001499},{""stimulus"":""run_exp/static/images/task_images/rocket-07.jpg"",""time"":6643.960000001243},{""stimulus"":""run_exp/static/images/task_images/rocket-08.jpg"",""time"":7750.704999998561},{""stimulus"":""run_exp/static/images/task_images/rocket-09.jpg"",""time"":8857.904999997118}]",[],17,,,,,,,,,,,,,,
alien_welcome,219,763623,0.0-57.0-1.0,,null,run_exp/static/images/task_images/aliens/old_aliens/planet/alien_planet-40.jpg,null,,,,,,,,,,,,40,"10,66,67,11,15,61,58,32,55,18,51,34,9,12,31,63,43,40,49,73,41,7,23,47,68,37,16,74,33,46,21,1,69,79,54,35,76,72,44,8,65,52,30,22,45,78,17,13,50",,,,,,,,,,
land,220,764125,0.0-57.0-2.0,,null,run_exp/static/images/task_images/land.jpg,null,,,,,,107,,,18,,,,,,,,,,,,,,
dig,221,766130,0.0-57.0-3.0,,,,,,,,,,,"[{""stimulus"":""run_exp/static/images/task_images/dig.jpg"",""time"":0.4149999876972288},{""stimulus"":""run_exp/static/images/task_images/land.jpg"",""time"":668.9149999874644},{""stimulus"":""run_exp/static/images/task_images/dig.jpg"",""time"":1335.7149999937974}]",[],18,,,,,,,,,,,,,,
harvest,222,767132,0.0-57.0-4.0,,null,run_exp/static/images/task_images/gems/107.jpg,null,,,,,,89,,,18,,,,,107,0.833336133,0.831775701,,,,,,,
decision,223,769134,0.0-57.0-5.0,,1998.665,run_exp/static/images/task_images/land.jpg,65,,,,,,89,,,18,,,,,,,,78100,2,0,FALSE,,,
dig,224,770139,0.0-58.0-0.0,,,,,,,,,,,"[{""stimulus"":""run_exp/static/images/task_images/dig.jpg"",""time"":0.14999999257270247},{""stimulus"":""run_exp/static/images/task_images/land.jpg"",""time"":334.38999998907093},{""stimulus"":""run_exp/static/images/task_images/dig.jpg"",""time"":667.3849999933736}]",[],18,,,,,,,,,,,,,,
harvest,225,771142,0.0-58.0-1.0,,null,run_exp/static/images/task_images/gems/89.jpg,null,,,,,,63,,,18,,,,,89,0.711018499,0.707865169,,,,,,,
decision,226,773978,0.0-58.0-2.0,,2832.365,run_exp/static/images/task_images/land.jpg,65,,,,,,63,,,18,,,,,,,,82944,2,1,FALSE,,,
dig,227,774148,0.0-59.0-0.0,,,,,,,,,,,"[{""stimulus"":""run_exp/static/images/task_images/dig.jpg"",""time"":0.14000000373926014},{""stimulus"":""run_exp/static/images/task_images/land.jpg"",""time"":56.27499999536667},{""stimulus"":""run_exp/static/images/task_images/dig.jpg"",""time"":111.26499999954831}]",[],18,,,,,,,,,,,,,,
harvest,228,775151,0.0-59.0-1.0,,null,run_exp/static/images/task_images/gems/63.jpg,null,,,,,,46,,,18,,,,,63,0.724271388,0.73015873,,,,,,,
decision,229,775975,0.0-59.0-2.0,,821.04,run_exp/static/images/task_images/land.jpg,65,,,,,,46,,,18,,,,,,,,84942,2,2,FALSE,,,
dig,230,778160,0.0-60.0-0.0,,,,,,,,,,,"[{""stimulus"":""run_exp/static/images/task_images/dig.jpg"",""time"":0.14999999257270247},{""stimulus"":""run_exp/static/images/task_images/land.jpg"",""time"":727.3599999898579},{""stimulus"":""run_exp/static/images/task_images/dig.jpg"",""time"":1453.3549999905517}]",[],18,,,,,,,,,,,,,,
harvest,231,779163,0.0-60.0-1.0,,null,run_exp/static/images/task_images/gems/46.jpg,null,,,,,,39,,,18,,,,,46,0.856472147,0.847826087,,,,,,,
decision,232,780493,0.0-60.0-2.0,,1327.005,run_exp/static/images/task_images/land.jpg,76,,,,,,39,,,18,,,,,,,,89459,2,3,TRUE,,,
travel,233,789169,0.0-61.0-0.0,,,,,,,,,,,"[{""stimulus"":""run_exp/static/images/task_images/rocket-01.jpg"",""time"":0.4599999956553802},{""stimulus"":""run_exp/static/images/task_images/rocket-02.jpg"",""time"":964.6700000012061},{""stimulus"":""run_exp/static/images/task_images/rocket-03.jpg"",""time"":1927.914999992936},{""stimulus"":""run_exp/static/images/task_images/rocket-04.jpg"",""time"":2891.0150000010617},{""stimulus"":""run_exp/static/images/task_images/rocket-05.jpg"",""time"":3854.009999995469},{""stimulus"":""run_exp/static/images/task_images/rocket-06.jpg"",""time"":4816.995000001043},{""stimulus"":""run_exp/static/images/task_images/rocket-07.jpg"",""time"":5779.3150000070455},{""stimulus"":""run_exp/static/images/task_images/rocket-08.jpg"",""time"":6742.964999997639},{""stimulus"":""run_exp/static/images/task_images/rocket-09.jpg"",""time"":7705.91499999864}]",[],18,,,,,,,,,,,,,,
alien_welcome,234,794172,0.0-61.0-1.0,,null,run_exp/static/images/task_images/aliens/old_aliens/planet/alien_planet-49.jpg,null,,,,,,,,,,,,49,"10,66,67,11,15,61,58,32,55,18,51,34,9,12,31,63,43,40,49,73,41,7,23,47,68,37,16,74,33,46,21,1,69,79,54,35,76,72,44,8,65,52,30,22,45,78,17,13,50",,,,,,,,,,
land,235,794675,0.0-61.0-2.0,,null,run_exp/static/images/task_images/land.jpg,null,,,,,,106,,,19,,,,,,,,,,,,,,
dig,236,796680,0.0-61.0-3.0,,,,,,,,,,,"[{""stimulus"":""run_exp/static/images/task_images/dig.jpg"",""time"":0.40499999886378646},{""stimulus"":""run_exp/static/images/task_images/land.jpg"",""time"":668.8500000018394},{""stimulus"":""run_exp/static/images/task_images/dig.jpg"",""time"":1335.6599999970058}]",[],19,,,,,,,,,,,,,,
harvest,237,797682,0.0-61.0-4.0,,null,run_exp/static/images/task_images/gems/106.jpg,null,,,,,,80,,,19,,,,,106,0.751118029,0.754716981,,,,,,,
decision,238,799591,0.0-61.0-5.0,,1905.535,run_exp/static/images/task_images/land.jpg,65,,,,,,80,,,19,,,,,,,,108557,2,0,FALSE,,,
dig,239,800689,0.0-62.0-0.0,,,,,,,,,,,"[{""stimulus"":""run_exp/static/images/task_images/dig.jpg"",""time"":0.13499999477062374},{""stimulus"":""run_exp/static/images/task_images/land.jpg"",""time"":365.3599999961443},{""stimulus"":""run_exp/static/images/task_images/dig.jpg"",""time"":729.4049999909475}]",[],19,,,,,,,,,,,,,,
harvest,240,801691,0.0-62.0-1.0,,null,run_exp/static/images/task_images/gems/80.jpg,null,,,,,,67,,,19,,,,,80,0.836832671,0.8375,,,,,,,
decision,241,804639,0.0-62.0-2.0,,2944.86,run_exp/static/images/task_images/land.jpg,65,,,,,,67,,,19,,,,,,,,113605,2,1,FALSE,,,
dig,242,804699,0.0-63.0-0.0,,,,,,,,,,,"[{""stimulus"":""run_exp/static/images/task_images/dig.jpg"",""time"":0.14000000373926014},{""stimulus"":""run_exp/static/images/task_images/land.jpg"",""time"":18.76500000071246},{""stimulus"":""run_exp/static/images/task_images/dig.jpg"",""time"":36.8049999960931}]",[],19,,,,,,,,,,,,,,
harvest,243,805701,0.0-63.0-1.0,,null,run_exp/static/images/task_images/gems/67.jpg,null,,,,,,53,,,19,,,,,67,0.791489534,0.791044776,,,,,,,
decision,244,808029,0.0-63.0-2.0,,2326.375,run_exp/static/images/task_images/land.jpg,65,,,,,,53,,,19,,,,,,,,116996,2,2,FALSE,,,
dig,245,808708,0.0-64.0-0.0,,,,,,,,,,,"[{""stimulus"":""run_exp/static/images/task_images/dig.jpg"",""time"":0.1500000071246177},{""stimulus"":""run_exp/static/images/task_images/land.jpg"",""time"":225.38500001246575},{""stimulus"":""run_exp/static/images/task_images/dig.jpg"",""time"":449.5100000058301}]",[],19,,,,,,,,,,,,,,
harvest,246,809711,0.0-64.0-1.0,,null,run_exp/static/images/task_images/gems/53.jpg,null,,,,,,46,,,19,,,,,53,0.873145856,0.867924528,,,,,,,
decision,247,810303,0.0-64.0-2.0,,588.76,run_exp/static/images/task_images/land.jpg,65,,,,,,46,,,19,,,,,,,,119270,2,3,FALSE,,,
dig,248,812719,0.0-65.0-0.0,,,,,,,,,,,"[{""stimulus"":""run_exp/static/images/task_images/dig.jpg"",""time"":0.14000000373926014},{""stimulus"":""run_exp/static/images/task_images/land.jpg"",""time"":804.3049999978393},{""stimulus"":""run_exp/static/images/task_images/dig.jpg"",""time"":1607.3750000068685}]",[],19,,,,,,,,,,,,,,
harvest,249,813721,0.0-65.0-1.0,,null,run_exp/static/images/task_images/gems/46.jpg,null,,,,,,38,,,19,,,,,46,0.821353407,0.826086957,,,,,,,
decision,250,815408,0.0-65.0-2.0,,1682.825,run_exp/static/images/task_images/land.jpg,76,,,,,,38,,,19,,,,,,,,124374,2,4,TRUE,,,
travel,251,823732,0.0-66.0-0.0,,,,,,,,,,,"[{""stimulus"":""run_exp/static/images/task_images/rocket-01.jpg"",""time"":0.1849999971454963},{""stimulus"":""run_exp/static/images/task_images/rocket-02.jpg"",""time"":925.0400000018999},{""stimulus"":""run_exp/static/images/task_images/rocket-03.jpg"",""time"":1849.4599999976344},{""stimulus"":""run_exp/static/images/task_images/rocket-04.jpg"",""time"":2773.4999999956926},{""stimulus"":""run_exp/static/images/task_images/rocket-05.jpg"",""time"":3697.4999999947613},{""stimulus"":""run_exp/static/images/task_images/rocket-06.jpg"",""time"":4621.375000002445},{""stimulus"":""run_exp/static/images/task_images/rocket-07.jpg"",""time"":5545.494999998482},{""stimulus"":""run_exp/static/images/task_images/rocket-08.jpg"",""time"":6469.459999992978},{""stimulus"":""run_exp/static/images/task_images/rocket-09.jpg"",""time"":7393.465000001015}]",[],19,,,,,,,,,,,,,,
alien_welcome,252,828734,0.0-66.0-1.0,,null,run_exp/static/images/task_images/aliens/old_aliens/planet/alien_planet-73.jpg,null,,,,,,,,,,,,73,"10,66,67,11,15,61,58,32,55,18,51,34,9,12,31,63,43,40,49,73,41,7,23,47,68,37,16,74,33,46,21,1,69,79,54,35,76,72,44,8,65,52,30,22,45,78,17,13,50",,,,,,,,,,
land,253,829237,0.0-66.0-2.0,,null,run_exp/static/images/task_images/land.jpg,null,,,,,,105,,,20,,,,,,,,,,,,,,
dig,254,831242,0.0-66.0-3.0,,,,,,,,,,,"[{""stimulus"":""run_exp/static/images/task_images/dig.jpg"",""time"":0.4250000056345016},{""stimulus"":""run_exp/static/images/task_images/land.jpg"",""time"":668.8600000052247},{""stimulus"":""run_exp/static/images/task_images/dig.jpg"",""time"":1335.7749999995576}]",[],20,,,,,,,,,,,,,,
harvest,255,832244,0.0-66.0-4.0,,null,run_exp/static/images/task_images/gems/105.jpg,null,,,,,,85,,,20,,,,,105,0.811880204,0.80952381,,,,,,,
decision,256,834354,0.0-66.0-5.0,,2106.57,run_exp/static/images/task_images/land.jpg,65,,,,,,85,,,20,,,,,,,,143320,2,0,FALSE,,,
dig,257,835251,0.0-67.0-0.0,,,,,,,,,,,"[{""stimulus"":""run_exp/static/images/task_images/dig.jpg"",""time"":0.13500000932253897},{""stimulus"":""run_exp/static/images/task_images/land.jpg"",""time"":298.320000001695},{""stimulus"":""run_exp/static/images/task_images/dig.jpg"",""time"":595.2650000108406}]",[],20,,,,,,,,,,,,,,
harvest,258,836254,0.0-67.0-1.0,,null,run_exp/static/images/task_images/gems/85.jpg,null,,,,,,68,,,20,,,,,85,0.800375163,0.8,,,,,,,
decision,259,839259,0.0-67.0-2.0,,null,run_exp/static/images/task_images/land.jpg,null,,,,,,68,,,20,,,,,,,,148225,2,1,FALSE,,,
time_out,260,841265,0.0-68.0-0.0,,null,run_exp/static/images/task_images/time_out.jpg,null,,,,,,68,,,,,,,,,,,,,,,,,
decision,261,842050,0.0-68.0-1.0,,781.645,run_exp/static/images/task_images/land.jpg,65,,,,,,68,,,20,,,,,,,,151017,2,1,FALSE,,,
dig,262,844274,0.0-69.0-0.0,,,,,,,,,,,"[{""stimulus"":""run_exp/static/images/task_images/dig.jpg"",""time"":0.17500000831205398},{""stimulus"":""run_exp/static/images/task_images/land.jpg"",""time"":740.380000002915},{""stimulus"":""run_exp/static/images/task_images/dig.jpg"",""time"":1479.5500000036554}]",[],20,,,,,,,,,,,,,,
harvest,263,845276,0.0-69.0-1.0,,null,run_exp/static/images/task_images/gems/68.jpg,null,,,,,,56,,,20,,,,,68,0.818859558,0.823529412,,,,,,,
decision,264,847189,0.0-69.0-2.0,,1909.61,run_exp/static/images/task_images/land.jpg,65,,,,,,56,,,20,,,,,,,,156156,2,2,FALSE,,,
dig,265,848284,0.0-70.0-0.0,,,,,,,,,,,"[{""stimulus"":""run_exp/static/images/task_images/dig.jpg"",""time"":0.13499999477062374},{""stimulus"":""run_exp/static/images/task_images/land.jpg"",""time"":364.3599999923026},{""stimulus"":""run_exp/static/images/task_images/dig.jpg"",""time"":727.4849999957951}]",[],20,,,,,,,,,,,,,,
harvest,266,849287,0.0-70.0-1.0,,null,run_exp/static/images/task_images/gems/56.jpg,null,,,,,,45,,,20,,,,,56,0.802500387,0.803571429,,,,,,,
decision,267,851128,0.0-70.0-2.0,,1837.81,run_exp/static/images/task_images/land.jpg,76,,,,,,45,,,20,,,,,,,,160094,2,3,TRUE,,,
travel,268,859289,0.0-71.0-0.0,,,,,,,,,,,"[{""stimulus"":""run_exp/static/images/task_images/rocket-01.jpg"",""time"":0.15999999595806003},{""stimulus"":""run_exp/static/images/task_images/rocket-02.jpg"",""time"":907.5000000011642},{""stimulus"":""run_exp/static/images/task_images/rocket-03.jpg"",""time"":1813.399999999092},{""stimulus"":""run_exp/static/images/task_images/rocket-04.jpg"",""time"":2719.2849999992177},{""stimulus"":""run_exp/static/images/task_images/rocket-05.jpg"",""time"":3625.3100000030827},{""stimulus"":""run_exp/static/images/task_images/rocket-06.jpg"",""time"":4531.31000000576},{""stimulus"":""run_exp/static/images/task_images/rocket-07.jpg"",""time"":5437.369999999646},{""stimulus"":""run_exp/static/images/task_images/rocket-08.jpg"",""time"":6343.315000005532},{""stimulus"":""run_exp/static/images/task_images/rocket-09.jpg"",""time"":7249.4299999962095}]",[],20,,,,,,,,,,,,,,
alien_welcome,269,864292,0.0-71.0-1.0,,null,run_exp/static/images/task_images/aliens/old_aliens/planet/alien_planet-41.jpg,null,,,,,,,,,,,,41,"10,66,67,11,15,61,58,32,55,18,51,34,9,12,31,63,43,40,49,73,41,7,23,47,68,37,16,74,33,46,21,1,69,79,54,35,76,72,44,8,65,52,30,22,45,78,17,13,50",,,,,,,,,,
land,270,864795,0.0-71.0-2.0,,null,run_exp/static/images/task_images/land.jpg,null,,,,,,102,,,21,,,,,,,,,,,,,,
dig,271,866800,0.0-71.0-3.0,,,,,,,,,,,"[{""stimulus"":""run_exp/static/images/task_images/dig.jpg"",""time"":0.39999998989515007},{""stimulus"":""run_exp/static/images/task_images/land.jpg"",""time"":668.8649999996414},{""stimulus"":""run_exp/static/images/task_images/dig.jpg"",""time"":1335.9549999877345}]",[],21,,,,,,,,,,,,,,
harvest,272,867802,0.0-71.0-4.0,,null,run_exp/static/images/task_images/gems/102.jpg,null,,,,,,75,,,21,,,,,102,0.739854332,0.735294118,,,,,,,
decision,273,868042,0.0-71.0-5.0,,235.92,run_exp/static/images/task_images/land.jpg,65,,,,,,75,,,21,,,,,,,,177008,2,0,FALSE,,,
dig,274,870809,0.0-72.0-0.0,,,,,,,,,,,"[{""stimulus"":""run_exp/static/images/task_images/dig.jpg"",""time"":0.13000000035390258},{""stimulus"":""run_exp/static/images/task_images/land.jpg"",""time"":922.3349999956554},{""stimulus"":""run_exp/static/images/task_images/dig.jpg"",""time"":1843.3450000011362}]",[],21,,,,,,,,,,,,,,
harvest,275,871812,0.0-72.0-1.0,,null,run_exp/static/images/task_images/gems/75.jpg,null,,,,,,61,,,21,,,,,75,0.809795606,0.813333333,,,,,,,
decision,276,871999,0.0-72.0-2.0,,183.58,run_exp/static/images/task_images/land.jpg,65,,,,,,61,,,21,,,,,,,,180965,2,1,FALSE,,,
dig,277,874822,0.0-73.0-0.0,,,,,,,,,,,"[{""stimulus"":""run_exp/static/images/task_images/dig.jpg"",""time"":0.43000000005122274},{""stimulus"":""run_exp/static/images/task_images/land.jpg"",""time"":939.8999999975786},{""stimulus"":""run_exp/static/images/task_images/dig.jpg"",""time"":1877.9849999991711}]",[],21,,,,,,,,,,,,,,
harvest,278,875825,0.0-73.0-1.0,,null,run_exp/static/images/task_images/gems/61.jpg,null,,,,,,53,,,21,,,,,61,0.869195402,0.868852459,,,,,,,
decision,279,876316,0.0-73.0-2.0,,487.375,run_exp/static/images/task_images/land.jpg,65,,,,,,53,,,21,,,,,,,,185282,2,2,FALSE,,,
dig,280,878830,0.0-74.0-0.0,,,,,,,,,,,"[{""stimulus"":""run_exp/static/images/task_images/dig.jpg"",""time"":0.13000000035390258},{""stimulus"":""run_exp/static/images/task_images/land.jpg"",""time"":838.4300000034273},{""stimulus"":""run_exp/static/images/task_images/dig.jpg"",""time"":1675.440000006347}]",[],21,,,,,,,,,,,,,,
harvest,281,879833,0.0-74.0-1.0,,null,run_exp/static/images/task_images/gems/53.jpg,null,,,,,,44,,,21,,,,,53,0.827102877,0.830188679,,,,,,,
decision,282,880642,0.0-74.0-2.0,,805.2,run_exp/static/images/task_images/land.jpg,76,,,,,,44,,,21,,,,,,,,189608,2,3,TRUE,,,
travel,283,889841,0.0-75.0-0.0,,,,,,,,,,,"[{""stimulus"":""run_exp/static/images/task_images/rocket-01.jpg"",""time"":0.3949999954784289},{""stimulus"":""run_exp/static/images/task_images/rocket-02.jpg"",""time"":1022.7799999993294},{""stimulus"":""run_exp/static/images/task_images/rocket-03.jpg"",""time"":2043.8350000040373},{""stimulus"":""run_exp/static/images/task_images/rocket-04.jpg"",""time"":3064.8249999940163},{""stimulus"":""run_exp/static/images/task_images/rocket-05.jpg"",""time"":4085.8099999895785},{""stimulus"":""run_exp/static/images/task_images/rocket-06.jpg"",""time"":5106.794999999693},{""stimulus"":""run_exp/static/images/task_images/rocket-07.jpg"",""time"":6127.854999998817},{""stimulus"":""run_exp/static/images/task_images/rocket-08.jpg"",""time"":7148.849999997765},{""stimulus"":""run_exp/static/images/task_images/rocket-09.jpg"",""time"":8169.804999997723}]",[],21,,,,,,,,,,,,,,
alien_welcome,284,894844,0.0-75.0-1.0,,null,run_exp/static/images/task_images/aliens/old_aliens/planet/alien_planet-7.jpg,null,,,,,,,,,,,,7,"10,66,67,11,15,61,58,32,55,18,51,34,9,12,31,63,43,40,49,73,41,7,23,47,68,37,16,74,33,46,21,1,69,79,54,35,76,72,44,8,65,52,30,22,45,78,17,13,50",,,,,,,,,,
land,285,895346,0.0-75.0-2.0,,null,run_exp/static/images/task_images/land.jpg,null,,,,,,106,,,22,,,,,,,,,,,,,,
dig,286,897352,0.0-75.0-3.0,,,,,,,,,,,"[{""stimulus"":""run_exp/static/images/task_images/dig.jpg"",""time"":0.3749999887077138},{""stimulus"":""run_exp/static/images/task_images/land.jpg"",""time"":668.6899999913294},{""stimulus"":""run_exp/static/images/task_images/dig.jpg"",""time"":1335.6849999981932}]",[],22,,,,,,,,,,,,,,
harvest,287,898354,0.0-75.0-4.0,,null,run_exp/static/images/task_images/gems/106.jpg,null,,,,,,93,,,22,,,,,106,0.878717842,0.877358491,,,,,,,
decision,288,898810,0.0-75.0-5.0,,452.03,run_exp/static/images/task_images/land.jpg,65,,,,,,93,,,22,,,,,,,,207776,2,0,FALSE,,,
dig,289,901366,0.0-76.0-0.0,,,,,,,,,,,"[{""stimulus"":""run_exp/static/images/task_images/dig.jpg"",""time"":0.35000000207219273},{""stimulus"":""run_exp/static/images/task_images/land.jpg"",""time"":850.9550000017043},{""stimulus"":""run_exp/static/images/task_images/dig.jpg"",""time"":1699.9250000080792}]",[],22,,,,,,,,,,,,,,
harvest,290,902368,0.0-76.0-1.0,,null,run_exp/static/images/task_images/gems/93.jpg,null,,,,,,84,,,22,,,,,93,0.899792921,0.903225806,,,,,,,
decision,291,903459,0.0-76.0-2.0,,1087.15,run_exp/static/images/task_images/land.jpg,65,,,,,,84,,,22,,,,,,,,212425,2,1,FALSE,,,
dig,292,905377,0.0-77.0-0.0,,,,,,,,,,,"[{""stimulus"":""run_exp/static/images/task_images/dig.jpg"",""time"":0.17500000831205398},{""stimulus"":""run_exp/static/images/task_images/land.jpg"",""time"":638.5650000011083},{""stimulus"":""run_exp/static/images/task_images/dig.jpg"",""time"":1275.0749999977415}]",[],22,,,,,,,,,,,,,,
harvest,293,906379,0.0-77.0-1.0,,null,run_exp/static/images/task_images/gems/84.jpg,null,,,,,,58,,,22,,,,,84,0.694039963,0.69047619,,,,,,,
decision,294,906971,0.0-77.0-2.0,,589.455,run_exp/static/images/task_images/land.jpg,65,,,,,,58,,,22,,,,,,,,215937,2,2,FALSE,,,
dig,295,909386,0.0-78.0-0.0,,,,,,,,,,,"[{""stimulus"":""run_exp/static/images/task_images/dig.jpg"",""time"":0.15499998698942363},{""stimulus"":""run_exp/static/images/task_images/land.jpg"",""time"":804.3899999902351},{""stimulus"":""run_exp/static/images/task_images/dig.jpg"",""time"":1607.4099999968894}]",[],22,,,,,,,,,,,,,,
harvest,296,910388,0.0-78.0-1.0,,null,run_exp/static/images/task_images/gems/58.jpg,null,,,,,,49,,,22,,,,,58,0.838035759,0.844827586,,,,,,,
decision,297,911167,0.0-78.0-2.0,,774.475,run_exp/static/images/task_images/land.jpg,65,,,,,,49,,,22,,,,,,,,220133,2,3,FALSE,,,
dig,298,913400,0.0-79.0-0.0,,,,,,,,,,,"[{""stimulus"":""run_exp/static/images/task_images/dig.jpg"",""time"":0.3550000110408291},{""stimulus"":""run_exp/static/images/task_images/land.jpg"",""time"":742.870000001858},{""stimulus"":""run_exp/static/images/task_images/dig.jpg"",""time"":1484.0000000112923}]",[],22,,,,,,,,,,,,,,
harvest,299,914403,0.0-79.0-1.0,,null,run_exp/static/images/task_images/gems/49.jpg,null,,,,,,39,,,22,,,,,49,0.786078333,0.795918367,,,,,,,
decision,300,915334,0.0-79.0-2.0,,927.675,run_exp/static/images/task_images/land.jpg,76,,,,,,39,,,22,,,,,,,,224300,2,4,TRUE,,,
travel,301,924417,0.0-80.0-0.0,,,,,,,,,,,"[{""stimulus"":""run_exp/static/images/task_images/rocket-01.jpg"",""time"":0.42499999108258635},{""stimulus"":""run_exp/static/images/task_images/rocket-02.jpg"",""time"":1009.4349999999395},{""stimulus"":""run_exp/static/images/task_images/rocket-03.jpg"",""time"":2017.8699999960372},{""stimulus"":""run_exp/static/images/task_images/rocket-04.jpg"",""time"":3025.8299999986775},{""stimulus"":""run_exp/static/images/task_images/rocket-05.jpg"",""time"":4033.9249999960884},{""stimulus"":""run_exp/static/images/task_images/rocket-06.jpg"",""time"":5041.8899999931455},{""stimulus"":""run_exp/static/images/task_images/rocket-07.jpg"",""time"":6049.614999996265},{""stimulus"":""run_exp/static/images/task_images/rocket-08.jpg"",""time"":7057.949999987613},{""stimulus"":""run_exp/static/images/task_images/rocket-09.jpg"",""time"":8065.749999994296}]",[],22,,,,,,,,,,,,,,
alien_welcome,302,929420,0.0-80.0-1.0,,null,run_exp/static/images/task_images/aliens/old_aliens/planet/alien_planet-23.jpg,null,,,,,,,,,,,,23,"10,66,67,11,15,61,58,32,55,18,51,34,9,12,31,63,43,40,49,73,41,7,23,47,68,37,16,74,33,46,21,1,69,79,54,35,76,72,44,8,65,52,30,22,45,78,17,13,50",,,,,,,,,,
land,303,929922,0.0-80.0-2.0,,null,run_exp/static/images/task_images/land.jpg,null,,,,,,96,,,23,,,,,,,,,,,,,,
dig,304,931927,0.0-80.0-3.0,,,,,,,,,,,"[{""stimulus"":""run_exp/static/images/task_images/dig.jpg"",""time"":0.45000000682193786},{""stimulus"":""run_exp/static/images/task_images/land.jpg"",""time"":668.9699999988079},{""stimulus"":""run_exp/static/images/task_images/dig.jpg"",""time"":1335.9999999956926}]",[],23,,,,,,,,,,,,,,
harvest,305,932930,0.0-80.0-4.0,,null,run_exp/static/images/task_images/gems/96.jpg,null,,,,,,48,,,23,,,,,96,0.496541833,0.5,,,,,,,
decision,306,934838,0.0-80.0-5.0,,1904.42,run_exp/static/images/task_images/land.jpg,65,,,,,,48,,,23,,,,,,,,243804,2,0,FALSE,,,
dig,307,935940,0.0-81.0-0.0,,,,,,,,,,,"[{""stimulus"":""run_exp/static/images/task_images/dig.jpg"",""time"":0.12499999138526618},{""stimulus"":""run_exp/static/images/task_images/land.jpg"",""time"":366.4299999945797},{""stimulus"":""run_exp/static/images/task_images/dig.jpg"",""time"":731.4150000020163}]",[],23,,,,,,,,,,,,,,
harvest,308,936942,0.0-81.0-1.0,,null,run_exp/static/images/task_images/gems/48.jpg,null,,,,,,25,,,23,,,,,48,0.516369629,0.520833333,,,,,,,
decision,309,939615,0.0-81.0-2.0,,2669.565,run_exp/static/images/task_images/land.jpg,65,,,,,,25,,,23,,,,,,,,248581,2,1,FALSE,,,
dig,310,939952,0.0-82.0-0.0,,,,,,,,,,,"[{""stimulus"":""run_exp/static/images/task_images/dig.jpg"",""time"":0.1449999981559813},{""stimulus"":""run_exp/static/images/task_images/land.jpg"",""time"":111.07499999343418},{""stimulus"":""run_exp/static/images/task_images/dig.jpg"",""time"":221.34499999810942}]",[],23,,,,,,,,,,,,,,
harvest,311,940955,0.0-82.0-1.0,,null,run_exp/static/images/task_images/gems/25.jpg,null,,,,,,13,,,23,,,,,25,0.528374408,0.52,,,,,,,
decision,312,942931,0.0-82.0-2.0,,1972.005,run_exp/static/images/task_images/land.jpg,76,,,,,,13,,,23,,,,,,,,251897,2,2,TRUE,,,
travel,313,950956,0.0-83.0-0.0,,,,,,,,,,,"[{""stimulus"":""run_exp/static/images/task_images/rocket-01.jpg"",""time"":0.16000001050997525},{""stimulus"":""run_exp/static/images/task_images/rocket-02.jpg"",""time"":892.4350000015693},{""stimulus"":""run_exp/static/images/task_images/rocket-03.jpg"",""time"":1783.4200000070268},{""stimulus"":""run_exp/static/images/task_images/rocket-04.jpg"",""time"":2674.4550000003073},{""stimulus"":""run_exp/static/images/task_images/rocket-05.jpg"",""time"":3565.39000000339},{""stimulus"":""run_exp/static/images/task_images/rocket-06.jpg"",""time"":4456.449999997858},{""stimulus"":""run_exp/static/images/task_images/rocket-07.jpg"",""time"":5347.385000000941},{""stimulus"":""run_exp/static/images/task_images/rocket-08.jpg"",""time"":6238.505000001169},{""stimulus"":""run_exp/static/images/task_images/rocket-09.jpg"",""time"":7129.419999997481}]",[],23,,,,,,,,,,,,,,
alien_welcome,314,955960,0.0-83.0-1.0,,null,run_exp/static/images/task_images/aliens/old_aliens/planet/alien_planet-47.jpg,null,,,,,,,,,,,,47,"10,66,67,11,15,61,58,32,55,18,51,34,9,12,31,63,43,40,49,73,41,7,23,47,68,37,16,74,33,46,21,1,69,79,54,35,76,72,44,8,65,52,30,22,45,78,17,13,50",,,,,,,,,,
land,315,956462,0.0-83.0-2.0,,null,run_exp/static/images/task_images/land.jpg,null,,,,,,105,,,24,,,,,,,,,,,,,,
dig,316,958467,0.0-83.0-3.0,,,,,,,,,,,"[{""stimulus"":""run_exp/static/images/task_images/dig.jpg"",""time"":0.3749999887077138},{""stimulus"":""run_exp/static/images/task_images/land.jpg"",""time"":668.7799999926938},{""stimulus"":""run_exp/static/images/task_images/dig.jpg"",""time"":1335.7099999993807}]",[],24,,,,,,,,,,,,,,
harvest,317,959469,0.0-83.0-4.0,,null,run_exp/static/images/task_images/gems/105.jpg,null,,,,,,91,,,24,,,,,105,0.8704446,0.866666667,,,,,,,
decision,318,959633,0.0-83.0-5.0,,159.91,run_exp/static/images/task_images/land.jpg,65,,,,,,91,,,24,,,,,,,,268599,2,0,FALSE,,,
dig,319,962479,0.0-84.0-0.0,,,,,,,,,,,"[{""stimulus"":""run_exp/static/images/task_images/dig.jpg"",""time"":0.34499999310355633},{""stimulus"":""run_exp/static/images/task_images/land.jpg"",""time"":947.6100000028964},{""stimulus"":""run_exp/static/images/task_images/dig.jpg"",""time"":1893.6699999903794}]",[],24,,,,,,,,,,,,,,
harvest,320,963483,0.0-84.0-1.0,,null,run_exp/static/images/task_images/gems/91.jpg,null,,,,,,68,,,24,,,,,91,0.74633711,0.747252747,,,,,,,
decision,321,965237,0.0-84.0-2.0,,1748.855,run_exp/static/images/task_images/land.jpg,65,,,,,,68,,,24,,,,,,,,274203,2,1,FALSE,,,
dig,322,966495,0.0-85.0-0.0,,,,,,,,,,,"[{""stimulus"":""run_exp/static/images/task_images/dig.jpg"",""time"":0.1649999903747812},{""stimulus"":""run_exp/static/images/task_images/land.jpg"",""time"":418.4299999906216},{""stimulus"":""run_exp/static/images/task_images/dig.jpg"",""time"":835.5149999988498}]",[],24,,,,,,,,,,,,,,
harvest,323,967497,0.0-85.0-1.0,,null,run_exp/static/images/task_images/gems/68.jpg,null,,,,,,59,,,24,,,,,68,0.872303481,0.867647059,,,,,,,
decision,324,969303,0.0-85.0-2.0,,1802.15,run_exp/static/images/task_images/land.jpg,65,,,,,,59,,,24,,,,,,,,278270,2,2,FALSE,,,
dig,325,970511,0.0-86.0-0.0,,,,,,,,,,,"[{""stimulus"":""run_exp/static/images/task_images/dig.jpg"",""time"":0.35000000207219273},{""stimulus"":""run_exp/static/images/task_images/land.jpg"",""time"":400.9700000024168},{""stimulus"":""run_exp/static/images/task_images/dig.jpg"",""time"":799.829999989015}]",[],24,,,,,,,,,,,,,,
harvest,326,971513,0.0-86.0-1.0,,null,run_exp/static/images/task_images/gems/59.jpg,null,,,,,,46,,,24,,,,,59,0.783357596,0.779661017,,,,,,,
decision,327,974517,0.0-86.0-2.0,,null,run_exp/static/images/task_images/land.jpg,null,,,,,,46,,,24,,,,,,,,283484,2,3,FALSE,,,
time_out,328,976524,0.0-87.0-0.0,,null,run_exp/static/images/task_images/time_out.jpg,null,,,,,,46,,,,,,,,,,,,,,,,,
decision,329,977056,0.0-87.0-1.0,,528.995,run_exp/static/images/task_images/land.jpg,76,,,,,,46,,,24,,,,,,,,286023,2,3,TRUE,,,
travel,330,986532,0.0-88.0-0.0,,,,,,,,,,,"[{""stimulus"":""run_exp/static/images/task_images/rocket-01.jpg"",""time"":0.13499999477062374},{""stimulus"":""run_exp/static/images/task_images/rocket-02.jpg"",""time"":1053.4299999999348},{""stimulus"":""run_exp/static/images/task_images/rocket-03.jpg"",""time"":2105.409999989206},{""stimulus"":""run_exp/static/images/task_images/rocket-04.jpg"",""time"":3157.5249999877997},{""stimulus"":""run_exp/static/images/task_images/rocket-05.jpg"",""time"":4209.434999997029},{""stimulus"":""run_exp/static/images/task_images/rocket-06.jpg"",""time"":5261.304999992717},{""stimulus"":""run_exp/static/images/task_images/rocket-07.jpg"",""time"":6313.454999995884},{""stimulus"":""run_exp/static/images/task_images/rocket-08.jpg"",""time"":7365.314999988186},{""stimulus"":""run_exp/static/images/task_images/rocket-09.jpg"",""time"":8417.374999989988}]",[],24,,,,,,,,,,,,,,
alien_welcome,331,991535,0.0-88.0-1.0,,null,run_exp/static/images/task_images/aliens/old_aliens/planet/alien_planet-68.jpg,null,,,,,,,,,,,,68,"10,66,67,11,15,61,58,32,55,18,51,34,9,12,31,63,43,40,49,73,41,7,23,47,68,37,16,74,33,46,21,1,69,79,54,35,76,72,44,8,65,52,30,22,45,78,17,13,50",,,,,,,,,,
land,332,992037,0.0-88.0-2.0,,null,run_exp/static/images/task_images/land.jpg,null,,,,,,102,,,25,,,,,,,,,,,,,,
dig,333,994042,0.0-88.0-3.0,,,,,,,,,,,"[{""stimulus"":""run_exp/static/images/task_images/dig.jpg"",""time"":0.43000000005122274},{""stimulus"":""run_exp/static/images/task_images/land.jpg"",""time"":668.4200000017881},{""stimulus"":""run_exp/static/images/task_images/dig.jpg"",""time"":1335.8549999975367}]",[],25,,,,,,,,,,,,,,
harvest,334,995045,0.0-88.0-4.0,,null,run_exp/static/images/task_images/gems/102.jpg,null,,,,,,79,,,25,,,,,102,0.770677417,0.774509804,,,,,,,
decision,335,995344,0.0-88.0-5.0,,295.38,run_exp/static/images/task_images/land.jpg,65,,,,,,79,,,25,,,,,,,,304310,2,0,TRUE,,,
end_of_block_continue,336,1004412,0.0-89.0-0.0,,null,run_exp/static/audio/clip_32_block_end.m4a,,,,,,null,,,,,,,,,,,,,,,,,,
alien_welcome,337,1009419,0.0-90.0-0.0,,null,run_exp/static/images/task_images/aliens/old_aliens/planet/alien_planet-37.jpg,null,,,,,,,,,,,,37,"10,66,67,11,15,61,58,32,55,18,51,34,9,12,31,63,43,40,49,73,41,7,23,47,68,37,16,74,33,46,21,1,69,79,54,35,76,72,44,8,65,52,30,22,45,78,17,13,50",,,,,,,,,,
land,338,1009921,0.0-90.0-1.0,,null,run_exp/static/images/task_images/land.jpg,null,,,,,,100,,,26,,,,,,,,,,,,,,
dig,339,1011927,0.0-90.0-2.0,,,,,,,,,,,"[{""stimulus"":""run_exp/static/images/task_images/dig.jpg"",""time"":0.4650000046240166},{""stimulus"":""run_exp/static/images/task_images/land.jpg"",""time"":668.8649999996414},{""stimulus"":""run_exp/static/images/task_images/dig.jpg"",""time"":1335.975000009057}]",[],26,,,,,,,,,,,,,,
harvest,340,1012929,0.0-90.0-3.0,,null,run_exp/static/images/task_images/gems/100.jpg,null,,,,,,53,,,26,,,,,100,0.534576314,0.53,,,,,,,
decision,341,1014646,0.0-90.0-4.0,,1713.605,run_exp/static/images/task_images/land.jpg,65,,,,,,53,,,26,,,,,,,,10229,3,0,FALSE,,,
dig,342,1015936,0.0-91.0-0.0,,,,,,,,,,,"[{""stimulus"":""run_exp/static/images/task_images/dig.jpg"",""time"":0.1399999891873449},{""stimulus"":""run_exp/static/images/task_images/land.jpg"",""time"":429.4999999983702},{""stimulus"":""run_exp/static/images/task_images/dig.jpg"",""time"":857.4499999958789}]",[],26,,,,,,,,,,,,,,
harvest,343,1016939,0.0-91.0-1.0,,null,run_exp/static/images/task_images/gems/53.jpg,null,,,,,,20,,,26,,,,,53,0.381762522,0.377358491,,,,,,,
decision,344,1018234,0.0-91.0-2.0,,1291.56,run_exp/static/images/task_images/land.jpg,76,,,,,,20,,,26,,,,,,,,13817,3,1,TRUE,,,
travel,345,1026944,0.0-92.0-0.0,,,,,,,,,,,"[{""stimulus"":""run_exp/static/images/task_images/rocket-01.jpg"",""time"":0.1449999981559813},{""stimulus"":""run_exp/static/images/task_images/rocket-02.jpg"",""time"":968.4249999991152},{""stimulus"":""run_exp/static/images/task_images/rocket-03.jpg"",""time"":1935.3949999931501},{""stimulus"":""run_exp/static/images/task_images/rocket-04.jpg"",""time"":2902.4399999907473},{""stimulus"":""run_exp/static/images/task_images/rocket-05.jpg"",""time"":3869.3549999879906},{""stimulus"":""run_exp/static/images/task_images/rocket-06.jpg"",""time"":4836.404999994556},{""stimulus"":""run_exp/static/images/task_images/rocket-07.jpg"",""time"":5803.394999995362},{""stimulus"":""run_exp/static/images/task_images/rocket-08.jpg"",""time"":6770.380000001751},{""stimulus"":""run_exp/static/images/task_images/rocket-09.jpg"",""time"":7737.429999993765}]",[],26,,,,,,,,,,,,,,
alien_welcome,346,1031947,0.0-92.0-1.0,,null,run_exp/static/images/task_images/aliens/old_aliens/planet/alien_planet-16.jpg,null,,,,,,,,,,,,16,"10,66,67,11,15,61,58,32,55,18,51,34,9,12,31,63,43,40,49,73,41,7,23,47,68,37,16,74,33,46,21,1,69,79,54,35,76,72,44,8,65,52,30,22,45,78,17,13,50",,,,,,,,,,
land,347,1032450,0.0-92.0-2.0,,null,run_exp/static/images/task_images/land.jpg,null,,,,,,100,,,27,,,,,,,,,,,,,,
dig,348,1034455,0.0-92.0-3.0,,,,,,,,,,,"[{""stimulus"":""run_exp/static/images/task_images/dig.jpg"",""time"":0.43999998888466507},{""stimulus"":""run_exp/static/images/task_images/land.jpg"",""time"":669.129999994766},{""stimulus"":""run_exp/static/images/task_images/dig.jpg"",""time"":1335.800000000745}]",[],27,,,,,,,,,,,,,,
harvest,349,1035458,0.0-92.0-4.0,,null,run_exp/static/images/task_images/gems/100.jpg,null,,,,,,87,,,27,,,,,100,0.873432639,0.87,,,,,,,
decision,350,1036865,0.0-92.0-5.0,,1403.5,run_exp/static/images/task_images/land.jpg,65,,,,,,87,,,27,,,,,,,,32448,3,0,FALSE,,,
dig,351,1038472,0.0-93.0-0.0,,,,,,,,,,,"[{""stimulus"":""run_exp/static/images/task_images/dig.jpg"",""time"":0.35500001115724444},{""stimulus"":""run_exp/static/images/task_images/land.jpg"",""time"":533.8300000003073},{""stimulus"":""run_exp/static/images/task_images/dig.jpg"",""time"":1065.9799999995157}]",[],27,,,,,,,,,,,,,,
harvest,352,1039475,0.0-93.0-1.0,,null,run_exp/static/images/task_images/gems/87.jpg,null,,,,,,59,,,27,,,,,87,0.677528212,0.67816092,,,,,,,
decision,353,1041532,0.0-93.0-2.0,,2054.015,run_exp/static/images/task_images/land.jpg,65,,,,,,59,,,27,,,,,,,,37116,3,1,FALSE,,,
dig,354,1042487,0.0-94.0-0.0,,,,,,,,,,,"[{""stimulus"":""run_exp/static/images/task_images/dig.jpg"",""time"":0.3100000028498471},{""stimulus"":""run_exp/static/images/task_images/land.jpg"",""time"":316.5949999964796},{""stimulus"":""run_exp/static/images/task_images/dig.jpg"",""time"":631.8049999971408}]",[],27,,,,,,,,,,,,,,
harvest,355,1043489,0.0-94.0-1.0,,null,run_exp/static/images/task_images/gems/59.jpg,null,,,,,,51,,,27,,,,,59,0.857525646,0.86440678,,,,,,,
decision,356,1044865,0.0-94.0-2.0,,1371.855,run_exp/static/images/task_images/land.jpg,76,,,,,,51,,,27,,,,,,,,40448,3,2,TRUE,,,
travel,357,1053494,0.0-95.0-0.0,,,,,,,,,,,"[{""stimulus"":""run_exp/static/images/task_images/rocket-01.jpg"",""time"":0.1250000058207661},{""stimulus"":""run_exp/static/images/task_images/rocket-02.jpg"",""time"":959.3450000102166},{""stimulus"":""run_exp/static/images/task_images/rocket-03.jpg"",""time"":1917.2950000066776},{""stimulus"":""run_exp/static/images/task_images/rocket-04.jpg"",""time"":2875.3800000122283},{""stimulus"":""run_exp/static/images/task_images/rocket-05.jpg"",""time"":3833.3200000051875},{""stimulus"":""run_exp/static/images/task_images/rocket-06.jpg"",""time"":4791.360000002896},{""stimulus"":""run_exp/static/images/task_images/rocket-07.jpg"",""time"":5749.345000003697},{""stimulus"":""run_exp/static/images/task_images/rocket-08.jpg"",""time"":6707.245000012452},{""stimulus"":""run_exp/static/images/task_images/rocket-09.jpg"",""time"":7665.335000012303}]",[],27,,,,,,,,,,,,,,
alien_welcome,358,1058497,0.0-95.0-1.0,,null,run_exp/static/images/task_images/aliens/old_aliens/planet/alien_planet-74.jpg,null,,,,,,,,,,,,74,"10,66,67,11,15,61,58,32,55,18,51,34,9,12,31,63,43,40,49,73,41,7,23,47,68,37,16,74,33,46,21,1,69,79,54,35,76,72,44,8,65,52,30,22,45,78,17,13,50",,,,,,,,,,
land,359,1059000,0.0-95.0-2.0,,null,run_exp/static/images/task_images/land.jpg,null,,,,,,100,,,28,,,,,,,,,,,,,,
dig,360,1061005,0.0-95.0-3.0,,,,,,,,,,,"[{""stimulus"":""run_exp/static/images/task_images/dig.jpg"",""time"":0.40499999886378646},{""stimulus"":""run_exp/static/images/task_images/land.jpg"",""time"":668.864999999525},{""stimulus"":""run_exp/static/images/task_images/dig.jpg"",""time"":1335.8049999950454}]",[],28,,,,,,,,,,,,,,
harvest,361,1062008,0.0-95.0-4.0,,null,run_exp/static/images/task_images/gems/100.jpg,null,,,,,,56,,,28,,,,,100,0.558730796,0.56,,,,,,,
decision,362,1062529,0.0-95.0-5.0,,517.605,run_exp/static/images/task_images/land.jpg,65,,,,,,56,,,28,,,,,,,,58112,3,0,FALSE,,,
