trial_type,trial_index,time_elapsed,internal_node_id,interactions,blur_events,focus_events,fullscreenenter_events,fullscreenexit_events,success,rt,stimulus,key_press,prompt,subject_id,participant_id,age,gender,button_pressed,next_reward,animation_sequence,responses,planet,curr_prac_trial,n_prac_rounds,alien,aliens,reward_received,decay_rate_actual,decay_rate_exp,time_in_block,block_num,prt,last_trial_on_planet,button_html,bonus,num_failures
pavlovia,0,3,0.0-0.0,"""event"",""trial"",""time""
""fullscreenenter"",""1"",""5401""
","
","
","""event"",""trial"",""time""
""fullscreenenter"",""1"",""5401""
","
",,,,,,,,,,,,,,,,,,,,,,,,,,,,
fullscreen,1,6385,0.0-1.0,"""event"",""trial"",""time""
""fullscreenenter"",""1"",""5401""
","
","
","""event"",""trial"",""time""
""fullscreenenter"",""1"",""5401""
","
",TRUE,,,,,,,,,,,,,,,,,,,,,,,,,,,
instruc_welcome,2,16301,0.0-2.0,"""event"",""trial"",""time""
""fullscreenenter"",""1"",""5401""
","
","
","""event"",""trial"",""time""
""fullscreenenter"",""1"",""5401""
","
",,null,run_exp/static/audio/clip_1_welcome.m4a,null,"<p>Howdy! In this experiment, you’ll be an explorer traveling through space to collect space treasure.</p><p>Your mission is to collect as much treasure as possible.</p><br><br><p><img src='run_exp/static/images/task_images/opening_img-01.jpg' height='300' width='auto'></p>",10019,4703,18.5,Male,,,,,,,,,,,,,,,,,,,
audio-keyboard-response,3,32914,0.0-3.0,"""event"",""trial"",""time""
""fullscreenenter"",""1"",""5401""
","
","
","""event"",""trial"",""time""
""fullscreenenter"",""1"",""5401""
","
",,null,run_exp/static/audio/clip_2_move.m4a,null,,,,,,,,,,,,,,,,,,,,,,,,
welcome_dec,4,33890,0.0-4.0,"""event"",""trial"",""time""
""fullscreenenter"",""1"",""5401""
","
","
","""event"",""trial"",""time""
""fullscreenenter"",""1"",""5401""
","
",,969.0999999,"<p>Howdy! In this experiment, you’ll be an explorer traveling through space to collect space treasure.</p><p>Your mission is to collect as much treasure as possible.</p><br><br><p><img src='run_exp/static/images/task_images/opening_img-01.jpg' height='300' width='auto'></p>",,,,,,,1,,,,,,,,,,,,,,,,,,
html-keyboard-response,5,39209,0.0-5.0,"""event"",""trial"",""time""
""fullscreenenter"",""1"",""5401""
","
","
","""event"",""trial"",""time""
""fullscreenenter"",""1"",""5401""
","
",,5316.3,"<p>Howdy! In this experiment, you’ll be an explorer traveling through space to collect space treasure.</p><p>Your mission is to collect as much treasure as possible.</p><br><br><p><img src='run_exp/static/images/task_images/opening_img-01.jpg' height='300' width='auto'></p><button class=""jspsych-html-btn-unchosen""><img src=""run_exp/static/images/task_images/planet-01.jpg"" height=""50""></button><button class=""jspsych-html-btn-chosen""><img src=""run_exp/static/images/task_images/planet-02.jpg"" height=""50""></button><p><b>[press the space bar to lock in your answer]<b><br></p>",32,,,,,,,,,,,,,,,,,,,,,,,,
instruc_goal,6,49297,0.0-6.0-0.0,"""event"",""trial"",""time""
""fullscreenenter"",""1"",""5401""
","
","
","""event"",""trial"",""time""
""fullscreenenter"",""1"",""5401""
","
",,null,run_exp/static/audio/clip_3_goal.m4a,null,"<p> As a space explorer, you’ll visit different planets to dig for space treasure, these pink gems.</p> <p> The more treasure you dig up, the more bonus money you’ll win! </p><br><br><p><img src='run_exp/static/images/task_images/pink_gem.jpg' height='300' width='auto'></p>",,,,,,,,,,,,,,,,,,,,,,,
instruc_goal,7,52334,0.0-6.0-1.0,"""event"",""trial"",""time""
""fullscreenenter"",""1"",""5401""
","
","
","""event"",""trial"",""time""
""fullscreenenter"",""1"",""5401""
","
",,3034.4,"<p> As a space explorer, you’ll visit different planets to dig for space treasure, these pink gems.</p> <p> The more treasure you dig up, the more bonus money you’ll win! </p><br><br><p><img src='run_exp/static/images/task_images/pink_gem.jpg' height='300' width='auto'></p>",,,,,,,1,,,,,,,,,,,,,,,,,,
html-keyboard-response,8,54782,0.0-6.0-2.0,"""event"",""trial"",""time""
""fullscreenenter"",""1"",""5401""
","
","
","""event"",""trial"",""time""
""fullscreenenter"",""1"",""5401""
","
",,2446.7,"<p> As a space explorer, you’ll visit different planets to dig for space treasure, these pink gems.</p> <p> The more treasure you dig up, the more bonus money you’ll win! </p><br><br><p><img src='run_exp/static/images/task_images/pink_gem.jpg' height='300' width='auto'></p><button class=""jspsych-html-btn-unchosen""><img src=""run_exp/static/images/task_images/planet-01.jpg"" height=""50""></button><button class=""jspsych-html-btn-chosen""><img src=""run_exp/static/images/task_images/planet-02.jpg"" height=""50""></button><p><b>[press the space bar to lock in your answer]<b><br></p>",32,,,,,,,,,,,,,,,,,,,,,,,,
instruc_dig,9,70814,0.0-7.0-0.0,"""event"",""trial"",""time""
""fullscreenenter"",""1"",""5401""
","
","
","""event"",""trial"",""time""
""fullscreenenter"",""1"",""5401""
","
",,null,run_exp/static/audio/clip_4_dig.m4a,null,,,,,,,100,,,,,,,,,,,,,,,,,
instruc_dig_try,10,73766,0.0-7.0-1.0,"""event"",""trial"",""time""
""fullscreenenter"",""1"",""5401""
","
","
","""event"",""trial"",""time""
""fullscreenenter"",""1"",""5401""
","
",,2949.9,"<p> When you’ve arrived at a new planet, you will dig once. </p> <p>Then, you get to decide if you want to stay on the planet and dig again or travel to a new planet and dig there.</p> <p> To stay and dig, press the letter <strong>‘A’</strong> on your keyboard. Try pressing it now! </p><p><img src='run_exp/static/images/task_images/land.jpg'  height='700' width='auto'></p>",65,"<p> When you’ve arrived at a new planet, you will dig once. </p> <p>Then, you get to decide if you want to stay on the planet and dig again or travel to a new planet and dig there.</p> <p> To stay and dig, press the letter <strong>‘A’</strong> on your keyboard. Try pressing it now! </p><p><img src='run_exp/static/images/task_images/land.jpg'  height='700' width='auto'></p>",,,,,,100,,,,,,,,,,,,,,,,,
dig_prac,11,75788,0.0-7.0-2.0,"""event"",""trial"",""time""
""fullscreenenter"",""1"",""5401""
","
","
","""event"",""trial"",""time""
""fullscreenenter"",""1"",""5401""
","
",,,,,,,,,,,,"[{""stimulus"":""run_exp/static/images/task_images/dig.jpg"",""time"":0.2999999523162842},{""stimulus"":""run_exp/static/images/task_images/land.jpg"",""time"":675.7999999523163},{""stimulus"":""run_exp/static/images/task_images/dig.jpg"",""time"":1346.1999999284744}]",[],,,,,,,,,,,,,,,
instruc_travel,12,112062,0.0-7.0-3.0,"""event"",""trial"",""time""
""fullscreenenter"",""1"",""5401""
","
","
","""event"",""trial"",""time""
""fullscreenenter"",""1"",""5401""
","
",,null,run_exp/static/audio/clip_5_travel.m4a,null,"<p>Every time you dig up gems, there are less gems on the planet, so the more you dig on a planet the fewer gems you’ll get with each dig.</p><p>When gems are running low, you may want to travel to a new planet. </p> <p>  Planets are very far apart in this galaxy, so it will take some time to travel between them. </p> <br><p>There are lots and lots of planets for you to visit, so you won’t be able to return to any planets you’ve seen before. </p><br><p>To leave this planet and travel to a new one, press the letter <strong>‘L’</strong> on your keyboard. Try pressing it now! </p><p><img src='run_exp/static/images/task_images/rocket-01.jpg'  height='600' width='auto'></p>",,,,,,,,,,,,,,,,,,,,,,,
instruc_travel_try,13,114537,0.0-7.0-4.0,"""event"",""trial"",""time""
""fullscreenenter"",""1"",""5401""
","
","
","""event"",""trial"",""time""
""fullscreenenter"",""1"",""5401""
","
",,2472.6,"<p>Every time you dig up gems, there are less gems on the planet, so the more you dig on a planet the fewer gems you’ll get with each dig.</p><p>When gems are running low, you may want to travel to a new planet. </p> <p>  Planets are very far apart in this galaxy, so it will take some time to travel between them. </p> <br><p>There are lots and lots of planets for you to visit, so you won’t be able to return to any planets you’ve seen before. </p><br><p>To leave this planet and travel to a new one, press the letter <strong>‘L’</strong> on your keyboard. Try pressing it now! </p><p><img src='run_exp/static/images/task_images/rocket-01.jpg'  height='600' width='auto'></p>",76,"<p>Every time you dig up gems, there are less gems on the planet, so the more you dig on a planet the fewer gems you’ll get with each dig.</p><p>When gems are running low, you may want to travel to a new planet. </p> <p>  Planets are very far apart in this galaxy, so it will take some time to travel between them. </p> <br><p>There are lots and lots of planets for you to visit, so you won’t be able to return to any planets you’ve seen before. </p><br><p>To leave this planet and travel to a new one, press the letter <strong>‘L’</strong> on your keyboard. Try pressing it now! </p><p><img src='run_exp/static/images/task_images/rocket-01.jpg'  height='600' width='auto'></p>",,,,,,,,,,,,,,,,,,,,,,,
travel_prac,14,124546,0.0-7.0-5.0,"""event"",""trial"",""time""
""fullscreenenter"",""1"",""5401""
","
","
","""event"",""trial"",""time""
""fullscreenenter"",""1"",""5401""
","
",,,,,,,,,,,,"[{""stimulus"":""run_exp/static/images/task_images/rocket-01.jpg"",""time"":0.19999992847442627},{""stimulus"":""run_exp/static/images/task_images/rocket-02.jpg"",""time"":1116.3999999761581},{""stimulus"":""run_exp/static/images/task_images/rocket-03.jpg"",""time"":2233.1999999284744},{""stimulus"":""run_exp/static/images/task_images/rocket-04.jpg"",""time"":3336.2999999523163},{""stimulus"":""run_exp/static/images/task_images/rocket-05.jpg"",""time"":4452.299999952316},{""stimulus"":""run_exp/static/images/task_images/rocket-06.jpg"",""time"":5562.5},{""stimulus"":""run_exp/static/images/task_images/rocket-07.jpg"",""time"":6669.199999928474},{""stimulus"":""run_exp/static/images/task_images/rocket-08.jpg"",""time"":7778.600000023842},{""stimulus"":""run_exp/static/images/task_images/rocket-09.jpg"",""time"":8892.5}]",[],0,,,,,,,,,,,,,,
instruc_alien_greet,15,151734,0.0-7.0-6.0,"""event"",""trial"",""time""
""fullscreenenter"",""1"",""5401""
","
","
","""event"",""trial"",""time""
""fullscreenenter"",""1"",""5401""
","
",,null,run_exp/static/audio/clip_6_alien.m4a,null,"<p>When you arrive at a new planet, the alien who owns the treasure mine on that planet will greet you!</p><p>The better an alien takes care of their mine the easier it is to dig for gems. Some aliens take better care of their mine than others. So, you won’t get exactly the same amount of gems on each planet.</p><p>What the alien looks like does not tell you anything about how many gems there are on the planet.</p><br><p><img src=""run_exp/static/images/task_images/aliens/instructions_aliens/planet/alien_planet-1.jpg""  height=""600"" width=""auto""></p>",,,,,,,,,,,,,,,,,,,,,,,
instruc_alien_greet,16,155508,0.0-7.0-7.0,"""event"",""trial"",""time""
""fullscreenenter"",""1"",""5401""
","
","
","""event"",""trial"",""time""
""fullscreenenter"",""1"",""5401""
","
",,3768.6,"<p>When you arrive at a new planet, the alien who owns the treasure mine on that planet will greet you!</p><p>The better an alien takes care of their mine the easier it is to dig for gems. Some aliens take better care of their mine than others. So, you won’t get exactly the same amount of gems on each planet.</p><p>What the alien looks like does not tell you anything about how many gems there are on the planet.</p><br><p><img src=""run_exp/static/images/task_images/aliens/instructions_aliens/planet/alien_planet-1.jpg""  height=""600"" width=""auto""></p>",,,,,,,1,,,,,,,,,,,,,,,,,,
html-keyboard-response,17,157688,0.0-7.0-8.0,"""event"",""trial"",""time""
""fullscreenenter"",""1"",""5401""
","
","
","""event"",""trial"",""time""
""fullscreenenter"",""1"",""5401""
","
",,2178.1,"<p>When you arrive at a new planet, the alien who owns the treasure mine on that planet will greet you!</p><p>The better an alien takes care of their mine the easier it is to dig for gems. Some aliens take better care of their mine than others. So, you won’t get exactly the same amount of gems on each planet.</p><p>What the alien looks like does not tell you anything about how many gems there are on the planet.</p><br><p><img src=""run_exp/static/images/task_images/aliens/instructions_aliens/planet/alien_planet-1.jpg""  height=""600"" width=""auto""></p><button class=""jspsych-html-btn-unchosen""><img src=""run_exp/static/images/task_images/planet-01.jpg"" height=""50""></button><button class=""jspsych-html-btn-chosen""><img src=""run_exp/static/images/task_images/planet-02.jpg"" height=""50""></button><p><b>[press the space bar to lock in your answer]<b><br></p>",32,,,,,,,,,,,,,,,,,,,,,,,,
time_out,18,168796,0.0-8.0-0.0,"""event"",""trial"",""time""
""fullscreenenter"",""1"",""5401""
","
","
","""event"",""trial"",""time""
""fullscreenenter"",""1"",""5401""
","
",,null,run_exp/static/audio/clip_7_timeout.m4a,null,"<p>If you don't make your choice fast enough, you’ll have to wait a few seconds before you can make another one.</p><p>You can’t dig for more gems or travel to new planets. You just have to sit and wait.</p><br><p><img src='run_exp/static/images/task_images/time_out.jpg'  height='600' width='auto'></p>",,,,,,,,,,,,,,,,,,,,,,,
time_out,19,170434,0.0-8.0-1.0,"""event"",""trial"",""time""
""fullscreenenter"",""1"",""5401""
","
","
","""event"",""trial"",""time""
""fullscreenenter"",""1"",""5401""
","
",,1635.7,"<p>If you don't make your choice fast enough, you’ll have to wait a few seconds before you can make another one.</p><p>You can’t dig for more gems or travel to new planets. You just have to sit and wait.</p><br><p><img src='run_exp/static/images/task_images/time_out.jpg'  height='600' width='auto'></p>",,,,,,,1,,,,,,,,,,,,,,,,,,
html-keyboard-response,20,170562,0.0-8.0-2.0,"""event"",""trial"",""time""
""fullscreenenter"",""1"",""5401""
","
","
","""event"",""trial"",""time""
""fullscreenenter"",""1"",""5401""
","
",,124.8000001,"<p>If you don't make your choice fast enough, you’ll have to wait a few seconds before you can make another one.</p><p>You can’t dig for more gems or travel to new planets. You just have to sit and wait.</p><br><p><img src='run_exp/static/images/task_images/time_out.jpg'  height='600' width='auto'></p><button class=""jspsych-html-btn-unchosen""><img src=""run_exp/static/images/task_images/planet-01.jpg"" height=""50""></button><button class=""jspsych-html-btn-chosen""><img src=""run_exp/static/images/task_images/planet-02.jpg"" height=""50""></button><p><b>[press the space bar to lock in your answer]<b><br></p>",32,,,,,,,,,,,,,,,,,,,,,,,,
instruc_break,21,186253,0.0-9.0-0.0,"""event"",""trial"",""time""
""fullscreenenter"",""1"",""5401""
","
","
","""event"",""trial"",""time""
""fullscreenenter"",""1"",""5401""
","
",,null,run_exp/static/audio/clip_8_break.m4a,null,"<p> After digging and traveling for a while, you’ll be able to take a break at home base. </p><p>The game will last 20 minutes no matter what.</p><p>You will visit home base every 5 minutes, so, you will visit home base three times during the game.</p><br><p><img src='run_exp/static/images/task_images/home_base.jpg' height='600' width='auto'></p>",,,,,,,,,,,,,,,,,,,,,,,
instruc_break,22,189833,0.0-9.0-1.0,"""event"",""trial"",""time""
""fullscreenenter"",""1"",""5401""
","
","
","""event"",""trial"",""time""
""fullscreenenter"",""1"",""5401""
","
",,3578.7,"<p> After digging and traveling for a while, you’ll be able to take a break at home base. </p><p>The game will last 20 minutes no matter what.</p><p>You will visit home base every 5 minutes, so, you will visit home base three times during the game.</p><br><p><img src='run_exp/static/images/task_images/home_base.jpg' height='600' width='auto'></p>",,,,,,,1,,,,,,,,,,,,,,,,,,
html-keyboard-response,23,190408,0.0-9.0-2.0,"""event"",""trial"",""time""
""fullscreenenter"",""1"",""5401""
","
","
","""event"",""trial"",""time""
""fullscreenenter"",""1"",""5401""
","
",,573.5,"<p> After digging and traveling for a while, you’ll be able to take a break at home base. </p><p>The game will last 20 minutes no matter what.</p><p>You will visit home base every 5 minutes, so, you will visit home base three times during the game.</p><br><p><img src='run_exp/static/images/task_images/home_base.jpg' height='600' width='auto'></p><button class=""jspsych-html-btn-unchosen""><img src=""run_exp/static/images/task_images/planet-01.jpg"" height=""50""></button><button class=""jspsych-html-btn-chosen""><img src=""run_exp/static/images/task_images/planet-02.jpg"" height=""50""></button><p><b>[press the space bar to lock in your answer]<b><br></p>",32,,,,,,,,,,,,,,,,,,,,,,,,
instruc_prac_game,24,200553,0.0-10.0-0.0,"""event"",""trial"",""time""
""fullscreenenter"",""1"",""5401""
","
","
","""event"",""trial"",""time""
""fullscreenenter"",""1"",""5401""
","
",,null,run_exp/static/audio/clip_9_practice.m4a,null,"<p> Are you ready to play a practice game? </p> <p>In this practice game, you'll be digging up barrels of gems. But, in the real game, you'll be digging up the gems themselves. </p>",,,,,,,,,,,,,,,,,,,,,,,
html-button-response,25,201708,0.0-10.0-1.0,"""event"",""trial"",""time""
""fullscreenenter"",""1"",""5401""
","
","
","""event"",""trial"",""time""
""fullscreenenter"",""1"",""5401""
","
",,1149.1,"<p> Are you ready to play a practice game? </p> <p>In this practice game, you'll be digging up barrels of gems. But, in the real game, you'll be digging up the gems themselves. </p>",,,,,,,0,,,,,,,,,,,,,,,,,,
alien_welcome_prac,26,206724,0.0-11.0-0.0,"""event"",""trial"",""time""
""fullscreenenter"",""1"",""5401""
","
","
","""event"",""trial"",""time""
""fullscreenenter"",""1"",""5401""
","
",,null,run_exp/static/images/task_images/aliens/practice_aliens/planet/alien_planet-5.jpg,null,,,,,,,,,,,,,,,,,,,,,,,,
land_prac,27,207243,0.0-11.0-1.0,"""event"",""trial"",""time""
""fullscreenenter"",""1"",""5401""
","
","
","""event"",""trial"",""time""
""fullscreenenter"",""1"",""5401""
","
",,null,run_exp/static/images/task_images/land.jpg,null,,,,,,,111,,,0,,,,,,,,,,,,,,
dig_prac,28,209260,0.0-11.0-2.0,"""event"",""trial"",""time""
""fullscreenenter"",""1"",""5401""
","
","
","""event"",""trial"",""time""
""fullscreenenter"",""1"",""5401""
","
",,,,,,,,,,,,"[{""stimulus"":""run_exp/static/images/task_images/dig.jpg"",""time"":0.20000004768371582},{""stimulus"":""run_exp/static/images/task_images/land.jpg"",""time"":671.8999999761581},{""stimulus"":""run_exp/static/images/task_images/dig.jpg"",""time"":1351.2000000476837}]",[],,,,,,,,,,,,,,,
harvest_prac,29,210271,0.0-11.0-3.0,"""event"",""trial"",""time""
""fullscreenenter"",""1"",""5401""
","
","
","""event"",""trial"",""time""
""fullscreenenter"",""1"",""5401""
","
",,null,run_exp/static/images/task_images/barrel_text.jpg,null,,,,,,,,,,,,,,,,,,,,,,,,
decision_prac,30,212187,0.0-11.0-4.0,"""event"",""trial"",""time""
""fullscreenenter"",""1"",""5401""
","
","
","""event"",""trial"",""time""
""fullscreenenter"",""1"",""5401""
","
",,1913.1,run_exp/static/images/task_images/land.jpg,65,,,,,,,,,,,1,,,,,,,,,,,,,
dig_prac,31,214198,0.0-12.0-0.0,"""event"",""trial"",""time""
""fullscreenenter"",""1"",""5401""
","
","
","""event"",""trial"",""time""
""fullscreenenter"",""1"",""5401""
","
",,,,,,,,,,,,"[{""stimulus"":""run_exp/static/images/task_images/dig.jpg"",""time"":0.20000004768371582},{""stimulus"":""run_exp/static/images/task_images/land.jpg"",""time"":680.8999999761581},{""stimulus"":""run_exp/static/images/task_images/dig.jpg"",""time"":1339.2000000476837}]",[],,,,,,,,,,,,,,,
harvest_prac,32,215211,0.0-12.0-1.0,"""event"",""trial"",""time""
""fullscreenenter"",""1"",""5401""
","
","
","""event"",""trial"",""time""
""fullscreenenter"",""1"",""5401""
","
",,null,run_exp/static/images/task_images/barrel_text.jpg,null,,,,,,,,,,,,,,,,,,,,,,,,
decision_prac,33,215725,0.0-12.0-2.0,"""event"",""trial"",""time""
""fullscreenenter"",""1"",""5401""
","
","
","""event"",""trial"",""time""
""fullscreenenter"",""1"",""5401""
","
",,511.9000001,run_exp/static/images/task_images/land.jpg,65,,,,,,,,,,,2,,,,,,,,,,,,,
dig_prac,34,217740,0.0-13.0-0.0,"""event"",""trial"",""time""
""fullscreenenter"",""1"",""5401""
","
","
","""event"",""trial"",""time""
""fullscreenenter"",""1"",""5401""
","
",,,,,,,,,,,,"[{""stimulus"":""run_exp/static/images/task_images/dig.jpg"",""time"":0.20000004768371582},{""stimulus"":""run_exp/static/images/task_images/land.jpg"",""time"":669.5},{""stimulus"":""run_exp/static/images/task_images/dig.jpg"",""time"":1348.3000000715256}]",[],,,,,,,,,,,,,,,
harvest_prac,35,218748,0.0-13.0-1.0,"""event"",""trial"",""time""
""fullscreenenter"",""1"",""5401""
","
","
","""event"",""trial"",""time""
""fullscreenenter"",""1"",""5401""
","
",,null,run_exp/static/images/task_images/barrel_text.jpg,null,,,,,,,,,,,,,,,,,,,,,,,,
decision_prac,36,219216,0.0-13.0-2.0,"""event"",""trial"",""time""
""fullscreenenter"",""1"",""5401""
","
","
","""event"",""trial"",""time""
""fullscreenenter"",""1"",""5401""
","
",,467,run_exp/static/images/task_images/land.jpg,65,,,,,,,,,,,3,,,,,,,,,,,,,
dig_prac,37,221235,0.0-14.0-0.0,"""event"",""trial"",""time""
""fullscreenenter"",""1"",""5401""
","
","
","""event"",""trial"",""time""
""fullscreenenter"",""1"",""5401""
","
",,,,,,,,,,,,"[{""stimulus"":""run_exp/static/images/task_images/dig.jpg"",""time"":0.30000007152557373},{""stimulus"":""run_exp/static/images/task_images/land.jpg"",""time"":673.1000000238419},{""stimulus"":""run_exp/static/images/task_images/dig.jpg"",""time"":1345.8000000715256}]",[],,,,,,,,,,,,,,,
harvest_prac,38,222245,0.0-14.0-1.0,"""event"",""trial"",""time""
""fullscreenenter"",""1"",""5401""
","
","
","""event"",""trial"",""time""
""fullscreenenter"",""1"",""5401""
","
",,null,run_exp/static/images/task_images/barrel_text.jpg,null,,,,,,,,,,,,,,,,,,,,,,,,
decision_prac,39,222691,0.0-14.0-2.0,"""event"",""trial"",""time""
""fullscreenenter"",""1"",""5401""
","
","
","""event"",""trial"",""time""
""fullscreenenter"",""1"",""5401""
","
",,444.4000001,run_exp/static/images/task_images/land.jpg,76,,,,,,,,,,,4,,,,,,,,,,,,,
travel,40,232253,0.0-15.0-0.0,"""event"",""trial"",""time""
""fullscreenenter"",""1"",""5401""
","
","
","""event"",""trial"",""time""
""fullscreenenter"",""1"",""5401""
","
",,,,,,,,,,,,"[{""stimulus"":""run_exp/static/images/task_images/rocket-01.jpg"",""time"":0.2999999523162842},{""stimulus"":""run_exp/static/images/task_images/rocket-02.jpg"",""time"":1072.3999999761581},{""stimulus"":""run_exp/static/images/task_images/rocket-03.jpg"",""time"":2131.899999976158},{""stimulus"":""run_exp/static/images/task_images/rocket-04.jpg"",""time"":3186.0999999046326},{""stimulus"":""run_exp/static/images/task_images/rocket-05.jpg"",""time"":4254},{""stimulus"":""run_exp/static/images/task_images/rocket-06.jpg"",""time"":5310.599999904633},{""stimulus"":""run_exp/static/images/task_images/rocket-07.jpg"",""time"":6380.199999928474},{""stimulus"":""run_exp/static/images/task_images/rocket-08.jpg"",""time"":7431.899999976158},{""stimulus"":""run_exp/static/images/task_images/rocket-09.jpg"",""time"":8493.299999952316}]",[],0,,,,,,,,,,,,,,
alien_welcome_prac,41,237272,0.0-15.0-1.0,"""event"",""trial"",""time""
""fullscreenenter"",""1"",""5401""
","
","
","""event"",""trial"",""time""
""fullscreenenter"",""1"",""5401""
","
",,null,run_exp/static/images/task_images/aliens/practice_aliens/planet/alien_planet-4.jpg,null,,,,,,,,,,,,,,,,,,,,,,,,
land_prac,42,237790,0.0-15.0-2.0,"""event"",""trial"",""time""
""fullscreenenter"",""1"",""5401""
","
","
","""event"",""trial"",""time""
""fullscreenenter"",""1"",""5401""
","
",,null,run_exp/static/images/task_images/land.jpg,null,,,,,,,90,,,0,,,,,,,,,,,,,,
dig_prac,43,239807,0.0-15.0-3.0,"""event"",""trial"",""time""
""fullscreenenter"",""1"",""5401""
","
","
","""event"",""trial"",""time""
""fullscreenenter"",""1"",""5401""
","
",,,,,,,,,,,,"[{""stimulus"":""run_exp/static/images/task_images/dig.jpg"",""time"":0.30000007152557373},{""stimulus"":""run_exp/static/images/task_images/land.jpg"",""time"":677.4000000953674},{""stimulus"":""run_exp/static/images/task_images/dig.jpg"",""time"":1346.1000000238419}]",[],,,,,,,,,,,,,,,
harvest_prac,44,240827,0.0-15.0-4.0,"""event"",""trial"",""time""
""fullscreenenter"",""1"",""5401""
","
","
","""event"",""trial"",""time""
""fullscreenenter"",""1"",""5401""
","
",,null,run_exp/static/images/task_images/barrel_text.jpg,null,,,,,,,,,,,,,,,,,,,,,,,,
decision_prac,45,241187,0.0-15.0-5.0,"""event"",""trial"",""time""
""fullscreenenter"",""1"",""5401""
","
","
","""event"",""trial"",""time""
""fullscreenenter"",""1"",""5401""
","
",,358.8,run_exp/static/images/task_images/land.jpg,65,,,,,,,,,,,,1,,,,,,,,,,,,
quiz_instruc,46,244670,0.0-16.0-0.0,"""event"",""trial"",""time""
""fullscreenenter"",""1"",""5401""
","
","
","""event"",""trial"",""time""
""fullscreenenter"",""1"",""5401""
","
",,3479.8,run_exp/static/audio/clip_10_quiz.m4a,,,,,,,0,,,,,,,,,,,,,,,,,,
instruc_repeat,47,287446,0.0-16.0-1.0,"""event"",""trial"",""time""
""fullscreenenter"",""1"",""5401""
","
","
","""event"",""trial"",""time""
""fullscreenenter"",""1"",""5401""
","
",,null,"<p> Are you ready to play a practice game? </p> <p>In this practice game, you'll be digging up barrels of gems. But, in the real game, you'll be digging up the gems themselves. </p>",null,"<p>In this game, your goal is to collect as many gems as you can. That’s how you will win bonus money. </p> <p>The entire game will last 20 minutes no matter how many gems you collect or how many planets you visit. </p><p>To stay on a planet and dig again, press the letter A on your keyboard. To leave for a new planet, press the letter L.</p><p>The more you dig on a planet, the fewer gems you’ll get with each dig which is why you might consider leaving for a new planet. </p><p>When you arrive at a new planet, you’ll be greeted by an alien. What the alien looks like does not tell you anything about how much treasure is on the planet. </p>",,,,,,,,,,,,,,,,,,,,,,,
instruc_repeat_continue,48,288321,0.0-16.0-2.0,"""event"",""trial"",""time""
""fullscreenenter"",""1"",""5401""
","
","
","""event"",""trial"",""time""
""fullscreenenter"",""1"",""5401""
","
",,870.8000001,"<p> Are you ready to play a practice game? </p> <p>In this practice game, you'll be digging up barrels of gems. But, in the real game, you'll be digging up the gems themselves. </p>",,,,,,,0,,,,,,,,,,,,,,,,,,
quiz_q_1_ask,49,298493,0.0-16.0-3.0,"""event"",""trial"",""time""
""fullscreenenter"",""1"",""5401""
","
","
","""event"",""trial"",""time""
""fullscreenenter"",""1"",""5401""
","
",,10169.9,run_exp/static/audio/clip_11_q1_ask.m4a,,,,,,,2,,,,,,,,,,,,,,,,,,
quiz_q_1_fb_correct,50,302346,0.0-17.0-0.0,"""event"",""trial"",""time""
""fullscreenenter"",""1"",""5401""
","
","
","""event"",""trial"",""time""
""fullscreenenter"",""1"",""5401""
","
",,null,run_exp/static/audio/clip_12_q1_correct.m4a,null,<p>That’s correct. You win extra money by collecting more gems.</p>,,,,,,,,,,,,,,,,,,,,,,,
quiz_q_2_ask,51,304849,0.0-17.0-1.0,"""event"",""trial"",""time""
""fullscreenenter"",""1"",""5401""
","
","
","""event"",""trial"",""time""
""fullscreenenter"",""1"",""5401""
","
",,2499.9,run_exp/static/audio/clip_14_q2_ask.m4a,,,,,,,1,,,,,,,,,,,,,,,,,,
quiz_q_2_fb_correct,52,308865,0.0-18.0-0.0,"""event"",""trial"",""time""
""fullscreenenter"",""1"",""5401""
","
","
","""event"",""trial"",""time""
""fullscreenenter"",""1"",""5401""
","
",,null,run_exp/static/audio/clip_15_q2_correct.m4a,null,<p>That’s correct. The experiment is 20 minutes no matter what.</p>,,,,,,,,,,,,,,,,,,,,,,,
quiz_q_3_ask,53,311167,0.0-18.0-1.0,"""event"",""trial"",""time""
""fullscreenenter"",""1"",""5401""
","
","
","""event"",""trial"",""time""
""fullscreenenter"",""1"",""5401""
","
",,2299.8,run_exp/static/audio/clip_17_q3_ask.m4a,,,,,,,1,,,,,,,,,,,,,,,,,,
quiz_q_3_fb_correct,54,315165,0.0-19.0-0.0,"""event"",""trial"",""time""
""fullscreenenter"",""1"",""5401""
","
","
","""event"",""trial"",""time""
""fullscreenenter"",""1"",""5401""
","
",,null,run_exp/static/audio/clip_18_q3_correct.m4a,null,<p> That’s correct. You press the letter L to travel to a new planet.</p>,,,,,,,,,,,,,,,,,,,,,,,
quiz_q_4_ask,55,317820,0.0-19.0-1.0,"""event"",""trial"",""time""
""fullscreenenter"",""1"",""5401""
","
","
","""event"",""trial"",""time""
""fullscreenenter"",""1"",""5401""
","
",,2652.6,run_exp/static/audio/clip_20_q4_ask.m4a,,,,,,,0,,,,,,,,,,,,,,,,,,
quiz_q_4_fb_correct,56,323145,0.0-20.0-0.0,"""event"",""trial"",""time""
""fullscreenenter"",""1"",""5401""
","
","
","""event"",""trial"",""time""
""fullscreenenter"",""1"",""5401""
","
",,null,run_exp/static/audio/clip_21_q4_correct.m4a,null,<p> That’s correct. The more you dig on a planet the fewer gems you’ll get with each dig. </p>,,,,,,,,,,,,,,,,,,,,,,,
quiz_q_5_ask,57,325399,0.0-20.0-1.0,"""event"",""trial"",""time""
""fullscreenenter"",""1"",""5401""
","
","
","""event"",""trial"",""time""
""fullscreenenter"",""1"",""5401""
","
",,2252.2,run_exp/static/audio/clip_23_q5_ask.m4a,,,,,,,1,,,,,,,,,,,,,,,,,,
quiz_q_5_fb_correct,58,330427,0.0-21.0-0.0,"""event"",""trial"",""time""
""fullscreenenter"",""1"",""5401""
","
","
","""event"",""trial"",""time""
""fullscreenenter"",""1"",""5401""
","
",,null,run_exp/static/audio/clip_24_q5_correct.m4a,null,<p> That’s correct. The alien tells you nothing about how much treasure is on the planet.</p>,,,,,,,,,,,,,,,,,,,,,,,
quiz_correct,59,333907,0.0-22.0-0.0,"""event"",""trial"",""time""
""fullscreenenter"",""1"",""5401""
","
","
","""event"",""trial"",""time""
""fullscreenenter"",""1"",""5401""
","
",,null,run_exp/static/audio/clip_26_correct_quiz.m4a,null,,,,,,,,,,,,,,,,,,,,,,,,
quiz_correct_continue,60,334808,0.0-22.0-1.0,"""event"",""trial"",""time""
""fullscreenenter"",""1"",""5401""
","
","
","""event"",""trial"",""time""
""fullscreenenter"",""1"",""5401""
","
",,900,<p>Good job! You're now ready to move on to the real game!</p>,,,,,,,0,,,,,,,,,,,,,,,,,,
audio-keyboard-response,61,344950,0.0-22.0-2.0,"""event"",""trial"",""time""
""fullscreenenter"",""1"",""5401""
","
","
","""event"",""trial"",""time""
""fullscreenenter"",""1"",""5401""
","
",,null,run_exp/static/audio/clip_28_real_game.m4a,null,,,,,,,,,,,,,,,,,,,,,,,,
instruc_begin_exp_contine,62,346008,0.0-22.0-3.0,"""event"",""trial"",""time""
""fullscreenenter"",""1"",""5401""
","
","
","""event"",""trial"",""time""
""fullscreenenter"",""1"",""5401""
","
",,1056.1,"<p>Now that you know how  to dig for space treasure and travel to new planets,you can start exploring! </p><p>Do you want to go over the instructions again or get started with the real game?</p>",,,,,,,1,,,,,,1,,,,,,,,,,,,
alien_welcome,63,351024,0.0-23.0-0.0,"""event"",""trial"",""time""
""fullscreenenter"",""1"",""5401""
","
","
","""event"",""trial"",""time""
""fullscreenenter"",""1"",""5401""
","
",,null,run_exp/static/images/task_images/aliens/old_aliens/planet/alien_planet-21.jpg,null,,,,,,,,,,,,,21,"21,41,24,33,19,61,58,14,16,76,67,46,23,22,18,8,7,71,3,28,9,5,60,62,29,17,48,40,78,70,4,32,74,72,10,34,64,1,11,2,51,63,69,25,56,55,66,54,36,52,31",,,,,,,,,,
land,64,351526,0.0-23.0-1.0,"""event"",""trial"",""time""
""fullscreenenter"",""1"",""5401""
","
","
","""event"",""trial"",""time""
""fullscreenenter"",""1"",""5401""
","
",,null,run_exp/static/images/task_images/land.jpg,null,,,,,,,98,,,1,,,,,,,,,,,,,,
dig,65,353539,0.0-23.0-2.0,"""event"",""trial"",""time""
""fullscreenenter"",""1"",""5401""
","
","
","""event"",""trial"",""time""
""fullscreenenter"",""1"",""5401""
","
",,,,,,,,,,,,"[{""stimulus"":""run_exp/static/images/task_images/dig.jpg"",""time"":0.5},{""stimulus"":""run_exp/static/images/task_images/land.jpg"",""time"":680},{""stimulus"":""run_exp/static/images/task_images/dig.jpg"",""time"":1339.3999999761581}]",[],1,,,,,,,,,,,,,,
harvest,66,354555,0.0-23.0-3.0,"""event"",""trial"",""time""
""fullscreenenter"",""1"",""5401""
","
","
","""event"",""trial"",""time""
""fullscreenenter"",""1"",""5401""
","
",,null,run_exp/static/images/task_images/gems/98.jpg,null,,,,,,,14,,,1,,,,,98,0.144653029,0.142857143,,,,,,,
decision,67,355015,0.0-23.0-4.0,"""event"",""trial"",""time""
""fullscreenenter"",""1"",""5401""
","
","
","""event"",""trial"",""time""
""fullscreenenter"",""1"",""5401""
","
",,459.1,run_exp/static/images/task_images/land.jpg,65,,,,,,,14,,,1,,,,,,,,9007,1,0,FALSE,,,
dig,68,357560,0.0-24.0-0.0,"""event"",""trial"",""time""
""fullscreenenter"",""1"",""5401""
","
","
","""event"",""trial"",""time""
""fullscreenenter"",""1"",""5401""
","
",,,,,,,,,,,,"[{""stimulus"":""run_exp/static/images/task_images/dig.jpg"",""time"":0.10000002384185791},{""stimulus"":""run_exp/static/images/task_images/land.jpg"",""time"":850.2999999523163},{""stimulus"":""run_exp/static/images/task_images/dig.jpg"",""time"":1697.6000000238419}]",[],1,,,,,,,,,,,,,,
harvest,69,358574,0.0-24.0-1.0,"""event"",""trial"",""time""
""fullscreenenter"",""1"",""5401""
","
","
","""event"",""trial"",""time""
""fullscreenenter"",""1"",""5401""
","
",,null,run_exp/static/images/task_images/gems/14.jpg,null,,,,,,,3,,,1,,,,,14,0.219840492,0.214285714,,,,,,,
decision,70,359478,0.0-24.0-2.0,"""event"",""trial"",""time""
""fullscreenenter"",""1"",""5401""
","
","
","""event"",""trial"",""time""
""fullscreenenter"",""1"",""5401""
","
",,902.6999999,run_exp/static/images/task_images/land.jpg,76,,,,,,,3,,,1,,,,,,,,13469,1,1,TRUE,,,
travel,71,368578,0.0-25.0-0.0,"""event"",""trial"",""time""
""fullscreenenter"",""1"",""5401""
","
","
","""event"",""trial"",""time""
""fullscreenenter"",""1"",""5401""
","
",,,,,,,,,,,,"[{""stimulus"":""run_exp/static/images/task_images/rocket-01.jpg"",""time"":0.20000004768371582},{""stimulus"":""run_exp/static/images/task_images/rocket-02.jpg"",""time"":1020.1000000238419},{""stimulus"":""run_exp/static/images/task_images/rocket-03.jpg"",""time"":2024.8000000715256},{""stimulus"":""run_exp/static/images/task_images/rocket-04.jpg"",""time"":3044.2000000476837},{""stimulus"":""run_exp/static/images/task_images/rocket-05.jpg"",""time"":4043.3000000715256},{""stimulus"":""run_exp/static/images/task_images/rocket-06.jpg"",""time"":5051.600000023842},{""stimulus"":""run_exp/static/images/task_images/rocket-07.jpg"",""time"":6067.800000071526},{""stimulus"":""run_exp/static/images/task_images/rocket-08.jpg"",""time"":7084.700000047684},{""stimulus"":""run_exp/static/images/task_images/rocket-09.jpg"",""time"":8088.900000095367}]",[],1,,,,,,,,,,,,,,
alien_welcome,72,373587,0.0-25.0-1.0,"""event"",""trial"",""time""
""fullscreenenter"",""1"",""5401""
","
","
","""event"",""trial"",""time""
""fullscreenenter"",""1"",""5401""
","
",,null,run_exp/static/images/task_images/aliens/old_aliens/planet/alien_planet-41.jpg,null,,,,,,,,,,,,,41,"21,41,24,33,19,61,58,14,16,76,67,46,23,22,18,8,7,71,3,28,9,5,60,62,29,17,48,40,78,70,4,32,74,72,10,34,64,1,11,2,51,63,69,25,56,55,66,54,36,52,31",,,,,,,,,,
land,73,374107,0.0-25.0-2.0,"""event"",""trial"",""time""
""fullscreenenter"",""1"",""5401""
","
","
","""event"",""trial"",""time""
""fullscreenenter"",""1"",""5401""
","
",,null,run_exp/static/images/task_images/land.jpg,null,,,,,,,104,,,2,,,,,,,,,,,,,,
dig,74,376112,0.0-25.0-3.0,"""event"",""trial"",""time""
""fullscreenenter"",""1"",""5401""
","
","
","""event"",""trial"",""time""
""fullscreenenter"",""1"",""5401""
","
",,,,,,,,,,,,"[{""stimulus"":""run_exp/static/images/task_images/dig.jpg"",""time"":0.20000004768371582},{""stimulus"":""run_exp/static/images/task_images/land.jpg"",""time"":678.8999999761581},{""stimulus"":""run_exp/static/images/task_images/dig.jpg"",""time"":1345.6000000238419}]",[],2,,,,,,,,,,,,,,
harvest,75,377132,0.0-25.0-4.0,"""event"",""trial"",""time""
""fullscreenenter"",""1"",""5401""
","
","
","""event"",""trial"",""time""
""fullscreenenter"",""1"",""5401""
","
",,null,run_exp/static/images/task_images/gems/104.jpg,null,,,,,,,24,,,2,,,,,104,0.230711683,0.230769231,,,,,,,
decision,76,377554,0.0-25.0-5.0,"""event"",""trial"",""time""
""fullscreenenter"",""1"",""5401""
","
","
","""event"",""trial"",""time""
""fullscreenenter"",""1"",""5401""
","
",,420.1,run_exp/static/images/task_images/land.jpg,65,,,,,,,24,,,2,,,,,,,,31545,1,0,FALSE,,,
dig,77,380137,0.0-26.0-0.0,"""event"",""trial"",""time""
""fullscreenenter"",""1"",""5401""
","
","
","""event"",""trial"",""time""
""fullscreenenter"",""1"",""5401""
","
",,,,,,,,,,,,"[{""stimulus"":""run_exp/static/images/task_images/dig.jpg"",""time"":0.20000004768371582},{""stimulus"":""run_exp/static/images/task_images/land.jpg"",""time"":867.3000000715256},{""stimulus"":""run_exp/static/images/task_images/dig.jpg"",""time"":1731.3000000715256}]",[],2,,,,,,,,,,,,,,
harvest,78,381152,0.0-26.0-1.0,"""event"",""trial"",""time""
""fullscreenenter"",""1"",""5401""
","
","
","""event"",""trial"",""time""
""fullscreenenter"",""1"",""5401""
","
",,null,run_exp/static/images/task_images/gems/24.jpg,null,,,,,,,6,,,2,,,,,24,0.239130341,0.25,,,,,,,
decision,79,381512,0.0-26.0-2.0,"""event"",""trial"",""time""
""fullscreenenter"",""1"",""5401""
","
","
","""event"",""trial"",""time""
""fullscreenenter"",""1"",""5401""
","
",,358.8,run_exp/static/images/task_images/land.jpg,65,,,,,,,6,,,2,,,,,,,,35503,1,1,FALSE,,,
dig,80,384168,0.0-27.0-0.0,"""event"",""trial"",""time""
""fullscreenenter"",""1"",""5401""
","
","
","""event"",""trial"",""time""
""fullscreenenter"",""1"",""5401""
","
",,,,,,,,,,,,"[{""stimulus"":""run_exp/static/images/task_images/dig.jpg"",""time"":0.2999999523162842},{""stimulus"":""run_exp/static/images/task_images/land.jpg"",""time"":885.5},{""stimulus"":""run_exp/static/images/task_images/dig.jpg"",""time"":1766.6999999284744}]",[],2,,,,,,,,,,,,,,
harvest,81,385185,0.0-27.0-1.0,"""event"",""trial"",""time""
""fullscreenenter"",""1"",""5401""
","
","
","""event"",""trial"",""time""
""fullscreenenter"",""1"",""5401""
","
",,null,run_exp/static/images/task_images/gems/6.jpg,null,,,,,,,1,,,2,,,,,6,0.12676071,0.166666667,,,,,,,
decision,82,385646,0.0-27.0-2.0,"""event"",""trial"",""time""
""fullscreenenter"",""1"",""5401""
","
","
","""event"",""trial"",""time""
""fullscreenenter"",""1"",""5401""
","
",,458.8,run_exp/static/images/task_images/land.jpg,76,,,,,,,1,,,2,,,,,,,,39637,1,2,TRUE,,,
travel,83,395195,0.0-28.0-0.0,"""event"",""trial"",""time""
""fullscreenenter"",""1"",""5401""
","
","
","""event"",""trial"",""time""
""fullscreenenter"",""1"",""5401""
","
",,,,,,,,,,,,"[{""stimulus"":""run_exp/static/images/task_images/rocket-01.jpg"",""time"":0.10000002384185791},{""stimulus"":""run_exp/static/images/task_images/rocket-02.jpg"",""time"":1062.7999999523163},{""stimulus"":""run_exp/static/images/task_images/rocket-03.jpg"",""time"":2127.7999999523163},{""stimulus"":""run_exp/static/images/task_images/rocket-04.jpg"",""time"":3186.5},{""stimulus"":""run_exp/static/images/task_images/rocket-05.jpg"",""time"":4249.600000023842},{""stimulus"":""run_exp/static/images/task_images/rocket-06.jpg"",""time"":5314.299999952316},{""stimulus"":""run_exp/static/images/task_images/rocket-07.jpg"",""time"":6373.700000047684},{""stimulus"":""run_exp/static/images/task_images/rocket-08.jpg"",""time"":7432.299999952316},{""stimulus"":""run_exp/static/images/task_images/rocket-09.jpg"",""time"":8496.100000023842}]",[],2,,,,,,,,,,,,,,
alien_welcome,84,400217,0.0-28.0-1.0,"""event"",""trial"",""time""
""fullscreenenter"",""1"",""5401""
","
","
","""event"",""trial"",""time""
""fullscreenenter"",""1"",""5401""
","
",,null,run_exp/static/images/task_images/aliens/old_aliens/planet/alien_planet-24.jpg,null,,,,,,,,,,,,,24,"21,41,24,33,19,61,58,14,16,76,67,46,23,22,18,8,7,71,3,28,9,5,60,62,29,17,48,40,78,70,4,32,74,72,10,34,64,1,11,2,51,63,69,25,56,55,66,54,36,52,31",,,,,,,,,,
land,85,400727,0.0-28.0-2.0,"""event"",""trial"",""time""
""fullscreenenter"",""1"",""5401""
","
","
","""event"",""trial"",""time""
""fullscreenenter"",""1"",""5401""
","
",,null,run_exp/static/images/task_images/land.jpg,null,,,,,,,95,,,3,,,,,,,,,,,,,,
dig,86,402740,0.0-28.0-3.0,"""event"",""trial"",""time""
""fullscreenenter"",""1"",""5401""
","
","
","""event"",""trial"",""time""
""fullscreenenter"",""1"",""5401""
","
",,,,,,,,,,,,"[{""stimulus"":""run_exp/static/images/task_images/dig.jpg"",""time"":0.19999992847442627},{""stimulus"":""run_exp/static/images/task_images/land.jpg"",""time"":678.1999999284744},{""stimulus"":""run_exp/static/images/task_images/dig.jpg"",""time"":1337}]",[],3,,,,,,,,,,,,,,
harvest,87,403757,0.0-28.0-4.0,"""event"",""trial"",""time""
""fullscreenenter"",""1"",""5401""
","
","
","""event"",""trial"",""time""
""fullscreenenter"",""1"",""5401""
","
",,null,run_exp/static/images/task_images/gems/95.jpg,null,,,,,,,45,,,3,,,,,95,0.476348076,0.473684211,,,,,,,
decision,88,404116,0.0-28.0-5.0,"""event"",""trial"",""time""
""fullscreenenter"",""1"",""5401""
","
","
","""event"",""trial"",""time""
""fullscreenenter"",""1"",""5401""
","
",,357.1999999,run_exp/static/images/task_images/land.jpg,65,,,,,,,45,,,3,,,,,,,,58107,1,0,FALSE,,,
dig,89,406771,0.0-29.0-0.0,"""event"",""trial"",""time""
""fullscreenenter"",""1"",""5401""
","
","
","""event"",""trial"",""time""
""fullscreenenter"",""1"",""5401""
","
",,,,,,,,,,,,"[{""stimulus"":""run_exp/static/images/task_images/dig.jpg"",""time"":0.10000002384185791},{""stimulus"":""run_exp/static/images/task_images/land.jpg"",""time"":884.3999999761581},{""stimulus"":""run_exp/static/images/task_images/dig.jpg"",""time"":1768.7999999523163}]",[],3,,,,,,,,,,,,,,
harvest,90,407787,0.0-29.0-1.0,"""event"",""trial"",""time""
""fullscreenenter"",""1"",""5401""
","
","
","""event"",""trial"",""time""
""fullscreenenter"",""1"",""5401""
","
",,null,run_exp/static/images/task_images/gems/45.jpg,null,,,,,,,24,,,3,,,,,45,0.53965938,0.533333333,,,,,,,
decision,91,408585,0.0-29.0-2.0,"""event"",""trial"",""time""
""fullscreenenter"",""1"",""5401""
","
","
","""event"",""trial"",""time""
""fullscreenenter"",""1"",""5401""
","
",,796.4000001,run_exp/static/images/task_images/land.jpg,76,,,,,,,24,,,3,,,,,,,,62576,1,1,TRUE,,,
travel,92,417800,0.0-30.0-0.0,"""event"",""trial"",""time""
""fullscreenenter"",""1"",""5401""
","
","
","""event"",""trial"",""time""
""fullscreenenter"",""1"",""5401""
","
",,,,,,,,,,,,"[{""stimulus"":""run_exp/static/images/task_images/rocket-01.jpg"",""time"":0.2999999523162842},{""stimulus"":""run_exp/static/images/task_images/rocket-02.jpg"",""time"":1028.2000000476837},{""stimulus"":""run_exp/static/images/task_images/rocket-03.jpg"",""time"":2053.399999976158},{""stimulus"":""run_exp/static/images/task_images/rocket-04.jpg"",""time"":3069.2000000476837},{""stimulus"":""run_exp/static/images/task_images/rocket-05.jpg"",""time"":4089.7000000476837},{""stimulus"":""run_exp/static/images/task_images/rocket-06.jpg"",""time"":5114.299999952316},{""stimulus"":""run_exp/static/images/task_images/rocket-07.jpg"",""time"":6132.799999952316},{""stimulus"":""run_exp/static/images/task_images/rocket-08.jpg"",""time"":7161.700000047684},{""stimulus"":""run_exp/static/images/task_images/rocket-09.jpg"",""time"":8178.899999976158}]",[],3,,,,,,,,,,,,,,
alien_welcome,93,422820,0.0-30.0-1.0,"""event"",""trial"",""time""
""fullscreenenter"",""1"",""5401""
","
","
","""event"",""trial"",""time""
""fullscreenenter"",""1"",""5401""
","
",,null,run_exp/static/images/task_images/aliens/old_aliens/planet/alien_planet-33.jpg,null,,,,,,,,,,,,,33,"21,41,24,33,19,61,58,14,16,76,67,46,23,22,18,8,7,71,3,28,9,5,60,62,29,17,48,40,78,70,4,32,74,72,10,34,64,1,11,2,51,63,69,25,56,55,66,54,36,52,31",,,,,,,,,,
land,94,423333,0.0-30.0-2.0,"""event"",""trial"",""time""
""fullscreenenter"",""1"",""5401""
","
","
","""event"",""trial"",""time""
""fullscreenenter"",""1"",""5401""
","
",,null,run_exp/static/images/task_images/land.jpg,null,,,,,,,101,,,4,,,,,,,,,,,,,,
dig,95,425356,0.0-30.0-3.0,"""event"",""trial"",""time""
""fullscreenenter"",""1"",""5401""
","
","
","""event"",""trial"",""time""
""fullscreenenter"",""1"",""5401""
","
",,,,,,,,,,,,"[{""stimulus"":""run_exp/static/images/task_images/dig.jpg"",""time"":0.3999999761581421},{""stimulus"":""run_exp/static/images/task_images/land.jpg"",""time"":675.8999999761581},{""stimulus"":""run_exp/static/images/task_images/dig.jpg"",""time"":1338}]",[],4,,,,,,,,,,,,,,
harvest,96,426377,0.0-30.0-4.0,"""event"",""trial"",""time""
""fullscreenenter"",""1"",""5401""
","
","
","""event"",""trial"",""time""
""fullscreenenter"",""1"",""5401""
","
",,null,run_exp/static/images/task_images/gems/101.jpg,null,,,,,,,52,,,4,,,,,101,0.515801628,0.514851485,,,,,,,
decision,97,426854,0.0-30.0-5.0,"""event"",""trial"",""time""
""fullscreenenter"",""1"",""5401""
","
","
","""event"",""trial"",""time""
""fullscreenenter"",""1"",""5401""
","
",,475.9,run_exp/static/images/task_images/land.jpg,65,,,,,,,52,,,4,,,,,,,,80845,1,0,FALSE,,,
dig,98,429393,0.0-31.0-0.0,"""event"",""trial"",""time""
""fullscreenenter"",""1"",""5401""
","
","
","""event"",""trial"",""time""
""fullscreenenter"",""1"",""5401""
","
",,,,,,,,,,,,"[{""stimulus"":""run_exp/static/images/task_images/dig.jpg"",""time"":0.10000002384185791},{""stimulus"":""run_exp/static/images/task_images/land.jpg"",""time"":843.5},{""stimulus"":""run_exp/static/images/task_images/dig.jpg"",""time"":1685.3000000715256}]",[],4,,,,,,,,,,,,,,
harvest,99,430409,0.0-31.0-1.0,"""event"",""trial"",""time""
""fullscreenenter"",""1"",""5401""
","
","
","""event"",""trial"",""time""
""fullscreenenter"",""1"",""5401""
","
",,null,run_exp/static/images/task_images/gems/52.jpg,null,,,,,,,29,,,4,,,,,52,0.548354314,0.557692308,,,,,,,
decision,100,430465,0.0-31.0-2.0,"""event"",""trial"",""time""
""fullscreenenter"",""1"",""5401""
","
","
","""event"",""trial"",""time""
""fullscreenenter"",""1"",""5401""
","
",,55.19999993,run_exp/static/images/task_images/land.jpg,76,,,,,,,29,,,4,,,,,,,,84456,1,1,TRUE,,,
travel,101,440407,0.0-32.0-0.0,"""event"",""trial"",""time""
""fullscreenenter"",""1"",""5401""
","
","
","""event"",""trial"",""time""
""fullscreenenter"",""1"",""5401""
","
",,,,,,,,,,,,"[{""stimulus"":""run_exp/static/images/task_images/rocket-01.jpg"",""time"":0.19999992847442627},{""stimulus"":""run_exp/static/images/task_images/rocket-02.jpg"",""time"":1108.1000000238419},{""stimulus"":""run_exp/static/images/task_images/rocket-03.jpg"",""time"":2209.1999999284744},{""stimulus"":""run_exp/static/images/task_images/rocket-04.jpg"",""time"":3321.100000023842},{""stimulus"":""run_exp/static/images/task_images/rocket-05.jpg"",""time"":4419.299999952316},{""stimulus"":""run_exp/static/images/task_images/rocket-06.jpg"",""time"":5528.799999952316},{""stimulus"":""run_exp/static/images/task_images/rocket-07.jpg"",""time"":6628.100000023842},{""stimulus"":""run_exp/static/images/task_images/rocket-08.jpg"",""time"":7731.199999928474},{""stimulus"":""run_exp/static/images/task_images/rocket-09.jpg"",""time"":8845.199999928474}]",[],4,,,,,,,,,,,,,,
alien_welcome,102,445428,0.0-32.0-1.0,"""event"",""trial"",""time""
""fullscreenenter"",""1"",""5401""
","
","
","""event"",""trial"",""time""
""fullscreenenter"",""1"",""5401""
","
",,null,run_exp/static/images/task_images/aliens/old_aliens/planet/alien_planet-19.jpg,null,,,,,,,,,,,,,19,"21,41,24,33,19,61,58,14,16,76,67,46,23,22,18,8,7,71,3,28,9,5,60,62,29,17,48,40,78,70,4,32,74,72,10,34,64,1,11,2,51,63,69,25,56,55,66,54,36,52,31",,,,,,,,,,
land,103,445938,0.0-32.0-2.0,"""event"",""trial"",""time""
""fullscreenenter"",""1"",""5401""
","
","
","""event"",""trial"",""time""
""fullscreenenter"",""1"",""5401""
","
",,null,run_exp/static/images/task_images/land.jpg,null,,,,,,,86,,,5,,,,,,,,,,,,,,
dig,104,447956,0.0-32.0-3.0,"""event"",""trial"",""time""
""fullscreenenter"",""1"",""5401""
","
","
","""event"",""trial"",""time""
""fullscreenenter"",""1"",""5401""
","
",,,,,,,,,,,,"[{""stimulus"":""run_exp/static/images/task_images/dig.jpg"",""time"":0.2999999523162842},{""stimulus"":""run_exp/static/images/task_images/land.jpg"",""time"":671.2000000476837},{""stimulus"":""run_exp/static/images/task_images/dig.jpg"",""time"":1337}]",[],5,,,,,,,,,,,,,,
harvest,105,448968,0.0-32.0-4.0,"""event"",""trial"",""time""
""fullscreenenter"",""1"",""5401""
","
","
","""event"",""trial"",""time""
""fullscreenenter"",""1"",""5401""
","
",,null,run_exp/static/images/task_images/gems/86.jpg,null,,,,,,,42,,,5,,,,,86,0.489490225,0.488372093,,,,,,,
decision,106,449391,0.0-32.0-5.0,"""event"",""trial"",""time""
""fullscreenenter"",""1"",""5401""
","
","
","""event"",""trial"",""time""
""fullscreenenter"",""1"",""5401""
","
",,422.4,run_exp/static/images/task_images/land.jpg,65,,,,,,,42,,,5,,,,,,,,103383,1,0,FALSE,,,
dig,107,451981,0.0-33.0-0.0,"""event"",""trial"",""time""
""fullscreenenter"",""1"",""5401""
","
","
","""event"",""trial"",""time""
""fullscreenenter"",""1"",""5401""
","
",,,,,,,,,,,,"[{""stimulus"":""run_exp/static/images/task_images/dig.jpg"",""time"":0.19999992847442627},{""stimulus"":""run_exp/static/images/task_images/land.jpg"",""time"":862.1000000238419},{""stimulus"":""run_exp/static/images/task_images/dig.jpg"",""time"":1723}]",[],5,,,,,,,,,,,,,,
harvest,108,452991,0.0-33.0-1.0,"""event"",""trial"",""time""
""fullscreenenter"",""1"",""5401""
","
","
","""event"",""trial"",""time""
""fullscreenenter"",""1"",""5401""
","
",,null,run_exp/static/images/task_images/gems/42.jpg,null,,,,,,,22,,,5,,,,,42,0.533347624,0.523809524,,,,,,,
decision,109,453185,0.0-33.0-2.0,"""event"",""trial"",""time""
""fullscreenenter"",""1"",""5401""
","
","
","""event"",""trial"",""time""
""fullscreenenter"",""1"",""5401""
","
",,193.5,run_exp/static/images/task_images/land.jpg,76,,,,,,,22,,,5,,,,,,,,107176,1,1,TRUE,,,
travel,110,462997,0.0-34.0-0.0,"""event"",""trial"",""time""
""fullscreenenter"",""1"",""5401""
","
","
","""event"",""trial"",""time""
""fullscreenenter"",""1"",""5401""
","
",,,,,,,,,,,,"[{""stimulus"":""run_exp/static/images/task_images/rocket-01.jpg"",""time"":0.10000002384185791},{""stimulus"":""run_exp/static/images/task_images/rocket-02.jpg"",""time"":1093.7000000476837},{""stimulus"":""run_exp/static/images/task_images/rocket-03.jpg"",""time"":2179.7000000476837},{""stimulus"":""run_exp/static/images/task_images/rocket-04.jpg"",""time"":3273.7999999523163},{""stimulus"":""run_exp/static/images/task_images/rocket-05.jpg"",""time"":4369.5},{""stimulus"":""run_exp/static/images/task_images/rocket-06.jpg"",""time"":5450.299999952316},{""stimulus"":""run_exp/static/images/task_images/rocket-07.jpg"",""time"":6539.100000023842},{""stimulus"":""run_exp/static/images/task_images/rocket-08.jpg"",""time"":7636.600000023842},{""stimulus"":""run_exp/static/images/task_images/rocket-09.jpg"",""time"":8719.600000023842}]",[],5,,,,,,,,,,,,,,
alien_welcome,111,468012,0.0-34.0-1.0,"""event"",""trial"",""time""
""fullscreenenter"",""1"",""5401""
","
","
","""event"",""trial"",""time""
""fullscreenenter"",""1"",""5401""
","
",,null,run_exp/static/images/task_images/aliens/old_aliens/planet/alien_planet-61.jpg,null,,,,,,,,,,,,,61,"21,41,24,33,19,61,58,14,16,76,67,46,23,22,18,8,7,71,3,28,9,5,60,62,29,17,48,40,78,70,4,32,74,72,10,34,64,1,11,2,51,63,69,25,56,55,66,54,36,52,31",,,,,,,,,,
land,112,468518,0.0-34.0-2.0,"""event"",""trial"",""time""
""fullscreenenter"",""1"",""5401""
","
","
","""event"",""trial"",""time""
""fullscreenenter"",""1"",""5401""
","
",,null,run_exp/static/images/task_images/land.jpg,null,,,,,,,101,,,6,,,,,,,,,,,,,,
dig,113,470537,0.0-34.0-3.0,"""event"",""trial"",""time""
""fullscreenenter"",""1"",""5401""
","
","
","""event"",""trial"",""time""
""fullscreenenter"",""1"",""5401""
","
",,,,,,,,,,,,"[{""stimulus"":""run_exp/static/images/task_images/dig.jpg"",""time"":0.3999999761581421},{""stimulus"":""run_exp/static/images/task_images/land.jpg"",""time"":678.1000000238419},{""stimulus"":""run_exp/static/images/task_images/dig.jpg"",""time"":1345.6999999284744}]",[],6,,,,,,,,,,,,,,
harvest,114,471561,0.0-34.0-4.0,"""event"",""trial"",""time""
""fullscreenenter"",""1"",""5401""
","
","
","""event"",""trial"",""time""
""fullscreenenter"",""1"",""5401""
","
",,null,run_exp/static/images/task_images/gems/101.jpg,null,,,,,,,77,,,6,,,,,101,0.759872981,0.762376238,,,,,,,
decision,115,472047,0.0-34.0-5.0,"""event"",""trial"",""time""
""fullscreenenter"",""1"",""5401""
","
","
","""event"",""trial"",""time""
""fullscreenenter"",""1"",""5401""
","
",,484.5,run_exp/static/images/task_images/land.jpg,76,,,,,,,77,,,6,,,,,,,,126038,1,0,TRUE,,,
travel,116,481565,0.0-35.0-0.0,"""event"",""trial"",""time""
""fullscreenenter"",""1"",""5401""
","
","
","""event"",""trial"",""time""
""fullscreenenter"",""1"",""5401""
","
",,,,,,,,,,,,"[{""stimulus"":""run_exp/static/images/task_images/rocket-01.jpg"",""time"":0.30000007152557373},{""stimulus"":""run_exp/static/images/task_images/rocket-02.jpg"",""time"":1068.4000000953674},{""stimulus"":""run_exp/static/images/task_images/rocket-03.jpg"",""time"":2129.600000023842},{""stimulus"":""run_exp/static/images/task_images/rocket-04.jpg"",""time"":3183.9000000953674},{""stimulus"":""run_exp/static/images/task_images/rocket-05.jpg"",""time"":4241.600000023842},{""stimulus"":""run_exp/static/images/task_images/rocket-06.jpg"",""time"":5287.100000023842},{""stimulus"":""run_exp/static/images/task_images/rocket-07.jpg"",""time"":6353},{""stimulus"":""run_exp/static/images/task_images/rocket-08.jpg"",""time"":7410.800000071526},{""stimulus"":""run_exp/static/images/task_images/rocket-09.jpg"",""time"":8464.700000047684}]",[],6,,,,,,,,,,,,,,
alien_welcome,117,486576,0.0-35.0-1.0,"""event"",""trial"",""time""
""fullscreenenter"",""1"",""5401""
","
","
","""event"",""trial"",""time""
""fullscreenenter"",""1"",""5401""
","
",,null,run_exp/static/images/task_images/aliens/old_aliens/planet/alien_planet-58.jpg,null,,,,,,,,,,,,,58,"21,41,24,33,19,61,58,14,16,76,67,46,23,22,18,8,7,71,3,28,9,5,60,62,29,17,48,40,78,70,4,32,74,72,10,34,64,1,11,2,51,63,69,25,56,55,66,54,36,52,31",,,,,,,,,,
land,118,487090,0.0-35.0-2.0,"""event"",""trial"",""time""
""fullscreenenter"",""1"",""5401""
","
","
","""event"",""trial"",""time""
""fullscreenenter"",""1"",""5401""
","
",,null,run_exp/static/images/task_images/land.jpg,null,,,,,,,103,,,7,,,,,,,,,,,,,,
dig,119,489106,0.0-35.0-3.0,"""event"",""trial"",""time""
""fullscreenenter"",""1"",""5401""
","
","
","""event"",""trial"",""time""
""fullscreenenter"",""1"",""5401""
","
",,,,,,,,,,,,"[{""stimulus"":""run_exp/static/images/task_images/dig.jpg"",""time"":0.2999999523162842},{""stimulus"":""run_exp/static/images/task_images/land.jpg"",""time"":669.1999999284744},{""stimulus"":""run_exp/static/images/task_images/dig.jpg"",""time"":1344.2999999523163}]",[],7,,,,,,,,,,,,,,
harvest,120,490120,0.0-35.0-4.0,"""event"",""trial"",""time""
""fullscreenenter"",""1"",""5401""
","
","
","""event"",""trial"",""time""
""fullscreenenter"",""1"",""5401""
","
",,null,run_exp/static/images/task_images/gems/103.jpg,null,,,,,,,83,,,7,,,,,103,0.809990664,0.805825243,,,,,,,
decision,121,490501,0.0-35.0-5.0,"""event"",""trial"",""time""
""fullscreenenter"",""1"",""5401""
","
","
","""event"",""trial"",""time""
""fullscreenenter"",""1"",""5401""
","
",,379.4,run_exp/static/images/task_images/land.jpg,65,,,,,,,83,,,7,,,,,,,,144492,1,0,FALSE,,,
dig,122,493136,0.0-36.0-0.0,"""event"",""trial"",""time""
""fullscreenenter"",""1"",""5401""
","
","
","""event"",""trial"",""time""
""fullscreenenter"",""1"",""5401""
","
",,,,,,,,,,,,"[{""stimulus"":""run_exp/static/images/task_images/dig.jpg"",""time"":0.20000004768371582},{""stimulus"":""run_exp/static/images/task_images/land.jpg"",""time"":879},{""stimulus"":""run_exp/static/images/task_images/dig.jpg"",""time"":1759.1000000238419}]",[],7,,,,,,,,,,,,,,
harvest,123,494153,0.0-36.0-1.0,"""event"",""trial"",""time""
""fullscreenenter"",""1"",""5401""
","
","
","""event"",""trial"",""time""
""fullscreenenter"",""1"",""5401""
","
",,null,run_exp/static/images/task_images/gems/83.jpg,null,,,,,,,63,,,7,,,,,83,0.761527886,0.759036145,,,,,,,
decision,124,494449,0.0-36.0-2.0,"""event"",""trial"",""time""
""fullscreenenter"",""1"",""5401""
","
","
","""event"",""trial"",""time""
""fullscreenenter"",""1"",""5401""
","
",,294.4,run_exp/static/images/task_images/land.jpg,76,,,,,,,63,,,7,,,,,,,,148440,1,1,TRUE,,,
travel,125,504165,0.0-37.0-0.0,"""event"",""trial"",""time""
""fullscreenenter"",""1"",""5401""
","
","
","""event"",""trial"",""time""
""fullscreenenter"",""1"",""5401""
","
",,,,,,,,,,,,"[{""stimulus"":""run_exp/static/images/task_images/rocket-01.jpg"",""time"":0.20000004768371582},{""stimulus"":""run_exp/static/images/task_images/rocket-02.jpg"",""time"":1078.8000000715256},{""stimulus"":""run_exp/static/images/task_images/rocket-03.jpg"",""time"":2157.3000000715256},{""stimulus"":""run_exp/static/images/task_images/rocket-04.jpg"",""time"":3236.600000023842},{""stimulus"":""run_exp/static/images/task_images/rocket-05.jpg"",""time"":4324.899999976158},{""stimulus"":""run_exp/static/images/task_images/rocket-06.jpg"",""time"":5400},{""stimulus"":""run_exp/static/images/task_images/rocket-07.jpg"",""time"":6470.200000047684},{""stimulus"":""run_exp/static/images/task_images/rocket-08.jpg"",""time"":7551},{""stimulus"":""run_exp/static/images/task_images/rocket-09.jpg"",""time"":8627.100000023842}]",[],7,,,,,,,,,,,,,,
alien_welcome,126,509205,0.0-37.0-1.0,"""event"",""trial"",""time""
""fullscreenenter"",""1"",""5401""
","
","
","""event"",""trial"",""time""
""fullscreenenter"",""1"",""5401""
","
",,null,run_exp/static/images/task_images/aliens/old_aliens/planet/alien_planet-14.jpg,null,,,,,,,,,,,,,14,"21,41,24,33,19,61,58,14,16,76,67,46,23,22,18,8,7,71,3,28,9,5,60,62,29,17,48,40,78,70,4,32,74,72,10,34,64,1,11,2,51,63,69,25,56,55,66,54,36,52,31",,,,,,,,,,
land,127,509719,0.0-37.0-2.0,"""event"",""trial"",""time""
""fullscreenenter"",""1"",""5401""
","
","
","""event"",""trial"",""time""
""fullscreenenter"",""1"",""5401""
","
",,null,run_exp/static/images/task_images/land.jpg,null,,,,,,,104,,,8,,,,,,,,,,,,,,
dig,128,511729,0.0-37.0-3.0,"""event"",""trial"",""time""
""fullscreenenter"",""1"",""5401""
","
","
","""event"",""trial"",""time""
""fullscreenenter"",""1"",""5401""
","
",,,,,,,,,,,,"[{""stimulus"":""run_exp/static/images/task_images/dig.jpg"",""time"":0.2999999523162842},{""stimulus"":""run_exp/static/images/task_images/land.jpg"",""time"":680},{""stimulus"":""run_exp/static/images/task_images/dig.jpg"",""time"":1347.6000000238419}]",[],8,,,,,,,,,,,,,,
harvest,129,512745,0.0-37.0-4.0,"""event"",""trial"",""time""
""fullscreenenter"",""1"",""5401""
","
","
","""event"",""trial"",""time""
""fullscreenenter"",""1"",""5401""
","
",,null,run_exp/static/images/task_images/gems/104.jpg,null,,,,,,,75,,,8,,,,,104,0.72050616,0.721153846,,,,,,,
decision,130,513064,0.0-37.0-5.0,"""event"",""trial"",""time""
""fullscreenenter"",""1"",""5401""
","
","
","""event"",""trial"",""time""
""fullscreenenter"",""1"",""5401""
","
",,317.3000001,run_exp/static/images/task_images/land.jpg,65,,,,,,,75,,,8,,,,,,,,167055,1,0,FALSE,,,
dig,131,515761,0.0-38.0-0.0,"""event"",""trial"",""time""
""fullscreenenter"",""1"",""5401""
","
","
","""event"",""trial"",""time""
""fullscreenenter"",""1"",""5401""
","
",,,,,,,,,,,,"[{""stimulus"":""run_exp/static/images/task_images/dig.jpg"",""time"":0.10000002384185791},{""stimulus"":""run_exp/static/images/task_images/land.jpg"",""time"":898.8000000715256},{""stimulus"":""run_exp/static/images/task_images/dig.jpg"",""time"":1791.3999999761581}]",[],8,,,,,,,,,,,,,,
harvest,132,516778,0.0-38.0-1.0,"""event"",""trial"",""time""
""fullscreenenter"",""1"",""5401""
","
","
","""event"",""trial"",""time""
""fullscreenenter"",""1"",""5401""
","
",,null,run_exp/static/images/task_images/gems/75.jpg,null,,,,,,,55,,,8,,,,,75,0.732403664,0.733333333,,,,,,,
decision,133,517218,0.0-38.0-2.0,"""event"",""trial"",""time""
""fullscreenenter"",""1"",""5401""
","
","
","""event"",""trial"",""time""
""fullscreenenter"",""1"",""5401""
","
",,439,run_exp/static/images/task_images/land.jpg,76,,,,,,,55,,,8,,,,,,,,171209,1,1,TRUE,,,
travel,134,526789,0.0-39.0-0.0,"""event"",""trial"",""time""
""fullscreenenter"",""1"",""5401""
","
","
","""event"",""trial"",""time""
""fullscreenenter"",""1"",""5401""
","
",,,,,,,,,,,,"[{""stimulus"":""run_exp/static/images/task_images/rocket-01.jpg"",""time"":0.10000002384185791},{""stimulus"":""run_exp/static/images/task_images/rocket-02.jpg"",""time"":1067},{""stimulus"":""run_exp/static/images/task_images/rocket-03.jpg"",""time"":2131},{""stimulus"":""run_exp/static/images/task_images/rocket-04.jpg"",""time"":3198.899999976158},{""stimulus"":""run_exp/static/images/task_images/rocket-05.jpg"",""time"":4261.899999976158},{""stimulus"":""run_exp/static/images/task_images/rocket-06.jpg"",""time"":5320},{""stimulus"":""run_exp/static/images/task_images/rocket-07.jpg"",""time"":6380.799999952316},{""stimulus"":""run_exp/static/images/task_images/rocket-08.jpg"",""time"":7438.199999928474},{""stimulus"":""run_exp/static/images/task_images/rocket-09.jpg"",""time"":8499.199999928474}]",[],8,,,,,,,,,,,,,,
alien_welcome,135,531807,0.0-39.0-1.0,"""event"",""trial"",""time""
""fullscreenenter"",""1"",""5401""
","
","
","""event"",""trial"",""time""
""fullscreenenter"",""1"",""5401""
","
",,null,run_exp/static/images/task_images/aliens/old_aliens/planet/alien_planet-16.jpg,null,,,,,,,,,,,,,16,"21,41,24,33,19,61,58,14,16,76,67,46,23,22,18,8,7,71,3,28,9,5,60,62,29,17,48,40,78,70,4,32,74,72,10,34,64,1,11,2,51,63,69,25,56,55,66,54,36,52,31",,,,,,,,,,
land,136,532320,0.0-39.0-2.0,"""event"",""trial"",""time""
""fullscreenenter"",""1"",""5401""
","
","
","""event"",""trial"",""time""
""fullscreenenter"",""1"",""5401""
","
",,null,run_exp/static/images/task_images/land.jpg,null,,,,,,,94,,,9,,,,,,,,,,,,,,
dig,137,534328,0.0-39.0-3.0,"""event"",""trial"",""time""
""fullscreenenter"",""1"",""5401""
","
","
","""event"",""trial"",""time""
""fullscreenenter"",""1"",""5401""
","
",,,,,,,,,,,,"[{""stimulus"":""run_exp/static/images/task_images/dig.jpg"",""time"":0.30000007152557373},{""stimulus"":""run_exp/static/images/task_images/land.jpg"",""time"":680.9000000953674},{""stimulus"":""run_exp/static/images/task_images/dig.jpg"",""time"":1346.9000000953674}]",[],9,,,,,,,,,,,,,,
harvest,138,535339,0.0-39.0-4.0,"""event"",""trial"",""time""
""fullscreenenter"",""1"",""5401""
","
","
","""event"",""trial"",""time""
""fullscreenenter"",""1"",""5401""
","
",,null,run_exp/static/images/task_images/gems/94.jpg,null,,,,,,,25,,,9,,,,,94,0.263480199,0.265957447,,,,,,,
decision,139,535829,0.0-39.0-5.0,"""event"",""trial"",""time""
""fullscreenenter"",""1"",""5401""
","
","
","""event"",""trial"",""time""
""fullscreenenter"",""1"",""5401""
","
",,488.5999999,run_exp/static/images/task_images/land.jpg,65,,,,,,,25,,,9,,,,,,,,189820,1,0,FALSE,,,
dig,140,538346,0.0-40.0-0.0,"""event"",""trial"",""time""
""fullscreenenter"",""1"",""5401""
","
","
","""event"",""trial"",""time""
""fullscreenenter"",""1"",""5401""
","
",,,,,,,,,,,,"[{""stimulus"":""run_exp/static/images/task_images/dig.jpg"",""time"":0.20000004768371582},{""stimulus"":""run_exp/static/images/task_images/land.jpg"",""time"":838.1000000238419},{""stimulus"":""run_exp/static/images/task_images/dig.jpg"",""time"":1680.6000000238419}]",[],9,,,,,,,,,,,,,,
harvest,141,539356,0.0-40.0-1.0,"""event"",""trial"",""time""
""fullscreenenter"",""1"",""5401""
","
","
","""event"",""trial"",""time""
""fullscreenenter"",""1"",""5401""
","
",,null,run_exp/static/images/task_images/gems/25.jpg,null,,,,,,,6,,,9,,,,,25,0.233058203,0.24,,,,,,,
decision,142,539656,0.0-40.0-2.0,"""event"",""trial"",""time""
""fullscreenenter"",""1"",""5401""
","
","
","""event"",""trial"",""time""
""fullscreenenter"",""1"",""5401""
","
",,299.1999999,run_exp/static/images/task_images/land.jpg,76,,,,,,,6,,,9,,,,,,,,193647,1,1,TRUE,,,
travel,143,549366,0.0-41.0-0.0,"""event"",""trial"",""time""
""fullscreenenter"",""1"",""5401""
","
","
","""event"",""trial"",""time""
""fullscreenenter"",""1"",""5401""
","
",,,,,,,,,,,,"[{""stimulus"":""run_exp/static/images/task_images/rocket-01.jpg"",""time"":0.10000002384185791},{""stimulus"":""run_exp/static/images/task_images/rocket-02.jpg"",""time"":1086.5},{""stimulus"":""run_exp/static/images/task_images/rocket-03.jpg"",""time"":2157.6999999284744},{""stimulus"":""run_exp/static/images/task_images/rocket-04.jpg"",""time"":3232.899999976158},{""stimulus"":""run_exp/static/images/task_images/rocket-05.jpg"",""time"":4311.199999928474},{""stimulus"":""run_exp/static/images/task_images/rocket-06.jpg"",""time"":5386.899999976158},{""stimulus"":""run_exp/static/images/task_images/rocket-07.jpg"",""time"":6467},{""stimulus"":""run_exp/static/images/task_images/rocket-08.jpg"",""time"":7542.5},{""stimulus"":""run_exp/static/images/task_images/rocket-09.jpg"",""time"":8630.5}]",[],9,,,,,,,,,,,,,,
alien_welcome,144,554386,0.0-41.0-1.0,"""event"",""trial"",""time""
""fullscreenenter"",""1"",""5401""
","
","
","""event"",""trial"",""time""
""fullscreenenter"",""1"",""5401""
","
",,null,run_exp/static/images/task_images/aliens/old_aliens/planet/alien_planet-76.jpg,null,,,,,,,,,,,,,76,"21,41,24,33,19,61,58,14,16,76,67,46,23,22,18,8,7,71,3,28,9,5,60,62,29,17,48,40,78,70,4,32,74,72,10,34,64,1,11,2,51,63,69,25,56,55,66,54,36,52,31",,,,,,,,,,
land,145,554908,0.0-41.0-2.0,"""event"",""trial"",""time""
""fullscreenenter"",""1"",""5401""
","
","
","""event"",""trial"",""time""
""fullscreenenter"",""1"",""5401""
","
",,null,run_exp/static/images/task_images/land.jpg,null,,,,,,,108,,,10,,,,,,,,,,,,,,
dig,146,556917,0.0-41.0-3.0,"""event"",""trial"",""time""
""fullscreenenter"",""1"",""5401""
","
","
","""event"",""trial"",""time""
""fullscreenenter"",""1"",""5401""
","
",,,,,,,,,,,,"[{""stimulus"":""run_exp/static/images/task_images/dig.jpg"",""time"":0.30000007152557373},{""stimulus"":""run_exp/static/images/task_images/land.jpg"",""time"":670.2000000476837},{""stimulus"":""run_exp/static/images/task_images/dig.jpg"",""time"":1346.3000000715256}]",[],10,,,,,,,,,,,,,,
harvest,147,557929,0.0-41.0-4.0,"""event"",""trial"",""time""
""fullscreenenter"",""1"",""5401""
","
","
","""event"",""trial"",""time""
""fullscreenenter"",""1"",""5401""
","
",,null,run_exp/static/images/task_images/gems/108.jpg,null,,,,,,,28,,,10,,,,,108,0.260874956,0.259259259,,,,,,,
decision,148,558393,0.0-41.0-5.0,"""event"",""trial"",""time""
""fullscreenenter"",""1"",""5401""
","
","
","""event"",""trial"",""time""
""fullscreenenter"",""1"",""5401""
","
",,462.9,run_exp/static/images/task_images/land.jpg,65,,,,,,,28,,,10,,,,,,,,212385,1,0,FALSE,,,
dig,149,560936,0.0-42.0-0.0,"""event"",""trial"",""time""
""fullscreenenter"",""1"",""5401""
","
","
","""event"",""trial"",""time""
""fullscreenenter"",""1"",""5401""
","
",,,,,,,,,,,,"[{""stimulus"":""run_exp/static/images/task_images/dig.jpg"",""time"":0.20000004768371582},{""stimulus"":""run_exp/static/images/task_images/land.jpg"",""time"":849.3999999761581},{""stimulus"":""run_exp/static/images/task_images/dig.jpg"",""time"":1694.3999999761581}]",[],10,,,,,,,,,,,,,,
harvest,150,561948,0.0-42.0-1.0,"""event"",""trial"",""time""
""fullscreenenter"",""1"",""5401""
","
","
","""event"",""trial"",""time""
""fullscreenenter"",""1"",""5401""
","
",,null,run_exp/static/images/task_images/gems/28.jpg,null,,,,,,,8,,,10,,,,,28,0.294628156,0.285714286,,,,,,,
decision,151,562113,0.0-42.0-2.0,"""event"",""trial"",""time""
""fullscreenenter"",""1"",""5401""
","
","
","""event"",""trial"",""time""
""fullscreenenter"",""1"",""5401""
","
",,162.5,run_exp/static/images/task_images/land.jpg,76,,,,,,,8,,,10,,,,,,,,216104,1,1,TRUE,,,
travel,152,571965,0.0-43.0-0.0,"""event"",""trial"",""time""
""fullscreenenter"",""1"",""5401""
","
","
","""event"",""trial"",""time""
""fullscreenenter"",""1"",""5401""
","
",,,,,,,,,,,,"[{""stimulus"":""run_exp/static/images/task_images/rocket-01.jpg"",""time"":0.20000004768371582},{""stimulus"":""run_exp/static/images/task_images/rocket-02.jpg"",""time"":1099},{""stimulus"":""run_exp/static/images/task_images/rocket-03.jpg"",""time"":2189.5},{""stimulus"":""run_exp/static/images/task_images/rocket-04.jpg"",""time"":3284.899999976158},{""stimulus"":""run_exp/static/images/task_images/rocket-05.jpg"",""time"":4376.399999976158},{""stimulus"":""run_exp/static/images/task_images/rocket-06.jpg"",""time"":5479.799999952316},{""stimulus"":""run_exp/static/images/task_images/rocket-07.jpg"",""time"":6569.899999976158},{""stimulus"":""run_exp/static/images/task_images/rocket-08.jpg"",""time"":7663.700000047684},{""stimulus"":""run_exp/static/images/task_images/rocket-09.jpg"",""time"":8761.200000047684}]",[],10,,,,,,,,,,,,,,
alien_welcome,153,576972,0.0-43.0-1.0,"""event"",""trial"",""time""
""fullscreenenter"",""1"",""5401""
","
","
","""event"",""trial"",""time""
""fullscreenenter"",""1"",""5401""
","
",,null,run_exp/static/images/task_images/aliens/old_aliens/planet/alien_planet-67.jpg,null,,,,,,,,,,,,,67,"21,41,24,33,19,61,58,14,16,76,67,46,23,22,18,8,7,71,3,28,9,5,60,62,29,17,48,40,78,70,4,32,74,72,10,34,64,1,11,2,51,63,69,25,56,55,66,54,36,52,31",,,,,,,,,,
land,154,577483,0.0-43.0-2.0,"""event"",""trial"",""time""
""fullscreenenter"",""1"",""5401""
","
","
","""event"",""trial"",""time""
""fullscreenenter"",""1"",""5401""
","
",,null,run_exp/static/images/task_images/land.jpg,null,,,,,,,103,,,11,,,,,,,,,,,,,,
dig,155,579497,0.0-43.0-3.0,"""event"",""trial"",""time""
""fullscreenenter"",""1"",""5401""
","
","
","""event"",""trial"",""time""
""fullscreenenter"",""1"",""5401""
","
",,,,,,,,,,,,"[{""stimulus"":""run_exp/static/images/task_images/dig.jpg"",""time"":0.19999992847442627},{""stimulus"":""run_exp/static/images/task_images/land.jpg"",""time"":669.0999999046326},{""stimulus"":""run_exp/static/images/task_images/dig.jpg"",""time"":1339.6999999284744}]",[],11,,,,,,,,,,,,,,
harvest,156,580512,0.0-43.0-4.0,"""event"",""trial"",""time""
""fullscreenenter"",""1"",""5401""
","
","
","""event"",""trial"",""time""
""fullscreenenter"",""1"",""5401""
","
",,null,run_exp/static/images/task_images/gems/103.jpg,null,,,,,,,21,,,11,,,,,103,0.199576773,0.203883495,,,,,,,
decision,157,581272,0.0-43.0-5.0,"""event"",""trial"",""time""
""fullscreenenter"",""1"",""5401""
","
","
","""event"",""trial"",""time""
""fullscreenenter"",""1"",""5401""
","
",,758.6999999,run_exp/static/images/task_images/land.jpg,65,,,,,,,21,,,11,,,,,,,,235263,1,0,FALSE,,,
dig,158,583528,0.0-44.0-0.0,"""event"",""trial"",""time""
""fullscreenenter"",""1"",""5401""
","
","
","""event"",""trial"",""time""
""fullscreenenter"",""1"",""5401""
","
",,,,,,,,,,,,"[{""stimulus"":""run_exp/static/images/task_images/dig.jpg"",""time"":0.20000004768371582},{""stimulus"":""run_exp/static/images/task_images/land.jpg"",""time"":748.6000000238419},{""stimulus"":""run_exp/static/images/task_images/dig.jpg"",""time"":1509.3000000715256}]",[],11,,,,,,,,,,,,,,
harvest,159,584533,0.0-44.0-1.0,"""event"",""trial"",""time""
""fullscreenenter"",""1"",""5401""
","
","
","""event"",""trial"",""time""
""fullscreenenter"",""1"",""5401""
","
",,null,run_exp/static/images/task_images/gems/21.jpg,null,,,,,,,4,,,11,,,,,21,0.202705701,0.19047619,,,,,,,
decision,160,584988,0.0-44.0-2.0,"""event"",""trial"",""time""
""fullscreenenter"",""1"",""5401""
","
","
","""event"",""trial"",""time""
""fullscreenenter"",""1"",""5401""
","
",,452.8000001,run_exp/static/images/task_images/land.jpg,76,,,,,,,4,,,11,,,,,,,,238979,1,1,TRUE,,,
travel,161,594545,0.0-45.0-0.0,"""event"",""trial"",""time""
""fullscreenenter"",""1"",""5401""
","
","
","""event"",""trial"",""time""
""fullscreenenter"",""1"",""5401""
","
",,,,,,,,,,,,"[{""stimulus"":""run_exp/static/images/task_images/rocket-01.jpg"",""time"":0.20000004768371582},{""stimulus"":""run_exp/static/images/task_images/rocket-02.jpg"",""time"":1074.8999999761581},{""stimulus"":""run_exp/static/images/task_images/rocket-03.jpg"",""time"":2128.2000000476837},{""stimulus"":""run_exp/static/images/task_images/rocket-04.jpg"",""time"":3188.7999999523163},{""stimulus"":""run_exp/static/images/task_images/rocket-05.jpg"",""time"":4255.200000047684},{""stimulus"":""run_exp/static/images/task_images/rocket-06.jpg"",""time"":5316.899999976158},{""stimulus"":""run_exp/static/images/task_images/rocket-07.jpg"",""time"":6365.700000047684},{""stimulus"":""run_exp/static/images/task_images/rocket-08.jpg"",""time"":7425.399999976158},{""stimulus"":""run_exp/static/images/task_images/rocket-09.jpg"",""time"":8492.100000023842}]",[],11,,,,,,,,,,,,,,
alien_welcome,162,599548,0.0-45.0-1.0,"""event"",""trial"",""time""
""fullscreenenter"",""1"",""5401""
","
","
","""event"",""trial"",""time""
""fullscreenenter"",""1"",""5401""
","
",,null,run_exp/static/images/task_images/aliens/old_aliens/planet/alien_planet-46.jpg,null,,,,,,,,,,,,,46,"21,41,24,33,19,61,58,14,16,76,67,46,23,22,18,8,7,71,3,28,9,5,60,62,29,17,48,40,78,70,4,32,74,72,10,34,64,1,11,2,51,63,69,25,56,55,66,54,36,52,31",,,,,,,,,,
land,163,600062,0.0-45.0-2.0,"""event"",""trial"",""time""
""fullscreenenter"",""1"",""5401""
","
","
","""event"",""trial"",""time""
""fullscreenenter"",""1"",""5401""
","
",,null,run_exp/static/images/task_images/land.jpg,null,,,,,,,105,,,12,,,,,,,,,,,,,,
dig,164,602076,0.0-45.0-3.0,"""event"",""trial"",""time""
""fullscreenenter"",""1"",""5401""
","
","
","""event"",""trial"",""time""
""fullscreenenter"",""1"",""5401""
","
",,,,,,,,,,,,"[{""stimulus"":""run_exp/static/images/task_images/dig.jpg"",""time"":0.19999992847442627},{""stimulus"":""run_exp/static/images/task_images/land.jpg"",""time"":680.6000000238419},{""stimulus"":""run_exp/static/images/task_images/dig.jpg"",""time"":1339.8999999761581}]",[],12,,,,,,,,,,,,,,
harvest,165,603092,0.0-45.0-4.0,"""event"",""trial"",""time""
""fullscreenenter"",""1"",""5401""
","
","
","""event"",""trial"",""time""
""fullscreenenter"",""1"",""5401""
","
",,null,run_exp/static/images/task_images/gems/105.jpg,null,,,,,,,11,,,12,,,,,105,0.109255219,0.104761905,,,,,,,
decision,166,603499,0.0-45.0-5.0,"""event"",""trial"",""time""
""fullscreenenter"",""1"",""5401""
","
","
","""event"",""trial"",""time""
""fullscreenenter"",""1"",""5401""
","
",,404.9000001,run_exp/static/images/task_images/land.jpg,65,,,,,,,11,,,12,,,,,,,,257490,1,0,FALSE,,,
dig,167,606112,0.0-46.0-0.0,"""event"",""trial"",""time""
""fullscreenenter"",""1"",""5401""
","
","
","""event"",""trial"",""time""
""fullscreenenter"",""1"",""5401""
","
",,,,,,,,,,,,"[{""stimulus"":""run_exp/static/images/task_images/dig.jpg"",""time"":0.10000002384185791},{""stimulus"":""run_exp/static/images/task_images/land.jpg"",""time"":869.7999999523163},{""stimulus"":""run_exp/static/images/task_images/dig.jpg"",""time"":1744.8999999761581}]",[],12,,,,,,,,,,,,,,
harvest,168,607131,0.0-46.0-1.0,"""event"",""trial"",""time""
""fullscreenenter"",""1"",""5401""
","
","
","""event"",""trial"",""time""
""fullscreenenter"",""1"",""5401""
","
",,null,run_exp/static/images/task_images/gems/11.jpg,null,,,,,,,2,,,12,,,,,11,0.179488586,0.181818182,,,,,,,
decision,169,607157,0.0-46.0-2.0,"""event"",""trial"",""time""
""fullscreenenter"",""1"",""5401""
","
","
","""event"",""trial"",""time""
""fullscreenenter"",""1"",""5401""
","
",,24.20000005,run_exp/static/images/task_images/land.jpg,76,,,,,,,2,,,12,,,,,,,,261148,1,1,TRUE,,,
travel,170,617147,0.0-47.0-0.0,"""event"",""trial"",""time""
""fullscreenenter"",""1"",""5401""
","
","
","""event"",""trial"",""time""
""fullscreenenter"",""1"",""5401""
","
",,,,,,,,,,,,"[{""stimulus"":""run_exp/static/images/task_images/rocket-01.jpg"",""time"":0.09999990463256836},{""stimulus"":""run_exp/static/images/task_images/rocket-02.jpg"",""time"":1110.5999999046326},{""stimulus"":""run_exp/static/images/task_images/rocket-03.jpg"",""time"":2230.399999976158},{""stimulus"":""run_exp/static/images/task_images/rocket-04.jpg"",""time"":3326.6999999284744},{""stimulus"":""run_exp/static/images/task_images/rocket-05.jpg"",""time"":4445.5},{""stimulus"":""run_exp/static/images/task_images/rocket-06.jpg"",""time"":5550.799999952316},{""stimulus"":""run_exp/static/images/task_images/rocket-07.jpg"",""time"":6656.699999928474},{""stimulus"":""run_exp/static/images/task_images/rocket-08.jpg"",""time"":7762.199999928474},{""stimulus"":""run_exp/static/images/task_images/rocket-09.jpg"",""time"":8870.799999952316}]",[],12,,,,,,,,,,,,,,
alien_welcome,171,622161,0.0-47.0-1.0,"""event"",""trial"",""time""
""fullscreenenter"",""1"",""5401""
","
","
","""event"",""trial"",""time""
""fullscreenenter"",""1"",""5401""
","
",,null,run_exp/static/images/task_images/aliens/old_aliens/planet/alien_planet-23.jpg,null,,,,,,,,,,,,,23,"21,41,24,33,19,61,58,14,16,76,67,46,23,22,18,8,7,71,3,28,9,5,60,62,29,17,48,40,78,70,4,32,74,72,10,34,64,1,11,2,51,63,69,25,56,55,66,54,36,52,31",,,,,,,,,,
land,172,622674,0.0-47.0-2.0,"""event"",""trial"",""time""
""fullscreenenter"",""1"",""5401""
","
","
","""event"",""trial"",""time""
""fullscreenenter"",""1"",""5401""
","
",,null,run_exp/static/images/task_images/land.jpg,null,,,,,,,95,,,13,,,,,,,,,,,,,,
dig,173,624685,0.0-47.0-3.0,"""event"",""trial"",""time""
""fullscreenenter"",""1"",""5401""
","
","
","""event"",""trial"",""time""
""fullscreenenter"",""1"",""5401""
","
",,,,,,,,,,,,"[{""stimulus"":""run_exp/static/images/task_images/dig.jpg"",""time"":0.10000002384185791},{""stimulus"":""run_exp/static/images/task_images/land.jpg"",""time"":673.3999999761581},{""stimulus"":""run_exp/static/images/task_images/dig.jpg"",""time"":1341.8999999761581}]",[],13,,,,,,,,,,,,,,
harvest,174,625697,0.0-47.0-4.0,"""event"",""trial"",""time""
""fullscreenenter"",""1"",""5401""
","
","
","""event"",""trial"",""time""
""fullscreenenter"",""1"",""5401""
","
",,null,run_exp/static/images/task_images/gems/95.jpg,null,,,,,,,24,,,13,,,,,95,0.25782169,0.252631579,,,,,,,
decision,175,626354,0.0-47.0-5.0,"""event"",""trial"",""time""
""fullscreenenter"",""1"",""5401""
","
","
","""event"",""trial"",""time""
""fullscreenenter"",""1"",""5401""
","
",,656,run_exp/static/images/task_images/land.jpg,65,,,,,,,24,,,13,,,,,,,,280345,1,0,FALSE,,,
dig,176,628702,0.0-48.0-0.0,"""event"",""trial"",""time""
""fullscreenenter"",""1"",""5401""
","
","
","""event"",""trial"",""time""
""fullscreenenter"",""1"",""5401""
","
",,,,,,,,,,,,"[{""stimulus"":""run_exp/static/images/task_images/dig.jpg"",""time"":0.10000002384185791},{""stimulus"":""run_exp/static/images/task_images/land.jpg"",""time"":790.7999999523163},{""stimulus"":""run_exp/static/images/task_images/dig.jpg"",""time"":1574.3999999761581}]",[],13,,,,,,,,,,,,,,
harvest,177,629709,0.0-48.0-1.0,"""event"",""trial"",""time""
""fullscreenenter"",""1"",""5401""
","
","
","""event"",""trial"",""time""
""fullscreenenter"",""1"",""5401""
","
",,null,run_exp/static/images/task_images/gems/24.jpg,null,,,,,,,5,,,13,,,,,24,0.227767669,0.208333333,,,,,,,
decision,178,629755,0.0-48.0-2.0,"""event"",""trial"",""time""
""fullscreenenter"",""1"",""5401""
","
","
","""event"",""trial"",""time""
""fullscreenenter"",""1"",""5401""
","
",,44.69999993,run_exp/static/images/task_images/land.jpg,76,,,,,,,5,,,13,,,,,,,,283747,1,1,TRUE,,,
travel,179,639721,0.0-49.0-0.0,"""event"",""trial"",""time""
""fullscreenenter"",""1"",""5401""
","
","
","""event"",""trial"",""time""
""fullscreenenter"",""1"",""5401""
","
",,,,,,,,,,,,"[{""stimulus"":""run_exp/static/images/task_images/rocket-01.jpg"",""time"":0.10000002384185791},{""stimulus"":""run_exp/static/images/task_images/rocket-02.jpg"",""time"":1107.8000000715256},{""stimulus"":""run_exp/static/images/task_images/rocket-03.jpg"",""time"":2226.600000023842},{""stimulus"":""run_exp/static/images/task_images/rocket-04.jpg"",""time"":3321.7000000476837},{""stimulus"":""run_exp/static/images/task_images/rocket-05.jpg"",""time"":4431.200000047684},{""stimulus"":""run_exp/static/images/task_images/rocket-06.jpg"",""time"":5542},{""stimulus"":""run_exp/static/images/task_images/rocket-07.jpg"",""time"":6641.800000071526},{""stimulus"":""run_exp/static/images/task_images/rocket-08.jpg"",""time"":7746.600000023842},{""stimulus"":""run_exp/static/images/task_images/rocket-09.jpg"",""time"":8851.100000023842}]",[],13,,,,,,,,,,,,,,
alien_welcome,180,644738,0.0-49.0-1.0,"""event"",""trial"",""time""
""fullscreenenter"",""1"",""5401""
","
","
","""event"",""trial"",""time""
""fullscreenenter"",""1"",""5401""
","
",,null,run_exp/static/images/task_images/aliens/old_aliens/planet/alien_planet-22.jpg,null,,,,,,,,,,,,,22,"21,41,24,33,19,61,58,14,16,76,67,46,23,22,18,8,7,71,3,28,9,5,60,62,29,17,48,40,78,70,4,32,74,72,10,34,64,1,11,2,51,63,69,25,56,55,66,54,36,52,31",,,,,,,,,,
land,181,645251,0.0-49.0-2.0,"""event"",""trial"",""time""
""fullscreenenter"",""1"",""5401""
","
","
","""event"",""trial"",""time""
""fullscreenenter"",""1"",""5401""
","
",,null,run_exp/static/images/task_images/land.jpg,null,,,,,,,102,,,14,,,,,,,,,,,,,,
dig,182,647256,0.0-49.0-3.0,"""event"",""trial"",""time""
""fullscreenenter"",""1"",""5401""
","
","
","""event"",""trial"",""time""
""fullscreenenter"",""1"",""5401""
","
",,,,,,,,,,,,"[{""stimulus"":""run_exp/static/images/task_images/dig.jpg"",""time"":0.2999999523162842},{""stimulus"":""run_exp/static/images/task_images/land.jpg"",""time"":677.1999999284744},{""stimulus"":""run_exp/static/images/task_images/dig.jpg"",""time"":1348.3999999761581}]",[],14,,,,,,,,,,,,,,
harvest,183,648275,0.0-49.0-4.0,"""event"",""trial"",""time""
""fullscreenenter"",""1"",""5401""
","
","
","""event"",""trial"",""time""
""fullscreenenter"",""1"",""5401""
","
",,null,run_exp/static/images/task_images/gems/102.jpg,null,,,,,,,84,,,14,,,,,102,0.827313164,0.823529412,,,,,,,
decision,184,648538,0.0-49.0-5.0,"""event"",""trial"",""time""
""fullscreenenter"",""1"",""5401""
","
","
","""event"",""trial"",""time""
""fullscreenenter"",""1"",""5401""
","
",,261.6,run_exp/static/images/task_images/land.jpg,65,,,,,,,84,,,14,,,,,,,,302529,1,0,TRUE,,,
end_of_block_continue,185,657415,0.0-50.0-0.0,"""event"",""trial"",""time""
""fullscreenenter"",""1"",""5401""
","
","
","""event"",""trial"",""time""
""fullscreenenter"",""1"",""5401""
","
",,null,run_exp/static/audio/clip_32_block_end.m4a,,,,,,,null,,,,,,,,,,,,,,,,,,
alien_welcome,186,662432,0.0-51.0-0.0,"""event"",""trial"",""time""
""fullscreenenter"",""1"",""5401""
","
","
","""event"",""trial"",""time""
""fullscreenenter"",""1"",""5401""
","
",,null,run_exp/static/images/task_images/aliens/old_aliens/planet/alien_planet-18.jpg,null,,,,,,,,,,,,,18,"21,41,24,33,19,61,58,14,16,76,67,46,23,22,18,8,7,71,3,28,9,5,60,62,29,17,48,40,78,70,4,32,74,72,10,34,64,1,11,2,51,63,69,25,56,55,66,54,36,52,31",,,,,,,,,,
land,187,662947,0.0-51.0-1.0,"""event"",""trial"",""time""
""fullscreenenter"",""1"",""5401""
","
","
","""event"",""trial"",""time""
""fullscreenenter"",""1"",""5401""
","
",,null,run_exp/static/images/task_images/land.jpg,null,,,,,,,114,,,15,,,,,,,,,,,,,,
dig,188,664956,0.0-51.0-2.0,"""event"",""trial"",""time""
""fullscreenenter"",""1"",""5401""
","
","
","""event"",""trial"",""time""
""fullscreenenter"",""1"",""5401""
","
",,,,,,,,,,,,"[{""stimulus"":""run_exp/static/images/task_images/dig.jpg"",""time"":0.8000000715255737},{""stimulus"":""run_exp/static/images/task_images/land.jpg"",""time"":679.5},{""stimulus"":""run_exp/static/images/task_images/dig.jpg"",""time"":1345.6000000238419}]",[],15,,,,,,,,,,,,,,
harvest,189,665972,0.0-51.0-3.0,"""event"",""trial"",""time""
""fullscreenenter"",""1"",""5401""
","
","
","""event"",""trial"",""time""
""fullscreenenter"",""1"",""5401""
","
",,null,run_exp/static/images/task_images/gems/114.jpg,null,,,,,,,30,,,15,,,,,114,0.260228965,0.263157895,,,,,,,
decision,190,666508,0.0-51.0-4.0,"""event"",""trial"",""time""
""fullscreenenter"",""1"",""5401""
","
","
","""event"",""trial"",""time""
""fullscreenenter"",""1"",""5401""
","
",,535.3000001,run_exp/static/images/task_images/land.jpg,65,,,,,,,30,,,15,,,,,,,,9090,2,0,FALSE,,,
dig,191,668987,0.0-52.0-0.0,"""event"",""trial"",""time""
""fullscreenenter"",""1"",""5401""
","
","
","""event"",""trial"",""time""
""fullscreenenter"",""1"",""5401""
","
",,,,,,,,,,,,"[{""stimulus"":""run_exp/static/images/task_images/dig.jpg"",""time"":0.10000002384185791},{""stimulus"":""run_exp/static/images/task_images/land.jpg"",""time"":823.2999999523163},{""stimulus"":""run_exp/static/images/task_images/dig.jpg"",""time"":1671.2999999523163}]",[],15,,,,,,,,,,,,,,
harvest,192,669999,0.0-52.0-1.0,"""event"",""trial"",""time""
""fullscreenenter"",""1"",""5401""
","
","
","""event"",""trial"",""time""
""fullscreenenter"",""1"",""5401""
","
",,null,run_exp/static/images/task_images/gems/30.jpg,null,,,,,,,6,,,15,,,,,30,0.214619065,0.2,,,,,,,
decision,193,670486,0.0-52.0-2.0,"""event"",""trial"",""time""
""fullscreenenter"",""1"",""5401""
","
","
","""event"",""trial"",""time""
""fullscreenenter"",""1"",""5401""
","
",,486.3000001,run_exp/static/images/task_images/land.jpg,76,,,,,,,6,,,15,,,,,,,,13068,2,1,TRUE,,,
travel,194,680011,0.0-53.0-0.0,"""event"",""trial"",""time""
""fullscreenenter"",""1"",""5401""
","
","
","""event"",""trial"",""time""
""fullscreenenter"",""1"",""5401""
","
",,,,,,,,,,,,"[{""stimulus"":""run_exp/static/images/task_images/rocket-01.jpg"",""time"":0.20000004768371582},{""stimulus"":""run_exp/static/images/task_images/rocket-02.jpg"",""time"":1069.7000000476837},{""stimulus"":""run_exp/static/images/task_images/rocket-03.jpg"",""time"":2129},{""stimulus"":""run_exp/static/images/task_images/rocket-04.jpg"",""time"":3182.600000023842},{""stimulus"":""run_exp/static/images/task_images/rocket-05.jpg"",""time"":4233.100000023842},{""stimulus"":""run_exp/static/images/task_images/rocket-06.jpg"",""time"":5295.800000071526},{""stimulus"":""run_exp/static/images/task_images/rocket-07.jpg"",""time"":6350.200000047684},{""stimulus"":""run_exp/static/images/task_images/rocket-08.jpg"",""time"":7409.400000095367},{""stimulus"":""run_exp/static/images/task_images/rocket-09.jpg"",""time"":8469.400000095367}]",[],15,,,,,,,,,,,,,,
alien_welcome,195,685020,0.0-53.0-1.0,"""event"",""trial"",""time""
""fullscreenenter"",""1"",""5401""
","
","
","""event"",""trial"",""time""
""fullscreenenter"",""1"",""5401""
","
",,null,run_exp/static/images/task_images/aliens/old_aliens/planet/alien_planet-8.jpg,null,,,,,,,,,,,,,8,"21,41,24,33,19,61,58,14,16,76,67,46,23,22,18,8,7,71,3,28,9,5,60,62,29,17,48,40,78,70,4,32,74,72,10,34,64,1,11,2,51,63,69,25,56,55,66,54,36,52,31",,,,,,,,,,
land,196,685549,0.0-53.0-2.0,"""event"",""trial"",""time""
""fullscreenenter"",""1"",""5401""
","
","
","""event"",""trial"",""time""
""fullscreenenter"",""1"",""5401""
","
",,null,run_exp/static/images/task_images/land.jpg,null,,,,,,,96,,,16,,,,,,,,,,,,,,
dig,197,687562,0.0-53.0-3.0,"""event"",""trial"",""time""
""fullscreenenter"",""1"",""5401""
","
","
","""event"",""trial"",""time""
""fullscreenenter"",""1"",""5401""
","
",,,,,,,,,,,,"[{""stimulus"":""run_exp/static/images/task_images/dig.jpg"",""time"":0.2999999523162842},{""stimulus"":""run_exp/static/images/task_images/land.jpg"",""time"":671.1000000238419},{""stimulus"":""run_exp/static/images/task_images/dig.jpg"",""time"":1345.5}]",[],16,,,,,,,,,,,,,,
harvest,198,688580,0.0-53.0-4.0,"""event"",""trial"",""time""
""fullscreenenter"",""1"",""5401""
","
","
","""event"",""trial"",""time""
""fullscreenenter"",""1"",""5401""
","
",,null,run_exp/static/images/task_images/gems/96.jpg,null,,,,,,,28,,,16,,,,,96,0.288513937,0.291666667,,,,,,,
decision,199,689366,0.0-53.0-5.0,"""event"",""trial"",""time""
""fullscreenenter"",""1"",""5401""
","
","
","""event"",""trial"",""time""
""fullscreenenter"",""1"",""5401""
","
",,784.7,run_exp/static/images/task_images/land.jpg,65,,,,,,,28,,,16,,,,,,,,31948,2,0,FALSE,,,
dig,200,691588,0.0-54.0-0.0,"""event"",""trial"",""time""
""fullscreenenter"",""1"",""5401""
","
","
","""event"",""trial"",""time""
""fullscreenenter"",""1"",""5401""
","
",,,,,,,,,,,,"[{""stimulus"":""run_exp/static/images/task_images/dig.jpg"",""time"":0.2999999523162842},{""stimulus"":""run_exp/static/images/task_images/land.jpg"",""time"":750.5},{""stimulus"":""run_exp/static/images/task_images/dig.jpg"",""time"":1489}]",[],16,,,,,,,,,,,,,,
harvest,201,692597,0.0-54.0-1.0,"""event"",""trial"",""time""
""fullscreenenter"",""1"",""5401""
","
","
","""event"",""trial"",""time""
""fullscreenenter"",""1"",""5401""
","
",,null,run_exp/static/images/task_images/gems/28.jpg,null,,,,,,,6,,,16,,,,,28,0.206871753,0.214285714,,,,,,,
decision,202,693083,0.0-54.0-2.0,"""event"",""trial"",""time""
""fullscreenenter"",""1"",""5401""
","
","
","""event"",""trial"",""time""
""fullscreenenter"",""1"",""5401""
","
",,484.7,run_exp/static/images/task_images/land.jpg,76,,,,,,,6,,,16,,,,,,,,35666,2,1,TRUE,,,
travel,203,702611,0.0-55.0-0.0,"""event"",""trial"",""time""
""fullscreenenter"",""1"",""5401""
","
","
","""event"",""trial"",""time""
""fullscreenenter"",""1"",""5401""
","
",,,,,,,,,,,,"[{""stimulus"":""run_exp/static/images/task_images/rocket-01.jpg"",""time"":0.19999992847442627},{""stimulus"":""run_exp/static/images/task_images/rocket-02.jpg"",""time"":1068.6999999284744},{""stimulus"":""run_exp/static/images/task_images/rocket-03.jpg"",""time"":2123.2999999523163},{""stimulus"":""run_exp/static/images/task_images/rocket-04.jpg"",""time"":3174.899999976158},{""stimulus"":""run_exp/static/images/task_images/rocket-05.jpg"",""time"":4234.5},{""stimulus"":""run_exp/static/images/task_images/rocket-06.jpg"",""time"":5298.199999928474},{""stimulus"":""run_exp/static/images/task_images/rocket-07.jpg"",""time"":6356.899999976158},{""stimulus"":""run_exp/static/images/task_images/rocket-08.jpg"",""time"":7409.699999928474},{""stimulus"":""run_exp/static/images/task_images/rocket-09.jpg"",""time"":8467.699999928474}]",[],16,,,,,,,,,,,,,,
alien_welcome,204,707617,0.0-55.0-1.0,"""event"",""trial"",""time""
""fullscreenenter"",""1"",""5401""
","
","
","""event"",""trial"",""time""
""fullscreenenter"",""1"",""5401""
","
",,null,run_exp/static/images/task_images/aliens/old_aliens/planet/alien_planet-7.jpg,null,,,,,,,,,,,,,7,"21,41,24,33,19,61,58,14,16,76,67,46,23,22,18,8,7,71,3,28,9,5,60,62,29,17,48,40,78,70,4,32,74,72,10,34,64,1,11,2,51,63,69,25,56,55,66,54,36,52,31",,,,,,,,,,
land,205,708138,0.0-55.0-2.0,"""event"",""trial"",""time""
""fullscreenenter"",""1"",""5401""
","
","
","""event"",""trial"",""time""
""fullscreenenter"",""1"",""5401""
","
",,null,run_exp/static/images/task_images/land.jpg,null,,,,,,,105,,,17,,,,,,,,,,,,,,
dig,206,710145,0.0-55.0-3.0,"""event"",""trial"",""time""
""fullscreenenter"",""1"",""5401""
","
","
","""event"",""trial"",""time""
""fullscreenenter"",""1"",""5401""
","
",,,,,,,,,,,,"[{""stimulus"":""run_exp/static/images/task_images/dig.jpg"",""time"":0.30000007152557373},{""stimulus"":""run_exp/static/images/task_images/land.jpg"",""time"":673},{""stimulus"":""run_exp/static/images/task_images/dig.jpg"",""time"":1345.8999999761581}]",[],17,,,,,,,,,,,,,,
harvest,207,711155,0.0-55.0-4.0,"""event"",""trial"",""time""
""fullscreenenter"",""1"",""5401""
","
","
","""event"",""trial"",""time""
""fullscreenenter"",""1"",""5401""
","
",,null,run_exp/static/images/task_images/gems/105.jpg,null,,,,,,,16,,,17,,,,,105,0.156486253,0.152380952,,,,,,,
decision,208,711641,0.0-55.0-5.0,"""event"",""trial"",""time""
""fullscreenenter"",""1"",""5401""
","
","
","""event"",""trial"",""time""
""fullscreenenter"",""1"",""5401""
","
",,485.3000001,run_exp/static/images/task_images/land.jpg,65,,,,,,,16,,,17,,,,,,,,54223,2,0,FALSE,,,
dig,209,714172,0.0-56.0-0.0,"""event"",""trial"",""time""
""fullscreenenter"",""1"",""5401""
","
","
","""event"",""trial"",""time""
""fullscreenenter"",""1"",""5401""
","
",,,,,,,,,,,,"[{""stimulus"":""run_exp/static/images/task_images/dig.jpg"",""time"":0.10000002384185791},{""stimulus"":""run_exp/static/images/task_images/land.jpg"",""time"":840.2000000476837},{""stimulus"":""run_exp/static/images/task_images/dig.jpg"",""time"":1681.5}]",[],17,,,,,,,,,,,,,,
harvest,210,715177,0.0-56.0-1.0,"""event"",""trial"",""time""
""fullscreenenter"",""1"",""5401""
","
","
","""event"",""trial"",""time""
""fullscreenenter"",""1"",""5401""
","
",,null,run_exp/static/images/task_images/gems/16.jpg,null,,,,,,,2,,,17,,,,,16,0.126596381,0.125,,,,,,,
decision,211,715629,0.0-56.0-2.0,"""event"",""trial"",""time""
""fullscreenenter"",""1"",""5401""
","
","
","""event"",""trial"",""time""
""fullscreenenter"",""1"",""5401""
","
",,450.9,run_exp/static/images/task_images/land.jpg,76,,,,,,,2,,,17,,,,,,,,58211,2,1,TRUE,,,
travel,212,725190,0.0-57.0-0.0,"""event"",""trial"",""time""
""fullscreenenter"",""1"",""5401""
","
","
","""event"",""trial"",""time""
""fullscreenenter"",""1"",""5401""
","
",,,,,,,,,,,,"[{""stimulus"":""run_exp/static/images/task_images/rocket-01.jpg"",""time"":0.30000007152557373},{""stimulus"":""run_exp/static/images/task_images/rocket-02.jpg"",""time"":1078.1000000238419},{""stimulus"":""run_exp/static/images/task_images/rocket-03.jpg"",""time"":2128.5},{""stimulus"":""run_exp/static/images/task_images/rocket-04.jpg"",""time"":3194.100000023842},{""stimulus"":""run_exp/static/images/task_images/rocket-05.jpg"",""time"":4253.900000095367},{""stimulus"":""run_exp/static/images/task_images/rocket-06.jpg"",""time"":5309.700000047684},{""stimulus"":""run_exp/static/images/task_images/rocket-07.jpg"",""time"":6378.700000047684},{""stimulus"":""run_exp/static/images/task_images/rocket-08.jpg"",""time"":7439.400000095367},{""stimulus"":""run_exp/static/images/task_images/rocket-09.jpg"",""time"":8490}]",[],17,,,,,,,,,,,,,,
alien_welcome,213,730195,0.0-57.0-1.0,"""event"",""trial"",""time""
""fullscreenenter"",""1"",""5401""
","
","
","""event"",""trial"",""time""
""fullscreenenter"",""1"",""5401""
","
",,null,run_exp/static/images/task_images/aliens/old_aliens/planet/alien_planet-71.jpg,null,,,,,,,,,,,,,71,"21,41,24,33,19,61,58,14,16,76,67,46,23,22,18,8,7,71,3,28,9,5,60,62,29,17,48,40,78,70,4,32,74,72,10,34,64,1,11,2,51,63,69,25,56,55,66,54,36,52,31",,,,,,,,,,
land,214,730703,0.0-57.0-2.0,"""event"",""trial"",""time""
""fullscreenenter"",""1"",""5401""
","
","
","""event"",""trial"",""time""
""fullscreenenter"",""1"",""5401""
","
",,null,run_exp/static/images/task_images/land.jpg,null,,,,,,,99,,,18,,,,,,,,,,,,,,
dig,215,732710,0.0-57.0-3.0,"""event"",""trial"",""time""
""fullscreenenter"",""1"",""5401""
","
","
","""event"",""trial"",""time""
""fullscreenenter"",""1"",""5401""
","
",,,,,,,,,,,,"[{""stimulus"":""run_exp/static/images/task_images/dig.jpg"",""time"":0.20000004768371582},{""stimulus"":""run_exp/static/images/task_images/land.jpg"",""time"":674.1000000238419},{""stimulus"":""run_exp/static/images/task_images/dig.jpg"",""time"":1346.1000000238419}]",[],18,,,,,,,,,,,,,,
harvest,216,733714,0.0-57.0-4.0,"""event"",""trial"",""time""
""fullscreenenter"",""1"",""5401""
","
","
","""event"",""trial"",""time""
""fullscreenenter"",""1"",""5401""
","
",,null,run_exp/static/images/task_images/gems/99.jpg,null,,,,,,,76,,,18,,,,,99,0.764292262,0.767676768,,,,,,,
decision,217,734358,0.0-57.0-5.0,"""event"",""trial"",""time""
""fullscreenenter"",""1"",""5401""
","
","
","""event"",""trial"",""time""
""fullscreenenter"",""1"",""5401""
","
",,641.5,run_exp/static/images/task_images/land.jpg,65,,,,,,,76,,,18,,,,,,,,76941,2,0,FALSE,,,
dig,218,736725,0.0-58.0-0.0,"""event"",""trial"",""time""
""fullscreenenter"",""1"",""5401""
","
","
","""event"",""trial"",""time""
""fullscreenenter"",""1"",""5401""
","
",,,,,,,,,,,,"[{""stimulus"":""run_exp/static/images/task_images/dig.jpg"",""time"":0.19999992847442627},{""stimulus"":""run_exp/static/images/task_images/land.jpg"",""time"":787.6000000238419},{""stimulus"":""run_exp/static/images/task_images/dig.jpg"",""time"":1585.3999999761581}]",[],18,,,,,,,,,,,,,,
harvest,219,737740,0.0-58.0-1.0,"""event"",""trial"",""time""
""fullscreenenter"",""1"",""5401""
","
","
","""event"",""trial"",""time""
""fullscreenenter"",""1"",""5401""
","
",,null,run_exp/static/images/task_images/gems/76.jpg,null,,,,,,,62,,,18,,,,,76,0.812635532,0.815789474,,,,,,,
decision,220,738501,0.0-58.0-2.0,"""event"",""trial"",""time""
""fullscreenenter"",""1"",""5401""
","
","
","""event"",""trial"",""time""
""fullscreenenter"",""1"",""5401""
","
",,760.1,run_exp/static/images/task_images/land.jpg,65,,,,,,,62,,,18,,,,,,,,81083,2,1,FALSE,,,
dig,221,740754,0.0-59.0-0.0,"""event"",""trial"",""time""
""fullscreenenter"",""1"",""5401""
","
","
","""event"",""trial"",""time""
""fullscreenenter"",""1"",""5401""
","
",,,,,,,,,,,,"[{""stimulus"":""run_exp/static/images/task_images/dig.jpg"",""time"":0.10000002384185791},{""stimulus"":""run_exp/static/images/task_images/land.jpg"",""time"":759.5},{""stimulus"":""run_exp/static/images/task_images/dig.jpg"",""time"":1494.2999999523163}]",[],18,,,,,,,,,,,,,,
harvest,222,741769,0.0-59.0-1.0,"""event"",""trial"",""time""
""fullscreenenter"",""1"",""5401""
","
","
","""event"",""trial"",""time""
""fullscreenenter"",""1"",""5401""
","
",,null,run_exp/static/images/task_images/gems/62.jpg,null,,,,,,,53,,,18,,,,,62,0.848985787,0.85483871,,,,,,,
decision,223,742870,0.0-59.0-2.0,"""event"",""trial"",""time""
""fullscreenenter"",""1"",""5401""
","
","
","""event"",""trial"",""time""
""fullscreenenter"",""1"",""5401""
","
",,1100.1,run_exp/static/images/task_images/land.jpg,65,,,,,,,53,,,18,,,,,,,,85452,2,2,FALSE,,,
dig,224,744784,0.0-60.0-0.0,"""event"",""trial"",""time""
""fullscreenenter"",""1"",""5401""
","
","
","""event"",""trial"",""time""
""fullscreenenter"",""1"",""5401""
","
",,,,,,,,,,,,"[{""stimulus"":""run_exp/static/images/task_images/dig.jpg"",""time"":0.30000007152557373},{""stimulus"":""run_exp/static/images/task_images/land.jpg"",""time"":635.3999999761581},{""stimulus"":""run_exp/static/images/task_images/dig.jpg"",""time"":1275.7000000476837}]",[],18,,,,,,,,,,,,,,
harvest,225,745802,0.0-60.0-1.0,"""event"",""trial"",""time""
""fullscreenenter"",""1"",""5401""
","
","
","""event"",""trial"",""time""
""fullscreenenter"",""1"",""5401""
","
",,null,run_exp/static/images/task_images/gems/53.jpg,null,,,,,,,38,,,18,,,,,53,0.71002493,0.716981132,,,,,,,
decision,226,745847,0.0-60.0-2.0,"""event"",""trial"",""time""
""fullscreenenter"",""1"",""5401""
","
","
","""event"",""trial"",""time""
""fullscreenenter"",""1"",""5401""
","
",,44.5999999,run_exp/static/images/task_images/land.jpg,76,,,,,,,38,,,18,,,,,,,,88429,2,3,TRUE,,,
travel,227,755816,0.0-61.0-0.0,"""event"",""trial"",""time""
""fullscreenenter"",""1"",""5401""
","
","
","""event"",""trial"",""time""
""fullscreenenter"",""1"",""5401""
","
",,,,,,,,,,,,"[{""stimulus"":""run_exp/static/images/task_images/rocket-01.jpg"",""time"":0.19999992847442627},{""stimulus"":""run_exp/static/images/task_images/rocket-02.jpg"",""time"":1109},{""stimulus"":""run_exp/static/images/task_images/rocket-03.jpg"",""time"":2216.399999976158},{""stimulus"":""run_exp/static/images/task_images/rocket-04.jpg"",""time"":3328.7999999523163},{""stimulus"":""run_exp/static/images/task_images/rocket-05.jpg"",""time"":4439.699999928474},{""stimulus"":""run_exp/static/images/task_images/rocket-06.jpg"",""time"":5541.599999904633},{""stimulus"":""run_exp/static/images/task_images/rocket-07.jpg"",""time"":6654.299999952316},{""stimulus"":""run_exp/static/images/task_images/rocket-08.jpg"",""time"":7747.299999952316},{""stimulus"":""run_exp/static/images/task_images/rocket-09.jpg"",""time"":8850.199999928474}]",[],18,,,,,,,,,,,,,,
alien_welcome,228,760819,0.0-61.0-1.0,"""event"",""trial"",""time""
""fullscreenenter"",""1"",""5401""
","
","
","""event"",""trial"",""time""
""fullscreenenter"",""1"",""5401""
","
