trial_type,trial_index,time_elapsed,internal_node_id,interactions,blur_events,focus_events,fullscreenenter_events,fullscreenexit_events,success,rt,stimulus,key_press,prompt,subject_id,participant_id,age,gender,button_pressed,next_reward,animation_sequence,responses,planet,curr_prac_trial,n_prac_rounds,alien,aliens,reward_received,decay_rate_actual,decay_rate_exp,time_in_block,block_num,prt,last_trial_on_planet,button_html,bonus,num_failures
pavlovia,0,6,0.0-0.0,"""event"",""trial"",""time""
""blur"",""0"",""0""
""focus"",""0"",""0""
""blur"",""0"",""0""
""focus"",""0"",""0""
""blur"",""0"",""0""
""focus"",""1"",""37023""
""fullscreenenter"",""1"",""38526""
","""event"",""trial"",""time""
""blur"",""0"",""0""
""blur"",""0"",""0""
""blur"",""0"",""0""
","""event"",""trial"",""time""
""focus"",""0"",""0""
""focus"",""0"",""0""
""focus"",""1"",""37023""
","""event"",""trial"",""time""
""fullscreenenter"",""1"",""38526""
","
",,,,,,,,,,,,,,,,,,,,,,,,,,,,
fullscreen,1,39492,0.0-1.0,"""event"",""trial"",""time""
""blur"",""0"",""0""
""focus"",""0"",""0""
""blur"",""0"",""0""
""focus"",""0"",""0""
""blur"",""0"",""0""
""focus"",""1"",""37023""
""fullscreenenter"",""1"",""38526""
","""event"",""trial"",""time""
""blur"",""0"",""0""
""blur"",""0"",""0""
""blur"",""0"",""0""
","""event"",""trial"",""time""
""focus"",""0"",""0""
""focus"",""0"",""0""
""focus"",""1"",""37023""
","""event"",""trial"",""time""
""fullscreenenter"",""1"",""38526""
","
",TRUE,,,,,,,,,,,,,,,,,,,,,,,,,,,
instruc_welcome,2,49767,0.0-2.0,"""event"",""trial"",""time""
""blur"",""0"",""0""
""focus"",""0"",""0""
""blur"",""0"",""0""
""focus"",""0"",""0""
""blur"",""0"",""0""
""focus"",""1"",""37023""
""fullscreenenter"",""1"",""38526""
","""event"",""trial"",""time""
""blur"",""0"",""0""
""blur"",""0"",""0""
""blur"",""0"",""0""
","""event"",""trial"",""time""
""focus"",""0"",""0""
""focus"",""0"",""0""
""focus"",""1"",""37023""
","""event"",""trial"",""time""
""fullscreenenter"",""1"",""38526""
","
",,null,run_exp/static/audio/clip_1_welcome.m4a,null,"<p>Howdy! In this experiment, you’ll be an explorer traveling through space to collect space treasure.</p><p>Your mission is to collect as much treasure as possible.</p><br><br><p><img src='run_exp/static/images/task_images/opening_img-01.jpg' height='300' width='auto'></p>",9495,190,13.68,Male,,,,,,,,,,,,,,,,,,,
audio-keyboard-response,3,66388,0.0-3.0,"""event"",""trial"",""time""
""blur"",""0"",""0""
""focus"",""0"",""0""
""blur"",""0"",""0""
""focus"",""0"",""0""
""blur"",""0"",""0""
""focus"",""1"",""37023""
""fullscreenenter"",""1"",""38526""
","""event"",""trial"",""time""
""blur"",""0"",""0""
""blur"",""0"",""0""
""blur"",""0"",""0""
","""event"",""trial"",""time""
""focus"",""0"",""0""
""focus"",""0"",""0""
""focus"",""1"",""37023""
","""event"",""trial"",""time""
""fullscreenenter"",""1"",""38526""
","
",,null,run_exp/static/audio/clip_2_move.m4a,null,,,,,,,,,,,,,,,,,,,,,,,,
welcome_dec,4,66754,0.0-4.0,"""event"",""trial"",""time""
""blur"",""0"",""0""
""focus"",""0"",""0""
""blur"",""0"",""0""
""focus"",""0"",""0""
""blur"",""0"",""0""
""focus"",""1"",""37023""
""fullscreenenter"",""1"",""38526""
","""event"",""trial"",""time""
""blur"",""0"",""0""
""blur"",""0"",""0""
""blur"",""0"",""0""
","""event"",""trial"",""time""
""focus"",""0"",""0""
""focus"",""0"",""0""
""focus"",""1"",""37023""
","""event"",""trial"",""time""
""fullscreenenter"",""1"",""38526""
","
",,360.0999999,"<p>Howdy! In this experiment, you’ll be an explorer traveling through space to collect space treasure.</p><p>Your mission is to collect as much treasure as possible.</p><br><br><p><img src='run_exp/static/images/task_images/opening_img-01.jpg' height='300' width='auto'></p>",,,,,,,1,,,,,,,,,,,,,,,,,,
html-keyboard-response,5,68811,0.0-5.0,"""event"",""trial"",""time""
""blur"",""0"",""0""
""focus"",""0"",""0""
""blur"",""0"",""0""
""focus"",""0"",""0""
""blur"",""0"",""0""
""focus"",""1"",""37023""
""fullscreenenter"",""1"",""38526""
","""event"",""trial"",""time""
""blur"",""0"",""0""
""blur"",""0"",""0""
""blur"",""0"",""0""
","""event"",""trial"",""time""
""focus"",""0"",""0""
""focus"",""0"",""0""
""focus"",""1"",""37023""
","""event"",""trial"",""time""
""fullscreenenter"",""1"",""38526""
","
",,2054.6,"<p>Howdy! In this experiment, you’ll be an explorer traveling through space to collect space treasure.</p><p>Your mission is to collect as much treasure as possible.</p><br><br><p><img src='run_exp/static/images/task_images/opening_img-01.jpg' height='300' width='auto'></p><button class=""jspsych-html-btn-unchosen""><img src=""run_exp/static/images/task_images/planet-01.jpg"" height=""50""></button><button class=""jspsych-html-btn-chosen""><img src=""run_exp/static/images/task_images/planet-02.jpg"" height=""50""></button><p><b>[press the space bar to lock in your answer]<b><br></p>",32,,,,,,,,,,,,,,,,,,,,,,,,
instruc_goal,6,78889,0.0-6.0-0.0,"""event"",""trial"",""time""
""blur"",""0"",""0""
""focus"",""0"",""0""
""blur"",""0"",""0""
""focus"",""0"",""0""
""blur"",""0"",""0""
""focus"",""1"",""37023""
""fullscreenenter"",""1"",""38526""
","""event"",""trial"",""time""
""blur"",""0"",""0""
""blur"",""0"",""0""
""blur"",""0"",""0""
","""event"",""trial"",""time""
""focus"",""0"",""0""
""focus"",""0"",""0""
""focus"",""1"",""37023""
","""event"",""trial"",""time""
""fullscreenenter"",""1"",""38526""
","
",,null,run_exp/static/audio/clip_3_goal.m4a,null,"<p> As a space explorer, you’ll visit different planets to dig for space treasure, these pink gems.</p> <p> The more treasure you dig up, the more bonus money you’ll win! </p><br><br><p><img src='run_exp/static/images/task_images/pink_gem.jpg' height='300' width='auto'></p>",,,,,,,,,,,,,,,,,,,,,,,
instruc_goal,7,79657,0.0-6.0-1.0,"""event"",""trial"",""time""
""blur"",""0"",""0""
""focus"",""0"",""0""
""blur"",""0"",""0""
""focus"",""0"",""0""
""blur"",""0"",""0""
""focus"",""1"",""37023""
""fullscreenenter"",""1"",""38526""
","""event"",""trial"",""time""
""blur"",""0"",""0""
""blur"",""0"",""0""
""blur"",""0"",""0""
","""event"",""trial"",""time""
""focus"",""0"",""0""
""focus"",""0"",""0""
""focus"",""1"",""37023""
","""event"",""trial"",""time""
""fullscreenenter"",""1"",""38526""
","
",,764,"<p> As a space explorer, you’ll visit different planets to dig for space treasure, these pink gems.</p> <p> The more treasure you dig up, the more bonus money you’ll win! </p><br><br><p><img src='run_exp/static/images/task_images/pink_gem.jpg' height='300' width='auto'></p>",,,,,,,1,,,,,,,,,,,,,,,,,,
html-keyboard-response,8,80288,0.0-6.0-2.0,"""event"",""trial"",""time""
""blur"",""0"",""0""
""focus"",""0"",""0""
""blur"",""0"",""0""
""focus"",""0"",""0""
""blur"",""0"",""0""
""focus"",""1"",""37023""
""fullscreenenter"",""1"",""38526""
","""event"",""trial"",""time""
""blur"",""0"",""0""
""blur"",""0"",""0""
""blur"",""0"",""0""
","""event"",""trial"",""time""
""focus"",""0"",""0""
""focus"",""0"",""0""
""focus"",""1"",""37023""
","""event"",""trial"",""time""
""fullscreenenter"",""1"",""38526""
","
",,628.4000001,"<p> As a space explorer, you’ll visit different planets to dig for space treasure, these pink gems.</p> <p> The more treasure you dig up, the more bonus money you’ll win! </p><br><br><p><img src='run_exp/static/images/task_images/pink_gem.jpg' height='300' width='auto'></p><button class=""jspsych-html-btn-unchosen""><img src=""run_exp/static/images/task_images/planet-01.jpg"" height=""50""></button><button class=""jspsych-html-btn-chosen""><img src=""run_exp/static/images/task_images/planet-02.jpg"" height=""50""></button><p><b>[press the space bar to lock in your answer]<b><br></p>",32,,,,,,,,,,,,,,,,,,,,,,,,
instruc_dig,9,96340,0.0-7.0-0.0,"""event"",""trial"",""time""
""blur"",""0"",""0""
""focus"",""0"",""0""
""blur"",""0"",""0""
""focus"",""0"",""0""
""blur"",""0"",""0""
""focus"",""1"",""37023""
""fullscreenenter"",""1"",""38526""
","""event"",""trial"",""time""
""blur"",""0"",""0""
""blur"",""0"",""0""
""blur"",""0"",""0""
","""event"",""trial"",""time""
""focus"",""0"",""0""
""focus"",""0"",""0""
""focus"",""1"",""37023""
","""event"",""trial"",""time""
""fullscreenenter"",""1"",""38526""
","
",,null,run_exp/static/audio/clip_4_dig.m4a,null,,,,,,,100,,,,,,,,,,,,,,,,,
instruc_dig_try,10,96464,0.0-7.0-1.0,"""event"",""trial"",""time""
""blur"",""0"",""0""
""focus"",""0"",""0""
""blur"",""0"",""0""
""focus"",""0"",""0""
""blur"",""0"",""0""
""focus"",""1"",""37023""
""fullscreenenter"",""1"",""38526""
","""event"",""trial"",""time""
""blur"",""0"",""0""
""blur"",""0"",""0""
""blur"",""0"",""0""
","""event"",""trial"",""time""
""focus"",""0"",""0""
""focus"",""0"",""0""
""focus"",""1"",""37023""
","""event"",""trial"",""time""
""fullscreenenter"",""1"",""38526""
","
",,121,"<p> When you’ve arrived at a new planet, you will dig once. </p> <p>Then, you get to decide if you want to stay on the planet and dig again or travel to a new planet and dig there.</p> <p> To stay and dig, press the letter <strong>‘A’</strong> on your keyboard. Try pressing it now! </p><p><img src='run_exp/static/images/task_images/land.jpg'  height='700' width='auto'></p>",65,"<p> When you’ve arrived at a new planet, you will dig once. </p> <p>Then, you get to decide if you want to stay on the planet and dig again or travel to a new planet and dig there.</p> <p> To stay and dig, press the letter <strong>‘A’</strong> on your keyboard. Try pressing it now! </p><p><img src='run_exp/static/images/task_images/land.jpg'  height='700' width='auto'></p>",,,,,,100,,,,,,,,,,,,,,,,,
dig_prac,11,98483,0.0-7.0-2.0,"""event"",""trial"",""time""
""blur"",""0"",""0""
""focus"",""0"",""0""
""blur"",""0"",""0""
""focus"",""0"",""0""
""blur"",""0"",""0""
""focus"",""1"",""37023""
""fullscreenenter"",""1"",""38526""
","""event"",""trial"",""time""
""blur"",""0"",""0""
""blur"",""0"",""0""
""blur"",""0"",""0""
","""event"",""trial"",""time""
""focus"",""0"",""0""
""focus"",""0"",""0""
""focus"",""1"",""37023""
","""event"",""trial"",""time""
""fullscreenenter"",""1"",""38526""
","
",,,,,,,,,,,,"[{""stimulus"":""run_exp/static/images/task_images/dig.jpg"",""time"":0.5999999046325684},{""stimulus"":""run_exp/static/images/task_images/land.jpg"",""time"":672.4000000953674},{""stimulus"":""run_exp/static/images/task_images/dig.jpg"",""time"":1338}]",[],,,,,,,,,,,,,,,
instruc_travel,12,134744,0.0-7.0-3.0,"""event"",""trial"",""time""
""blur"",""0"",""0""
""focus"",""0"",""0""
""blur"",""0"",""0""
""focus"",""0"",""0""
""blur"",""0"",""0""
""focus"",""1"",""37023""
""fullscreenenter"",""1"",""38526""
","""event"",""trial"",""time""
""blur"",""0"",""0""
""blur"",""0"",""0""
""blur"",""0"",""0""
","""event"",""trial"",""time""
""focus"",""0"",""0""
""focus"",""0"",""0""
""focus"",""1"",""37023""
","""event"",""trial"",""time""
""fullscreenenter"",""1"",""38526""
","
",,null,run_exp/static/audio/clip_5_travel.m4a,null,"<p>Every time you dig up gems, there are less gems on the planet, so the more you dig on a planet the fewer gems you’ll get with each dig.</p><p>When gems are running low, you may want to travel to a new planet. </p> <p>  Planets are very far apart in this galaxy, so it will take some time to travel between them. </p> <br><p>There are lots and lots of planets for you to visit, so you won’t be able to return to any planets you’ve seen before. </p><br><p>To leave this planet and travel to a new one, press the letter <strong>‘L’</strong> on your keyboard. Try pressing it now! </p><p><img src='run_exp/static/images/task_images/rocket-01.jpg'  height='600' width='auto'></p>",,,,,,,,,,,,,,,,,,,,,,,
instruc_travel_try,13,134763,0.0-7.0-4.0,"""event"",""trial"",""time""
""blur"",""0"",""0""
""focus"",""0"",""0""
""blur"",""0"",""0""
""focus"",""0"",""0""
""blur"",""0"",""0""
""focus"",""1"",""37023""
""fullscreenenter"",""1"",""38526""
","""event"",""trial"",""time""
""blur"",""0"",""0""
""blur"",""0"",""0""
""blur"",""0"",""0""
","""event"",""trial"",""time""
""focus"",""0"",""0""
""focus"",""0"",""0""
""focus"",""1"",""37023""
","""event"",""trial"",""time""
""fullscreenenter"",""1"",""38526""
","
",,14.80000019,"<p>Every time you dig up gems, there are less gems on the planet, so the more you dig on a planet the fewer gems you’ll get with each dig.</p><p>When gems are running low, you may want to travel to a new planet. </p> <p>  Planets are very far apart in this galaxy, so it will take some time to travel between them. </p> <br><p>There are lots and lots of planets for you to visit, so you won’t be able to return to any planets you’ve seen before. </p><br><p>To leave this planet and travel to a new one, press the letter <strong>‘L’</strong> on your keyboard. Try pressing it now! </p><p><img src='run_exp/static/images/task_images/rocket-01.jpg'  height='600' width='auto'></p>",76,"<p>Every time you dig up gems, there are less gems on the planet, so the more you dig on a planet the fewer gems you’ll get with each dig.</p><p>When gems are running low, you may want to travel to a new planet. </p> <p>  Planets are very far apart in this galaxy, so it will take some time to travel between them. </p> <br><p>There are lots and lots of planets for you to visit, so you won’t be able to return to any planets you’ve seen before. </p><br><p>To leave this planet and travel to a new one, press the letter <strong>‘L’</strong> on your keyboard. Try pressing it now! </p><p><img src='run_exp/static/images/task_images/rocket-01.jpg'  height='600' width='auto'></p>",,,,,,,,,,,,,,,,,,,,,,,
travel_prac,14,144786,0.0-7.0-5.0,"""event"",""trial"",""time""
""blur"",""0"",""0""
""focus"",""0"",""0""
""blur"",""0"",""0""
""focus"",""0"",""0""
""blur"",""0"",""0""
""focus"",""1"",""37023""
""fullscreenenter"",""1"",""38526""
","""event"",""trial"",""time""
""blur"",""0"",""0""
""blur"",""0"",""0""
""blur"",""0"",""0""
","""event"",""trial"",""time""
""focus"",""0"",""0""
""focus"",""0"",""0""
""focus"",""1"",""37023""
","""event"",""trial"",""time""
""fullscreenenter"",""1"",""38526""
","
",,,,,,,,,,,,"[{""stimulus"":""run_exp/static/images/task_images/rocket-01.jpg"",""time"":0.5},{""stimulus"":""run_exp/static/images/task_images/rocket-02.jpg"",""time"":1119.5},{""stimulus"":""run_exp/static/images/task_images/rocket-03.jpg"",""time"":2225.300000190735},{""stimulus"":""run_exp/static/images/task_images/rocket-04.jpg"",""time"":3336.5},{""stimulus"":""run_exp/static/images/task_images/rocket-05.jpg"",""time"":4458.199999809265},{""stimulus"":""run_exp/static/images/task_images/rocket-06.jpg"",""time"":5565.199999809265},{""stimulus"":""run_exp/static/images/task_images/rocket-07.jpg"",""time"":6676.300000190735},{""stimulus"":""run_exp/static/images/task_images/rocket-08.jpg"",""time"":7785.599999904633},{""stimulus"":""run_exp/static/images/task_images/rocket-09.jpg"",""time"":8895.5}]",[],0,,,,,,,,,,,,,,
instruc_alien_greet,15,172003,0.0-7.0-6.0,"""event"",""trial"",""time""
""blur"",""0"",""0""
""focus"",""0"",""0""
""blur"",""0"",""0""
""focus"",""0"",""0""
""blur"",""0"",""0""
""focus"",""1"",""37023""
""fullscreenenter"",""1"",""38526""
","""event"",""trial"",""time""
""blur"",""0"",""0""
""blur"",""0"",""0""
""blur"",""0"",""0""
","""event"",""trial"",""time""
""focus"",""0"",""0""
""focus"",""0"",""0""
""focus"",""1"",""37023""
","""event"",""trial"",""time""
""fullscreenenter"",""1"",""38526""
","
",,null,run_exp/static/audio/clip_6_alien.m4a,null,"<p>When you arrive at a new planet, the alien who owns the treasure mine on that planet will greet you!</p><p>The better an alien takes care of their mine the easier it is to dig for gems. Some aliens take better care of their mine than others. So, you won’t get exactly the same amount of gems on each planet.</p><p>What the alien looks like does not tell you anything about how many gems there are on the planet.</p><br><p><img src=""run_exp/static/images/task_images/aliens/instructions_aliens/planet/alien_planet-1.jpg""  height=""600"" width=""auto""></p>",,,,,,,,,,,,,,,,,,,,,,,
instruc_alien_greet,16,173761,0.0-7.0-7.0,"""event"",""trial"",""time""
""blur"",""0"",""0""
""focus"",""0"",""0""
""blur"",""0"",""0""
""focus"",""0"",""0""
""blur"",""0"",""0""
""focus"",""1"",""37023""
""fullscreenenter"",""1"",""38526""
","""event"",""trial"",""time""
""blur"",""0"",""0""
""blur"",""0"",""0""
""blur"",""0"",""0""
","""event"",""trial"",""time""
""focus"",""0"",""0""
""focus"",""0"",""0""
""focus"",""1"",""37023""
","""event"",""trial"",""time""
""fullscreenenter"",""1"",""38526""
","
",,1754.5,"<p>When you arrive at a new planet, the alien who owns the treasure mine on that planet will greet you!</p><p>The better an alien takes care of their mine the easier it is to dig for gems. Some aliens take better care of their mine than others. So, you won’t get exactly the same amount of gems on each planet.</p><p>What the alien looks like does not tell you anything about how many gems there are on the planet.</p><br><p><img src=""run_exp/static/images/task_images/aliens/instructions_aliens/planet/alien_planet-1.jpg""  height=""600"" width=""auto""></p>",,,,,,,1,,,,,,,,,,,,,,,,,,
html-keyboard-response,17,173798,0.0-7.0-8.0,"""event"",""trial"",""time""
""blur"",""0"",""0""
""focus"",""0"",""0""
""blur"",""0"",""0""
""focus"",""0"",""0""
""blur"",""0"",""0""
""focus"",""1"",""37023""
""fullscreenenter"",""1"",""38526""
","""event"",""trial"",""time""
""blur"",""0"",""0""
""blur"",""0"",""0""
""blur"",""0"",""0""
","""event"",""trial"",""time""
""focus"",""0"",""0""
""focus"",""0"",""0""
""focus"",""1"",""37023""
","""event"",""trial"",""time""
""fullscreenenter"",""1"",""38526""
","
",,34.4000001,"<p>When you arrive at a new planet, the alien who owns the treasure mine on that planet will greet you!</p><p>The better an alien takes care of their mine the easier it is to dig for gems. Some aliens take better care of their mine than others. So, you won’t get exactly the same amount of gems on each planet.</p><p>What the alien looks like does not tell you anything about how many gems there are on the planet.</p><br><p><img src=""run_exp/static/images/task_images/aliens/instructions_aliens/planet/alien_planet-1.jpg""  height=""600"" width=""auto""></p><button class=""jspsych-html-btn-unchosen""><img src=""run_exp/static/images/task_images/planet-01.jpg"" height=""50""></button><button class=""jspsych-html-btn-chosen""><img src=""run_exp/static/images/task_images/planet-02.jpg"" height=""50""></button><p><b>[press the space bar to lock in your answer]<b><br></p>",32,,,,,,,,,,,,,,,,,,,,,,,,
time_out,18,184888,0.0-8.0-0.0,"""event"",""trial"",""time""
""blur"",""0"",""0""
""focus"",""0"",""0""
""blur"",""0"",""0""
""focus"",""0"",""0""
""blur"",""0"",""0""
""focus"",""1"",""37023""
""fullscreenenter"",""1"",""38526""
","""event"",""trial"",""time""
""blur"",""0"",""0""
""blur"",""0"",""0""
""blur"",""0"",""0""
","""event"",""trial"",""time""
""focus"",""0"",""0""
""focus"",""0"",""0""
""focus"",""1"",""37023""
","""event"",""trial"",""time""
""fullscreenenter"",""1"",""38526""
","
",,null,run_exp/static/audio/clip_7_timeout.m4a,null,"<p>If you don't make your choice fast enough, you’ll have to wait a few seconds before you can make another one.</p><p>You can’t dig for more gems or travel to new planets. You just have to sit and wait.</p><br><p><img src='run_exp/static/images/task_images/time_out.jpg'  height='600' width='auto'></p>",,,,,,,,,,,,,,,,,,,,,,,
time_out,19,186157,0.0-8.0-1.0,"""event"",""trial"",""time""
""blur"",""0"",""0""
""focus"",""0"",""0""
""blur"",""0"",""0""
""focus"",""0"",""0""
""blur"",""0"",""0""
""focus"",""1"",""37023""
""fullscreenenter"",""1"",""38526""
","""event"",""trial"",""time""
""blur"",""0"",""0""
""blur"",""0"",""0""
""blur"",""0"",""0""
","""event"",""trial"",""time""
""focus"",""0"",""0""
""focus"",""0"",""0""
""focus"",""1"",""37023""
","""event"",""trial"",""time""
""fullscreenenter"",""1"",""38526""
","
",,1265.1,"<p>If you don't make your choice fast enough, you’ll have to wait a few seconds before you can make another one.</p><p>You can’t dig for more gems or travel to new planets. You just have to sit and wait.</p><br><p><img src='run_exp/static/images/task_images/time_out.jpg'  height='600' width='auto'></p>",,,,,,,1,,,,,,,,,,,,,,,,,,
html-keyboard-response,20,186910,0.0-8.0-2.0,"""event"",""trial"",""time""
""blur"",""0"",""0""
""focus"",""0"",""0""
""blur"",""0"",""0""
""focus"",""0"",""0""
""blur"",""0"",""0""
""focus"",""1"",""37023""
""fullscreenenter"",""1"",""38526""
","""event"",""trial"",""time""
""blur"",""0"",""0""
""blur"",""0"",""0""
""blur"",""0"",""0""
","""event"",""trial"",""time""
""focus"",""0"",""0""
""focus"",""0"",""0""
""focus"",""1"",""37023""
","""event"",""trial"",""time""
""fullscreenenter"",""1"",""38526""
","
",,751.5,"<p>If you don't make your choice fast enough, you’ll have to wait a few seconds before you can make another one.</p><p>You can’t dig for more gems or travel to new planets. You just have to sit and wait.</p><br><p><img src='run_exp/static/images/task_images/time_out.jpg'  height='600' width='auto'></p><button class=""jspsych-html-btn-unchosen""><img src=""run_exp/static/images/task_images/planet-01.jpg"" height=""50""></button><button class=""jspsych-html-btn-chosen""><img src=""run_exp/static/images/task_images/planet-02.jpg"" height=""50""></button><p><b>[press the space bar to lock in your answer]<b><br></p>",32,,,,,,,,,,,,,,,,,,,,,,,,
instruc_break,21,202588,0.0-9.0-0.0,"""event"",""trial"",""time""
""blur"",""0"",""0""
""focus"",""0"",""0""
""blur"",""0"",""0""
""focus"",""0"",""0""
""blur"",""0"",""0""
""focus"",""1"",""37023""
""fullscreenenter"",""1"",""38526""
","""event"",""trial"",""time""
""blur"",""0"",""0""
""blur"",""0"",""0""
""blur"",""0"",""0""
","""event"",""trial"",""time""
""focus"",""0"",""0""
""focus"",""0"",""0""
""focus"",""1"",""37023""
","""event"",""trial"",""time""
""fullscreenenter"",""1"",""38526""
","
",,null,run_exp/static/audio/clip_8_break.m4a,null,"<p> After digging and traveling for a while, you’ll be able to take a break at home base. </p><p>The game will last 20 minutes no matter what.</p><p>You will visit home base every 5 minutes, so, you will visit home base three times during the game.</p><br><p><img src='run_exp/static/images/task_images/home_base.jpg' height='600' width='auto'></p>",,,,,,,,,,,,,,,,,,,,,,,
instruc_break,22,204540,0.0-9.0-1.0,"""event"",""trial"",""time""
""blur"",""0"",""0""
""focus"",""0"",""0""
""blur"",""0"",""0""
""focus"",""0"",""0""
""blur"",""0"",""0""
""focus"",""1"",""37023""
""fullscreenenter"",""1"",""38526""
","""event"",""trial"",""time""
""blur"",""0"",""0""
""blur"",""0"",""0""
""blur"",""0"",""0""
","""event"",""trial"",""time""
""focus"",""0"",""0""
""focus"",""0"",""0""
""focus"",""1"",""37023""
","""event"",""trial"",""time""
""fullscreenenter"",""1"",""38526""
","
",,1942.1,"<p> After digging and traveling for a while, you’ll be able to take a break at home base. </p><p>The game will last 20 minutes no matter what.</p><p>You will visit home base every 5 minutes, so, you will visit home base three times during the game.</p><br><p><img src='run_exp/static/images/task_images/home_base.jpg' height='600' width='auto'></p>",,,,,,,1,,,,,,,,,,,,,,,,,,
html-keyboard-response,23,204546,0.0-9.0-2.0,"""event"",""trial"",""time""
""blur"",""0"",""0""
""focus"",""0"",""0""
""blur"",""0"",""0""
""focus"",""0"",""0""
""blur"",""0"",""0""
""focus"",""1"",""37023""
""fullscreenenter"",""1"",""38526""
","""event"",""trial"",""time""
""blur"",""0"",""0""
""blur"",""0"",""0""
""blur"",""0"",""0""
","""event"",""trial"",""time""
""focus"",""0"",""0""
""focus"",""0"",""0""
""focus"",""1"",""37023""
","""event"",""trial"",""time""
""fullscreenenter"",""1"",""38526""
","
",,3.400000095,"<p> After digging and traveling for a while, you’ll be able to take a break at home base. </p><p>The game will last 20 minutes no matter what.</p><p>You will visit home base every 5 minutes, so, you will visit home base three times during the game.</p><br><p><img src='run_exp/static/images/task_images/home_base.jpg' height='600' width='auto'></p><button class=""jspsych-html-btn-unchosen""><img src=""run_exp/static/images/task_images/planet-01.jpg"" height=""50""></button><button class=""jspsych-html-btn-chosen""><img src=""run_exp/static/images/task_images/planet-02.jpg"" height=""50""></button><p><b>[press the space bar to lock in your answer]<b><br></p>",32,,,,,,,,,,,,,,,,,,,,,,,,
instruc_prac_game,24,214701,0.0-10.0-0.0,"""event"",""trial"",""time""
""blur"",""0"",""0""
""focus"",""0"",""0""
""blur"",""0"",""0""
""focus"",""0"",""0""
""blur"",""0"",""0""
""focus"",""1"",""37023""
""fullscreenenter"",""1"",""38526""
","""event"",""trial"",""time""
""blur"",""0"",""0""
""blur"",""0"",""0""
""blur"",""0"",""0""
","""event"",""trial"",""time""
""focus"",""0"",""0""
""focus"",""0"",""0""
""focus"",""1"",""37023""
","""event"",""trial"",""time""
""fullscreenenter"",""1"",""38526""
","
",,null,run_exp/static/audio/clip_9_practice.m4a,null,"<p> Are you ready to play a practice game? </p> <p>In this practice game, you'll be digging up barrels of gems. But, in the real game, you'll be digging up the gems themselves. </p>",,,,,,,,,,,,,,,,,,,,,,,
html-button-response,25,216039,0.0-10.0-1.0,"""event"",""trial"",""time""
""blur"",""0"",""0""
""focus"",""0"",""0""
""blur"",""0"",""0""
""focus"",""0"",""0""
""blur"",""0"",""0""
""focus"",""1"",""37023""
""fullscreenenter"",""1"",""38526""
","""event"",""trial"",""time""
""blur"",""0"",""0""
""blur"",""0"",""0""
""blur"",""0"",""0""
","""event"",""trial"",""time""
""focus"",""0"",""0""
""focus"",""0"",""0""
""focus"",""1"",""37023""
","""event"",""trial"",""time""
""fullscreenenter"",""1"",""38526""
","
",,1336,"<p> Are you ready to play a practice game? </p> <p>In this practice game, you'll be digging up barrels of gems. But, in the real game, you'll be digging up the gems themselves. </p>",,,,,,,0,,,,,,,,,,,,,,,,,,
alien_welcome_prac,26,221049,0.0-11.0-0.0,"""event"",""trial"",""time""
""blur"",""0"",""0""
""focus"",""0"",""0""
""blur"",""0"",""0""
""focus"",""0"",""0""
""blur"",""0"",""0""
""focus"",""1"",""37023""
""fullscreenenter"",""1"",""38526""
","""event"",""trial"",""time""
""blur"",""0"",""0""
""blur"",""0"",""0""
""blur"",""0"",""0""
","""event"",""trial"",""time""
""focus"",""0"",""0""
""focus"",""0"",""0""
""focus"",""1"",""37023""
","""event"",""trial"",""time""
""fullscreenenter"",""1"",""38526""
","
",,null,run_exp/static/images/task_images/aliens/practice_aliens/planet/alien_planet-5.jpg,null,,,,,,,,,,,,,,,,,,,,,,,,
land_prac,27,221559,0.0-11.0-1.0,"""event"",""trial"",""time""
""blur"",""0"",""0""
""focus"",""0"",""0""
""blur"",""0"",""0""
""focus"",""0"",""0""
""blur"",""0"",""0""
""focus"",""1"",""37023""
""fullscreenenter"",""1"",""38526""
","""event"",""trial"",""time""
""blur"",""0"",""0""
""blur"",""0"",""0""
""blur"",""0"",""0""
","""event"",""trial"",""time""
""focus"",""0"",""0""
""focus"",""0"",""0""
""focus"",""1"",""37023""
","""event"",""trial"",""time""
""fullscreenenter"",""1"",""38526""
","
",,null,run_exp/static/images/task_images/land.jpg,null,,,,,,,97,,,0,,,,,,,,,,,,,,
dig_prac,28,223570,0.0-11.0-2.0,"""event"",""trial"",""time""
""blur"",""0"",""0""
""focus"",""0"",""0""
""blur"",""0"",""0""
""focus"",""0"",""0""
""blur"",""0"",""0""
""focus"",""1"",""37023""
""fullscreenenter"",""1"",""38526""
","""event"",""trial"",""time""
""blur"",""0"",""0""
""blur"",""0"",""0""
""blur"",""0"",""0""
","""event"",""trial"",""time""
""focus"",""0"",""0""
""focus"",""0"",""0""
""focus"",""1"",""37023""
","""event"",""trial"",""time""
""fullscreenenter"",""1"",""38526""
","
",,,,,,,,,,,,"[{""stimulus"":""run_exp/static/images/task_images/dig.jpg"",""time"":0.5},{""stimulus"":""run_exp/static/images/task_images/land.jpg"",""time"":671.9000000953674},{""stimulus"":""run_exp/static/images/task_images/dig.jpg"",""time"":1343.4000000953674}]",[],,,,,,,,,,,,,,,
harvest_prac,29,224579,0.0-11.0-3.0,"""event"",""trial"",""time""
""blur"",""0"",""0""
""focus"",""0"",""0""
""blur"",""0"",""0""
""focus"",""0"",""0""
""blur"",""0"",""0""
""focus"",""1"",""37023""
""fullscreenenter"",""1"",""38526""
","""event"",""trial"",""time""
""blur"",""0"",""0""
""blur"",""0"",""0""
""blur"",""0"",""0""
","""event"",""trial"",""time""
""focus"",""0"",""0""
""focus"",""0"",""0""
""focus"",""1"",""37023""
","""event"",""trial"",""time""
""fullscreenenter"",""1"",""38526""
","
",,null,run_exp/static/images/task_images/barrel_text.jpg,null,,,,,,,,,,,,,,,,,,,,,,,,
decision_prac,30,226624,0.0-11.0-4.0,"""event"",""trial"",""time""
""blur"",""0"",""0""
""focus"",""0"",""0""
""blur"",""0"",""0""
""focus"",""0"",""0""
""blur"",""0"",""0""
""focus"",""1"",""37023""
""fullscreenenter"",""1"",""38526""
","""event"",""trial"",""time""
""blur"",""0"",""0""
""blur"",""0"",""0""
""blur"",""0"",""0""
","""event"",""trial"",""time""
""focus"",""0"",""0""
""focus"",""0"",""0""
""focus"",""1"",""37023""
","""event"",""trial"",""time""
""fullscreenenter"",""1"",""38526""
","
",,2042.3,run_exp/static/images/task_images/land.jpg,65,,,,,,,,,,,1,,,,,,,,,,,,,
dig_prac,31,228640,0.0-12.0-0.0,"""event"",""trial"",""time""
""blur"",""0"",""0""
""focus"",""0"",""0""
""blur"",""0"",""0""
""focus"",""0"",""0""
""blur"",""0"",""0""
""focus"",""1"",""37023""
""fullscreenenter"",""1"",""38526""
","""event"",""trial"",""time""
""blur"",""0"",""0""
""blur"",""0"",""0""
""blur"",""0"",""0""
","""event"",""trial"",""time""
""focus"",""0"",""0""
""focus"",""0"",""0""
""focus"",""1"",""37023""
","""event"",""trial"",""time""
""fullscreenenter"",""1"",""38526""
","
",,,,,,,,,,,,"[{""stimulus"":""run_exp/static/images/task_images/dig.jpg"",""time"":0.2999997138977051},{""stimulus"":""run_exp/static/images/task_images/land.jpg"",""time"":669.2999997138977},{""stimulus"":""run_exp/static/images/task_images/dig.jpg"",""time"":1342.8999996185303}]",[],,,,,,,,,,,,,,,
harvest_prac,32,229650,0.0-12.0-1.0,"""event"",""trial"",""time""
""blur"",""0"",""0""
""focus"",""0"",""0""
""blur"",""0"",""0""
""focus"",""0"",""0""
""blur"",""0"",""0""
""focus"",""1"",""37023""
""fullscreenenter"",""1"",""38526""
","""event"",""trial"",""time""
""blur"",""0"",""0""
""blur"",""0"",""0""
""blur"",""0"",""0""
","""event"",""trial"",""time""
""focus"",""0"",""0""
""focus"",""0"",""0""
""focus"",""1"",""37023""
","""event"",""trial"",""time""
""fullscreenenter"",""1"",""38526""
","
",,null,run_exp/static/images/task_images/barrel_text.jpg,null,,,,,,,,,,,,,,,,,,,,,,,,
decision_prac,33,230266,0.0-12.0-2.0,"""event"",""trial"",""time""
""blur"",""0"",""0""
""focus"",""0"",""0""
""blur"",""0"",""0""
""focus"",""0"",""0""
""blur"",""0"",""0""
""focus"",""1"",""37023""
""fullscreenenter"",""1"",""38526""
","""event"",""trial"",""time""
""blur"",""0"",""0""
""blur"",""0"",""0""
""blur"",""0"",""0""
","""event"",""trial"",""time""
""focus"",""0"",""0""
""focus"",""0"",""0""
""focus"",""1"",""37023""
","""event"",""trial"",""time""
""fullscreenenter"",""1"",""38526""
","
",,614,run_exp/static/images/task_images/land.jpg,65,,,,,,,,,,,2,,,,,,,,,,,,,
dig_prac,34,232276,0.0-13.0-0.0,"""event"",""trial"",""time""
""blur"",""0"",""0""
""focus"",""0"",""0""
""blur"",""0"",""0""
""focus"",""0"",""0""
""blur"",""0"",""0""
""focus"",""1"",""37023""
""fullscreenenter"",""1"",""38526""
","""event"",""trial"",""time""
""blur"",""0"",""0""
""blur"",""0"",""0""
""blur"",""0"",""0""
","""event"",""trial"",""time""
""focus"",""0"",""0""
""focus"",""0"",""0""
""focus"",""1"",""37023""
","""event"",""trial"",""time""
""fullscreenenter"",""1"",""38526""
","
",,,,,,,,,,,,"[{""stimulus"":""run_exp/static/images/task_images/dig.jpg"",""time"":0.3000001907348633},{""stimulus"":""run_exp/static/images/task_images/land.jpg"",""time"":676.5},{""stimulus"":""run_exp/static/images/task_images/dig.jpg"",""time"":1339.2000002861023}]",[],,,,,,,,,,,,,,,
harvest_prac,35,233284,0.0-13.0-1.0,"""event"",""trial"",""time""
""blur"",""0"",""0""
""focus"",""0"",""0""
""blur"",""0"",""0""
""focus"",""0"",""0""
""blur"",""0"",""0""
""focus"",""1"",""37023""
""fullscreenenter"",""1"",""38526""
","""event"",""trial"",""time""
""blur"",""0"",""0""
""blur"",""0"",""0""
""blur"",""0"",""0""
","""event"",""trial"",""time""
""focus"",""0"",""0""
""focus"",""0"",""0""
""focus"",""1"",""37023""
","""event"",""trial"",""time""
""fullscreenenter"",""1"",""38526""
","
",,null,run_exp/static/images/task_images/barrel_text.jpg,null,,,,,,,,,,,,,,,,,,,,,,,,
decision_prac,36,233311,0.0-13.0-2.0,"""event"",""trial"",""time""
""blur"",""0"",""0""
""focus"",""0"",""0""
""blur"",""0"",""0""
""focus"",""0"",""0""
""blur"",""0"",""0""
""focus"",""1"",""37023""
""fullscreenenter"",""1"",""38526""
","""event"",""trial"",""time""
""blur"",""0"",""0""
""blur"",""0"",""0""
""blur"",""0"",""0""
","""event"",""trial"",""time""
""focus"",""0"",""0""
""focus"",""0"",""0""
""focus"",""1"",""37023""
","""event"",""trial"",""time""
""fullscreenenter"",""1"",""38526""
","
",,25.4000001,run_exp/static/images/task_images/land.jpg,76,,,,,,,,,,,3,,,,,,,,,,,,,
travel,37,243300,0.0-14.0-0.0,"""event"",""trial"",""time""
""blur"",""0"",""0""
""focus"",""0"",""0""
""blur"",""0"",""0""
""focus"",""0"",""0""
""blur"",""0"",""0""
""focus"",""1"",""37023""
""fullscreenenter"",""1"",""38526""
","""event"",""trial"",""time""
""blur"",""0"",""0""
""blur"",""0"",""0""
""blur"",""0"",""0""
","""event"",""trial"",""time""
""focus"",""0"",""0""
""focus"",""0"",""0""
""focus"",""1"",""37023""
","""event"",""trial"",""time""
""fullscreenenter"",""1"",""38526""
","
",,,,,,,,,,,,"[{""stimulus"":""run_exp/static/images/task_images/rocket-01.jpg"",""time"":0.40000009536743164},{""stimulus"":""run_exp/static/images/task_images/rocket-02.jpg"",""time"":1114.4000000953674},{""stimulus"":""run_exp/static/images/task_images/rocket-03.jpg"",""time"":2227.7000002861023},{""stimulus"":""run_exp/static/images/task_images/rocket-04.jpg"",""time"":3331},{""stimulus"":""run_exp/static/images/task_images/rocket-05.jpg"",""time"":4435.200000286102},{""stimulus"":""run_exp/static/images/task_images/rocket-06.jpg"",""time"":5546.700000286102},{""stimulus"":""run_exp/static/images/task_images/rocket-07.jpg"",""time"":6651.800000190735},{""stimulus"":""run_exp/static/images/task_images/rocket-08.jpg"",""time"":7761},{""stimulus"":""run_exp/static/images/task_images/rocket-09.jpg"",""time"":8872.60000038147}]",[],0,,,,,,,,,,,,,,
alien_welcome_prac,38,248304,0.0-14.0-1.0,"""event"",""trial"",""time""
""blur"",""0"",""0""
""focus"",""0"",""0""
""blur"",""0"",""0""
""focus"",""0"",""0""
""blur"",""0"",""0""
""focus"",""1"",""37023""
""fullscreenenter"",""1"",""38526""
","""event"",""trial"",""time""
""blur"",""0"",""0""
""blur"",""0"",""0""
""blur"",""0"",""0""
","""event"",""trial"",""time""
""focus"",""0"",""0""
""focus"",""0"",""0""
""focus"",""1"",""37023""
","""event"",""trial"",""time""
""fullscreenenter"",""1"",""38526""
","
",,null,run_exp/static/images/task_images/aliens/practice_aliens/planet/alien_planet-4.jpg,null,,,,,,,,,,,,,,,,,,,,,,,,
land_prac,39,248814,0.0-14.0-2.0,"""event"",""trial"",""time""
""blur"",""0"",""0""
""focus"",""0"",""0""
""blur"",""0"",""0""
""focus"",""0"",""0""
""blur"",""0"",""0""
""focus"",""1"",""37023""
""fullscreenenter"",""1"",""38526""
","""event"",""trial"",""time""
""blur"",""0"",""0""
""blur"",""0"",""0""
""blur"",""0"",""0""
","""event"",""trial"",""time""
""focus"",""0"",""0""
""focus"",""0"",""0""
""focus"",""1"",""37023""
","""event"",""trial"",""time""
""fullscreenenter"",""1"",""38526""
","
",,null,run_exp/static/images/task_images/land.jpg,null,,,,,,,99,,,0,,,,,,,,,,,,,,
dig_prac,40,250828,0.0-14.0-3.0,"""event"",""trial"",""time""
""blur"",""0"",""0""
""focus"",""0"",""0""
""blur"",""0"",""0""
""focus"",""0"",""0""
""blur"",""0"",""0""
""focus"",""1"",""37023""
""fullscreenenter"",""1"",""38526""
","""event"",""trial"",""time""
""blur"",""0"",""0""
""blur"",""0"",""0""
""blur"",""0"",""0""
","""event"",""trial"",""time""
""focus"",""0"",""0""
""focus"",""0"",""0""
""focus"",""1"",""37023""
","""event"",""trial"",""time""
""fullscreenenter"",""1"",""38526""
","
",,,,,,,,,,,,"[{""stimulus"":""run_exp/static/images/task_images/dig.jpg"",""time"":0.3000001907348633},{""stimulus"":""run_exp/static/images/task_images/land.jpg"",""time"":669.4000000953674},{""stimulus"":""run_exp/static/images/task_images/dig.jpg"",""time"":1342.2000002861023}]",[],,,,,,,,,,,,,,,
harvest_prac,41,251834,0.0-14.0-4.0,"""event"",""trial"",""time""
""blur"",""0"",""0""
""focus"",""0"",""0""
""blur"",""0"",""0""
""focus"",""0"",""0""
""blur"",""0"",""0""
""focus"",""1"",""37023""
""fullscreenenter"",""1"",""38526""
","""event"",""trial"",""time""
""blur"",""0"",""0""
""blur"",""0"",""0""
""blur"",""0"",""0""
","""event"",""trial"",""time""
""focus"",""0"",""0""
""focus"",""0"",""0""
""focus"",""1"",""37023""
","""event"",""trial"",""time""
""fullscreenenter"",""1"",""38526""
","
",,null,run_exp/static/images/task_images/barrel_text.jpg,null,,,,,,,,,,,,,,,,,,,,,,,,
decision_prac,42,253422,0.0-14.0-5.0,"""event"",""trial"",""time""
""blur"",""0"",""0""
""focus"",""0"",""0""
""blur"",""0"",""0""
""focus"",""0"",""0""
""blur"",""0"",""0""
""focus"",""1"",""37023""
""fullscreenenter"",""1"",""38526""
","""event"",""trial"",""time""
""blur"",""0"",""0""
""blur"",""0"",""0""
""blur"",""0"",""0""
","""event"",""trial"",""time""
""focus"",""0"",""0""
""focus"",""0"",""0""
""focus"",""1"",""37023""
","""event"",""trial"",""time""
""fullscreenenter"",""1"",""38526""
","
",,1585.6,run_exp/static/images/task_images/land.jpg,65,,,,,,,,,,,4,,,,,,,,,,,,,
dig_prac,43,255438,0.0-15.0-0.0,"""event"",""trial"",""time""
""blur"",""0"",""0""
""focus"",""0"",""0""
""blur"",""0"",""0""
""focus"",""0"",""0""
""blur"",""0"",""0""
""focus"",""1"",""37023""
""fullscreenenter"",""1"",""38526""
","""event"",""trial"",""time""
""blur"",""0"",""0""
""blur"",""0"",""0""
""blur"",""0"",""0""
","""event"",""trial"",""time""
""focus"",""0"",""0""
""focus"",""0"",""0""
""focus"",""1"",""37023""
","""event"",""trial"",""time""
""fullscreenenter"",""1"",""38526""
","
",,,,,,,,,,,,"[{""stimulus"":""run_exp/static/images/task_images/dig.jpg"",""time"":0.40000009536743164},{""stimulus"":""run_exp/static/images/task_images/land.jpg"",""time"":672.6999998092651},{""stimulus"":""run_exp/static/images/task_images/dig.jpg"",""time"":1347.7999997138977}]",[],,,,,,,,,,,,,,,
harvest_prac,44,256440,0.0-15.0-1.0,"""event"",""trial"",""time""
""blur"",""0"",""0""
""focus"",""0"",""0""
""blur"",""0"",""0""
""focus"",""0"",""0""
""blur"",""0"",""0""
""focus"",""1"",""37023""
""fullscreenenter"",""1"",""38526""
","""event"",""trial"",""time""
""blur"",""0"",""0""
""blur"",""0"",""0""
""blur"",""0"",""0""
","""event"",""trial"",""time""
""focus"",""0"",""0""
""focus"",""0"",""0""
""focus"",""1"",""37023""
","""event"",""trial"",""time""
""fullscreenenter"",""1"",""38526""
","
",,null,run_exp/static/images/task_images/barrel_text.jpg,null,,,,,,,,,,,,,,,,,,,,,,,,
decision_prac,45,256745,0.0-15.0-2.0,"""event"",""trial"",""time""
""blur"",""0"",""0""
""focus"",""0"",""0""
""blur"",""0"",""0""
""focus"",""0"",""0""
""blur"",""0"",""0""
""focus"",""1"",""37023""
""fullscreenenter"",""1"",""38526""
","""event"",""trial"",""time""
""blur"",""0"",""0""
""blur"",""0"",""0""
""blur"",""0"",""0""
","""event"",""trial"",""time""
""focus"",""0"",""0""
""focus"",""0"",""0""
""focus"",""1"",""37023""
","""event"",""trial"",""time""
""fullscreenenter"",""1"",""38526""
","
",,303.5,run_exp/static/images/task_images/land.jpg,76,,,,,,,,,,,,1,,,,,,,,,,,,
quiz_instruc,46,260980,0.0-16.0-0.0,"""event"",""trial"",""time""
""blur"",""0"",""0""
""focus"",""0"",""0""
""blur"",""0"",""0""
""focus"",""0"",""0""
""blur"",""0"",""0""
""focus"",""1"",""37023""
""fullscreenenter"",""1"",""38526""
","""event"",""trial"",""time""
""blur"",""0"",""0""
""blur"",""0"",""0""
""blur"",""0"",""0""
","""event"",""trial"",""time""
""focus"",""0"",""0""
""focus"",""0"",""0""
""focus"",""1"",""37023""
","""event"",""trial"",""time""
""fullscreenenter"",""1"",""38526""
","
",,4229.2,run_exp/static/audio/clip_10_quiz.m4a,,,,,,,0,,,,,,,,,,,,,,,,,,
instruc_repeat,47,303755,0.0-16.0-1.0,"""event"",""trial"",""time""
""blur"",""0"",""0""
""focus"",""0"",""0""
""blur"",""0"",""0""
""focus"",""0"",""0""
""blur"",""0"",""0""
""focus"",""1"",""37023""
""fullscreenenter"",""1"",""38526""
","""event"",""trial"",""time""
""blur"",""0"",""0""
""blur"",""0"",""0""
""blur"",""0"",""0""
","""event"",""trial"",""time""
""focus"",""0"",""0""
""focus"",""0"",""0""
""focus"",""1"",""37023""
","""event"",""trial"",""time""
""fullscreenenter"",""1"",""38526""
","
",,null,"<p> Are you ready to play a practice game? </p> <p>In this practice game, you'll be digging up barrels of gems. But, in the real game, you'll be digging up the gems themselves. </p>",null,"<p>In this game, your goal is to collect as many gems as you can. That’s how you will win bonus money. </p> <p>The entire game will last 20 minutes no matter how many gems you collect or how many planets you visit. </p><p>To stay on a planet and dig again, press the letter A on your keyboard. To leave for a new planet, press the letter L.</p><p>The more you dig on a planet, the fewer gems you’ll get with each dig which is why you might consider leaving for a new planet. </p><p>When you arrive at a new planet, you’ll be greeted by an alien. What the alien looks like does not tell you anything about how much treasure is on the planet. </p>",,,,,,,,,,,,,,,,,,,,,,,
instruc_repeat_continue,48,305274,0.0-16.0-2.0,"""event"",""trial"",""time""
""blur"",""0"",""0""
""focus"",""0"",""0""
""blur"",""0"",""0""
""focus"",""0"",""0""
""blur"",""0"",""0""
""focus"",""1"",""37023""
""fullscreenenter"",""1"",""38526""
","""event"",""trial"",""time""
""blur"",""0"",""0""
""blur"",""0"",""0""
""blur"",""0"",""0""
","""event"",""trial"",""time""
""focus"",""0"",""0""
""focus"",""0"",""0""
""focus"",""1"",""37023""
","""event"",""trial"",""time""
""fullscreenenter"",""1"",""38526""
","
",,1515.5,"<p> Are you ready to play a practice game? </p> <p>In this practice game, you'll be digging up barrels of gems. But, in the real game, you'll be digging up the gems themselves. </p>",,,,,,,0,,,,,,,,,,,,,,,,,,
quiz_q_1_ask,49,309835,0.0-16.0-3.0,"""event"",""trial"",""time""
""blur"",""0"",""0""
""focus"",""0"",""0""
""blur"",""0"",""0""
""focus"",""0"",""0""
""blur"",""0"",""0""
""focus"",""1"",""37023""
""fullscreenenter"",""1"",""38526""
","""event"",""trial"",""time""
""blur"",""0"",""0""
""blur"",""0"",""0""
""blur"",""0"",""0""
","""event"",""trial"",""time""
""focus"",""0"",""0""
""focus"",""0"",""0""
""focus"",""1"",""37023""
","""event"",""trial"",""time""
""fullscreenenter"",""1"",""38526""
","
",,4558.2,run_exp/static/audio/clip_11_q1_ask.m4a,,,,,,,2,,,,,,,,,,,,,,,,,,
quiz_q_1_fb_correct,50,313712,0.0-17.0-0.0,"""event"",""trial"",""time""
""blur"",""0"",""0""
""focus"",""0"",""0""
""blur"",""0"",""0""
""focus"",""0"",""0""
""blur"",""0"",""0""
""focus"",""1"",""37023""
""fullscreenenter"",""1"",""38526""
","""event"",""trial"",""time""
""blur"",""0"",""0""
""blur"",""0"",""0""
""blur"",""0"",""0""
","""event"",""trial"",""time""
""focus"",""0"",""0""
""focus"",""0"",""0""
""focus"",""1"",""37023""
","""event"",""trial"",""time""
""fullscreenenter"",""1"",""38526""
","
",,null,run_exp/static/audio/clip_12_q1_correct.m4a,null,<p>That’s correct. You win extra money by collecting more gems.</p>,,,,,,,,,,,,,,,,,,,,,,,
quiz_q_2_ask,51,315705,0.0-17.0-1.0,"""event"",""trial"",""time""
""blur"",""0"",""0""
""focus"",""0"",""0""
""blur"",""0"",""0""
""focus"",""0"",""0""
""blur"",""0"",""0""
""focus"",""1"",""37023""
""fullscreenenter"",""1"",""38526""
","""event"",""trial"",""time""
""blur"",""0"",""0""
""blur"",""0"",""0""
""blur"",""0"",""0""
","""event"",""trial"",""time""
""focus"",""0"",""0""
""focus"",""0"",""0""
""focus"",""1"",""37023""
","""event"",""trial"",""time""
""fullscreenenter"",""1"",""38526""
","
",,1984.7,run_exp/static/audio/clip_14_q2_ask.m4a,,,,,,,1,,,,,,,,,,,,,,,,,,
quiz_q_2_fb_correct,52,319728,0.0-18.0-0.0,"""event"",""trial"",""time""
""blur"",""0"",""0""
""focus"",""0"",""0""
""blur"",""0"",""0""
""focus"",""0"",""0""
""blur"",""0"",""0""
""focus"",""1"",""37023""
""fullscreenenter"",""1"",""38526""
","""event"",""trial"",""time""
""blur"",""0"",""0""
""blur"",""0"",""0""
""blur"",""0"",""0""
","""event"",""trial"",""time""
""focus"",""0"",""0""
""focus"",""0"",""0""
""focus"",""1"",""37023""
","""event"",""trial"",""time""
""fullscreenenter"",""1"",""38526""
","
",,null,run_exp/static/audio/clip_15_q2_correct.m4a,null,<p>That’s correct. The experiment is 20 minutes no matter what.</p>,,,,,,,,,,,,,,,,,,,,,,,
quiz_q_3_ask,53,322381,0.0-18.0-1.0,"""event"",""trial"",""time""
""blur"",""0"",""0""
""focus"",""0"",""0""
""blur"",""0"",""0""
""focus"",""0"",""0""
""blur"",""0"",""0""
""focus"",""1"",""37023""
""fullscreenenter"",""1"",""38526""
","""event"",""trial"",""time""
""blur"",""0"",""0""
""blur"",""0"",""0""
""blur"",""0"",""0""
","""event"",""trial"",""time""
""focus"",""0"",""0""
""focus"",""0"",""0""
""focus"",""1"",""37023""
","""event"",""trial"",""time""
""fullscreenenter"",""1"",""38526""
","
",,2647.8,run_exp/static/audio/clip_17_q3_ask.m4a,,,,,,,1,,,,,,,,,,,,,,,,,,
quiz_q_3_fb_correct,54,326384,0.0-19.0-0.0,"""event"",""trial"",""time""
""blur"",""0"",""0""
""focus"",""0"",""0""
""blur"",""0"",""0""
""focus"",""0"",""0""
""blur"",""0"",""0""
""focus"",""1"",""37023""
""fullscreenenter"",""1"",""38526""
","""event"",""trial"",""time""
""blur"",""0"",""0""
""blur"",""0"",""0""
""blur"",""0"",""0""
","""event"",""trial"",""time""
""focus"",""0"",""0""
""focus"",""0"",""0""
""focus"",""1"",""37023""
","""event"",""trial"",""time""
""fullscreenenter"",""1"",""38526""
","
",,null,run_exp/static/audio/clip_18_q3_correct.m4a,null,<p> That’s correct. You press the letter L to travel to a new planet.</p>,,,,,,,,,,,,,,,,,,,,,,,
quiz_q_4_ask,55,329184,0.0-19.0-1.0,"""event"",""trial"",""time""
""blur"",""0"",""0""
""focus"",""0"",""0""
""blur"",""0"",""0""
""focus"",""0"",""0""
""blur"",""0"",""0""
""focus"",""1"",""37023""
""fullscreenenter"",""1"",""38526""
","""event"",""trial"",""time""
""blur"",""0"",""0""
""blur"",""0"",""0""
""blur"",""0"",""0""
","""event"",""trial"",""time""
""focus"",""0"",""0""
""focus"",""0"",""0""
""focus"",""1"",""37023""
","""event"",""trial"",""time""
""fullscreenenter"",""1"",""38526""
","
",,2795,run_exp/static/audio/clip_20_q4_ask.m4a,,,,,,,0,,,,,,,,,,,,,,,,,,
quiz_q_4_fb_correct,56,334511,0.0-20.0-0.0,"""event"",""trial"",""time""
""blur"",""0"",""0""
""focus"",""0"",""0""
""blur"",""0"",""0""
""focus"",""0"",""0""
""blur"",""0"",""0""
""focus"",""1"",""37023""
""fullscreenenter"",""1"",""38526""
","""event"",""trial"",""time""
""blur"",""0"",""0""
""blur"",""0"",""0""
""blur"",""0"",""0""
","""event"",""trial"",""time""
""focus"",""0"",""0""
""focus"",""0"",""0""
""focus"",""1"",""37023""
","""event"",""trial"",""time""
""fullscreenenter"",""1"",""38526""
","
",,null,run_exp/static/audio/clip_21_q4_correct.m4a,null,<p> That’s correct. The more you dig on a planet the fewer gems you’ll get with each dig. </p>,,,,,,,,,,,,,,,,,,,,,,,
quiz_q_5_ask,57,336851,0.0-20.0-1.0,"""event"",""trial"",""time""
""blur"",""0"",""0""
""focus"",""0"",""0""
""blur"",""0"",""0""
""focus"",""0"",""0""
""blur"",""0"",""0""
""focus"",""1"",""37023""
""fullscreenenter"",""1"",""38526""
","""event"",""trial"",""time""
""blur"",""0"",""0""
""blur"",""0"",""0""
""blur"",""0"",""0""
","""event"",""trial"",""time""
""focus"",""0"",""0""
""focus"",""0"",""0""
""focus"",""1"",""37023""
","""event"",""trial"",""time""
""fullscreenenter"",""1"",""38526""
","
",,2334,run_exp/static/audio/clip_23_q5_ask.m4a,,,,,,,1,,,,,,,,,,,,,,,,,,
quiz_q_5_fb_correct,58,341871,0.0-21.0-0.0,"""event"",""trial"",""time""
""blur"",""0"",""0""
""focus"",""0"",""0""
""blur"",""0"",""0""
""focus"",""0"",""0""
""blur"",""0"",""0""
""focus"",""1"",""37023""
""fullscreenenter"",""1"",""38526""
","""event"",""trial"",""time""
""blur"",""0"",""0""
""blur"",""0"",""0""
""blur"",""0"",""0""
","""event"",""trial"",""time""
""focus"",""0"",""0""
""focus"",""0"",""0""
""focus"",""1"",""37023""
","""event"",""trial"",""time""
""fullscreenenter"",""1"",""38526""
","
",,null,run_exp/static/audio/clip_24_q5_correct.m4a,null,<p> That’s correct. The alien tells you nothing about how much treasure is on the planet.</p>,,,,,,,,,,,,,,,,,,,,,,,
quiz_correct,59,345350,0.0-22.0-0.0,"""event"",""trial"",""time""
""blur"",""0"",""0""
""focus"",""0"",""0""
""blur"",""0"",""0""
""focus"",""0"",""0""
""blur"",""0"",""0""
""focus"",""1"",""37023""
""fullscreenenter"",""1"",""38526""
","""event"",""trial"",""time""
""blur"",""0"",""0""
""blur"",""0"",""0""
""blur"",""0"",""0""
","""event"",""trial"",""time""
""focus"",""0"",""0""
""focus"",""0"",""0""
""focus"",""1"",""37023""
","""event"",""trial"",""time""
""fullscreenenter"",""1"",""38526""
","
",,null,run_exp/static/audio/clip_26_correct_quiz.m4a,null,,,,,,,,,,,,,,,,,,,,,,,,
quiz_correct_continue,60,346112,0.0-22.0-1.0,"""event"",""trial"",""time""
""blur"",""0"",""0""
""focus"",""0"",""0""
""blur"",""0"",""0""
""focus"",""0"",""0""
""blur"",""0"",""0""
""focus"",""1"",""37023""
""fullscreenenter"",""1"",""38526""
","""event"",""trial"",""time""
""blur"",""0"",""0""
""blur"",""0"",""0""
""blur"",""0"",""0""
","""event"",""trial"",""time""
""focus"",""0"",""0""
""focus"",""0"",""0""
""focus"",""1"",""37023""
","""event"",""trial"",""time""
""fullscreenenter"",""1"",""38526""
","
",,761.3000002,<p>Good job! You're now ready to move on to the real game!</p>,,,,,,,0,,,,,,,,,,,,,,,,,,
audio-keyboard-response,61,356258,0.0-22.0-2.0,"""event"",""trial"",""time""
""blur"",""0"",""0""
""focus"",""0"",""0""
""blur"",""0"",""0""
""focus"",""0"",""0""
""blur"",""0"",""0""
""focus"",""1"",""37023""
""fullscreenenter"",""1"",""38526""
","""event"",""trial"",""time""
""blur"",""0"",""0""
""blur"",""0"",""0""
""blur"",""0"",""0""
","""event"",""trial"",""time""
""focus"",""0"",""0""
""focus"",""0"",""0""
""focus"",""1"",""37023""
","""event"",""trial"",""time""
""fullscreenenter"",""1"",""38526""
","
",,null,run_exp/static/audio/clip_28_real_game.m4a,null,,,,,,,,,,,,,,,,,,,,,,,,
instruc_begin_exp_contine,62,357918,0.0-22.0-3.0,"""event"",""trial"",""time""
""blur"",""0"",""0""
""focus"",""0"",""0""
""blur"",""0"",""0""
""focus"",""0"",""0""
""blur"",""0"",""0""
""focus"",""1"",""37023""
""fullscreenenter"",""1"",""38526""
","""event"",""trial"",""time""
""blur"",""0"",""0""
""blur"",""0"",""0""
""blur"",""0"",""0""
","""event"",""trial"",""time""
""focus"",""0"",""0""
""focus"",""0"",""0""
""focus"",""1"",""37023""
","""event"",""trial"",""time""
""fullscreenenter"",""1"",""38526""
","
",,1656,"<p>Now that you know how  to dig for space treasure and travel to new planets,you can start exploring! </p><p>Do you want to go over the instructions again or get started with the real game?</p>",,,,,,,1,,,,,,1,,,,,,,,,,,,
alien_welcome,63,362927,0.0-23.0-0.0,"""event"",""trial"",""time""
""blur"",""0"",""0""
""focus"",""0"",""0""
""blur"",""0"",""0""
""focus"",""0"",""0""
""blur"",""0"",""0""
""focus"",""1"",""37023""
""fullscreenenter"",""1"",""38526""
","""event"",""trial"",""time""
""blur"",""0"",""0""
""blur"",""0"",""0""
""blur"",""0"",""0""
","""event"",""trial"",""time""
""focus"",""0"",""0""
""focus"",""0"",""0""
""focus"",""1"",""37023""
","""event"",""trial"",""time""
""fullscreenenter"",""1"",""38526""
","
",,null,run_exp/static/images/task_images/aliens/old_aliens/planet/alien_planet-23.jpg,null,,,,,,,,,,,,,23,"23,66,49,35,41,12,45,73,3,65,77,5,29,34,31,44,1,25,2,78,15,28,70,80,36,51,75,18,37,38,50,59,67,4,6,62,60,30,46,56,32,39,11,79,61,27,53,13,47,22,14,69,71,16,10,72,54,43,8,19,7,26",,,,,,,,,,
land,64,363437,0.0-23.0-1.0,"""event"",""trial"",""time""
""blur"",""0"",""0""
""focus"",""0"",""0""
""blur"",""0"",""0""
""focus"",""0"",""0""
""blur"",""0"",""0""
""focus"",""1"",""37023""
""fullscreenenter"",""1"",""38526""
","""event"",""trial"",""time""
""blur"",""0"",""0""
""blur"",""0"",""0""
""blur"",""0"",""0""
","""event"",""trial"",""time""
""focus"",""0"",""0""
""focus"",""0"",""0""
""focus"",""1"",""37023""
","""event"",""trial"",""time""
""fullscreenenter"",""1"",""38526""
","
",,null,run_exp/static/images/task_images/land.jpg,null,,,,,,,94,,,1,,,,,,,,,,,,,,
dig,65,365451,0.0-23.0-2.0,"""event"",""trial"",""time""
""blur"",""0"",""0""
""focus"",""0"",""0""
""blur"",""0"",""0""
""focus"",""0"",""0""
""blur"",""0"",""0""
""focus"",""1"",""37023""
""fullscreenenter"",""1"",""38526""
","""event"",""trial"",""time""
""blur"",""0"",""0""
""blur"",""0"",""0""
""blur"",""0"",""0""
","""event"",""trial"",""time""
""focus"",""0"",""0""
""focus"",""0"",""0""
""focus"",""1"",""37023""
","""event"",""trial"",""time""
""fullscreenenter"",""1"",""38526""
","
",,,,,,,,,,,,"[{""stimulus"":""run_exp/static/images/task_images/dig.jpg"",""time"":0.3000001907348633},{""stimulus"":""run_exp/static/images/task_images/land.jpg"",""time"":670.9000000953674},{""stimulus"":""run_exp/static/images/task_images/dig.jpg"",""time"":1339.2000002861023}]",[],1,,,,,,,,,,,,,,
harvest,66,366454,0.0-23.0-3.0,"""event"",""trial"",""time""
""blur"",""0"",""0""
""focus"",""0"",""0""
""blur"",""0"",""0""
""focus"",""0"",""0""
""blur"",""0"",""0""
""focus"",""1"",""37023""
""fullscreenenter"",""1"",""38526""
","""event"",""trial"",""time""
""blur"",""0"",""0""
""blur"",""0"",""0""
""blur"",""0"",""0""
","""event"",""trial"",""time""
""focus"",""0"",""0""
""focus"",""0"",""0""
""focus"",""1"",""37023""
","""event"",""trial"",""time""
""fullscreenenter"",""1"",""38526""
","
",,null,run_exp/static/images/task_images/gems/94.jpg,null,,,,,,,21,,,1,,,,,94,0.223708828,0.223404255,,,,,,,
decision,67,367302,0.0-23.0-4.0,"""event"",""trial"",""time""
""blur"",""0"",""0""
""focus"",""0"",""0""
""blur"",""0"",""0""
""focus"",""0"",""0""
""blur"",""0"",""0""
""focus"",""1"",""37023""
""fullscreenenter"",""1"",""38526""
","""event"",""trial"",""time""
""blur"",""0"",""0""
""blur"",""0"",""0""
""blur"",""0"",""0""
","""event"",""trial"",""time""
""focus"",""0"",""0""
""focus"",""0"",""0""
""focus"",""1"",""37023""
","""event"",""trial"",""time""
""fullscreenenter"",""1"",""38526""
","
",,846.3000002,run_exp/static/images/task_images/land.jpg,65,,,,,,,21,,,1,,,,,,,,9383,1,0,FALSE,,,
dig,68,369462,0.0-24.0-0.0,"""event"",""trial"",""time""
""blur"",""0"",""0""
""focus"",""0"",""0""
""blur"",""0"",""0""
""focus"",""0"",""0""
""blur"",""0"",""0""
""focus"",""1"",""37023""
""fullscreenenter"",""1"",""38526""
","""event"",""trial"",""time""
""blur"",""0"",""0""
""blur"",""0"",""0""
""blur"",""0"",""0""
","""event"",""trial"",""time""
""focus"",""0"",""0""
""focus"",""0"",""0""
""focus"",""1"",""37023""
","""event"",""trial"",""time""
""fullscreenenter"",""1"",""38526""
","
",,,,,,,,,,,,"[{""stimulus"":""run_exp/static/images/task_images/dig.jpg"",""time"":0.39999961853027344},{""stimulus"":""run_exp/static/images/task_images/land.jpg"",""time"":719.8999996185303},{""stimulus"":""run_exp/static/images/task_images/dig.jpg"",""time"":1440.5999999046326}]",[],1,,,,,,,,,,,,,,
harvest,69,370467,0.0-24.0-1.0,"""event"",""trial"",""time""
""blur"",""0"",""0""
""focus"",""0"",""0""
""blur"",""0"",""0""
""focus"",""0"",""0""
""blur"",""0"",""0""
""focus"",""1"",""37023""
""fullscreenenter"",""1"",""38526""
","""event"",""trial"",""time""
""blur"",""0"",""0""
""blur"",""0"",""0""
""blur"",""0"",""0""
","""event"",""trial"",""time""
""focus"",""0"",""0""
""focus"",""0"",""0""
""focus"",""1"",""37023""
","""event"",""trial"",""time""
""fullscreenenter"",""1"",""38526""
","
",,null,run_exp/static/images/task_images/gems/21.jpg,null,,,,,,,5,,,1,,,,,21,0.236474677,0.238095238,,,,,,,
decision,70,370560,0.0-24.0-2.0,"""event"",""trial"",""time""
""blur"",""0"",""0""
""focus"",""0"",""0""
""blur"",""0"",""0""
""focus"",""0"",""0""
""blur"",""0"",""0""
""focus"",""1"",""37023""
""fullscreenenter"",""1"",""38526""
","""event"",""trial"",""time""
""blur"",""0"",""0""
""blur"",""0"",""0""
""blur"",""0"",""0""
","""event"",""trial"",""time""
""focus"",""0"",""0""
""focus"",""0"",""0""
""focus"",""1"",""37023""
","""event"",""trial"",""time""
""fullscreenenter"",""1"",""38526""
","
",,90.80000019,run_exp/static/images/task_images/land.jpg,76,,,,,,,5,,,1,,,,,,,,12640,1,1,TRUE,,,
travel,71,380475,0.0-25.0-0.0,"""event"",""trial"",""time""
""blur"",""0"",""0""
""focus"",""0"",""0""
""blur"",""0"",""0""
""focus"",""0"",""0""
""blur"",""0"",""0""
""focus"",""1"",""37023""
""fullscreenenter"",""1"",""38526""
","""event"",""trial"",""time""
""blur"",""0"",""0""
""blur"",""0"",""0""
""blur"",""0"",""0""
","""event"",""trial"",""time""
""focus"",""0"",""0""
""focus"",""0"",""0""
""focus"",""1"",""37023""
","""event"",""trial"",""time""
""fullscreenenter"",""1"",""38526""
","
",,,,,,,,,,,,"[{""stimulus"":""run_exp/static/images/task_images/rocket-01.jpg"",""time"":0.3000001907348633},{""stimulus"":""run_exp/static/images/task_images/rocket-02.jpg"",""time"":1109.8000001907349},{""stimulus"":""run_exp/static/images/task_images/rocket-03.jpg"",""time"":2207.5},{""stimulus"":""run_exp/static/images/task_images/rocket-04.jpg"",""time"":3310},{""stimulus"":""run_exp/static/images/task_images/rocket-05.jpg"",""time"":4407.400000095367},{""stimulus"":""run_exp/static/images/task_images/rocket-06.jpg"",""time"":5508.300000190735},{""stimulus"":""run_exp/static/images/task_images/rocket-07.jpg"",""time"":6609.400000095367},{""stimulus"":""run_exp/static/images/task_images/rocket-08.jpg"",""time"":7723.300000190735},{""stimulus"":""run_exp/static/images/task_images/rocket-09.jpg"",""time"":8815.099999904633}]",[],1,,,,,,,,,,,,,,
alien_welcome,72,385481,0.0-25.0-1.0,"""event"",""trial"",""time""
""blur"",""0"",""0""
""focus"",""0"",""0""
""blur"",""0"",""0""
""focus"",""0"",""0""
""blur"",""0"",""0""
""focus"",""1"",""37023""
""fullscreenenter"",""1"",""38526""
","""event"",""trial"",""time""
""blur"",""0"",""0""
""blur"",""0"",""0""
""blur"",""0"",""0""
","""event"",""trial"",""time""
""focus"",""0"",""0""
""focus"",""0"",""0""
""focus"",""1"",""37023""
","""event"",""trial"",""time""
""fullscreenenter"",""1"",""38526""
","
",,null,run_exp/static/images/task_images/aliens/old_aliens/planet/alien_planet-66.jpg,null,,,,,,,,,,,,,66,"23,66,49,35,41,12,45,73,3,65,77,5,29,34,31,44,1,25,2,78,15,28,70,80,36,51,75,18,37,38,50,59,67,4,6,62,60,30,46,56,32,39,11,79,61,27,53,13,47,22,14,69,71,16,10,72,54,43,8,19,7,26",,,,,,,,,,
land,73,385991,0.0-25.0-2.0,"""event"",""trial"",""time""
""blur"",""0"",""0""
""focus"",""0"",""0""
""blur"",""0"",""0""
""focus"",""0"",""0""
""blur"",""0"",""0""
""focus"",""1"",""37023""
""fullscreenenter"",""1"",""38526""
","""event"",""trial"",""time""
""blur"",""0"",""0""
""blur"",""0"",""0""
""blur"",""0"",""0""
","""event"",""trial"",""time""
""focus"",""0"",""0""
""focus"",""0"",""0""
""focus"",""1"",""37023""
","""event"",""trial"",""time""
""fullscreenenter"",""1"",""38526""
","
",,null,run_exp/static/images/task_images/land.jpg,null,,,,,,,98,,,2,,,,,,,,,,,,,,
dig,74,388002,0.0-25.0-3.0,"""event"",""trial"",""time""
""blur"",""0"",""0""
""focus"",""0"",""0""
""blur"",""0"",""0""
""focus"",""0"",""0""
""blur"",""0"",""0""
""focus"",""1"",""37023""
""fullscreenenter"",""1"",""38526""
","""event"",""trial"",""time""
""blur"",""0"",""0""
""blur"",""0"",""0""
""blur"",""0"",""0""
","""event"",""trial"",""time""
""focus"",""0"",""0""
""focus"",""0"",""0""
""focus"",""1"",""37023""
","""event"",""trial"",""time""
""fullscreenenter"",""1"",""38526""
","
",,,,,,,,,,,,"[{""stimulus"":""run_exp/static/images/task_images/dig.jpg"",""time"":0.40000009536743164},{""stimulus"":""run_exp/static/images/task_images/land.jpg"",""time"":675.9000000953674},{""stimulus"":""run_exp/static/images/task_images/dig.jpg"",""time"":1339}]",[],2,,,,,,,,,,,,,,
harvest,75,389018,0.0-25.0-4.0,"""event"",""trial"",""time""
""blur"",""0"",""0""
""focus"",""0"",""0""
""blur"",""0"",""0""
""focus"",""0"",""0""
""blur"",""0"",""0""
""focus"",""1"",""37023""
""fullscreenenter"",""1"",""38526""
","""event"",""trial"",""time""
""blur"",""0"",""0""
""blur"",""0"",""0""
""blur"",""0"",""0""
","""event"",""trial"",""time""
""focus"",""0"",""0""
""focus"",""0"",""0""
""focus"",""1"",""37023""
","""event"",""trial"",""time""
""fullscreenenter"",""1"",""38526""
","
",,null,run_exp/static/images/task_images/gems/98.jpg,null,,,,,,,19,,,2,,,,,98,0.191103318,0.193877551,,,,,,,
decision,76,389488,0.0-25.0-5.0,"""event"",""trial"",""time""
""blur"",""0"",""0""
""focus"",""0"",""0""
""blur"",""0"",""0""
""focus"",""0"",""0""
""blur"",""0"",""0""
""focus"",""1"",""37023""
""fullscreenenter"",""1"",""38526""
","""event"",""trial"",""time""
""blur"",""0"",""0""
""blur"",""0"",""0""
""blur"",""0"",""0""
","""event"",""trial"",""time""
""focus"",""0"",""0""
""focus"",""0"",""0""
""focus"",""1"",""37023""
","""event"",""trial"",""time""
""fullscreenenter"",""1"",""38526""
","
",,468.2000003,run_exp/static/images/task_images/land.jpg,65,,,,,,,19,,,2,,,,,,,,31568,1,0,FALSE,,,
dig,77,392023,0.0-26.0-0.0,"""event"",""trial"",""time""
""blur"",""0"",""0""
""focus"",""0"",""0""
""blur"",""0"",""0""
""focus"",""0"",""0""
""blur"",""0"",""0""
""focus"",""1"",""37023""
""fullscreenenter"",""1"",""38526""
","""event"",""trial"",""time""
""blur"",""0"",""0""
""blur"",""0"",""0""
""blur"",""0"",""0""
","""event"",""trial"",""time""
""focus"",""0"",""0""
""focus"",""0"",""0""
""focus"",""1"",""37023""
","""event"",""trial"",""time""
""fullscreenenter"",""1"",""38526""
","
",,,,,,,,,,,,"[{""stimulus"":""run_exp/static/images/task_images/dig.jpg"",""time"":0.2999997138977051},{""stimulus"":""run_exp/static/images/task_images/land.jpg"",""time"":845.5999999046326},{""stimulus"":""run_exp/static/images/task_images/dig.jpg"",""time"":1688.5}]",[],2,,,,,,,,,,,,,,
harvest,78,393025,0.0-26.0-1.0,"""event"",""trial"",""time""
""blur"",""0"",""0""
""focus"",""0"",""0""
""blur"",""0"",""0""
""focus"",""0"",""0""
""blur"",""0"",""0""
""focus"",""1"",""37023""
""fullscreenenter"",""1"",""38526""
","""event"",""trial"",""time""
""blur"",""0"",""0""
""blur"",""0"",""0""
""blur"",""0"",""0""
","""event"",""trial"",""time""
""focus"",""0"",""0""
""focus"",""0"",""0""
""focus"",""1"",""37023""
","""event"",""trial"",""time""
""fullscreenenter"",""1"",""38526""
","
",,null,run_exp/static/images/task_images/gems/19.jpg,null,,,,,,,4,,,2,,,,,19,0.2250426,0.210526316,,,,,,,
decision,79,393471,0.0-26.0-2.0,"""event"",""trial"",""time""
""blur"",""0"",""0""
""focus"",""0"",""0""
""blur"",""0"",""0""
""focus"",""0"",""0""
""blur"",""0"",""0""
""focus"",""1"",""37023""
""fullscreenenter"",""1"",""38526""
","""event"",""trial"",""time""
""blur"",""0"",""0""
""blur"",""0"",""0""
""blur"",""0"",""0""
","""event"",""trial"",""time""
""focus"",""0"",""0""
""focus"",""0"",""0""
""focus"",""1"",""37023""
","""event"",""trial"",""time""
""fullscreenenter"",""1"",""38526""
","
",,444.1000004,run_exp/static/images/task_images/land.jpg,65,,,,,,,4,,,2,,,,,,,,35551,1,1,FALSE,,,
dig,80,396031,0.0-27.0-0.0,"""event"",""trial"",""time""
""blur"",""0"",""0""
""focus"",""0"",""0""
""blur"",""0"",""0""
""focus"",""0"",""0""
""blur"",""0"",""0""
""focus"",""1"",""37023""
""fullscreenenter"",""1"",""38526""
","""event"",""trial"",""time""
""blur"",""0"",""0""
""blur"",""0"",""0""
""blur"",""0"",""0""
","""event"",""trial"",""time""
""focus"",""0"",""0""
""focus"",""0"",""0""
""focus"",""1"",""37023""
","""event"",""trial"",""time""
""fullscreenenter"",""1"",""38526""
","
",,,,,,,,,,,,"[{""stimulus"":""run_exp/static/images/task_images/dig.jpg"",""time"":0.39999961853027344},{""stimulus"":""run_exp/static/images/task_images/land.jpg"",""time"":856.2999997138977},{""stimulus"":""run_exp/static/images/task_images/dig.jpg"",""time"":1710.5999999046326}]",[],2,,,,,,,,,,,,,,
harvest,81,397034,0.0-27.0-1.0,"""event"",""trial"",""time""
""blur"",""0"",""0""
""focus"",""0"",""0""
""blur"",""0"",""0""
""focus"",""0"",""0""
""blur"",""0"",""0""
""focus"",""1"",""37023""
""fullscreenenter"",""1"",""38526""
","""event"",""trial"",""time""
""blur"",""0"",""0""
""blur"",""0"",""0""
""blur"",""0"",""0""
","""event"",""trial"",""time""
""focus"",""0"",""0""
""focus"",""0"",""0""
""focus"",""1"",""37023""
","""event"",""trial"",""time""
""fullscreenenter"",""1"",""38526""
","
",,null,run_exp/static/images/task_images/gems/4.jpg,null,,,,,,,1,,,2,,,,,4,0.139359354,0.25,,,,,,,
decision,82,397123,0.0-27.0-2.0,"""event"",""trial"",""time""
""blur"",""0"",""0""
""focus"",""0"",""0""
""blur"",""0"",""0""
""focus"",""0"",""0""
""blur"",""0"",""0""
""focus"",""1"",""37023""
""fullscreenenter"",""1"",""38526""
","""event"",""trial"",""time""
""blur"",""0"",""0""
""blur"",""0"",""0""
""blur"",""0"",""0""
","""event"",""trial"",""time""
""focus"",""0"",""0""
""focus"",""0"",""0""
""focus"",""1"",""37023""
","""event"",""trial"",""time""
""fullscreenenter"",""1"",""38526""
","
",,86.5,run_exp/static/images/task_images/land.jpg,76,,,,,,,1,,,2,,,,,,,,39203,1,2,TRUE,,,
travel,83,407039,0.0-28.0-0.0,"""event"",""trial"",""time""
""blur"",""0"",""0""
""focus"",""0"",""0""
""blur"",""0"",""0""
""focus"",""0"",""0""
""blur"",""0"",""0""
""focus"",""1"",""37023""
""fullscreenenter"",""1"",""38526""
","""event"",""trial"",""time""
""blur"",""0"",""0""
""blur"",""0"",""0""
""blur"",""0"",""0""
","""event"",""trial"",""time""
""focus"",""0"",""0""
""focus"",""0"",""0""
""focus"",""1"",""37023""
","""event"",""trial"",""time""
""fullscreenenter"",""1"",""38526""
","
",,,,,,,,,,,,"[{""stimulus"":""run_exp/static/images/task_images/rocket-01.jpg"",""time"":0.20000028610229492},{""stimulus"":""run_exp/static/images/task_images/rocket-02.jpg"",""time"":1105.2000002861023},{""stimulus"":""run_exp/static/images/task_images/rocket-03.jpg"",""time"":2210.4000000953674},{""stimulus"":""run_exp/static/images/task_images/rocket-04.jpg"",""time"":3308.0999999046326},{""stimulus"":""run_exp/static/images/task_images/rocket-05.jpg"",""time"":4409.800000190735},{""stimulus"":""run_exp/static/images/task_images/rocket-06.jpg"",""time"":5510.900000095367},{""stimulus"":""run_exp/static/images/task_images/rocket-07.jpg"",""time"":6620.200000286102},{""stimulus"":""run_exp/static/images/task_images/rocket-08.jpg"",""time"":7716.700000286102},{""stimulus"":""run_exp/static/images/task_images/rocket-09.jpg"",""time"":8812.400000095367}]",[],2,,,,,,,,,,,,,,
alien_welcome,84,412046,0.0-28.0-1.0,"""event"",""trial"",""time""
""blur"",""0"",""0""
""focus"",""0"",""0""
""blur"",""0"",""0""
""focus"",""0"",""0""
""blur"",""0"",""0""
""focus"",""1"",""37023""
""fullscreenenter"",""1"",""38526""
","""event"",""trial"",""time""
""blur"",""0"",""0""
""blur"",""0"",""0""
""blur"",""0"",""0""
","""event"",""trial"",""time""
""focus"",""0"",""0""
""focus"",""0"",""0""
""focus"",""1"",""37023""
","""event"",""trial"",""time""
""fullscreenenter"",""1"",""38526""
","
",,null,run_exp/static/images/task_images/aliens/old_aliens/planet/alien_planet-49.jpg,null,,,,,,,,,,,,,49,"23,66,49,35,41,12,45,73,3,65,77,5,29,34,31,44,1,25,2,78,15,28,70,80,36,51,75,18,37,38,50,59,67,4,6,62,60,30,46,56,32,39,11,79,61,27,53,13,47,22,14,69,71,16,10,72,54,43,8,19,7,26",,,,,,,,,,
land,85,412552,0.0-28.0-2.0,"""event"",""trial"",""time""
""blur"",""0"",""0""
""focus"",""0"",""0""
""blur"",""0"",""0""
""focus"",""0"",""0""
""blur"",""0"",""0""
""focus"",""1"",""37023""
""fullscreenenter"",""1"",""38526""
","""event"",""trial"",""time""
""blur"",""0"",""0""
""blur"",""0"",""0""
""blur"",""0"",""0""
","""event"",""trial"",""time""
""focus"",""0"",""0""
""focus"",""0"",""0""
""focus"",""1"",""37023""
","""event"",""trial"",""time""
""fullscreenenter"",""1"",""38526""
","
",,null,run_exp/static/images/task_images/land.jpg,null,,,,,,,100,,,3,,,,,,,,,,,,,,
dig,86,414564,0.0-28.0-3.0,"""event"",""trial"",""time""
""blur"",""0"",""0""
""focus"",""0"",""0""
""blur"",""0"",""0""
""focus"",""0"",""0""
""blur"",""0"",""0""
""focus"",""1"",""37023""
""fullscreenenter"",""1"",""38526""
","""event"",""trial"",""time""
""blur"",""0"",""0""
""blur"",""0"",""0""
""blur"",""0"",""0""
","""event"",""trial"",""time""
""focus"",""0"",""0""
""focus"",""0"",""0""
""focus"",""1"",""37023""
","""event"",""trial"",""time""
""fullscreenenter"",""1"",""38526""
","
",,,,,,,,,,,,"[{""stimulus"":""run_exp/static/images/task_images/dig.jpg"",""time"":0.40000009536743164},{""stimulus"":""run_exp/static/images/task_images/land.jpg"",""time"":672.3000001907349},{""stimulus"":""run_exp/static/images/task_images/dig.jpg"",""time"":1342}]",[],3,,,,,,,,,,,,,,
harvest,87,415574,0.0-28.0-4.0,"""event"",""trial"",""time""
""blur"",""0"",""0""
""focus"",""0"",""0""
""blur"",""0"",""0""
""focus"",""0"",""0""
""blur"",""0"",""0""
""focus"",""1"",""37023""
""fullscreenenter"",""1"",""38526""
","""event"",""trial"",""time""
""blur"",""0"",""0""
""blur"",""0"",""0""
""blur"",""0"",""0""
","""event"",""trial"",""time""
""focus"",""0"",""0""
""focus"",""0"",""0""
""focus"",""1"",""37023""
","""event"",""trial"",""time""
""fullscreenenter"",""1"",""38526""
","
",,null,run_exp/static/images/task_images/gems/100.jpg,null,,,,,,,50,,,3,,,,,100,0.49957037,0.5,,,,,,,
decision,88,416934,0.0-28.0-5.0,"""event"",""trial"",""time""
""blur"",""0"",""0""
""focus"",""0"",""0""
""blur"",""0"",""0""
""focus"",""0"",""0""
""blur"",""0"",""0""
""focus"",""1"",""37023""
""fullscreenenter"",""1"",""38526""
","""event"",""trial"",""time""
""blur"",""0"",""0""
""blur"",""0"",""0""
""blur"",""0"",""0""
","""event"",""trial"",""time""
""focus"",""0"",""0""
""focus"",""0"",""0""
""focus"",""1"",""37023""
","""event"",""trial"",""time""
""fullscreenenter"",""1"",""38526""
","
",,1357.6,run_exp/static/images/task_images/land.jpg,65,,,,,,,50,,,3,,,,,,,,59014,1,0,FALSE,,,
dig,89,418595,0.0-29.0-0.0,"""event"",""trial"",""time""
""blur"",""0"",""0""
""focus"",""0"",""0""
""blur"",""0"",""0""
""focus"",""0"",""0""
""blur"",""0"",""0""
""focus"",""1"",""37023""
""fullscreenenter"",""1"",""38526""
","""event"",""trial"",""time""
""blur"",""0"",""0""
""blur"",""0"",""0""
""blur"",""0"",""0""
","""event"",""trial"",""time""
""focus"",""0"",""0""
""focus"",""0"",""0""
""focus"",""1"",""37023""
","""event"",""trial"",""time""
""fullscreenenter"",""1"",""38526""
","
",,,,,,,,,,,,"[{""stimulus"":""run_exp/static/images/task_images/dig.jpg"",""time"":0.3000001907348633},{""stimulus"":""run_exp/static/images/task_images/land.jpg"",""time"":555.8000001907349},{""stimulus"":""run_exp/static/images/task_images/dig.jpg"",""time"":1097.3000001907349}]",[],3,,,,,,,,,,,,,,
harvest,90,419598,0.0-29.0-1.0,"""event"",""trial"",""time""
""blur"",""0"",""0""
""focus"",""0"",""0""
""blur"",""0"",""0""
""focus"",""0"",""0""
""blur"",""0"",""0""
""focus"",""1"",""37023""
""fullscreenenter"",""1"",""38526""
","""event"",""trial"",""time""
""blur"",""0"",""0""
""blur"",""0"",""0""
""blur"",""0"",""0""
","""event"",""trial"",""time""
""focus"",""0"",""0""
""focus"",""0"",""0""
""focus"",""1"",""37023""
","""event"",""trial"",""time""
""fullscreenenter"",""1"",""38526""
","
",,null,run_exp/static/images/task_images/gems/50.jpg,null,,,,,,,21,,,3,,,,,50,0.420920934,0.42,,,,,,,
decision,91,420756,0.0-29.0-2.0,"""event"",""trial"",""time""
""blur"",""0"",""0""
""focus"",""0"",""0""
""blur"",""0"",""0""
""focus"",""0"",""0""
""blur"",""0"",""0""
""focus"",""1"",""37023""
""fullscreenenter"",""1"",""38526""
","""event"",""trial"",""time""
""blur"",""0"",""0""
""blur"",""0"",""0""
""blur"",""0"",""0""
","""event"",""trial"",""time""
""focus"",""0"",""0""
""focus"",""0"",""0""
""focus"",""1"",""37023""
","""event"",""trial"",""time""
""fullscreenenter"",""1"",""38526""
","
",,1156.2,run_exp/static/images/task_images/land.jpg,76,,,,,,,21,,,3,,,,,,,,62836,1,1,TRUE,,,
travel,92,429600,0.0-30.0-0.0,"""event"",""trial"",""time""
""blur"",""0"",""0""
""focus"",""0"",""0""
""blur"",""0"",""0""
""focus"",""0"",""0""
""blur"",""0"",""0""
""focus"",""1"",""37023""
""fullscreenenter"",""1"",""38526""
","""event"",""trial"",""time""
""blur"",""0"",""0""
""blur"",""0"",""0""
""blur"",""0"",""0""
","""event"",""trial"",""time""
""focus"",""0"",""0""
""focus"",""0"",""0""
""focus"",""1"",""37023""
","""event"",""trial"",""time""
""fullscreenenter"",""1"",""38526""
","
",,,,,,,,,,,,"[{""stimulus"":""run_exp/static/images/task_images/rocket-01.jpg"",""time"":0.19999980926513672},{""stimulus"":""run_exp/static/images/task_images/rocket-02.jpg"",""time"":992.5999999046326},{""stimulus"":""run_exp/static/images/task_images/rocket-03.jpg"",""time"":1969},{""stimulus"":""run_exp/static/images/task_images/rocket-04.jpg"",""time"":2955.7999997138977},{""stimulus"":""run_exp/static/images/task_images/rocket-05.jpg"",""time"":3930.5999999046326},{""stimulus"":""run_exp/static/images/task_images/rocket-06.jpg"",""time"":4912.900000095367},{""stimulus"":""run_exp/static/images/task_images/rocket-07.jpg"",""time"":5894.799999713898},{""stimulus"":""run_exp/static/images/task_images/rocket-08.jpg"",""time"":6876.900000095367},{""stimulus"":""run_exp/static/images/task_images/rocket-09.jpg"",""time"":7861.5}]",[],3,,,,,,,,,,,,,,
alien_welcome,93,434604,0.0-30.0-1.0,"""event"",""trial"",""time""
""blur"",""0"",""0""
""focus"",""0"",""0""
""blur"",""0"",""0""
""focus"",""0"",""0""
""blur"",""0"",""0""
""focus"",""1"",""37023""
""fullscreenenter"",""1"",""38526""
","""event"",""trial"",""time""
""blur"",""0"",""0""
""blur"",""0"",""0""
""blur"",""0"",""0""
","""event"",""trial"",""time""
""focus"",""0"",""0""
""focus"",""0"",""0""
""focus"",""1"",""37023""
","""event"",""trial"",""time""
""fullscreenenter"",""1"",""38526""
","
",,null,run_exp/static/images/task_images/aliens/old_aliens/planet/alien_planet-35.jpg,null,,,,,,,,,,,,,35,"23,66,49,35,41,12,45,73,3,65,77,5,29,34,31,44,1,25,2,78,15,28,70,80,36,51,75,18,37,38,50,59,67,4,6,62,60,30,46,56,32,39,11,79,61,27,53,13,47,22,14,69,71,16,10,72,54,43,8,19,7,26",,,,,,,,,,
land,94,435107,0.0-30.0-2.0,"""event"",""trial"",""time""
""blur"",""0"",""0""
""focus"",""0"",""0""
""blur"",""0"",""0""
""focus"",""0"",""0""
""blur"",""0"",""0""
""focus"",""1"",""37023""
""fullscreenenter"",""1"",""38526""
","""event"",""trial"",""time""
""blur"",""0"",""0""
""blur"",""0"",""0""
""blur"",""0"",""0""
","""event"",""trial"",""time""
""focus"",""0"",""0""
""focus"",""0"",""0""
""focus"",""1"",""37023""
","""event"",""trial"",""time""
""fullscreenenter"",""1"",""38526""
","
",,null,run_exp/static/images/task_images/land.jpg,null,,,,,,,100,,,4,,,,,,,,,,,,,,
dig,95,437119,0.0-30.0-3.0,"""event"",""trial"",""time""
""blur"",""0"",""0""
""focus"",""0"",""0""
""blur"",""0"",""0""
""focus"",""0"",""0""
""blur"",""0"",""0""
""focus"",""1"",""37023""
""fullscreenenter"",""1"",""38526""
","""event"",""trial"",""time""
""blur"",""0"",""0""
""blur"",""0"",""0""
""blur"",""0"",""0""
","""event"",""trial"",""time""
""focus"",""0"",""0""
""focus"",""0"",""0""
""focus"",""1"",""37023""
","""event"",""trial"",""time""
""fullscreenenter"",""1"",""38526""
","
",,,,,,,,,,,,"[{""stimulus"":""run_exp/static/images/task_images/dig.jpg"",""time"":0.3000001907348633},{""stimulus"":""run_exp/static/images/task_images/land.jpg"",""time"":673},{""stimulus"":""run_exp/static/images/task_images/dig.jpg"",""time"":1341.8000001907349}]",[],4,,,,,,,,,,,,,,
harvest,96,438122,0.0-30.0-4.0,"""event"",""trial"",""time""
""blur"",""0"",""0""
""focus"",""0"",""0""
""blur"",""0"",""0""
""focus"",""0"",""0""
""blur"",""0"",""0""
""focus"",""1"",""37023""
""fullscreenenter"",""1"",""38526""
","""event"",""trial"",""time""
""blur"",""0"",""0""
""blur"",""0"",""0""
""blur"",""0"",""0""
","""event"",""trial"",""time""
""focus"",""0"",""0""
""focus"",""0"",""0""
""focus"",""1"",""37023""
","""event"",""trial"",""time""
""fullscreenenter"",""1"",""38526""
","
",,null,run_exp/static/images/task_images/gems/100.jpg,null,,,,,,,51,,,4,,,,,100,0.510864464,0.51,,,,,,,
decision,97,438436,0.0-30.0-5.0,"""event"",""trial"",""time""
""blur"",""0"",""0""
""focus"",""0"",""0""
""blur"",""0"",""0""
""focus"",""0"",""0""
""blur"",""0"",""0""
""focus"",""1"",""37023""
""fullscreenenter"",""1"",""38526""
","""event"",""trial"",""time""
""blur"",""0"",""0""
""blur"",""0"",""0""
""blur"",""0"",""0""
","""event"",""trial"",""time""
""focus"",""0"",""0""
""focus"",""0"",""0""
""focus"",""1"",""37023""
","""event"",""trial"",""time""
""fullscreenenter"",""1"",""38526""
","
",,312.8000002,run_exp/static/images/task_images/land.jpg,65,,,,,,,51,,,4,,,,,,,,80517,1,0,FALSE,,,
dig,98,441133,0.0-31.0-0.0,"""event"",""trial"",""time""
""blur"",""0"",""0""
""focus"",""0"",""0""
""blur"",""0"",""0""
""focus"",""0"",""0""
""blur"",""0"",""0""
""focus"",""1"",""37023""
""fullscreenenter"",""1"",""38526""
","""event"",""trial"",""time""
""blur"",""0"",""0""
""blur"",""0"",""0""
""blur"",""0"",""0""
","""event"",""trial"",""time""
""focus"",""0"",""0""
""focus"",""0"",""0""
""focus"",""1"",""37023""
","""event"",""trial"",""time""
""fullscreenenter"",""1"",""38526""
","
",,,,,,,,,,,,"[{""stimulus"":""run_exp/static/images/task_images/dig.jpg"",""time"":0.20000028610229492},{""stimulus"":""run_exp/static/images/task_images/land.jpg"",""time"":897.7000002861023},{""stimulus"":""run_exp/static/images/task_images/dig.jpg"",""time"":1795.5}]",[],4,,,,,,,,,,,,,,
harvest,99,442136,0.0-31.0-1.0,"""event"",""trial"",""time""
""blur"",""0"",""0""
""focus"",""0"",""0""
""blur"",""0"",""0""
""focus"",""0"",""0""
""blur"",""0"",""0""
""focus"",""1"",""37023""
""fullscreenenter"",""1"",""38526""
","""event"",""trial"",""time""
""blur"",""0"",""0""
""blur"",""0"",""0""
""blur"",""0"",""0""
","""event"",""trial"",""time""
""focus"",""0"",""0""
""focus"",""0"",""0""
""focus"",""1"",""37023""
","""event"",""trial"",""time""
""fullscreenenter"",""1"",""38526""
","
",,null,run_exp/static/images/task_images/gems/51.jpg,null,,,,,,,31,,,4,,,,,51,0.603158769,0.607843137,,,,,,,
decision,100,442422,0.0-31.0-2.0,"""event"",""trial"",""time""
""blur"",""0"",""0""
""focus"",""0"",""0""
""blur"",""0"",""0""
""focus"",""0"",""0""
""blur"",""0"",""0""
""focus"",""1"",""37023""
""fullscreenenter"",""1"",""38526""
","""event"",""trial"",""time""
""blur"",""0"",""0""
""blur"",""0"",""0""
""blur"",""0"",""0""
","""event"",""trial"",""time""
""focus"",""0"",""0""
""focus"",""0"",""0""
""focus"",""1"",""37023""
","""event"",""trial"",""time""
""fullscreenenter"",""1"",""38526""
","
",,283.5,run_exp/static/images/task_images/land.jpg,65,,,,,,,31,,,4,,,,,,,,84502,1,1,FALSE,,,
dig,101,445144,0.0-32.0-0.0,"""event"",""trial"",""time""
""blur"",""0"",""0""
""focus"",""0"",""0""
""blur"",""0"",""0""
""focus"",""0"",""0""
""blur"",""0"",""0""
""focus"",""1"",""37023""
""fullscreenenter"",""1"",""38526""
","""event"",""trial"",""time""
""blur"",""0"",""0""
""blur"",""0"",""0""
""blur"",""0"",""0""
","""event"",""trial"",""time""
""focus"",""0"",""0""
""focus"",""0"",""0""
""focus"",""1"",""37023""
","""event"",""trial"",""time""
""fullscreenenter"",""1"",""38526""
","
",,,,,,,,,,,,"[{""stimulus"":""run_exp/static/images/task_images/dig.jpg"",""time"":0.5},{""stimulus"":""run_exp/static/images/task_images/land.jpg"",""time"":915},{""stimulus"":""run_exp/static/images/task_images/dig.jpg"",""time"":1820.8000001907349}]",[],4,,,,,,,,,,,,,,
harvest,102,446148,0.0-32.0-1.0,"""event"",""trial"",""time""
""blur"",""0"",""0""
""focus"",""0"",""0""
""blur"",""0"",""0""
""focus"",""0"",""0""
""blur"",""0"",""0""
""focus"",""1"",""37023""
""fullscreenenter"",""1"",""38526""
","""event"",""trial"",""time""
""blur"",""0"",""0""
""blur"",""0"",""0""
""blur"",""0"",""0""
","""event"",""trial"",""time""
""focus"",""0"",""0""
""focus"",""0"",""0""
""focus"",""1"",""37023""
","""event"",""trial"",""time""
""fullscreenenter"",""1"",""38526""
","
",,null,run_exp/static/images/task_images/gems/31.jpg,null,,,,,,,15,,,4,,,,,31,0.471861569,0.483870968,,,,,,,
decision,103,447437,0.0-32.0-2.0,"""event"",""trial"",""time""
""blur"",""0"",""0""
""focus"",""0"",""0""
""blur"",""0"",""0""
""focus"",""0"",""0""
""blur"",""0"",""0""
""focus"",""1"",""37023""
""fullscreenenter"",""1"",""38526""
","""event"",""trial"",""time""
""blur"",""0"",""0""
""blur"",""0"",""0""
""blur"",""0"",""0""
","""event"",""trial"",""time""
""focus"",""0"",""0""
""focus"",""0"",""0""
""focus"",""1"",""37023""
","""event"",""trial"",""time""
""fullscreenenter"",""1"",""38526""
","
",,1286.6,run_exp/static/images/task_images/land.jpg,65,,,,,,,15,,,4,,,,,,,,89517,1,2,FALSE,,,
dig,104,449160,0.0-33.0-0.0,"""event"",""trial"",""time""
""blur"",""0"",""0""
""focus"",""0"",""0""
""blur"",""0"",""0""
""focus"",""0"",""0""
""blur"",""0"",""0""
""focus"",""1"",""37023""
""fullscreenenter"",""1"",""38526""
","""event"",""trial"",""time""
""blur"",""0"",""0""
""blur"",""0"",""0""
""blur"",""0"",""0""
","""event"",""trial"",""time""
""focus"",""0"",""0""
""focus"",""0"",""0""
""focus"",""1"",""37023""
","""event"",""trial"",""time""
""fullscreenenter"",""1"",""38526""
","
",,,,,,,,,,,,"[{""stimulus"":""run_exp/static/images/task_images/dig.jpg"",""time"":0.20000028610229492},{""stimulus"":""run_exp/static/images/task_images/land.jpg"",""time"":578.9000000953674},{""stimulus"":""run_exp/static/images/task_images/dig.jpg"",""time"":1148}]",[],4,,,,,,,,,,,,,,
harvest,105,450170,0.0-33.0-1.0,"""event"",""trial"",""time""
""blur"",""0"",""0""
""focus"",""0"",""0""
""blur"",""0"",""0""
""focus"",""0"",""0""
""blur"",""0"",""0""
""focus"",""1"",""37023""
""fullscreenenter"",""1"",""38526""
","""event"",""trial"",""time""
""blur"",""0"",""0""
""blur"",""0"",""0""
""blur"",""0"",""0""
","""event"",""trial"",""time""
""focus"",""0"",""0""
""focus"",""0"",""0""
""focus"",""1"",""37023""
","""event"",""trial"",""time""
""fullscreenenter"",""1"",""38526""
","
",,null,run_exp/static/images/task_images/gems/15.jpg,null,,,,,,,6,,,4,,,,,15,0.406224171,0.4,,,,,,,
decision,106,450410,0.0-33.0-2.0,"""event"",""trial"",""time""
""blur"",""0"",""0""
""focus"",""0"",""0""
""blur"",""0"",""0""
""focus"",""0"",""0""
""blur"",""0"",""0""
""focus"",""1"",""37023""
""fullscreenenter"",""1"",""38526""
","""event"",""trial"",""time""
""blur"",""0"",""0""
""blur"",""0"",""0""
""blur"",""0"",""0""
","""event"",""trial"",""time""
""focus"",""0"",""0""
""focus"",""0"",""0""
""focus"",""1"",""37023""
","""event"",""trial"",""time""
""fullscreenenter"",""1"",""38526""
","
",,237.8000002,run_exp/static/images/task_images/land.jpg,76,,,,,,,6,,,4,,,,,,,,92490,1,3,TRUE,,,
travel,107,460175,0.0-34.0-0.0,"""event"",""trial"",""time""
""blur"",""0"",""0""
""focus"",""0"",""0""
""blur"",""0"",""0""
""focus"",""0"",""0""
""blur"",""0"",""0""
""focus"",""1"",""37023""
""fullscreenenter"",""1"",""38526""
","""event"",""trial"",""time""
""blur"",""0"",""0""
""blur"",""0"",""0""
""blur"",""0"",""0""
","""event"",""trial"",""time""
""focus"",""0"",""0""
""focus"",""0"",""0""
""focus"",""1"",""37023""
","""event"",""trial"",""time""
""fullscreenenter"",""1"",""38526""
","
",,,,,,,,,,,,"[{""stimulus"":""run_exp/static/images/task_images/rocket-01.jpg"",""time"":0.19999980926513672},{""stimulus"":""run_exp/static/images/task_images/rocket-02.jpg"",""time"":1091.3999996185303},{""stimulus"":""run_exp/static/images/task_images/rocket-03.jpg"",""time"":2177.0999999046326},{""stimulus"":""run_exp/static/images/task_images/rocket-04.jpg"",""time"":3254.8999996185303},{""stimulus"":""run_exp/static/images/task_images/rocket-05.jpg"",""time"":4342.39999961853},{""stimulus"":""run_exp/static/images/task_images/rocket-06.jpg"",""time"":5428},{""stimulus"":""run_exp/static/images/task_images/rocket-07.jpg"",""time"":6513.099999904633},{""stimulus"":""run_exp/static/images/task_images/rocket-08.jpg"",""time"":7594.099999904633},{""stimulus"":""run_exp/static/images/task_images/rocket-09.jpg"",""time"":8677.699999809265}]",[],4,,,,,,,,,,,,,,
alien_welcome,108,465182,0.0-34.0-1.0,"""event"",""trial"",""time""
""blur"",""0"",""0""
""focus"",""0"",""0""
""blur"",""0"",""0""
""focus"",""0"",""0""
""blur"",""0"",""0""
""focus"",""1"",""37023""
""fullscreenenter"",""1"",""38526""
","""event"",""trial"",""time""
""blur"",""0"",""0""
""blur"",""0"",""0""
""blur"",""0"",""0""
","""event"",""trial"",""time""
""focus"",""0"",""0""
""focus"",""0"",""0""
""focus"",""1"",""37023""
","""event"",""trial"",""time""
""fullscreenenter"",""1"",""38526""
","
",,null,run_exp/static/images/task_images/aliens/old_aliens/planet/alien_planet-41.jpg,null,,,,,,,,,,,,,41,"23,66,49,35,41,12,45,73,3,65,77,5,29,34,31,44,1,25,2,78,15,28,70,80,36,51,75,18,37,38,50,59,67,4,6,62,60,30,46,56,32,39,11,79,61,27,53,13,47,22,14,69,71,16,10,72,54,43,8,19,7,26",,,,,,,,,,
land,109,465684,0.0-34.0-2.0,"""event"",""trial"",""time""
""blur"",""0"",""0""
""focus"",""0"",""0""
""blur"",""0"",""0""
""focus"",""0"",""0""
""blur"",""0"",""0""
""focus"",""1"",""37023""
""fullscreenenter"",""1"",""38526""
","""event"",""trial"",""time""
""blur"",""0"",""0""
""blur"",""0"",""0""
""blur"",""0"",""0""
","""event"",""trial"",""time""
""focus"",""0"",""0""
""focus"",""0"",""0""
""focus"",""1"",""37023""
","""event"",""trial"",""time""
""fullscreenenter"",""1"",""38526""
","
",,null,run_exp/static/images/task_images/land.jpg,null,,,,,,,100,,,5,,,,,,,,,,,,,,
dig,110,467692,0.0-34.0-3.0,"""event"",""trial"",""time""
""blur"",""0"",""0""
""focus"",""0"",""0""
""blur"",""0"",""0""
""focus"",""0"",""0""
""blur"",""0"",""0""
""focus"",""1"",""37023""
""fullscreenenter"",""1"",""38526""
","""event"",""trial"",""time""
""blur"",""0"",""0""
""blur"",""0"",""0""
""blur"",""0"",""0""
","""event"",""trial"",""time""
""focus"",""0"",""0""
""focus"",""0"",""0""
""focus"",""1"",""37023""
","""event"",""trial"",""time""
""fullscreenenter"",""1"",""38526""
","
",,,,,,,,,,,,"[{""stimulus"":""run_exp/static/images/task_images/dig.jpg"",""time"":0.40000009536743164},{""stimulus"":""run_exp/static/images/task_images/land.jpg"",""time"":677.0999999046326},{""stimulus"":""run_exp/static/images/task_images/dig.jpg"",""time"":1343.9000000953674}]",[],5,,,,,,,,,,,,,,
harvest,111,468694,0.0-34.0-4.0,"""event"",""trial"",""time""
""blur"",""0"",""0""
""focus"",""0"",""0""
""blur"",""0"",""0""
""focus"",""0"",""0""
""blur"",""0"",""0""
""focus"",""1"",""37023""
""fullscreenenter"",""1"",""38526""
","""event"",""trial"",""time""
""blur"",""0"",""0""
""blur"",""0"",""0""
""blur"",""0"",""0""
","""event"",""trial"",""time""
""focus"",""0"",""0""
""focus"",""0"",""0""
""focus"",""1"",""37023""
","""event"",""trial"",""time""
""fullscreenenter"",""1"",""38526""
","
",,null,run_exp/static/images/task_images/gems/100.jpg,null,,,,,,,52,,,5,,,,,100,0.51817451,0.52,,,,,,,
decision,112,468798,0.0-34.0-5.0,"""event"",""trial"",""time""
""blur"",""0"",""0""
""focus"",""0"",""0""
""blur"",""0"",""0""
""focus"",""0"",""0""
""blur"",""0"",""0""
""focus"",""1"",""37023""
""fullscreenenter"",""1"",""38526""
","""event"",""trial"",""time""
""blur"",""0"",""0""
""blur"",""0"",""0""
""blur"",""0"",""0""
","""event"",""trial"",""time""
""focus"",""0"",""0""
""focus"",""0"",""0""
""focus"",""1"",""37023""
","""event"",""trial"",""time""
""fullscreenenter"",""1"",""38526""
","
",,102.2999997,run_exp/static/images/task_images/land.jpg,76,,,,,,,52,,,5,,,,,,,,110878,1,0,TRUE,,,
travel,113,478698,0.0-35.0-0.0,"""event"",""trial"",""time""
""blur"",""0"",""0""
""focus"",""0"",""0""
""blur"",""0"",""0""
""focus"",""0"",""0""
""blur"",""0"",""0""
""focus"",""1"",""37023""
""fullscreenenter"",""1"",""38526""
","""event"",""trial"",""time""
""blur"",""0"",""0""
""blur"",""0"",""0""
""blur"",""0"",""0""
","""event"",""trial"",""time""
""focus"",""0"",""0""
""focus"",""0"",""0""
""focus"",""1"",""37023""
","""event"",""trial"",""time""
""fullscreenenter"",""1"",""38526""
","
",,,,,,,,,,,,"[{""stimulus"":""run_exp/static/images/task_images/rocket-01.jpg"",""time"":0.3000001907348633},{""stimulus"":""run_exp/static/images/task_images/rocket-02.jpg"",""time"":1104.5},{""stimulus"":""run_exp/static/images/task_images/rocket-03.jpg"",""time"":2203.300000190735},{""stimulus"":""run_exp/static/images/task_images/rocket-04.jpg"",""time"":3305.0999999046326},{""stimulus"":""run_exp/static/images/task_images/rocket-05.jpg"",""time"":4405.900000095367},{""stimulus"":""run_exp/static/images/task_images/rocket-06.jpg"",""time"":5502.599999904633},{""stimulus"":""run_exp/static/images/task_images/rocket-07.jpg"",""time"":6601.300000190735},{""stimulus"":""run_exp/static/images/task_images/rocket-08.jpg"",""time"":7699.400000095367},{""stimulus"":""run_exp/static/images/task_images/rocket-09.jpg"",""time"":8802.5}]",[],5,,,,,,,,,,,,,,
alien_welcome,114,483705,0.0-35.0-1.0,"""event"",""trial"",""time""
""blur"",""0"",""0""
""focus"",""0"",""0""
""blur"",""0"",""0""
""focus"",""0"",""0""
""blur"",""0"",""0""
""focus"",""1"",""37023""
""fullscreenenter"",""1"",""38526""
","""event"",""trial"",""time""
""blur"",""0"",""0""
""blur"",""0"",""0""
""blur"",""0"",""0""
","""event"",""trial"",""time""
""focus"",""0"",""0""
""focus"",""0"",""0""
""focus"",""1"",""37023""
","""event"",""trial"",""time""
""fullscreenenter"",""1"",""38526""
","
",,null,run_exp/static/images/task_images/aliens/old_aliens/planet/alien_planet-12.jpg,null,,,,,,,,,,,,,12,"23,66,49,35,41,12,45,73,3,65,77,5,29,34,31,44,1,25,2,78,15,28,70,80,36,51,75,18,37,38,50,59,67,4,6,62,60,30,46,56,32,39,11,79,61,27,53,13,47,22,14,69,71,16,10,72,54,43,8,19,7,26",,,,,,,,,,
land,115,484216,0.0-35.0-2.0,"""event"",""trial"",""time""
""blur"",""0"",""0""
""focus"",""0"",""0""
""blur"",""0"",""0""
""focus"",""0"",""0""
""blur"",""0"",""0""
""focus"",""1"",""37023""
""fullscreenenter"",""1"",""38526""
","""event"",""trial"",""time""
""blur"",""0"",""0""
""blur"",""0"",""0""
""blur"",""0"",""0""
","""event"",""trial"",""time""
""focus"",""0"",""0""
""focus"",""0"",""0""
""focus"",""1"",""37023""
","""event"",""trial"",""time""
""fullscreenenter"",""1"",""38526""
","
",,null,run_exp/static/images/task_images/land.jpg,null,,,,,,,99,,,6,,,,,,,,,,,,,,
dig,116,486232,0.0-35.0-3.0,"""event"",""trial"",""time""
""blur"",""0"",""0""
""focus"",""0"",""0""
""blur"",""0"",""0""
""focus"",""0"",""0""
""blur"",""0"",""0""
""focus"",""1"",""37023""
""fullscreenenter"",""1"",""38526""
","""event"",""trial"",""time""
""blur"",""0"",""0""
""blur"",""0"",""0""
""blur"",""0"",""0""
","""event"",""trial"",""time""
""focus"",""0"",""0""
""focus"",""0"",""0""
""focus"",""1"",""37023""
","""event"",""trial"",""time""
""fullscreenenter"",""1"",""38526""
","
",,,,,,,,,,,,"[{""stimulus"":""run_exp/static/images/task_images/dig.jpg"",""time"":0.40000009536743164},{""stimulus"":""run_exp/static/images/task_images/land.jpg"",""time"":670.5999999046326},{""stimulus"":""run_exp/static/images/task_images/dig.jpg"",""time"":1347.9000000953674}]",[],6,,,,,,,,,,,,,,
harvest,117,487235,0.0-35.0-4.0,"""event"",""trial"",""time""
""blur"",""0"",""0""
""focus"",""0"",""0""
""blur"",""0"",""0""
""focus"",""0"",""0""
""blur"",""0"",""0""
""focus"",""1"",""37023""
""fullscreenenter"",""1"",""38526""
","""event"",""trial"",""time""
""blur"",""0"",""0""
""blur"",""0"",""0""
""blur"",""0"",""0""
","""event"",""trial"",""time""
""focus"",""0"",""0""
""focus"",""0"",""0""
""focus"",""1"",""37023""
","""event"",""trial"",""time""
""fullscreenenter"",""1"",""38526""
","
",,null,run_exp/static/images/task_images/gems/99.jpg,null,,,,,,,85,,,6,,,,,99,0.862451449,0.858585859,,,,,,,
decision,118,488334,0.0-35.0-5.0,"""event"",""trial"",""time""
""blur"",""0"",""0""
""focus"",""0"",""0""
""blur"",""0"",""0""
""focus"",""0"",""0""
""blur"",""0"",""0""
""focus"",""1"",""37023""
""fullscreenenter"",""1"",""38526""
","""event"",""trial"",""time""
""blur"",""0"",""0""
""blur"",""0"",""0""
""blur"",""0"",""0""
","""event"",""trial"",""time""
""focus"",""0"",""0""
""focus"",""0"",""0""
""focus"",""1"",""37023""
","""event"",""trial"",""time""
""fullscreenenter"",""1"",""38526""
","
",,1096.6,run_exp/static/images/task_images/land.jpg,76,,,,,,,85,,,6,,,,,,,,130414,1,0,TRUE,,,
travel,119,497251,0.0-36.0-0.0,"""event"",""trial"",""time""
""blur"",""0"",""0""
""focus"",""0"",""0""
""blur"",""0"",""0""
""focus"",""0"",""0""
""blur"",""0"",""0""
""focus"",""1"",""37023""
""fullscreenenter"",""1"",""38526""
","""event"",""trial"",""time""
""blur"",""0"",""0""
""blur"",""0"",""0""
""blur"",""0"",""0""
","""event"",""trial"",""time""
""focus"",""0"",""0""
""focus"",""0"",""0""
""focus"",""1"",""37023""
","""event"",""trial"",""time""
""fullscreenenter"",""1"",""38526""
","
",,,,,,,,,,,,"[{""stimulus"":""run_exp/static/images/task_images/rocket-01.jpg"",""time"":0.3000001907348633},{""stimulus"":""run_exp/static/images/task_images/rocket-02.jpg"",""time"":998.4000000953674},{""stimulus"":""run_exp/static/images/task_images/rocket-03.jpg"",""time"":1987},{""stimulus"":""run_exp/static/images/task_images/rocket-04.jpg"",""time"":2978.1000003814697},{""stimulus"":""run_exp/static/images/task_images/rocket-05.jpg"",""time"":3969.6000003814697},{""stimulus"":""run_exp/static/images/task_images/rocket-06.jpg"",""time"":4948.900000095367},{""stimulus"":""run_exp/static/images/task_images/rocket-07.jpg"",""time"":5944.5},{""stimulus"":""run_exp/static/images/task_images/rocket-08.jpg"",""time"":6925.200000286102},{""stimulus"":""run_exp/static/images/task_images/rocket-09.jpg"",""time"":7919}]",[],6,,,,,,,,,,,,,,
alien_welcome,120,502258,0.0-36.0-1.0,"""event"",""trial"",""time""
""blur"",""0"",""0""
""focus"",""0"",""0""
""blur"",""0"",""0""
""focus"",""0"",""0""
""blur"",""0"",""0""
""focus"",""1"",""37023""
""fullscreenenter"",""1"",""38526""
","""event"",""trial"",""time""
""blur"",""0"",""0""
""blur"",""0"",""0""
""blur"",""0"",""0""
","""event"",""trial"",""time""
""focus"",""0"",""0""
""focus"",""0"",""0""
""focus"",""1"",""37023""
","""event"",""trial"",""time""
""fullscreenenter"",""1"",""38526""
","
",,null,run_exp/static/images/task_images/aliens/old_aliens/planet/alien_planet-45.jpg,null,,,,,,,,,,,,,45,"23,66,49,35,41,12,45,73,3,65,77,5,29,34,31,44,1,25,2,78,15,28,70,80,36,51,75,18,37,38,50,59,67,4,6,62,60,30,46,56,32,39,11,79,61,27,53,13,47,22,14,69,71,16,10,72,54,43,8,19,7,26",,,,,,,,,,
land,121,502764,0.0-36.0-2.0,"""event"",""trial"",""time""
""blur"",""0"",""0""
""focus"",""0"",""0""
""blur"",""0"",""0""
""focus"",""0"",""0""
""blur"",""0"",""0""
""focus"",""1"",""37023""
""fullscreenenter"",""1"",""38526""
","""event"",""trial"",""time""
""blur"",""0"",""0""
""blur"",""0"",""0""
""blur"",""0"",""0""
","""event"",""trial"",""time""
""focus"",""0"",""0""
""focus"",""0"",""0""
""focus"",""1"",""37023""
","""event"",""trial"",""time""
""fullscreenenter"",""1"",""38526""
","
",,null,run_exp/static/images/task_images/land.jpg,null,,,,,,,101,,,7,,,,,,,,,,,,,,
dig,122,504771,0.0-36.0-3.0,"""event"",""trial"",""time""
""blur"",""0"",""0""
""focus"",""0"",""0""
""blur"",""0"",""0""
""focus"",""0"",""0""
""blur"",""0"",""0""
""focus"",""1"",""37023""
""fullscreenenter"",""1"",""38526""
","""event"",""trial"",""time""
""blur"",""0"",""0""
""blur"",""0"",""0""
""blur"",""0"",""0""
","""event"",""trial"",""time""
""focus"",""0"",""0""
""focus"",""0"",""0""
""focus"",""1"",""37023""
","""event"",""trial"",""time""
""fullscreenenter"",""1"",""38526""
","
",,,,,,,,,,,,"[{""stimulus"":""run_exp/static/images/task_images/dig.jpg"",""time"":0.40000009536743164},{""stimulus"":""run_exp/static/images/task_images/land.jpg"",""time"":677.0999999046326},{""stimulus"":""run_exp/static/images/task_images/dig.jpg"",""time"":1341}]",[],7,,,,,,,,,,,,,,
harvest,123,505784,0.0-36.0-4.0,"""event"",""trial"",""time""
""blur"",""0"",""0""
""focus"",""0"",""0""
""blur"",""0"",""0""
""focus"",""0"",""0""
""blur"",""0"",""0""
""focus"",""1"",""37023""
""fullscreenenter"",""1"",""38526""
","""event"",""trial"",""time""
""blur"",""0"",""0""
""blur"",""0"",""0""
""blur"",""0"",""0""
","""event"",""trial"",""time""
""focus"",""0"",""0""
""focus"",""0"",""0""
""focus"",""1"",""37023""
","""event"",""trial"",""time""
""fullscreenenter"",""1"",""38526""
","
",,null,run_exp/static/images/task_images/gems/101.jpg,null,,,,,,,75,,,7,,,,,101,0.738445495,0.742574257,,,,,,,
decision,124,505828,0.0-36.0-5.0,"""event"",""trial"",""time""
""blur"",""0"",""0""
""focus"",""0"",""0""
""blur"",""0"",""0""
""focus"",""0"",""0""
""blur"",""0"",""0""
""focus"",""1"",""37023""
""fullscreenenter"",""1"",""38526""
","""event"",""trial"",""time""
""blur"",""0"",""0""
""blur"",""0"",""0""
""blur"",""0"",""0""
","""event"",""trial"",""time""
""focus"",""0"",""0""
""focus"",""0"",""0""
""focus"",""1"",""37023""
","""event"",""trial"",""time""
""fullscreenenter"",""1"",""38526""
","
",,41.5999999,run_exp/static/images/task_images/land.jpg,76,,,,,,,75,,,7,,,,,,,,147908,1,0,TRUE,,,
travel,125,515788,0.0-37.0-0.0,"""event"",""trial"",""time""
""blur"",""0"",""0""
""focus"",""0"",""0""
""blur"",""0"",""0""
""focus"",""0"",""0""
""blur"",""0"",""0""
""focus"",""1"",""37023""
""fullscreenenter"",""1"",""38526""
","""event"",""trial"",""time""
""blur"",""0"",""0""
""blur"",""0"",""0""
""blur"",""0"",""0""
","""event"",""trial"",""time""
""focus"",""0"",""0""
""focus"",""0"",""0""
""focus"",""1"",""37023""
","""event"",""trial"",""time""
""fullscreenenter"",""1"",""38526""
","
",,,,,,,,,,,,"[{""stimulus"":""run_exp/static/images/task_images/rocket-01.jpg"",""time"":0.19999980926513672},{""stimulus"":""run_exp/static/images/task_images/rocket-02.jpg"",""time"":1111.3000001907349},{""stimulus"":""run_exp/static/images/task_images/rocket-03.jpg"",""time"":2215.0999999046326},{""stimulus"":""run_exp/static/images/task_images/rocket-04.jpg"",""time"":3325.300000190735},{""stimulus"":""run_exp/static/images/task_images/rocket-05.jpg"",""time"":4428.300000190735},{""stimulus"":""run_exp/static/images/task_images/rocket-06.jpg"",""time"":5541.599999904633},{""stimulus"":""run_exp/static/images/task_images/rocket-07.jpg"",""time"":6644.800000190735},{""stimulus"":""run_exp/static/images/task_images/rocket-08.jpg"",""time"":7748},{""stimulus"":""run_exp/static/images/task_images/rocket-09.jpg"",""time"":8851.699999809265}]",[],7,,,,,,,,,,,,,,
alien_welcome,126,520796,0.0-37.0-1.0,"""event"",""trial"",""time""
""blur"",""0"",""0""
""focus"",""0"",""0""
""blur"",""0"",""0""
""focus"",""0"",""0""
""blur"",""0"",""0""
""focus"",""1"",""37023""
""fullscreenenter"",""1"",""38526""
","""event"",""trial"",""time""
""blur"",""0"",""0""
""blur"",""0"",""0""
""blur"",""0"",""0""
","""event"",""trial"",""time""
""focus"",""0"",""0""
""focus"",""0"",""0""
""focus"",""1"",""37023""
","""event"",""trial"",""time""
""fullscreenenter"",""1"",""38526""
","
",,null,run_exp/static/images/task_images/aliens/old_aliens/planet/alien_planet-73.jpg,null,,,,,,,,,,,,,73,"23,66,49,35,41,12,45,73,3,65,77,5,29,34,31,44,1,25,2,78,15,28,70,80,36,51,75,18,37,38,50,59,67,4,6,62,60,30,46,56,32,39,11,79,61,27,53,13,47,22,14,69,71,16,10,72,54,43,8,19,7,26",,,,,,,,,,
land,127,521304,0.0-37.0-2.0,"""event"",""trial"",""time""
""blur"",""0"",""0""
""focus"",""0"",""0""
""blur"",""0"",""0""
""focus"",""0"",""0""
""blur"",""0"",""0""
""focus"",""1"",""37023""
""fullscreenenter"",""1"",""38526""
","""event"",""trial"",""time""
""blur"",""0"",""0""
""blur"",""0"",""0""
""blur"",""0"",""0""
","""event"",""trial"",""time""
""focus"",""0"",""0""
""focus"",""0"",""0""
""focus"",""1"",""37023""
","""event"",""trial"",""time""
""fullscreenenter"",""1"",""38526""
","
",,null,run_exp/static/images/task_images/land.jpg,null,,,,,,,101,,,8,,,,,,,,,,,,,,
dig,128,523321,0.0-37.0-3.0,"""event"",""trial"",""time""
""blur"",""0"",""0""
""focus"",""0"",""0""
""blur"",""0"",""0""
""focus"",""0"",""0""
""blur"",""0"",""0""
""focus"",""1"",""37023""
""fullscreenenter"",""1"",""38526""
","""event"",""trial"",""time""
""blur"",""0"",""0""
""blur"",""0"",""0""
""blur"",""0"",""0""
