trial_type,trial_index,time_elapsed,internal_node_id,interactions,blur_events,focus_events,fullscreenenter_events,fullscreenexit_events,success,rt,stimulus,key_press,prompt,subject_id,participant_id,age,gender,button_pressed,next_reward,animation_sequence,responses,planet,curr_prac_trial,n_prac_rounds,alien,aliens,reward_received,decay_rate_actual,decay_rate_exp,time_in_block,block_num,prt,last_trial_on_planet,button_html,bonus,num_failures
pavlovia,0,18,0.0-0.0,"""event"",""trial"",""time""
""fullscreenenter"",""1"",""1546""
","
","
","""event"",""trial"",""time""
""fullscreenenter"",""1"",""1546""
","
",,,,,,,,,,,,,,,,,,,,,,,,,,,,
fullscreen,1,2529,0.0-1.0,"""event"",""trial"",""time""
""fullscreenenter"",""1"",""1546""
","
","
","""event"",""trial"",""time""
""fullscreenenter"",""1"",""1546""
","
",TRUE,,,,,,,,,,,,,,,,,,,,,,,,,,,
instruc_welcome,2,12306,0.0-2.0,"""event"",""trial"",""time""
""fullscreenenter"",""1"",""1546""
","
","
","""event"",""trial"",""time""
""fullscreenenter"",""1"",""1546""
","
",,null,run_exp/static/audio/clip_1_welcome.m4a,null,"<p>Howdy! In this experiment, you’ll be an explorer traveling through space to collect space treasure.</p><p>Your mission is to collect as much treasure as possible.</p><br><br><p><img src='run_exp/static/images/task_images/opening_img-01.jpg' height='300' width='auto'></p>",9205,9,24.67,Male,,,,,,,,,,,,,,,,,,,
audio-keyboard-response,3,28882,0.0-3.0,"""event"",""trial"",""time""
""fullscreenenter"",""1"",""1546""
","
","
","""event"",""trial"",""time""
""fullscreenenter"",""1"",""1546""
","
",,null,run_exp/static/audio/clip_2_move.m4a,null,,,,,,,,,,,,,,,,,,,,,,,,
welcome_dec,4,29587,0.0-4.0,"""event"",""trial"",""time""
""fullscreenenter"",""1"",""1546""
","
","
","""event"",""trial"",""time""
""fullscreenenter"",""1"",""1546""
","
",,701.5,"<p>Howdy! In this experiment, you’ll be an explorer traveling through space to collect space treasure.</p><p>Your mission is to collect as much treasure as possible.</p><br><br><p><img src='run_exp/static/images/task_images/opening_img-01.jpg' height='300' width='auto'></p>",,,,,,,1,,,,,,,,,,,,,,,,,,
html-keyboard-response,5,29988,0.0-5.0,"""event"",""trial"",""time""
""fullscreenenter"",""1"",""1546""
","
","
","""event"",""trial"",""time""
""fullscreenenter"",""1"",""1546""
","
",,397.8,"<p>Howdy! In this experiment, you’ll be an explorer traveling through space to collect space treasure.</p><p>Your mission is to collect as much treasure as possible.</p><br><br><p><img src='run_exp/static/images/task_images/opening_img-01.jpg' height='300' width='auto'></p><button class=""jspsych-html-btn-unchosen""><img src=""run_exp/static/images/task_images/planet-01.jpg"" height=""50""></button><button class=""jspsych-html-btn-chosen""><img src=""run_exp/static/images/task_images/planet-02.jpg"" height=""50""></button><p><b>[press the space bar to lock in your answer]<b><br></p>",32,,,,,,,,,,,,,,,,,,,,,,,,
instruc_goal,6,40039,0.0-6.0-0.0,"""event"",""trial"",""time""
""fullscreenenter"",""1"",""1546""
","
","
","""event"",""trial"",""time""
""fullscreenenter"",""1"",""1546""
","
",,null,run_exp/static/audio/clip_3_goal.m4a,null,"<p> As a space explorer, you’ll visit different planets to dig for space treasure, these pink gems.</p> <p> The more treasure you dig up, the more bonus money you’ll win! </p><br><br><p><img src='run_exp/static/images/task_images/pink_gem.jpg' height='300' width='auto'></p>",,,,,,,,,,,,,,,,,,,,,,,
instruc_goal,7,41455,0.0-6.0-1.0,"""event"",""trial"",""time""
""fullscreenenter"",""1"",""1546""
","
","
","""event"",""trial"",""time""
""fullscreenenter"",""1"",""1546""
","
",,1412.8,"<p> As a space explorer, you’ll visit different planets to dig for space treasure, these pink gems.</p> <p> The more treasure you dig up, the more bonus money you’ll win! </p><br><br><p><img src='run_exp/static/images/task_images/pink_gem.jpg' height='300' width='auto'></p>",,,,,,,1,,,,,,,,,,,,,,,,,,
html-keyboard-response,8,41654,0.0-6.0-2.0,"""event"",""trial"",""time""
""fullscreenenter"",""1"",""1546""
","
","
","""event"",""trial"",""time""
""fullscreenenter"",""1"",""1546""
","
",,196.8,"<p> As a space explorer, you’ll visit different planets to dig for space treasure, these pink gems.</p> <p> The more treasure you dig up, the more bonus money you’ll win! </p><br><br><p><img src='run_exp/static/images/task_images/pink_gem.jpg' height='300' width='auto'></p><button class=""jspsych-html-btn-unchosen""><img src=""run_exp/static/images/task_images/planet-01.jpg"" height=""50""></button><button class=""jspsych-html-btn-chosen""><img src=""run_exp/static/images/task_images/planet-02.jpg"" height=""50""></button><p><b>[press the space bar to lock in your answer]<b><br></p>",32,,,,,,,,,,,,,,,,,,,,,,,,
instruc_dig,9,57660,0.0-7.0-0.0,"""event"",""trial"",""time""
""fullscreenenter"",""1"",""1546""
","
","
","""event"",""trial"",""time""
""fullscreenenter"",""1"",""1546""
","
",,null,run_exp/static/audio/clip_4_dig.m4a,null,,,,,,,100,,,,,,,,,,,,,,,,,
instruc_dig_try,10,57982,0.0-7.0-1.0,"""event"",""trial"",""time""
""fullscreenenter"",""1"",""1546""
","
","
","""event"",""trial"",""time""
""fullscreenenter"",""1"",""1546""
","
",,319.6,"<p> When you’ve arrived at a new planet, you will dig once. </p> <p>Then, you get to decide if you want to stay on the planet and dig again or travel to a new planet and dig there.</p> <p> To stay and dig, press the letter <strong>‘A’</strong> on your keyboard. Try pressing it now! </p><p><img src='run_exp/static/images/task_images/land.jpg'  height='700' width='auto'></p>",65,"<p> When you’ve arrived at a new planet, you will dig once. </p> <p>Then, you get to decide if you want to stay on the planet and dig again or travel to a new planet and dig there.</p> <p> To stay and dig, press the letter <strong>‘A’</strong> on your keyboard. Try pressing it now! </p><p><img src='run_exp/static/images/task_images/land.jpg'  height='700' width='auto'></p>",,,,,,100,,,,,,,,,,,,,,,,,
dig_prac,11,60000,0.0-7.0-2.0,"""event"",""trial"",""time""
""fullscreenenter"",""1"",""1546""
","
","
","""event"",""trial"",""time""
""fullscreenenter"",""1"",""1546""
","
",,,,,,,,,,,,"[{""stimulus"":""run_exp/static/images/task_images/dig.jpg"",""time"":0.4000000059604645},{""stimulus"":""run_exp/static/images/task_images/land.jpg"",""time"":681.4000000059605},{""stimulus"":""run_exp/static/images/task_images/dig.jpg"",""time"":1337.0999999940395}]",[],,,,,,,,,,,,,,,
instruc_travel,12,96231,0.0-7.0-3.0,"""event"",""trial"",""time""
""fullscreenenter"",""1"",""1546""
","
","
","""event"",""trial"",""time""
""fullscreenenter"",""1"",""1546""
","
",,null,run_exp/static/audio/clip_5_travel.m4a,null,"<p>Every time you dig up gems, there are less gems on the planet, so the more you dig on a planet the fewer gems you’ll get with each dig.</p><p>When gems are running low, you may want to travel to a new planet. </p> <p>  Planets are very far apart in this galaxy, so it will take some time to travel between them. </p> <br><p>There are lots and lots of planets for you to visit, so you won’t be able to return to any planets you’ve seen before. </p><br><p>To leave this planet and travel to a new one, press the letter <strong>‘L’</strong> on your keyboard. Try pressing it now! </p><p><img src='run_exp/static/images/task_images/rocket-01.jpg'  height='600' width='auto'></p>",,,,,,,,,,,,,,,,,,,,,,,
instruc_travel_try,13,96849,0.0-7.0-4.0,"""event"",""trial"",""time""
""fullscreenenter"",""1"",""1546""
","
","
","""event"",""trial"",""time""
""fullscreenenter"",""1"",""1546""
","
",,615.2,"<p>Every time you dig up gems, there are less gems on the planet, so the more you dig on a planet the fewer gems you’ll get with each dig.</p><p>When gems are running low, you may want to travel to a new planet. </p> <p>  Planets are very far apart in this galaxy, so it will take some time to travel between them. </p> <br><p>There are lots and lots of planets for you to visit, so you won’t be able to return to any planets you’ve seen before. </p><br><p>To leave this planet and travel to a new one, press the letter <strong>‘L’</strong> on your keyboard. Try pressing it now! </p><p><img src='run_exp/static/images/task_images/rocket-01.jpg'  height='600' width='auto'></p>",76,"<p>Every time you dig up gems, there are less gems on the planet, so the more you dig on a planet the fewer gems you’ll get with each dig.</p><p>When gems are running low, you may want to travel to a new planet. </p> <p>  Planets are very far apart in this galaxy, so it will take some time to travel between them. </p> <br><p>There are lots and lots of planets for you to visit, so you won’t be able to return to any planets you’ve seen before. </p><br><p>To leave this planet and travel to a new one, press the letter <strong>‘L’</strong> on your keyboard. Try pressing it now! </p><p><img src='run_exp/static/images/task_images/rocket-01.jpg'  height='600' width='auto'></p>",,,,,,,,,,,,,,,,,,,,,,,
travel_prac,14,106867,0.0-7.0-5.0,"""event"",""trial"",""time""
""fullscreenenter"",""1"",""1546""
","
","
","""event"",""trial"",""time""
""fullscreenenter"",""1"",""1546""
","
",,,,,,,,,,,,"[{""stimulus"":""run_exp/static/images/task_images/rocket-01.jpg"",""time"":0.20000001788139343},{""stimulus"":""run_exp/static/images/task_images/rocket-02.jpg"",""time"":1119.2000000178814},{""stimulus"":""run_exp/static/images/task_images/rocket-03.jpg"",""time"":2241.5},{""stimulus"":""run_exp/static/images/task_images/rocket-04.jpg"",""time"":3343.0999999940395},{""stimulus"":""run_exp/static/images/task_images/rocket-05.jpg"",""time"":4463.700000017881},{""stimulus"":""run_exp/static/images/task_images/rocket-06.jpg"",""time"":5569.5},{""stimulus"":""run_exp/static/images/task_images/rocket-07.jpg"",""time"":6669.300000011921},{""stimulus"":""run_exp/static/images/task_images/rocket-08.jpg"",""time"":7789},{""stimulus"":""run_exp/static/images/task_images/rocket-09.jpg"",""time"":8893.300000011921}]",[],0,,,,,,,,,,,,,,
instruc_alien_greet,15,134055,0.0-7.0-6.0,"""event"",""trial"",""time""
""fullscreenenter"",""1"",""1546""
","
","
","""event"",""trial"",""time""
""fullscreenenter"",""1"",""1546""
","
",,null,run_exp/static/audio/clip_6_alien.m4a,null,"<p>When you arrive at a new planet, the alien who owns the treasure mine on that planet will greet you!</p><p>The better an alien takes care of their mine the easier it is to dig for gems. Some aliens take better care of their mine than others. So, you won’t get exactly the same amount of gems on each planet.</p><p>What the alien looks like does not tell you anything about how many gems there are on the planet.</p><br><p><img src=""run_exp/static/images/task_images/aliens/instructions_aliens/planet/alien_planet-1.jpg""  height=""600"" width=""auto""></p>",,,,,,,,,,,,,,,,,,,,,,,
instruc_alien_greet,16,135038,0.0-7.0-7.0,"""event"",""trial"",""time""
""fullscreenenter"",""1"",""1546""
","
","
","""event"",""trial"",""time""
""fullscreenenter"",""1"",""1546""
","
",,979.1,"<p>When you arrive at a new planet, the alien who owns the treasure mine on that planet will greet you!</p><p>The better an alien takes care of their mine the easier it is to dig for gems. Some aliens take better care of their mine than others. So, you won’t get exactly the same amount of gems on each planet.</p><p>What the alien looks like does not tell you anything about how many gems there are on the planet.</p><br><p><img src=""run_exp/static/images/task_images/aliens/instructions_aliens/planet/alien_planet-1.jpg""  height=""600"" width=""auto""></p>",,,,,,,1,,,,,,,,,,,,,,,,,,
html-keyboard-response,17,135191,0.0-7.0-8.0,"""event"",""trial"",""time""
""fullscreenenter"",""1"",""1546""
","
","
","""event"",""trial"",""time""
""fullscreenenter"",""1"",""1546""
","
",,151.2,"<p>When you arrive at a new planet, the alien who owns the treasure mine on that planet will greet you!</p><p>The better an alien takes care of their mine the easier it is to dig for gems. Some aliens take better care of their mine than others. So, you won’t get exactly the same amount of gems on each planet.</p><p>What the alien looks like does not tell you anything about how many gems there are on the planet.</p><br><p><img src=""run_exp/static/images/task_images/aliens/instructions_aliens/planet/alien_planet-1.jpg""  height=""600"" width=""auto""></p><button class=""jspsych-html-btn-unchosen""><img src=""run_exp/static/images/task_images/planet-01.jpg"" height=""50""></button><button class=""jspsych-html-btn-chosen""><img src=""run_exp/static/images/task_images/planet-02.jpg"" height=""50""></button><p><b>[press the space bar to lock in your answer]<b><br></p>",32,,,,,,,,,,,,,,,,,,,,,,,,
time_out,18,146257,0.0-8.0-0.0,"""event"",""trial"",""time""
""fullscreenenter"",""1"",""1546""
","
","
","""event"",""trial"",""time""
""fullscreenenter"",""1"",""1546""
","
",,null,run_exp/static/audio/clip_7_timeout.m4a,null,"<p>If you don't make your choice fast enough, you’ll have to wait a few seconds before you can make another one.</p><p>You can’t dig for more gems or travel to new planets. You just have to sit and wait.</p><br><p><img src='run_exp/static/images/task_images/time_out.jpg'  height='600' width='auto'></p>",,,,,,,,,,,,,,,,,,,,,,,
time_out,19,147387,0.0-8.0-1.0,"""event"",""trial"",""time""
""fullscreenenter"",""1"",""1546""
","
","
","""event"",""trial"",""time""
""fullscreenenter"",""1"",""1546""
","
",,1126.4,"<p>If you don't make your choice fast enough, you’ll have to wait a few seconds before you can make another one.</p><p>You can’t dig for more gems or travel to new planets. You just have to sit and wait.</p><br><p><img src='run_exp/static/images/task_images/time_out.jpg'  height='600' width='auto'></p>",,,,,,,1,,,,,,,,,,,,,,,,,,
html-keyboard-response,20,147514,0.0-8.0-2.0,"""event"",""trial"",""time""
""fullscreenenter"",""1"",""1546""
","
","
","""event"",""trial"",""time""
""fullscreenenter"",""1"",""1546""
","
",,124.3,"<p>If you don't make your choice fast enough, you’ll have to wait a few seconds before you can make another one.</p><p>You can’t dig for more gems or travel to new planets. You just have to sit and wait.</p><br><p><img src='run_exp/static/images/task_images/time_out.jpg'  height='600' width='auto'></p><button class=""jspsych-html-btn-unchosen""><img src=""run_exp/static/images/task_images/planet-01.jpg"" height=""50""></button><button class=""jspsych-html-btn-chosen""><img src=""run_exp/static/images/task_images/planet-02.jpg"" height=""50""></button><p><b>[press the space bar to lock in your answer]<b><br></p>",32,,,,,,,,,,,,,,,,,,,,,,,,
instruc_break,21,163175,0.0-9.0-0.0,"""event"",""trial"",""time""
""fullscreenenter"",""1"",""1546""
","
","
","""event"",""trial"",""time""
""fullscreenenter"",""1"",""1546""
","
",,null,run_exp/static/audio/clip_8_break.m4a,null,"<p> After digging and traveling for a while, you’ll be able to take a break at home base. </p><p>The game will last 20 minutes no matter what.</p><p>You will visit home base every 5 minutes, so, you will visit home base three times during the game.</p><br><p><img src='run_exp/static/images/task_images/home_base.jpg' height='600' width='auto'></p>",,,,,,,,,,,,,,,,,,,,,,,
instruc_break,22,165489,0.0-9.0-1.0,"""event"",""trial"",""time""
""fullscreenenter"",""1"",""1546""
","
","
","""event"",""trial"",""time""
""fullscreenenter"",""1"",""1546""
","
",,2309.3,"<p> After digging and traveling for a while, you’ll be able to take a break at home base. </p><p>The game will last 20 minutes no matter what.</p><p>You will visit home base every 5 minutes, so, you will visit home base three times during the game.</p><br><p><img src='run_exp/static/images/task_images/home_base.jpg' height='600' width='auto'></p>",,,,,,,1,,,,,,,,,,,,,,,,,,
html-keyboard-response,23,165650,0.0-9.0-2.0,"""event"",""trial"",""time""
""fullscreenenter"",""1"",""1546""
","
","
","""event"",""trial"",""time""
""fullscreenenter"",""1"",""1546""
","
",,155.7,"<p> After digging and traveling for a while, you’ll be able to take a break at home base. </p><p>The game will last 20 minutes no matter what.</p><p>You will visit home base every 5 minutes, so, you will visit home base three times during the game.</p><br><p><img src='run_exp/static/images/task_images/home_base.jpg' height='600' width='auto'></p><button class=""jspsych-html-btn-unchosen""><img src=""run_exp/static/images/task_images/planet-01.jpg"" height=""50""></button><button class=""jspsych-html-btn-chosen""><img src=""run_exp/static/images/task_images/planet-02.jpg"" height=""50""></button><p><b>[press the space bar to lock in your answer]<b><br></p>",32,,,,,,,,,,,,,,,,,,,,,,,,
instruc_prac_game,24,175785,0.0-10.0-0.0,"""event"",""trial"",""time""
""fullscreenenter"",""1"",""1546""
","
","
","""event"",""trial"",""time""
""fullscreenenter"",""1"",""1546""
","
",,null,run_exp/static/audio/clip_9_practice.m4a,null,"<p> Are you ready to play a practice game? </p> <p>In this practice game, you'll be digging up barrels of gems. But, in the real game, you'll be digging up the gems themselves. </p>",,,,,,,,,,,,,,,,,,,,,,,
html-button-response,25,177387,0.0-10.0-1.0,"""event"",""trial"",""time""
""fullscreenenter"",""1"",""1546""
","
","
","""event"",""trial"",""time""
""fullscreenenter"",""1"",""1546""
","
",,1597.5,"<p> Are you ready to play a practice game? </p> <p>In this practice game, you'll be digging up barrels of gems. But, in the real game, you'll be digging up the gems themselves. </p>",,,,,,,0,,,,,,,,,,,,,,,,,,
alien_welcome_prac,26,182398,0.0-11.0-0.0,"""event"",""trial"",""time""
""fullscreenenter"",""1"",""1546""
","
","
","""event"",""trial"",""time""
""fullscreenenter"",""1"",""1546""
","
",,null,run_exp/static/images/task_images/aliens/practice_aliens/planet/alien_planet-5.jpg,null,,,,,,,,,,,,,,,,,,,,,,,,
land_prac,27,182901,0.0-11.0-1.0,"""event"",""trial"",""time""
""fullscreenenter"",""1"",""1546""
","
","
","""event"",""trial"",""time""
""fullscreenenter"",""1"",""1546""
","
",,null,run_exp/static/images/task_images/land.jpg,null,,,,,,,102,,,0,,,,,,,,,,,,,,
dig_prac,28,184909,0.0-11.0-2.0,"""event"",""trial"",""time""
""fullscreenenter"",""1"",""1546""
","
","
","""event"",""trial"",""time""
""fullscreenenter"",""1"",""1546""
","
",,,,,,,,,,,,"[{""stimulus"":""run_exp/static/images/task_images/dig.jpg"",""time"":0.30000001192092896},{""stimulus"":""run_exp/static/images/task_images/land.jpg"",""time"":677.2000000178814},{""stimulus"":""run_exp/static/images/task_images/dig.jpg"",""time"":1352.1000000238419}]",[],,,,,,,,,,,,,,,
harvest_prac,29,185917,0.0-11.0-3.0,"""event"",""trial"",""time""
""fullscreenenter"",""1"",""1546""
","
","
","""event"",""trial"",""time""
""fullscreenenter"",""1"",""1546""
","
",,null,run_exp/static/images/task_images/barrel_text.jpg,null,,,,,,,,,,,,,,,,,,,,,,,,
decision_prac,30,187404,0.0-11.0-4.0,"""event"",""trial"",""time""
""fullscreenenter"",""1"",""1546""
","
","
","""event"",""trial"",""time""
""fullscreenenter"",""1"",""1546""
","
",,1484.4,run_exp/static/images/task_images/land.jpg,65,,,,,,,,,,,1,,,,,,,,,,,,,
dig_prac,31,189421,0.0-12.0-0.0,"""event"",""trial"",""time""
""fullscreenenter"",""1"",""1546""
","
","
","""event"",""trial"",""time""
""fullscreenenter"",""1"",""1546""
","
",,,,,,,,,,,,"[{""stimulus"":""run_exp/static/images/task_images/dig.jpg"",""time"":0.20000001788139343},{""stimulus"":""run_exp/static/images/task_images/land.jpg"",""time"":674},{""stimulus"":""run_exp/static/images/task_images/dig.jpg"",""time"":1344.5}]",[],,,,,,,,,,,,,,,
harvest_prac,32,190430,0.0-12.0-1.0,"""event"",""trial"",""time""
""fullscreenenter"",""1"",""1546""
","
","
","""event"",""trial"",""time""
""fullscreenenter"",""1"",""1546""
","
",,null,run_exp/static/images/task_images/barrel_text.jpg,null,,,,,,,,,,,,,,,,,,,,,,,,
decision_prac,33,190999,0.0-12.0-2.0,"""event"",""trial"",""time""
""fullscreenenter"",""1"",""1546""
","
","
","""event"",""trial"",""time""
""fullscreenenter"",""1"",""1546""
","
",,566.6,run_exp/static/images/task_images/land.jpg,65,,,,,,,,,,,2,,,,,,,,,,,,,
dig_prac,34,193020,0.0-13.0-0.0,"""event"",""trial"",""time""
""fullscreenenter"",""1"",""1546""
","
","
","""event"",""trial"",""time""
""fullscreenenter"",""1"",""1546""
","
",,,,,,,,,,,,"[{""stimulus"":""run_exp/static/images/task_images/dig.jpg"",""time"":0.09999999403953552},{""stimulus"":""run_exp/static/images/task_images/land.jpg"",""time"":678.1999999880791},{""stimulus"":""run_exp/static/images/task_images/dig.jpg"",""time"":1346.0999999940395}]",[],,,,,,,,,,,,,,,
harvest_prac,35,194029,0.0-13.0-1.0,"""event"",""trial"",""time""
""fullscreenenter"",""1"",""1546""
","
","
","""event"",""trial"",""time""
""fullscreenenter"",""1"",""1546""
","
",,null,run_exp/static/images/task_images/barrel_text.jpg,null,,,,,,,,,,,,,,,,,,,,,,,,
decision_prac,36,194060,0.0-13.0-2.0,"""event"",""trial"",""time""
""fullscreenenter"",""1"",""1546""
","
","
","""event"",""trial"",""time""
""fullscreenenter"",""1"",""1546""
","
",,29.09999999,run_exp/static/images/task_images/land.jpg,65,,,,,,,,,,,3,,,,,,,,,,,,,
dig_prac,37,196080,0.0-14.0-0.0,"""event"",""trial"",""time""
""fullscreenenter"",""1"",""1546""
","
","
","""event"",""trial"",""time""
""fullscreenenter"",""1"",""1546""
","
",,,,,,,,,,,,"[{""stimulus"":""run_exp/static/images/task_images/dig.jpg"",""time"":0.30000001192092896},{""stimulus"":""run_exp/static/images/task_images/land.jpg"",""time"":674},{""stimulus"":""run_exp/static/images/task_images/dig.jpg"",""time"":1342}]",[],,,,,,,,,,,,,,,
harvest_prac,38,197089,0.0-14.0-1.0,"""event"",""trial"",""time""
""fullscreenenter"",""1"",""1546""
","
","
","""event"",""trial"",""time""
""fullscreenenter"",""1"",""1546""
","
",,null,run_exp/static/images/task_images/barrel_text.jpg,null,,,,,,,,,,,,,,,,,,,,,,,,
decision_prac,39,198673,0.0-14.0-2.0,"""event"",""trial"",""time""
""fullscreenenter"",""1"",""1546""
","
","
","""event"",""trial"",""time""
""fullscreenenter"",""1"",""1546""
","
",,1582.4,run_exp/static/images/task_images/land.jpg,65,,,,,,,,,,,4,,,,,,,,,,,,,
dig_prac,40,200684,0.0-15.0-0.0,"""event"",""trial"",""time""
""fullscreenenter"",""1"",""1546""
","
","
","""event"",""trial"",""time""
""fullscreenenter"",""1"",""1546""
","
",,,,,,,,,,,,"[{""stimulus"":""run_exp/static/images/task_images/dig.jpg"",""time"":0.09999999403953552},{""stimulus"":""run_exp/static/images/task_images/land.jpg"",""time"":680},{""stimulus"":""run_exp/static/images/task_images/dig.jpg"",""time"":1354.300000011921}]",[],,,,,,,,,,,,,,,
harvest_prac,41,201697,0.0-15.0-1.0,"""event"",""trial"",""time""
""fullscreenenter"",""1"",""1546""
","
","
","""event"",""trial"",""time""
""fullscreenenter"",""1"",""1546""
","
",,null,run_exp/static/images/task_images/barrel_text.jpg,null,,,,,,,,,,,,,,,,,,,,,,,,
decision_prac,42,202075,0.0-15.0-2.0,"""event"",""trial"",""time""
""fullscreenenter"",""1"",""1546""
","
","
","""event"",""trial"",""time""
""fullscreenenter"",""1"",""1546""
","
",,376.1,run_exp/static/images/task_images/land.jpg,65,,,,,,,,,,,,1,,,,,,,,,,,,
quiz_instruc,43,205221,0.0-16.0-0.0,"""event"",""trial"",""time""
""fullscreenenter"",""1"",""1546""
","
","
","""event"",""trial"",""time""
""fullscreenenter"",""1"",""1546""
","
",,3142.1,run_exp/static/audio/clip_10_quiz.m4a,,,,,,,0,,,,,,,,,,,,,,,,,,
instruc_repeat,44,247975,0.0-16.0-1.0,"""event"",""trial"",""time""
""fullscreenenter"",""1"",""1546""
","
","
","""event"",""trial"",""time""
""fullscreenenter"",""1"",""1546""
","
",,null,"<p> Are you ready to play a practice game? </p> <p>In this practice game, you'll be digging up barrels of gems. But, in the real game, you'll be digging up the gems themselves. </p>",null,"<p>In this game, your goal is to collect as many gems as you can. That’s how you will win bonus money. </p> <p>The entire game will last 20 minutes no matter how many gems you collect or how many planets you visit. </p><p>To stay on a planet and dig again, press the letter A on your keyboard. To leave for a new planet, press the letter L.</p><p>The more you dig on a planet, the fewer gems you’ll get with each dig which is why you might consider leaving for a new planet. </p><p>When you arrive at a new planet, you’ll be greeted by an alien. What the alien looks like does not tell you anything about how much treasure is on the planet. </p>",,,,,,,,,,,,,,,,,,,,,,,
instruc_repeat_continue,45,250554,0.0-16.0-2.0,"""event"",""trial"",""time""
""fullscreenenter"",""1"",""1546""
","
","
","""event"",""trial"",""time""
""fullscreenenter"",""1"",""1546""
","
",,2574.8,"<p> Are you ready to play a practice game? </p> <p>In this practice game, you'll be digging up barrels of gems. But, in the real game, you'll be digging up the gems themselves. </p>",,,,,,,0,,,,,,,,,,,,,,,,,,
quiz_q_1_ask,46,255505,0.0-16.0-3.0,"""event"",""trial"",""time""
""fullscreenenter"",""1"",""1546""
","
","
","""event"",""trial"",""time""
""fullscreenenter"",""1"",""1546""
","
",,4947.2,run_exp/static/audio/clip_11_q1_ask.m4a,,,,,,,2,,,,,,,,,,,,,,,,,,
quiz_q_1_fb_correct,47,259346,0.0-17.0-0.0,"""event"",""trial"",""time""
""fullscreenenter"",""1"",""1546""
","
","
","""event"",""trial"",""time""
""fullscreenenter"",""1"",""1546""
","
",,null,run_exp/static/audio/clip_12_q1_correct.m4a,null,<p>That’s correct. You win extra money by collecting more gems.</p>,,,,,,,,,,,,,,,,,,,,,,,
quiz_q_2_ask,48,262138,0.0-17.0-1.0,"""event"",""trial"",""time""
""fullscreenenter"",""1"",""1546""
","
","
","""event"",""trial"",""time""
""fullscreenenter"",""1"",""1546""
","
",,2788.3,run_exp/static/audio/clip_14_q2_ask.m4a,,,,,,,1,,,,,,,,,,,,,,,,,,
quiz_q_2_fb_correct,49,266130,0.0-18.0-0.0,"""event"",""trial"",""time""
""fullscreenenter"",""1"",""1546""
","
","
","""event"",""trial"",""time""
""fullscreenenter"",""1"",""1546""
","
",,null,run_exp/static/audio/clip_15_q2_correct.m4a,null,<p>That’s correct. The experiment is 20 minutes no matter what.</p>,,,,,,,,,,,,,,,,,,,,,,,
quiz_q_3_ask,50,269121,0.0-18.0-1.0,"""event"",""trial"",""time""
""fullscreenenter"",""1"",""1546""
","
","
","""event"",""trial"",""time""
""fullscreenenter"",""1"",""1546""
","
",,2988.8,run_exp/static/audio/clip_17_q3_ask.m4a,,,,,,,1,,,,,,,,,,,,,,,,,,
quiz_q_3_fb_correct,51,273084,0.0-19.0-0.0,"""event"",""trial"",""time""
""fullscreenenter"",""1"",""1546""
","
","
","""event"",""trial"",""time""
""fullscreenenter"",""1"",""1546""
","
",,null,run_exp/static/audio/clip_18_q3_correct.m4a,null,<p> That’s correct. You press the letter L to travel to a new planet.</p>,,,,,,,,,,,,,,,,,,,,,,,
quiz_q_4_ask,52,276954,0.0-19.0-1.0,"""event"",""trial"",""time""
""fullscreenenter"",""1"",""1546""
","
","
","""event"",""trial"",""time""
""fullscreenenter"",""1"",""1546""
","
",,3867.6,run_exp/static/audio/clip_20_q4_ask.m4a,,,,,,,0,,,,,,,,,,,,,,,,,,
quiz_q_4_fb_correct,53,282258,0.0-20.0-0.0,"""event"",""trial"",""time""
""fullscreenenter"",""1"",""1546""
","
","
","""event"",""trial"",""time""
""fullscreenenter"",""1"",""1546""
","
",,null,run_exp/static/audio/clip_21_q4_correct.m4a,null,<p> That’s correct. The more you dig on a planet the fewer gems you’ll get with each dig. </p>,,,,,,,,,,,,,,,,,,,,,,,
quiz_q_5_ask,54,284321,0.0-20.0-1.0,"""event"",""trial"",""time""
""fullscreenenter"",""1"",""1546""
","
","
","""event"",""trial"",""time""
""fullscreenenter"",""1"",""1546""
","
",,2060.7,run_exp/static/audio/clip_23_q5_ask.m4a,,,,,,,1,,,,,,,,,,,,,,,,,,
quiz_q_5_fb_correct,55,289319,0.0-21.0-0.0,"""event"",""trial"",""time""
""fullscreenenter"",""1"",""1546""
","
","
","""event"",""trial"",""time""
""fullscreenenter"",""1"",""1546""
","
",,null,run_exp/static/audio/clip_24_q5_correct.m4a,null,<p> That’s correct. The alien tells you nothing about how much treasure is on the planet.</p>,,,,,,,,,,,,,,,,,,,,,,,
quiz_correct,56,292775,0.0-22.0-0.0,"""event"",""trial"",""time""
""fullscreenenter"",""1"",""1546""
","
","
","""event"",""trial"",""time""
""fullscreenenter"",""1"",""1546""
","
",,null,run_exp/static/audio/clip_26_correct_quiz.m4a,null,,,,,,,,,,,,,,,,,,,,,,,,
quiz_correct_continue,57,293988,0.0-22.0-1.0,"""event"",""trial"",""time""
""fullscreenenter"",""1"",""1546""
","
","
","""event"",""trial"",""time""
""fullscreenenter"",""1"",""1546""
","
",,1210.9,<p>Good job! You're now ready to move on to the real game!</p>,,,,,,,0,,,,,,,,,,,,,,,,,,
audio-keyboard-response,58,304103,0.0-22.0-2.0,"""event"",""trial"",""time""
""fullscreenenter"",""1"",""1546""
","
","
","""event"",""trial"",""time""
""fullscreenenter"",""1"",""1546""
","
",,null,run_exp/static/audio/clip_28_real_game.m4a,null,,,,,,,,,,,,,,,,,,,,,,,,
instruc_begin_exp_contine,59,304854,0.0-22.0-3.0,"""event"",""trial"",""time""
""fullscreenenter"",""1"",""1546""
","
","
","""event"",""trial"",""time""
""fullscreenenter"",""1"",""1546""
","
",,747.5,"<p>Now that you know how  to dig for space treasure and travel to new planets,you can start exploring! </p><p>Do you want to go over the instructions again or get started with the real game?</p>",,,,,,,1,,,,,,1,,,,,,,,,,,,
alien_welcome,60,309867,0.0-23.0-0.0,"""event"",""trial"",""time""
""fullscreenenter"",""1"",""1546""
","
","
","""event"",""trial"",""time""
""fullscreenenter"",""1"",""1546""
","
",,null,run_exp/static/images/task_images/aliens/old_aliens/planet/alien_planet-25.jpg,null,,,,,,,,,,,,,25,"25,14,68,36,28,22,45,4,54,55,41,52,59,61,65,64,11,48,69,16,57,7,53,46,62,23,32,21,3,31,72,39,70,19,17,15,10,76,33,5,40,63,74,71,35,42,43,51,49,8,58,18,6,47,24,9,44,38,56,60,29,34,27,26,78,30,2",,,,,,,,,,
land,61,310382,0.0-23.0-1.0,"""event"",""trial"",""time""
""fullscreenenter"",""1"",""1546""
","
","
","""event"",""trial"",""time""
""fullscreenenter"",""1"",""1546""
","
",,null,run_exp/static/images/task_images/land.jpg,null,,,,,,,104,,,1,,,,,,,,,,,,,,
dig,62,312397,0.0-23.0-2.0,"""event"",""trial"",""time""
""fullscreenenter"",""1"",""1546""
","
","
","""event"",""trial"",""time""
""fullscreenenter"",""1"",""1546""
","
",,,,,,,,,,,,"[{""stimulus"":""run_exp/static/images/task_images/dig.jpg"",""time"":0.30000001192092896},{""stimulus"":""run_exp/static/images/task_images/land.jpg"",""time"":678.9000000059605},{""stimulus"":""run_exp/static/images/task_images/dig.jpg"",""time"":1337.2000000178814}]",[],1,,,,,,,,,,,,,,
harvest,63,313401,0.0-23.0-3.0,"""event"",""trial"",""time""
""fullscreenenter"",""1"",""1546""
","
","
","""event"",""trial"",""time""
""fullscreenenter"",""1"",""1546""
","
",,null,run_exp/static/images/task_images/gems/104.jpg,null,,,,,,,22,,,1,,,,,104,0.20985494,0.211538462,,,,,,,
decision,64,314373,0.0-23.0-4.0,"""event"",""trial"",""time""
""fullscreenenter"",""1"",""1546""
","
","
","""event"",""trial"",""time""
""fullscreenenter"",""1"",""1546""
","
",,969,run_exp/static/images/task_images/land.jpg,65,,,,,,,22,,,1,,,,,,,,9518,1,0,FALSE,,,
dig,65,316412,0.0-24.0-0.0,"""event"",""trial"",""time""
""fullscreenenter"",""1"",""1546""
","
","
","""event"",""trial"",""time""
""fullscreenenter"",""1"",""1546""
","
",,,,,,,,,,,,"[{""stimulus"":""run_exp/static/images/task_images/dig.jpg"",""time"":0.19999998807907104},{""stimulus"":""run_exp/static/images/task_images/land.jpg"",""time"":690.6999999880791},{""stimulus"":""run_exp/static/images/task_images/dig.jpg"",""time"":1359}]",[],1,,,,,,,,,,,,,,
harvest,66,317417,0.0-24.0-1.0,"""event"",""trial"",""time""
""fullscreenenter"",""1"",""1546""
","
","
","""event"",""trial"",""time""
""fullscreenenter"",""1"",""1546""
","
",,null,run_exp/static/images/task_images/gems/22.jpg,null,,,,,,,3,,,1,,,,,22,0.137265041,0.136363636,,,,,,,
decision,67,317784,0.0-24.0-2.0,"""event"",""trial"",""time""
""fullscreenenter"",""1"",""1546""
","
","
","""event"",""trial"",""time""
""fullscreenenter"",""1"",""1546""
","
",,365.1,run_exp/static/images/task_images/land.jpg,76,,,,,,,3,,,1,,,,,,,,12929,1,1,TRUE,,,
travel,68,327436,0.0-25.0-0.0,"""event"",""trial"",""time""
""fullscreenenter"",""1"",""1546""
","
","
","""event"",""trial"",""time""
""fullscreenenter"",""1"",""1546""
","
",,,,,,,,,,,,"[{""stimulus"":""run_exp/static/images/task_images/rocket-01.jpg"",""time"":0.4000000059604645},{""stimulus"":""run_exp/static/images/task_images/rocket-02.jpg"",""time"":1088.699999988079},{""stimulus"":""run_exp/static/images/task_images/rocket-03.jpg"",""time"":2160.0999999940395},{""stimulus"":""run_exp/static/images/task_images/rocket-04.jpg"",""time"":3213},{""stimulus"":""run_exp/static/images/task_images/rocket-05.jpg"",""time"":4288.9000000059605},{""stimulus"":""run_exp/static/images/task_images/rocket-06.jpg"",""time"":5357.4000000059605},{""stimulus"":""run_exp/static/images/task_images/rocket-07.jpg"",""time"":6433},{""stimulus"":""run_exp/static/images/task_images/rocket-08.jpg"",""time"":7500.9000000059605},{""stimulus"":""run_exp/static/images/task_images/rocket-09.jpg"",""time"":8576.800000011921}]",[],1,,,,,,,,,,,,,,
alien_welcome,69,332460,0.0-25.0-1.0,"""event"",""trial"",""time""
""fullscreenenter"",""1"",""1546""
","
","
","""event"",""trial"",""time""
""fullscreenenter"",""1"",""1546""
","
",,null,run_exp/static/images/task_images/aliens/old_aliens/planet/alien_planet-14.jpg,null,,,,,,,,,,,,,14,"25,14,68,36,28,22,45,4,54,55,41,52,59,61,65,64,11,48,69,16,57,7,53,46,62,23,32,21,3,31,72,39,70,19,17,15,10,76,33,5,40,63,74,71,35,42,43,51,49,8,58,18,6,47,24,9,44,38,56,60,29,34,27,26,78,30,2",,,,,,,,,,
land,70,332971,0.0-25.0-2.0,"""event"",""trial"",""time""
""fullscreenenter"",""1"",""1546""
","
","
","""event"",""trial"",""time""
""fullscreenenter"",""1"",""1546""
","
",,null,run_exp/static/images/task_images/land.jpg,null,,,,,,,99,,,2,,,,,,,,,,,,,,
dig,71,334984,0.0-25.0-3.0,"""event"",""trial"",""time""
""fullscreenenter"",""1"",""1546""
","
","
","""event"",""trial"",""time""
""fullscreenenter"",""1"",""1546""
","
",,,,,,,,,,,,"[{""stimulus"":""run_exp/static/images/task_images/dig.jpg"",""time"":0.5},{""stimulus"":""run_exp/static/images/task_images/land.jpg"",""time"":687.1999999880791},{""stimulus"":""run_exp/static/images/task_images/dig.jpg"",""time"":1339.3999999761581}]",[],2,,,,,,,,,,,,,,
harvest,72,335997,0.0-25.0-4.0,"""event"",""trial"",""time""
""fullscreenenter"",""1"",""1546""
","
","
","""event"",""trial"",""time""
""fullscreenenter"",""1"",""1546""
","
",,null,run_exp/static/images/task_images/gems/99.jpg,null,,,,,,,18,,,2,,,,,99,0.180361192,0.181818182,,,,,,,
decision,73,336223,0.0-25.0-5.0,"""event"",""trial"",""time""
""fullscreenenter"",""1"",""1546""
","
","
","""event"",""trial"",""time""
""fullscreenenter"",""1"",""1546""
","
",,222.9,run_exp/static/images/task_images/land.jpg,76,,,,,,,18,,,2,,,,,,,,31367,1,0,TRUE,,,
travel,74,346008,0.0-26.0-0.0,"""event"",""trial"",""time""
""fullscreenenter"",""1"",""1546""
","
","
","""event"",""trial"",""time""
""fullscreenenter"",""1"",""1546""
","
",,,,,,,,,,,,"[{""stimulus"":""run_exp/static/images/task_images/rocket-01.jpg"",""time"":0.30000001192092896},{""stimulus"":""run_exp/static/images/task_images/rocket-02.jpg"",""time"":1095.6000000238419},{""stimulus"":""run_exp/static/images/task_images/rocket-03.jpg"",""time"":2180.600000023842},{""stimulus"":""run_exp/static/images/task_images/rocket-04.jpg"",""time"":3272.800000011921},{""stimulus"":""run_exp/static/images/task_images/rocket-05.jpg"",""time"":4360.4000000059605},{""stimulus"":""run_exp/static/images/task_images/rocket-06.jpg"",""time"":5444.800000011921},{""stimulus"":""run_exp/static/images/task_images/rocket-07.jpg"",""time"":6533.4000000059605},{""stimulus"":""run_exp/static/images/task_images/rocket-08.jpg"",""time"":7608.700000017881},{""stimulus"":""run_exp/static/images/task_images/rocket-09.jpg"",""time"":8696.200000017881}]",[],2,,,,,,,,,,,,,,
alien_welcome,75,351020,0.0-26.0-1.0,"""event"",""trial"",""time""
""fullscreenenter"",""1"",""1546""
","
","
","""event"",""trial"",""time""
""fullscreenenter"",""1"",""1546""
","
",,null,run_exp/static/images/task_images/aliens/old_aliens/planet/alien_planet-68.jpg,null,,,,,,,,,,,,,68,"25,14,68,36,28,22,45,4,54,55,41,52,59,61,65,64,11,48,69,16,57,7,53,46,62,23,32,21,3,31,72,39,70,19,17,15,10,76,33,5,40,63,74,71,35,42,43,51,49,8,58,18,6,47,24,9,44,38,56,60,29,34,27,26,78,30,2",,,,,,,,,,
land,76,351532,0.0-26.0-2.0,"""event"",""trial"",""time""
""fullscreenenter"",""1"",""1546""
","
","
","""event"",""trial"",""time""
""fullscreenenter"",""1"",""1546""
","
",,null,run_exp/static/images/task_images/land.jpg,null,,,,,,,97,,,3,,,,,,,,,,,,,,
dig,77,353548,0.0-26.0-3.0,"""event"",""trial"",""time""
""fullscreenenter"",""1"",""1546""
","
","
","""event"",""trial"",""time""
""fullscreenenter"",""1"",""1546""
","
",,,,,,,,,,,,"[{""stimulus"":""run_exp/static/images/task_images/dig.jpg"",""time"":0.4000000059604645},{""stimulus"":""run_exp/static/images/task_images/land.jpg"",""time"":682.3000000119209},{""stimulus"":""run_exp/static/images/task_images/dig.jpg"",""time"":1338.300000011921}]",[],3,,,,,,,,,,,,,,
harvest,78,354556,0.0-26.0-4.0,"""event"",""trial"",""time""
""fullscreenenter"",""1"",""1546""
","
","
","""event"",""trial"",""time""
""fullscreenenter"",""1"",""1546""
","
",,null,run_exp/static/images/task_images/gems/97.jpg,null,,,,,,,50,,,3,,,,,97,0.51717713,0.515463918,,,,,,,
decision,79,354850,0.0-26.0-5.0,"""event"",""trial"",""time""
""fullscreenenter"",""1"",""1546""
","
","
","""event"",""trial"",""time""
""fullscreenenter"",""1"",""1546""
","
",,292.2,run_exp/static/images/task_images/land.jpg,76,,,,,,,50,,,3,,,,,,,,49994,1,0,TRUE,,,
travel,80,364571,0.0-27.0-0.0,"""event"",""trial"",""time""
""fullscreenenter"",""1"",""1546""
","
","
","""event"",""trial"",""time""
""fullscreenenter"",""1"",""1546""
","
",,,,,,,,,,,,"[{""stimulus"":""run_exp/static/images/task_images/rocket-01.jpg"",""time"":0.10000002384185791},{""stimulus"":""run_exp/static/images/task_images/rocket-02.jpg"",""time"":1095.800000011921},{""stimulus"":""run_exp/static/images/task_images/rocket-03.jpg"",""time"":2166.2000000178814},{""stimulus"":""run_exp/static/images/task_images/rocket-04.jpg"",""time"":3239.5},{""stimulus"":""run_exp/static/images/task_images/rocket-05.jpg"",""time"":4323.600000023842},{""stimulus"":""run_exp/static/images/task_images/rocket-06.jpg"",""time"":5398.600000023842},{""stimulus"":""run_exp/static/images/task_images/rocket-07.jpg"",""time"":6471.800000011921},{""stimulus"":""run_exp/static/images/task_images/rocket-08.jpg"",""time"":7558.5},{""stimulus"":""run_exp/static/images/task_images/rocket-09.jpg"",""time"":8631.90000000596}]",[],3,,,,,,,,,,,,,,
alien_welcome,81,369575,0.0-27.0-1.0,"""event"",""trial"",""time""
""fullscreenenter"",""1"",""1546""
","
","
","""event"",""trial"",""time""
""fullscreenenter"",""1"",""1546""
","
",,null,run_exp/static/images/task_images/aliens/old_aliens/planet/alien_planet-36.jpg,null,,,,,,,,,,,,,36,"25,14,68,36,28,22,45,4,54,55,41,52,59,61,65,64,11,48,69,16,57,7,53,46,62,23,32,21,3,31,72,39,70,19,17,15,10,76,33,5,40,63,74,71,35,42,43,51,49,8,58,18,6,47,24,9,44,38,56,60,29,34,27,26,78,30,2",,,,,,,,,,
land,82,370092,0.0-27.0-2.0,"""event"",""trial"",""time""
""fullscreenenter"",""1"",""1546""
","
","
","""event"",""trial"",""time""
""fullscreenenter"",""1"",""1546""
","
",,null,run_exp/static/images/task_images/land.jpg,null,,,,,,,101,,,4,,,,,,,,,,,,,,
dig,83,372107,0.0-27.0-3.0,"""event"",""trial"",""time""
""fullscreenenter"",""1"",""1546""
","
","
","""event"",""trial"",""time""
""fullscreenenter"",""1"",""1546""
","
",,,,,,,,,,,,"[{""stimulus"":""run_exp/static/images/task_images/dig.jpg"",""time"":0.5},{""stimulus"":""run_exp/static/images/task_images/land.jpg"",""time"":685.4000000059605},{""stimulus"":""run_exp/static/images/task_images/dig.jpg"",""time"":1337.4000000059605}]",[],4,,,,,,,,,,,,,,
harvest,84,373115,0.0-27.0-4.0,"""event"",""trial"",""time""
""fullscreenenter"",""1"",""1546""
","
","
","""event"",""trial"",""time""
""fullscreenenter"",""1"",""1546""
","
",,null,run_exp/static/images/task_images/gems/101.jpg,null,,,,,,,63,,,4,,,,,101,0.620699011,0.623762376,,,,,,,
decision,85,373367,0.0-27.0-5.0,"""event"",""trial"",""time""
""fullscreenenter"",""1"",""1546""
","
","
","""event"",""trial"",""time""
""fullscreenenter"",""1"",""1546""
","
",,249.7,run_exp/static/images/task_images/land.jpg,65,,,,,,,63,,,4,,,,,,,,68512,1,0,FALSE,,,
dig,86,376138,0.0-28.0-0.0,"""event"",""trial"",""time""
""fullscreenenter"",""1"",""1546""
","
","
","""event"",""trial"",""time""
""fullscreenenter"",""1"",""1546""
","
",,,,,,,,,,,,"[{""stimulus"":""run_exp/static/images/task_images/dig.jpg"",""time"":0.20000001788139343},{""stimulus"":""run_exp/static/images/task_images/land.jpg"",""time"":926.8000000119209},{""stimulus"":""run_exp/static/images/task_images/dig.jpg"",""time"":1835.7000000178814}]",[],4,,,,,,,,,,,,,,
harvest,87,377146,0.0-28.0-1.0,"""event"",""trial"",""time""
""fullscreenenter"",""1"",""1546""
","
","
","""event"",""trial"",""time""
""fullscreenenter"",""1"",""1546""
","
",,null,run_exp/static/images/task_images/gems/63.jpg,null,,,,,,,32,,,4,,,,,63,0.504282025,0.507936508,,,,,,,
decision,88,378509,0.0-28.0-2.0,"""event"",""trial"",""time""
""fullscreenenter"",""1"",""1546""
","
","
","""event"",""trial"",""time""
""fullscreenenter"",""1"",""1546""
","
",,1360.5,run_exp/static/images/task_images/land.jpg,76,,,,,,,32,,,4,,,,,,,,73654,1,1,TRUE,,,
travel,89,387159,0.0-29.0-0.0,"""event"",""trial"",""time""
""fullscreenenter"",""1"",""1546""
","
","
","""event"",""trial"",""time""
""fullscreenenter"",""1"",""1546""
","
",,,,,,,,,,,,"[{""stimulus"":""run_exp/static/images/task_images/rocket-01.jpg"",""time"":0.10000002384185791},{""stimulus"":""run_exp/static/images/task_images/rocket-02.jpg"",""time"":965.7000000178814},{""stimulus"":""run_exp/static/images/task_images/rocket-03.jpg"",""time"":1925.7000000178814},{""stimulus"":""run_exp/static/images/task_images/rocket-04.jpg"",""time"":2885.800000011921},{""stimulus"":""run_exp/static/images/task_images/rocket-05.jpg"",""time"":3845.7000000178814},{""stimulus"":""run_exp/static/images/task_images/rocket-06.jpg"",""time"":4809.100000023842},{""stimulus"":""run_exp/static/images/task_images/rocket-07.jpg"",""time"":5767.4000000059605},{""stimulus"":""run_exp/static/images/task_images/rocket-08.jpg"",""time"":6725.800000011921},{""stimulus"":""run_exp/static/images/task_images/rocket-09.jpg"",""time"":7685}]",[],4,,,,,,,,,,,,,,
alien_welcome,90,392171,0.0-29.0-1.0,"""event"",""trial"",""time""
""fullscreenenter"",""1"",""1546""
","
","
","""event"",""trial"",""time""
""fullscreenenter"",""1"",""1546""
","
",,null,run_exp/static/images/task_images/aliens/old_aliens/planet/alien_planet-28.jpg,null,,,,,,,,,,,,,28,"25,14,68,36,28,22,45,4,54,55,41,52,59,61,65,64,11,48,69,16,57,7,53,46,62,23,32,21,3,31,72,39,70,19,17,15,10,76,33,5,40,63,74,71,35,42,43,51,49,8,58,18,6,47,24,9,44,38,56,60,29,34,27,26,78,30,2",,,,,,,,,,
land,91,392682,0.0-29.0-2.0,"""event"",""trial"",""time""
""fullscreenenter"",""1"",""1546""
","
","
","""event"",""trial"",""time""
""fullscreenenter"",""1"",""1546""
","
",,null,run_exp/static/images/task_images/land.jpg,null,,,,,,,108,,,5,,,,,,,,,,,,,,
dig,92,394698,0.0-29.0-3.0,"""event"",""trial"",""time""
""fullscreenenter"",""1"",""1546""
","
","
","""event"",""trial"",""time""
""fullscreenenter"",""1"",""1546""
","
",,,,,,,,,,,,"[{""stimulus"":""run_exp/static/images/task_images/dig.jpg"",""time"":0.3999999761581421},{""stimulus"":""run_exp/static/images/task_images/land.jpg"",""time"":669.7999999821186},{""stimulus"":""run_exp/static/images/task_images/dig.jpg"",""time"":1338.2999999821186}]",[],5,,,,,,,,,,,,,,
harvest,93,395703,0.0-29.0-4.0,"""event"",""trial"",""time""
""fullscreenenter"",""1"",""1546""
","
","
","""event"",""trial"",""time""
""fullscreenenter"",""1"",""1546""
","
",,null,run_exp/static/images/task_images/gems/108.jpg,null,,,,,,,60,,,5,,,,,108,0.551660649,0.555555556,,,,,,,
decision,94,396192,0.0-29.0-5.0,"""event"",""trial"",""time""
""fullscreenenter"",""1"",""1546""
","
","
","""event"",""trial"",""time""
""fullscreenenter"",""1"",""1546""
","
",,486.9,run_exp/static/images/task_images/land.jpg,76,,,,,,,60,,,5,,,,,,,,91336,1,0,TRUE,,,
travel,95,405722,0.0-30.0-0.0,"""event"",""trial"",""time""
""fullscreenenter"",""1"",""1546""
","
","
","""event"",""trial"",""time""
""fullscreenenter"",""1"",""1546""
","
",,,,,,,,,,,,"[{""stimulus"":""run_exp/static/images/task_images/rocket-01.jpg"",""time"":0.09999999403953552},{""stimulus"":""run_exp/static/images/task_images/rocket-02.jpg"",""time"":1079},{""stimulus"":""run_exp/static/images/task_images/rocket-03.jpg"",""time"":2131},{""stimulus"":""run_exp/static/images/task_images/rocket-04.jpg"",""time"":3186.199999988079},{""stimulus"":""run_exp/static/images/task_images/rocket-05.jpg"",""time"":4245.699999988079},{""stimulus"":""run_exp/static/images/task_images/rocket-06.jpg"",""time"":5303},{""stimulus"":""run_exp/static/images/task_images/rocket-07.jpg"",""time"":6359},{""stimulus"":""run_exp/static/images/task_images/rocket-08.jpg"",""time"":7413.199999988079},{""stimulus"":""run_exp/static/images/task_images/rocket-09.jpg"",""time"":8471}]",[],5,,,,,,,,,,,,,,
alien_welcome,96,410726,0.0-30.0-1.0,"""event"",""trial"",""time""
""fullscreenenter"",""1"",""1546""
","
","
","""event"",""trial"",""time""
""fullscreenenter"",""1"",""1546""
","
",,null,run_exp/static/images/task_images/aliens/old_aliens/planet/alien_planet-22.jpg,null,,,,,,,,,,,,,22,"25,14,68,36,28,22,45,4,54,55,41,52,59,61,65,64,11,48,69,16,57,7,53,46,62,23,32,21,3,31,72,39,70,19,17,15,10,76,33,5,40,63,74,71,35,42,43,51,49,8,58,18,6,47,24,9,44,38,56,60,29,34,27,26,78,30,2",,,,,,,,,,
land,97,411243,0.0-30.0-2.0,"""event"",""trial"",""time""
""fullscreenenter"",""1"",""1546""
","
","
","""event"",""trial"",""time""
""fullscreenenter"",""1"",""1546""
","
",,null,run_exp/static/images/task_images/land.jpg,null,,,,,,,104,,,6,,,,,,,,,,,,,,
dig,98,413258,0.0-30.0-3.0,"""event"",""trial"",""time""
""fullscreenenter"",""1"",""1546""
","
","
","""event"",""trial"",""time""
""fullscreenenter"",""1"",""1546""
","
",,,,,,,,,,,,"[{""stimulus"":""run_exp/static/images/task_images/dig.jpg"",""time"":0.5999999940395355},{""stimulus"":""run_exp/static/images/task_images/land.jpg"",""time"":680.8999999761581},{""stimulus"":""run_exp/static/images/task_images/dig.jpg"",""time"":1336.7999999821186}]",[],6,,,,,,,,,,,,,,
harvest,99,414267,0.0-30.0-4.0,"""event"",""trial"",""time""
""fullscreenenter"",""1"",""1546""
","
","
","""event"",""trial"",""time""
""fullscreenenter"",""1"",""1546""
","
",,null,run_exp/static/images/task_images/gems/104.jpg,null,,,,,,,83,,,6,,,,,104,0.794437573,0.798076923,,,,,,,
decision,100,417274,0.0-30.0-5.0,"""event"",""trial"",""time""
""fullscreenenter"",""1"",""1546""
","
","
","""event"",""trial"",""time""
""fullscreenenter"",""1"",""1546""
","
",,null,run_exp/static/images/task_images/land.jpg,null,,,,,,,83,,,6,,,,,,,,112418,1,0,FALSE,,,
time_out,101,419290,0.0-31.0-0.0,"""event"",""trial"",""time""
""fullscreenenter"",""1"",""1546""
","
","
","""event"",""trial"",""time""
""fullscreenenter"",""1"",""1546""
","
",,null,run_exp/static/images/task_images/time_out.jpg,null,,,,,,,83,,,,,,,,,,,,,,,,,
decision,102,419871,0.0-31.0-1.0,"""event"",""trial"",""time""
""fullscreenenter"",""1"",""1546""
","
","
","""event"",""trial"",""time""
""fullscreenenter"",""1"",""1546""
","
",,578.9,run_exp/static/images/task_images/land.jpg,76,,,,,,,83,,,6,,,,,,,,115015,1,0,TRUE,,,
travel,103,429305,0.0-32.0-0.0,"""event"",""trial"",""time""
""fullscreenenter"",""1"",""1546""
","
","
","""event"",""trial"",""time""
""fullscreenenter"",""1"",""1546""
","
",,,,,,,,,,,,"[{""stimulus"":""run_exp/static/images/task_images/rocket-01.jpg"",""time"":0.30000001192092896},{""stimulus"":""run_exp/static/images/task_images/rocket-02.jpg"",""time"":1058.9000000059605},{""stimulus"":""run_exp/static/images/task_images/rocket-03.jpg"",""time"":2099.100000023842},{""stimulus"":""run_exp/static/images/task_images/rocket-04.jpg"",""time"":3141},{""stimulus"":""run_exp/static/images/task_images/rocket-05.jpg"",""time"":4195.100000023842},{""stimulus"":""run_exp/static/images/task_images/rocket-06.jpg"",""time"":5235.200000017881},{""stimulus"":""run_exp/static/images/task_images/rocket-07.jpg"",""time"":6290.4000000059605},{""stimulus"":""run_exp/static/images/task_images/rocket-08.jpg"",""time"":7330.9000000059605},{""stimulus"":""run_exp/static/images/task_images/rocket-09.jpg"",""time"":8373.700000017881}]",[],6,,,,,,,,,,,,,,
alien_welcome,104,434314,0.0-32.0-1.0,"""event"",""trial"",""time""
""fullscreenenter"",""1"",""1546""
","
","
","""event"",""trial"",""time""
""fullscreenenter"",""1"",""1546""
","
",,null,run_exp/static/images/task_images/aliens/old_aliens/planet/alien_planet-45.jpg,null,,,,,,,,,,,,,45,"25,14,68,36,28,22,45,4,54,55,41,52,59,61,65,64,11,48,69,16,57,7,53,46,62,23,32,21,3,31,72,39,70,19,17,15,10,76,33,5,40,63,74,71,35,42,43,51,49,8,58,18,6,47,24,9,44,38,56,60,29,34,27,26,78,30,2",,,,,,,,,,
land,105,434826,0.0-32.0-2.0,"""event"",""trial"",""time""
""fullscreenenter"",""1"",""1546""
","
","
","""event"",""trial"",""time""
""fullscreenenter"",""1"",""1546""
","
",,null,run_exp/static/images/task_images/land.jpg,null,,,,,,,97,,,7,,,,,,,,,,,,,,
dig,106,436841,0.0-32.0-3.0,"""event"",""trial"",""time""
""fullscreenenter"",""1"",""1546""
","
","
","""event"",""trial"",""time""
""fullscreenenter"",""1"",""1546""
","
",,,,,,,,,,,,"[{""stimulus"":""run_exp/static/images/task_images/dig.jpg"",""time"":0.29999998211860657},{""stimulus"":""run_exp/static/images/task_images/land.jpg"",""time"":680.6999999880791},{""stimulus"":""run_exp/static/images/task_images/dig.jpg"",""time"":1337.199999988079}]",[],7,,,,,,,,,,,,,,
harvest,107,437848,0.0-32.0-4.0,"""event"",""trial"",""time""
""fullscreenenter"",""1"",""1546""
","
","
","""event"",""trial"",""time""
""fullscreenenter"",""1"",""1546""
","
",,null,run_exp/static/images/task_images/gems/97.jpg,null,,,,,,,84,,,7,,,,,97,0.869245811,0.865979381,,,,,,,
decision,108,438270,0.0-32.0-5.0,"""event"",""trial"",""time""
""fullscreenenter"",""1"",""1546""
","
","
","""event"",""trial"",""time""
""fullscreenenter"",""1"",""1546""
","
",,419.8,run_exp/static/images/task_images/land.jpg,76,,,,,,,84,,,7,,,,,,,,133414,1,0,TRUE,,,
travel,109,447861,0.0-33.0-0.0,"""event"",""trial"",""time""
""fullscreenenter"",""1"",""1546""
","
","
","""event"",""trial"",""time""
""fullscreenenter"",""1"",""1546""
","
",,,,,,,,,,,,"[{""stimulus"":""run_exp/static/images/task_images/rocket-01.jpg"",""time"":0},{""stimulus"":""run_exp/static/images/task_images/rocket-02.jpg"",""time"":1079},{""stimulus"":""run_exp/static/images/task_images/rocket-03.jpg"",""time"":2136.0999999940395},{""stimulus"":""run_exp/static/images/task_images/rocket-04.jpg"",""time"":3204.0999999940395},{""stimulus"":""run_exp/static/images/task_images/rocket-05.jpg"",""time"":4264.299999982119},{""stimulus"":""run_exp/static/images/task_images/rocket-06.jpg"",""time"":5331.299999982119},{""stimulus"":""run_exp/static/images/task_images/rocket-07.jpg"",""time"":6391.899999976158},{""stimulus"":""run_exp/static/images/task_images/rocket-08.jpg"",""time"":7464.0999999940395},{""stimulus"":""run_exp/static/images/task_images/rocket-09.jpg"",""time"":8520.09999999404}]",[],7,,,,,,,,,,,,,,
alien_welcome,110,452873,0.0-33.0-1.0,"""event"",""trial"",""time""
""fullscreenenter"",""1"",""1546""
","
","
","""event"",""trial"",""time""
""fullscreenenter"",""1"",""1546""
","
",,null,run_exp/static/images/task_images/aliens/old_aliens/planet/alien_planet-4.jpg,null,,,,,,,,,,,,,4,"25,14,68,36,28,22,45,4,54,55,41,52,59,61,65,64,11,48,69,16,57,7,53,46,62,23,32,21,3,31,72,39,70,19,17,15,10,76,33,5,40,63,74,71,35,42,43,51,49,8,58,18,6,47,24,9,44,38,56,60,29,34,27,26,78,30,2",,,,,,,,,,
land,111,453383,0.0-33.0-2.0,"""event"",""trial"",""time""
""fullscreenenter"",""1"",""1546""
","
","
","""event"",""trial"",""time""
""fullscreenenter"",""1"",""1546""
","
",,null,run_exp/static/images/task_images/land.jpg,null,,,,,,,100,,,8,,,,,,,,,,,,,,
dig,112,455399,0.0-33.0-3.0,"""event"",""trial"",""time""
""fullscreenenter"",""1"",""1546""
","
","
","""event"",""trial"",""time""
""fullscreenenter"",""1"",""1546""
","
",,,,,,,,,,,,"[{""stimulus"":""run_exp/static/images/task_images/dig.jpg"",""time"":0.699999988079071},{""stimulus"":""run_exp/static/images/task_images/land.jpg"",""time"":688.0999999940395},{""stimulus"":""run_exp/static/images/task_images/dig.jpg"",""time"":1344.0999999940395}]",[],8,,,,,,,,,,,,,,
harvest,113,456409,0.0-33.0-4.0,"""event"",""trial"",""time""
""fullscreenenter"",""1"",""1546""
","
","
","""event"",""trial"",""time""
""fullscreenenter"",""1"",""1546""
","
",,null,run_exp/static/images/task_images/gems/100.jpg,null,,,,,,,77,,,8,,,,,100,0.771985421,0.77,,,,,,,
decision,114,456552,0.0-33.0-5.0,"""event"",""trial"",""time""
""fullscreenenter"",""1"",""1546""
","
","
","""event"",""trial"",""time""
""fullscreenenter"",""1"",""1546""
","
",,140.9,run_exp/static/images/task_images/land.jpg,76,,,,,,,77,,,8,,,,,,,,151697,1,0,TRUE,,,
travel,115,466424,0.0-34.0-0.0,"""event"",""trial"",""time""
""fullscreenenter"",""1"",""1546""
","
","
","""event"",""trial"",""time""
""fullscreenenter"",""1"",""1546""
","
",,,,,,,,,,,,"[{""stimulus"":""run_exp/static/images/task_images/rocket-01.jpg"",""time"":0.30000001192092896},{""stimulus"":""run_exp/static/images/task_images/rocket-02.jpg"",""time"":1100.5},{""stimulus"":""run_exp/static/images/task_images/rocket-03.jpg"",""time"":2204.4000000059605},{""stimulus"":""run_exp/static/images/task_images/rocket-04.jpg"",""time"":3292.4000000059605},{""stimulus"":""run_exp/static/images/task_images/rocket-05.jpg"",""time"":4392.4000000059605},{""stimulus"":""run_exp/static/images/task_images/rocket-06.jpg"",""time"":5482.0999999940395},{""stimulus"":""run_exp/static/images/task_images/rocket-07.jpg"",""time"":6587},{""stimulus"":""run_exp/static/images/task_images/rocket-08.jpg"",""time"":7675.5999999940395},{""stimulus"":""run_exp/static/images/task_images/rocket-09.jpg"",""time"":8780.40000000596}]",[],8,,,,,,,,,,,,,,
alien_welcome,116,471444,0.0-34.0-1.0,"""event"",""trial"",""time""
""fullscreenenter"",""1"",""1546""
","
","
","""event"",""trial"",""time""
""fullscreenenter"",""1"",""1546""
","
",,null,run_exp/static/images/task_images/aliens/old_aliens/planet/alien_planet-54.jpg,null,,,,,,,,,,,,,54,"25,14,68,36,28,22,45,4,54,55,41,52,59,61,65,64,11,48,69,16,57,7,53,46,62,23,32,21,3,31,72,39,70,19,17,15,10,76,33,5,40,63,74,71,35,42,43,51,49,8,58,18,6,47,24,9,44,38,56,60,29,34,27,26,78,30,2",,,,,,,,,,
land,117,471949,0.0-34.0-2.0,"""event"",""trial"",""time""
""fullscreenenter"",""1"",""1546""
","
","
","""event"",""trial"",""time""
""fullscreenenter"",""1"",""1546""
","
",,null,run_exp/static/images/task_images/land.jpg,null,,,,,,,104,,,9,,,,,,,,,,,,,,
dig,118,473956,0.0-34.0-3.0,"""event"",""trial"",""time""
""fullscreenenter"",""1"",""1546""
","
","
","""event"",""trial"",""time""
""fullscreenenter"",""1"",""1546""
","
",,,,,,,,,,,,"[{""stimulus"":""run_exp/static/images/task_images/dig.jpg"",""time"":0.3999999761581421},{""stimulus"":""run_exp/static/images/task_images/land.jpg"",""time"":681.3999999761581},{""stimulus"":""run_exp/static/images/task_images/dig.jpg"",""time"":1349.7999999821186}]",[],9,,,,,,,,,,,,,,
harvest,119,474966,0.0-34.0-4.0,"""event"",""trial"",""time""
""fullscreenenter"",""1"",""1546""
","
","
","""event"",""trial"",""time""
""fullscreenenter"",""1"",""1546""
","
",,null,run_exp/static/images/task_images/gems/104.jpg,null,,,,,,,15,,,9,,,,,104,0.14540077,0.144230769,,,,,,,
decision,120,475360,0.0-34.0-5.0,"""event"",""trial"",""time""
""fullscreenenter"",""1"",""1546""
","
","
","""event"",""trial"",""time""
""fullscreenenter"",""1"",""1546""
","
",,392.5,run_exp/static/images/task_images/land.jpg,65,,,,,,,15,,,9,,,,,,,,170504,1,0,FALSE,,,
dig,121,477972,0.0-35.0-0.0,"""event"",""trial"",""time""
""fullscreenenter"",""1"",""1546""
","
","
","""event"",""trial"",""time""
""fullscreenenter"",""1"",""1546""
","
",,,,,,,,,,,,"[{""stimulus"":""run_exp/static/images/task_images/dig.jpg"",""time"":0.10000002384185791},{""stimulus"":""run_exp/static/images/task_images/land.jpg"",""time"":882.5},{""stimulus"":""run_exp/static/images/task_images/dig.jpg"",""time"":1749.800000011921}]",[],9,,,,,,,,,,,,,,
harvest,122,478984,0.0-35.0-1.0,"""event"",""trial"",""time""
""fullscreenenter"",""1"",""1546""
","
","
","""event"",""trial"",""time""
""fullscreenenter"",""1"",""1546""
","
",,null,run_exp/static/images/task_images/gems/15.jpg,null,,,,,,,2,,,9,,,,,15,0.159088577,0.133333333,,,,,,,
decision,123,479443,0.0-35.0-2.0,"""event"",""trial"",""time""
""fullscreenenter"",""1"",""1546""
","
","
","""event"",""trial"",""time""
""fullscreenenter"",""1"",""1546""
","
",,456.9,run_exp/static/images/task_images/land.jpg,76,,,,,,,2,,,9,,,,,,,,174587,1,1,TRUE,,,
travel,124,488999,0.0-36.0-0.0,"""event"",""trial"",""time""
""fullscreenenter"",""1"",""1546""
","
","
","""event"",""trial"",""time""
""fullscreenenter"",""1"",""1546""
","
",,,,,,,,,,,,"[{""stimulus"":""run_exp/static/images/task_images/rocket-01.jpg"",""time"":0.30000001192092896},{""stimulus"":""run_exp/static/images/task_images/rocket-02.jpg"",""time"":1068.2000000178814},{""stimulus"":""run_exp/static/images/task_images/rocket-03.jpg"",""time"":2128.800000011921},{""stimulus"":""run_exp/static/images/task_images/rocket-04.jpg"",""time"":3196.9000000059605},{""stimulus"":""run_exp/static/images/task_images/rocket-05.jpg"",""time"":4255.5999999940395},{""stimulus"":""run_exp/static/images/task_images/rocket-06.jpg"",""time"":5311.5999999940395},{""stimulus"":""run_exp/static/images/task_images/rocket-07.jpg"",""time"":6368.9000000059605},{""stimulus"":""run_exp/static/images/task_images/rocket-08.jpg"",""time"":7437},{""stimulus"":""run_exp/static/images/task_images/rocket-09.jpg"",""time"":8495.90000000596}]",[],9,,,,,,,,,,,,,,
alien_welcome,125,494004,0.0-36.0-1.0,"""event"",""trial"",""time""
""fullscreenenter"",""1"",""1546""
","
","
","""event"",""trial"",""time""
""fullscreenenter"",""1"",""1546""
","
",,null,run_exp/static/images/task_images/aliens/old_aliens/planet/alien_planet-55.jpg,null,,,,,,,,,,,,,55,"25,14,68,36,28,22,45,4,54,55,41,52,59,61,65,64,11,48,69,16,57,7,53,46,62,23,32,21,3,31,72,39,70,19,17,15,10,76,33,5,40,63,74,71,35,42,43,51,49,8,58,18,6,47,24,9,44,38,56,60,29,34,27,26,78,30,2",,,,,,,,,,
land,126,494520,0.0-36.0-2.0,"""event"",""trial"",""time""
""fullscreenenter"",""1"",""1546""
","
","
","""event"",""trial"",""time""
""fullscreenenter"",""1"",""1546""
","
",,null,run_exp/static/images/task_images/land.jpg,null,,,,,,,102,,,10,,,,,,,,,,,,,,
dig,127,496532,0.0-36.0-3.0,"""event"",""trial"",""time""
""fullscreenenter"",""1"",""1546""
","
","
","""event"",""trial"",""time""
""fullscreenenter"",""1"",""1546""
","
",,,,,,,,,,,,"[{""stimulus"":""run_exp/static/images/task_images/dig.jpg"",""time"":0.4000000059604645},{""stimulus"":""run_exp/static/images/task_images/land.jpg"",""time"":680.8000000119209},{""stimulus"":""run_exp/static/images/task_images/dig.jpg"",""time"":1337}]",[],10,,,,,,,,,,,,,,
harvest,128,497543,0.0-36.0-4.0,"""event"",""trial"",""time""
""fullscreenenter"",""1"",""1546""
","
","
","""event"",""trial"",""time""
""fullscreenenter"",""1"",""1546""
","
",,null,run_exp/static/images/task_images/gems/102.jpg,null,,,,,,,24,,,10,,,,,102,0.239644858,0.235294118,,,,,,,
decision,129,497920,0.0-36.0-5.0,"""event"",""trial"",""time""
""fullscreenenter"",""1"",""1546""
","
","
","""event"",""trial"",""time""
""fullscreenenter"",""1"",""1546""
","
",,375.8,run_exp/static/images/task_images/land.jpg,76,,,,,,,24,,,10,,,,,,,,193064,1,0,TRUE,,,
travel,130,507559,0.0-37.0-0.0,"""event"",""trial"",""time""
""fullscreenenter"",""1"",""1546""
","
","
","""event"",""trial"",""time""
""fullscreenenter"",""1"",""1546""
","
",,,,,,,,,,,,"[{""stimulus"":""run_exp/static/images/task_images/rocket-01.jpg"",""time"":0.09999999403953552},{""stimulus"":""run_exp/static/images/task_images/rocket-02.jpg"",""time"":1077.4000000059605},{""stimulus"":""run_exp/static/images/task_images/rocket-03.jpg"",""time"":2146.5999999940395},{""stimulus"":""run_exp/static/images/task_images/rocket-04.jpg"",""time"":3221.9000000059605},{""stimulus"":""run_exp/static/images/task_images/rocket-05.jpg"",""time"":4293.5},{""stimulus"":""run_exp/static/images/task_images/rocket-06.jpg"",""time"":5361.5},{""stimulus"":""run_exp/static/images/task_images/rocket-07.jpg"",""time"":6420},{""stimulus"":""run_exp/static/images/task_images/rocket-08.jpg"",""time"":7493.5},{""stimulus"":""run_exp/static/images/task_images/rocket-09.jpg"",""time"":8561.5}]",[],10,,,,,,,,,,,,,,
alien_welcome,131,512583,0.0-37.0-1.0,"""event"",""trial"",""time""
""fullscreenenter"",""1"",""1546""
","
","
","""event"",""trial"",""time""
""fullscreenenter"",""1"",""1546""
","
",,null,run_exp/static/images/task_images/aliens/old_aliens/planet/alien_planet-41.jpg,null,,,,,,,,,,,,,41,"25,14,68,36,28,22,45,4,54,55,41,52,59,61,65,64,11,48,69,16,57,7,53,46,62,23,32,21,3,31,72,39,70,19,17,15,10,76,33,5,40,63,74,71,35,42,43,51,49,8,58,18,6,47,24,9,44,38,56,60,29,34,27,26,78,30,2",,,,,,,,,,
land,132,513095,0.0-37.0-2.0,"""event"",""trial"",""time""
""fullscreenenter"",""1"",""1546""
","
","
","""event"",""trial"",""time""
""fullscreenenter"",""1"",""1546""
","
",,null,run_exp/static/images/task_images/land.jpg,null,,,,,,,102,,,11,,,,,,,,,,,,,,
dig,133,515111,0.0-37.0-3.0,"""event"",""trial"",""time""
""fullscreenenter"",""1"",""1546""
","
","
","""event"",""trial"",""time""
""fullscreenenter"",""1"",""1546""
","
",,,,,,,,,,,,"[{""stimulus"":""run_exp/static/images/task_images/dig.jpg"",""time"":0.5999999940395355},{""stimulus"":""run_exp/static/images/task_images/land.jpg"",""time"":682.2000000178814},{""stimulus"":""run_exp/static/images/task_images/dig.jpg"",""time"":1338.800000011921}]",[],11,,,,,,,,,,,,,,
harvest,134,516116,0.0-37.0-4.0,"""event"",""trial"",""time""
""fullscreenenter"",""1"",""1546""
","
","
","""event"",""trial"",""time""
""fullscreenenter"",""1"",""1546""
","
",,null,run_exp/static/images/task_images/gems/102.jpg,null,,,,,,,22,,,11,,,,,102,0.218918866,0.215686275,,,,,,,
decision,135,516999,0.0-37.0-5.0,"""event"",""trial"",""time""
""fullscreenenter"",""1"",""1546""
","
","
","""event"",""trial"",""time""
""fullscreenenter"",""1"",""1546""
","
",,880.3,run_exp/static/images/task_images/land.jpg,76,,,,,,,22,,,11,,,,,,,,212143,1,0,TRUE,,,
travel,136,526133,0.0-38.0-0.0,"""event"",""trial"",""time""
""fullscreenenter"",""1"",""1546""
","
","
","""event"",""trial"",""time""
""fullscreenenter"",""1"",""1546""
","
",,,,,,,,,,,,"[{""stimulus"":""run_exp/static/images/task_images/rocket-01.jpg"",""time"":0.20000001788139343},{""stimulus"":""run_exp/static/images/task_images/rocket-02.jpg"",""time"":1019.3000000119209},{""stimulus"":""run_exp/static/images/task_images/rocket-03.jpg"",""time"":2038.9000000059605},{""stimulus"":""run_exp/static/images/task_images/rocket-04.jpg"",""time"":3045.9000000059605},{""stimulus"":""run_exp/static/images/task_images/rocket-05.jpg"",""time"":4054.800000011921},{""stimulus"":""run_exp/static/images/task_images/rocket-06.jpg"",""time"":5078.800000011921},{""stimulus"":""run_exp/static/images/task_images/rocket-07.jpg"",""time"":6089.5999999940395},{""stimulus"":""run_exp/static/images/task_images/rocket-08.jpg"",""time"":7098.800000011921},{""stimulus"":""run_exp/static/images/task_images/rocket-09.jpg"",""time"":8118.9000000059605}]",[],11,,,,,,,,,,,,,,
alien_welcome,137,531143,0.0-38.0-1.0,"""event"",""trial"",""time""
""fullscreenenter"",""1"",""1546""
","
","
","""event"",""trial"",""time""
""fullscreenenter"",""1"",""1546""
","
",,null,run_exp/static/images/task_images/aliens/old_aliens/planet/alien_planet-52.jpg,null,,,,,,,,,,,,,52,"25,14,68,36,28,22,45,4,54,55,41,52,59,61,65,64,11,48,69,16,57,7,53,46,62,23,32,21,3,31,72,39,70,19,17,15,10,76,33,5,40,63,74,71,35,42,43,51,49,8,58,18,6,47,24,9,44,38,56,60,29,34,27,26,78,30,2",,,,,,,,,,
land,138,531651,0.0-38.0-2.0,"""event"",""trial"",""time""
""fullscreenenter"",""1"",""1546""
","
","
","""event"",""trial"",""time""
""fullscreenenter"",""1"",""1546""
","
",,null,run_exp/static/images/task_images/land.jpg,null,,,,,,,100,,,12,,,,,,,,,,,,,,
dig,139,533665,0.0-38.0-3.0,"""event"",""trial"",""time""
""fullscreenenter"",""1"",""1546""
","
","
","""event"",""trial"",""time""
""fullscreenenter"",""1"",""1546""
","
",,,,,,,,,,,,"[{""stimulus"":""run_exp/static/images/task_images/dig.jpg"",""time"":0.5999999940395355},{""stimulus"":""run_exp/static/images/task_images/land.jpg"",""time"":669.1999999880791},{""stimulus"":""run_exp/static/images/task_images/dig.jpg"",""time"":1341.199999988079}]",[],12,,,,,,,,,,,,,,
harvest,140,534678,0.0-38.0-4.0,"""event"",""trial"",""time""
""fullscreenenter"",""1"",""1546""
","
","
","""event"",""trial"",""time""
""fullscreenenter"",""1"",""1546""
","
",,null,run_exp/static/images/task_images/gems/100.jpg,null,,,,,,,16,,,12,,,,,100,0.164491384,0.16,,,,,,,
decision,141,535081,0.0-38.0-5.0,"""event"",""trial"",""time""
""fullscreenenter"",""1"",""1546""
","
","
","""event"",""trial"",""time""
""fullscreenenter"",""1"",""1546""
","
",,401,run_exp/static/images/task_images/land.jpg,76,,,,,,,16,,,12,,,,,,,,230225,1,0,TRUE,,,
travel,142,544694,0.0-39.0-0.0,"""event"",""trial"",""time""
""fullscreenenter"",""1"",""1546""
","
","
","""event"",""trial"",""time""
""fullscreenenter"",""1"",""1546""
","
",,,,,,,,,,,,"[{""stimulus"":""run_exp/static/images/task_images/rocket-01.jpg"",""time"":0.20000001788139343},{""stimulus"":""run_exp/static/images/task_images/rocket-02.jpg"",""time"":1078},{""stimulus"":""run_exp/static/images/task_images/rocket-03.jpg"",""time"":2153.9000000059605},{""stimulus"":""run_exp/static/images/task_images/rocket-04.jpg"",""time"":3208.0999999940395},{""stimulus"":""run_exp/static/images/task_images/rocket-05.jpg"",""time"":4277.9000000059605},{""stimulus"":""run_exp/static/images/task_images/rocket-06.jpg"",""time"":5337.9000000059605},{""stimulus"":""run_exp/static/images/task_images/rocket-07.jpg"",""time"":6409.9000000059605},{""stimulus"":""run_exp/static/images/task_images/rocket-08.jpg"",""time"":7465.9000000059605},{""stimulus"":""run_exp/static/images/task_images/rocket-09.jpg"",""time"":8537.90000000596}]",[],12,,,,,,,,,,,,,,
alien_welcome,143,549714,0.0-39.0-1.0,"""event"",""trial"",""time""
""fullscreenenter"",""1"",""1546""
","
","
","""event"",""trial"",""time""
""fullscreenenter"",""1"",""1546""
","
",,null,run_exp/static/images/task_images/aliens/old_aliens/planet/alien_planet-59.jpg,null,,,,,,,,,,,,,59,"25,14,68,36,28,22,45,4,54,55,41,52,59,61,65,64,11,48,69,16,57,7,53,46,62,23,32,21,3,31,72,39,70,19,17,15,10,76,33,5,40,63,74,71,35,42,43,51,49,8,58,18,6,47,24,9,44,38,56,60,29,34,27,26,78,30,2",,,,,,,,,,
land,144,550227,0.0-39.0-2.0,"""event"",""trial"",""time""
""fullscreenenter"",""1"",""1546""
","
","
","""event"",""trial"",""time""
""fullscreenenter"",""1"",""1546""
","
",,null,run_exp/static/images/task_images/land.jpg,null,,,,,,,103,,,13,,,,,,,,,,,,,,
dig,145,552242,0.0-39.0-3.0,"""event"",""trial"",""time""
""fullscreenenter"",""1"",""1546""
","
","
","""event"",""trial"",""time""
""fullscreenenter"",""1"",""1546""
","
",,,,,,,,,,,,"[{""stimulus"":""run_exp/static/images/task_images/dig.jpg"",""time"":0.5},{""stimulus"":""run_exp/static/images/task_images/land.jpg"",""time"":685.4000000059605},{""stimulus"":""run_exp/static/images/task_images/dig.jpg"",""time"":1345.5}]",[],13,,,,,,,,,,,,,,
harvest,146,553249,0.0-39.0-4.0,"""event"",""trial"",""time""
""fullscreenenter"",""1"",""1546""
","
","
","""event"",""trial"",""time""
""fullscreenenter"",""1"",""1546""
","
",,null,run_exp/static/images/task_images/gems/103.jpg,null,,,,,,,22,,,13,,,,,103,0.211486382,0.213592233,,,,,,,
decision,147,554448,0.0-39.0-5.0,"""event"",""trial"",""time""
""fullscreenenter"",""1"",""1546""
","
","
","""event"",""trial"",""time""
""fullscreenenter"",""1"",""1546""
","
",,1195.8,run_exp/static/images/task_images/land.jpg,76,,,,,,,22,,,13,,,,,,,,249592,1,0,TRUE,,,
travel,148,563266,0.0-40.0-0.0,"""event"",""trial"",""time""
""fullscreenenter"",""1"",""1546""
","
","
","""event"",""trial"",""time""
""fullscreenenter"",""1"",""1546""
","
",,,,,,,,,,,,"[{""stimulus"":""run_exp/static/images/task_images/rocket-01.jpg"",""time"":0.19999998807907104},{""stimulus"":""run_exp/static/images/task_images/rocket-02.jpg"",""time"":993.7999999821186},{""stimulus"":""run_exp/static/images/task_images/rocket-03.jpg"",""time"":1967.699999988079},{""stimulus"":""run_exp/static/images/task_images/rocket-04.jpg"",""time"":2943.5},{""stimulus"":""run_exp/static/images/task_images/rocket-05.jpg"",""time"":3921.699999988079},{""stimulus"":""run_exp/static/images/task_images/rocket-06.jpg"",""time"":4893.5999999940395},{""stimulus"":""run_exp/static/images/task_images/rocket-07.jpg"",""time"":5873.699999988079},{""stimulus"":""run_exp/static/images/task_images/rocket-08.jpg"",""time"":6863.699999988079},{""stimulus"":""run_exp/static/images/task_images/rocket-09.jpg"",""time"":7841.5999999940395}]",[],13,,,,,,,,,,,,,,
alien_welcome,149,568274,0.0-40.0-1.0,"""event"",""trial"",""time""
""fullscreenenter"",""1"",""1546""
","
","
","""event"",""trial"",""time""
""fullscreenenter"",""1"",""1546""
","
",,null,run_exp/static/images/task_images/aliens/old_aliens/planet/alien_planet-61.jpg,null,,,,,,,,,,,,,61,"25,14,68,36,28,22,45,4,54,55,41,52,59,61,65,64,11,48,69,16,57,7,53,46,62,23,32,21,3,31,72,39,70,19,17,15,10,76,33,5,40,63,74,71,35,42,43,51,49,8,58,18,6,47,24,9,44,38,56,60,29,34,27,26,78,30,2",,,,,,,,,,
land,150,568785,0.0-40.0-2.0,"""event"",""trial"",""time""
""fullscreenenter"",""1"",""1546""
","
","
","""event"",""trial"",""time""
""fullscreenenter"",""1"",""1546""
","
",,null,run_exp/static/images/task_images/land.jpg,null,,,,,,,107,,,14,,,,,,,,,,,,,,
dig,151,570802,0.0-40.0-3.0,"""event"",""trial"",""time""
""fullscreenenter"",""1"",""1546""
","
","
","""event"",""trial"",""time""
""fullscreenenter"",""1"",""1546""
","
",,,,,,,,,,,,"[{""stimulus"":""run_exp/static/images/task_images/dig.jpg"",""time"":0.5},{""stimulus"":""run_exp/static/images/task_images/land.jpg"",""time"":674},{""stimulus"":""run_exp/static/images/task_images/dig.jpg"",""time"":1344.9000000059605}]",[],14,,,,,,,,,,,,,,
harvest,152,571809,0.0-40.0-4.0,"""event"",""trial"",""time""
""fullscreenenter"",""1"",""1546""
","
","
","""event"",""trial"",""time""
""fullscreenenter"",""1"",""1546""
","
",,null,run_exp/static/images/task_images/gems/107.jpg,null,,,,,,,86,,,14,,,,,107,0.800983285,0.803738318,,,,,,,
decision,153,573569,0.0-40.0-5.0,"""event"",""trial"",""time""
""fullscreenenter"",""1"",""1546""
","
","
","""event"",""trial"",""time""
""fullscreenenter"",""1"",""1546""
","
",,1757.7,run_exp/static/images/task_images/land.jpg,76,,,,,,,86,,,14,,,,,,,,268714,1,0,TRUE,,,
travel,154,581825,0.0-41.0-0.0,"""event"",""trial"",""time""
""fullscreenenter"",""1"",""1546""
","
","
","""event"",""trial"",""time""
""fullscreenenter"",""1"",""1546""
","
",,,,,,,,,,,,"[{""stimulus"":""run_exp/static/images/task_images/rocket-01.jpg"",""time"":0.10000002384185791},{""stimulus"":""run_exp/static/images/task_images/rocket-02.jpg"",""time"":927.7000000178814},{""stimulus"":""run_exp/static/images/task_images/rocket-03.jpg"",""time"":1835.800000011921},{""stimulus"":""run_exp/static/images/task_images/rocket-04.jpg"",""time"":2747.600000023842},{""stimulus"":""run_exp/static/images/task_images/rocket-05.jpg"",""time"":3679.800000011921},{""stimulus"":""run_exp/static/images/task_images/rocket-06.jpg"",""time"":4591.800000011921},{""stimulus"":""run_exp/static/images/task_images/rocket-07.jpg"",""time"":5503.200000017881},{""stimulus"":""run_exp/static/images/task_images/rocket-08.jpg"",""time"":6411.700000017881},{""stimulus"":""run_exp/static/images/task_images/rocket-09.jpg"",""time"":7325.9000000059605}]",[],14,,,,,,,,,,,,,,
alien_welcome,155,586834,0.0-41.0-1.0,"""event"",""trial"",""time""
""fullscreenenter"",""1"",""1546""
","
","
","""event"",""trial"",""time""
""fullscreenenter"",""1"",""1546""
","
",,null,run_exp/static/images/task_images/aliens/old_aliens/planet/alien_planet-65.jpg,null,,,,,,,,,,,,,65,"25,14,68,36,28,22,45,4,54,55,41,52,59,61,65,64,11,48,69,16,57,7,53,46,62,23,32,21,3,31,72,39,70,19,17,15,10,76,33,5,40,63,74,71,35,42,43,51,49,8,58,18,6,47,24,9,44,38,56,60,29,34,27,26,78,30,2",,,,,,,,,,
land,156,587346,0.0-41.0-2.0,"""event"",""trial"",""time""
""fullscreenenter"",""1"",""1546""
","
","
","""event"",""trial"",""time""
""fullscreenenter"",""1"",""1546""
","
",,null,run_exp/static/images/task_images/land.jpg,null,,,,,,,104,,,15,,,,,,,,,,,,,,
dig,157,589361,0.0-41.0-3.0,"""event"",""trial"",""time""
""fullscreenenter"",""1"",""1546""
","
","
","""event"",""trial"",""time""
""fullscreenenter"",""1"",""1546""
","
",,,,,,,,,,,,"[{""stimulus"":""run_exp/static/images/task_images/dig.jpg"",""time"":0.5},{""stimulus"":""run_exp/static/images/task_images/land.jpg"",""time"":684.8000000119209},{""stimulus"":""run_exp/static/images/task_images/dig.jpg"",""time"":1341.0999999940395}]",[],15,,,,,,,,,,,,,,
harvest,158,590369,0.0-41.0-4.0,"""event"",""trial"",""time""
""fullscreenenter"",""1"",""1546""
","
","
","""event"",""trial"",""time""
""fullscreenenter"",""1"",""1546""
","
",,null,run_exp/static/images/task_images/gems/104.jpg,null,,,,,,,88,,,15,,,,,104,0.8497179,0.846153846,,,,,,,
decision,159,591046,0.0-41.0-5.0,"""event"",""trial"",""time""
""fullscreenenter"",""1"",""1546""
","
","
","""event"",""trial"",""time""
""fullscreenenter"",""1"",""1546""
","
",,674.9,run_exp/static/images/task_images/land.jpg,76,,,,,,,88,,,15,,,,,,,,286190,1,0,TRUE,,,
travel,160,600388,0.0-42.0-0.0,"""event"",""trial"",""time""
""fullscreenenter"",""1"",""1546""
","
","
","""event"",""trial"",""time""
""fullscreenenter"",""1"",""1546""
","
",,,,,,,,,,,,"[{""stimulus"":""run_exp/static/images/task_images/rocket-01.jpg"",""time"":0.30000001192092896},{""stimulus"":""run_exp/static/images/task_images/rocket-02.jpg"",""time"":1049.300000011921},{""stimulus"":""run_exp/static/images/task_images/rocket-03.jpg"",""time"":2074.800000011921},{""stimulus"":""run_exp/static/images/task_images/rocket-04.jpg"",""time"":3110.5},{""stimulus"":""run_exp/static/images/task_images/rocket-05.jpg"",""time"":4154.700000017881},{""stimulus"":""run_exp/static/images/task_images/rocket-06.jpg"",""time"":5190.200000017881},{""stimulus"":""run_exp/static/images/task_images/rocket-07.jpg"",""time"":6234.800000011921},{""stimulus"":""run_exp/static/images/task_images/rocket-08.jpg"",""time"":7255.200000017881},{""stimulus"":""run_exp/static/images/task_images/rocket-09.jpg"",""time"":8298.700000017881}]",[],15,,,,,,,,,,,,,,
alien_welcome,161,605396,0.0-42.0-1.0,"""event"",""trial"",""time""
""fullscreenenter"",""1"",""1546""
","
","
","""event"",""trial"",""time""
""fullscreenenter"",""1"",""1546""
","
",,null,run_exp/static/images/task_images/aliens/old_aliens/planet/alien_planet-64.jpg,null,,,,,,,,,,,,,64,"25,14,68,36,28,22,45,4,54,55,41,52,59,61,65,64,11,48,69,16,57,7,53,46,62,23,32,21,3,31,72,39,70,19,17,15,10,76,33,5,40,63,74,71,35,42,43,51,49,8,58,18,6,47,24,9,44,38,56,60,29,34,27,26,78,30,2",,,,,,,,,,
land,162,605909,0.0-42.0-2.0,"""event"",""trial"",""time""
""fullscreenenter"",""1"",""1546""
","
","
","""event"",""trial"",""time""
""fullscreenenter"",""1"",""1546""
","
",,null,run_exp/static/images/task_images/land.jpg,null,,,,,,,97,,,16,,,,,,,,,,,,,,
dig,163,607924,0.0-42.0-3.0,"""event"",""trial"",""time""
""fullscreenenter"",""1"",""1546""
","
","
","""event"",""trial"",""time""
""fullscreenenter"",""1"",""1546""
","
",,,,,,,,,,,,"[{""stimulus"":""run_exp/static/images/task_images/dig.jpg"",""time"":0.5},{""stimulus"":""run_exp/static/images/task_images/land.jpg"",""time"":685.3000000119209},{""stimulus"":""run_exp/static/images/task_images/dig.jpg"",""time"":1338.5}]",[],16,,,,,,,,,,,,,,
harvest,164,608930,0.0-42.0-4.0,"""event"",""trial"",""time""
""fullscreenenter"",""1"",""1546""
","
","
","""event"",""trial"",""time""
""fullscreenenter"",""1"",""1546""
","
",,null,run_exp/static/images/task_images/gems/97.jpg,null,,,,,,,48,,,16,,,,,97,0.495403932,0.494845361,,,,,,,
decision,165,609517,0.0-42.0-5.0,"""event"",""trial"",""time""
""fullscreenenter"",""1"",""1546""
","
","
","""event"",""trial"",""time""
""fullscreenenter"",""1"",""1546""
","
",,583.7,run_exp/static/images/task_images/land.jpg,76,,,,,,,48,,,16,,,,,,,,304661,1,0,TRUE,,,
end_of_block_continue,166,616406,0.0-43.0-0.0,"""event"",""trial"",""time""
""fullscreenenter"",""1"",""1546""
","
","
","""event"",""trial"",""time""
""fullscreenenter"",""1"",""1546""
","
",,6884,run_exp/static/audio/clip_32_block_end.m4a,,,,,,,0,,,,,,,,,,,,,,,,,,
alien_welcome,167,621424,0.0-44.0-0.0,"""event"",""trial"",""time""
""fullscreenenter"",""1"",""1546""
","
","
","""event"",""trial"",""time""
""fullscreenenter"",""1"",""1546""
","
",,null,run_exp/static/images/task_images/aliens/old_aliens/planet/alien_planet-11.jpg,null,,,,,,,,,,,,,11,"25,14,68,36,28,22,45,4,54,55,41,52,59,61,65,64,11,48,69,16,57,7,53,46,62,23,32,21,3,31,72,39,70,19,17,15,10,76,33,5,40,63,74,71,35,42,43,51,49,8,58,18,6,47,24,9,44,38,56,60,29,34,27,26,78,30,2",,,,,,,,,,
land,168,621941,0.0-44.0-1.0,"""event"",""trial"",""time""
""fullscreenenter"",""1"",""1546""
","
","
","""event"",""trial"",""time""
""fullscreenenter"",""1"",""1546""
","
",,null,run_exp/static/images/task_images/land.jpg,null,,,,,,,98,,,17,,,,,,,,,,,,,,
dig,169,623956,0.0-44.0-2.0,"""event"",""trial"",""time""
""fullscreenenter"",""1"",""1546""
","
","
","""event"",""trial"",""time""
""fullscreenenter"",""1"",""1546""
","
",,,,,,,,,,,,"[{""stimulus"":""run_exp/static/images/task_images/dig.jpg"",""time"":0.5},{""stimulus"":""run_exp/static/images/task_images/land.jpg"",""time"":685},{""stimulus"":""run_exp/static/images/task_images/dig.jpg"",""time"":1337}]",[],17,,,,,,,,,,,,,,
harvest,170,624964,0.0-44.0-3.0,"""event"",""trial"",""time""
""fullscreenenter"",""1"",""1546""
","
","
","""event"",""trial"",""time""
""fullscreenenter"",""1"",""1546""
","
",,null,run_exp/static/images/task_images/gems/98.jpg,null,,,,,,,16,,,17,,,,,98,0.163665164,0.163265306,,,,,,,
decision,171,627491,0.0-44.0-4.0,"""event"",""trial"",""time""
""fullscreenenter"",""1"",""1546""
","
","
","""event"",""trial"",""time""
""fullscreenenter"",""1"",""1546""
","
",,2524.7,run_exp/static/images/task_images/land.jpg,76,,,,,,,16,,,17,,,,,,,,11083,2,0,TRUE,,,
travel,172,634979,0.0-45.0-0.0,"""event"",""trial"",""time""
""fullscreenenter"",""1"",""1546""
","
","
","""event"",""trial"",""time""
""fullscreenenter"",""1"",""1546""
","
",,,,,,,,,,,,"[{""stimulus"":""run_exp/static/images/task_images/rocket-01.jpg"",""time"":0.20000001788139343},{""stimulus"":""run_exp/static/images/task_images/rocket-02.jpg"",""time"":838.7000000178814},{""stimulus"":""run_exp/static/images/task_images/rocket-03.jpg"",""time"":1670.7000000178814},{""stimulus"":""run_exp/static/images/task_images/rocket-04.jpg"",""time"":2502.800000011921},{""stimulus"":""run_exp/static/images/task_images/rocket-05.jpg"",""time"":3338.800000011921},{""stimulus"":""run_exp/static/images/task_images/rocket-06.jpg"",""time"":4165.9000000059605},{""stimulus"":""run_exp/static/images/task_images/rocket-07.jpg"",""time"":4981.9000000059605},{""stimulus"":""run_exp/static/images/task_images/rocket-08.jpg"",""time"":5814.700000017881},{""stimulus"":""run_exp/static/images/task_images/rocket-09.jpg"",""time"":6649.200000017881}]",[],17,,,,,,,,,,,,,,
alien_welcome,173,639987,0.0-45.0-1.0,"""event"",""trial"",""time""
""fullscreenenter"",""1"",""1546""
","
","
","""event"",""trial"",""time""
""fullscreenenter"",""1"",""1546""
","
",,null,run_exp/static/images/task_images/aliens/old_aliens/planet/alien_planet-48.jpg,null,,,,,,,,,,,,,48,"25,14,68,36,28,22,45,4,54,55,41,52,59,61,65,64,11,48,69,16,57,7,53,46,62,23,32,21,3,31,72,39,70,19,17,15,10,76,33,5,40,63,74,71,35,42,43,51,49,8,58,18,6,47,24,9,44,38,56,60,29,34,27,26,78,30,2",,,,,,,,,,
land,174,640500,0.0-45.0-2.0,"""event"",""trial"",""time""
""fullscreenenter"",""1"",""1546""
","
","
","""event"",""trial"",""time""
""fullscreenenter"",""1"",""1546""
","
",,null,run_exp/static/images/task_images/land.jpg,null,,,,,,,105,,,18,,,,,,,,,,,,,,
dig,175,642511,0.0-45.0-3.0,"""event"",""trial"",""time""
""fullscreenenter"",""1"",""1546""
","
","
","""event"",""trial"",""time""
""fullscreenenter"",""1"",""1546""
","
",,,,,,,,,,,,"[{""stimulus"":""run_exp/static/images/task_images/dig.jpg"",""time"":0.29999998211860657},{""stimulus"":""run_exp/static/images/task_images/land.jpg"",""time"":681.5999999940395},{""stimulus"":""run_exp/static/images/task_images/dig.jpg"",""time"":1338.2999999821186}]",[],18,,,,,,,,,,,,,,
harvest,176,643521,0.0-45.0-4.0,"""event"",""trial"",""time""
""fullscreenenter"",""1"",""1546""
","
","
","""event"",""trial"",""time""
""fullscreenenter"",""1"",""1546""
","
",,null,run_exp/static/images/task_images/gems/105.jpg,null,,,,,,,26,,,18,,,,,105,0.252036738,0.247619048,,,,,,,
decision,177,645843,0.0-45.0-5.0,"""event"",""trial"",""time""
""fullscreenenter"",""1"",""1546""
","
","
","""event"",""trial"",""time""
""fullscreenenter"",""1"",""1546""
","
",,2319.1,run_exp/static/images/task_images/land.jpg,76,,,,,,,26,,,18,,,,,,,,29434,2,0,TRUE,,,
travel,178,653539,0.0-46.0-0.0,"""event"",""trial"",""time""
""fullscreenenter"",""1"",""1546""
","
","
","""event"",""trial"",""time""
""fullscreenenter"",""1"",""1546""
","
",,,,,,,,,,,,"[{""stimulus"":""run_exp/static/images/task_images/rocket-01.jpg"",""time"":0.09999999403953552},{""stimulus"":""run_exp/static/images/task_images/rocket-02.jpg"",""time"":859.6999999880791},{""stimulus"":""run_exp/static/images/task_images/rocket-03.jpg"",""time"":1723.5999999940395},{""stimulus"":""run_exp/static/images/task_images/rocket-04.jpg"",""time"":2567.4000000059605},{""stimulus"":""run_exp/static/images/task_images/rocket-05.jpg"",""time"":3418.699999988079},{""stimulus"":""run_exp/static/images/task_images/rocket-06.jpg"",""time"":4267.699999988079},{""stimulus"":""run_exp/static/images/task_images/rocket-07.jpg"",""time"":5127.5},{""stimulus"":""run_exp/static/images/task_images/rocket-08.jpg"",""time"":5978.0999999940395},{""stimulus"":""run_exp/static/images/task_images/rocket-09.jpg"",""time"":6839.5999999940395}]",[],18,,,,,,,,,,,,,,
alien_welcome,179,658558,0.0-46.0-1.0,"""event"",""trial"",""time""
""fullscreenenter"",""1"",""1546""
","
","
","""event"",""trial"",""time""
""fullscreenenter"",""1"",""1546""
","
",,null,run_exp/static/images/task_images/aliens/old_aliens/planet/alien_planet-69.jpg,null,,,,,,,,,,,,,69,"25,14,68,36,28,22,45,4,54,55,41,52,59,61,65,64,11,48,69,16,57,7,53,46,62,23,32,21,3,31,72,39,70,19,17,15,10,76,33,5,40,63,74,71,35,42,43,51,49,8,58,18,6,47,24,9,44,38,56,60,29,34,27,26,78,30,2",,,,,,,,,,
land,180,659072,0.0-46.0-2.0,"""event"",""trial"",""time""
""fullscreenenter"",""1"",""1546""
","
","
","""event"",""trial"",""time""
""fullscreenenter"",""1"",""1546""
","
",,null,run_exp/static/images/task_images/land.jpg,null,,,,,,,104,,,19,,,,,,,,,,,,,,
dig,181,661089,0.0-46.0-3.0,"""event"",""trial"",""time""
""fullscreenenter"",""1"",""1546""
","
","
","""event"",""trial"",""time""
""fullscreenenter"",""1"",""1546""
","
",,,,,,,,,,,,"[{""stimulus"":""run_exp/static/images/task_images/dig.jpg"",""time"":0.5},{""stimulus"":""run_exp/static/images/task_images/land.jpg"",""time"":687.3999999761581},{""stimulus"":""run_exp/static/images/task_images/dig.jpg"",""time"":1344.5999999940395}]",[],19,,,,,,,,,,,,,,
harvest,182,662099,0.0-46.0-4.0,"""event"",""trial"",""time""
""fullscreenenter"",""1"",""1546""
","
","
","""event"",""trial"",""time""
""fullscreenenter"",""1"",""1546""
","
",,null,run_exp/static/images/task_images/gems/104.jpg,null,,,,,,,27,,,19,,,,,104,0.262512615,0.259615385,,,,,,,
decision,183,662585,0.0-46.0-5.0,"""event"",""trial"",""time""
""fullscreenenter"",""1"",""1546""
","
","
","""event"",""trial"",""time""
""fullscreenenter"",""1"",""1546""
","
",,483.6,run_exp/static/images/task_images/land.jpg,76,,,,,,,27,,,19,,,,,,,,46176,2,0,TRUE,,,
travel,184,672114,0.0-47.0-0.0,"""event"",""trial"",""time""
""fullscreenenter"",""1"",""1546""
","
","
","""event"",""trial"",""time""
""fullscreenenter"",""1"",""1546""
","
",,,,,,,,,,,,"[{""stimulus"":""run_exp/static/images/task_images/rocket-01.jpg"",""time"":0.10000002384185791},{""stimulus"":""run_exp/static/images/task_images/rocket-02.jpg"",""time"":1062.2000000178814},{""stimulus"":""run_exp/static/images/task_images/rocket-03.jpg"",""time"":2130.800000011921},{""stimulus"":""run_exp/static/images/task_images/rocket-04.jpg"",""time"":3187.100000023842},{""stimulus"":""run_exp/static/images/task_images/rocket-05.jpg"",""time"":4245.9000000059605},{""stimulus"":""run_exp/static/images/task_images/rocket-06.jpg"",""time"":5303.300000011921},{""stimulus"":""run_exp/static/images/task_images/rocket-07.jpg"",""time"":6355.200000017881},{""stimulus"":""run_exp/static/images/task_images/rocket-08.jpg"",""time"":7412.4000000059605},{""stimulus"":""run_exp/static/images/task_images/rocket-09.jpg"",""time"":8467.300000011921}]",[],19,,,,,,,,,,,,,,
alien_welcome,185,677138,0.0-47.0-1.0,"""event"",""trial"",""time""
""fullscreenenter"",""1"",""1546""
","
","
","""event"",""trial"",""time""
""fullscreenenter"",""1"",""1546""
","
",,null,run_exp/static/images/task_images/aliens/old_aliens/planet/alien_planet-16.jpg,null,,,,,,,,,,,,,16,"25,14,68,36,28,22,45,4,54,55,41,52,59,61,65,64,11,48,69,16,57,7,53,46,62,23,32,21,3,31,72,39,70,19,17,15,10,76,33,5,40,63,74,71,35,42,43,51,49,8,58,18,6,47,24,9,44,38,56,60,29,34,27,26,78,30,2",,,,,,,,,,
land,186,677651,0.0-47.0-2.0,"""event"",""trial"",""time""
""fullscreenenter"",""1"",""1546""
","
","
","""event"",""trial"",""time""
""fullscreenenter"",""1"",""1546""
","
",,null,run_exp/static/images/task_images/land.jpg,null,,,,,,,108,,,20,,,,,,,,,,,,,,
dig,187,679666,0.0-47.0-3.0,"""event"",""trial"",""time""
""fullscreenenter"",""1"",""1546""
","
","
","""event"",""trial"",""time""
""fullscreenenter"",""1"",""1546""
","
",,,,,,,,,,,,"[{""stimulus"":""run_exp/static/images/task_images/dig.jpg"",""time"":0.5},{""stimulus"":""run_exp/static/images/task_images/land.jpg"",""time"":685.3000000119209},{""stimulus"":""run_exp/static/images/task_images/dig.jpg"",""time"":1342}]",[],20,,,,,,,,,,,,,,
harvest,188,680670,0.0-47.0-4.0,"""event"",""trial"",""time""
""fullscreenenter"",""1"",""1546""
","
","
","""event"",""trial"",""time""
""fullscreenenter"",""1"",""1546""
","
",,null,run_exp/static/images/task_images/gems/108.jpg,null,,,,,,,78,,,20,,,,,108,0.725964565,0.722222222,,,,,,,
decision,189,681793,0.0-47.0-5.0,"""event"",""trial"",""time""
""fullscreenenter"",""1"",""1546""
","
","
","""event"",""trial"",""time""
""fullscreenenter"",""1"",""1546""
","
",,1118.5,run_exp/static/images/task_images/land.jpg,76,,,,,,,78,,,20,,,,,,,,65384,2,0,TRUE,,,
travel,190,690686,0.0-48.0-0.0,"""event"",""trial"",""time""
""fullscreenenter"",""1"",""1546""
","
","
","""event"",""trial"",""time""
""fullscreenenter"",""1"",""1546""
","
",,,,,,,,,,,,"[{""stimulus"":""run_exp/static/images/task_images/rocket-01.jpg"",""time"":0.4000000059604645},{""stimulus"":""run_exp/static/images/task_images/rocket-02.jpg"",""time"":988.1999999880791},{""stimulus"":""run_exp/static/images/task_images/rocket-03.jpg"",""time"":1976.0999999940395},{""stimulus"":""run_exp/static/images/task_images/rocket-04.jpg"",""time"":2968.4000000059605},{""stimulus"":""run_exp/static/images/task_images/rocket-05.jpg"",""time"":3960.0999999940395},{""stimulus"":""run_exp/static/images/task_images/rocket-06.jpg"",""time"":4935.0999999940395},{""stimulus"":""run_exp/static/images/task_images/rocket-07.jpg"",""time"":5928},{""stimulus"":""run_exp/static/images/task_images/rocket-08.jpg"",""time"":6924},{""stimulus"":""run_exp/static/images/task_images/rocket-09.jpg"",""time"":7900.0999999940395}]",[],20,,,,,,,,,,,,,,
alien_welcome,191,695698,0.0-48.0-1.0,"""event"",""trial"",""time""
""fullscreenenter"",""1"",""1546""
","
","
","""event"",""trial"",""time""
""fullscreenenter"",""1"",""1546""
","
",,null,run_exp/static/images/task_images/aliens/old_aliens/planet/alien_planet-57.jpg,null,,,,,,,,,,,,,57,"25,14,68,36,28,22,45,4,54,55,41,52,59,61,65,64,11,48,69,16,57,7,53,46,62,23,32,21,3,31,72,39,70,19,17,15,10,76,33,5,40,63,74,71,35,42,43,51,49,8,58,18,6,47,24,9,44,38,56,60,29,34,27,26,78,30,2",,,,,,,,,,
land,192,696206,0.0-48.0-2.0,"""event"",""trial"",""time""
""fullscreenenter"",""1"",""1546""
","
","
","""event"",""trial"",""time""
""fullscreenenter"",""1"",""1546""
","
",,null,run_exp/static/images/task_images/land.jpg,null,,,,,,,95,,,21,,,,,,,,,,,,,,
dig,193,698226,0.0-48.0-3.0,"""event"",""trial"",""time""
""fullscreenenter"",""1"",""1546""
","
","
","""event"",""trial"",""time""
""fullscreenenter"",""1"",""1546""
","
",,,,,,,,,,,,"[{""stimulus"":""run_exp/static/images/task_images/dig.jpg"",""time"":0.5},{""stimulus"":""run_exp/static/images/task_images/land.jpg"",""time"":673.2000000178814},{""stimulus"":""run_exp/static/images/task_images/dig.jpg"",""time"":1341.4000000059605}]",[],21,,,,,,,,,,,,,,
harvest,194,699234,0.0-48.0-4.0,"""event"",""trial"",""time""
""fullscreenenter"",""1"",""1546""
","
","
","""event"",""trial"",""time""
""fullscreenenter"",""1"",""1546""
","
",,null,run_exp/static/images/task_images/gems/95.jpg,null,,,,,,,81,,,21,,,,,95,0.855641963,0.852631579,,,,,,,
decision,195,699835,0.0-48.0-5.0,"""event"",""trial"",""time""
""fullscreenenter"",""1"",""1546""
","
","
","""event"",""trial"",""time""
""fullscreenenter"",""1"",""1546""
","
",,597.3,run_exp/static/images/task_images/land.jpg,76,,,,,,,81,,,21,,,,,,,,83426,2,0,TRUE,,,
travel,196,709245,0.0-49.0-0.0,"""event"",""trial"",""time""
""fullscreenenter"",""1"",""1546""
","
","
","""event"",""trial"",""time""
""fullscreenenter"",""1"",""1546""
","
",,,,,,,,,,,,"[{""stimulus"":""run_exp/static/images/task_images/rocket-01.jpg"",""time"":0.19999998807907104},{""stimulus"":""run_exp/static/images/task_images/rocket-02.jpg"",""time"":1054.699999988079},{""stimulus"":""run_exp/static/images/task_images/rocket-03.jpg"",""time"":2098.5},{""stimulus"":""run_exp/static/images/task_images/rocket-04.jpg"",""time"":3134.199999988079},{""stimulus"":""run_exp/static/images/task_images/rocket-05.jpg"",""time"":4194.5999999940395},{""stimulus"":""run_exp/static/images/task_images/rocket-06.jpg"",""time"":5230.4000000059605},{""stimulus"":""run_exp/static/images/task_images/rocket-07.jpg"",""time"":6274.4000000059605},{""stimulus"":""run_exp/static/images/task_images/rocket-08.jpg"",""time"":7311},{""stimulus"":""run_exp/static/images/task_images/rocket-09.jpg"",""time"":8366.699999988079}]",[],21,,,,,,,,,,,,,,
alien_welcome,197,714257,0.0-49.0-1.0,"""event"",""trial"",""time""
""fullscreenenter"",""1"",""1546""
","
","
","""event"",""trial"",""time""
""fullscreenenter"",""1"",""1546""
","
",,null,run_exp/static/images/task_images/aliens/old_aliens/planet/alien_planet-7.jpg,null,,,,,,,,,,,,,7,"25,14,68,36,28,22,45,4,54,55,41,52,59,61,65,64,11,48,69,16,57,7,53,46,62,23,32,21,3,31,72,39,70,19,17,15,10,76,33,5,40,63,74,71,35,42,43,51,49,8,58,18,6,47,24,9,44,38,56,60,29,34,27,26,78,30,2",,,,,,,,,,
land,198,714767,0.0-49.0-2.0,"""event"",""trial"",""time""
""fullscreenenter"",""1"",""1546""
","
","
","""event"",""trial"",""time""
""fullscreenenter"",""1"",""1546""
","
",,null,run_exp/static/images/task_images/land.jpg,null,,,,,,,92,,,22,,,,,,,,,,,,,,
dig,199,716785,0.0-49.0-3.0,"""event"",""trial"",""time""
""fullscreenenter"",""1"",""1546""
","
","
","""event"",""trial"",""time""
""fullscreenenter"",""1"",""1546""
","
",,,,,,,,,,,,"[{""stimulus"":""run_exp/static/images/task_images/dig.jpg"",""time"":0.3999999761581421},{""stimulus"":""run_exp/static/images/task_images/land.jpg"",""time"":686.1999999880791},{""stimulus"":""run_exp/static/images/task_images/dig.jpg"",""time"":1342.199999988079}]",[],22,,,,,,,,,,,,,,
harvest,200,717789,0.0-49.0-4.0,"""event"",""trial"",""time""
""fullscreenenter"",""1"",""1546""
","
","
","""event"",""trial"",""time""
""fullscreenenter"",""1"",""1546""
","
",,null,run_exp/static/images/task_images/gems/92.jpg,null,,,,,,,73,,,22,,,,,92,0.797937542,0.793478261,,,,,,,
decision,201,718491,0.0-49.0-5.0,"""event"",""trial"",""time""
""fullscreenenter"",""1"",""1546""
","
","
","""event"",""trial"",""time""
""fullscreenenter"",""1"",""1546""
","
",,699.4,run_exp/static/images/task_images/land.jpg,76,,,,,,,73,,,22,,,,,,,,102082,2,0,TRUE,,,
travel,202,727805,0.0-50.0-0.0,"""event"",""trial"",""time""
""fullscreenenter"",""1"",""1546""
","
","
","""event"",""trial"",""time""
""fullscreenenter"",""1"",""1546""
","
",,,,,,,,,,,,"[{""stimulus"":""run_exp/static/images/task_images/rocket-01.jpg"",""time"":0.30000001192092896},{""stimulus"":""run_exp/static/images/task_images/rocket-02.jpg"",""time"":1037.5},{""stimulus"":""run_exp/static/images/task_images/rocket-03.jpg"",""time"":2081.4000000059605},{""stimulus"":""run_exp/static/images/task_images/rocket-04.jpg"",""time"":3121},{""stimulus"":""run_exp/static/images/task_images/rocket-05.jpg"",""time"":4145.4000000059605},{""stimulus"":""run_exp/static/images/task_images/rocket-06.jpg"",""time"":5185.300000011921},{""stimulus"":""run_exp/static/images/task_images/rocket-07.jpg"",""time"":6204.300000011921},{""stimulus"":""run_exp/static/images/task_images/rocket-08.jpg"",""time"":7249.300000011921},{""stimulus"":""run_exp/static/images/task_images/rocket-09.jpg"",""time"":8269.40000000596}]",[],22,,,,,,,,,,,,,,
alien_welcome,203,732817,0.0-50.0-1.0,"""event"",""trial"",""time""
""fullscreenenter"",""1"",""1546""
","
","
","""event"",""trial"",""time""
""fullscreenenter"",""1"",""1546""
","
",,null,run_exp/static/images/task_images/aliens/old_aliens/planet/alien_planet-53.jpg,null,,,,,,,,,,,,,53,"25,14,68,36,28,22,45,4,54,55,41,52,59,61,65,64,11,48,69,16,57,7,53,46,62,23,32,21,3,31,72,39,70,19,17,15,10,76,33,5,40,63,74,71,35,42,43,51,49,8,58,18,6,47,24,9,44,38,56,60,29,34,27,26,78,30,2",,,,,,,,,,
land,204,733326,0.0-50.0-2.0,"""event"",""trial"",""time""
""fullscreenenter"",""1"",""1546""
","
","
","""event"",""trial"",""time""
""fullscreenenter"",""1"",""1546""
","
",,null,run_exp/static/images/task_images/land.jpg,null,,,,,,,106,,,23,,,,,,,,,,,,,,
dig,205,735340,0.0-50.0-3.0,"""event"",""trial"",""time""
""fullscreenenter"",""1"",""1546""
","
","
","""event"",""trial"",""time""
""fullscreenenter"",""1"",""1546""
","
",,,,,,,,,,,,"[{""stimulus"":""run_exp/static/images/task_images/dig.jpg"",""time"":0.4000000059604645},{""stimulus"":""run_exp/static/images/task_images/land.jpg"",""time"":688.9000000059605},{""stimulus"":""run_exp/static/images/task_images/dig.jpg"",""time"":1344.9000000059605}]",[],23,,,,,,,,,,,,,,
harvest,206,736353,0.0-50.0-4.0,"""event"",""trial"",""time""
""fullscreenenter"",""1"",""1546""
","
","
","""event"",""trial"",""time""
""fullscreenenter"",""1"",""1546""
","
",,null,run_exp/static/images/task_images/gems/106.jpg,null,,,,,,,85,,,23,,,,,106,0.80041476,0.801886792,,,,,,,
decision,207,737023,0.0-50.0-5.0,"""event"",""trial"",""time""
""fullscreenenter"",""1"",""1546""
","
","
","""event"",""trial"",""time""
""fullscreenenter"",""1"",""1546""
","
",,667.5,run_exp/static/images/task_images/land.jpg,76,,,,,,,85,,,23,,,,,,,,120614,2,0,TRUE,,,
travel,208,746368,0.0-51.0-0.0,"""event"",""trial"",""time""
""fullscreenenter"",""1"",""1546""
","
","
","""event"",""trial"",""time""
""fullscreenenter"",""1"",""1546""
","
",,,,,,,,,,,,"[{""stimulus"":""run_exp/static/images/task_images/rocket-01.jpg"",""time"":0.19999998807907104},{""stimulus"":""run_exp/static/images/task_images/rocket-02.jpg"",""time"":1051},{""stimulus"":""run_exp/static/images/task_images/rocket-03.jpg"",""time"":2087.199999988079},{""stimulus"":""run_exp/static/images/task_images/rocket-04.jpg"",""time"":3114.0999999940395},{""stimulus"":""run_exp/static/images/task_images/rocket-05.jpg"",""time"":4153.299999982119},{""stimulus"":""run_exp/static/images/task_images/rocket-06.jpg"",""time"":5195.5999999940395},{""stimulus"":""run_exp/static/images/task_images/rocket-07.jpg"",""time"":6235.5999999940395},{""stimulus"":""run_exp/static/images/task_images/rocket-08.jpg"",""time"":7258.0999999940395},{""stimulus"":""run_exp/static/images/task_images/rocket-09.jpg"",""time"":8299.59999999404}]",[],23,,,,,,,,,,,,,,
alien_welcome,209,751388,0.0-51.0-1.0,"""event"",""trial"",""time""
""fullscreenenter"",""1"",""1546""
","
","
","""event"",""trial"",""time""
""fullscreenenter"",""1"",""1546""
","
",,null,run_exp/static/images/task_images/aliens/old_aliens/planet/alien_planet-46.jpg,null,,,,,,,,,,,,,46,"25,14,68,36,28,22,45,4,54,55,41,52,59,61,65,64,11,48,69,16,57,7,53,46,62,23,32,21,3,31,72,39,70,19,17,15,10,76,33,5,40,63,74,71,35,42,43,51,49,8,58,18,6,47,24,9,44,38,56,60,29,34,27,26,78,30,2",,,,,,,,,,
land,210,751901,0.0-51.0-2.0,"""event"",""trial"",""time""
""fullscreenenter"",""1"",""1546""
","
","
","""event"",""trial"",""time""
""fullscreenenter"",""1"",""1546""
","
",,null,run_exp/static/images/task_images/land.jpg,null,,,,,,,97,,,24,,,,,,,,,,,,,,
dig,211,753917,0.0-51.0-3.0,"""event"",""trial"",""time""
""fullscreenenter"",""1"",""1546""
","
","
","""event"",""trial"",""time""
""fullscreenenter"",""1"",""1546""
","
",,,,,,,,,,,,"[{""stimulus"":""run_exp/static/images/task_images/dig.jpg"",""time"":0.7000000178813934},{""stimulus"":""run_exp/static/images/task_images/land.jpg"",""time"":684.9000000059605},{""stimulus"":""run_exp/static/images/task_images/dig.jpg"",""time"":1345}]",[],24,,,,,,,,,,,,,,
harvest,212,754924,0.0-51.0-4.0,"""event"",""trial"",""time""
""fullscreenenter"",""1"",""1546""
","
","
","""event"",""trial"",""time""
""fullscreenenter"",""1"",""1546""
","
",,null,run_exp/static/images/task_images/gems/97.jpg,null,,,,,,,79,,,24,,,,,97,0.815074447,0.81443299,,,,,,,
decision,213,755286,0.0-51.0-5.0,"""event"",""trial"",""time""
""fullscreenenter"",""1"",""1546""
","
","
","""event"",""trial"",""time""
""fullscreenenter"",""1"",""1546""
","
",,359.7,run_exp/static/images/task_images/land.jpg,76,,,,,,,79,,,24,,,,,,,,138877,2,0,TRUE,,,
travel,214,764940,0.0-52.0-0.0,"""event"",""trial"",""time""
""fullscreenenter"",""1"",""1546""
","
","
","""event"",""trial"",""time""
""fullscreenenter"",""1"",""1546""
","
",,,,,,,,,,,,"[{""stimulus"":""run_exp/static/images/task_images/rocket-01.jpg"",""time"":0.29999998211860657},{""stimulus"":""run_exp/static/images/task_images/rocket-02.jpg"",""time"":1093.2999999821186},{""stimulus"":""run_exp/static/images/task_images/rocket-03.jpg"",""time"":2146.2999999821186},{""stimulus"":""run_exp/static/images/task_images/rocket-04.jpg"",""time"":3217.199999988079},{""stimulus"":""run_exp/static/images/task_images/rocket-05.jpg"",""time"":4291.0999999940395},{""stimulus"":""run_exp/static/images/task_images/rocket-06.jpg"",""time"":5361.199999988079},{""stimulus"":""run_exp/static/images/task_images/rocket-07.jpg"",""time"":6434.299999982119},{""stimulus"":""run_exp/static/images/task_images/rocket-08.jpg"",""time"":7506.399999976158},{""stimulus"":""run_exp/static/images/task_images/rocket-09.jpg"",""time"":8581}]",[],24,,,,,,,,,,,,,,
alien_welcome,215,769948,0.0-52.0-1.0,"""event"",""trial"",""time""
""fullscreenenter"",""1"",""1546""
","
","
","""event"",""trial"",""time""
""fullscreenenter"",""1"",""1546""
","
