trial_type,trial_index,time_elapsed,internal_node_id,success,rt,stimulus,key_press,prompt,subject_id,age,gender,button_pressed,next_reward,animation_sequence,responses,planet,curr_prac_trial,n_prac_rounds,alien,aliens,reward_received,decay_rate_actual,decay_rate_exp,time_in_block,block_num,prt,last_trial_on_planet,button_html,bonus,num_failures
pavlovia,0,3,0.0-0.0,,,,,,,,,,,,,,,,,,,,,,,,,,,
fullscreen,1,6026,0.0-1.0,TRUE,,,,,,,,,,,,,,,,,,,,,,,,,,
instruc_welcome,2,15874,0.0-2.0,,null,run_exp/static/audio/clip_1_welcome.m4a,null,"<p>Howdy! In this experiment, you’ll be an explorer traveling through space to collect space treasure.</p><p>Your mission is to collect as much treasure as possible.</p><br><br><p><img src='run_exp/static/images/task_images/opening_img-01.jpg' height='300' width='auto'></p>",iXR9bQJuhUcwZ3v_a5Ke5UddwllDBGZ_MLRP_b3pvVzHFZgeIYjY,9.08,female,,,,,,,,,,,,,,,,,,,
audio-keyboard-response,3,32451,0.0-3.0,,null,run_exp/static/audio/clip_2_move.m4a,null,,,,,,,,,,,,,,,,,,,,,,,
welcome_dec,4,38546,0.0-4.0,,6092.855,"<p>Howdy! In this experiment, you’ll be an explorer traveling through space to collect space treasure.</p><p>Your mission is to collect as much treasure as possible.</p><br><br><p><img src='run_exp/static/images/task_images/opening_img-01.jpg' height='300' width='auto'></p>",,,,,,1,,,,,,,,,,,,,,,,,,
html-keyboard-response,5,40248,0.0-5.0,,1699.43,"<p>Howdy! In this experiment, you’ll be an explorer traveling through space to collect space treasure.</p><p>Your mission is to collect as much treasure as possible.</p><br><br><p><img src='run_exp/static/images/task_images/opening_img-01.jpg' height='300' width='auto'></p><button class=""jspsych-html-btn-unchosen""><img src=""run_exp/static/images/task_images/planet-01.jpg"" height=""50""></button><button class=""jspsych-html-btn-chosen""><img src=""run_exp/static/images/task_images/planet-02.jpg"" height=""50""></button><p><b>[press the space bar to lock in your answer]<b><br></p>",32,,,,,,,,,,,,,,,,,,,,,,,
instruc_goal,6,50307,0.0-6.0-0.0,,null,run_exp/static/audio/clip_3_goal.m4a,null,"<p> As a space explorer, you’ll visit different planets to dig for space treasure, these pink gems.</p> <p> The more treasure you dig up, the more bonus money you’ll win! </p><br><br><p><img src='run_exp/static/images/task_images/pink_gem.jpg' height='300' width='auto'></p>",,,,,,,,,,,,,,,,,,,,,,
instruc_goal,7,54255,0.0-6.0-1.0,,3946.52,"<p> As a space explorer, you’ll visit different planets to dig for space treasure, these pink gems.</p> <p> The more treasure you dig up, the more bonus money you’ll win! </p><br><br><p><img src='run_exp/static/images/task_images/pink_gem.jpg' height='300' width='auto'></p>",,,,,,1,,,,,,,,,,,,,,,,,,
html-keyboard-response,8,55086,0.0-6.0-2.0,,828.94,"<p> As a space explorer, you’ll visit different planets to dig for space treasure, these pink gems.</p> <p> The more treasure you dig up, the more bonus money you’ll win! </p><br><br><p><img src='run_exp/static/images/task_images/pink_gem.jpg' height='300' width='auto'></p><button class=""jspsych-html-btn-unchosen""><img src=""run_exp/static/images/task_images/planet-01.jpg"" height=""50""></button><button class=""jspsych-html-btn-chosen""><img src=""run_exp/static/images/task_images/planet-02.jpg"" height=""50""></button><p><b>[press the space bar to lock in your answer]<b><br></p>",32,,,,,,,,,,,,,,,,,,,,,,,
instruc_dig,9,71111,0.0-7.0-0.0,,null,run_exp/static/audio/clip_4_dig.m4a,null,,,,,,100,,,,,,,,,,,,,,,,,
instruc_dig_try,10,71743,0.0-7.0-1.0,,630.3350001,"<p> When you’ve arrived at a new planet, you will dig once. </p> <p>Then, you get to decide if you want to stay on the planet and dig again or travel to a new planet and dig there.</p> <p> To stay and dig, press the letter <strong>‘A’</strong> on your keyboard. Try pressing it now! </p><p><img src='run_exp/static/images/task_images/land.jpg'  height='700' width='auto'></p>",65,"<p> When you’ve arrived at a new planet, you will dig once. </p> <p>Then, you get to decide if you want to stay on the planet and dig again or travel to a new planet and dig there.</p> <p> To stay and dig, press the letter <strong>‘A’</strong> on your keyboard. Try pressing it now! </p><p><img src='run_exp/static/images/task_images/land.jpg'  height='700' width='auto'></p>",,,,,100,,,,,,,,,,,,,,,,,
dig_prac,11,73755,0.0-7.0-2.0,,,,,,,,,,,"[{""stimulus"":""run_exp/static/images/task_images/dig.jpg"",""time"":0.2799999783746898},{""stimulus"":""run_exp/static/images/task_images/land.jpg"",""time"":673.320000001695},{""stimulus"":""run_exp/static/images/task_images/dig.jpg"",""time"":1340.0350000010803}]",[],,,,,,,,,,,,,,,
instruc_travel,12,109980,0.0-7.0-3.0,,null,run_exp/static/audio/clip_5_travel.m4a,null,"<p>Every time you dig up gems, there are less gems on the planet, so the more you dig on a planet the fewer gems you’ll get with each dig.</p><p>When gems are running low, you may want to travel to a new planet. </p> <p>  Planets are very far apart in this galaxy, so it will take some time to travel between them. </p> <br><p>There are lots and lots of planets for you to visit, so you won’t be able to return to any planets you’ve seen before. </p><br><p>To leave this planet and travel to a new one, press the letter <strong>‘L’</strong> on your keyboard. Try pressing it now! </p><p><img src='run_exp/static/images/task_images/rocket-01.jpg'  height='600' width='auto'></p>",,,,,,,,,,,,,,,,,,,,,,
instruc_travel_try,13,114584,0.0-7.0-4.0,,4603.15,"<p>Every time you dig up gems, there are less gems on the planet, so the more you dig on a planet the fewer gems you’ll get with each dig.</p><p>When gems are running low, you may want to travel to a new planet. </p> <p>  Planets are very far apart in this galaxy, so it will take some time to travel between them. </p> <br><p>There are lots and lots of planets for you to visit, so you won’t be able to return to any planets you’ve seen before. </p><br><p>To leave this planet and travel to a new one, press the letter <strong>‘L’</strong> on your keyboard. Try pressing it now! </p><p><img src='run_exp/static/images/task_images/rocket-01.jpg'  height='600' width='auto'></p>",76,"<p>Every time you dig up gems, there are less gems on the planet, so the more you dig on a planet the fewer gems you’ll get with each dig.</p><p>When gems are running low, you may want to travel to a new planet. </p> <p>  Planets are very far apart in this galaxy, so it will take some time to travel between them. </p> <br><p>There are lots and lots of planets for you to visit, so you won’t be able to return to any planets you’ve seen before. </p><br><p>To leave this planet and travel to a new one, press the letter <strong>‘L’</strong> on your keyboard. Try pressing it now! </p><p><img src='run_exp/static/images/task_images/rocket-01.jpg'  height='600' width='auto'></p>",,,,,,,,,,,,,,,,,,,,,,
travel_prac,14,124589,0.0-7.0-5.0,,,,,,,,,,,"[{""stimulus"":""run_exp/static/images/task_images/rocket-01.jpg"",""time"":0.20000000949949026},{""stimulus"":""run_exp/static/images/task_images/rocket-02.jpg"",""time"":1117.1500000054948},{""stimulus"":""run_exp/static/images/task_images/rocket-03.jpg"",""time"":2228.1000000075437},{""stimulus"":""run_exp/static/images/task_images/rocket-04.jpg"",""time"":3335.1799999945797},{""stimulus"":""run_exp/static/images/task_images/rocket-05.jpg"",""time"":4449.855000013486},{""stimulus"":""run_exp/static/images/task_images/rocket-06.jpg"",""time"":5561.140000005253},{""stimulus"":""run_exp/static/images/task_images/rocket-07.jpg"",""time"":6672.084999969229},{""stimulus"":""run_exp/static/images/task_images/rocket-08.jpg"",""time"":7778.264999971725},{""stimulus"":""run_exp/static/images/task_images/rocket-09.jpg"",""time"":8894.109999993816}]",[],0,,,,,,,,,,,,,,
instruc_alien_greet,15,151775,0.0-7.0-6.0,,null,run_exp/static/audio/clip_6_alien.m4a,null,"<p>When you arrive at a new planet, the alien who owns the treasure mine on that planet will greet you!</p><p>The better an alien takes care of their mine the easier it is to dig for gems. Some aliens take better care of their mine than others. So, you won’t get exactly the same amount of gems on each planet.</p><p>What the alien looks like does not tell you anything about how many gems there are on the planet.</p><br><p><img src=""run_exp/static/images/task_images/aliens/instructions_aliens/planet/alien_planet-1.jpg""  height=""600"" width=""auto""></p>",,,,,,,,,,,,,,,,,,,,,,
instruc_alien_greet,16,154650,0.0-7.0-7.0,,2874.025,"<p>When you arrive at a new planet, the alien who owns the treasure mine on that planet will greet you!</p><p>The better an alien takes care of their mine the easier it is to dig for gems. Some aliens take better care of their mine than others. So, you won’t get exactly the same amount of gems on each planet.</p><p>What the alien looks like does not tell you anything about how many gems there are on the planet.</p><br><p><img src=""run_exp/static/images/task_images/aliens/instructions_aliens/planet/alien_planet-1.jpg""  height=""600"" width=""auto""></p>",,,,,,1,,,,,,,,,,,,,,,,,,
html-keyboard-response,17,155022,0.0-7.0-8.0,,370.235,"<p>When you arrive at a new planet, the alien who owns the treasure mine on that planet will greet you!</p><p>The better an alien takes care of their mine the easier it is to dig for gems. Some aliens take better care of their mine than others. So, you won’t get exactly the same amount of gems on each planet.</p><p>What the alien looks like does not tell you anything about how many gems there are on the planet.</p><br><p><img src=""run_exp/static/images/task_images/aliens/instructions_aliens/planet/alien_planet-1.jpg""  height=""600"" width=""auto""></p><button class=""jspsych-html-btn-unchosen""><img src=""run_exp/static/images/task_images/planet-01.jpg"" height=""50""></button><button class=""jspsych-html-btn-chosen""><img src=""run_exp/static/images/task_images/planet-02.jpg"" height=""50""></button><p><b>[press the space bar to lock in your answer]<b><br></p>",32,,,,,,,,,,,,,,,,,,,,,,,
time_out,18,166101,0.0-8.0-0.0,,null,run_exp/static/audio/clip_7_timeout.m4a,null,"<p>If you don't make your choice fast enough, you’ll have to wait a few seconds before you can make another one.</p><p>You can’t dig for more gems or travel to new planets. You just have to sit and wait.</p><br><p><img src='run_exp/static/images/task_images/time_out.jpg'  height='600' width='auto'></p>",,,,,,,,,,,,,,,,,,,,,,
time_out,19,168034,0.0-8.0-1.0,,1931.28,"<p>If you don't make your choice fast enough, you’ll have to wait a few seconds before you can make another one.</p><p>You can’t dig for more gems or travel to new planets. You just have to sit and wait.</p><br><p><img src='run_exp/static/images/task_images/time_out.jpg'  height='600' width='auto'></p>",,,,,,1,,,,,,,,,,,,,,,,,,
html-keyboard-response,20,168874,0.0-8.0-2.0,,838.97,"<p>If you don't make your choice fast enough, you’ll have to wait a few seconds before you can make another one.</p><p>You can’t dig for more gems or travel to new planets. You just have to sit and wait.</p><br><p><img src='run_exp/static/images/task_images/time_out.jpg'  height='600' width='auto'></p><button class=""jspsych-html-btn-unchosen""><img src=""run_exp/static/images/task_images/planet-01.jpg"" height=""50""></button><button class=""jspsych-html-btn-chosen""><img src=""run_exp/static/images/task_images/planet-02.jpg"" height=""50""></button><p><b>[press the space bar to lock in your answer]<b><br></p>",32,,,,,,,,,,,,,,,,,,,,,,,
instruc_break,21,184560,0.0-9.0-0.0,,null,run_exp/static/audio/clip_8_break.m4a,null,"<p> After digging and traveling for a while, you’ll be able to take a break at home base. </p><p>The game will last 20 minutes no matter what.</p><p>You will visit home base every 5 minutes, so, you will visit home base three times during the game.</p><br><p><img src='run_exp/static/images/task_images/home_base.jpg' height='600' width='auto'></p>",,,,,,,,,,,,,,,,,,,,,,
instruc_break,22,186968,0.0-9.0-1.0,,2406.4,"<p> After digging and traveling for a while, you’ll be able to take a break at home base. </p><p>The game will last 20 minutes no matter what.</p><p>You will visit home base every 5 minutes, so, you will visit home base three times during the game.</p><br><p><img src='run_exp/static/images/task_images/home_base.jpg' height='600' width='auto'></p>",,,,,,1,,,,,,,,,,,,,,,,,,
html-keyboard-response,23,187742,0.0-9.0-2.0,,772.25,"<p> After digging and traveling for a while, you’ll be able to take a break at home base. </p><p>The game will last 20 minutes no matter what.</p><p>You will visit home base every 5 minutes, so, you will visit home base three times during the game.</p><br><p><img src='run_exp/static/images/task_images/home_base.jpg' height='600' width='auto'></p><button class=""jspsych-html-btn-unchosen""><img src=""run_exp/static/images/task_images/planet-01.jpg"" height=""50""></button><button class=""jspsych-html-btn-chosen""><img src=""run_exp/static/images/task_images/planet-02.jpg"" height=""50""></button><p><b>[press the space bar to lock in your answer]<b><br></p>",32,,,,,,,,,,,,,,,,,,,,,,,
instruc_prac_game,24,197864,0.0-10.0-0.0,,null,run_exp/static/audio/clip_9_practice.m4a,null,"<p> Are you ready to play a practice game? </p> <p>In this practice game, you'll be digging up barrels of gems. But, in the real game, you'll be digging up the gems themselves. </p>",,,,,,,,,,,,,,,,,,,,,,
html-button-response,25,199891,0.0-10.0-1.0,,2025.505,"<p> Are you ready to play a practice game? </p> <p>In this practice game, you'll be digging up barrels of gems. But, in the real game, you'll be digging up the gems themselves. </p>",,,,,,0,,,,,,,,,,,,,,,,,,
alien_welcome_prac,26,204895,0.0-11.0-0.0,,null,run_exp/static/images/task_images/aliens/practice_aliens/planet/alien_planet-5.jpg,null,,,,,,,,,,,,,,,,,,,,,,,
land_prac,27,205397,0.0-11.0-1.0,,null,run_exp/static/images/task_images/land.jpg,null,,,,,,98,,,0,,,,,,,,,,,,,,
dig_prac,28,207406,0.0-11.0-2.0,,,,,,,,,,,"[{""stimulus"":""run_exp/static/images/task_images/dig.jpg"",""time"":0.26000000070780516},{""stimulus"":""run_exp/static/images/task_images/land.jpg"",""time"":673.2100000372157},{""stimulus"":""run_exp/static/images/task_images/dig.jpg"",""time"":1335.1949999923818}]",[],,,,,,,,,,,,,,,
harvest_prac,29,208412,0.0-11.0-3.0,,null,run_exp/static/images/task_images/barrel_text.jpg,null,,,,,,,,,,,,,,,,,,,,,,,
decision_prac,30,211417,0.0-11.0-4.0,,null,run_exp/static/images/task_images/land.jpg,null,,,,,,,,,,1,,,,,,,,,,,,,
time_out,31,213421,0.0-12.0-0.0,,null,run_exp/static/images/task_images/time_out.jpg,null,,,,,,,,,,,,,,,,,,,,,,,
decision_prac,32,215018,0.0-12.0-1.0,,1596.185,run_exp/static/images/task_images/land.jpg,65,,,,,,,,,,2,,,,,,,,,,,,,
dig_prac,33,217026,0.0-13.0-0.0,,,,,,,,,,,"[{""stimulus"":""run_exp/static/images/task_images/dig.jpg"",""time"":0.14000001829117537},{""stimulus"":""run_exp/static/images/task_images/land.jpg"",""time"":673.015000007581},{""stimulus"":""run_exp/static/images/task_images/dig.jpg"",""time"":1340.024999983143}]",[],,,,,,,,,,,,,,,
harvest_prac,34,218029,0.0-13.0-1.0,,null,run_exp/static/images/task_images/barrel_text.jpg,null,,,,,,,,,,,,,,,,,,,,,,,
decision_prac,35,220078,0.0-13.0-2.0,,2048.09,run_exp/static/images/task_images/land.jpg,65,,,,,,,,,,3,,,,,,,,,,,,,
dig_prac,36,222086,0.0-14.0-0.0,,,,,,,,,,,"[{""stimulus"":""run_exp/static/images/task_images/dig.jpg"",""time"":0.16499997582286596},{""stimulus"":""run_exp/static/images/task_images/land.jpg"",""time"":673.0749999987893},{""stimulus"":""run_exp/static/images/task_images/dig.jpg"",""time"":1340.1099999900907}]",[],,,,,,,,,,,,,,,
harvest_prac,37,223089,0.0-14.0-1.0,,null,run_exp/static/images/task_images/barrel_text.jpg,null,,,,,,,,,,,,,,,,,,,,,,,
decision_prac,38,223737,0.0-14.0-2.0,,647.365,run_exp/static/images/task_images/land.jpg,65,,,,,,,,,,4,,,,,,,,,,,,,
dig_prac,39,225745,0.0-15.0-0.0,,,,,,,,,,,"[{""stimulus"":""run_exp/static/images/task_images/dig.jpg"",""time"":0.14000001829117537},{""stimulus"":""run_exp/static/images/task_images/land.jpg"",""time"":672.6299999863841},{""stimulus"":""run_exp/static/images/task_images/dig.jpg"",""time"":1337.6600000192411}]",[],,,,,,,,,,,,,,,
harvest_prac,40,226750,0.0-15.0-1.0,,null,run_exp/static/images/task_images/barrel_text.jpg,null,,,,,,,,,,,,,,,,,,,,,,,
decision_prac,41,227630,0.0-15.0-2.0,,878.835,run_exp/static/images/task_images/land.jpg,65,,,,,,,,,,,1,,,,,,,,,,,,
quiz_instruc,42,238472,0.0-16.0-0.0,,10839.565,run_exp/static/audio/clip_10_quiz.m4a,,,,,,0,,,,,,,,,,,,,,,,,,
instruc_repeat,43,281244,0.0-16.0-1.0,,null,"<p> Are you ready to play a practice game? </p> <p>In this practice game, you'll be digging up barrels of gems. But, in the real game, you'll be digging up the gems themselves. </p>",null,"<p>In this game, your goal is to collect as many gems as you can. That’s how you will win bonus money. </p> <p>The entire game will last 20 minutes no matter how many gems you collect or how many planets you visit. </p><p>To stay on a planet and dig again, press the letter A on your keyboard. To leave for a new planet, press the letter L.</p><p>The more you dig on a planet, the fewer gems you’ll get with each dig which is why you might consider leaving for a new planet. </p><p>When you arrive at a new planet, you’ll be greeted by an alien. What the alien looks like does not tell you anything about how much treasure is on the planet. </p>",,,,,,,,,,,,,,,,,,,,,,
instruc_repeat_continue,44,284494,0.0-16.0-2.0,,3248.715,"<p> Are you ready to play a practice game? </p> <p>In this practice game, you'll be digging up barrels of gems. But, in the real game, you'll be digging up the gems themselves. </p>",,,,,,0,,,,,,,,,,,,,,,,,,
quiz_q_1_ask,45,295215,0.0-16.0-3.0,,10719.175,run_exp/static/audio/clip_11_q1_ask.m4a,,,,,,2,,,,,,,,,,,,,,,,,,
quiz_q_1_fb_correct,46,299077,0.0-17.0-0.0,,null,run_exp/static/audio/clip_12_q1_corrrect.m4a,null,<p>That’s correct. You win extra money by collecting more gems.</p>,,,,,,,,,,,,,,,,,,,,,,
quiz_q_2_ask,47,311042,0.0-17.0-1.0,,11964.435,run_exp/static/audio/clip_14_q2_ask.m4a,,,,,,1,,,,,,,,,,,,,,,,,,
quiz_q_2_fb_correct,48,315028,0.0-18.0-0.0,,null,run_exp/static/audio/clip_15_q2_correct.m4a,null,<p>That’s correct. The experiment is 20 minutes no matter what.</p>,,,,,,,,,,,,,,,,,,,,,,
quiz_q_3_ask,49,327424,0.0-18.0-1.0,,12395.325,run_exp/static/audio/clip_17_q3_ask.m4a,,,,,,1,,,,,,,,,,,,,,,,,,
quiz_q_3_fb_correct,50,331398,0.0-19.0-0.0,,null,run_exp/static/audio/clip_18_q3_correct.m4a,null,<p> That’s correct. You press the letter L to travel to a new planet.</p>,,,,,,,,,,,,,,,,,,,,,,
quiz_q_4_ask,51,335415,0.0-19.0-1.0,,4016.335,run_exp/static/audio/clip_20_q4_ask.m4a,,,,,,0,,,,,,,,,,,,,,,,,,
quiz_q_4_fb_correct,52,340732,0.0-20.0-0.0,,null,run_exp/static/audio/clip_21_q4_correct.m4a,null,<p> That’s correct. The more you dig on a planet the fewer gems you’ll get with each dig. </p>,,,,,,,,,,,,,,,,,,,,,,
quiz_q_5_ask,53,343448,0.0-20.0-1.0,,2714.785,run_exp/static/audio/clip_23_q5_ask.m4a,,,,,,1,,,,,,,,,,,,,,,,,,
quiz_q_5_fb_correct,54,348440,0.0-21.0-0.0,,null,run_exp/static/audio/clip_24_q5_correct.m4a,null,<p> That’s correct. The alien tells you nothing about how much treasure is on the planet.</p>,,,,,,,,,,,,,,,,,,,,,,
quiz_correct,55,351900,0.0-22.0-0.0,,null,run_exp/static/audio/clip_26_correct_quiz.m4a,null,,,,,,,,,,,,,,,,,,,,,,,
quiz_correct_continue,56,354083,0.0-22.0-1.0,,2181.105,<p>Good job! You're now ready to move on to the real game!</p>,,,,,,0,,,,,,,,,,,,,,,,,,
audio-keyboard-response,57,364206,0.0-22.0-2.0,,null,run_exp/static/audio/clip_28_real_game.m4a,null,,,,,,,,,,,,,,,,,,,,,,,
instruc_begin_exp_contine,58,366425,0.0-22.0-3.0,,2217.735,"<p>Now that you know how  to dig for space treasure and travel to new planets,you can start exploring! </p><p>Do you want to go over the instructions again or get started with the real game?</p>",,,,,,1,,,,,,1,,,,,,,,,,,,
alien_welcome,59,371434,0.0-23.0-0.0,,null,run_exp/static/images/task_images/aliens/old_aliens/planet/alien_planet-12.jpg,null,,,,,,,,,,,,12,"12,80,26,43,44,3,59,58,39,75,71,76,4,66,46,41,24,17,63,18,33,47,22,1,56,74,28,70,21,65,54,6,67,32,57,38,23,37,77,55,30,16,15,35,29,42,13,62,79,31,52,78",,,,,,,,,,
land,60,371936,0.0-23.0-1.0,,null,run_exp/static/images/task_images/land.jpg,null,,,,,,102,,,1,,,,,,,,,,,,,,
dig,61,373940,0.0-23.0-2.0,,,,,,,,,,,"[{""stimulus"":""run_exp/static/images/task_images/dig.jpg"",""time"":0.26000000070780516},{""stimulus"":""run_exp/static/images/task_images/land.jpg"",""time"":673.1900000013411},{""stimulus"":""run_exp/static/images/task_images/dig.jpg"",""time"":1340.1799999992363}]",[],1,,,,,,,,,,,,,,
harvest,62,374946,0.0-23.0-3.0,,null,run_exp/static/images/task_images/gems/102.jpg,null,,,,,,19,,,1,,,,,102,0.182828821,0.18627451,,,,,,,
decision,63,376239,0.0-23.0-4.0,,1291.29,run_exp/static/images/task_images/land.jpg,65,,,,,,19,,,1,,,,,,,,9813,1,0,FALSE,,,
dig,64,377951,0.0-24.0-0.0,,,,,,,,,,,"[{""stimulus"":""run_exp/static/images/task_images/dig.jpg"",""time"":0.15999999595806003},{""stimulus"":""run_exp/static/images/task_images/land.jpg"",""time"":571.0499999695458},{""stimulus"":""run_exp/static/images/task_images/dig.jpg"",""time"":1139.2349999514408}]",[],1,,,,,,,,,,,,,,
harvest,65,378956,0.0-24.0-1.0,,null,run_exp/static/images/task_images/gems/19.jpg,null,,,,,,4,,,1,,,,,19,0.209311996,0.210526316,,,,,,,
decision,66,379620,0.0-24.0-2.0,,662.955,run_exp/static/images/task_images/land.jpg,65,,,,,,4,,,1,,,,,,,,13193,1,1,FALSE,,,
dig,67,381962,0.0-25.0-0.0,,,,,,,,,,,"[{""stimulus"":""run_exp/static/images/task_images/dig.jpg"",""time"":0.16499997582286596},{""stimulus"":""run_exp/static/images/task_images/land.jpg"",""time"":780.2099999971688},{""stimulus"":""run_exp/static/images/task_images/dig.jpg"",""time"":1564.070000022184}]",[],1,,,,,,,,,,,,,,
harvest,68,382965,0.0-25.0-1.0,,null,run_exp/static/images/task_images/gems/4.jpg,null,,,,,,1,,,1,,,,,4,0.237962689,0.25,,,,,,,
decision,69,383588,0.0-25.0-2.0,,621.325,run_exp/static/images/task_images/land.jpg,65,,,,,,1,,,1,,,,,,,,17161,1,2,FALSE,,,
dig,70,385968,0.0-26.0-0.0,,,,,,,,,,,"[{""stimulus"":""run_exp/static/images/task_images/dig.jpg"",""time"":0.13499998021870852},{""stimulus"":""run_exp/static/images/task_images/land.jpg"",""time"":797.1399999805726},{""stimulus"":""run_exp/static/images/task_images/dig.jpg"",""time"":1584.9149999557994}]",[],1,,,,,,,,,,,,,,
harvest,71,386970,0.0-26.0-1.0,,null,run_exp/static/images/task_images/gems/1.jpg,null,,,,,,0,,,1,,,,,1,0.160303978,0,,,,,,,
decision,72,388123,0.0-26.0-2.0,,1151.415,run_exp/static/images/task_images/land.jpg,76,,,,,,0,,,1,,,,,,,,21696,1,3,TRUE,,,
travel,73,396977,0.0-27.0-0.0,,,,,,,,,,,"[{""stimulus"":""run_exp/static/images/task_images/rocket-01.jpg"",""time"":0.15000003622844815},{""stimulus"":""run_exp/static/images/task_images/rocket-02.jpg"",""time"":989.0250000171363},{""stimulus"":""run_exp/static/images/task_images/rocket-03.jpg"",""time"":1969.310000014957},{""stimulus"":""run_exp/static/images/task_images/rocket-04.jpg"",""time"":2955.049999989569},{""stimulus"":""run_exp/static/images/task_images/rocket-05.jpg"",""time"":3938.030000019353},{""stimulus"":""run_exp/static/images/task_images/rocket-06.jpg"",""time"":4918.035000038799},{""stimulus"":""run_exp/static/images/task_images/rocket-07.jpg"",""time"":5902.035000035539},{""stimulus"":""run_exp/static/images/task_images/rocket-08.jpg"",""time"":6887.045000039507},{""stimulus"":""run_exp/static/images/task_images/rocket-09.jpg"",""time"":7867.175000021234}]",[],1,,,,,,,,,,,,,,
alien_welcome,74,401983,0.0-27.0-1.0,,null,run_exp/static/images/task_images/aliens/old_aliens/planet/alien_planet-80.jpg,null,,,,,,,,,,,,80,"12,80,26,43,44,3,59,58,39,75,71,76,4,66,46,41,24,17,63,18,33,47,22,1,56,74,28,70,21,65,54,6,67,32,57,38,23,37,77,55,30,16,15,35,29,42,13,62,79,31,52,78",,,,,,,,,,
land,75,402490,0.0-27.0-2.0,,null,run_exp/static/images/task_images/land.jpg,null,,,,,,96,,,2,,,,,,,,,,,,,,
dig,76,404498,0.0-27.0-3.0,,,,,,,,,,,"[{""stimulus"":""run_exp/static/images/task_images/dig.jpg"",""time"":0.26000000070780516},{""stimulus"":""run_exp/static/images/task_images/land.jpg"",""time"":673.160000005737},{""stimulus"":""run_exp/static/images/task_images/dig.jpg"",""time"":1340.154999983497}]",[],2,,,,,,,,,,,,,,
harvest,77,405504,0.0-27.0-4.0,,null,run_exp/static/images/task_images/gems/96.jpg,null,,,,,,17,,,2,,,,,96,0.175743162,0.177083333,,,,,,,
decision,78,405915,0.0-27.0-5.0,,409.77,run_exp/static/images/task_images/land.jpg,65,,,,,,17,,,2,,,,,,,,39488,1,0,FALSE,,,
dig,79,408508,0.0-28.0-0.0,,,,,,,,,,,"[{""stimulus"":""run_exp/static/images/task_images/dig.jpg"",""time"":0.14000001829117537},{""stimulus"":""run_exp/static/images/task_images/land.jpg"",""time"":865.7750000129454},{""stimulus"":""run_exp/static/images/task_images/dig.jpg"",""time"":1731.0550000402145}]",[],2,,,,,,,,,,,,,,
harvest,80,409512,0.0-28.0-1.0,,null,run_exp/static/images/task_images/gems/17.jpg,null,,,,,,3,,,2,,,,,17,0.149737193,0.176470588,,,,,,,
decision,81,410112,0.0-28.0-2.0,,599.01,run_exp/static/images/task_images/land.jpg,76,,,,,,3,,,2,,,,,,,,43685,1,1,TRUE,,,
travel,82,419514,0.0-29.0-0.0,,,,,,,,,,,"[{""stimulus"":""run_exp/static/images/task_images/rocket-01.jpg"",""time"":0.1449999981559813},{""stimulus"":""run_exp/static/images/task_images/rocket-02.jpg"",""time"":1046.3500000187196},{""stimulus"":""run_exp/static/images/task_images/rocket-03.jpg"",""time"":2092.160000000149},{""stimulus"":""run_exp/static/images/task_images/rocket-04.jpg"",""time"":3137.994999997318},{""stimulus"":""run_exp/static/images/task_images/rocket-05.jpg"",""time"":4181.99499999173},{""stimulus"":""run_exp/static/images/task_images/rocket-06.jpg"",""time"":5221.424999996088},{""stimulus"":""run_exp/static/images/task_images/rocket-07.jpg"",""time"":6265.00000001397},{""stimulus"":""run_exp/static/images/task_images/rocket-08.jpg"",""time"":7309.745000035036},{""stimulus"":""run_exp/static/images/task_images/rocket-09.jpg"",""time"":8353.150000039022}]",[],2,,,,,,,,,,,,,,
alien_welcome,83,424516,0.0-29.0-1.0,,null,run_exp/static/images/task_images/aliens/old_aliens/planet/alien_planet-26.jpg,null,,,,,,,,,,,,26,"12,80,26,43,44,3,59,58,39,75,71,76,4,66,46,41,24,17,63,18,33,47,22,1,56,74,28,70,21,65,54,6,67,32,57,38,23,37,77,55,30,16,15,35,29,42,13,62,79,31,52,78",,,,,,,,,,
land,84,425023,0.0-29.0-2.0,,null,run_exp/static/images/task_images/land.jpg,null,,,,,,103,,,3,,,,,,,,,,,,,,
dig,85,427027,0.0-29.0-3.0,,,,,,,,,,,"[{""stimulus"":""run_exp/static/images/task_images/dig.jpg"",""time"":0.2899999963119626},{""stimulus"":""run_exp/static/images/task_images/land.jpg"",""time"":671.985000022687},{""stimulus"":""run_exp/static/images/task_images/dig.jpg"",""time"":1336.7050000233576}]",[],3,,,,,,,,,,,,,,
harvest,86,428028,0.0-29.0-4.0,,null,run_exp/static/images/task_images/gems/103.jpg,null,,,,,,46,,,3,,,,,103,0.441925086,0.446601942,,,,,,,
decision,87,428534,0.0-29.0-5.0,,504.64,run_exp/static/images/task_images/land.jpg,65,,,,,,46,,,3,,,,,,,,62107,1,0,FALSE,,,
dig,88,431030,0.0-30.0-0.0,,,,,,,,,,,"[{""stimulus"":""run_exp/static/images/task_images/dig.jpg"",""time"":0.13499998021870852},{""stimulus"":""run_exp/static/images/task_images/land.jpg"",""time"":834.6549999550916},{""stimulus"":""run_exp/static/images/task_images/dig.jpg"",""time"":1664.2099999589846}]",[],3,,,,,,,,,,,,,,
harvest,89,432038,0.0-30.0-1.0,,null,run_exp/static/images/task_images/gems/46.jpg,null,,,,,,17,,,3,,,,,46,0.37327201,0.369565217,,,,,,,
decision,90,432620,0.0-30.0-2.0,,581.195,run_exp/static/images/task_images/land.jpg,65,,,,,,17,,,3,,,,,,,,66193,1,1,FALSE,,,
dig,91,435044,0.0-31.0-0.0,,,,,,,,,,,"[{""stimulus"":""run_exp/static/images/task_images/dig.jpg"",""time"":0.1550000160932541},{""stimulus"":""run_exp/static/images/task_images/land.jpg"",""time"":807.6299999956973},{""stimulus"":""run_exp/static/images/task_images/dig.jpg"",""time"":1618.0750000057742}]",[],3,,,,,,,,,,,,,,
harvest,92,436045,0.0-31.0-1.0,,null,run_exp/static/images/task_images/gems/17.jpg,null,,,,,,9,,,3,,,,,17,0.558030307,0.529411765,,,,,,,
decision,93,436884,0.0-31.0-2.0,,837.74,run_exp/static/images/task_images/land.jpg,76,,,,,,9,,,3,,,,,,,,70457,1,2,TRUE,,,
travel,94,446052,0.0-32.0-0.0,,,,,,,,,,,"[{""stimulus"":""run_exp/static/images/task_images/rocket-01.jpg"",""time"":0.15999999595806003},{""stimulus"":""run_exp/static/images/task_images/rocket-02.jpg"",""time"":1021.8350000213832},{""stimulus"":""run_exp/static/images/task_images/rocket-03.jpg"",""time"":2037.9850000026636},{""stimulus"":""run_exp/static/images/task_images/rocket-04.jpg"",""time"":3058.5299999802373},{""stimulus"":""run_exp/static/images/task_images/rocket-05.jpg"",""time"":4075.669999991078},{""stimulus"":""run_exp/static/images/task_images/rocket-06.jpg"",""time"":5094.154999998864},{""stimulus"":""run_exp/static/images/task_images/rocket-07.jpg"",""time"":6111.314999987371},{""stimulus"":""run_exp/static/images/task_images/rocket-08.jpg"",""time"":7128.41499998467},{""stimulus"":""run_exp/static/images/task_images/rocket-09.jpg"",""time"":8145.695000013802}]",[],3,,,,,,,,,,,,,,
alien_welcome,95,451055,0.0-32.0-1.0,,null,run_exp/static/images/task_images/aliens/old_aliens/planet/alien_planet-43.jpg,null,,,,,,,,,,,,43,"12,80,26,43,44,3,59,58,39,75,71,76,4,66,46,41,24,17,63,18,33,47,22,1,56,74,28,70,21,65,54,6,67,32,57,38,23,37,77,55,30,16,15,35,29,42,13,62,79,31,52,78",,,,,,,,,,
land,96,451556,0.0-32.0-2.0,,null,run_exp/static/images/task_images/land.jpg,null,,,,,,86,,,4,,,,,,,,,,,,,,
dig,97,453560,0.0-32.0-3.0,,,,,,,,,,,"[{""stimulus"":""run_exp/static/images/task_images/dig.jpg"",""time"":0.26000000070780516},{""stimulus"":""run_exp/static/images/task_images/land.jpg"",""time"":673.030000005383},{""stimulus"":""run_exp/static/images/task_images/dig.jpg"",""time"":1340.1450000237674}]",[],4,,,,,,,,,,,,,,
harvest,98,454566,0.0-32.0-4.0,,null,run_exp/static/images/task_images/gems/86.jpg,null,,,,,,37,,,4,,,,,86,0.431929599,0.430232558,,,,,,,
decision,99,455568,0.0-32.0-5.0,,1000.32,run_exp/static/images/task_images/land.jpg,65,,,,,,37,,,4,,,,,,,,89141,1,0,FALSE,,,
dig,100,457570,0.0-33.0-0.0,,,,,,,,,,,"[{""stimulus"":""run_exp/static/images/task_images/dig.jpg"",""time"":0.15499995788559318},{""stimulus"":""run_exp/static/images/task_images/land.jpg"",""time"":671.2249999982305},{""stimulus"":""run_exp/static/images/task_images/dig.jpg"",""time"":1334.6249999594875}]",[],4,,,,,,,,,,,,,,
harvest,101,458573,0.0-33.0-1.0,,null,run_exp/static/images/task_images/gems/37.jpg,null,,,,,,19,,,4,,,,,37,0.502856958,0.513513514,,,,,,,
decision,102,458637,0.0-33.0-2.0,,62.92,run_exp/static/images/task_images/land.jpg,76,,,,,,19,,,4,,,,,,,,92210,1,1,TRUE,,,
travel,103,468581,0.0-34.0-0.0,,,,,,,,,,,"[{""stimulus"":""run_exp/static/images/task_images/rocket-01.jpg"",""time"":0.15999999595806003},{""stimulus"":""run_exp/static/images/task_images/rocket-02.jpg"",""time"":1110.0250000017695},{""stimulus"":""run_exp/static/images/task_images/rocket-03.jpg"",""time"":2214.0549999894574},{""stimulus"":""run_exp/static/images/task_images/rocket-04.jpg"",""time"":3316.980000003241},{""stimulus"":""run_exp/static/images/task_images/rocket-05.jpg"",""time"":4417.4350000103},{""stimulus"":""run_exp/static/images/task_images/rocket-06.jpg"",""time"":5523.885000031441},{""stimulus"":""run_exp/static/images/task_images/rocket-07.jpg"",""time"":6630.059999995865},{""stimulus"":""run_exp/static/images/task_images/rocket-08.jpg"",""time"":7730.295000015758},{""stimulus"":""run_exp/static/images/task_images/rocket-09.jpg"",""time"":8838.06999999797}]",[],4,,,,,,,,,,,,,,
alien_welcome,104,473589,0.0-34.0-1.0,,null,run_exp/static/images/task_images/aliens/old_aliens/planet/alien_planet-44.jpg,null,,,,,,,,,,,,44,"12,80,26,43,44,3,59,58,39,75,71,76,4,66,46,41,24,17,63,18,33,47,22,1,56,74,28,70,21,65,54,6,67,32,57,38,23,37,77,55,30,16,15,35,29,42,13,62,79,31,52,78",,,,,,,,,,
land,105,474095,0.0-34.0-2.0,,null,run_exp/static/images/task_images/land.jpg,null,,,,,,98,,,5,,,,,,,,,,,,,,
dig,106,476099,0.0-34.0-3.0,,,,,,,,,,,"[{""stimulus"":""run_exp/static/images/task_images/dig.jpg"",""time"":0.28500001644715667},{""stimulus"":""run_exp/static/images/task_images/land.jpg"",""time"":673.1900000013411},{""stimulus"":""run_exp/static/images/task_images/dig.jpg"",""time"":1335.399999981746}]",[],5,,,,,,,,,,,,,,
harvest,107,477105,0.0-34.0-4.0,,null,run_exp/static/images/task_images/gems/98.jpg,null,,,,,,46,,,5,,,,,98,0.471211557,0.469387755,,,,,,,
decision,108,477882,0.0-34.0-5.0,,776.545,run_exp/static/images/task_images/land.jpg,65,,,,,,46,,,5,,,,,,,,111456,1,0,FALSE,,,
dig,109,480111,0.0-35.0-0.0,,,,,,,,,,,"[{""stimulus"":""run_exp/static/images/task_images/dig.jpg"",""time"":0.16500003403052688},{""stimulus"":""run_exp/static/images/task_images/land.jpg"",""time"":744.1899999976158},{""stimulus"":""run_exp/static/images/task_images/dig.jpg"",""time"":1487.135000003036}]",[],5,,,,,,,,,,,,,,
harvest,110,481114,0.0-35.0-1.0,,null,run_exp/static/images/task_images/gems/46.jpg,null,,,,,,22,,,5,,,,,46,0.477176774,0.47826087,,,,,,,
decision,111,481210,0.0-35.0-2.0,,95.01500003,run_exp/static/images/task_images/land.jpg,76,,,,,,22,,,5,,,,,,,,114783,1,1,TRUE,,,
travel,112,491118,0.0-36.0-0.0,,,,,,,,,,,"[{""stimulus"":""run_exp/static/images/task_images/rocket-01.jpg"",""time"":0.14000001829117537},{""stimulus"":""run_exp/static/images/task_images/rocket-02.jpg"",""time"":1105.8850000263192},{""stimulus"":""run_exp/static/images/task_images/rocket-03.jpg"",""time"":2202.084999997169},{""stimulus"":""run_exp/static/images/task_images/rocket-04.jpg"",""time"":3302.190000016708},{""stimulus"":""run_exp/static/images/task_images/rocket-05.jpg"",""time"":4401.46000002278},{""stimulus"":""run_exp/static/images/task_images/rocket-06.jpg"",""time"":5500.775000022259},{""stimulus"":""run_exp/static/images/task_images/rocket-07.jpg"",""time"":6605.969999975059},{""stimulus"":""run_exp/static/images/task_images/rocket-08.jpg"",""time"":7702.990000019781},{""stimulus"":""run_exp/static/images/task_images/rocket-09.jpg"",""time"":8805.99500000244}]",[],5,,,,,,,,,,,,,,
alien_welcome,113,496125,0.0-36.0-1.0,,null,run_exp/static/images/task_images/aliens/old_aliens/planet/alien_planet-3.jpg,null,,,,,,,,,,,,3,"12,80,26,43,44,3,59,58,39,75,71,76,4,66,46,41,24,17,63,18,33,47,22,1,56,74,28,70,21,65,54,6,67,32,57,38,23,37,77,55,30,16,15,35,29,42,13,62,79,31,52,78",,,,,,,,,,
land,114,496631,0.0-36.0-2.0,,null,run_exp/static/images/task_images/land.jpg,null,,,,,,97,,,6,,,,,,,,,,,,,,
dig,115,498640,0.0-36.0-3.0,,,,,,,,,,,"[{""stimulus"":""run_exp/static/images/task_images/dig.jpg"",""time"":0.2649999805726111},{""stimulus"":""run_exp/static/images/task_images/land.jpg"",""time"":670.5199999851175},{""stimulus"":""run_exp/static/images/task_images/dig.jpg"",""time"":1335.5599999777041}]",[],6,,,,,,,,,,,,,,
harvest,116,499643,0.0-36.0-4.0,,null,run_exp/static/images/task_images/gems/97.jpg,null,,,,,,75,,,6,,,,,97,0.778299258,0.773195876,,,,,,,
decision,117,500251,0.0-36.0-5.0,,606.725,run_exp/static/images/task_images/land.jpg,65,,,,,,75,,,6,,,,,,,,133824,1,0,FALSE,,,
dig,118,502649,0.0-37.0-0.0,,,,,,,,,,,"[{""stimulus"":""run_exp/static/images/task_images/dig.jpg"",""time"":0.13500003842636943},{""stimulus"":""run_exp/static/images/task_images/land.jpg"",""time"":802.1099999896251},{""stimulus"":""run_exp/static/images/task_images/dig.jpg"",""time"":1595.065000001341}]",[],6,,,,,,,,,,,,,,
harvest,119,503652,0.0-37.0-1.0,,null,run_exp/static/images/task_images/gems/75.jpg,null,,,,,,60,,,6,,,,,75,0.797346351,0.8,,,,,,,
decision,120,504072,0.0-37.0-2.0,,419.52,run_exp/static/images/task_images/land.jpg,65,,,,,,60,,,6,,,,,,,,137645,1,1,FALSE,,,
dig,121,506656,0.0-38.0-0.0,,,,,,,,,,,"[{""stimulus"":""run_exp/static/images/task_images/dig.jpg"",""time"":0.15000003622844815},{""stimulus"":""run_exp/static/images/task_images/land.jpg"",""time"":861.8250000290573},{""stimulus"":""run_exp/static/images/task_images/dig.jpg"",""time"":1720.9550000261515}]",[],6,,,,,,,,,,,,,,
harvest,122,507662,0.0-38.0-1.0,,null,run_exp/static/images/task_images/gems/60.jpg,null,,,,,,50,,,6,,,,,60,0.828027862,0.833333333,,,,,,,
decision,123,508608,0.0-38.0-2.0,,944.48,run_exp/static/images/task_images/land.jpg,65,,,,,,50,,,6,,,,,,,,142181,1,2,FALSE,,,
dig,124,510667,0.0-39.0-0.0,,,,,,,,,,,"[{""stimulus"":""run_exp/static/images/task_images/dig.jpg"",""time"":0.15999999595806003},{""stimulus"":""run_exp/static/images/task_images/land.jpg"",""time"":689.9199999752454},{""stimulus"":""run_exp/static/images/task_images/dig.jpg"",""time"":1373.0050000012852}]",[],6,,,,,,,,,,,,,,
harvest,125,511669,0.0-39.0-1.0,,null,run_exp/static/images/task_images/gems/50.jpg,null,,,,,,37,,,6,,,,,50,0.738751407,0.74,,,,,,,
decision,126,514672,0.0-39.0-2.0,,null,run_exp/static/images/task_images/land.jpg,null,,,,,,37,,,6,,,,,,,,148245,1,3,FALSE,,,
time_out,127,516681,0.0-40.0-0.0,,null,run_exp/static/images/task_images/time_out.jpg,null,,,,,,37,,,,,,,,,,,,,,,,,
decision,128,517263,0.0-40.0-1.0,,581.29,run_exp/static/images/task_images/land.jpg,76,,,,,,37,,,6,,,,,,,,150837,1,3,TRUE,,,
travel,129,526683,0.0-41.0-0.0,,,,,,,,,,,"[{""stimulus"":""run_exp/static/images/task_images/rocket-01.jpg"",""time"":0.16500003403052688},{""stimulus"":""run_exp/static/images/task_images/rocket-02.jpg"",""time"":1051.6899999929592},{""stimulus"":""run_exp/static/images/task_images/rocket-03.jpg"",""time"":2095.339999999851},{""stimulus"":""run_exp/static/images/task_images/rocket-04.jpg"",""time"":3144.0249999868684},{""stimulus"":""run_exp/static/images/task_images/rocket-05.jpg"",""time"":4188.6950000189245},{""stimulus"":""run_exp/static/images/task_images/rocket-06.jpg"",""time"":5231.48499999661},{""stimulus"":""run_exp/static/images/task_images/rocket-07.jpg"",""time"":6280.505000031553},{""stimulus"":""run_exp/static/images/task_images/rocket-08.jpg"",""time"":7328.0699999886565},{""stimulus"":""run_exp/static/images/task_images/rocket-09.jpg"",""time"":8374.045000004116}]",[],6,,,,,,,,,,,,,,
alien_welcome,130,531685,0.0-41.0-1.0,,null,run_exp/static/images/task_images/aliens/old_aliens/planet/alien_planet-59.jpg,null,,,,,,,,,,,,59,"12,80,26,43,44,3,59,58,39,75,71,76,4,66,46,41,24,17,63,18,33,47,22,1,56,74,28,70,21,65,54,6,67,32,57,38,23,37,77,55,30,16,15,35,29,42,13,62,79,31,52,78",,,,,,,,,,
land,131,532192,0.0-41.0-2.0,,null,run_exp/static/images/task_images/land.jpg,null,,,,,,99,,,7,,,,,,,,,,,,,,
dig,132,534200,0.0-41.0-3.0,,,,,,,,,,,"[{""stimulus"":""run_exp/static/images/task_images/dig.jpg"",""time"":0.24500000290572643},{""stimulus"":""run_exp/static/images/task_images/land.jpg"",""time"":673.160000005737},{""stimulus"":""run_exp/static/images/task_images/dig.jpg"",""time"":1340.1500000036322}]",[],7,,,,,,,,,,,,,,
harvest,133,535201,0.0-41.0-4.0,,null,run_exp/static/images/task_images/gems/99.jpg,null,,,,,,84,,,7,,,,,99,0.844487758,0.848484848,,,,,,,
decision,134,535690,0.0-41.0-5.0,,487.545,run_exp/static/images/task_images/land.jpg,65,,,,,,84,,,7,,,,,,,,169263,1,0,FALSE,,,
dig,135,538207,0.0-42.0-0.0,,,,,,,,,,,"[{""stimulus"":""run_exp/static/images/task_images/dig.jpg"",""time"":0.13000000035390258},{""stimulus"":""run_exp/static/images/task_images/land.jpg"",""time"":841.0799999837764},{""stimulus"":""run_exp/static/images/task_images/dig.jpg"",""time"":1674.8749999678694}]",[],7,,,,,,,,,,,,,,
harvest,136,539214,0.0-42.0-1.0,,null,run_exp/static/images/task_images/gems/84.jpg,null,,,,,,65,,,7,,,,,84,0.77277882,0.773809524,,,,,,,
decision,137,539348,0.0-42.0-2.0,,133.275,run_exp/static/images/task_images/land.jpg,65,,,,,,65,,,7,,,,,,,,172921,1,1,FALSE,,,
dig,138,542220,0.0-43.0-0.0,,,,,,,,,,,"[{""stimulus"":""run_exp/static/images/task_images/dig.jpg"",""time"":0.15000003622844815},{""stimulus"":""run_exp/static/images/task_images/land.jpg"",""time"":960.9950000303797},{""stimulus"":""run_exp/static/images/task_images/dig.jpg"",""time"":1914.374999993015}]",[],7,,,,,,,,,,,,,,
harvest,139,543225,0.0-43.0-1.0,,null,run_exp/static/images/task_images/gems/65.jpg,null,,,,,,48,,,7,,,,,65,0.734964987,0.738461538,,,,,,,
decision,140,543447,0.0-43.0-2.0,,220.815,run_exp/static/images/task_images/land.jpg,76,,,,,,48,,,7,,,,,,,,177020,1,2,TRUE,,,
travel,141,553226,0.0-44.0-0.0,,,,,,,,,,,"[{""stimulus"":""run_exp/static/images/task_images/rocket-01.jpg"",""time"":0.13499998021870852},{""stimulus"":""run_exp/static/images/task_images/rocket-02.jpg"",""time"":1089.479999965988},{""stimulus"":""run_exp/static/images/task_images/rocket-03.jpg"",""time"":2177.7499999734573},{""stimulus"":""run_exp/static/images/task_images/rocket-04.jpg"",""time"":3263.409999955911},{""stimulus"":""run_exp/static/images/task_images/rocket-05.jpg"",""time"":4345.809999969788},{""stimulus"":""run_exp/static/images/task_images/rocket-06.jpg"",""time"":5436.010000004899},{""stimulus"":""run_exp/static/images/task_images/rocket-07.jpg"",""time"":6518.344999989495},{""stimulus"":""run_exp/static/images/task_images/rocket-08.jpg"",""time"":7608.015000005253},{""stimulus"":""run_exp/static/images/task_images/rocket-09.jpg"",""time"":8693.499999993946}]",[],7,,,,,,,,,,,,,,
alien_welcome,142,558233,0.0-44.0-1.0,,null,run_exp/static/images/task_images/aliens/old_aliens/planet/alien_planet-58.jpg,null,,,,,,,,,,,,58,"12,80,26,43,44,3,59,58,39,75,71,76,4,66,46,41,24,17,63,18,33,47,22,1,56,74,28,70,21,65,54,6,67,32,57,38,23,37,77,55,30,16,15,35,29,42,13,62,79,31,52,78",,,,,,,,,,
land,143,558736,0.0-44.0-2.0,,null,run_exp/static/images/task_images/land.jpg,null,,,,,,111,,,8,,,,,,,,,,,,,,
dig,144,560744,0.0-44.0-3.0,,,,,,,,,,,"[{""stimulus"":""run_exp/static/images/task_images/dig.jpg"",""time"":0.2550000208429992},{""stimulus"":""run_exp/static/images/task_images/land.jpg"",""time"":669.640000036452},{""stimulus"":""run_exp/static/images/task_images/dig.jpg"",""time"":1338.9750000205822}]",[],8,,,,,,,,,,,,,,
harvest,145,561750,0.0-44.0-4.0,,null,run_exp/static/images/task_images/gems/111.jpg,null,,,,,,89,,,8,,,,,111,0.804007084,0.801801802,,,,,,,
decision,146,562312,0.0-44.0-5.0,,560.365,run_exp/static/images/task_images/land.jpg,65,,,,,,89,,,8,,,,,,,,195885,1,0,FALSE,,,
dig,147,564757,0.0-45.0-0.0,,,,,,,,,,,"[{""stimulus"":""run_exp/static/images/task_images/dig.jpg"",""time"":0.13500003842636943},{""stimulus"":""run_exp/static/images/task_images/land.jpg"",""time"":815.7850000425242},{""stimulus"":""run_exp/static/images/task_images/dig.jpg"",""time"":1629.6750000328757}]",[],8,,,,,,,,,,,,,,
harvest,148,565760,0.0-45.0-1.0,,null,run_exp/static/images/task_images/gems/89.jpg,null,,,,,,79,,,8,,,,,89,0.89128967,0.887640449,,,,,,,
decision,149,566054,0.0-45.0-2.0,,292.13,run_exp/static/images/task_images/land.jpg,65,,,,,,79,,,8,,,,,,,,199627,1,1,FALSE,,,
dig,150,568766,0.0-46.0-0.0,,,,,,,,,,,"[{""stimulus"":""run_exp/static/images/task_images/dig.jpg"",""time"":0.16499997582286596},{""stimulus"":""run_exp/static/images/task_images/land.jpg"",""time"":908.0099999555387},{""stimulus"":""run_exp/static/images/task_images/dig.jpg"",""time"":1810.044999991078}]",[],8,,,,,,,,,,,,,,
harvest,151,569772,0.0-46.0-1.0,,null,run_exp/static/images/task_images/gems/79.jpg,null,,,,,,64,,,8,,,,,79,0.811701108,0.810126582,,,,,,,
decision,152,570088,0.0-46.0-2.0,,314.85,run_exp/static/images/task_images/land.jpg,65,,,,,,64,,,8,,,,,,,,203661,1,2,FALSE,,,
dig,153,572779,0.0-47.0-0.0,,,,,,,,,,,"[{""stimulus"":""run_exp/static/images/task_images/dig.jpg"",""time"":0.13499998021870852},{""stimulus"":""run_exp/static/images/task_images/land.jpg"",""time"":899.6049999841489},{""stimulus"":""run_exp/static/images/task_images/dig.jpg"",""time"":1795.9899999550544}]",[],8,,,,,,,,,,,,,,
harvest,154,573782,0.0-47.0-1.0,,null,run_exp/static/images/task_images/gems/64.jpg,null,,,,,,48,,,8,,,,,64,0.751213488,0.75,,,,,,,
decision,155,574141,0.0-47.0-2.0,,358.21,run_exp/static/images/task_images/land.jpg,76,,,,,,48,,,8,,,,,,,,207714,1,3,TRUE,,,
travel,156,583789,0.0-48.0-0.0,,,,,,,,,,,"[{""stimulus"":""run_exp/static/images/task_images/rocket-01.jpg"",""time"":0.15499995788559318},{""stimulus"":""run_exp/static/images/task_images/rocket-02.jpg"",""time"":1075.3449999610893},{""stimulus"":""run_exp/static/images/task_images/rocket-03.jpg"",""time"":2144.96499998495},{""stimulus"":""run_exp/static/images/task_images/rocket-04.jpg"",""time"":3218.219999980647},{""stimulus"":""run_exp/static/images/task_images/rocket-05.jpg"",""time"":4285.949999990407},{""stimulus"":""run_exp/static/images/task_images/rocket-06.jpg"",""time"":5358.5800000000745},{""stimulus"":""run_exp/static/images/task_images/rocket-07.jpg"",""time"":6432.020000007469},{""stimulus"":""run_exp/static/images/task_images/rocket-08.jpg"",""time"":7503.035000001546},{""stimulus"":""run_exp/static/images/task_images/rocket-09.jpg"",""time"":8569.789999979548}]",[],8,,,,,,,,,,,,,,
alien_welcome,157,588795,0.0-48.0-1.0,,null,run_exp/static/images/task_images/aliens/old_aliens/planet/alien_planet-39.jpg,null,,,,,,,,,,,,39,"12,80,26,43,44,3,59,58,39,75,71,76,4,66,46,41,24,17,63,18,33,47,22,1,56,74,28,70,21,65,54,6,67,32,57,38,23,37,77,55,30,16,15,35,29,42,13,62,79,31,52,78",,,,,,,,,,
land,158,589302,0.0-48.0-2.0,,null,run_exp/static/images/task_images/land.jpg,null,,,,,,98,,,9,,,,,,,,,,,,,,
dig,159,591305,0.0-48.0-3.0,,,,,,,,,,,"[{""stimulus"":""run_exp/static/images/task_images/dig.jpg"",""time"":0.26000000070780516},{""stimulus"":""run_exp/static/images/task_images/land.jpg"",""time"":668.424999981653},{""stimulus"":""run_exp/static/images/task_images/dig.jpg"",""time"":1335.3449999704026}]",[],9,,,,,,,,,,,,,,
harvest,160,592308,0.0-48.0-4.0,,null,run_exp/static/images/task_images/gems/98.jpg,null,,,,,,17,,,9,,,,,98,0.17722406,0.173469388,,,,,,,
decision,161,592863,0.0-48.0-5.0,,553.845,run_exp/static/images/task_images/land.jpg,65,,,,,,17,,,9,,,,,,,,226436,1,0,FALSE,,,
dig,162,595313,0.0-49.0-0.0,,,,,,,,,,,"[{""stimulus"":""run_exp/static/images/task_images/dig.jpg"",""time"":0.1800000318326056},{""stimulus"":""run_exp/static/images/task_images/land.jpg"",""time"":821.044999989681},{""stimulus"":""run_exp/static/images/task_images/dig.jpg"",""time"":1636.0650000278838}]",[],9,,,,,,,,,,,,,,
harvest,163,596318,0.0-49.0-1.0,,null,run_exp/static/images/task_images/gems/17.jpg,null,,,,,,2,,,9,,,,,17,0.144446755,0.117647059,,,,,,,
decision,164,596373,0.0-49.0-2.0,,53.59499995,run_exp/static/images/task_images/land.jpg,76,,,,,,2,,,9,,,,,,,,229946,1,1,TRUE,,,
travel,165,606323,0.0-50.0-0.0,,,,,,,,,,,"[{""stimulus"":""run_exp/static/images/task_images/rocket-01.jpg"",""time"":0.15499995788559318},{""stimulus"":""run_exp/static/images/task_images/rocket-02.jpg"",""time"":1110.99999997532},{""stimulus"":""run_exp/static/images/task_images/rocket-03.jpg"",""time"":2214.94499995606},{""stimulus"":""run_exp/static/images/task_images/rocket-04.jpg"",""time"":3317.01499997871},{""stimulus"":""run_exp/static/images/task_images/rocket-05.jpg"",""time"":4421.904999995604},{""stimulus"":""run_exp/static/images/task_images/rocket-06.jpg"",""time"":5528.980000002775},{""stimulus"":""run_exp/static/images/task_images/rocket-07.jpg"",""time"":6636.039999953937},{""stimulus"":""run_exp/static/images/task_images/rocket-08.jpg"",""time"":7740.999999979977},{""stimulus"":""run_exp/static/images/task_images/rocket-09.jpg"",""time"":8843.394999974407}]",[],9,,,,,,,,,,,,,,
alien_welcome,166,611325,0.0-50.0-1.0,,null,run_exp/static/images/task_images/aliens/old_aliens/planet/alien_planet-75.jpg,null,,,,,,,,,,,,75,"12,80,26,43,44,3,59,58,39,75,71,76,4,66,46,41,24,17,63,18,33,47,22,1,56,74,28,70,21,65,54,6,67,32,57,38,23,37,77,55,30,16,15,35,29,42,13,62,79,31,52,78",,,,,,,,,,
land,167,611832,0.0-50.0-2.0,,null,run_exp/static/images/task_images/land.jpg,null,,,,,,95,,,10,,,,,,,,,,,,,,
dig,168,613841,0.0-50.0-3.0,,,,,,,,,,,"[{""stimulus"":""run_exp/static/images/task_images/dig.jpg"",""time"":0.2550000208429992},{""stimulus"":""run_exp/static/images/task_images/land.jpg"",""time"":671.6200000373647},{""stimulus"":""run_exp/static/images/task_images/dig.jpg"",""time"":1337.0950000244193}]",[],10,,,,,,,,,,,,,,
harvest,169,614847,0.0-50.0-4.0,,null,run_exp/static/images/task_images/gems/95.jpg,null,,,,,,17,,,10,,,,,95,0.176612066,0.178947368,,,,,,,
decision,170,615745,0.0-50.0-5.0,,896.575,run_exp/static/images/task_images/land.jpg,65,,,,,,17,,,10,,,,,,,,249318,1,0,FALSE,,,
dig,171,617854,0.0-51.0-0.0,,,,,,,,,,,"[{""stimulus"":""run_exp/static/images/task_images/dig.jpg"",""time"":0.1449999981559813},{""stimulus"":""run_exp/static/images/task_images/land.jpg"",""time"":706.7249999963678},{""stimulus"":""run_exp/static/images/task_images/dig.jpg"",""time"":1403.0699999420904}]",[],10,,,,,,,,,,,,,,
harvest,172,618858,0.0-51.0-1.0,,null,run_exp/static/images/task_images/gems/17.jpg,null,,,,,,3,,,10,,,,,17,0.171391214,0.176470588,,,,,,,
decision,173,619062,0.0-51.0-2.0,,203.225,run_exp/static/images/task_images/land.jpg,76,,,,,,3,,,10,,,,,,,,252635,1,1,TRUE,,,
travel,174,628860,0.0-52.0-0.0,,,,,,,,,,,"[{""stimulus"":""run_exp/static/images/task_images/rocket-01.jpg"",""time"":0.15000003622844815},{""stimulus"":""run_exp/static/images/task_images/rocket-02.jpg"",""time"":1090.9600000013597},{""stimulus"":""run_exp/static/images/task_images/rocket-03.jpg"",""time"":2178.9149999967776},{""stimulus"":""run_exp/static/images/task_images/rocket-04.jpg"",""time"":3265.4200000106357},{""stimulus"":""run_exp/static/images/task_images/rocket-05.jpg"",""time"":4358.0199999851175},{""stimulus"":""run_exp/static/images/task_images/rocket-06.jpg"",""time"":5446.029999991879},{""stimulus"":""run_exp/static/images/task_images/rocket-07.jpg"",""time"":6529.595000029076},{""stimulus"":""run_exp/static/images/task_images/rocket-08.jpg"",""time"":7622.030000027735},{""stimulus"":""run_exp/static/images/task_images/rocket-09.jpg"",""time"":8710.019999998622}]",[],10,,,,,,,,,,,,,,
alien_welcome,175,633866,0.0-52.0-1.0,,null,run_exp/static/images/task_images/aliens/old_aliens/planet/alien_planet-71.jpg,null,,,,,,,,,,,,71,"12,80,26,43,44,3,59,58,39,75,71,76,4,66,46,41,24,17,63,18,33,47,22,1,56,74,28,70,21,65,54,6,67,32,57,38,23,37,77,55,30,16,15,35,29,42,13,62,79,31,52,78",,,,,,,,,,
land,176,634372,0.0-52.0-2.0,,null,run_exp/static/images/task_images/land.jpg,null,,,,,,110,,,11,,,,,,,,,,,,,,
dig,177,636378,0.0-52.0-3.0,,,,,,,,,,,"[{""stimulus"":""run_exp/static/images/task_images/dig.jpg"",""time"":0.2749999985098839},{""stimulus"":""run_exp/static/images/task_images/land.jpg"",""time"":668.4750000131316},{""stimulus"":""run_exp/static/images/task_images/dig.jpg"",""time"":1338.4450000012293}]",[],11,,,,,,,,,,,,,,
harvest,178,637384,0.0-52.0-4.0,,null,run_exp/static/images/task_images/gems/110.jpg,null,,,,,,24,,,11,,,,,110,0.214371013,0.218181818,,,,,,,
decision,179,637756,0.0-52.0-5.0,,370.185,run_exp/static/images/task_images/land.jpg,65,,,,,,24,,,11,,,,,,,,271329,1,0,FALSE,,,
dig,180,640391,0.0-53.0-0.0,,,,,,,,,,,"[{""stimulus"":""run_exp/static/images/task_images/dig.jpg"",""time"":0.1550000160932541},{""stimulus"":""run_exp/static/images/task_images/land.jpg"",""time"":878.5500000230968},{""stimulus"":""run_exp/static/images/task_images/dig.jpg"",""time"":1756.4450000063516}]",[],11,,,,,,,,,,,,,,
harvest,181,641396,0.0-53.0-1.0,,null,run_exp/static/images/task_images/gems/24.jpg,null,,,,,,3,,,11,,,,,24,0.145546392,0.125,,,,,,,
decision,182,641784,0.0-53.0-2.0,,387.5299999,run_exp/static/images/task_images/land.jpg,76,,,,,,3,,,11,,,,,,,,275358,1,1,TRUE,,,
travel,183,651403,0.0-54.0-0.0,,,,,,,,,,,"[{""stimulus"":""run_exp/static/images/task_images/rocket-01.jpg"",""time"":0.13999996008351445},{""stimulus"":""run_exp/static/images/task_images/rocket-02.jpg"",""time"":1069.0899999463},{""stimulus"":""run_exp/static/images/task_images/rocket-03.jpg"",""time"":2139.199999975972},{""stimulus"":""run_exp/static/images/task_images/rocket-04.jpg"",""time"":3207.5349999940954},{""stimulus"":""run_exp/static/images/task_images/rocket-05.jpg"",""time"":4275.274999963585},{""stimulus"":""run_exp/static/images/task_images/rocket-06.jpg"",""time"":5342.039999959525},{""stimulus"":""run_exp/static/images/task_images/rocket-07.jpg"",""time"":6411.644999985583},{""stimulus"":""run_exp/static/images/task_images/rocket-08.jpg"",""time"":7481.634999974631},{""stimulus"":""run_exp/static/images/task_images/rocket-09.jpg"",""time"":8547.844999993686}]",[],11,,,,,,,,,,,,,,
alien_welcome,184,656410,0.0-54.0-1.0,,null,run_exp/static/images/task_images/aliens/old_aliens/planet/alien_planet-76.jpg,null,,,,,,,,,,,,76,"12,80,26,43,44,3,59,58,39,75,71,76,4,66,46,41,24,17,63,18,33,47,22,1,56,74,28,70,21,65,54,6,67,32,57,38,23,37,77,55,30,16,15,35,29,42,13,62,79,31,52,78",,,,,,,,,,
land,185,656916,0.0-54.0-2.0,,null,run_exp/static/images/task_images/land.jpg,null,,,,,,103,,,12,,,,,,,,,,,,,,
dig,186,658924,0.0-54.0-3.0,,,,,,,,,,,"[{""stimulus"":""run_exp/static/images/task_images/dig.jpg"",""time"":0.27000001864507794},{""stimulus"":""run_exp/static/images/task_images/land.jpg"",""time"":673.1850000214763},{""stimulus"":""run_exp/static/images/task_images/dig.jpg"",""time"":1337.8150000353344}]",[],12,,,,,,,,,,,,,,
harvest,187,659930,0.0-54.0-4.0,,null,run_exp/static/images/task_images/gems/103.jpg,null,,,,,,25,,,12,,,,,103,0.244766792,0.242718447,,,,,,,
decision,188,660352,0.0-54.0-5.0,,420.365,run_exp/static/images/task_images/land.jpg,65,,,,,,25,,,12,,,,,,,,293925,1,0,FALSE,,,
dig,189,662934,0.0-55.0-0.0,,,,,,,,,,,"[{""stimulus"":""run_exp/static/images/task_images/dig.jpg"",""time"":0.1449999981559813},{""stimulus"":""run_exp/static/images/task_images/land.jpg"",""time"":861.0049999551848},{""stimulus"":""run_exp/static/images/task_images/dig.jpg"",""time"":1720.6000000005588}]",[],12,,,,,,,,,,,,,,
harvest,190,663939,0.0-55.0-1.0,,null,run_exp/static/images/task_images/gems/25.jpg,null,,,,,,7,,,12,,,,,25,0.294200868,0.28,,,,,,,
decision,191,664044,0.0-55.0-2.0,,103.74,run_exp/static/images/task_images/land.jpg,76,,,,,,7,,,12,,,,,,,,297618,1,1,TRUE,,,
travel,192,673944,0.0-56.0-0.0,,,,,,,,,,,"[{""stimulus"":""run_exp/static/images/task_images/rocket-01.jpg"",""time"":0.13500003842636943},{""stimulus"":""run_exp/static/images/task_images/rocket-02.jpg"",""time"":1101.4350000186823},{""stimulus"":""run_exp/static/images/task_images/rocket-03.jpg"",""time"":2200.6450000335462},{""stimulus"":""run_exp/static/images/task_images/rocket-04.jpg"",""time"":3302.989999996498},{""stimulus"":""run_exp/static/images/task_images/rocket-05.jpg"",""time"":4398.625000030734},{""stimulus"":""run_exp/static/images/task_images/rocket-06.jpg"",""time"":5501.000000047497},{""stimulus"":""run_exp/static/images/task_images/rocket-07.jpg"",""time"":6599.97000003932},{""stimulus"":""run_exp/static/images/task_images/rocket-08.jpg"",""time"":7696.205000043847},{""stimulus"":""run_exp/static/images/task_images/rocket-09.jpg"",""time"":8797.97499999404}]",[],12,,,,,,,,,,,,,,
alien_welcome,193,678950,0.0-56.0-1.0,,null,run_exp/static/images/task_images/aliens/old_aliens/planet/alien_planet-4.jpg,null,,,,,,,,,,,,4,"12,80,26,43,44,3,59,58,39,75,71,76,4,66,46,41,24,17,63,18,33,47,22,1,56,74,28,70,21,65,54,6,67,32,57,38,23,37,77,55,30,16,15,35,29,42,13,62,79,31,52,78",,,,,,,,,,
land,194,679456,0.0-56.0-2.0,,null,run_exp/static/images/task_images/land.jpg,null,,,,,,98,,,13,,,,,,,,,,,,,,
dig,195,681463,0.0-56.0-3.0,,,,,,,,,,,"[{""stimulus"":""run_exp/static/images/task_images/dig.jpg"",""time"":0.24999998277053237},{""stimulus"":""run_exp/static/images/task_images/land.jpg"",""time"":673.175000003539},{""stimulus"":""run_exp/static/images/task_images/dig.jpg"",""time"":1340.154999983497}]",[],13,,,,,,,,,,,,,,
harvest,196,682468,0.0-56.0-4.0,,null,run_exp/static/images/task_images/gems/98.jpg,null,,,,,,28,,,13,,,,,98,0.288768564,0.285714286,,,,,,,
decision,197,682966,0.0-56.0-5.0,,497,run_exp/static/images/task_images/land.jpg,65,,,,,,28,,,13,,,,,,,,316539,1,0,TRUE,,,
end_of_block_continue,198,691828,0.0-57.0-0.0,,null,run_exp/static/audio/clip_32_block_end.m4a,,,,,,null,,,,,,,,,,,,,,,,,,
alien_welcome,199,696838,0.0-58.0-0.0,,null,run_exp/static/images/task_images/aliens/old_aliens/planet/alien_planet-66.jpg,null,,,,,,,,,,,,66,"12,80,26,43,44,3,59,58,39,75,71,76,4,66,46,41,24,17,63,18,33,47,22,1,56,74,28,70,21,65,54,6,67,32,57,38,23,37,77,55,30,16,15,35,29,42,13,62,79,31,52,78",,,,,,,,,,
land,200,697343,0.0-58.0-1.0,,null,run_exp/static/images/task_images/land.jpg,null,,,,,,86,,,14,,,,,,,,,,,,,,
dig,201,699350,0.0-58.0-2.0,,,,,,,,,,,"[{""stimulus"":""run_exp/static/images/task_images/dig.jpg"",""time"":0.29499997617676854},{""stimulus"":""run_exp/static/images/task_images/land.jpg"",""time"":672.1750000142492},{""stimulus"":""run_exp/static/images/task_images/dig.jpg"",""time"":1340.2449999703094}]",[],14,,,,,,,,,,,,,,
harvest,202,700355,0.0-58.0-3.0,,null,run_exp/static/images/task_images/gems/86.jpg,null,,,,,,28,,,14,,,,,86,0.32125161,0.325581395,,,,,,,
decision,203,700626,0.0-58.0-4.0,,269.87,run_exp/static/images/task_images/land.jpg,65,,,,,,28,,,14,,,,,,,,8789,2,0,FALSE,,,
dig,204,703360,0.0-59.0-0.0,,,,,,,,,,,"[{""stimulus"":""run_exp/static/images/task_images/dig.jpg"",""time"":0.14000001829117537},{""stimulus"":""run_exp/static/images/task_images/land.jpg"",""time"":914.3299999996088},{""stimulus"":""run_exp/static/images/task_images/dig.jpg"",""time"":1826.0149999987334}]",[],14,,,,,,,,,,,,,,
harvest,205,704366,0.0-59.0-1.0,,null,run_exp/static/images/task_images/gems/28.jpg,null,,,,,,7,,,14,,,,,28,0.264386743,0.25,,,,,,,
decision,206,704610,0.0-59.0-2.0,,242.86,run_exp/static/images/task_images/land.jpg,76,,,,,,7,,,14,,,,,,,,12773,2,1,TRUE,,,
travel,207,714372,0.0-60.0-0.0,,,,,,,,,,,"[{""stimulus"":""run_exp/static/images/task_images/rocket-01.jpg"",""time"":0.1449999981559813},{""stimulus"":""run_exp/static/images/task_images/rocket-02.jpg"",""time"":1089.9799999897368},{""stimulus"":""run_exp/static/images/task_images/rocket-03.jpg"",""time"":2174.064999970142},{""stimulus"":""run_exp/static/images/task_images/rocket-04.jpg"",""time"":3253.939999965951},{""stimulus"":""run_exp/static/images/task_images/rocket-05.jpg"",""time"":4342.009999963921},{""stimulus"":""run_exp/static/images/task_images/rocket-06.jpg"",""time"":5422.489999968093},{""stimulus"":""run_exp/static/images/task_images/rocket-07.jpg"",""time"":6509.924999962095},{""stimulus"":""run_exp/static/images/task_images/rocket-08.jpg"",""time"":7594.010000000708},{""stimulus"":""run_exp/static/images/task_images/rocket-09.jpg"",""time"":8674.11500000162}]",[],14,,,,,,,,,,,,,,
alien_welcome,208,719378,0.0-60.0-1.0,,null,run_exp/static/images/task_images/aliens/old_aliens/planet/alien_planet-46.jpg,null,,,,,,,,,,,,46,"12,80,26,43,44,3,59,58,39,75,71,76,4,66,46,41,24,17,63,18,33,47,22,1,56,74,28,70,21,65,54,6,67,32,57,38,23,37,77,55,30,16,15,35,29,42,13,62,79,31,52,78",,,,,,,,,,
land,209,719882,0.0-60.0-2.0,,null,run_exp/static/images/task_images/land.jpg,null,,,,,,101,,,15,,,,,,,,,,,,,,
dig,210,721891,0.0-60.0-3.0,,,,,,,,,,,"[{""stimulus"":""run_exp/static/images/task_images/dig.jpg"",""time"":0.2549999626353383},{""stimulus"":""run_exp/static/images/task_images/land.jpg"",""time"":668.0199999827892},{""stimulus"":""run_exp/static/images/task_images/dig.jpg"",""time"":1339.0999999828637}]",[],15,,,,,,,,,,,,,,
harvest,211,722895,0.0-60.0-4.0,,null,run_exp/static/images/task_images/gems/101.jpg,null,,,,,,12,,,15,,,,,101,0.122445271,0.118811881,,,,,,,
decision,212,723288,0.0-60.0-5.0,,392.44,run_exp/static/images/task_images/land.jpg,65,,,,,,12,,,15,,,,,,,,31452,2,0,FALSE,,,
dig,213,725900,0.0-61.0-0.0,,,,,,,,,,,"[{""stimulus"":""run_exp/static/images/task_images/dig.jpg"",""time"":0.15499995788559318},{""stimulus"":""run_exp/static/images/task_images/land.jpg"",""time"":872.144999972079},{""stimulus"":""run_exp/static/images/task_images/dig.jpg"",""time"":1739.0199999790639}]",[],15,,,,,,,,,,,,,,
harvest,214,726906,0.0-61.0-1.0,,null,run_exp/static/images/task_images/gems/12.jpg,null,,,,,,2,,,15,,,,,12,0.187560085,0.166666667,,,,,,,
decision,215,727045,0.0-61.0-2.0,,137.445,run_exp/static/images/task_images/land.jpg,76,,,,,,2,,,15,,,,,,,,35208,2,1,TRUE,,,
travel,216,736908,0.0-62.0-0.0,,,,,,,,,,,"[{""stimulus"":""run_exp/static/images/task_images/rocket-01.jpg"",""time"":0.1700000138953328},{""stimulus"":""run_exp/static/images/task_images/rocket-02.jpg"",""time"":1101.0499999974854},{""stimulus"":""run_exp/static/images/task_images/rocket-03.jpg"",""time"":2196.0199999739416},{""stimulus"":""run_exp/static/images/task_images/rocket-04.jpg"",""time"":3290.630000003148},{""stimulus"":""run_exp/static/images/task_images/rocket-05.jpg"",""time"":4381.110000016633},{""stimulus"":""run_exp/static/images/task_images/rocket-06.jpg"",""time"":5481.030000024475},{""stimulus"":""run_exp/static/images/task_images/rocket-07.jpg"",""time"":6573.71000002604},{""stimulus"":""run_exp/static/images/task_images/rocket-08.jpg"",""time"":7671.039999986533},{""stimulus"":""run_exp/static/images/task_images/rocket-09.jpg"",""time"":8761.624999984633}]",[],15,,,,,,,,,,,,,,
alien_welcome,217,741910,0.0-62.0-1.0,,null,run_exp/static/images/task_images/aliens/old_aliens/planet/alien_planet-41.jpg,null,,,,,,,,,,,,41,"12,80,26,43,44,3,59,58,39,75,71,76,4,66,46,41,24,17,63,18,33,47,22,1,56,74,28,70,21,65,54,6,67,32,57,38,23,37,77,55,30,16,15,35,29,42,13,62,79,31,52,78",,,,,,,,,,
land,218,742416,0.0-62.0-2.0,,null,run_exp/static/images/task_images/land.jpg,null,,,,,,97,,,16,,,,,,,,,,,,,,
dig,219,744419,0.0-62.0-3.0,,,,,,,,,,,"[{""stimulus"":""run_exp/static/images/task_images/dig.jpg"",""time"":0.21999998716637492},{""stimulus"":""run_exp/static/images/task_images/land.jpg"",""time"":667.9599999915808},{""stimulus"":""run_exp/static/images/task_images/dig.jpg"",""time"":1340.0799999944866}]",[],16,,,,,,,,,,,,,,
harvest,220,745425,0.0-62.0-4.0,,null,run_exp/static/images/task_images/gems/97.jpg,null,,,,,,28,,,16,,,,,97,0.291022494,0.288659794,,,,,,,
decision,221,745864,0.0-62.0-5.0,,438.02,run_exp/static/images/task_images/land.jpg,65,,,,,,28,,,16,,,,,,,,54027,2,0,FALSE,,,
dig,222,748431,0.0-63.0-0.0,,,,,,,,,,,"[{""stimulus"":""run_exp/static/images/task_images/dig.jpg"",""time"":0.14999997802078724},{""stimulus"":""run_exp/static/images/task_images/land.jpg"",""time"":858.9550000033341},{""stimulus"":""run_exp/static/images/task_images/dig.jpg"",""time"":1709.4449999858625}]",[],16,,,,,,,,,,,,,,
harvest,223,749433,0.0-63.0-1.0,,null,run_exp/static/images/task_images/gems/28.jpg,null,,,,,,6,,,16,,,,,28,0.196899967,0.214285714,,,,,,,
decision,224,750103,0.0-63.0-2.0,,669.615,run_exp/static/images/task_images/land.jpg,76,,,,,,6,,,16,,,,,,,,58267,2,1,TRUE,,,
travel,225,759433,0.0-64.0-0.0,,,,,,,,,,,"[{""stimulus"":""run_exp/static/images/task_images/rocket-01.jpg"",""time"":0.16500003403052688},{""stimulus"":""run_exp/static/images/task_images/rocket-02.jpg"",""time"":1037.9550000070594},{""stimulus"":""run_exp/static/images/task_images/rocket-03.jpg"",""time"":2074.670000001788},{""stimulus"":""run_exp/static/images/task_images/rocket-04.jpg"",""time"":3112.375000026077},{""stimulus"":""run_exp/static/images/task_images/rocket-05.jpg"",""time"":4149.100000038743},{""stimulus"":""run_exp/static/images/task_images/rocket-06.jpg"",""time"":5181.355000007898},{""stimulus"":""run_exp/static/images/task_images/rocket-07.jpg"",""time"":6222.025000024587},{""stimulus"":""run_exp/static/images/task_images/rocket-08.jpg"",""time"":7254.179999988992},{""stimulus"":""run_exp/static/images/task_images/rocket-09.jpg"",""time"":8290.44499999145}]",[],16,,,,,,,,,,,,,,
alien_welcome,226,764439,0.0-64.0-1.0,,null,run_exp/static/images/task_images/aliens/old_aliens/planet/alien_planet-24.jpg,null,,,,,,,,,,,,24,"12,80,26,43,44,3,59,58,39,75,71,76,4,66,46,41,24,17,63,18,33,47,22,1,56,74,28,70,21,65,54,6,67,32,57,38,23,37,77,55,30,16,15,35,29,42,13,62,79,31,52,78",,,,,,,,,,
land,227,764944,0.0-64.0-2.0,,null,run_exp/static/images/task_images/land.jpg,null,,,,,,106,,,17,,,,,,,,,,,,,,
dig,228,766951,0.0-64.0-3.0,,,,,,,,,,,"[{""stimulus"":""run_exp/static/images/task_images/dig.jpg"",""time"":0.265000038780272},{""stimulus"":""run_exp/static/images/task_images/land.jpg"",""time"":670.6200000480749},{""stimulus"":""run_exp/static/images/task_images/dig.jpg"",""time"":1336.4050000091083}]",[],17,,,,,,,,,,,,,,
harvest,229,767954,0.0-64.0-4.0,,null,run_exp/static/images/task_images/gems/106.jpg,null,,,,,,80,,,17,,,,,106,0.751585589,0.754716981,,,,,,,
decision,230,768015,0.0-64.0-5.0,,59.855,run_exp/static/images/task_images/land.jpg,65,,,,,,80,,,17,,,,,,,,76178,2,0,FALSE,,,
dig,231,770959,0.0-65.0-0.0,,,,,,,,,,,"[{""stimulus"":""run_exp/static/images/task_images/dig.jpg"",""time"":0.14000001829117537},{""stimulus"":""run_exp/static/images/task_images/land.jpg"",""time"":982.8049999778159},{""stimulus"":""run_exp/static/images/task_images/dig.jpg"",""time"":1964.9649999919347}]",[],17,,,,,,,,,,,,,,
harvest,232,771960,0.0-65.0-1.0,,null,run_exp/static/images/task_images/gems/80.jpg,null,,,,,,66,,,17,,,,,80,0.8235136,0.825,,,,,,,
decision,233,772063,0.0-65.0-2.0,,101,run_exp/static/images/task_images/land.jpg,65,,,,,,66,,,17,,,,,,,,80226,2,1,FALSE,,,
dig,234,774965,0.0-66.0-0.0,,,,,,,,,,,"[{""stimulus"":""run_exp/static/images/task_images/dig.jpg"",""time"":0.13999996008351445},{""stimulus"":""run_exp/static/images/task_images/land.jpg"",""time"":967.9799999576062},{""stimulus"":""run_exp/static/images/task_images/dig.jpg"",""time"":1934.049999981653}]",[],17,,,,,,,,,,,,,,
harvest,235,775971,0.0-66.0-1.0,,null,run_exp/static/images/task_images/gems/66.jpg,null,,,,,,52,,,17,,,,,66,0.788927761,0.787878788,,,,,,,
decision,236,776324,0.0-66.0-2.0,,352.08,run_exp/static/images/task_images/land.jpg,76,,,,,,52,,,17,,,,,,,,84487,2,2,TRUE,,,
travel,237,785968,0.0-67.0-0.0,,,,,,,,,,,"[{""stimulus"":""run_exp/static/images/task_images/rocket-01.jpg"",""time"":0.13999996008351445},{""stimulus"":""run_exp/static/images/task_images/rocket-02.jpg"",""time"":1076.9949999521486},{""stimulus"":""run_exp/static/images/task_images/rocket-03.jpg"",""time"":2144.830000004731},{""stimulus"":""run_exp/static/images/task_images/rocket-04.jpg"",""time"":3213.8299999642186},{""stimulus"":""run_exp/static/images/task_images/rocket-05.jpg"",""time"":4290.069999988191},{""stimulus"":""run_exp/static/images/task_images/rocket-06.jpg"",""time"":5358.369999972638},{""stimulus"":""run_exp/static/images/task_images/rocket-07.jpg"",""time"":6431.99499999173},{""stimulus"":""run_exp/static/images/task_images/rocket-08.jpg"",""time"":7502.779999980703},{""stimulus"":""run_exp/static/images/task_images/rocket-09.jpg"",""time"":8574.014999961946}]",[],17,,,,,,,,,,,,,,
alien_welcome,238,790972,0.0-67.0-1.0,,null,run_exp/static/images/task_images/aliens/old_aliens/planet/alien_planet-17.jpg,null,,,,,,,,,,,,17,"12,80,26,43,44,3,59,58,39,75,71,76,4,66,46,41,24,17,63,18,33,47,22,1,56,74,28,70,21,65,54,6,67,32,57,38,23,37,77,55,30,16,15,35,29,42,13,62,79,31,52,78",,,,,,,,,,
land,239,791474,0.0-67.0-2.0,,null,run_exp/static/images/task_images/land.jpg,null,,,,,,109,,,18,,,,,,,,,,,,,,
dig,240,793479,0.0-67.0-3.0,,,,,,,,,,,"[{""stimulus"":""run_exp/static/images/task_images/dig.jpg"",""time"":0.2649999805726111},{""stimulus"":""run_exp/static/images/task_images/land.jpg"",""time"":668.0700000142679},{""stimulus"":""run_exp/static/images/task_images/dig.jpg"",""time"":1340.1849999791011}]",[],18,,,,,,,,,,,,,,
harvest,241,794485,0.0-67.0-4.0,,null,run_exp/static/images/task_images/gems/109.jpg,null,,,,,,76,,,18,,,,,109,0.701161263,0.697247706,,,,,,,
decision,242,794838,0.0-67.0-5.0,,351.595,run_exp/static/images/task_images/land.jpg,65,,,,,,76,,,18,,,,,,,,103001,2,0,FALSE,,,
dig,243,797492,0.0-68.0-0.0,,,,,,,,,,,"[{""stimulus"":""run_exp/static/images/task_images/dig.jpg"",""time"":0.1449999981559813},{""stimulus"":""run_exp/static/images/task_images/land.jpg"",""time"":885.710000002291},{""stimulus"":""run_exp/static/images/task_images/dig.jpg"",""time"":1765.2200000011362}]",[],18,,,,,,,,,,,,,,
harvest,244,798496,0.0-68.0-1.0,,null,run_exp/static/images/task_images/gems/76.jpg,null,,,,,,57,,,18,,,,,76,0.753359744,0.75,,,,,,,
decision,245,798971,0.0-68.0-2.0,,473.77,run_exp/static/images/task_images/land.jpg,65,,,,,,57,,,18,,,,,,,,107134,2,1,FALSE,,,
dig,246,801502,0.0-69.0-0.0,,,,,,,,,,,"[{""stimulus"":""run_exp/static/images/task_images/dig.jpg"",""time"":0.18499995348975062},{""stimulus"":""run_exp/static/images/task_images/land.jpg"",""time"":844.9949999921955},{""stimulus"":""run_exp/static/images/task_images/dig.jpg"",""time"":1685.0199999753386}]",[],18,,,,,,,,,,,,,,
harvest,247,802507,0.0-69.0-1.0,,null,run_exp/static/images/task_images/gems/57.jpg,null,,,,,,50,,,18,,,,,57,0.885422769,0.877192982,,,,,,,
decision,248,803324,0.0-69.0-2.0,,815.5,run_exp/static/images/task_images/land.jpg,76,,,,,,50,,,18,,,,,,,,111487,2,2,TRUE,,,
travel,249,812509,0.0-70.0-0.0,,,,,,,,,,,"[{""stimulus"":""run_exp/static/images/task_images/rocket-01.jpg"",""time"":0.1550000160932541},{""stimulus"":""run_exp/static/images/task_images/rocket-02.jpg"",""time"":1023.8950000493787},{""stimulus"":""run_exp/static/images/task_images/rocket-03.jpg"",""time"":2041.5700000012293},{""stimulus"":""run_exp/static/images/task_images/rocket-04.jpg"",""time"":3063.300000037998},{""stimulus"":""run_exp/static/images/task_images/rocket-05.jpg"",""time"":4082.0800000219606},{""stimulus"":""run_exp/static/images/task_images/rocket-06.jpg"",""time"":5101.34500003187},{""stimulus"":""run_exp/static/images/task_images/rocket-07.jpg"",""time"":6125.250000040978},{""stimulus"":""run_exp/static/images/task_images/rocket-08.jpg"",""time"":7143.995000049472},{""stimulus"":""run_exp/static/images/task_images/rocket-09.jpg"",""time"":8164.055000001099}]",[],18,,,,,,,,,,,,,,
alien_welcome,250,817512,0.0-70.0-1.0,,null,run_exp/static/images/task_images/aliens/old_aliens/planet/alien_planet-63.jpg,null,,,,,,,,,,,,63,"12,80,26,43,44,3,59,58,39,75,71,76,4,66,46,41,24,17,63,18,33,47,22,1,56,74,28,70,21,65,54,6,67,32,57,38,23,37,77,55,30,16,15,35,29,42,13,62,79,31,52,78",,,,,,,,,,
land,251,818015,0.0-70.0-2.0,,null,run_exp/static/images/task_images/land.jpg,null,,,,,,104,,,19,,,,,,,,,,,,,,
dig,252,820020,0.0-70.0-3.0,,,,,,,,,,,"[{""stimulus"":""run_exp/static/images/task_images/dig.jpg"",""time"":0.26000000070780516},{""stimulus"":""run_exp/static/images/task_images/land.jpg"",""time"":673.1799999834038},{""stimulus"":""run_exp/static/images/task_images/dig.jpg"",""time"":1340.2099999948405}]",[],19,,,,,,,,,,,,,,
harvest,253,821026,0.0-70.0-4.0,,null,run_exp/static/images/task_images/gems/104.jpg,null,,,,,,87,,,19,,,,,104,0.832222433,0.836538462,,,,,,,
decision,254,821438,0.0-70.0-5.0,,409.925,run_exp/static/images/task_images/land.jpg,65,,,,,,87,,,19,,,,,,,,129601,2,0,FALSE,,,
dig,255,824031,0.0-71.0-0.0,,,,,,,,,,,"[{""stimulus"":""run_exp/static/images/task_images/dig.jpg"",""time"":0.1449999981559813},{""stimulus"":""run_exp/static/images/task_images/land.jpg"",""time"":864.0199999790639},{""stimulus"":""run_exp/static/images/task_images/dig.jpg"",""time"":1726.8000000040047}]",[],19,,,,,,,,,,,,,,
harvest,256,825035,0.0-71.0-1.0,,null,run_exp/static/images/task_images/gems/87.jpg,null,,,,,,73,,,19,,,,,87,0.838262409,0.83908046,,,,,,,
decision,257,825773,0.0-71.0-2.0,,735.98,run_exp/static/images/task_images/land.jpg,65,,,,,,73,,,19,,,,,,,,133936,2,1,FALSE,,,
dig,258,828042,0.0-72.0-0.0,,,,,,,,,,,"[{""stimulus"":""run_exp/static/images/task_images/dig.jpg"",""time"":0.13999996008351445},{""stimulus"":""run_exp/static/images/task_images/land.jpg"",""time"":755.0199999823235},{""stimulus"":""run_exp/static/images/task_images/dig.jpg"",""time"":1511.1099999630824}]",[],19,,,,,,,,,,,,,,
harvest,259,829048,0.0-72.0-1.0,,null,run_exp/static/images/task_images/gems/73.jpg,null,,,,,,61,,,19,,,,,73,0.829559668,0.835616438,,,,,,,
decision,260,830333,0.0-72.0-2.0,,1282.795,run_exp/static/images/task_images/land.jpg,65,,,,,,61,,,19,,,,,,,,138496,2,2,FALSE,,,
dig,261,832060,0.0-73.0-0.0,,,,,,,,,,,"[{""stimulus"":""run_exp/static/images/task_images/dig.jpg"",""time"":0.13500003842636943},{""stimulus"":""run_exp/static/images/task_images/land.jpg"",""time"":577.9600000241771},{""stimulus"":""run_exp/static/images/task_images/dig.jpg"",""time"":1147.6050000055693}]",[],19,,,,,,,,,,,,,,
harvest,262,833064,0.0-73.0-1.0,,null,run_exp/static/images/task_images/gems/61.jpg,null,,,,,,52,,,19,,,,,61,0.847070781,0.852459016,,,,,,,
decision,263,833426,0.0-73.0-2.0,,360.5,run_exp/static/images/task_images/land.jpg,76,,,,,,52,,,19,,,,,,,,141589,2,3,TRUE,,,
travel,264,843069,0.0-74.0-0.0,,,,,,,,,,,"[{""stimulus"":""run_exp/static/images/task_images/rocket-01.jpg"",""time"":0.15000003622844815},{""stimulus"":""run_exp/static/images/task_images/rocket-02.jpg"",""time"":1074.0400000358932},{""stimulus"":""run_exp/static/images/task_images/rocket-03.jpg"",""time"":2147.6000000257045},{""stimulus"":""run_exp/static/images/task_images/rocket-04.jpg"",""time"":3214.2450000392273},{""stimulus"":""run_exp/static/images/task_images/rocket-05.jpg"",""time"":4290.02000001492},{""stimulus"":""run_exp/static/images/task_images/rocket-06.jpg"",""time"":5361.010000051465},{""stimulus"":""run_exp/static/images/task_images/rocket-07.jpg"",""time"":6432.005000009667},{""stimulus"":""run_exp/static/images/task_images/rocket-08.jpg"",""time"":7498.990000050981},{""stimulus"":""run_exp/static/images/task_images/rocket-09.jpg"",""time"":8574.040000035893}]",[],19,,,,,,,,,,,,,,
alien_welcome,265,848075,0.0-74.0-1.0,,null,run_exp/static/images/task_images/aliens/old_aliens/planet/alien_planet-18.jpg,null,,,,,,,,,,,,18,"12,80,26,43,44,3,59,58,39,75,71,76,4,66,46,41,24,17,63,18,33,47,22,1,56,74,28,70,21,65,54,6,67,32,57,38,23,37,77,55,30,16,15,35,29,42,13,62,79,31,52,78",,,,,,,,,,
land,266,848580,0.0-74.0-2.0,,null,run_exp/static/images/task_images/land.jpg,null,,,,,,101,,,20,,,,,,,,,,,,,,
dig,267,850588,0.0-74.0-3.0,,,,,,,,,,,"[{""stimulus"":""run_exp/static/images/task_images/dig.jpg"",""time"":0.24999998277053237},{""stimulus"":""run_exp/static/images/task_images/land.jpg"",""time"":672.3350000102073},{""stimulus"":""run_exp/static/images/task_images/dig.jpg"",""time"":1340.1750000193715}]",[],20,,,,,,,,,,,,,,
harvest,268,851594,0.0-74.0-4.0,,null,run_exp/static/images/task_images/gems/101.jpg,null,,,,,,76,,,20,,,,,101,0.755232798,0.752475248,,,,,,,
decision,269,851764,0.0-74.0-5.0,,169.075,run_exp/static/images/task_images/land.jpg,65,,,,,,76,,,20,,,,,,,,159928,2,0,FALSE,,,
dig,270,854598,0.0-75.0-0.0,,,,,,,,,,,"[{""stimulus"":""run_exp/static/images/task_images/dig.jpg"",""time"":0.13999996008351445},{""stimulus"":""run_exp/static/images/task_images/land.jpg"",""time"":945.7249999977648},{""stimulus"":""run_exp/static/images/task_images/dig.jpg"",""time"":1891.9999999925494}]",[],20,,,,,,,,,,,,,,
harvest,271,855604,0.0-75.0-1.0,,null,run_exp/static/images/task_images/gems/76.jpg,null,,,,,,62,,,20,,,,,76,0.815856541,0.815789474,,,,,,,
decision,272,855968,0.0-75.0-2.0,,362.195,run_exp/static/images/task_images/land.jpg,65,,,,,,62,,,20,,,,,,,,164131,2,1,FALSE,,,
dig,273,858610,0.0-76.0-0.0,,,,,,,,,,,"[{""stimulus"":""run_exp/static/images/task_images/dig.jpg"",""time"":0.13499998021870852},{""stimulus"":""run_exp/static/images/task_images/land.jpg"",""time"":884.9749999935739},{""stimulus"":""run_exp/static/images/task_images/dig.jpg"",""time"":1758.9649999863468}]",[],20,,,,,,,,,,,,,,
harvest,274,859614,0.0-76.0-1.0,,null,run_exp/static/images/task_images/gems/62.jpg,null,,,,,,51,,,20,,,,,62,0.822791818,0.822580645,,,,,,,
decision,275,860080,0.0-76.0-2.0,,464.805,run_exp/static/images/task_images/land.jpg,76,,,,,,51,,,20,,,,,,,,168243,2,2,TRUE,,,
travel,276,869620,0.0-77.0-0.0,,,,,,,,,,,"[{""stimulus"":""run_exp/static/images/task_images/rocket-01.jpg"",""time"":0.15000003622844815},{""stimulus"":""run_exp/static/images/task_images/rocket-02.jpg"",""time"":1064.9950000224635},{""stimulus"":""run_exp/static/images/task_images/rocket-03.jpg"",""time"":2124.0150000085123},{""stimulus"":""run_exp/static/images/task_images/rocket-04.jpg"",""time"":3182.3399999993853},{""stimulus"":""run_exp/static/images/task_images/rocket-05.jpg"",""time"":4241.730000008829},{""stimulus"":""run_exp/static/images/task_images/rocket-06.jpg"",""time"":5296.275000029709},{""stimulus"":""run_exp/static/images/task_images/rocket-07.jpg"",""time"":6358.2400000304915},{""stimulus"":""run_exp/static/images/task_images/rocket-08.jpg"",""time"":7414.685000025202},{""stimulus"":""run_exp/static/images/task_images/rocket-09.jpg"",""time"":8476.17000003811}]",[],20,,,,,,,,,,,,,,
alien_welcome,277,874625,0.0-77.0-1.0,,null,run_exp/static/images/task_images/aliens/old_aliens/planet/alien_planet-33.jpg,null,,,,,,,,,,,,33,"12,80,26,43,44,3,59,58,39,75,71,76,4,66,46,41,24,17,63,18,33,47,22,1,56,74,28,70,21,65,54,6,67,32,57,38,23,37,77,55,30,16,15,35,29,42,13,62,79,31,52,78",,,,,,,,,,
land,278,875131,0.0-77.0-2.0,,null,run_exp/static/images/task_images/land.jpg,null,,,,,,98,,,21,,,,,,,,,,,,,,
dig,279,877138,0.0-77.0-3.0,,,,,,,,,,,"[{""stimulus"":""run_exp/static/images/task_images/dig.jpg"",""time"":0.26000000070780516},{""stimulus"":""run_exp/static/images/task_images/land.jpg"",""time"":673.160000005737},{""stimulus"":""run_exp/static/images/task_images/dig.jpg"",""time"":1336.9000000529923}]",[],21,,,,,,,,,,,,,,
harvest,280,878144,0.0-77.0-4.0,,null,run_exp/static/images/task_images/gems/98.jpg,null,,,,,,77,,,21,,,,,98,0.78309839,0.785714286,,,,,,,
decision,281,878379,0.0-77.0-5.0,,233.995,run_exp/static/images/task_images/land.jpg,65,,,,,,77,,,21,,,,,,,,186542,2,0,FALSE,,,
dig,282,881150,0.0-78.0-0.0,,,,,,,,,,,"[{""stimulus"":""run_exp/static/images/task_images/dig.jpg"",""time"":0.13000000035390258},{""stimulus"":""run_exp/static/images/task_images/land.jpg"",""time"":925.6349999923259},{""stimulus"":""run_exp/static/images/task_images/dig.jpg"",""time"":1845.389999973122}]",[],21,,,,,,,,,,,,,,
harvest,283,882154,0.0-78.0-1.0,,null,run_exp/static/images/task_images/gems/77.jpg,null,,,,,,63,,,21,,,,,77,0.814329893,0.818181818,,,,,,,
decision,284,883712,0.0-78.0-2.0,,1555.9,run_exp/static/images/task_images/land.jpg,65,,,,,,63,,,21,,,,,,,,191875,2,1,FALSE,,,
dig,285,885161,0.0-79.0-0.0,,,,,,,,,,,"[{""stimulus"":""run_exp/static/images/task_images/dig.jpg"",""time"":0.13500003842636943},{""stimulus"":""run_exp/static/images/task_images/land.jpg"",""time"":483.21000003488734},{""stimulus"":""run_exp/static/images/task_images/dig.jpg"",""time"":968.0050000315532}]",[],21,,,,,,,,,,,,,,
harvest,286,886167,0.0-79.0-1.0,,null,run_exp/static/images/task_images/gems/63.jpg,null,,,,,,52,,,21,,,,,63,0.825646531,0.825396825,,,,,,,
decision,287,886407,0.0-79.0-2.0,,238.79,run_exp/static/images/task_images/land.jpg,76,,,,,,52,,,21,,,,,,,,194571,2,2,TRUE,,,
travel,288,896172,0.0-80.0-0.0,,,,,,,,,,,"[{""stimulus"":""run_exp/static/images/task_images/rocket-01.jpg"",""time"":0.13499998021870852},{""stimulus"":""run_exp/static/images/task_images/rocket-02.jpg"",""time"":1085.8850000076927},{""stimulus"":""run_exp/static/images/task_images/rocket-03.jpg"",""time"":2174.0399999544024},{""stimulus"":""run_exp/static/images/task_images/rocket-04.jpg"",""time"":3256.6549999755807},{""stimulus"":""run_exp/static/images/task_images/rocket-05.jpg"",""time"":4340.184999979101},{""stimulus"":""run_exp/static/images/task_images/rocket-06.jpg"",""time"":5424.735000007786},{""stimulus"":""run_exp/static/images/task_images/rocket-07.jpg"",""time"":6509.969999955501},{""stimulus"":""run_exp/static/images/task_images/rocket-08.jpg"",""time"":7592.354999971576},{""stimulus"":""run_exp/static/images/task_images/rocket-09.jpg"",""time"":8677.150000003166}]",[],21,,,,,,,,,,,,,,
alien_welcome,289,901179,0.0-80.0-1.0,,null,run_exp/static/images/task_images/aliens/old_aliens/planet/alien_planet-47.jpg,null,,,,,,,,,,,,47,"12,80,26,43,44,3,59,58,39,75,71,76,4,66,46,41,24,17,63,18,33,47,22,1,56,74,28,70,21,65,54,6,67,32,57,38,23,37,77,55,30,16,15,35,29,42,13,62,79,31,52,78",,,,,,,,,,
land,290,901682,0.0-80.0-2.0,,null,run_exp/static/images/task_images/land.jpg,null,,,,,,102,,,22,,,,,,,,,,,,,,
dig,291,903690,0.0-80.0-3.0,,,,,,,,,,,"[{""stimulus"":""run_exp/static/images/task_images/dig.jpg"",""time"":0.2549999626353383},{""stimulus"":""run_exp/static/images/task_images/land.jpg"",""time"":670.9999999729916},{""stimulus"":""run_exp/static/images/task_images/dig.jpg"",""time"":1340.1650000014342}]",[],22,,,,,,,,,,,,,,
harvest,292,904696,0.0-80.0-4.0,,null,run_exp/static/images/task_images/gems/102.jpg,null,,,,,,54,,,22,,,,,102,0.526546015,0.529411765,,,,,,,
decision,293,905125,0.0-80.0-5.0,,427.575,run_exp/static/images/task_images/land.jpg,65,,,,,,54,,,22,,,,,,,,213288,2,0,FALSE,,,
dig,294,907701,0.0-81.0-0.0,,,,,,,,,,,"[{""stimulus"":""run_exp/static/images/task_images/dig.jpg"",""time"":0.13000000035390258},{""stimulus"":""run_exp/static/images/task_images/land.jpg"",""time"":859.0349999722093},{""stimulus"":""run_exp/static/images/task_images/dig.jpg"",""time"":1718.654999975115}]",[],22,,,,,,,,,,,,,,
harvest,295,908704,0.0-81.0-1.0,,null,run_exp/static/images/task_images/gems/54.jpg,null,,,,,,20,,,22,,,,,54,0.364864604,0.37037037,,,,,,,
decision,296,909188,0.0-81.0-2.0,,481.995,run_exp/static/images/task_images/land.jpg,76,,,,,,20,,,22,,,,,,,,217351,2,1,TRUE,,,
travel,297,918707,0.0-82.0-0.0,,,,,,,,,,,"[{""stimulus"":""run_exp/static/images/task_images/rocket-01.jpg"",""time"":0.15499995788559318},{""stimulus"":""run_exp/static/images/task_images/rocket-02.jpg"",""time"":1058.7349999696016},{""stimulus"":""run_exp/static/images/task_images/rocket-03.jpg"",""time"":2119.994999957271},{""stimulus"":""run_exp/static/images/task_images/rocket-04.jpg"",""time"":3173.349999997299},{""stimulus"":""run_exp/static/images/task_images/rocket-05.jpg"",""time"":4231.634999974631},{""stimulus"":""run_exp/static/images/task_images/rocket-06.jpg"",""time"":5290.999999968335},{""stimulus"":""run_exp/static/images/task_images/rocket-07.jpg"",""time"":6347.985000000335},{""stimulus"":""run_exp/static/images/task_images/rocket-08.jpg"",""time"":7404.724999971222},{""stimulus"":""run_exp/static/images/task_images/rocket-09.jpg"",""time"":8461.985000001732}]",[],22,,,,,,,,,,,,,,
alien_welcome,298,923713,0.0-82.0-1.0,,null,run_exp/static/images/task_images/aliens/old_aliens/planet/alien_planet-22.jpg,null,,,,,,,,,,,,22,"12,80,26,43,44,3,59,58,39,75,71,76,4,66,46,41,24,17,63,18,33,47,22,1,56,74,28,70,21,65,54,6,67,32,57,38,23,37,77,55,30,16,15,35,29,42,13,62,79,31,52,78",,,,,,,,,,
land,299,924220,0.0-82.0-2.0,,null,run_exp/static/images/task_images/land.jpg,null,,,,,,102,,,23,,,,,,,,,,,,,,
dig,300,926224,0.0-82.0-3.0,,,,,,,,,,,"[{""stimulus"":""run_exp/static/images/task_images/dig.jpg"",""time"":0.1700000138953328},{""stimulus"":""run_exp/static/images/task_images/land.jpg"",""time"":671.1849999846891},{""stimulus"":""run_exp/static/images/task_images/dig.jpg"",""time"":1337.8999999840744}]",[],23,,,,,,,,,,,,,,
harvest,301,927229,0.0-82.0-4.0,,null,run_exp/static/images/task_images/gems/102.jpg,null,,,,,,68,,,23,,,,,102,0.668163524,0.666666667,,,,,,,
decision,302,930235,0.0-82.0-5.0,,null,run_exp/static/images/task_images/land.jpg,null,,,,,,68,,,23,,,,,,,,238398,2,0,FALSE,,,
time_out,303,932243,0.0-83.0-0.0,,null,run_exp/static/images/task_images/time_out.jpg,null,,,,,,68,,,,,,,,,,,,,,,,,
decision,304,932929,0.0-83.0-1.0,,684.2,run_exp/static/images/task_images/land.jpg,65,,,,,,68,,,23,,,,,,,,241092,2,0,FALSE,,,
dig,305,935250,0.0-84.0-0.0,,,,,,,,,,,"[{""stimulus"":""run_exp/static/images/task_images/dig.jpg"",""time"":0.15000003622844815},{""stimulus"":""run_exp/static/images/task_images/land.jpg"",""time"":774.9649999896064},{""stimulus"":""run_exp/static/images/task_images/dig.jpg"",""time"":1545.8700000308454}]",[],23,,,,,,,,,,,,,,
harvest,306,936255,0.0-84.0-1.0,,null,run_exp/static/images/task_images/gems/68.jpg,null,,,,,,48,,,23,,,,,68,0.703174366,0.705882353,,,,,,,
decision,307,937002,0.0-84.0-2.0,,745.42,run_exp/static/images/task_images/land.jpg,76,,,,,,48,,,23,,,,,,,,245165,2,1,TRUE,,,
travel,308,946262,0.0-85.0-0.0,,,,,,,,,,,"[{""stimulus"":""run_exp/static/images/task_images/rocket-01.jpg"",""time"":0.13499998021870852},{""stimulus"":""run_exp/static/images/task_images/rocket-02.jpg"",""time"":1033.960000029765},{""stimulus"":""run_exp/static/images/task_images/rocket-03.jpg"",""time"":2058.9749999926426},{""stimulus"":""run_exp/static/images/task_images/rocket-04.jpg"",""time"":3085.4699999908917},{""stimulus"":""run_exp/static/images/task_images/rocket-05.jpg"",""time"":4117.979999980889},{""stimulus"":""run_exp/static/images/task_images/rocket-06.jpg"",""time"":5143.915000022389},{""stimulus"":""run_exp/static/images/task_images/rocket-07.jpg"",""time"":6169.050000025891},{""stimulus"":""run_exp/static/images/task_images/rocket-08.jpg"",""time"":7201.969999994617},{""stimulus"":""run_exp/static/images/task_images/rocket-09.jpg"",""time"":8225.745000003371}]",[],23,,,,,,,,,,,,,,
alien_welcome,309,951266,0.0-85.0-1.0,,null,run_exp/static/images/task_images/aliens/old_aliens/planet/alien_planet-1.jpg,null,,,,,,,,,,,,1,"12,80,26,43,44,3,59,58,39,75,71,76,4,66,46,41,24,17,63,18,33,47,22,1,56,74,28,70,21,65,54,6,67,32,57,38,23,37,77,55,30,16,15,35,29,42,13,62,79,31,52,78",,,,,,,,,,
land,310,951773,0.0-85.0-2.0,,null,run_exp/static/images/task_images/land.jpg,null,,,,,,97,,,24,,,,,,,,,,,,,,
dig,311,953780,0.0-85.0-3.0,,,,,,,,,,,"[{""stimulus"":""run_exp/static/images/task_images/dig.jpg"",""time"":0.26000000070780516},{""stimulus"":""run_exp/static/images/task_images/land.jpg"",""time"":668.3549999725074},{""stimulus"":""run_exp/static/images/task_images/dig.jpg"",""time"":1338.4599999990314}]",[],24,,,,,,,,,,,,,,
harvest,312,954784,0.0-85.0-4.0,,null,run_exp/static/images/task_images/gems/97.jpg,null,,,,,,78,,,24,,,,,97,0.801247627,0.804123711,,,,,,,
decision,313,955483,0.0-85.0-5.0,,697.43,run_exp/static/images/task_images/land.jpg,65,,,,,,78,,,24,,,,,,,,263646,2,0,FALSE,,,
dig,314,957791,0.0-86.0-0.0,,,,,,,,,,,"[{""stimulus"":""run_exp/static/images/task_images/dig.jpg"",""time"":0.14000001829117537},{""stimulus"":""run_exp/static/images/task_images/land.jpg"",""time"":769.8700000182725},{""stimulus"":""run_exp/static/images/task_images/dig.jpg"",""time"":1539.9800000013784}]",[],24,,,,,,,,,,,,,,
harvest,315,958797,0.0-86.0-1.0,,null,run_exp/static/images/task_images/gems/78.jpg,null,,,,,,58,,,24,,,,,78,0.748463116,0.743589744,,,,,,,
decision,316,959189,0.0-86.0-2.0,,390.32,run_exp/static/images/task_images/land.jpg,76,,,,,,58,,,24,,,,,,,,267352,2,1,TRUE,,,
travel,317,968796,0.0-87.0-0.0,,,,,,,,,,,"[{""stimulus"":""run_exp/static/images/task_images/rocket-01.jpg"",""time"":0.14000001829117537},{""stimulus"":""run_exp/static/images/task_images/rocket-02.jpg"",""time"":1071.4700000244193},{""stimulus"":""run_exp/static/images/task_images/rocket-03.jpg"",""time"":2138.4800000232644},{""stimulus"":""run_exp/static/images/task_images/rocket-04.jpg"",""time"":3206.049999978859},{""stimulus"":""run_exp/static/images/task_images/rocket-05.jpg"",""time"":4270.810000016354},{""stimulus"":""run_exp/static/images/task_images/rocket-06.jpg"",""time"":5338.745000015479},{""stimulus"":""run_exp/static/images/task_images/rocket-07.jpg"",""time"":6404.510000022128},{""stimulus"":""run_exp/static/images/task_images/rocket-08.jpg"",""time"":7474.975000019185},{""stimulus"":""run_exp/static/images/task_images/rocket-09.jpg"",""time"":8541.989999997895}]",[],24,,,,,,,,,,,,,,
alien_welcome,318,973799,0.0-87.0-1.0,,null,run_exp/static/images/task_images/aliens/old_aliens/planet/alien_planet-56.jpg,null,,,,,,,,,,,,56,"12,80,26,43,44,3,59,58,39,75,71,76,4,66,46,41,24,17,63,18,33,47,22,1,56,74,28,70,21,65,54,6,67,32,57,38,23,37,77,55,30,16,15,35,29,42,13,62,79,31,52,78",,,,,,,,,,
land,319,974305,0.0-87.0-2.0,,null,run_exp/static/images/task_images/land.jpg,null,,,,,,106,,,25,,,,,,,,,,,,,,
dig,320,976310,0.0-87.0-3.0,,,,,,,,,,,"[{""stimulus"":""run_exp/static/images/task_images/dig.jpg"",""time"":0.21500000730156898},{""stimulus"":""run_exp/static/images/task_images/land.jpg"",""time"":669.2950000287965},{""stimulus"":""run_exp/static/images/task_images/dig.jpg"",""time"":1340.0900000124238}]",[],25,,,,,,,,,,,,,,
harvest,321,977312,0.0-87.0-4.0,,null,run_exp/static/images/task_images/gems/106.jpg,null,,,,,,23,,,25,,,,,106,0.217984331,0.216981132,,,,,,,
decision,322,977686,0.0-87.0-5.0,,372.785,run_exp/static/images/task_images/land.jpg,65,,,,,,23,,,25,,,,,,,,285849,2,0,FALSE,,,
dig,323,980315,0.0-88.0-0.0,,,,,,,,,,,"[{""stimulus"":""run_exp/static/images/task_images/dig.jpg"",""time"":0.13500003842636943},{""stimulus"":""run_exp/static/images/task_images/land.jpg"",""time"":880.890000029467},{""stimulus"":""run_exp/static/images/task_images/dig.jpg"",""time"":1753.240000049118}]",[],25,,,,,,,,,,,,,,
harvest,324,981317,0.0-88.0-1.0,,null,run_exp/static/images/task_images/gems/23.jpg,null,,,,,,4,,,25,,,,,23,0.179563469,0.173913043,,,,,,,
decision,325,982012,0.0-88.0-2.0,,694.14,run_exp/static/images/task_images/land.jpg,76,,,,,,4,,,25,,,,,,,,290176,2,1,TRUE,,,
travel,326,991319,0.0-89.0-0.0,,,,,,,,,,,"[{""stimulus"":""run_exp/static/images/task_images/rocket-01.jpg"",""time"":0.14000001829117537},{""stimulus"":""run_exp/static/images/task_images/rocket-02.jpg"",""time"":1033.945000031963},{""stimulus"":""run_exp/static/images/task_images/rocket-03.jpg"",""time"":2068.859999999404},{""stimulus"":""run_exp/static/images/task_images/rocket-04.jpg"",""time"":3104.9800000037067},{""stimulus"":""run_exp/static/images/task_images/rocket-05.jpg"",""time"":4136.869999987539},{""stimulus"":""run_exp/static/images/task_images/rocket-06.jpg"",""time"":5167.675000033341},{""stimulus"":""run_exp/static/images/task_images/rocket-07.jpg"",""time"":6201.980000012554},{""stimulus"":""run_exp/static/images/task_images/rocket-08.jpg"",""time"":7236.510000017006},{""stimulus"":""run_exp/static/images/task_images/rocket-09.jpg"",""time"":8265.65000001574}]",[],25,,,,,,,,,,,,,,
alien_welcome,327,996321,0.0-89.0-1.0,,null,run_exp/static/images/task_images/aliens/old_aliens/planet/alien_planet-74.jpg,null,,,,,,,,,,,,74,"12,80,26,43,44,3,59,58,39,75,71,76,4,66,46,41,24,17,63,18,33,47,22,1,56,74,28,70,21,65,54,6,67,32,57,38,23,37,77,55,30,16,15,35,29,42,13,62,79,31,52,78",,,,,,,,,,
land,328,996828,0.0-89.0-2.0,,null,run_exp/static/images/task_images/land.jpg,null,,,,,,97,,,26,,,,,,,,,,,,,,
dig,329,998832,0.0-89.0-3.0,,,,,,,,,,,"[{""stimulus"":""run_exp/static/images/task_images/dig.jpg"",""time"":0.26000000070780516},{""stimulus"":""run_exp/static/images/task_images/land.jpg"",""time"":668.1850000168197},{""stimulus"":""run_exp/static/images/task_images/dig.jpg"",""time"":1335.480000008829}]",[],26,,,,,,,,,,,,,,
harvest,330,999837,0.0-89.0-4.0,,null,run_exp/static/images/task_images/gems/97.jpg,null,,,,,,21,,,26,,,,,97,0.215046629,0.216494845,,,,,,,
decision,331,1001788,0.0-89.0-5.0,,1949.775,run_exp/static/images/task_images/land.jpg,76,,,,,,21,,,26,,,,,,,,309951,2,0,TRUE,,,
end_of_block_continue,332,1010649,0.0-90.0-0.0,,null,run_exp/static/audio/clip_32_block_end.m4a,,,,,,null,,,,,,,,,,,,,,,,,,
alien_welcome,333,1015658,0.0-91.0-0.0,,null,run_exp/static/images/task_images/aliens/old_aliens/planet/alien_planet-28.jpg,null,,,,,,,,,,,,28,"12,80,26,43,44,3,59,58,39,75,71,76,4,66,46,41,24,17,63,18,33,47,22,1,56,74,28,70,21,65,54,6,67,32,57,38,23,37,77,55,30,16,15,35,29,42,13,62,79,31,52,78",,,,,,,,,,
land,334,1016159,0.0-91.0-1.0,,null,run_exp/static/images/task_images/land.jpg,null,,,,,,105,,,27,,,,,,,,,,,,,,
dig,335,1018167,0.0-91.0-2.0,,,,,,,,,,,"[{""stimulus"":""run_exp/static/images/task_images/dig.jpg"",""time"":0.2549999626353383},{""stimulus"":""run_exp/static/images/task_images/land.jpg"",""time"":673.175000003539},{""stimulus"":""run_exp/static/images/task_images/dig.jpg"",""time"":1338.5750000015832}]",[],27,,,,,,,,,,,,,,
harvest,336,1019171,0.0-91.0-3.0,,null,run_exp/static/images/task_images/gems/105.jpg,null,,,,,,52,,,27,,,,,105,0.499744887,0.495238095,,,,,,,
decision,337,1019955,0.0-91.0-4.0,,783.35,run_exp/static/images/task_images/land.jpg,65,,,,,,52,,,27,,,,,,,,9299,3,0,FALSE,,,
dig,338,1022177,0.0-92.0-0.0,,,,,,,,,,,"[{""stimulus"":""run_exp/static/images/task_images/dig.jpg"",""time"":0.13000000035390258},{""stimulus"":""run_exp/static/images/task_images/land.jpg"",""time"":739.5400000386871},{""stimulus"":""run_exp/static/images/task_images/dig.jpg"",""time"":1477.4250000482425}]",[],27,,,,,,,,,,,,,,
harvest,339,1023183,0.0-92.0-1.0,,null,run_exp/static/images/task_images/gems/52.jpg,null,,,,,,27,,,27,,,,,52,0.518448929,0.519230769,,,,,,,
decision,340,1023636,0.0-92.0-2.0,,452.02,run_exp/static/images/task_images/land.jpg,76,,,,,,27,,,27,,,,,,,,12980,3,1,TRUE,,,
travel,341,1033183,0.0-93.0-0.0,,,,,,,,,,,"[{""stimulus"":""run_exp/static/images/task_images/rocket-01.jpg"",""time"":0.13499998021870852},{""stimulus"":""run_exp/static/images/task_images/rocket-02.jpg"",""time"":1065.969999996014},{""stimulus"":""run_exp/static/images/task_images/rocket-03.jpg"",""time"":2125.2000000094995},{""stimulus"":""run_exp/static/images/task_images/rocket-04.jpg"",""time"":3185.989999969024},{""stimulus"":""run_exp/static/images/task_images/rocket-05.jpg"",""time"":4245.974999968894},{""stimulus"":""run_exp/static/images/task_images/rocket-06.jpg"",""time"":5304.750000010245},{""stimulus"":""run_exp/static/images/task_images/rocket-07.jpg"",""time"":6365.974999964237},{""stimulus"":""run_exp/static/images/task_images/rocket-08.jpg"",""time"":7424.809999996796},{""stimulus"":""run_exp/static/images/task_images/rocket-09.jpg"",""time"":8485.969999979716}]",[],27,,,,,,,,,,,,,,
alien_welcome,342,1038187,0.0-93.0-1.0,,null,run_exp/static/images/task_images/aliens/old_aliens/planet/alien_planet-70.jpg,null,,,,,,,,,,,,70,"12,80,26,43,44,3,59,58,39,75,71,76,4,66,46,41,24,17,63,18,33,47,22,1,56,74,28,70,21,65,54,6,67,32,57,38,23,37,77,55,30,16,15,35,29,42,13,62,79,31,52,78",,,,,,,,,,
land,343,1038691,0.0-93.0-2.0,,null,run_exp/static/images/task_images/land.jpg,null,,,,,,94,,,28,,,,,,,,,,,,,,
dig,344,1040695,0.0-93.0-3.0,,,,,,,,,,,"[{""stimulus"":""run_exp/static/images/task_images/dig.jpg"",""time"":0.265000038780272},{""stimulus"":""run_exp/static/images/task_images/land.jpg"",""time"":673.1700000236742},{""stimulus"":""run_exp/static/images/task_images/dig.jpg"",""time"":1340.1600000215694}]",[],28,,,,,,,,,,,,,,
harvest,345,1041701,0.0-93.0-4.0,,null,run_exp/static/images/task_images/gems/94.jpg,null,,,,,,72,,,28,,,,,94,0.767435695,0.765957447,,,,,,,
decision,346,1042881,0.0-93.0-5.0,,1178.665,run_exp/static/images/task_images/land.jpg,65,,,,,,72,,,28,,,,,,,,32225,3,0,FALSE,,,
dig,347,1044707,0.0-94.0-0.0,,,,,,,,,,,"[{""stimulus"":""run_exp/static/images/task_images/dig.jpg"",""time"":0.13499998021870852},{""stimulus"":""run_exp/static/images/task_images/land.jpg"",""time"":608.6749999667518},{""stimulus"":""run_exp/static/images/task_images/dig.jpg"",""time"":1216.4749999647029}]",[],28,,,,,,,,,,,,,,
harvest,348,1045710,0.0-94.0-1.0,,null,run_exp/static/images/task_images/gems/72.jpg,null,,,,,,62,,,28,,,,,72,0.854878589,0.861111111,,,,,,,
decision,349,1046185,0.0-94.0-2.0,,473.375,run_exp/static/images/task_images/land.jpg,76,,,,,,62,,,28,,,,,,,,35529,3,1,TRUE,,,
travel,350,1055716,0.0-95.0-0.0,,,,,,,,,,,"[{""stimulus"":""run_exp/static/images/task_images/rocket-01.jpg"",""time"":0.13000000035390258},{""stimulus"":""run_exp/static/images/task_images/rocket-02.jpg"",""time"":1060.0349999731407},{""stimulus"":""run_exp/static/images/task_images/rocket-03.jpg"",""time"":2121.93500000285},{""stimulus"":""run_exp/static/images/task_images/rocket-04.jpg"",""time"":3177.01499996474},{""stimulus"":""run_exp/static/images/task_images/rocket-05.jpg"",""time"":4237.414999981411},{""stimulus"":""run_exp/static/images/task_images/rocket-06.jpg"",""time"":5295.960000017658},{""stimulus"":""run_exp/static/images/task_images/rocket-07.jpg"",""time"":6353.9899999741465},{""stimulus"":""run_exp/static/images/task_images/rocket-08.jpg"",""time"":7407.185000018217},{""stimulus"":""run_exp/static/images/task_images/rocket-09.jpg"",""time"":8469.969999976456}]",[],28,,,,,,,,,,,,,,
alien_welcome,351,1060722,0.0-95.0-1.0,,null,run_exp/static/images/task_images/aliens/old_aliens/planet/alien_planet-21.jpg,null,,,,,,,,,,,,21,"12,80,26,43,44,3,59,58,39,75,71,76,4,66,46,41,24,17,63,18,33,47,22,1,56,74,28,70,21,65,54,6,67,32,57,38,23,37,77,55,30,16,15,35,29,42,13,62,79,31,52,78",,,,,,,,,,
land,352,1061223,0.0-95.0-2.0,,null,run_exp/static/images/task_images/land.jpg,null,,,,,,100,,,29,,,,,,,,,,,,,,
dig,353,1063228,0.0-95.0-3.0,,,,,,,,,,,"[{""stimulus"":""run_exp/static/images/task_images/dig.jpg"",""time"":0.2550000208429992},{""stimulus"":""run_exp/static/images/task_images/land.jpg"",""time"":669.1250000149012},{""stimulus"":""run_exp/static/images/task_images/dig.jpg"",""time"":1340.1550000417046}]",[],29,,,,,,,,,,,,,,
harvest,354,1064229,0.0-95.0-4.0,,null,run_exp/static/images/task_images/gems/100.jpg,null,,,,,,53,,,29,,,,,100,0.534494526,0.53,,,,,,,
decision,355,1065455,0.0-95.0-5.0,,1224.165,run_exp/static/images/task_images/land.jpg,65,,,,,,53,,,29,,,,,,,,54799,3,0,FALSE,,,
dig,356,1067234,0.0-96.0-0.0,,,,,,,,,,,"[{""stimulus"":""run_exp/static/images/task_images/dig.jpg"",""time"":0.14000001829117537},{""stimulus"":""run_exp/static/images/task_images/land.jpg"",""time"":597.040000022389},{""stimulus"":""run_exp/static/images/task_images/dig.jpg"",""time"":1187.9850000259466}]",[],29,,,,,,,,,,,,,,
harvest,357,1068236,0.0-96.0-1.0,,null,run_exp/static/images/task_images/gems/53.jpg,null,,,,,,26,,,29,,,,,53,0.49844776,0.490566038,,,,,,,
decision,358,1068694,0.0-96.0-2.0,,456.155,run_exp/static/images/task_images/land.jpg,76,,,,,,26,,,29,,,,,,,,58038,3,1,TRUE,,,
travel,359,1078240,0.0-97.0-0.0,,,,,,,,,,,"[{""stimulus"":""run_exp/static/images/task_images/rocket-01.jpg"",""time"":0.14000001829117537},{""stimulus"":""run_exp/static/images/task_images/rocket-02.jpg"",""time"":1064.394999993965},{""stimulus"":""run_exp/static/images/task_images/rocket-03.jpg"",""time"":2125.400000018999},{""stimulus"":""run_exp/static/images/task_images/rocket-04.jpg"",""time"":3182.665000029374},{""stimulus"":""run_exp/static/images/task_images/rocket-05.jpg"",""time"":4246.039999998175},{""stimulus"":""run_exp/static/images/task_images/rocket-06.jpg"",""time"":5304.705000016838},{""stimulus"":""run_exp/static/images/task_images/rocket-07.jpg"",""time"":6361.2750000320375},{""stimulus"":""run_exp/static/images/task_images/rocket-08.jpg"",""time"":7425.970000040252},{""stimulus"":""run_exp/static/images/task_images/rocket-09.jpg"",""time"":8482.270000036806}]",[],29,,,,,,,,,,,,,,
alien_welcome,360,1083243,0.0-97.0-1.0,,null,run_exp/static/images/task_images/aliens/old_aliens/planet/alien_planet-65.jpg,null,,,,,,,,,,,,65,"12,80,26,43,44,3,59,58,39,75,71,76,4,66,46,41,24,17,63,18,33,47,22,1,56,74,28,70,21,65,54,6,67,32,57,38,23,37,77,55,30,16,15,35,29,42,13,62,79,31,52,78",,,,,,,,,,
land,361,1083749,0.0-97.0-2.0,,null,run_exp/static/images/task_images/land.jpg,null,,,,,,102,,,30,,,,,,,,,,,,,,
dig,362,1085756,0.0-97.0-3.0,,,,,,,,,,,"[{""stimulus"":""run_exp/static/images/task_images/dig.jpg"",""time"":0.2550000208429992},{""stimulus"":""run_exp/static/images/task_images/land.jpg"",""time"":670.7150000147521},{""stimulus"":""run_exp/static/images/task_images/dig.jpg"",""time"":1339.0099999960512}]",[],30,,,,,,,,,,,,,,
harvest,363,1086761,0.0-97.0-4.0,,null,run_exp/static/images/task_images/gems/102.jpg,null,,,,,,52,,,30,,,,,102,0.506369577,0.509803922,,,,,,,
