trial_type,trial_index,time_elapsed,internal_node_id,interactions,blur_events,focus_events,fullscreenenter_events,fullscreenexit_events,success,rt,stimulus,key_press,prompt,subject_id,participant_id,age,gender,button_pressed,next_reward,animation_sequence,responses,planet,curr_prac_trial,n_prac_rounds,alien,aliens,reward_received,decay_rate_actual,decay_rate_exp,time_in_block,block_num,prt,last_trial_on_planet,button_html,bonus,num_failures
pavlovia,0,5,0.0-0.0,"""event"",""trial"",""time""
""blur"",""0"",""0""
""focus"",""1"",""2223""
""fullscreenenter"",""1"",""2313""
","""event"",""trial"",""time""
""blur"",""0"",""0""
","""event"",""trial"",""time""
""focus"",""1"",""2223""
","""event"",""trial"",""time""
""fullscreenenter"",""1"",""2313""
","
",,,,,,,,,,,,,,,,,,,,,,,,,,,,
fullscreen,1,3287,0.0-1.0,"""event"",""trial"",""time""
""blur"",""0"",""0""
""focus"",""1"",""2223""
""fullscreenenter"",""1"",""2313""
","""event"",""trial"",""time""
""blur"",""0"",""0""
","""event"",""trial"",""time""
""focus"",""1"",""2223""
","""event"",""trial"",""time""
""fullscreenenter"",""1"",""2313""
","
",TRUE,,,,,,,,,,,,,,,,,,,,,,,,,,,
instruc_welcome,2,13061,0.0-2.0,"""event"",""trial"",""time""
""blur"",""0"",""0""
""focus"",""1"",""2223""
""fullscreenenter"",""1"",""2313""
","""event"",""trial"",""time""
""blur"",""0"",""0""
","""event"",""trial"",""time""
""focus"",""1"",""2223""
","""event"",""trial"",""time""
""fullscreenenter"",""1"",""2313""
","
",,null,run_exp/static/audio/clip_1_welcome.m4a,null,"<p>Howdy! In this experiment, you’ll be an explorer traveling through space to collect space treasure.</p><p>Your mission is to collect as much treasure as possible.</p><br><br><p><img src='run_exp/static/images/task_images/opening_img-01.jpg' height='300' width='auto'></p>",9578,3650,23.51,Female,,,,,,,,,,,,,,,,,,,
audio-keyboard-response,3,29681,0.0-3.0,"""event"",""trial"",""time""
""blur"",""0"",""0""
""focus"",""1"",""2223""
""fullscreenenter"",""1"",""2313""
","""event"",""trial"",""time""
""blur"",""0"",""0""
","""event"",""trial"",""time""
""focus"",""1"",""2223""
","""event"",""trial"",""time""
""fullscreenenter"",""1"",""2313""
","
",,null,run_exp/static/audio/clip_2_move.m4a,null,,,,,,,,,,,,,,,,,,,,,,,,
welcome_dec,4,34148,0.0-4.0,"""event"",""trial"",""time""
""blur"",""0"",""0""
""focus"",""1"",""2223""
""fullscreenenter"",""1"",""2313""
","""event"",""trial"",""time""
""blur"",""0"",""0""
","""event"",""trial"",""time""
""focus"",""1"",""2223""
","""event"",""trial"",""time""
""fullscreenenter"",""1"",""2313""
","
",,4459.8,"<p>Howdy! In this experiment, you’ll be an explorer traveling through space to collect space treasure.</p><p>Your mission is to collect as much treasure as possible.</p><br><br><p><img src='run_exp/static/images/task_images/opening_img-01.jpg' height='300' width='auto'></p>",,,,,,,1,,,,,,,,,,,,,,,,,,
html-keyboard-response,5,35185,0.0-5.0,"""event"",""trial"",""time""
""blur"",""0"",""0""
""focus"",""1"",""2223""
""fullscreenenter"",""1"",""2313""
","""event"",""trial"",""time""
""blur"",""0"",""0""
","""event"",""trial"",""time""
""focus"",""1"",""2223""
","""event"",""trial"",""time""
""fullscreenenter"",""1"",""2313""
","
",,1034.2,"<p>Howdy! In this experiment, you’ll be an explorer traveling through space to collect space treasure.</p><p>Your mission is to collect as much treasure as possible.</p><br><br><p><img src='run_exp/static/images/task_images/opening_img-01.jpg' height='300' width='auto'></p><button class=""jspsych-html-btn-unchosen""><img src=""run_exp/static/images/task_images/planet-01.jpg"" height=""50""></button><button class=""jspsych-html-btn-chosen""><img src=""run_exp/static/images/task_images/planet-02.jpg"" height=""50""></button><p><b>[press the space bar to lock in your answer]<b><br></p>",32,,,,,,,,,,,,,,,,,,,,,,,,
instruc_goal,6,45281,0.0-6.0-0.0,"""event"",""trial"",""time""
""blur"",""0"",""0""
""focus"",""1"",""2223""
""fullscreenenter"",""1"",""2313""
","""event"",""trial"",""time""
""blur"",""0"",""0""
","""event"",""trial"",""time""
""focus"",""1"",""2223""
","""event"",""trial"",""time""
""fullscreenenter"",""1"",""2313""
","
",,null,run_exp/static/audio/clip_3_goal.m4a,null,"<p> As a space explorer, you’ll visit different planets to dig for space treasure, these pink gems.</p> <p> The more treasure you dig up, the more bonus money you’ll win! </p><br><br><p><img src='run_exp/static/images/task_images/pink_gem.jpg' height='300' width='auto'></p>",,,,,,,,,,,,,,,,,,,,,,,
instruc_goal,7,47368,0.0-6.0-1.0,"""event"",""trial"",""time""
""blur"",""0"",""0""
""focus"",""1"",""2223""
""fullscreenenter"",""1"",""2313""
","""event"",""trial"",""time""
""blur"",""0"",""0""
","""event"",""trial"",""time""
""focus"",""1"",""2223""
","""event"",""trial"",""time""
""fullscreenenter"",""1"",""2313""
","
",,2080,"<p> As a space explorer, you’ll visit different planets to dig for space treasure, these pink gems.</p> <p> The more treasure you dig up, the more bonus money you’ll win! </p><br><br><p><img src='run_exp/static/images/task_images/pink_gem.jpg' height='300' width='auto'></p>",,,,,,,1,,,,,,,,,,,,,,,,,,
html-keyboard-response,8,47536,0.0-6.0-2.0,"""event"",""trial"",""time""
""blur"",""0"",""0""
""focus"",""1"",""2223""
""fullscreenenter"",""1"",""2313""
","""event"",""trial"",""time""
""blur"",""0"",""0""
","""event"",""trial"",""time""
""focus"",""1"",""2223""
","""event"",""trial"",""time""
""fullscreenenter"",""1"",""2313""
","
",,166.8999996,"<p> As a space explorer, you’ll visit different planets to dig for space treasure, these pink gems.</p> <p> The more treasure you dig up, the more bonus money you’ll win! </p><br><br><p><img src='run_exp/static/images/task_images/pink_gem.jpg' height='300' width='auto'></p><button class=""jspsych-html-btn-unchosen""><img src=""run_exp/static/images/task_images/planet-01.jpg"" height=""50""></button><button class=""jspsych-html-btn-chosen""><img src=""run_exp/static/images/task_images/planet-02.jpg"" height=""50""></button><p><b>[press the space bar to lock in your answer]<b><br></p>",32,,,,,,,,,,,,,,,,,,,,,,,,
instruc_dig,9,63565,0.0-7.0-0.0,"""event"",""trial"",""time""
""blur"",""0"",""0""
""focus"",""1"",""2223""
""fullscreenenter"",""1"",""2313""
","""event"",""trial"",""time""
""blur"",""0"",""0""
","""event"",""trial"",""time""
""focus"",""1"",""2223""
","""event"",""trial"",""time""
""fullscreenenter"",""1"",""2313""
","
",,null,run_exp/static/audio/clip_4_dig.m4a,null,,,,,,,100,,,,,,,,,,,,,,,,,
instruc_dig_try,10,65052,0.0-7.0-1.0,"""event"",""trial"",""time""
""blur"",""0"",""0""
""focus"",""1"",""2223""
""fullscreenenter"",""1"",""2313""
","""event"",""trial"",""time""
""blur"",""0"",""0""
","""event"",""trial"",""time""
""focus"",""1"",""2223""
","""event"",""trial"",""time""
""fullscreenenter"",""1"",""2313""
","
",,1481.7,"<p> When you’ve arrived at a new planet, you will dig once. </p> <p>Then, you get to decide if you want to stay on the planet and dig again or travel to a new planet and dig there.</p> <p> To stay and dig, press the letter <strong>‘A’</strong> on your keyboard. Try pressing it now! </p><p><img src='run_exp/static/images/task_images/land.jpg'  height='700' width='auto'></p>",65,"<p> When you’ve arrived at a new planet, you will dig once. </p> <p>Then, you get to decide if you want to stay on the planet and dig again or travel to a new planet and dig there.</p> <p> To stay and dig, press the letter <strong>‘A’</strong> on your keyboard. Try pressing it now! </p><p><img src='run_exp/static/images/task_images/land.jpg'  height='700' width='auto'></p>",,,,,,100,,,,,,,,,,,,,,,,,
dig_prac,11,67083,0.0-7.0-2.0,"""event"",""trial"",""time""
""blur"",""0"",""0""
""focus"",""1"",""2223""
""fullscreenenter"",""1"",""2313""
","""event"",""trial"",""time""
""blur"",""0"",""0""
","""event"",""trial"",""time""
""focus"",""1"",""2223""
","""event"",""trial"",""time""
""fullscreenenter"",""1"",""2313""
","
",,,,,,,,,,,,"[{""stimulus"":""run_exp/static/images/task_images/dig.jpg"",""time"":0.6999998092651367},{""stimulus"":""run_exp/static/images/task_images/land.jpg"",""time"":676.8000001907349},{""stimulus"":""run_exp/static/images/task_images/dig.jpg"",""time"":1338.6000003814697}]",[],,,,,,,,,,,,,,,
instruc_travel,12,103345,0.0-7.0-3.0,"""event"",""trial"",""time""
""blur"",""0"",""0""
""focus"",""1"",""2223""
""fullscreenenter"",""1"",""2313""
","""event"",""trial"",""time""
""blur"",""0"",""0""
","""event"",""trial"",""time""
""focus"",""1"",""2223""
","""event"",""trial"",""time""
""fullscreenenter"",""1"",""2313""
","
",,null,run_exp/static/audio/clip_5_travel.m4a,null,"<p>Every time you dig up gems, there are less gems on the planet, so the more you dig on a planet the fewer gems you’ll get with each dig.</p><p>When gems are running low, you may want to travel to a new planet. </p> <p>  Planets are very far apart in this galaxy, so it will take some time to travel between them. </p> <br><p>There are lots and lots of planets for you to visit, so you won’t be able to return to any planets you’ve seen before. </p><br><p>To leave this planet and travel to a new one, press the letter <strong>‘L’</strong> on your keyboard. Try pressing it now! </p><p><img src='run_exp/static/images/task_images/rocket-01.jpg'  height='600' width='auto'></p>",,,,,,,,,,,,,,,,,,,,,,,
instruc_travel_try,13,106767,0.0-7.0-4.0,"""event"",""trial"",""time""
""blur"",""0"",""0""
""focus"",""1"",""2223""
""fullscreenenter"",""1"",""2313""
","""event"",""trial"",""time""
""blur"",""0"",""0""
","""event"",""trial"",""time""
""focus"",""1"",""2223""
","""event"",""trial"",""time""
""fullscreenenter"",""1"",""2313""
","
",,3415.7,"<p>Every time you dig up gems, there are less gems on the planet, so the more you dig on a planet the fewer gems you’ll get with each dig.</p><p>When gems are running low, you may want to travel to a new planet. </p> <p>  Planets are very far apart in this galaxy, so it will take some time to travel between them. </p> <br><p>There are lots and lots of planets for you to visit, so you won’t be able to return to any planets you’ve seen before. </p><br><p>To leave this planet and travel to a new one, press the letter <strong>‘L’</strong> on your keyboard. Try pressing it now! </p><p><img src='run_exp/static/images/task_images/rocket-01.jpg'  height='600' width='auto'></p>",76,"<p>Every time you dig up gems, there are less gems on the planet, so the more you dig on a planet the fewer gems you’ll get with each dig.</p><p>When gems are running low, you may want to travel to a new planet. </p> <p>  Planets are very far apart in this galaxy, so it will take some time to travel between them. </p> <br><p>There are lots and lots of planets for you to visit, so you won’t be able to return to any planets you’ve seen before. </p><br><p>To leave this planet and travel to a new one, press the letter <strong>‘L’</strong> on your keyboard. Try pressing it now! </p><p><img src='run_exp/static/images/task_images/rocket-01.jpg'  height='600' width='auto'></p>",,,,,,,,,,,,,,,,,,,,,,,
travel_prac,14,116773,0.0-7.0-5.0,"""event"",""trial"",""time""
""blur"",""0"",""0""
""focus"",""1"",""2223""
""fullscreenenter"",""1"",""2313""
","""event"",""trial"",""time""
""blur"",""0"",""0""
","""event"",""trial"",""time""
""focus"",""1"",""2223""
","""event"",""trial"",""time""
""fullscreenenter"",""1"",""2313""
","
",,,,,,,,,,,,"[{""stimulus"":""run_exp/static/images/task_images/rocket-01.jpg"",""time"":0.6000003814697266},{""stimulus"":""run_exp/static/images/task_images/rocket-02.jpg"",""time"":1123.1000003814697},{""stimulus"":""run_exp/static/images/task_images/rocket-03.jpg"",""time"":2243.9000005722046},{""stimulus"":""run_exp/static/images/task_images/rocket-04.jpg"",""time"":3353.699999809265},{""stimulus"":""run_exp/static/images/task_images/rocket-05.jpg"",""time"":4463.60000038147},{""stimulus"":""run_exp/static/images/task_images/rocket-06.jpg"",""time"":5572.800000190735},{""stimulus"":""run_exp/static/images/task_images/rocket-07.jpg"",""time"":6683},{""stimulus"":""run_exp/static/images/task_images/rocket-08.jpg"",""time"":7793.300000190735},{""stimulus"":""run_exp/static/images/task_images/rocket-09.jpg"",""time"":8893.5}]",[],0,,,,,,,,,,,,,,
instruc_alien_greet,15,143975,0.0-7.0-6.0,"""event"",""trial"",""time""
""blur"",""0"",""0""
""focus"",""1"",""2223""
""fullscreenenter"",""1"",""2313""
","""event"",""trial"",""time""
""blur"",""0"",""0""
","""event"",""trial"",""time""
""focus"",""1"",""2223""
","""event"",""trial"",""time""
""fullscreenenter"",""1"",""2313""
","
",,null,run_exp/static/audio/clip_6_alien.m4a,null,"<p>When you arrive at a new planet, the alien who owns the treasure mine on that planet will greet you!</p><p>The better an alien takes care of their mine the easier it is to dig for gems. Some aliens take better care of their mine than others. So, you won’t get exactly the same amount of gems on each planet.</p><p>What the alien looks like does not tell you anything about how many gems there are on the planet.</p><br><p><img src=""run_exp/static/images/task_images/aliens/instructions_aliens/planet/alien_planet-1.jpg""  height=""600"" width=""auto""></p>",,,,,,,,,,,,,,,,,,,,,,,
instruc_alien_greet,16,148451,0.0-7.0-7.0,"""event"",""trial"",""time""
""blur"",""0"",""0""
""focus"",""1"",""2223""
""fullscreenenter"",""1"",""2313""
","""event"",""trial"",""time""
""blur"",""0"",""0""
","""event"",""trial"",""time""
""focus"",""1"",""2223""
","""event"",""trial"",""time""
""fullscreenenter"",""1"",""2313""
","
",,4470.700001,"<p>When you arrive at a new planet, the alien who owns the treasure mine on that planet will greet you!</p><p>The better an alien takes care of their mine the easier it is to dig for gems. Some aliens take better care of their mine than others. So, you won’t get exactly the same amount of gems on each planet.</p><p>What the alien looks like does not tell you anything about how many gems there are on the planet.</p><br><p><img src=""run_exp/static/images/task_images/aliens/instructions_aliens/planet/alien_planet-1.jpg""  height=""600"" width=""auto""></p>",,,,,,,1,,,,,,,,,,,,,,,,,,
html-keyboard-response,17,148661,0.0-7.0-8.0,"""event"",""trial"",""time""
""blur"",""0"",""0""
""focus"",""1"",""2223""
""fullscreenenter"",""1"",""2313""
","""event"",""trial"",""time""
""blur"",""0"",""0""
","""event"",""trial"",""time""
""focus"",""1"",""2223""
","""event"",""trial"",""time""
""fullscreenenter"",""1"",""2313""
","
",,207.1999998,"<p>When you arrive at a new planet, the alien who owns the treasure mine on that planet will greet you!</p><p>The better an alien takes care of their mine the easier it is to dig for gems. Some aliens take better care of their mine than others. So, you won’t get exactly the same amount of gems on each planet.</p><p>What the alien looks like does not tell you anything about how many gems there are on the planet.</p><br><p><img src=""run_exp/static/images/task_images/aliens/instructions_aliens/planet/alien_planet-1.jpg""  height=""600"" width=""auto""></p><button class=""jspsych-html-btn-unchosen""><img src=""run_exp/static/images/task_images/planet-01.jpg"" height=""50""></button><button class=""jspsych-html-btn-chosen""><img src=""run_exp/static/images/task_images/planet-02.jpg"" height=""50""></button><p><b>[press the space bar to lock in your answer]<b><br></p>",32,,,,,,,,,,,,,,,,,,,,,,,,
time_out,18,159775,0.0-8.0-0.0,"""event"",""trial"",""time""
""blur"",""0"",""0""
""focus"",""1"",""2223""
""fullscreenenter"",""1"",""2313""
","""event"",""trial"",""time""
""blur"",""0"",""0""
","""event"",""trial"",""time""
""focus"",""1"",""2223""
","""event"",""trial"",""time""
""fullscreenenter"",""1"",""2313""
","
",,null,run_exp/static/audio/clip_7_timeout.m4a,null,"<p>If you don't make your choice fast enough, you’ll have to wait a few seconds before you can make another one.</p><p>You can’t dig for more gems or travel to new planets. You just have to sit and wait.</p><br><p><img src='run_exp/static/images/task_images/time_out.jpg'  height='600' width='auto'></p>",,,,,,,,,,,,,,,,,,,,,,,
time_out,19,165611,0.0-8.0-1.0,"""event"",""trial"",""time""
""blur"",""0"",""0""
""focus"",""1"",""2223""
""fullscreenenter"",""1"",""2313""
","""event"",""trial"",""time""
""blur"",""0"",""0""
","""event"",""trial"",""time""
""focus"",""1"",""2223""
","""event"",""trial"",""time""
""fullscreenenter"",""1"",""2313""
","
",,5831.4,"<p>If you don't make your choice fast enough, you’ll have to wait a few seconds before you can make another one.</p><p>You can’t dig for more gems or travel to new planets. You just have to sit and wait.</p><br><p><img src='run_exp/static/images/task_images/time_out.jpg'  height='600' width='auto'></p>",,,,,,,1,,,,,,,,,,,,,,,,,,
html-keyboard-response,20,165851,0.0-8.0-2.0,"""event"",""trial"",""time""
""blur"",""0"",""0""
""focus"",""1"",""2223""
""fullscreenenter"",""1"",""2313""
","""event"",""trial"",""time""
""blur"",""0"",""0""
","""event"",""trial"",""time""
""focus"",""1"",""2223""
","""event"",""trial"",""time""
""fullscreenenter"",""1"",""2313""
","
",,237,"<p>If you don't make your choice fast enough, you’ll have to wait a few seconds before you can make another one.</p><p>You can’t dig for more gems or travel to new planets. You just have to sit and wait.</p><br><p><img src='run_exp/static/images/task_images/time_out.jpg'  height='600' width='auto'></p><button class=""jspsych-html-btn-unchosen""><img src=""run_exp/static/images/task_images/planet-01.jpg"" height=""50""></button><button class=""jspsych-html-btn-chosen""><img src=""run_exp/static/images/task_images/planet-02.jpg"" height=""50""></button><p><b>[press the space bar to lock in your answer]<b><br></p>",32,,,,,,,,,,,,,,,,,,,,,,,,
instruc_break,21,181553,0.0-9.0-0.0,"""event"",""trial"",""time""
""blur"",""0"",""0""
""focus"",""1"",""2223""
""fullscreenenter"",""1"",""2313""
","""event"",""trial"",""time""
""blur"",""0"",""0""
","""event"",""trial"",""time""
""focus"",""1"",""2223""
","""event"",""trial"",""time""
""fullscreenenter"",""1"",""2313""
","
",,null,run_exp/static/audio/clip_8_break.m4a,null,"<p> After digging and traveling for a while, you’ll be able to take a break at home base. </p><p>The game will last 20 minutes no matter what.</p><p>You will visit home base every 5 minutes, so, you will visit home base three times during the game.</p><br><p><img src='run_exp/static/images/task_images/home_base.jpg' height='600' width='auto'></p>",,,,,,,,,,,,,,,,,,,,,,,
instruc_break,22,184620,0.0-9.0-1.0,"""event"",""trial"",""time""
""blur"",""0"",""0""
""focus"",""1"",""2223""
""fullscreenenter"",""1"",""2313""
","""event"",""trial"",""time""
""blur"",""0"",""0""
","""event"",""trial"",""time""
""focus"",""1"",""2223""
","""event"",""trial"",""time""
""fullscreenenter"",""1"",""2313""
","
",,3058,"<p> After digging and traveling for a while, you’ll be able to take a break at home base. </p><p>The game will last 20 minutes no matter what.</p><p>You will visit home base every 5 minutes, so, you will visit home base three times during the game.</p><br><p><img src='run_exp/static/images/task_images/home_base.jpg' height='600' width='auto'></p>",,,,,,,1,,,,,,,,,,,,,,,,,,
html-keyboard-response,23,184854,0.0-9.0-2.0,"""event"",""trial"",""time""
""blur"",""0"",""0""
""focus"",""1"",""2223""
""fullscreenenter"",""1"",""2313""
","""event"",""trial"",""time""
""blur"",""0"",""0""
","""event"",""trial"",""time""
""focus"",""1"",""2223""
","""event"",""trial"",""time""
""fullscreenenter"",""1"",""2313""
","
",,232.2000008,"<p> After digging and traveling for a while, you’ll be able to take a break at home base. </p><p>The game will last 20 minutes no matter what.</p><p>You will visit home base every 5 minutes, so, you will visit home base three times during the game.</p><br><p><img src='run_exp/static/images/task_images/home_base.jpg' height='600' width='auto'></p><button class=""jspsych-html-btn-unchosen""><img src=""run_exp/static/images/task_images/planet-01.jpg"" height=""50""></button><button class=""jspsych-html-btn-chosen""><img src=""run_exp/static/images/task_images/planet-02.jpg"" height=""50""></button><p><b>[press the space bar to lock in your answer]<b><br></p>",32,,,,,,,,,,,,,,,,,,,,,,,,
instruc_prac_game,24,195014,0.0-10.0-0.0,"""event"",""trial"",""time""
""blur"",""0"",""0""
""focus"",""1"",""2223""
""fullscreenenter"",""1"",""2313""
","""event"",""trial"",""time""
""blur"",""0"",""0""
","""event"",""trial"",""time""
""focus"",""1"",""2223""
","""event"",""trial"",""time""
""fullscreenenter"",""1"",""2313""
","
",,null,run_exp/static/audio/clip_9_practice.m4a,null,"<p> Are you ready to play a practice game? </p> <p>In this practice game, you'll be digging up barrels of gems. But, in the real game, you'll be digging up the gems themselves. </p>",,,,,,,,,,,,,,,,,,,,,,,
html-button-response,25,302759,0.0-10.0-1.0,"""event"",""trial"",""time""
""blur"",""0"",""0""
""focus"",""1"",""2223""
""fullscreenenter"",""1"",""2313""
","""event"",""trial"",""time""
""blur"",""0"",""0""
","""event"",""trial"",""time""
""focus"",""1"",""2223""
","""event"",""trial"",""time""
""fullscreenenter"",""1"",""2313""
","
",,107739.9,"<p> Are you ready to play a practice game? </p> <p>In this practice game, you'll be digging up barrels of gems. But, in the real game, you'll be digging up the gems themselves. </p>",,,,,,,0,,,,,,,,,,,,,,,,,,
alien_welcome_prac,26,307770,0.0-11.0-0.0,"""event"",""trial"",""time""
""blur"",""0"",""0""
""focus"",""1"",""2223""
""fullscreenenter"",""1"",""2313""
","""event"",""trial"",""time""
""blur"",""0"",""0""
","""event"",""trial"",""time""
""focus"",""1"",""2223""
","""event"",""trial"",""time""
""fullscreenenter"",""1"",""2313""
","
",,null,run_exp/static/images/task_images/aliens/practice_aliens/planet/alien_planet-5.jpg,null,,,,,,,,,,,,,,,,,,,,,,,,
land_prac,27,308277,0.0-11.0-1.0,"""event"",""trial"",""time""
""blur"",""0"",""0""
""focus"",""1"",""2223""
""fullscreenenter"",""1"",""2313""
","""event"",""trial"",""time""
""blur"",""0"",""0""
","""event"",""trial"",""time""
""focus"",""1"",""2223""
","""event"",""trial"",""time""
""fullscreenenter"",""1"",""2313""
","
",,null,run_exp/static/images/task_images/land.jpg,null,,,,,,,101,,,0,,,,,,,,,,,,,,
dig_prac,28,310302,0.0-11.0-2.0,"""event"",""trial"",""time""
""blur"",""0"",""0""
""focus"",""1"",""2223""
""fullscreenenter"",""1"",""2313""
","""event"",""trial"",""time""
""blur"",""0"",""0""
","""event"",""trial"",""time""
""focus"",""1"",""2223""
","""event"",""trial"",""time""
""fullscreenenter"",""1"",""2313""
","
",,,,,,,,,,,,"[{""stimulus"":""run_exp/static/images/task_images/dig.jpg"",""time"":0.6000003814697266},{""stimulus"":""run_exp/static/images/task_images/land.jpg"",""time"":669.3999996185303},{""stimulus"":""run_exp/static/images/task_images/dig.jpg"",""time"":1354.1000003814697}]",[],,,,,,,,,,,,,,,
harvest_prac,29,311312,0.0-11.0-3.0,"""event"",""trial"",""time""
""blur"",""0"",""0""
""focus"",""1"",""2223""
""fullscreenenter"",""1"",""2313""
","""event"",""trial"",""time""
""blur"",""0"",""0""
","""event"",""trial"",""time""
""focus"",""1"",""2223""
","""event"",""trial"",""time""
""fullscreenenter"",""1"",""2313""
","
",,null,run_exp/static/images/task_images/barrel_text.jpg,null,,,,,,,,,,,,,,,,,,,,,,,,
decision_prac,30,314322,0.0-11.0-4.0,"""event"",""trial"",""time""
""blur"",""0"",""0""
""focus"",""1"",""2223""
""fullscreenenter"",""1"",""2313""
","""event"",""trial"",""time""
""blur"",""0"",""0""
","""event"",""trial"",""time""
""focus"",""1"",""2223""
","""event"",""trial"",""time""
""fullscreenenter"",""1"",""2313""
","
",,null,run_exp/static/images/task_images/land.jpg,null,,,,,,,,,,,1,,,,,,,,,,,,,
time_out,31,316332,0.0-12.0-0.0,"""event"",""trial"",""time""
""blur"",""0"",""0""
""focus"",""1"",""2223""
""fullscreenenter"",""1"",""2313""
","""event"",""trial"",""time""
""blur"",""0"",""0""
","""event"",""trial"",""time""
""focus"",""1"",""2223""
","""event"",""trial"",""time""
""fullscreenenter"",""1"",""2313""
","
",,null,run_exp/static/images/task_images/time_out.jpg,null,,,,,,,,,,,,,,,,,,,,,,,,
decision_prac,32,319352,0.0-12.0-1.0,"""event"",""trial"",""time""
""blur"",""0"",""0""
""focus"",""1"",""2223""
""fullscreenenter"",""1"",""2313""
","""event"",""trial"",""time""
""blur"",""0"",""0""
","""event"",""trial"",""time""
""focus"",""1"",""2223""
","""event"",""trial"",""time""
""fullscreenenter"",""1"",""2313""
","
",,null,run_exp/static/images/task_images/land.jpg,null,,,,,,,,,,,2,,,,,,,,,,,,,
time_out,33,321374,0.0-13.0-0.0,"""event"",""trial"",""time""
""blur"",""0"",""0""
""focus"",""1"",""2223""
""fullscreenenter"",""1"",""2313""
","""event"",""trial"",""time""
""blur"",""0"",""0""
","""event"",""trial"",""time""
""focus"",""1"",""2223""
","""event"",""trial"",""time""
""fullscreenenter"",""1"",""2313""
","
",,null,run_exp/static/images/task_images/time_out.jpg,null,,,,,,,,,,,,,,,,,,,,,,,,
decision_prac,34,322643,0.0-13.0-1.0,"""event"",""trial"",""time""
""blur"",""0"",""0""
""focus"",""1"",""2223""
""fullscreenenter"",""1"",""2313""
","""event"",""trial"",""time""
""blur"",""0"",""0""
","""event"",""trial"",""time""
""focus"",""1"",""2223""
","""event"",""trial"",""time""
""fullscreenenter"",""1"",""2313""
","
",,1266.400001,run_exp/static/images/task_images/land.jpg,65,,,,,,,,,,,3,,,,,,,,,,,,,
dig_prac,35,324672,0.0-14.0-0.0,"""event"",""trial"",""time""
""blur"",""0"",""0""
""focus"",""1"",""2223""
""fullscreenenter"",""1"",""2313""
","""event"",""trial"",""time""
""blur"",""0"",""0""
","""event"",""trial"",""time""
""focus"",""1"",""2223""
","""event"",""trial"",""time""
""fullscreenenter"",""1"",""2313""
","
",,,,,,,,,,,,"[{""stimulus"":""run_exp/static/images/task_images/dig.jpg"",""time"":0.5},{""stimulus"":""run_exp/static/images/task_images/land.jpg"",""time"":673.1999998092651},{""stimulus"":""run_exp/static/images/task_images/dig.jpg"",""time"":1342.9000005722046}]",[],,,,,,,,,,,,,,,
harvest_prac,36,325683,0.0-14.0-1.0,"""event"",""trial"",""time""
""blur"",""0"",""0""
""focus"",""1"",""2223""
""fullscreenenter"",""1"",""2313""
","""event"",""trial"",""time""
""blur"",""0"",""0""
","""event"",""trial"",""time""
""focus"",""1"",""2223""
","""event"",""trial"",""time""
""fullscreenenter"",""1"",""2313""
","
",,null,run_exp/static/images/task_images/barrel_text.jpg,null,,,,,,,,,,,,,,,,,,,,,,,,
decision_prac,37,326488,0.0-14.0-2.0,"""event"",""trial"",""time""
""blur"",""0"",""0""
""focus"",""1"",""2223""
""fullscreenenter"",""1"",""2313""
","""event"",""trial"",""time""
""blur"",""0"",""0""
","""event"",""trial"",""time""
""focus"",""1"",""2223""
","""event"",""trial"",""time""
""fullscreenenter"",""1"",""2313""
","
",,802.1000004,run_exp/static/images/task_images/land.jpg,65,,,,,,,,,,,4,,,,,,,,,,,,,
dig_prac,38,328503,0.0-15.0-0.0,"""event"",""trial"",""time""
""blur"",""0"",""0""
""focus"",""1"",""2223""
""fullscreenenter"",""1"",""2313""
","""event"",""trial"",""time""
""blur"",""0"",""0""
","""event"",""trial"",""time""
""focus"",""1"",""2223""
","""event"",""trial"",""time""
""fullscreenenter"",""1"",""2313""
","
",,,,,,,,,,,,"[{""stimulus"":""run_exp/static/images/task_images/dig.jpg"",""time"":0.5},{""stimulus"":""run_exp/static/images/task_images/land.jpg"",""time"":684.8000001907349},{""stimulus"":""run_exp/static/images/task_images/dig.jpg"",""time"":1344.6999998092651}]",[],,,,,,,,,,,,,,,
harvest_prac,39,329522,0.0-15.0-1.0,"""event"",""trial"",""time""
""blur"",""0"",""0""
""focus"",""1"",""2223""
""fullscreenenter"",""1"",""2313""
","""event"",""trial"",""time""
""blur"",""0"",""0""
","""event"",""trial"",""time""
""focus"",""1"",""2223""
","""event"",""trial"",""time""
""fullscreenenter"",""1"",""2313""
","
",,null,run_exp/static/images/task_images/barrel_text.jpg,null,,,,,,,,,,,,,,,,,,,,,,,,
decision_prac,40,329916,0.0-15.0-2.0,"""event"",""trial"",""time""
""blur"",""0"",""0""
""focus"",""1"",""2223""
""fullscreenenter"",""1"",""2313""
","""event"",""trial"",""time""
""blur"",""0"",""0""
","""event"",""trial"",""time""
""focus"",""1"",""2223""
","""event"",""trial"",""time""
""fullscreenenter"",""1"",""2313""
","
",,390.5999994,run_exp/static/images/task_images/land.jpg,65,,,,,,,,,,,,1,,,,,,,,,,,,
quiz_instruc,41,333659,0.0-16.0-0.0,"""event"",""trial"",""time""
""blur"",""0"",""0""
""focus"",""1"",""2223""
""fullscreenenter"",""1"",""2313""
","""event"",""trial"",""time""
""blur"",""0"",""0""
","""event"",""trial"",""time""
""focus"",""1"",""2223""
","""event"",""trial"",""time""
""fullscreenenter"",""1"",""2313""
","
",,3734.2,run_exp/static/audio/clip_10_quiz.m4a,,,,,,,0,,,,,,,,,,,,,,,,,,
instruc_repeat,42,376422,0.0-16.0-1.0,"""event"",""trial"",""time""
""blur"",""0"",""0""
""focus"",""1"",""2223""
""fullscreenenter"",""1"",""2313""
","""event"",""trial"",""time""
""blur"",""0"",""0""
","""event"",""trial"",""time""
""focus"",""1"",""2223""
","""event"",""trial"",""time""
""fullscreenenter"",""1"",""2313""
","
",,null,"<p> Are you ready to play a practice game? </p> <p>In this practice game, you'll be digging up barrels of gems. But, in the real game, you'll be digging up the gems themselves. </p>",null,"<p>In this game, your goal is to collect as many gems as you can. That’s how you will win bonus money. </p> <p>The entire game will last 20 minutes no matter how many gems you collect or how many planets you visit. </p><p>To stay on a planet and dig again, press the letter A on your keyboard. To leave for a new planet, press the letter L.</p><p>The more you dig on a planet, the fewer gems you’ll get with each dig which is why you might consider leaving for a new planet. </p><p>When you arrive at a new planet, you’ll be greeted by an alien. What the alien looks like does not tell you anything about how much treasure is on the planet. </p>",,,,,,,,,,,,,,,,,,,,,,,
instruc_repeat_continue,43,391177,0.0-16.0-2.0,"""event"",""trial"",""time""
""blur"",""0"",""0""
""focus"",""1"",""2223""
""fullscreenenter"",""1"",""2313""
","""event"",""trial"",""time""
""blur"",""0"",""0""
","""event"",""trial"",""time""
""focus"",""1"",""2223""
","""event"",""trial"",""time""
""fullscreenenter"",""1"",""2313""
","
",,14749.6,"<p> Are you ready to play a practice game? </p> <p>In this practice game, you'll be digging up barrels of gems. But, in the real game, you'll be digging up the gems themselves. </p>",,,,,,,0,,,,,,,,,,,,,,,,,,
quiz_q_1_ask,44,395963,0.0-16.0-3.0,"""event"",""trial"",""time""
""blur"",""0"",""0""
""focus"",""1"",""2223""
""fullscreenenter"",""1"",""2313""
","""event"",""trial"",""time""
""blur"",""0"",""0""
","""event"",""trial"",""time""
""focus"",""1"",""2223""
","""event"",""trial"",""time""
""fullscreenenter"",""1"",""2313""
","
",,4784.2,run_exp/static/audio/clip_11_q1_ask.m4a,,,,,,,2,,,,,,,,,,,,,,,,,,
quiz_q_1_fb_correct,45,399813,0.0-17.0-0.0,"""event"",""trial"",""time""
""blur"",""0"",""0""
""focus"",""1"",""2223""
""fullscreenenter"",""1"",""2313""
","""event"",""trial"",""time""
""blur"",""0"",""0""
","""event"",""trial"",""time""
""focus"",""1"",""2223""
","""event"",""trial"",""time""
""fullscreenenter"",""1"",""2313""
","
",,null,run_exp/static/audio/clip_12_q1_correct.m4a,null,<p>That’s correct. You win extra money by collecting more gems.</p>,,,,,,,,,,,,,,,,,,,,,,,
quiz_q_2_ask,46,402713,0.0-17.0-1.0,"""event"",""trial"",""time""
""blur"",""0"",""0""
""focus"",""1"",""2223""
""fullscreenenter"",""1"",""2313""
","""event"",""trial"",""time""
""blur"",""0"",""0""
","""event"",""trial"",""time""
""focus"",""1"",""2223""
","""event"",""trial"",""time""
""fullscreenenter"",""1"",""2313""
","
",,2897.3,run_exp/static/audio/clip_14_q2_ask.m4a,,,,,,,1,,,,,,,,,,,,,,,,,,
quiz_q_2_fb_correct,47,406713,0.0-18.0-0.0,"""event"",""trial"",""time""
""blur"",""0"",""0""
""focus"",""1"",""2223""
""fullscreenenter"",""1"",""2313""
","""event"",""trial"",""time""
""blur"",""0"",""0""
","""event"",""trial"",""time""
""focus"",""1"",""2223""
","""event"",""trial"",""time""
""fullscreenenter"",""1"",""2313""
","
",,null,run_exp/static/audio/clip_15_q2_correct.m4a,null,<p>That’s correct. The experiment is 20 minutes no matter what.</p>,,,,,,,,,,,,,,,,,,,,,,,
quiz_q_3_ask,48,410594,0.0-18.0-1.0,"""event"",""trial"",""time""
""blur"",""0"",""0""
""focus"",""1"",""2223""
""fullscreenenter"",""1"",""2313""
","""event"",""trial"",""time""
""blur"",""0"",""0""
","""event"",""trial"",""time""
""focus"",""1"",""2223""
","""event"",""trial"",""time""
""fullscreenenter"",""1"",""2313""
","
",,3878.200001,run_exp/static/audio/clip_17_q3_ask.m4a,,,,,,,1,,,,,,,,,,,,,,,,,,
quiz_q_3_fb_correct,49,414593,0.0-19.0-0.0,"""event"",""trial"",""time""
""blur"",""0"",""0""
""focus"",""1"",""2223""
""fullscreenenter"",""1"",""2313""
","""event"",""trial"",""time""
""blur"",""0"",""0""
","""event"",""trial"",""time""
""focus"",""1"",""2223""
","""event"",""trial"",""time""
""fullscreenenter"",""1"",""2313""
","
",,null,run_exp/static/audio/clip_18_q3_correct.m4a,null,<p> That’s correct. You press the letter L to travel to a new planet.</p>,,,,,,,,,,,,,,,,,,,,,,,
quiz_q_4_ask,50,419494,0.0-19.0-1.0,"""event"",""trial"",""time""
""blur"",""0"",""0""
""focus"",""1"",""2223""
""fullscreenenter"",""1"",""2313""
","""event"",""trial"",""time""
""blur"",""0"",""0""
","""event"",""trial"",""time""
""focus"",""1"",""2223""
","""event"",""trial"",""time""
""fullscreenenter"",""1"",""2313""
","
",,4898.5,run_exp/static/audio/clip_20_q4_ask.m4a,,,,,,,0,,,,,,,,,,,,,,,,,,
quiz_q_4_fb_correct,51,424813,0.0-20.0-0.0,"""event"",""trial"",""time""
""blur"",""0"",""0""
""focus"",""1"",""2223""
""fullscreenenter"",""1"",""2313""
","""event"",""trial"",""time""
""blur"",""0"",""0""
","""event"",""trial"",""time""
""focus"",""1"",""2223""
","""event"",""trial"",""time""
""fullscreenenter"",""1"",""2313""
","
",,null,run_exp/static/audio/clip_21_q4_correct.m4a,null,<p> That’s correct. The more you dig on a planet the fewer gems you’ll get with each dig. </p>,,,,,,,,,,,,,,,,,,,,,,,
quiz_q_5_ask,52,427313,0.0-20.0-1.0,"""event"",""trial"",""time""
""blur"",""0"",""0""
""focus"",""1"",""2223""
""fullscreenenter"",""1"",""2313""
","""event"",""trial"",""time""
""blur"",""0"",""0""
","""event"",""trial"",""time""
""focus"",""1"",""2223""
","""event"",""trial"",""time""
""fullscreenenter"",""1"",""2313""
","
",,2496.900001,run_exp/static/audio/clip_23_q5_ask.m4a,,,,,,,1,,,,,,,,,,,,,,,,,,
quiz_q_5_fb_correct,53,432334,0.0-21.0-0.0,"""event"",""trial"",""time""
""blur"",""0"",""0""
""focus"",""1"",""2223""
""fullscreenenter"",""1"",""2313""
","""event"",""trial"",""time""
""blur"",""0"",""0""
","""event"",""trial"",""time""
""focus"",""1"",""2223""
","""event"",""trial"",""time""
""fullscreenenter"",""1"",""2313""
","
",,null,run_exp/static/audio/clip_24_q5_correct.m4a,null,<p> That’s correct. The alien tells you nothing about how much treasure is on the planet.</p>,,,,,,,,,,,,,,,,,,,,,,,
quiz_correct,54,435813,0.0-22.0-0.0,"""event"",""trial"",""time""
""blur"",""0"",""0""
""focus"",""1"",""2223""
""fullscreenenter"",""1"",""2313""
","""event"",""trial"",""time""
""blur"",""0"",""0""
","""event"",""trial"",""time""
""focus"",""1"",""2223""
","""event"",""trial"",""time""
""fullscreenenter"",""1"",""2313""
","
",,null,run_exp/static/audio/clip_26_correct_quiz.m4a,null,,,,,,,,,,,,,,,,,,,,,,,,
quiz_correct_continue,55,438414,0.0-22.0-1.0,"""event"",""trial"",""time""
""blur"",""0"",""0""
""focus"",""1"",""2223""
""fullscreenenter"",""1"",""2313""
","""event"",""trial"",""time""
""blur"",""0"",""0""
","""event"",""trial"",""time""
""focus"",""1"",""2223""
","""event"",""trial"",""time""
""fullscreenenter"",""1"",""2313""
","
",,2597.4,<p>Good job! You're now ready to move on to the real game!</p>,,,,,,,0,,,,,,,,,,,,,,,,,,
audio-keyboard-response,56,448535,0.0-22.0-2.0,"""event"",""trial"",""time""
""blur"",""0"",""0""
""focus"",""1"",""2223""
""fullscreenenter"",""1"",""2313""
","""event"",""trial"",""time""
""blur"",""0"",""0""
","""event"",""trial"",""time""
""focus"",""1"",""2223""
","""event"",""trial"",""time""
""fullscreenenter"",""1"",""2313""
","
",,null,run_exp/static/audio/clip_28_real_game.m4a,null,,,,,,,,,,,,,,,,,,,,,,,,
instruc_begin_exp_contine,57,449791,0.0-22.0-3.0,"""event"",""trial"",""time""
""blur"",""0"",""0""
""focus"",""1"",""2223""
""fullscreenenter"",""1"",""2313""
","""event"",""trial"",""time""
""blur"",""0"",""0""
","""event"",""trial"",""time""
""focus"",""1"",""2223""
","""event"",""trial"",""time""
""fullscreenenter"",""1"",""2313""
","
",,1253.900001,"<p>Now that you know how  to dig for space treasure and travel to new planets,you can start exploring! </p><p>Do you want to go over the instructions again or get started with the real game?</p>",,,,,,,1,,,,,,1,,,,,,,,,,,,
alien_welcome,58,454812,0.0-23.0-0.0,"""event"",""trial"",""time""
""blur"",""0"",""0""
""focus"",""1"",""2223""
""fullscreenenter"",""1"",""2313""
","""event"",""trial"",""time""
""blur"",""0"",""0""
","""event"",""trial"",""time""
""focus"",""1"",""2223""
","""event"",""trial"",""time""
""fullscreenenter"",""1"",""2313""
","
",,null,run_exp/static/images/task_images/aliens/old_aliens/planet/alien_planet-1.jpg,null,,,,,,,,,,,,,1,"1,36,61,39,13,60,11,50,40,78,57,26,24,5,15,55,42,34,10,75,21,62,44",,,,,,,,,,
land,59,455323,0.0-23.0-1.0,"""event"",""trial"",""time""
""blur"",""0"",""0""
""focus"",""1"",""2223""
""fullscreenenter"",""1"",""2313""
","""event"",""trial"",""time""
""blur"",""0"",""0""
","""event"",""trial"",""time""
""focus"",""1"",""2223""
","""event"",""trial"",""time""
""fullscreenenter"",""1"",""2313""
","
",,null,run_exp/static/images/task_images/land.jpg,null,,,,,,,97,,,1,,,,,,,,,,,,,,
dig,60,457343,0.0-23.0-2.0,"""event"",""trial"",""time""
""blur"",""0"",""0""
""focus"",""1"",""2223""
""fullscreenenter"",""1"",""2313""
","""event"",""trial"",""time""
""blur"",""0"",""0""
","""event"",""trial"",""time""
""focus"",""1"",""2223""
","""event"",""trial"",""time""
""fullscreenenter"",""1"",""2313""
","
",,,,,,,,,,,,"[{""stimulus"":""run_exp/static/images/task_images/dig.jpg"",""time"":0.6000003814697266},{""stimulus"":""run_exp/static/images/task_images/land.jpg"",""time"":686.8000001907349},{""stimulus"":""run_exp/static/images/task_images/dig.jpg"",""time"":1346.4000005722046}]",[],1,,,,,,,,,,,,,,
harvest,61,458362,0.0-23.0-3.0,"""event"",""trial"",""time""
""blur"",""0"",""0""
""focus"",""1"",""2223""
""fullscreenenter"",""1"",""2313""
","""event"",""trial"",""time""
""blur"",""0"",""0""
","""event"",""trial"",""time""
""focus"",""1"",""2223""
","""event"",""trial"",""time""
""fullscreenenter"",""1"",""2313""
","
",,null,run_exp/static/images/task_images/gems/97.jpg,null,,,,,,,16,,,1,,,,,97,0.163431549,0.164948454,,,,,,,
decision,62,458499,0.0-23.0-4.0,"""event"",""trial"",""time""
""blur"",""0"",""0""
""focus"",""1"",""2223""
""fullscreenenter"",""1"",""2313""
","""event"",""trial"",""time""
""blur"",""0"",""0""
","""event"",""trial"",""time""
""focus"",""1"",""2223""
","""event"",""trial"",""time""
""fullscreenenter"",""1"",""2313""
","
",,134.4000006,run_exp/static/images/task_images/land.jpg,65,,,,,,,16,,,1,,,,,,,,8708,1,0,FALSE,,,
dig,63,461381,0.0-24.0-0.0,"""event"",""trial"",""time""
""blur"",""0"",""0""
""focus"",""1"",""2223""
""fullscreenenter"",""1"",""2313""
","""event"",""trial"",""time""
""blur"",""0"",""0""
","""event"",""trial"",""time""
""focus"",""1"",""2223""
","""event"",""trial"",""time""
""fullscreenenter"",""1"",""2313""
","
",,,,,,,,,,,,"[{""stimulus"":""run_exp/static/images/task_images/dig.jpg"",""time"":0.5},{""stimulus"":""run_exp/static/images/task_images/land.jpg"",""time"":966.5},{""stimulus"":""run_exp/static/images/task_images/dig.jpg"",""time"":1916.7999992370605}]",[],1,,,,,,,,,,,,,,
harvest,64,462402,0.0-24.0-1.0,"""event"",""trial"",""time""
""blur"",""0"",""0""
""focus"",""1"",""2223""
""fullscreenenter"",""1"",""2313""
","""event"",""trial"",""time""
""blur"",""0"",""0""
","""event"",""trial"",""time""
""focus"",""1"",""2223""
","""event"",""trial"",""time""
""fullscreenenter"",""1"",""2313""
","
",,null,run_exp/static/images/task_images/gems/16.jpg,null,,,,,,,3,,,1,,,,,16,0.203445475,0.1875,,,,,,,
decision,65,463624,0.0-24.0-2.0,"""event"",""trial"",""time""
""blur"",""0"",""0""
""focus"",""1"",""2223""
""fullscreenenter"",""1"",""2313""
","""event"",""trial"",""time""
""blur"",""0"",""0""
","""event"",""trial"",""time""
""focus"",""1"",""2223""
","""event"",""trial"",""time""
""fullscreenenter"",""1"",""2313""
","
",,1218.5,run_exp/static/images/task_images/land.jpg,65,,,,,,,3,,,1,,,,,,,,13832,1,1,FALSE,,,
dig,66,465423,0.0-25.0-0.0,"""event"",""trial"",""time""
""blur"",""0"",""0""
""focus"",""1"",""2223""
""fullscreenenter"",""1"",""2313""
","""event"",""trial"",""time""
""blur"",""0"",""0""
","""event"",""trial"",""time""
""focus"",""1"",""2223""
","""event"",""trial"",""time""
""fullscreenenter"",""1"",""2313""
","
",,,,,,,,,,,,"[{""stimulus"":""run_exp/static/images/task_images/dig.jpg"",""time"":0.5},{""stimulus"":""run_exp/static/images/task_images/land.jpg"",""time"":603.1000003814697},{""stimulus"":""run_exp/static/images/task_images/dig.jpg"",""time"":1202.6000003814697}]",[],1,,,,,,,,,,,,,,
harvest,67,466432,0.0-25.0-1.0,"""event"",""trial"",""time""
""blur"",""0"",""0""
""focus"",""1"",""2223""
""fullscreenenter"",""1"",""2313""
","""event"",""trial"",""time""
""blur"",""0"",""0""
","""event"",""trial"",""time""
""focus"",""1"",""2223""
","""event"",""trial"",""time""
""fullscreenenter"",""1"",""2313""
","
",,null,run_exp/static/images/task_images/gems/3.jpg,null,,,,,,,1,,,1,,,,,3,0.201800676,0.333333333,,,,,,,
decision,68,466573,0.0-25.0-2.0,"""event"",""trial"",""time""
""blur"",""0"",""0""
""focus"",""1"",""2223""
""fullscreenenter"",""1"",""2313""
","""event"",""trial"",""time""
""blur"",""0"",""0""
","""event"",""trial"",""time""
""focus"",""1"",""2223""
","""event"",""trial"",""time""
""fullscreenenter"",""1"",""2313""
","
",,138,run_exp/static/images/task_images/land.jpg,65,,,,,,,1,,,1,,,,,,,,16781,1,2,FALSE,,,
dig,69,469453,0.0-26.0-0.0,"""event"",""trial"",""time""
""blur"",""0"",""0""
""focus"",""1"",""2223""
""fullscreenenter"",""1"",""2313""
","""event"",""trial"",""time""
""blur"",""0"",""0""
","""event"",""trial"",""time""
""focus"",""1"",""2223""
","""event"",""trial"",""time""
""fullscreenenter"",""1"",""2313""
","
",,,,,,,,,,,,"[{""stimulus"":""run_exp/static/images/task_images/dig.jpg"",""time"":0.5},{""stimulus"":""run_exp/static/images/task_images/land.jpg"",""time"":972.6999998092651},{""stimulus"":""run_exp/static/images/task_images/dig.jpg"",""time"":1924.1999998092651}]",[],1,,,,,,,,,,,,,,
harvest,70,470472,0.0-26.0-1.0,"""event"",""trial"",""time""
""blur"",""0"",""0""
""focus"",""1"",""2223""
""fullscreenenter"",""1"",""2313""
","""event"",""trial"",""time""
""blur"",""0"",""0""
","""event"",""trial"",""time""
""focus"",""1"",""2223""
","""event"",""trial"",""time""
""fullscreenenter"",""1"",""2313""
","
",,null,run_exp/static/images/task_images/gems/1.jpg,null,,,,,,,0,,,1,,,,,1,0.143763505,0,,,,,,,
decision,71,472028,0.0-26.0-2.0,"""event"",""trial"",""time""
""blur"",""0"",""0""
""focus"",""1"",""2223""
""fullscreenenter"",""1"",""2313""
","""event"",""trial"",""time""
""blur"",""0"",""0""
","""event"",""trial"",""time""
""focus"",""1"",""2223""
","""event"",""trial"",""time""
""fullscreenenter"",""1"",""2313""
","
",,1549.700001,run_exp/static/images/task_images/land.jpg,65,,,,,,,0,,,1,,,,,,,,22236,1,3,FALSE,,,
dig,72,473502,0.0-27.0-0.0,"""event"",""trial"",""time""
""blur"",""0"",""0""
""focus"",""1"",""2223""
""fullscreenenter"",""1"",""2313""
","""event"",""trial"",""time""
""blur"",""0"",""0""
","""event"",""trial"",""time""
""focus"",""1"",""2223""
","""event"",""trial"",""time""
""fullscreenenter"",""1"",""2313""
","
",,,,,,,,,,,,"[{""stimulus"":""run_exp/static/images/task_images/dig.jpg"",""time"":0.5},{""stimulus"":""run_exp/static/images/task_images/land.jpg"",""time"":487.80000019073486},{""stimulus"":""run_exp/static/images/task_images/dig.jpg"",""time"":988.1999998092651}]",[],1,,,,,,,,,,,,,,
harvest,73,474512,0.0-27.0-1.0,"""event"",""trial"",""time""
""blur"",""0"",""0""
""focus"",""1"",""2223""
""fullscreenenter"",""1"",""2313""
","""event"",""trial"",""time""
""blur"",""0"",""0""
","""event"",""trial"",""time""
""focus"",""1"",""2223""
","""event"",""trial"",""time""
""fullscreenenter"",""1"",""2313""
","
",,null,run_exp/static/images/task_images/gems/0.jpg,null,,,,,,,0,,,1,,,,,0,0.243660539,NaN,,,,,,,
decision,74,474996,0.0-27.0-2.0,"""event"",""trial"",""time""
""blur"",""0"",""0""
""focus"",""1"",""2223""
""fullscreenenter"",""1"",""2313""
","""event"",""trial"",""time""
""blur"",""0"",""0""
","""event"",""trial"",""time""
""focus"",""1"",""2223""
","""event"",""trial"",""time""
""fullscreenenter"",""1"",""2313""
","
",,479.6999998,run_exp/static/images/task_images/land.jpg,76,,,,,,,0,,,1,,,,,,,,25204,1,4,TRUE,,,
travel,75,484523,0.0-28.0-0.0,"""event"",""trial"",""time""
""blur"",""0"",""0""
""focus"",""1"",""2223""
""fullscreenenter"",""1"",""2313""
","""event"",""trial"",""time""
""blur"",""0"",""0""
","""event"",""trial"",""time""
""focus"",""1"",""2223""
","""event"",""trial"",""time""
""fullscreenenter"",""1"",""2313""
","
",,,,,,,,,,,,"[{""stimulus"":""run_exp/static/images/task_images/rocket-01.jpg"",""time"":0.5},{""stimulus"":""run_exp/static/images/task_images/rocket-02.jpg"",""time"":1060.1000003814697},{""stimulus"":""run_exp/static/images/task_images/rocket-03.jpg"",""time"":2120.199999809265},{""stimulus"":""run_exp/static/images/task_images/rocket-04.jpg"",""time"":3181.300000190735},{""stimulus"":""run_exp/static/images/task_images/rocket-05.jpg"",""time"":4250.5},{""stimulus"":""run_exp/static/images/task_images/rocket-06.jpg"",""time"":5300.199999809265},{""stimulus"":""run_exp/static/images/task_images/rocket-07.jpg"",""time"":6350.699999809265},{""stimulus"":""run_exp/static/images/task_images/rocket-08.jpg"",""time"":7420.300000190735},{""stimulus"":""run_exp/static/images/task_images/rocket-09.jpg"",""time"":8470.89999961853}]",[],1,,,,,,,,,,,,,,
alien_welcome,76,489543,0.0-28.0-1.0,"""event"",""trial"",""time""
""blur"",""0"",""0""
""focus"",""1"",""2223""
""fullscreenenter"",""1"",""2313""
","""event"",""trial"",""time""
""blur"",""0"",""0""
","""event"",""trial"",""time""
""focus"",""1"",""2223""
","""event"",""trial"",""time""
""fullscreenenter"",""1"",""2313""
","
",,null,run_exp/static/images/task_images/aliens/old_aliens/planet/alien_planet-36.jpg,null,,,,,,,,,,,,,36,"1,36,61,39,13,60,11,50,40,78,57,26,24,5,15,55,42,34,10,75,21,62,44",,,,,,,,,,
land,77,490063,0.0-28.0-2.0,"""event"",""trial"",""time""
""blur"",""0"",""0""
""focus"",""1"",""2223""
""fullscreenenter"",""1"",""2313""
","""event"",""trial"",""time""
""blur"",""0"",""0""
","""event"",""trial"",""time""
""focus"",""1"",""2223""
","""event"",""trial"",""time""
""fullscreenenter"",""1"",""2313""
","
",,null,run_exp/static/images/task_images/land.jpg,null,,,,,,,103,,,2,,,,,,,,,,,,,,
dig,78,492073,0.0-28.0-3.0,"""event"",""trial"",""time""
""blur"",""0"",""0""
""focus"",""1"",""2223""
""fullscreenenter"",""1"",""2313""
","""event"",""trial"",""time""
""blur"",""0"",""0""
","""event"",""trial"",""time""
""focus"",""1"",""2223""
","""event"",""trial"",""time""
""fullscreenenter"",""1"",""2313""
","
",,,,,,,,,,,,"[{""stimulus"":""run_exp/static/images/task_images/dig.jpg"",""time"":0.5},{""stimulus"":""run_exp/static/images/task_images/land.jpg"",""time"":677.1999998092651},{""stimulus"":""run_exp/static/images/task_images/dig.jpg"",""time"":1336.6000003814697}]",[],2,,,,,,,,,,,,,,
harvest,79,493092,0.0-28.0-4.0,"""event"",""trial"",""time""
""blur"",""0"",""0""
""focus"",""1"",""2223""
""fullscreenenter"",""1"",""2313""
","""event"",""trial"",""time""
""blur"",""0"",""0""
","""event"",""trial"",""time""
""focus"",""1"",""2223""
","""event"",""trial"",""time""
""fullscreenenter"",""1"",""2313""
","
",,null,run_exp/static/images/task_images/gems/103.jpg,null,,,,,,,34,,,2,,,,,103,0.33216163,0.330097087,,,,,,,
decision,80,493649,0.0-28.0-5.0,"""event"",""trial"",""time""
""blur"",""0"",""0""
""focus"",""1"",""2223""
""fullscreenenter"",""1"",""2313""
","""event"",""trial"",""time""
""blur"",""0"",""0""
","""event"",""trial"",""time""
""focus"",""1"",""2223""
","""event"",""trial"",""time""
""fullscreenenter"",""1"",""2313""
","
",,554,run_exp/static/images/task_images/land.jpg,65,,,,,,,34,,,2,,,,,,,,43857,1,0,FALSE,,,
dig,81,496113,0.0-29.0-0.0,"""event"",""trial"",""time""
""blur"",""0"",""0""
""focus"",""1"",""2223""
""fullscreenenter"",""1"",""2313""
","""event"",""trial"",""time""
""blur"",""0"",""0""
","""event"",""trial"",""time""
""focus"",""1"",""2223""
","""event"",""trial"",""time""
""fullscreenenter"",""1"",""2313""
","
",,,,,,,,,,,,"[{""stimulus"":""run_exp/static/images/task_images/dig.jpg"",""time"":0.40000057220458984},{""stimulus"":""run_exp/static/images/task_images/land.jpg"",""time"":837.4000005722046},{""stimulus"":""run_exp/static/images/task_images/dig.jpg"",""time"":1637.4000005722046}]",[],2,,,,,,,,,,,,,,
harvest,82,497132,0.0-29.0-1.0,"""event"",""trial"",""time""
""blur"",""0"",""0""
""focus"",""1"",""2223""
""fullscreenenter"",""1"",""2313""
","""event"",""trial"",""time""
""blur"",""0"",""0""
","""event"",""trial"",""time""
""focus"",""1"",""2223""
","""event"",""trial"",""time""
""fullscreenenter"",""1"",""2313""
","
",,null,run_exp/static/images/task_images/gems/34.jpg,null,,,,,,,6,,,2,,,,,34,0.167401201,0.176470588,,,,,,,
decision,83,498118,0.0-29.0-2.0,"""event"",""trial"",""time""
""blur"",""0"",""0""
""focus"",""1"",""2223""
""fullscreenenter"",""1"",""2313""
","""event"",""trial"",""time""
""blur"",""0"",""0""
","""event"",""trial"",""time""
""focus"",""1"",""2223""
","""event"",""trial"",""time""
""fullscreenenter"",""1"",""2313""
","
",,982.8999996,run_exp/static/images/task_images/land.jpg,65,,,,,,,6,,,2,,,,,,,,48327,1,1,FALSE,,,
dig,84,500141,0.0-30.0-0.0,"""event"",""trial"",""time""
""blur"",""0"",""0""
""focus"",""1"",""2223""
""fullscreenenter"",""1"",""2313""
","""event"",""trial"",""time""
""blur"",""0"",""0""
","""event"",""trial"",""time""
""focus"",""1"",""2223""
","""event"",""trial"",""time""
""fullscreenenter"",""1"",""2313""
","
",,,,,,,,,,,,"[{""stimulus"":""run_exp/static/images/task_images/dig.jpg"",""time"":0.5},{""stimulus"":""run_exp/static/images/task_images/land.jpg"",""time"":677.6999998092651},{""stimulus"":""run_exp/static/images/task_images/dig.jpg"",""time"":1347.8999996185303}]",[],2,,,,,,,,,,,,,,
harvest,85,501149,0.0-30.0-1.0,"""event"",""trial"",""time""
""blur"",""0"",""0""
""focus"",""1"",""2223""
""fullscreenenter"",""1"",""2313""
","""event"",""trial"",""time""
""blur"",""0"",""0""
","""event"",""trial"",""time""
""focus"",""1"",""2223""
","""event"",""trial"",""time""
""fullscreenenter"",""1"",""2313""
","
",,null,run_exp/static/images/task_images/gems/6.jpg,null,,,,,,,2,,,2,,,,,6,0.277891243,0.333333333,,,,,,,
decision,86,503691,0.0-30.0-2.0,"""event"",""trial"",""time""
""blur"",""0"",""0""
""focus"",""1"",""2223""
""fullscreenenter"",""1"",""2313""
","""event"",""trial"",""time""
""blur"",""0"",""0""
","""event"",""trial"",""time""
""focus"",""1"",""2223""
","""event"",""trial"",""time""
""fullscreenenter"",""1"",""2313""
","
",,2539.1,run_exp/static/images/task_images/land.jpg,65,,,,,,,2,,,2,,,,,,,,53899,1,2,FALSE,,,
dig,87,504161,0.0-31.0-0.0,"""event"",""trial"",""time""
""blur"",""0"",""0""
""focus"",""1"",""2223""
""fullscreenenter"",""1"",""2313""
","""event"",""trial"",""time""
""blur"",""0"",""0""
","""event"",""trial"",""time""
""focus"",""1"",""2223""
","""event"",""trial"",""time""
""fullscreenenter"",""1"",""2313""
","
",,,,,,,,,,,,"[{""stimulus"":""run_exp/static/images/task_images/dig.jpg"",""time"":0.5},{""stimulus"":""run_exp/static/images/task_images/land.jpg"",""time"":163.70000076293945},{""stimulus"":""run_exp/static/images/task_images/dig.jpg"",""time"":313.30000019073486}]",[],2,,,,,,,,,,,,,,
harvest,88,505171,0.0-31.0-1.0,"""event"",""trial"",""time""
""blur"",""0"",""0""
""focus"",""1"",""2223""
""fullscreenenter"",""1"",""2313""
","""event"",""trial"",""time""
""blur"",""0"",""0""
","""event"",""trial"",""time""
""focus"",""1"",""2223""
","""event"",""trial"",""time""
""fullscreenenter"",""1"",""2313""
","
",,null,run_exp/static/images/task_images/gems/2.jpg,null,,,,,,,0,,,2,,,,,2,0.16269677,0,,,,,,,
decision,89,505337,0.0-31.0-2.0,"""event"",""trial"",""time""
""blur"",""0"",""0""
""focus"",""1"",""2223""
""fullscreenenter"",""1"",""2313""
","""event"",""trial"",""time""
""blur"",""0"",""0""
","""event"",""trial"",""time""
""focus"",""1"",""2223""
","""event"",""trial"",""time""
""fullscreenenter"",""1"",""2313""
","
",,163.1999998,run_exp/static/images/task_images/land.jpg,65,,,,,,,0,,,2,,,,,,,,55545,1,3,FALSE,,,
dig,90,508191,0.0-32.0-0.0,"""event"",""trial"",""time""
""blur"",""0"",""0""
""focus"",""1"",""2223""
""fullscreenenter"",""1"",""2313""
","""event"",""trial"",""time""
""blur"",""0"",""0""
","""event"",""trial"",""time""
""focus"",""1"",""2223""
","""event"",""trial"",""time""
""fullscreenenter"",""1"",""2313""
","
",,,,,,,,,,,,"[{""stimulus"":""run_exp/static/images/task_images/dig.jpg"",""time"":0.39999961853027344},{""stimulus"":""run_exp/static/images/task_images/land.jpg"",""time"":956.8000001907349},{""stimulus"":""run_exp/static/images/task_images/dig.jpg"",""time"":1897.0999994277954}]",[],2,,,,,,,,,,,,,,
harvest,91,509211,0.0-32.0-1.0,"""event"",""trial"",""time""
""blur"",""0"",""0""
""focus"",""1"",""2223""
""fullscreenenter"",""1"",""2313""
","""event"",""trial"",""time""
""blur"",""0"",""0""
","""event"",""trial"",""time""
""focus"",""1"",""2223""
","""event"",""trial"",""time""
""fullscreenenter"",""1"",""2313""
","
",,null,run_exp/static/images/task_images/gems/0.jpg,null,,,,,,,0,,,2,,,,,0,0.204672147,NaN,,,,,,,
decision,92,509667,0.0-32.0-2.0,"""event"",""trial"",""time""
""blur"",""0"",""0""
""focus"",""1"",""2223""
""fullscreenenter"",""1"",""2313""
","""event"",""trial"",""time""
""blur"",""0"",""0""
","""event"",""trial"",""time""
""focus"",""1"",""2223""
","""event"",""trial"",""time""
""fullscreenenter"",""1"",""2313""
","
",,452,run_exp/static/images/task_images/land.jpg,76,,,,,,,0,,,2,,,,,,,,59875,1,4,TRUE,,,
travel,93,519221,0.0-33.0-0.0,"""event"",""trial"",""time""
""blur"",""0"",""0""
""focus"",""1"",""2223""
""fullscreenenter"",""1"",""2313""
","""event"",""trial"",""time""
""blur"",""0"",""0""
","""event"",""trial"",""time""
""focus"",""1"",""2223""
","""event"",""trial"",""time""
""fullscreenenter"",""1"",""2313""
","
",,,,,,,,,,,,"[{""stimulus"":""run_exp/static/images/task_images/rocket-01.jpg"",""time"":0.40000057220458984},{""stimulus"":""run_exp/static/images/task_images/rocket-02.jpg"",""time"":1077.7000007629395},{""stimulus"":""run_exp/static/images/task_images/rocket-03.jpg"",""time"":2131.800000190735},{""stimulus"":""run_exp/static/images/task_images/rocket-04.jpg"",""time"":3187.2000007629395},{""stimulus"":""run_exp/static/images/task_images/rocket-05.jpg"",""time"":4246.60000038147},{""stimulus"":""run_exp/static/images/task_images/rocket-06.jpg"",""time"":5307.700000762939},{""stimulus"":""run_exp/static/images/task_images/rocket-07.jpg"",""time"":6366.900000572205},{""stimulus"":""run_exp/static/images/task_images/rocket-08.jpg"",""time"":7426.5},{""stimulus"":""run_exp/static/images/task_images/rocket-09.jpg"",""time"":8496.800000190735}]",[],2,,,,,,,,,,,,,,
alien_welcome,94,524241,0.0-33.0-1.0,"""event"",""trial"",""time""
""blur"",""0"",""0""
""focus"",""1"",""2223""
""fullscreenenter"",""1"",""2313""
","""event"",""trial"",""time""
""blur"",""0"",""0""
","""event"",""trial"",""time""
""focus"",""1"",""2223""
","""event"",""trial"",""time""
""fullscreenenter"",""1"",""2313""
","
",,null,run_exp/static/images/task_images/aliens/old_aliens/planet/alien_planet-61.jpg,null,,,,,,,,,,,,,61,"1,36,61,39,13,60,11,50,40,78,57,26,24,5,15,55,42,34,10,75,21,62,44",,,,,,,,,,
land,95,524747,0.0-33.0-2.0,"""event"",""trial"",""time""
""blur"",""0"",""0""
""focus"",""1"",""2223""
""fullscreenenter"",""1"",""2313""
","""event"",""trial"",""time""
""blur"",""0"",""0""
","""event"",""trial"",""time""
""focus"",""1"",""2223""
","""event"",""trial"",""time""
""fullscreenenter"",""1"",""2313""
","
",,null,run_exp/static/images/task_images/land.jpg,null,,,,,,,98,,,3,,,,,,,,,,,,,,
dig,96,526761,0.0-33.0-3.0,"""event"",""trial"",""time""
""blur"",""0"",""0""
""focus"",""1"",""2223""
""fullscreenenter"",""1"",""2313""
","""event"",""trial"",""time""
""blur"",""0"",""0""
","""event"",""trial"",""time""
""focus"",""1"",""2223""
","""event"",""trial"",""time""
""fullscreenenter"",""1"",""2313""
","
",,,,,,,,,,,,"[{""stimulus"":""run_exp/static/images/task_images/dig.jpg"",""time"":0.5},{""stimulus"":""run_exp/static/images/task_images/land.jpg"",""time"":678.3000001907349},{""stimulus"":""run_exp/static/images/task_images/dig.jpg"",""time"":1341.1000003814697}]",[],3,,,,,,,,,,,,,,
harvest,97,527781,0.0-33.0-4.0,"""event"",""trial"",""time""
""blur"",""0"",""0""
""focus"",""1"",""2223""
""fullscreenenter"",""1"",""2313""
","""event"",""trial"",""time""
""blur"",""0"",""0""
","""event"",""trial"",""time""
""focus"",""1"",""2223""
","""event"",""trial"",""time""
""fullscreenenter"",""1"",""2313""
","
",,null,run_exp/static/images/task_images/gems/98.jpg,null,,,,,,,56,,,3,,,,,98,0.56664218,0.571428571,,,,,,,
decision,98,527891,0.0-33.0-5.0,"""event"",""trial"",""time""
""blur"",""0"",""0""
""focus"",""1"",""2223""
""fullscreenenter"",""1"",""2313""
","""event"",""trial"",""time""
""blur"",""0"",""0""
","""event"",""trial"",""time""
""focus"",""1"",""2223""
","""event"",""trial"",""time""
""fullscreenenter"",""1"",""2313""
","
",,106.6999998,run_exp/static/images/task_images/land.jpg,65,,,,,,,56,,,3,,,,,,,,78099,1,0,FALSE,,,
dig,99,530801,0.0-34.0-0.0,"""event"",""trial"",""time""
""blur"",""0"",""0""
""focus"",""1"",""2223""
""fullscreenenter"",""1"",""2313""
","""event"",""trial"",""time""
""blur"",""0"",""0""
","""event"",""trial"",""time""
""focus"",""1"",""2223""
","""event"",""trial"",""time""
""fullscreenenter"",""1"",""2313""
","
",,,,,,,,,,,,"[{""stimulus"":""run_exp/static/images/task_images/dig.jpg"",""time"":0.5},{""stimulus"":""run_exp/static/images/task_images/land.jpg"",""time"":984.4000005722046},{""stimulus"":""run_exp/static/images/task_images/dig.jpg"",""time"":1944.6999998092651}]",[],3,,,,,,,,,,,,,,
harvest,100,531811,0.0-34.0-1.0,"""event"",""trial"",""time""
""blur"",""0"",""0""
""focus"",""1"",""2223""
""fullscreenenter"",""1"",""2313""
","""event"",""trial"",""time""
""blur"",""0"",""0""
","""event"",""trial"",""time""
""focus"",""1"",""2223""
","""event"",""trial"",""time""
""fullscreenenter"",""1"",""2313""
","
",,null,run_exp/static/images/task_images/gems/56.jpg,null,,,,,,,31,,,3,,,,,56,0.550784798,0.553571429,,,,,,,
decision,101,531938,0.0-34.0-2.0,"""event"",""trial"",""time""
""blur"",""0"",""0""
""focus"",""1"",""2223""
""fullscreenenter"",""1"",""2313""
","""event"",""trial"",""time""
""blur"",""0"",""0""
","""event"",""trial"",""time""
""focus"",""1"",""2223""
","""event"",""trial"",""time""
""fullscreenenter"",""1"",""2313""
","
",,123.4000006,run_exp/static/images/task_images/land.jpg,65,,,,,,,31,,,3,,,,,,,,82146,1,1,FALSE,,,
dig,102,534831,0.0-35.0-0.0,"""event"",""trial"",""time""
""blur"",""0"",""0""
""focus"",""1"",""2223""
""fullscreenenter"",""1"",""2313""
","""event"",""trial"",""time""
""blur"",""0"",""0""
","""event"",""trial"",""time""
""focus"",""1"",""2223""
","""event"",""trial"",""time""
""fullscreenenter"",""1"",""2313""
","
",,,,,,,,,,,,"[{""stimulus"":""run_exp/static/images/task_images/dig.jpg"",""time"":0.5},{""stimulus"":""run_exp/static/images/task_images/land.jpg"",""time"":966.4000005722046},{""stimulus"":""run_exp/static/images/task_images/dig.jpg"",""time"":1936.9000005722046}]",[],3,,,,,,,,,,,,,,
harvest,103,535851,0.0-35.0-1.0,"""event"",""trial"",""time""
""blur"",""0"",""0""
""focus"",""1"",""2223""
""fullscreenenter"",""1"",""2313""
","""event"",""trial"",""time""
""blur"",""0"",""0""
","""event"",""trial"",""time""
""focus"",""1"",""2223""
","""event"",""trial"",""time""
""fullscreenenter"",""1"",""2313""
","
",,null,run_exp/static/images/task_images/gems/31.jpg,null,,,,,,,16,,,3,,,,,31,0.501149529,0.516129032,,,,,,,
decision,104,536306,0.0-35.0-2.0,"""event"",""trial"",""time""
""blur"",""0"",""0""
""focus"",""1"",""2223""
""fullscreenenter"",""1"",""2313""
","""event"",""trial"",""time""
""blur"",""0"",""0""
","""event"",""trial"",""time""
""focus"",""1"",""2223""
","""event"",""trial"",""time""
""fullscreenenter"",""1"",""2313""
","
",,452.6999998,run_exp/static/images/task_images/land.jpg,65,,,,,,,16,,,3,,,,,,,,86514,1,2,FALSE,,,
dig,105,538881,0.0-36.0-0.0,"""event"",""trial"",""time""
""blur"",""0"",""0""
""focus"",""1"",""2223""
""fullscreenenter"",""1"",""2313""
","""event"",""trial"",""time""
""blur"",""0"",""0""
","""event"",""trial"",""time""
""focus"",""1"",""2223""
","""event"",""trial"",""time""
""fullscreenenter"",""1"",""2313""
","
",,,,,,,,,,,,"[{""stimulus"":""run_exp/static/images/task_images/dig.jpg"",""time"":0.39999961853027344},{""stimulus"":""run_exp/static/images/task_images/land.jpg"",""time"":869.0999994277954},{""stimulus"":""run_exp/static/images/task_images/dig.jpg"",""time"":1708.3999996185303}]",[],3,,,,,,,,,,,,,,
harvest,106,539904,0.0-36.0-1.0,"""event"",""trial"",""time""
""blur"",""0"",""0""
""focus"",""1"",""2223""
""fullscreenenter"",""1"",""2313""
","""event"",""trial"",""time""
""blur"",""0"",""0""
","""event"",""trial"",""time""
""focus"",""1"",""2223""
","""event"",""trial"",""time""
""fullscreenenter"",""1"",""2313""
","
",,null,run_exp/static/images/task_images/gems/16.jpg,null,,,,,,,9,,,3,,,,,16,0.542704904,0.5625,,,,,,,
decision,107,540090,0.0-36.0-2.0,"""event"",""trial"",""time""
""blur"",""0"",""0""
""focus"",""1"",""2223""
""fullscreenenter"",""1"",""2313""
","""event"",""trial"",""time""
""blur"",""0"",""0""
","""event"",""trial"",""time""
""focus"",""1"",""2223""
","""event"",""trial"",""time""
""fullscreenenter"",""1"",""2313""
","
",,181.7000008,run_exp/static/images/task_images/land.jpg,65,,,,,,,9,,,3,,,,,,,,90298,1,3,FALSE,,,
dig,108,542931,0.0-37.0-0.0,"""event"",""trial"",""time""
""blur"",""0"",""0""
""focus"",""1"",""2223""
""fullscreenenter"",""1"",""2313""
","""event"",""trial"",""time""
""blur"",""0"",""0""
","""event"",""trial"",""time""
""focus"",""1"",""2223""
","""event"",""trial"",""time""
""fullscreenenter"",""1"",""2313""
","
",,,,,,,,,,,,"[{""stimulus"":""run_exp/static/images/task_images/dig.jpg"",""time"":0.5},{""stimulus"":""run_exp/static/images/task_images/land.jpg"",""time"":944.4000005722046},{""stimulus"":""run_exp/static/images/task_images/dig.jpg"",""time"":1894.4000005722046}]",[],3,,,,,,,,,,,,,,
harvest,109,543941,0.0-37.0-1.0,"""event"",""trial"",""time""
""blur"",""0"",""0""
""focus"",""1"",""2223""
""fullscreenenter"",""1"",""2313""
","""event"",""trial"",""time""
""blur"",""0"",""0""
","""event"",""trial"",""time""
""focus"",""1"",""2223""
","""event"",""trial"",""time""
""fullscreenenter"",""1"",""2313""
","
",,null,run_exp/static/images/task_images/gems/9.jpg,null,,,,,,,5,,,3,,,,,9,0.516023499,0.555555556,,,,,,,
decision,110,544953,0.0-37.0-2.0,"""event"",""trial"",""time""
""blur"",""0"",""0""
""focus"",""1"",""2223""
""fullscreenenter"",""1"",""2313""
","""event"",""trial"",""time""
""blur"",""0"",""0""
","""event"",""trial"",""time""
""focus"",""1"",""2223""
","""event"",""trial"",""time""
""fullscreenenter"",""1"",""2313""
","
",,1008.6,run_exp/static/images/task_images/land.jpg,65,,,,,,,5,,,3,,,,,,,,95161,1,4,FALSE,,,
dig,111,546971,0.0-38.0-0.0,"""event"",""trial"",""time""
""blur"",""0"",""0""
""focus"",""1"",""2223""
""fullscreenenter"",""1"",""2313""
","""event"",""trial"",""time""
""blur"",""0"",""0""
","""event"",""trial"",""time""
""focus"",""1"",""2223""
","""event"",""trial"",""time""
""fullscreenenter"",""1"",""2313""
","
",,,,,,,,,,,,"[{""stimulus"":""run_exp/static/images/task_images/dig.jpg"",""time"":0.5},{""stimulus"":""run_exp/static/images/task_images/land.jpg"",""time"":671.3999996185303},{""stimulus"":""run_exp/static/images/task_images/dig.jpg"",""time"":1331.1999998092651}]",[],3,,,,,,,,,,,,,,
harvest,112,547982,0.0-38.0-1.0,"""event"",""trial"",""time""
""blur"",""0"",""0""
""focus"",""1"",""2223""
""fullscreenenter"",""1"",""2313""
","""event"",""trial"",""time""
""blur"",""0"",""0""
","""event"",""trial"",""time""
""focus"",""1"",""2223""
","""event"",""trial"",""time""
""fullscreenenter"",""1"",""2313""
","
",,null,run_exp/static/images/task_images/gems/5.jpg,null,,,,,,,2,,,3,,,,,5,0.459216722,0.4,,,,,,,
decision,113,548121,0.0-38.0-2.0,"""event"",""trial"",""time""
""blur"",""0"",""0""
""focus"",""1"",""2223""
""fullscreenenter"",""1"",""2313""
","""event"",""trial"",""time""
""blur"",""0"",""0""
","""event"",""trial"",""time""
""focus"",""1"",""2223""
","""event"",""trial"",""time""
""fullscreenenter"",""1"",""2313""
","
",,135.8000002,run_exp/static/images/task_images/land.jpg,65,,,,,,,2,,,3,,,,,,,,98329,1,5,FALSE,,,
dig,114,551001,0.0-39.0-0.0,"""event"",""trial"",""time""
""blur"",""0"",""0""
""focus"",""1"",""2223""
""fullscreenenter"",""1"",""2313""
","""event"",""trial"",""time""
""blur"",""0"",""0""
","""event"",""trial"",""time""
""focus"",""1"",""2223""
","""event"",""trial"",""time""
""fullscreenenter"",""1"",""2313""
","
",,,,,,,,,,,,"[{""stimulus"":""run_exp/static/images/task_images/dig.jpg"",""time"":0.5},{""stimulus"":""run_exp/static/images/task_images/land.jpg"",""time"":974.0999994277954},{""stimulus"":""run_exp/static/images/task_images/dig.jpg"",""time"":1923.8999996185303}]",[],3,,,,,,,,,,,,,,
harvest,115,552021,0.0-39.0-1.0,"""event"",""trial"",""time""
""blur"",""0"",""0""
""focus"",""1"",""2223""
""fullscreenenter"",""1"",""2313""
","""event"",""trial"",""time""
""blur"",""0"",""0""
","""event"",""trial"",""time""
""focus"",""1"",""2223""
","""event"",""trial"",""time""
""fullscreenenter"",""1"",""2313""
","
",,null,run_exp/static/images/task_images/gems/2.jpg,null,,,,,,,1,,,3,,,,,2,0.47724472,0.5,,,,,,,
decision,116,553350,0.0-39.0-2.0,"""event"",""trial"",""time""
""blur"",""0"",""0""
""focus"",""1"",""2223""
""fullscreenenter"",""1"",""2313""
","""event"",""trial"",""time""
""blur"",""0"",""0""
","""event"",""trial"",""time""
""focus"",""1"",""2223""
","""event"",""trial"",""time""
""fullscreenenter"",""1"",""2313""
","
",,1326,run_exp/static/images/task_images/land.jpg,65,,,,,,,1,,,3,,,,,,,,103559,1,6,FALSE,,,
dig,117,555041,0.0-40.0-0.0,"""event"",""trial"",""time""
""blur"",""0"",""0""
""focus"",""1"",""2223""
""fullscreenenter"",""1"",""2313""
","""event"",""trial"",""time""
""blur"",""0"",""0""
","""event"",""trial"",""time""
""focus"",""1"",""2223""
","""event"",""trial"",""time""
""fullscreenenter"",""1"",""2313""
","
",,,,,,,,,,,,"[{""stimulus"":""run_exp/static/images/task_images/dig.jpg"",""time"":0.5},{""stimulus"":""run_exp/static/images/task_images/land.jpg"",""time"":564.1999998092651},{""stimulus"":""run_exp/static/images/task_images/dig.jpg"",""time"":1138}]",[],3,,,,,,,,,,,,,,
harvest,118,556064,0.0-40.0-1.0,"""event"",""trial"",""time""
""blur"",""0"",""0""
""focus"",""1"",""2223""
""fullscreenenter"",""1"",""2313""
","""event"",""trial"",""time""
""blur"",""0"",""0""
","""event"",""trial"",""time""
""focus"",""1"",""2223""
","""event"",""trial"",""time""
""fullscreenenter"",""1"",""2313""
","
",,null,run_exp/static/images/task_images/gems/1.jpg,null,,,,,,,0,,,3,,,,,1,0.434569962,0,,,,,,,
decision,119,557220,0.0-40.0-2.0,"""event"",""trial"",""time""
""blur"",""0"",""0""
""focus"",""1"",""2223""
""fullscreenenter"",""1"",""2313""
","""event"",""trial"",""time""
""blur"",""0"",""0""
","""event"",""trial"",""time""
""focus"",""1"",""2223""
","""event"",""trial"",""time""
""fullscreenenter"",""1"",""2313""
","
",,1151,run_exp/static/images/task_images/land.jpg,65,,,,,,,0,,,3,,,,,,,,107428,1,7,FALSE,,,
dig,120,559083,0.0-41.0-0.0,"""event"",""trial"",""time""
""blur"",""0"",""0""
""focus"",""1"",""2223""
""fullscreenenter"",""1"",""2313""
","""event"",""trial"",""time""
""blur"",""0"",""0""
","""event"",""trial"",""time""
""focus"",""1"",""2223""
","""event"",""trial"",""time""
""fullscreenenter"",""1"",""2313""
","
",,,,,,,,,,,,"[{""stimulus"":""run_exp/static/images/task_images/dig.jpg"",""time"":0.5},{""stimulus"":""run_exp/static/images/task_images/land.jpg"",""time"":634.3000001907349},{""stimulus"":""run_exp/static/images/task_images/dig.jpg"",""time"":1244.0999994277954}]",[],3,,,,,,,,,,,,,,
harvest,121,560094,0.0-41.0-1.0,"""event"",""trial"",""time""
""blur"",""0"",""0""
""focus"",""1"",""2223""
""fullscreenenter"",""1"",""2313""
","""event"",""trial"",""time""
""blur"",""0"",""0""
","""event"",""trial"",""time""
""focus"",""1"",""2223""
","""event"",""trial"",""time""
""fullscreenenter"",""1"",""2313""
","
",,null,run_exp/static/images/task_images/gems/0.jpg,null,,,,,,,0,,,3,,,,,0,0.510914584,NaN,,,,,,,
decision,122,560929,0.0-41.0-2.0,"""event"",""trial"",""time""
""blur"",""0"",""0""
""focus"",""1"",""2223""
""fullscreenenter"",""1"",""2313""
","""event"",""trial"",""time""
""blur"",""0"",""0""
","""event"",""trial"",""time""
""focus"",""1"",""2223""
","""event"",""trial"",""time""
""fullscreenenter"",""1"",""2313""
","
",,831.6000004,run_exp/static/images/task_images/land.jpg,76,,,,,,,0,,,3,,,,,,,,111137,1,8,TRUE,,,
travel,123,570104,0.0-42.0-0.0,"""event"",""trial"",""time""
""blur"",""0"",""0""
""focus"",""1"",""2223""
""fullscreenenter"",""1"",""2313""
","""event"",""trial"",""time""
""blur"",""0"",""0""
","""event"",""trial"",""time""
""focus"",""1"",""2223""
","""event"",""trial"",""time""
""fullscreenenter"",""1"",""2313""
","
",,,,,,,,,,,,"[{""stimulus"":""run_exp/static/images/task_images/rocket-01.jpg"",""time"":0.5},{""stimulus"":""run_exp/static/images/task_images/rocket-02.jpg"",""time"":1038.0999994277954},{""stimulus"":""run_exp/static/images/task_images/rocket-03.jpg"",""time"":2048.3999996185303},{""stimulus"":""run_exp/static/images/task_images/rocket-04.jpg"",""time"":3068.199999809265},{""stimulus"":""run_exp/static/images/task_images/rocket-05.jpg"",""time"":4089.8999996185303},{""stimulus"":""run_exp/static/images/task_images/rocket-06.jpg"",""time"":5108.599999427795},{""stimulus"":""run_exp/static/images/task_images/rocket-07.jpg"",""time"":6129},{""stimulus"":""run_exp/static/images/task_images/rocket-08.jpg"",""time"":7138.699999809265},{""stimulus"":""run_exp/static/images/task_images/rocket-09.jpg"",""time"":8148.699999809265}]",[],3,,,,,,,,,,,,,,
alien_welcome,124,575124,0.0-42.0-1.0,"""event"",""trial"",""time""
""blur"",""0"",""0""
""focus"",""1"",""2223""
""fullscreenenter"",""1"",""2313""
","""event"",""trial"",""time""
""blur"",""0"",""0""
","""event"",""trial"",""time""
""focus"",""1"",""2223""
","""event"",""trial"",""time""
""fullscreenenter"",""1"",""2313""
","
",,null,run_exp/static/images/task_images/aliens/old_aliens/planet/alien_planet-39.jpg,null,,,,,,,,,,,,,39,"1,36,61,39,13,60,11,50,40,78,57,26,24,5,15,55,42,34,10,75,21,62,44",,,,,,,,,,
land,125,575644,0.0-42.0-2.0,"""event"",""trial"",""time""
""blur"",""0"",""0""
""focus"",""1"",""2223""
""fullscreenenter"",""1"",""2313""
","""event"",""trial"",""time""
""blur"",""0"",""0""
","""event"",""trial"",""time""
""focus"",""1"",""2223""
","""event"",""trial"",""time""
""fullscreenenter"",""1"",""2313""
","
",,null,run_exp/static/images/task_images/land.jpg,null,,,,,,,105,,,4,,,,,,,,,,,,,,
dig,126,577663,0.0-42.0-3.0,"""event"",""trial"",""time""
""blur"",""0"",""0""
""focus"",""1"",""2223""
""fullscreenenter"",""1"",""2313""
","""event"",""trial"",""time""
""blur"",""0"",""0""
","""event"",""trial"",""time""
""focus"",""1"",""2223""
","""event"",""trial"",""time""
""fullscreenenter"",""1"",""2313""
","
",,,,,,,,,,,,"[{""stimulus"":""run_exp/static/images/task_images/dig.jpg"",""time"":0.5},{""stimulus"":""run_exp/static/images/task_images/land.jpg"",""time"":677},{""stimulus"":""run_exp/static/images/task_images/dig.jpg"",""time"":1336.9000005722046}]",[],4,,,,,,,,,,,,,,
harvest,127,578683,0.0-42.0-4.0,"""event"",""trial"",""time""
""blur"",""0"",""0""
""focus"",""1"",""2223""
""fullscreenenter"",""1"",""2313""
","""event"",""trial"",""time""
""blur"",""0"",""0""
","""event"",""trial"",""time""
""focus"",""1"",""2223""
","""event"",""trial"",""time""
""fullscreenenter"",""1"",""2313""
","
",,null,run_exp/static/images/task_images/gems/105.jpg,null,,,,,,,57,,,4,,,,,105,0.542082892,0.542857143,,,,,,,
decision,128,578720,0.0-42.0-5.0,"""event"",""trial"",""time""
""blur"",""0"",""0""
""focus"",""1"",""2223""
""fullscreenenter"",""1"",""2313""
","""event"",""trial"",""time""
""blur"",""0"",""0""
","""event"",""trial"",""time""
""focus"",""1"",""2223""
","""event"",""trial"",""time""
""fullscreenenter"",""1"",""2313""
","
",,32.69999981,run_exp/static/images/task_images/land.jpg,65,,,,,,,57,,,4,,,,,,,,128928,1,0,FALSE,,,
dig,129,581704,0.0-43.0-0.0,"""event"",""trial"",""time""
""blur"",""0"",""0""
""focus"",""1"",""2223""
""fullscreenenter"",""1"",""2313""
","""event"",""trial"",""time""
""blur"",""0"",""0""
","""event"",""trial"",""time""
""focus"",""1"",""2223""
","""event"",""trial"",""time""
""fullscreenenter"",""1"",""2313""
","
",,,,,,,,,,,,"[{""stimulus"":""run_exp/static/images/task_images/dig.jpg"",""time"":0.40000057220458984},{""stimulus"":""run_exp/static/images/task_images/land.jpg"",""time"":994.9000005722046},{""stimulus"":""run_exp/static/images/task_images/dig.jpg"",""time"":1984.8000001907349}]",[],4,,,,,,,,,,,,,,
harvest,130,582723,0.0-43.0-1.0,"""event"",""trial"",""time""
""blur"",""0"",""0""
""focus"",""1"",""2223""
""fullscreenenter"",""1"",""2313""
","""event"",""trial"",""time""
""blur"",""0"",""0""
","""event"",""trial"",""time""
""focus"",""1"",""2223""
","""event"",""trial"",""time""
""fullscreenenter"",""1"",""2313""
","
",,null,run_exp/static/images/task_images/gems/57.jpg,null,,,,,,,29,,,4,,,,,57,0.511121384,0.50877193,,,,,,,
decision,131,582855,0.0-43.0-2.0,"""event"",""trial"",""time""
""blur"",""0"",""0""
""focus"",""1"",""2223""
""fullscreenenter"",""1"",""2313""
","""event"",""trial"",""time""
""blur"",""0"",""0""
","""event"",""trial"",""time""
""focus"",""1"",""2223""
","""event"",""trial"",""time""
""fullscreenenter"",""1"",""2313""
","
",,128.5,run_exp/static/images/task_images/land.jpg,65,,,,,,,29,,,4,,,,,,,,133063,1,1,FALSE,,,
dig,132,585744,0.0-44.0-0.0,"""event"",""trial"",""time""
""blur"",""0"",""0""
""focus"",""1"",""2223""
""fullscreenenter"",""1"",""2313""
","""event"",""trial"",""time""
""blur"",""0"",""0""
","""event"",""trial"",""time""
""focus"",""1"",""2223""
","""event"",""trial"",""time""
""fullscreenenter"",""1"",""2313""
","
",,,,,,,,,,,,"[{""stimulus"":""run_exp/static/images/task_images/dig.jpg"",""time"":0.5999994277954102},{""stimulus"":""run_exp/static/images/task_images/land.jpg"",""time"":962},{""stimulus"":""run_exp/static/images/task_images/dig.jpg"",""time"":1922.5}]",[],4,,,,,,,,,,,,,,
harvest,133,586764,0.0-44.0-1.0,"""event"",""trial"",""time""
""blur"",""0"",""0""
""focus"",""1"",""2223""
""fullscreenenter"",""1"",""2313""
","""event"",""trial"",""time""
""blur"",""0"",""0""
","""event"",""trial"",""time""
""focus"",""1"",""2223""
","""event"",""trial"",""time""
""fullscreenenter"",""1"",""2313""
","
",,null,run_exp/static/images/task_images/gems/29.jpg,null,,,,,,,17,,,4,,,,,29,0.577191313,0.586206897,,,,,,,
decision,134,586918,0.0-44.0-2.0,"""event"",""trial"",""time""
""blur"",""0"",""0""
""focus"",""1"",""2223""
""fullscreenenter"",""1"",""2313""
","""event"",""trial"",""time""
""blur"",""0"",""0""
","""event"",""trial"",""time""
""focus"",""1"",""2223""
","""event"",""trial"",""time""
""fullscreenenter"",""1"",""2313""
","
",,149.6000004,run_exp/static/images/task_images/land.jpg,65,,,,,,,17,,,4,,,,,,,,137126,1,2,FALSE,,,
dig,135,589783,0.0-45.0-0.0,"""event"",""trial"",""time""
""blur"",""0"",""0""
""focus"",""1"",""2223""
""fullscreenenter"",""1"",""2313""
","""event"",""trial"",""time""
""blur"",""0"",""0""
","""event"",""trial"",""time""
""focus"",""1"",""2223""
","""event"",""trial"",""time""
""fullscreenenter"",""1"",""2313""
","
",,,,,,,,,,,,"[{""stimulus"":""run_exp/static/images/task_images/dig.jpg"",""time"":0.5},{""stimulus"":""run_exp/static/images/task_images/land.jpg"",""time"":954},{""stimulus"":""run_exp/static/images/task_images/dig.jpg"",""time"":1903.6999998092651}]",[],4,,,,,,,,,,,,,,
harvest,136,590795,0.0-45.0-1.0,"""event"",""trial"",""time""
""blur"",""0"",""0""
""focus"",""1"",""2223""
""fullscreenenter"",""1"",""2313""
","""event"",""trial"",""time""
""blur"",""0"",""0""
","""event"",""trial"",""time""
""focus"",""1"",""2223""
","""event"",""trial"",""time""
""fullscreenenter"",""1"",""2313""
","
",,null,run_exp/static/images/task_images/gems/17.jpg,null,,,,,,,9,,,4,,,,,17,0.513084988,0.529411765,,,,,,,
decision,137,593805,0.0-45.0-2.0,"""event"",""trial"",""time""
""blur"",""0"",""0""
""focus"",""1"",""2223""
""fullscreenenter"",""1"",""2313""
","""event"",""trial"",""time""
""blur"",""0"",""0""
","""event"",""trial"",""time""
""focus"",""1"",""2223""
","""event"",""trial"",""time""
""fullscreenenter"",""1"",""2313""
","
",,null,run_exp/static/images/task_images/land.jpg,null,,,,,,,9,,,4,,,,,,,,144013,1,3,FALSE,,,
time_out,138,595823,0.0-46.0-0.0,"""event"",""trial"",""time""
""blur"",""0"",""0""
""focus"",""1"",""2223""
""fullscreenenter"",""1"",""2313""
","""event"",""trial"",""time""
""blur"",""0"",""0""
","""event"",""trial"",""time""
""focus"",""1"",""2223""
","""event"",""trial"",""time""
""fullscreenenter"",""1"",""2313""
","
",,null,run_exp/static/images/task_images/time_out.jpg,null,,,,,,,9,,,,,,,,,,,,,,,,,
decision,139,596817,0.0-46.0-1.0,"""event"",""trial"",""time""
""blur"",""0"",""0""
""focus"",""1"",""2223""
""fullscreenenter"",""1"",""2313""
","""event"",""trial"",""time""
""blur"",""0"",""0""
","""event"",""trial"",""time""
""focus"",""1"",""2223""
","""event"",""trial"",""time""
""fullscreenenter"",""1"",""2313""
","
",,989.8999996,run_exp/static/images/task_images/land.jpg,65,,,,,,,9,,,4,,,,,,,,147025,1,3,FALSE,,,
dig,140,598844,0.0-47.0-0.0,"""event"",""trial"",""time""
""blur"",""0"",""0""
""focus"",""1"",""2223""
""fullscreenenter"",""1"",""2313""
","""event"",""trial"",""time""
""blur"",""0"",""0""
","""event"",""trial"",""time""
""focus"",""1"",""2223""
","""event"",""trial"",""time""
""fullscreenenter"",""1"",""2313""
","
",,,,,,,,,,,,"[{""stimulus"":""run_exp/static/images/task_images/dig.jpg"",""time"":0.5},{""stimulus"":""run_exp/static/images/task_images/land.jpg"",""time"":676.5},{""stimulus"":""run_exp/static/images/task_images/dig.jpg"",""time"":1360.6999998092651}]",[],4,,,,,,,,,,,,,,
harvest,141,599864,0.0-47.0-1.0,"""event"",""trial"",""time""
""blur"",""0"",""0""
""focus"",""1"",""2223""
""fullscreenenter"",""1"",""2313""
","""event"",""trial"",""time""
""blur"",""0"",""0""
","""event"",""trial"",""time""
""focus"",""1"",""2223""
","""event"",""trial"",""time""
""fullscreenenter"",""1"",""2313""
","
",,null,run_exp/static/images/task_images/gems/9.jpg,null,,,,,,,5,,,4,,,,,9,0.571090054,0.555555556,,,,,,,
decision,142,600357,0.0-47.0-2.0,"""event"",""trial"",""time""
""blur"",""0"",""0""
""focus"",""1"",""2223""
""fullscreenenter"",""1"",""2313""
","""event"",""trial"",""time""
""blur"",""0"",""0""
","""event"",""trial"",""time""
""focus"",""1"",""2223""
","""event"",""trial"",""time""
""fullscreenenter"",""1"",""2313""
","
",,490.2999992,run_exp/static/images/task_images/land.jpg,65,,,,,,,5,,,4,,,,,,,,150565,1,4,FALSE,,,
dig,143,602894,0.0-48.0-0.0,"""event"",""trial"",""time""
""blur"",""0"",""0""
""focus"",""1"",""2223""
""fullscreenenter"",""1"",""2313""
","""event"",""trial"",""time""
""blur"",""0"",""0""
","""event"",""trial"",""time""
""focus"",""1"",""2223""
","""event"",""trial"",""time""
""fullscreenenter"",""1"",""2313""
","
",,,,,,,,,,,,"[{""stimulus"":""run_exp/static/images/task_images/dig.jpg"",""time"":0.5},{""stimulus"":""run_exp/static/images/task_images/land.jpg"",""time"":839.1999998092651},{""stimulus"":""run_exp/static/images/task_images/dig.jpg"",""time"":1679.0999994277954}]",[],4,,,,,,,,,,,,,,
harvest,144,603909,0.0-48.0-1.0,"""event"",""trial"",""time""
""blur"",""0"",""0""
""focus"",""1"",""2223""
""fullscreenenter"",""1"",""2313""
","""event"",""trial"",""time""
""blur"",""0"",""0""
","""event"",""trial"",""time""
""focus"",""1"",""2223""
","""event"",""trial"",""time""
""fullscreenenter"",""1"",""2313""
","
",,null,run_exp/static/images/task_images/gems/5.jpg,null,,,,,,,2,,,4,,,,,5,0.496448935,0.4,,,,,,,
decision,145,605796,0.0-48.0-2.0,"""event"",""trial"",""time""
""blur"",""0"",""0""
""focus"",""1"",""2223""
""fullscreenenter"",""1"",""2313""
","""event"",""trial"",""time""
""blur"",""0"",""0""
","""event"",""trial"",""time""
""focus"",""1"",""2223""
","""event"",""trial"",""time""
""fullscreenenter"",""1"",""2313""
","
",,1883.5,run_exp/static/images/task_images/land.jpg,65,,,,,,,2,,,4,,,,,,,,156004,1,5,FALSE,,,
dig,146,606924,0.0-49.0-0.0,"""event"",""trial"",""time""
""blur"",""0"",""0""
""focus"",""1"",""2223""
""fullscreenenter"",""1"",""2313""
","""event"",""trial"",""time""
""blur"",""0"",""0""
","""event"",""trial"",""time""
""focus"",""1"",""2223""
","""event"",""trial"",""time""
""fullscreenenter"",""1"",""2313""
","
",,,,,,,,,,,,"[{""stimulus"":""run_exp/static/images/task_images/dig.jpg"",""time"":0.5},{""stimulus"":""run_exp/static/images/task_images/land.jpg"",""time"":391.3999996185303},{""stimulus"":""run_exp/static/images/task_images/dig.jpg"",""time"":761.6999998092651}]",[],4,,,,,,,,,,,,,,
harvest,147,607929,0.0-49.0-1.0,"""event"",""trial"",""time""
""blur"",""0"",""0""
""focus"",""1"",""2223""
""fullscreenenter"",""1"",""2313""
","""event"",""trial"",""time""
""blur"",""0"",""0""
","""event"",""trial"",""time""
""focus"",""1"",""2223""
","""event"",""trial"",""time""
""fullscreenenter"",""1"",""2313""
","
",,null,run_exp/static/images/task_images/gems/2.jpg,null,,,,,,,1,,,4,,,,,2,0.569722482,0.5,,,,,,,
decision,148,608434,0.0-49.0-2.0,"""event"",""trial"",""time""
""blur"",""0"",""0""
""focus"",""1"",""2223""
""fullscreenenter"",""1"",""2313""
","""event"",""trial"",""time""
""blur"",""0"",""0""
","""event"",""trial"",""time""
""focus"",""1"",""2223""
","""event"",""trial"",""time""
""fullscreenenter"",""1"",""2313""
","
",,501,run_exp/static/images/task_images/land.jpg,65,,,,,,,1,,,4,,,,,,,,158642,1,6,FALSE,,,
dig,149,610954,0.0-50.0-0.0,"""event"",""trial"",""time""
""blur"",""0"",""0""
""focus"",""1"",""2223""
""fullscreenenter"",""1"",""2313""
","""event"",""trial"",""time""
""blur"",""0"",""0""
","""event"",""trial"",""time""
""focus"",""1"",""2223""
","""event"",""trial"",""time""
""fullscreenenter"",""1"",""2313""
","
",,,,,,,,,,,,"[{""stimulus"":""run_exp/static/images/task_images/dig.jpg"",""time"":0.40000057220458984},{""stimulus"":""run_exp/static/images/task_images/land.jpg"",""time"":852.5},{""stimulus"":""run_exp/static/images/task_images/dig.jpg"",""time"":1679.1000003814697}]",[],4,,,,,,,,,,,,,,
harvest,150,611964,0.0-50.0-1.0,"""event"",""trial"",""time""
""blur"",""0"",""0""
""focus"",""1"",""2223""
""fullscreenenter"",""1"",""2313""
","""event"",""trial"",""time""
""blur"",""0"",""0""
","""event"",""trial"",""time""
""focus"",""1"",""2223""
","""event"",""trial"",""time""
""fullscreenenter"",""1"",""2313""
","
",,null,run_exp/static/images/task_images/gems/1.jpg,null,,,,,,,0,,,4,,,,,1,0.449195133,0,,,,,,,
decision,151,612399,0.0-50.0-2.0,"""event"",""trial"",""time""
""blur"",""0"",""0""
""focus"",""1"",""2223""
""fullscreenenter"",""1"",""2313""
","""event"",""trial"",""time""
""blur"",""0"",""0""
","""event"",""trial"",""time""
""focus"",""1"",""2223""
","""event"",""trial"",""time""
""fullscreenenter"",""1"",""2313""
","
",,432.3000002,run_exp/static/images/task_images/land.jpg,65,,,,,,,0,,,4,,,,,,,,162607,1,7,FALSE,,,
dig,152,614984,0.0-51.0-0.0,"""event"",""trial"",""time""
""blur"",""0"",""0""
""focus"",""1"",""2223""
""fullscreenenter"",""1"",""2313""
","""event"",""trial"",""time""
""blur"",""0"",""0""
","""event"",""trial"",""time""
""focus"",""1"",""2223""
","""event"",""trial"",""time""
""fullscreenenter"",""1"",""2313""
","
",,,,,,,,,,,,"[{""stimulus"":""run_exp/static/images/task_images/dig.jpg"",""time"":0.5},{""stimulus"":""run_exp/static/images/task_images/land.jpg"",""time"":858.7000007629395},{""stimulus"":""run_exp/static/images/task_images/dig.jpg"",""time"":1717.8000001907349}]",[],4,,,,,,,,,,,,,,
harvest,153,616004,0.0-51.0-1.0,"""event"",""trial"",""time""
""blur"",""0"",""0""
""focus"",""1"",""2223""
""fullscreenenter"",""1"",""2313""
","""event"",""trial"",""time""
""blur"",""0"",""0""
","""event"",""trial"",""time""
""focus"",""1"",""2223""
","""event"",""trial"",""time""
""fullscreenenter"",""1"",""2313""
","
",,null,run_exp/static/images/task_images/gems/0.jpg,null,,,,,,,0,,,4,,,,,0,0.484414673,NaN,,,,,,,
decision,154,616217,0.0-51.0-2.0,"""event"",""trial"",""time""
""blur"",""0"",""0""
""focus"",""1"",""2223""
""fullscreenenter"",""1"",""2313""
","""event"",""trial"",""time""
""blur"",""0"",""0""
","""event"",""trial"",""time""
""focus"",""1"",""2223""
","""event"",""trial"",""time""
""fullscreenenter"",""1"",""2313""
","
",,210.3000002,run_exp/static/images/task_images/land.jpg,76,,,,,,,0,,,4,,,,,,,,166425,1,8,TRUE,,,
travel,155,626021,0.0-52.0-0.0,"""event"",""trial"",""time""
""blur"",""0"",""0""
""focus"",""1"",""2223""
""fullscreenenter"",""1"",""2313""
","""event"",""trial"",""time""
""blur"",""0"",""0""
","""event"",""trial"",""time""
""focus"",""1"",""2223""
","""event"",""trial"",""time""
""fullscreenenter"",""1"",""2313""
","
",,,,,,,,,,,,"[{""stimulus"":""run_exp/static/images/task_images/rocket-01.jpg"",""time"":0.5},{""stimulus"":""run_exp/static/images/task_images/rocket-02.jpg"",""time"":1100.2000007629395},{""stimulus"":""run_exp/static/images/task_images/rocket-03.jpg"",""time"":2180.6000003814697},{""stimulus"":""run_exp/static/images/task_images/rocket-04.jpg"",""time"":3280.1000003814697},{""stimulus"":""run_exp/static/images/task_images/rocket-05.jpg"",""time"":4370.5},{""stimulus"":""run_exp/static/images/task_images/rocket-06.jpg"",""time"":5440.300000190735},{""stimulus"":""run_exp/static/images/task_images/rocket-07.jpg"",""time"":6530.700000762939},{""stimulus"":""run_exp/static/images/task_images/rocket-08.jpg"",""time"":7630.10000038147},{""stimulus"":""run_exp/static/images/task_images/rocket-09.jpg"",""time"":8699.900000572205}]",[],4,,,,,,,,,,,,,,
alien_welcome,156,631041,0.0-52.0-1.0,"""event"",""trial"",""time""
""blur"",""0"",""0""
""focus"",""1"",""2223""
""fullscreenenter"",""1"",""2313""
","""event"",""trial"",""time""
""blur"",""0"",""0""
","""event"",""trial"",""time""
""focus"",""1"",""2223""
","""event"",""trial"",""time""
""fullscreenenter"",""1"",""2313""
","
",,null,run_exp/static/images/task_images/aliens/old_aliens/planet/alien_planet-13.jpg,null,,,,,,,,,,,,,13,"1,36,61,39,13,60,11,50,40,78,57,26,24,5,15,55,42,34,10,75,21,62,44",,,,,,,,,,
land,157,631561,0.0-52.0-2.0,"""event"",""trial"",""time""
""blur"",""0"",""0""
""focus"",""1"",""2223""
""fullscreenenter"",""1"",""2313""
","""event"",""trial"",""time""
""blur"",""0"",""0""
","""event"",""trial"",""time""
""focus"",""1"",""2223""
","""event"",""trial"",""time""
""fullscreenenter"",""1"",""2313""
","
",,null,run_exp/static/images/task_images/land.jpg,null,,,,,,,99,,,5,,,,,,,,,,,,,,
dig,158,633581,0.0-52.0-3.0,"""event"",""trial"",""time""
""blur"",""0"",""0""
""focus"",""1"",""2223""
""fullscreenenter"",""1"",""2313""
","""event"",""trial"",""time""
""blur"",""0"",""0""
","""event"",""trial"",""time""
""focus"",""1"",""2223""
","""event"",""trial"",""time""
""fullscreenenter"",""1"",""2313""
","
",,,,,,,,,,,,"[{""stimulus"":""run_exp/static/images/task_images/dig.jpg"",""time"":0.5},{""stimulus"":""run_exp/static/images/task_images/land.jpg"",""time"":677},{""stimulus"":""run_exp/static/images/task_images/dig.jpg"",""time"":1337}]",[],5,,,,,,,,,,,,,,
harvest,159,634601,0.0-52.0-4.0,"""event"",""trial"",""time""
""blur"",""0"",""0""
""focus"",""1"",""2223""
""fullscreenenter"",""1"",""2313""
","""event"",""trial"",""time""
""blur"",""0"",""0""
","""event"",""trial"",""time""
""focus"",""1"",""2223""
","""event"",""trial"",""time""
""fullscreenenter"",""1"",""2313""
","
",,null,run_exp/static/images/task_images/gems/99.jpg,null,,,,,,,51,,,5,,,,,99,0.512277971,0.515151515,,,,,,,
decision,160,634863,0.0-52.0-5.0,"""event"",""trial"",""time""
""blur"",""0"",""0""
""focus"",""1"",""2223""
""fullscreenenter"",""1"",""2313""
","""event"",""trial"",""time""
""blur"",""0"",""0""
","""event"",""trial"",""time""
""focus"",""1"",""2223""
","""event"",""trial"",""time""
""fullscreenenter"",""1"",""2313""
","
",,258.1999998,run_exp/static/images/task_images/land.jpg,65,,,,,,,51,,,5,,,,,,,,185071,1,0,FALSE,,,
dig,161,637621,0.0-53.0-0.0,"""event"",""trial"",""time""
""blur"",""0"",""0""
""focus"",""1"",""2223""
""fullscreenenter"",""1"",""2313""
","""event"",""trial"",""time""
""blur"",""0"",""0""
","""event"",""trial"",""time""
""focus"",""1"",""2223""
","""event"",""trial"",""time""
""fullscreenenter"",""1"",""2313""
","
",,,,,,,,,,,,"[{""stimulus"":""run_exp/static/images/task_images/dig.jpg"",""time"":0.5},{""stimulus"":""run_exp/static/images/task_images/land.jpg"",""time"":930.8000001907349},{""stimulus"":""run_exp/static/images/task_images/dig.jpg"",""time"":1841}]",[],5,,,,,,,,,,,,,,
harvest,162,638630,0.0-53.0-1.0,"""event"",""trial"",""time""
""blur"",""0"",""0""
""focus"",""1"",""2223""
""fullscreenenter"",""1"",""2313""
","""event"",""trial"",""time""
""blur"",""0"",""0""
","""event"",""trial"",""time""
""focus"",""1"",""2223""
","""event"",""trial"",""time""
""fullscreenenter"",""1"",""2313""
","
",,null,run_exp/static/images/task_images/gems/51.jpg,null,,,,,,,27,,,5,,,,,51,0.528549969,0.529411765,,,,,,,
decision,163,638673,0.0-53.0-2.0,"""event"",""trial"",""time""
""blur"",""0"",""0""
""focus"",""1"",""2223""
""fullscreenenter"",""1"",""2313""
","""event"",""trial"",""time""
""blur"",""0"",""0""
","""event"",""trial"",""time""
""focus"",""1"",""2223""
","""event"",""trial"",""time""
""fullscreenenter"",""1"",""2313""
","
",,39.70000076,run_exp/static/images/task_images/land.jpg,65,,,,,,,27,,,5,,,,,,,,188881,1,1,FALSE,,,
dig,164,641651,0.0-54.0-0.0,"""event"",""trial"",""time""
""blur"",""0"",""0""
""focus"",""1"",""2223""
""fullscreenenter"",""1"",""2313""
","""event"",""trial"",""time""
""blur"",""0"",""0""
","""event"",""trial"",""time""
""focus"",""1"",""2223""
","""event"",""trial"",""time""
""fullscreenenter"",""1"",""2313""
","
",,,,,,,,,,,,"[{""stimulus"":""run_exp/static/images/task_images/dig.jpg"",""time"":0.6000003814697266},{""stimulus"":""run_exp/static/images/task_images/land.jpg"",""time"":1007.8000001907349},{""stimulus"":""run_exp/static/images/task_images/dig.jpg"",""time"":1977.5}]",[],5,,,,,,,,,,,,,,
harvest,165,642662,0.0-54.0-1.0,"""event"",""trial"",""time""
""blur"",""0"",""0""
""focus"",""1"",""2223""
""fullscreenenter"",""1"",""2313""
","""event"",""trial"",""time""
""blur"",""0"",""0""
","""event"",""trial"",""time""
""focus"",""1"",""2223""
","""event"",""trial"",""time""
""fullscreenenter"",""1"",""2313""
","
",,null,run_exp/static/images/task_images/gems/27.jpg,null,,,,,,,12,,,5,,,,,27,0.454041126,0.444444444,,,,,,,
decision,166,644028,0.0-54.0-2.0,"""event"",""trial"",""time""
""blur"",""0"",""0""
""focus"",""1"",""2223""
""fullscreenenter"",""1"",""2313""
","""event"",""trial"",""time""
""blur"",""0"",""0""
","""event"",""trial"",""time""
""focus"",""1"",""2223""
","""event"",""trial"",""time""
""fullscreenenter"",""1"",""2313""
","
",,1362.3,run_exp/static/images/task_images/land.jpg,65,,,,,,,12,,,5,,,,,,,,194236,1,2,FALSE,,,
dig,167,645691,0.0-55.0-0.0,"""event"",""trial"",""time""
""blur"",""0"",""0""
""focus"",""1"",""2223""
""fullscreenenter"",""1"",""2313""
","""event"",""trial"",""time""
""blur"",""0"",""0""
","""event"",""trial"",""time""
""focus"",""1"",""2223""
","""event"",""trial"",""time""
""fullscreenenter"",""1"",""2313""
","
",,,,,,,,,,,,"[{""stimulus"":""run_exp/static/images/task_images/dig.jpg"",""time"":0.40000057220458984},{""stimulus"":""run_exp/static/images/task_images/land.jpg"",""time"":555.6999998092651},{""stimulus"":""run_exp/static/images/task_images/dig.jpg"",""time"":1105.8000001907349}]",[],5,,,,,,,,,,,,,,
harvest,168,646701,0.0-55.0-1.0,"""event"",""trial"",""time""
""blur"",""0"",""0""
""focus"",""1"",""2223""
""fullscreenenter"",""1"",""2313""
","""event"",""trial"",""time""
""blur"",""0"",""0""
","""event"",""trial"",""time""
""focus"",""1"",""2223""
","""event"",""trial"",""time""
""fullscreenenter"",""1"",""2313""
","
",,null,run_exp/static/images/task_images/gems/12.jpg,null,,,,,,,7,,,5,,,,,12,0.57991592,0.583333333,,,,,,,
decision,169,647459,0.0-55.0-2.0,"""event"",""trial"",""time""
""blur"",""0"",""0""
""focus"",""1"",""2223""
""fullscreenenter"",""1"",""2313""
","""event"",""trial"",""time""
""blur"",""0"",""0""
","""event"",""trial"",""time""
""focus"",""1"",""2223""
","""event"",""trial"",""time""
""fullscreenenter"",""1"",""2313""
","
",,754.8000002,run_exp/static/images/task_images/land.jpg,65,,,,,,,7,,,5,,,,,,,,197667,1,3,FALSE,,,
dig,170,649732,0.0-56.0-0.0,"""event"",""trial"",""time""
""blur"",""0"",""0""
""focus"",""1"",""2223""
""fullscreenenter"",""1"",""2313""
","""event"",""trial"",""time""
""blur"",""0"",""0""
","""event"",""trial"",""time""
""focus"",""1"",""2223""
","""event"",""trial"",""time""
""fullscreenenter"",""1"",""2313""
","
",,,,,,,,,,,,"[{""stimulus"":""run_exp/static/images/task_images/dig.jpg"",""time"":0.39999961853027344},{""stimulus"":""run_exp/static/images/task_images/land.jpg"",""time"":764.3999996185303},{""stimulus"":""run_exp/static/images/task_images/dig.jpg"",""time"":1514.8999996185303}]",[],5,,,,,,,,,,,,,,
harvest,171,650751,0.0-56.0-1.0,"""event"",""trial"",""time""
""blur"",""0"",""0""
""focus"",""1"",""2223""
""fullscreenenter"",""1"",""2313""
","""event"",""trial"",""time""
""blur"",""0"",""0""
","""event"",""trial"",""time""
""focus"",""1"",""2223""
","""event"",""trial"",""time""
""fullscreenenter"",""1"",""2313""
","
",,null,run_exp/static/images/task_images/gems/7.jpg,null,,,,,,,4,,,5,,,,,7,0.603329791,0.571428571,,,,,,,
decision,172,653761,0.0-56.0-2.0,"""event"",""trial"",""time""
""blur"",""0"",""0""
""focus"",""1"",""2223""
""fullscreenenter"",""1"",""2313""
","""event"",""trial"",""time""
""blur"",""0"",""0""
","""event"",""trial"",""time""
""focus"",""1"",""2223""
","""event"",""trial"",""time""
""fullscreenenter"",""1"",""2313""
","
",,null,run_exp/static/images/task_images/land.jpg,null,,,,,,,4,,,5,,,,,,,,203969,1,4,FALSE,,,
time_out,173,655776,0.0-57.0-0.0,"""event"",""trial"",""time""
""blur"",""0"",""0""
""focus"",""1"",""2223""
""fullscreenenter"",""1"",""2313""
","""event"",""trial"",""time""
""blur"",""0"",""0""
","""event"",""trial"",""time""
""focus"",""1"",""2223""
","""event"",""trial"",""time""
""fullscreenenter"",""1"",""2313""
","
",,null,run_exp/static/images/task_images/time_out.jpg,null,,,,,,,4,,,,,,,,,,,,,,,,,
decision,174,658210,0.0-57.0-1.0,"""event"",""trial"",""time""
""blur"",""0"",""0""
""focus"",""1"",""2223""
""fullscreenenter"",""1"",""2313""
","""event"",""trial"",""time""
""blur"",""0"",""0""
","""event"",""trial"",""time""
""focus"",""1"",""2223""
","""event"",""trial"",""time""
""fullscreenenter"",""1"",""2313""
","
",,2430.3,run_exp/static/images/task_images/land.jpg,65,,,,,,,4,,,5,,,,,,,,208418,1,4,FALSE,,,
dig,175,658801,0.0-58.0-0.0,"""event"",""trial"",""time""
""blur"",""0"",""0""
""focus"",""1"",""2223""
""fullscreenenter"",""1"",""2313""
","""event"",""trial"",""time""
""blur"",""0"",""0""
","""event"",""trial"",""time""
""focus"",""1"",""2223""
","""event"",""trial"",""time""
""fullscreenenter"",""1"",""2313""
","
",,,,,,,,,,,,"[{""stimulus"":""run_exp/static/images/task_images/dig.jpg"",""time"":0.6000003814697266},{""stimulus"":""run_exp/static/images/task_images/land.jpg"",""time"":202.80000019073486},{""stimulus"":""run_exp/static/images/task_images/dig.jpg"",""time"":383.6000003814697}]",[],5,,,,,,,,,,,,,,
harvest,176,659821,0.0-58.0-1.0,"""event"",""trial"",""time""
""blur"",""0"",""0""
""focus"",""1"",""2223""
""fullscreenenter"",""1"",""2313""
","""event"",""trial"",""time""
""blur"",""0"",""0""
","""event"",""trial"",""time""
""focus"",""1"",""2223""
","""event"",""trial"",""time""
""fullscreenenter"",""1"",""2313""
","
",,null,run_exp/static/images/task_images/gems/4.jpg,null,,,,,,,2,,,5,,,,,4,0.424360526,0.5,,,,,,,
decision,177,662842,0.0-58.0-2.0,"""event"",""trial"",""time""
""blur"",""0"",""0""
""focus"",""1"",""2223""
""fullscreenenter"",""1"",""2313""
","""event"",""trial"",""time""
""blur"",""0"",""0""
","""event"",""trial"",""time""
""focus"",""1"",""2223""
","""event"",""trial"",""time""
""fullscreenenter"",""1"",""2313""
","
",,null,run_exp/static/images/task_images/land.jpg,null,,,,,,,2,,,5,,,,,,,,213050,1,5,FALSE,,,
time_out,178,664851,0.0-59.0-0.0,"""event"",""trial"",""time""
""blur"",""0"",""0""
""focus"",""1"",""2223""
""fullscreenenter"",""1"",""2313""
","""event"",""trial"",""time""
""blur"",""0"",""0""
","""event"",""trial"",""time""
""focus"",""1"",""2223""
","""event"",""trial"",""time""
""fullscreenenter"",""1"",""2313""
","
",,null,run_exp/static/images/task_images/time_out.jpg,null,,,,,,,2,,,,,,,,,,,,,,,,,
decision,179,665974,0.0-59.0-1.0,"""event"",""trial"",""time""
""blur"",""0"",""0""
""focus"",""1"",""2223""
""fullscreenenter"",""1"",""2313""
","""event"",""trial"",""time""
""blur"",""0"",""0""
","""event"",""trial"",""time""
""focus"",""1"",""2223""
","""event"",""trial"",""time""
""fullscreenenter"",""1"",""2313""
","
",,1119.799999,run_exp/static/images/task_images/land.jpg,65,,,,,,,2,,,5,,,,,,,,216182,1,5,FALSE,,,
dig,180,667871,0.0-60.0-0.0,"""event"",""trial"",""time""
""blur"",""0"",""0""
""focus"",""1"",""2223""
""fullscreenenter"",""1"",""2313""
","""event"",""trial"",""time""
""blur"",""0"",""0""
","""event"",""trial"",""time""
""focus"",""1"",""2223""
","""event"",""trial"",""time""
""fullscreenenter"",""1"",""2313""
","
",,,,,,,,,,,,"[{""stimulus"":""run_exp/static/images/task_images/dig.jpg"",""time"":0.5},{""stimulus"":""run_exp/static/images/task_images/land.jpg"",""time"":629.3999996185303},{""stimulus"":""run_exp/static/images/task_images/dig.jpg"",""time"":1259}]",[],5,,,,,,,,,,,,,,
harvest,181,668881,0.0-60.0-1.0,"""event"",""trial"",""time""
""blur"",""0"",""0""
""focus"",""1"",""2223""
""fullscreenenter"",""1"",""2313""
","""event"",""trial"",""time""
""blur"",""0"",""0""
","""event"",""trial"",""time""
""focus"",""1"",""2223""
","""event"",""trial"",""time""
""fullscreenenter"",""1"",""2313""
","
",,null,run_exp/static/images/task_images/gems/2.jpg,null,,,,,,,1,,,5,,,,,2,0.46913218,0.5,,,,,,,
decision,182,671040,0.0-60.0-2.0,"""event"",""trial"",""time""
""blur"",""0"",""0""
""focus"",""1"",""2223""
""fullscreenenter"",""1"",""2313""
","""event"",""trial"",""time""
""blur"",""0"",""0""
","""event"",""trial"",""time""
""focus"",""1"",""2223""
","""event"",""trial"",""time""
""fullscreenenter"",""1"",""2313""
","
",,2155.5,run_exp/static/images/task_images/land.jpg,65,,,,,,,1,,,5,,,,,,,,221248,1,6,FALSE,,,
dig,183,671903,0.0-61.0-0.0,"""event"",""trial"",""time""
""blur"",""0"",""0""
""focus"",""1"",""2223""
""fullscreenenter"",""1"",""2313""
","""event"",""trial"",""time""
""blur"",""0"",""0""
","""event"",""trial"",""time""
""focus"",""1"",""2223""
","""event"",""trial"",""time""
""fullscreenenter"",""1"",""2313""
","
