trial_type,trial_index,time_elapsed,internal_node_id,success,rt,stimulus,key_press,prompt,subject_id,age,gender,button_pressed,next_reward,animation_sequence,responses,planet,curr_prac_trial,n_prac_rounds,alien,aliens,reward_received,decay_rate_actual,decay_rate_exp,time_in_block,block_num,prt,last_trial_on_planet,bonus,num_failures
pavlovia,0,11,0.0-0.0,,,,,,,,,,,,,,,,,,,,,,,,,,
fullscreen,1,3834,0.0-1.0,TRUE,,,,,,,,,,,,,,,,,,,,,,,,,
instruc_welcome,2,13579,0.0-2.0,,null,run_exp/static/audio/clip_1_welcome.m4a,null,"<p>Howdy! In this experiment, you’ll be an explorer traveling through space to collect space treasure.</p><p>Your mission is to collect as much treasure as possible.</p><br><br><p><img src='run_exp/static/images/task_images/opening_img-01.jpg' height='300' width='auto'></p>",QJAlOilbIzKlhl5_a5Ke5UddwllDBGZ_MLRP_2tyJpkJyBY97fnw,8.68,male,,,,,,,,,,,,,,,,,,
audio-keyboard-response,3,30182,0.0-3.0,,null,run_exp/static/audio/clip_2_move.m4a,null,,,,,,,,,,,,,,,,,,,,,,
welcome_dec,4,31395,0.0-4.0,,1209.68,"<p>Howdy! In this experiment, you’ll be an explorer traveling through space to collect space treasure.</p><p>Your mission is to collect as much treasure as possible.</p><br><br><p><img src='run_exp/static/images/task_images/opening_img-01.jpg' height='300' width='auto'></p>",,,,,,1,,,,,,,,,,,,,,,,,
html-keyboard-response,5,32391,0.0-5.0,,993.6199998,"<p>Howdy! In this experiment, you’ll be an explorer traveling through space to collect space treasure.</p><p>Your mission is to collect as much treasure as possible.</p><br><br><p><img src='run_exp/static/images/task_images/opening_img-01.jpg' height='300' width='auto'></p><button class=""jspsych-html-btn-unchosen""><img src=""run_exp/static/images/task_images/planet-01.jpg"" height=""50""></button><button class=""jspsych-html-btn-chosen""><img src=""run_exp/static/images/task_images/planet-02.jpg"" height=""50""></button><p><b>[press the space bar to lock in your answer]<b><br></p>",32,,,,,,,,,,,,,,,,,,,,,,
instruc_goal,6,42442,0.0-6.0-0.0,,null,run_exp/static/audio/clip_3_goal.m4a,null,"<p> As a space explorer, you’ll visit different planets to dig for space treasure, these pink gems.</p> <p> The more treasure you dig up, the more bonus money you’ll win! </p><br><br><p><img src='run_exp/static/images/task_images/pink_gem.jpg' height='300' width='auto'></p>",,,,,,,,,,,,,,,,,,,,,
instruc_goal,7,44676,0.0-6.0-1.0,,2231.885,"<p> As a space explorer, you’ll visit different planets to dig for space treasure, these pink gems.</p> <p> The more treasure you dig up, the more bonus money you’ll win! </p><br><br><p><img src='run_exp/static/images/task_images/pink_gem.jpg' height='300' width='auto'></p>",,,,,,1,,,,,,,,,,,,,,,,,
html-keyboard-response,8,45279,0.0-6.0-2.0,,600.96,"<p> As a space explorer, you’ll visit different planets to dig for space treasure, these pink gems.</p> <p> The more treasure you dig up, the more bonus money you’ll win! </p><br><br><p><img src='run_exp/static/images/task_images/pink_gem.jpg' height='300' width='auto'></p><button class=""jspsych-html-btn-unchosen""><img src=""run_exp/static/images/task_images/planet-01.jpg"" height=""50""></button><button class=""jspsych-html-btn-chosen""><img src=""run_exp/static/images/task_images/planet-02.jpg"" height=""50""></button><p><b>[press the space bar to lock in your answer]<b><br></p>",32,,,,,,,,,,,,,,,,,,,,,,
instruc_dig,9,61297,0.0-7.0-0.0,,null,run_exp/static/audio/clip_4_dig.m4a,null,,,,,,100,,,,,,,,,,,,,,,,
instruc_dig_try,10,62589,0.0-7.0-1.0,,1290.625,"<p> When you’ve arrived at a new planet, you will dig once. </p> <p>Then, you get to decide if you want to stay on the planet and dig again or travel to a new planet and dig there.</p> <p> To stay and dig, press the letter <strong>‘A’</strong> on your keyboard. Try pressing it now! </p><p><img src='run_exp/static/images/task_images/land.jpg'  height='700' width='auto'></p>",65,"<p> When you’ve arrived at a new planet, you will dig once. </p> <p>Then, you get to decide if you want to stay on the planet and dig again or travel to a new planet and dig there.</p> <p> To stay and dig, press the letter <strong>‘A’</strong> on your keyboard. Try pressing it now! </p><p><img src='run_exp/static/images/task_images/land.jpg'  height='700' width='auto'></p>",,,,,100,,,,,,,,,,,,,,,,
dig_prac,11,64603,0.0-7.0-2.0,,,,,,,,,,,"[{""stimulus"":""run_exp/static/images/task_images/dig.jpg"",""time"":0.8200001902878284},{""stimulus"":""run_exp/static/images/task_images/land.jpg"",""time"":672.7050002664328},{""stimulus"":""run_exp/static/images/task_images/dig.jpg"",""time"":1342.0350002124906}]",[],,,,,,,,,,,,,,
instruc_travel,12,100842,0.0-7.0-3.0,,null,run_exp/static/audio/clip_5_travel.m4a,null,"<p>Every time you dig up gems, there are less gems on the planet, so the more you dig on a planet the fewer gems you’ll get with each dig.</p><p>When gems are running low, you may want to travel to a new planet. </p> <p>  Planets are very far apart in this galaxy, so it will take some time to travel between them. </p> <br><p>There are lots and lots of planets for you to visit, so you won’t be able to return to any planets you’ve seen before. </p><br><p>To leave this planet and travel to a new one, press the letter <strong>‘L’</strong> on your keyboard. Try pressing it now! </p><p><img src='run_exp/static/images/task_images/rocket-01.jpg'  height='600' width='auto'></p>",,,,,,,,,,,,,,,,,,,,,
instruc_travel_try,13,106283,0.0-7.0-4.0,,5439.205,"<p>Every time you dig up gems, there are less gems on the planet, so the more you dig on a planet the fewer gems you’ll get with each dig.</p><p>When gems are running low, you may want to travel to a new planet. </p> <p>  Planets are very far apart in this galaxy, so it will take some time to travel between them. </p> <br><p>There are lots and lots of planets for you to visit, so you won’t be able to return to any planets you’ve seen before. </p><br><p>To leave this planet and travel to a new one, press the letter <strong>‘L’</strong> on your keyboard. Try pressing it now! </p><p><img src='run_exp/static/images/task_images/rocket-01.jpg'  height='600' width='auto'></p>",76,"<p>Every time you dig up gems, there are less gems on the planet, so the more you dig on a planet the fewer gems you’ll get with each dig.</p><p>When gems are running low, you may want to travel to a new planet. </p> <p>  Planets are very far apart in this galaxy, so it will take some time to travel between them. </p> <br><p>There are lots and lots of planets for you to visit, so you won’t be able to return to any planets you’ve seen before. </p><br><p>To leave this planet and travel to a new one, press the letter <strong>‘L’</strong> on your keyboard. Try pressing it now! </p><p><img src='run_exp/static/images/task_images/rocket-01.jpg'  height='600' width='auto'></p>",,,,,,,,,,,,,,,,,,,,,
travel_prac,14,116285,0.0-7.0-5.0,,,,,,,,,,,"[{""stimulus"":""run_exp/static/images/task_images/rocket-01.jpg"",""time"":0.23500015959143639},{""stimulus"":""run_exp/static/images/task_images/rocket-02.jpg"",""time"":1117.050000000745},{""stimulus"":""run_exp/static/images/task_images/rocket-03.jpg"",""time"":2226.865000091493},{""stimulus"":""run_exp/static/images/task_images/rocket-04.jpg"",""time"":3335.6000003404915},{""stimulus"":""run_exp/static/images/task_images/rocket-05.jpg"",""time"":4450.004999991506},{""stimulus"":""run_exp/static/images/task_images/rocket-06.jpg"",""time"":5560.360000003129},{""stimulus"":""run_exp/static/images/task_images/rocket-07.jpg"",""time"":6672.060000244528},{""stimulus"":""run_exp/static/images/task_images/rocket-08.jpg"",""time"":7781.4750000834465},{""stimulus"":""run_exp/static/images/task_images/rocket-09.jpg"",""time"":8893.854999914765}]",[],0,,,,,,,,,,,,,
instruc_alien_greet,15,143498,0.0-7.0-6.0,,null,run_exp/static/audio/clip_6_alien.m4a,null,"<p>When you arrive at a new planet, the alien who owns the treasure mine on that planet will greet you!</p><p>The better an alien takes care of their mine the easier it is to dig for gems. Some aliens take better care of their mine than others. So, you won’t get exactly the same amount of gems on each planet.</p><p>What the alien looks like does not tell you anything about how many gems there are on the planet.</p><br><p><img src=""run_exp/static/images/task_images/aliens/instructions_aliens/planet/alien_planet-1.jpg""  height=""600"" width=""auto""></p>",,,,,,,,,,,,,,,,,,,,,
instruc_alien_greet,16,146438,0.0-7.0-7.0,,2937.415,"<p>When you arrive at a new planet, the alien who owns the treasure mine on that planet will greet you!</p><p>The better an alien takes care of their mine the easier it is to dig for gems. Some aliens take better care of their mine than others. So, you won’t get exactly the same amount of gems on each planet.</p><p>What the alien looks like does not tell you anything about how many gems there are on the planet.</p><br><p><img src=""run_exp/static/images/task_images/aliens/instructions_aliens/planet/alien_planet-1.jpg""  height=""600"" width=""auto""></p>",,,,,,1,,,,,,,,,,,,,,,,,
html-keyboard-response,17,147142,0.0-7.0-8.0,,701.5450001,"<p>When you arrive at a new planet, the alien who owns the treasure mine on that planet will greet you!</p><p>The better an alien takes care of their mine the easier it is to dig for gems. Some aliens take better care of their mine than others. So, you won’t get exactly the same amount of gems on each planet.</p><p>What the alien looks like does not tell you anything about how many gems there are on the planet.</p><br><p><img src=""run_exp/static/images/task_images/aliens/instructions_aliens/planet/alien_planet-1.jpg""  height=""600"" width=""auto""></p><button class=""jspsych-html-btn-unchosen""><img src=""run_exp/static/images/task_images/planet-01.jpg"" height=""50""></button><button class=""jspsych-html-btn-chosen""><img src=""run_exp/static/images/task_images/planet-02.jpg"" height=""50""></button><p><b>[press the space bar to lock in your answer]<b><br></p>",32,,,,,,,,,,,,,,,,,,,,,,
time_out,18,158220,0.0-8.0-0.0,,null,run_exp/static/audio/clip_7_timeout.m4a,null,"<p>If you don't make your choice fast enough, you’ll have to wait a few seconds before you can make another one.</p><p>You can’t dig for more gems or travel to new planets. You just have to sit and wait.</p><br><p><img src='run_exp/static/images/task_images/time_out.jpg'  height='600' width='auto'></p>",,,,,,,,,,,,,,,,,,,,,
time_out,19,161041,0.0-8.0-1.0,,2818.115,"<p>If you don't make your choice fast enough, you’ll have to wait a few seconds before you can make another one.</p><p>You can’t dig for more gems or travel to new planets. You just have to sit and wait.</p><br><p><img src='run_exp/static/images/task_images/time_out.jpg'  height='600' width='auto'></p>",,,,,,1,,,,,,,,,,,,,,,,,
html-keyboard-response,20,161426,0.0-8.0-2.0,,382.1300003,"<p>If you don't make your choice fast enough, you’ll have to wait a few seconds before you can make another one.</p><p>You can’t dig for more gems or travel to new planets. You just have to sit and wait.</p><br><p><img src='run_exp/static/images/task_images/time_out.jpg'  height='600' width='auto'></p><button class=""jspsych-html-btn-unchosen""><img src=""run_exp/static/images/task_images/planet-01.jpg"" height=""50""></button><button class=""jspsych-html-btn-chosen""><img src=""run_exp/static/images/task_images/planet-02.jpg"" height=""50""></button><p><b>[press the space bar to lock in your answer]<b><br></p>",32,,,,,,,,,,,,,,,,,,,,,,
instruc_break,21,177099,0.0-9.0-0.0,,null,run_exp/static/audio/clip_8_break.m4a,null,"<p> After digging and traveling for a while, you’ll be able to take a break at home base. </p><p>The game will last 20 minutes no matter what.</p><p>You will visit home base every 5 minutes, so, you will visit home base three times during the game.</p><br><p><img src='run_exp/static/images/task_images/home_base.jpg' height='600' width='auto'></p>",,,,,,,,,,,,,,,,,,,,,
instruc_break,22,178958,0.0-9.0-1.0,,1856.665,"<p> After digging and traveling for a while, you’ll be able to take a break at home base. </p><p>The game will last 20 minutes no matter what.</p><p>You will visit home base every 5 minutes, so, you will visit home base three times during the game.</p><br><p><img src='run_exp/static/images/task_images/home_base.jpg' height='600' width='auto'></p>",,,,,,1,,,,,,,,,,,,,,,,,
html-keyboard-response,23,181644,0.0-9.0-2.0,,2685.07,"<p> After digging and traveling for a while, you’ll be able to take a break at home base. </p><p>The game will last 20 minutes no matter what.</p><p>You will visit home base every 5 minutes, so, you will visit home base three times during the game.</p><br><p><img src='run_exp/static/images/task_images/home_base.jpg' height='600' width='auto'></p><button class=""jspsych-html-btn-unchosen""><img src=""run_exp/static/images/task_images/planet-01.jpg"" height=""50""></button><button class=""jspsych-html-btn-chosen""><img src=""run_exp/static/images/task_images/planet-02.jpg"" height=""50""></button><p><b>[press the space bar to lock in your answer]<b><br></p>",32,,,,,,,,,,,,,,,,,,,,,,
instruc_prac_game,24,191774,0.0-10.0-0.0,,null,run_exp/static/audio/clip_9_practice.m4a,null,"<p> Are you ready to play a practice game? </p> <p>In this practice game, you'll be digging up barrels of gems. But, in the real game, you'll be digging up the gems themselves. </p>",,,,,,,,,,,,,,,,,,,,,
html-button-response,25,193981,0.0-10.0-1.0,,2205.415,"<p> Are you ready to play a practice game? </p> <p>In this practice game, you'll be digging up barrels of gems. But, in the real game, you'll be digging up the gems themselves. </p>",,,,,,0,,,,,,,,,,,,,,,,,
alien_welcome_prac,26,198992,0.0-11.0-0.0,,null,run_exp/static/images/task_images/aliens/practice_aliens/planet/alien_planet-5.jpg,null,,,,,,,,,,,,,,,,,,,,,,
land_prac,27,199498,0.0-11.0-1.0,,null,run_exp/static/images/task_images/land.jpg,null,,,,,,98,,,0,,,,,,,,,,,,,
dig_prac,28,201503,0.0-11.0-2.0,,,,,,,,,,,"[{""stimulus"":""run_exp/static/images/task_images/dig.jpg"",""time"":1.0349997319281101},{""stimulus"":""run_exp/static/images/task_images/land.jpg"",""time"":669.8849997483194},{""stimulus"":""run_exp/static/images/task_images/dig.jpg"",""time"":1337.5249998643994}]",[],,,,,,,,,,,,,,
harvest_prac,29,202509,0.0-11.0-3.0,,null,run_exp/static/images/task_images/barrel_text.jpg,null,,,,,,,,,,,,,,,,,,,,,,
decision_prac,30,205516,0.0-11.0-4.0,,null,run_exp/static/images/task_images/land.jpg,null,,,,,,,,,,1,,,,,,,,,,,,
time_out,31,207527,0.0-12.0-0.0,,null,run_exp/static/images/task_images/time_out.jpg,null,,,,,,,,,,,,,,,,,,,,,,
decision_prac,32,209271,0.0-12.0-1.0,,1741.93,run_exp/static/images/task_images/land.jpg,65,,,,,,,,,,2,,,,,,,,,,,,
dig_prac,33,211278,0.0-13.0-0.0,,,,,,,,,,,"[{""stimulus"":""run_exp/static/images/task_images/dig.jpg"",""time"":0.6299996748566628},{""stimulus"":""run_exp/static/images/task_images/land.jpg"",""time"":673.9249997772276},{""stimulus"":""run_exp/static/images/task_images/dig.jpg"",""time"":1341.4199999533594}]",[],,,,,,,,,,,,,,
harvest_prac,34,212283,0.0-13.0-1.0,,null,run_exp/static/images/task_images/barrel_text.jpg,null,,,,,,,,,,,,,,,,,,,,,,
decision_prac,35,213484,0.0-13.0-2.0,,1199.175,run_exp/static/images/task_images/land.jpg,76,,,,,,,,,,3,,,,,,,,,,,,
travel,36,222284,0.0-14.0-0.0,,,,,,,,,,,"[{""stimulus"":""run_exp/static/images/task_images/rocket-01.jpg"",""time"":0.169999897480011},{""stimulus"":""run_exp/static/images/task_images/rocket-02.jpg"",""time"":982.1150000207126},{""stimulus"":""run_exp/static/images/task_images/rocket-03.jpg"",""time"":1959.9850000813603},{""stimulus"":""run_exp/static/images/task_images/rocket-04.jpg"",""time"":2933.0299999564886},{""stimulus"":""run_exp/static/images/task_images/rocket-05.jpg"",""time"":3911.005000118166},{""stimulus"":""run_exp/static/images/task_images/rocket-06.jpg"",""time"":4889.940000139177},{""stimulus"":""run_exp/static/images/task_images/rocket-07.jpg"",""time"":5865.565000101924},{""stimulus"":""run_exp/static/images/task_images/rocket-08.jpg"",""time"":6842.995000071824},{""stimulus"":""run_exp/static/images/task_images/rocket-09.jpg"",""time"":7816.910000052303}]",[],0,,,,,,,,,,,,,
alien_welcome_prac,37,227289,0.0-14.0-1.0,,null,run_exp/static/images/task_images/aliens/practice_aliens/planet/alien_planet-4.jpg,null,,,,,,,,,,,,,,,,,,,,,,
land_prac,38,227795,0.0-14.0-2.0,,null,run_exp/static/images/task_images/land.jpg,null,,,,,,100,,,0,,,,,,,,,,,,,
dig_prac,39,229803,0.0-14.0-3.0,,,,,,,,,,,"[{""stimulus"":""run_exp/static/images/task_images/dig.jpg"",""time"":0.8950000628829002},{""stimulus"":""run_exp/static/images/task_images/land.jpg"",""time"":674.5100002735853},{""stimulus"":""run_exp/static/images/task_images/dig.jpg"",""time"":1337.2750002890825}]",[],,,,,,,,,,,,,,
harvest_prac,40,230806,0.0-14.0-4.0,,null,run_exp/static/images/task_images/barrel_text.jpg,null,,,,,,,,,,,,,,,,,,,,,,
decision_prac,41,231053,0.0-14.0-5.0,,245.3549998,run_exp/static/images/task_images/land.jpg,65,,,,,,,,,,4,,,,,,,,,,,,
dig_prac,42,233060,0.0-15.0-0.0,,,,,,,,,,,"[{""stimulus"":""run_exp/static/images/task_images/dig.jpg"",""time"":0.6300001405179501},{""stimulus"":""run_exp/static/images/task_images/land.jpg"",""time"":673.6150002107024},{""stimulus"":""run_exp/static/images/task_images/dig.jpg"",""time"":1341.7800003662705}]",[],,,,,,,,,,,,,,
harvest_prac,43,234067,0.0-15.0-1.0,,null,run_exp/static/images/task_images/barrel_text.jpg,null,,,,,,,,,,,,,,,,,,,,,,
decision_prac,44,234094,0.0-15.0-2.0,,25.59000021,run_exp/static/images/task_images/land.jpg,65,,,,,,,,,,,1,,,,,,,,,,,
quiz_instruc,45,243940,0.0-16.0-0.0,,9839.42,run_exp/static/audio/clip_10_quiz.m4a,,,,,,0,,,,,,,,,,,,,,,,,
instruc_repeat,46,286724,0.0-16.0-1.0,,null,"<p> Are you ready to play a practice game? </p> <p>In this practice game, you'll be digging up barrels of gems. But, in the real game, you'll be digging up the gems themselves. </p>",null,"<p>In this game, your goal is to collect as many gems as you can. That’s how you will win bonus money. </p> <p>The entire game will last 20 minutes no matter how many gems you collect or how many planets you visit. </p><p>To stay on a planet and dig again, press the letter A on your keyboard. To leave for a new planet, press the letter L.</p><p>The more you dig on a planet, the fewer gems you’ll get with each dig which is why you might consider leaving for a new planet. </p><p>When you arrive at a new planet, you’ll be greeted by an alien. What the alien looks like does not tell you anything about how much treasure is on the planet. </p>",,,,,,,,,,,,,,,,,,,,,
instruc_repeat_continue,47,288535,0.0-16.0-2.0,,1810.07,"<p> Are you ready to play a practice game? </p> <p>In this practice game, you'll be digging up barrels of gems. But, in the real game, you'll be digging up the gems themselves. </p>",,,,,,0,,,,,,,,,,,,,,,,,
quiz_q_1_ask,48,293119,0.0-16.0-3.0,,4581.57,run_exp/static/audio/clip_11_q1_ask.m4a,,,,,,2,,,,,,,,,,,,,,,,,
quiz_q_1_fb_correct,49,297010,0.0-17.0-0.0,,null,run_exp/static/audio/clip_12_q1_corrrect.m4a,null,<p>That’s correct. You win extra money by collecting more gems.</p>,,,,,,,,,,,,,,,,,,,,,
quiz_q_2_ask,50,300631,0.0-17.0-1.0,,3619.285,run_exp/static/audio/clip_14_q2_ask.m4a,,,,,,1,,,,,,,,,,,,,,,,,
quiz_q_2_fb_correct,51,304627,0.0-18.0-0.0,,null,run_exp/static/audio/clip_15_q2_correct.m4a,null,<p>That’s correct. The experiment is 20 minutes no matter what.</p>,,,,,,,,,,,,,,,,,,,,,
quiz_q_3_ask,52,308344,0.0-18.0-1.0,,3715.78,run_exp/static/audio/clip_17_q3_ask.m4a,,,,,,1,,,,,,,,,,,,,,,,,
quiz_q_3_fb_correct,53,312336,0.0-19.0-0.0,,null,run_exp/static/audio/clip_18_q3_correct.m4a,null,<p> That’s correct. You press the letter L to travel to a new planet.</p>,,,,,,,,,,,,,,,,,,,,,
quiz_q_4_ask,54,316060,0.0-19.0-1.0,,3722.275,run_exp/static/audio/clip_20_q4_ask.m4a,,,,,,0,,,,,,,,,,,,,,,,,
quiz_q_4_fb_correct,55,321392,0.0-20.0-0.0,,null,run_exp/static/audio/clip_21_q4_correct.m4a,null,<p> That’s correct. The more you dig on a planet the fewer gems you’ll get with each dig. </p>,,,,,,,,,,,,,,,,,,,,,
quiz_q_5_ask,56,324862,0.0-20.0-1.0,,3467.835,run_exp/static/audio/clip_23_q5_ask.m4a,,,,,,1,,,,,,,,,,,,,,,,,
quiz_q_5_fb_correct,57,329892,0.0-21.0-0.0,,null,run_exp/static/audio/clip_24_q5_correct.m4a,null,<p> That’s correct. The alien tells you nothing about how much treasure is on the planet.</p>,,,,,,,,,,,,,,,,,,,,,
quiz_correct,58,333351,0.0-22.0-0.0,,null,run_exp/static/audio/clip_26_correct_quiz.m4a,null,,,,,,,,,,,,,,,,,,,,,,
quiz_correct_continue,59,335682,0.0-22.0-1.0,,2329.89,<p>Good job! You're now ready to move on to the real game!</p>,,,,,,0,,,,,,,,,,,,,,,,,
audio-keyboard-response,60,345820,0.0-22.0-2.0,,null,run_exp/static/audio/clip_28_real_game.m4a,null,,,,,,,,,,,,,,,,,,,,,,
instruc_begin_exp_contine,61,348141,0.0-22.0-3.0,,2319.165,"<p>Now that you know how  to dig for space treasure and travel to new planets,you can start exploring! </p><p>Do you want to go over the instructions again or get started with the real game?</p>",,,,,,1,,,,,,1,,,,,,,,,,,
alien_welcome,62,353151,0.0-23.0-0.0,,null,run_exp/static/images/task_images/aliens/old_aliens/planet/alien_planet-40.jpg,null,,,,,,,,,,,,40,"40,21,13,63,34,24,64,68,15,53,44,37,18,74,59,62,20,61,23,58,1,9,78,79,22,69,52",,,,,,,,,
land,63,353655,0.0-23.0-1.0,,null,run_exp/static/images/task_images/land.jpg,null,,,,,,93,,,1,,,,,,,,,,,,,
dig,64,355663,0.0-23.0-2.0,,,,,,,,,,,"[{""stimulus"":""run_exp/static/images/task_images/dig.jpg"",""time"":1.2650000862777233},{""stimulus"":""run_exp/static/images/task_images/land.jpg"",""time"":675.0249997712672},{""stimulus"":""run_exp/static/images/task_images/dig.jpg"",""time"":1342.6250000484288}]",[],1,,,,,,,,,,,,,
harvest,65,356668,0.0-23.0-3.0,,null,run_exp/static/images/task_images/gems/93.jpg,null,,,,,,19,,,1,,,,,93,0.207611837,0.204301075,,,,,,
decision,66,357106,0.0-23.0-4.0,,435.9149998,run_exp/static/images/task_images/land.jpg,65,,,,,,19,,,1,,,,,,,,8958,1,0,FALSE,,
dig,67,359678,0.0-24.0-0.0,,,,,,,,,,,"[{""stimulus"":""run_exp/static/images/task_images/dig.jpg"",""time"":0.7850001566112041},{""stimulus"":""run_exp/static/images/task_images/land.jpg"",""time"":857.4800002388656},{""stimulus"":""run_exp/static/images/task_images/dig.jpg"",""time"":1713.4899999946356}]",[],1,,,,,,,,,,,,,
harvest,68,360684,0.0-24.0-1.0,,null,run_exp/static/images/task_images/gems/19.jpg,null,,,,,,3,,,1,,,,,19,0.15652218,0.157894737,,,,,,
decision,69,361283,0.0-24.0-2.0,,595.9350001,run_exp/static/images/task_images/land.jpg,65,,,,,,3,,,1,,,,,,,,13135,1,1,FALSE,,
dig,70,363697,0.0-25.0-0.0,,,,,,,,,,,"[{""stimulus"":""run_exp/static/images/task_images/dig.jpg"",""time"":0.6899996660649776},{""stimulus"":""run_exp/static/images/task_images/land.jpg"",""time"":808.1249999813735},{""stimulus"":""run_exp/static/images/task_images/dig.jpg"",""time"":1609.7999997437}]",[],1,,,,,,,,,,,,,
harvest,71,364702,0.0-25.0-1.0,,null,run_exp/static/images/task_images/gems/3.jpg,null,,,,,,1,,,1,,,,,3,0.222727865,0.333333333,,,,,,
decision,72,364806,0.0-25.0-2.0,,101.4549998,run_exp/static/images/task_images/land.jpg,65,,,,,,1,,,1,,,,,,,,16658,1,2,FALSE,,
dig,73,367719,0.0-26.0-0.0,,,,,,,,,,,"[{""stimulus"":""run_exp/static/images/task_images/dig.jpg"",""time"":0.8199997246265411},{""stimulus"":""run_exp/static/images/task_images/land.jpg"",""time"":971.5950000099838},{""stimulus"":""run_exp/static/images/task_images/dig.jpg"",""time"":1939.1099996864796}]",[],1,,,,,,,,,,,,,
harvest,74,368725,0.0-26.0-1.0,,null,run_exp/static/images/task_images/gems/1.jpg,null,,,,,,0,,,1,,,,,1,0.19151739,0,,,,,,
decision,75,369123,0.0-26.0-2.0,,395.8650003,run_exp/static/images/task_images/land.jpg,65,,,,,,0,,,1,,,,,,,,20975,1,3,FALSE,,
dig,76,371736,0.0-27.0-0.0,,,,,,,,,,,"[{""stimulus"":""run_exp/static/images/task_images/dig.jpg"",""time"":0.9449999779462814},{""stimulus"":""run_exp/static/images/task_images/land.jpg"",""time"":872.7400000207126},{""stimulus"":""run_exp/static/images/task_images/dig.jpg"",""time"":1740.2200000360608}]",[],1,,,,,,,,,,,,,
harvest,77,372742,0.0-27.0-1.0,,null,run_exp/static/images/task_images/gems/0.jpg,null,,,,,,0,,,1,,,,,0,0.164071459,NaN,,,,,,
decision,78,373901,0.0-27.0-2.0,,1156.92,run_exp/static/images/task_images/land.jpg,76,,,,,,0,,,1,,,,,,,,25753,1,4,TRUE,,
travel,79,382746,0.0-28.0-0.0,,,,,,,,,,,"[{""stimulus"":""run_exp/static/images/task_images/rocket-01.jpg"",""time"":0.15999982133507729},{""stimulus"":""run_exp/static/images/task_images/rocket-02.jpg"",""time"":986.7250001989305},{""stimulus"":""run_exp/static/images/task_images/rocket-03.jpg"",""time"":1965.9850001335144},{""stimulus"":""run_exp/static/images/task_images/rocket-04.jpg"",""time"":2948.1600001454353},{""stimulus"":""run_exp/static/images/task_images/rocket-05.jpg"",""time"":3931.5400002524257},{""stimulus"":""run_exp/static/images/task_images/rocket-06.jpg"",""time"":4914.995000232011},{""stimulus"":""run_exp/static/images/task_images/rocket-07.jpg"",""time"":5897.944999858737},{""stimulus"":""run_exp/static/images/task_images/rocket-08.jpg"",""time"":6879.970000125468},{""stimulus"":""run_exp/static/images/task_images/rocket-09.jpg"",""time"":7861.545000225306}]",[],1,,,,,,,,,,,,,
alien_welcome,80,387750,0.0-28.0-1.0,,null,run_exp/static/images/task_images/aliens/old_aliens/planet/alien_planet-21.jpg,null,,,,,,,,,,,,21,"40,21,13,63,34,24,64,68,15,53,44,37,18,74,59,62,20,61,23,58,1,9,78,79,22,69,52",,,,,,,,,
land,81,388254,0.0-28.0-2.0,,null,run_exp/static/images/task_images/land.jpg,null,,,,,,95,,,2,,,,,,,,,,,,,
dig,82,390264,0.0-28.0-3.0,,,,,,,,,,,"[{""stimulus"":""run_exp/static/images/task_images/dig.jpg"",""time"":0.8999998681247234},{""stimulus"":""run_exp/static/images/task_images/land.jpg"",""time"":674.434999935329},{""stimulus"":""run_exp/static/images/task_images/dig.jpg"",""time"":1342.1300002373755}]",[],2,,,,,,,,,,,,,
harvest,83,391270,0.0-28.0-4.0,,null,run_exp/static/images/task_images/gems/95.jpg,null,,,,,,23,,,2,,,,,95,0.241398299,0.242105263,,,,,,
decision,84,392547,0.0-28.0-5.0,,1275.28,run_exp/static/images/task_images/land.jpg,65,,,,,,23,,,2,,,,,,,,44399,1,0,FALSE,,
dig,85,394280,0.0-29.0-0.0,,,,,,,,,,,"[{""stimulus"":""run_exp/static/images/task_images/dig.jpg"",""time"":0.6349999457597733},{""stimulus"":""run_exp/static/images/task_images/land.jpg"",""time"":578.7700000219047},{""stimulus"":""run_exp/static/images/task_images/dig.jpg"",""time"":1152.7599999681115}]",[],2,,,,,,,,,,,,,
harvest,86,395287,0.0-29.0-1.0,,null,run_exp/static/images/task_images/gems/23.jpg,null,,,,,,6,,,2,,,,,23,0.244995726,0.260869565,,,,,,
decision,87,396431,0.0-29.0-2.0,,1141.565,run_exp/static/images/task_images/land.jpg,65,,,,,,6,,,2,,,,,,,,48283,1,1,FALSE,,
dig,88,398298,0.0-30.0-0.0,,,,,,,,,,,"[{""stimulus"":""run_exp/static/images/task_images/dig.jpg"",""time"":0.6300001405179501},{""stimulus"":""run_exp/static/images/task_images/land.jpg"",""time"":624.9750000424683},{""stimulus"":""run_exp/static/images/task_images/dig.jpg"",""time"":1242.4699999392033}]",[],2,,,,,,,,,,,,,
harvest,89,399301,0.0-30.0-1.0,,null,run_exp/static/images/task_images/gems/6.jpg,null,,,,,,1,,,2,,,,,6,0.154334966,0.166666667,,,,,,
decision,90,400355,0.0-30.0-2.0,,1052.21,run_exp/static/images/task_images/land.jpg,65,,,,,,1,,,2,,,,,,,,52207,1,2,FALSE,,
dig,91,402313,0.0-31.0-0.0,,,,,,,,,,,"[{""stimulus"":""run_exp/static/images/task_images/dig.jpg"",""time"":0.6249998696148396},{""stimulus"":""run_exp/static/images/task_images/land.jpg"",""time"":656.0349999926984},{""stimulus"":""run_exp/static/images/task_images/dig.jpg"",""time"":1305.2050000987947}]",[],2,,,,,,,,,,,,,
harvest,92,403320,0.0-31.0-1.0,,null,run_exp/static/images/task_images/gems/1.jpg,null,,,,,,0,,,2,,,,,1,0.244463777,0,,,,,,
decision,93,403867,0.0-31.0-2.0,,545.4550004,run_exp/static/images/task_images/land.jpg,65,,,,,,0,,,2,,,,,,,,55719,1,3,FALSE,,
dig,94,406332,0.0-32.0-0.0,,,,,,,,,,,"[{""stimulus"":""run_exp/static/images/task_images/dig.jpg"",""time"":0.7199998944997787},{""stimulus"":""run_exp/static/images/task_images/land.jpg"",""time"":825.1899997703731},{""stimulus"":""run_exp/static/images/task_images/dig.jpg"",""time"":1641.7000000365078}]",[],2,,,,,,,,,,,,,
harvest,95,407337,0.0-32.0-1.0,,null,run_exp/static/images/task_images/gems/0.jpg,null,,,,,,0,,,2,,,,,0,0.275685484,NaN,,,,,,
decision,96,407607,0.0-32.0-2.0,,267.7699998,run_exp/static/images/task_images/land.jpg,76,,,,,,0,,,2,,,,,,,,59459,1,4,TRUE,,
travel,97,417349,0.0-33.0-0.0,,,,,,,,,,,"[{""stimulus"":""run_exp/static/images/task_images/rocket-01.jpg"",""time"":0.15999982133507729},{""stimulus"":""run_exp/static/images/task_images/rocket-02.jpg"",""time"":1086.949999909848},{""stimulus"":""run_exp/static/images/task_images/rocket-03.jpg"",""time"":2164.0050001442432},{""stimulus"":""run_exp/static/images/task_images/rocket-04.jpg"",""time"":3247.0400002785027},{""stimulus"":""run_exp/static/images/task_images/rocket-05.jpg"",""time"":4326.429999899119},{""stimulus"":""run_exp/static/images/task_images/rocket-06.jpg"",""time"":5409.89000024274},{""stimulus"":""run_exp/static/images/task_images/rocket-07.jpg"",""time"":6490.005000028759},{""stimulus"":""run_exp/static/images/task_images/rocket-08.jpg"",""time"":7571.280000265688},{""stimulus"":""run_exp/static/images/task_images/rocket-09.jpg"",""time"":8653.270000126213}]",[],2,,,,,,,,,,,,,
alien_welcome,98,422355,0.0-33.0-1.0,,null,run_exp/static/images/task_images/aliens/old_aliens/planet/alien_planet-13.jpg,null,,,,,,,,,,,,13,"40,21,13,63,34,24,64,68,15,53,44,37,18,74,59,62,20,61,23,58,1,9,78,79,22,69,52",,,,,,,,,
land,99,422858,0.0-33.0-2.0,,null,run_exp/static/images/task_images/land.jpg,null,,,,,,96,,,3,,,,,,,,,,,,,
dig,100,424863,0.0-33.0-3.0,,,,,,,,,,,"[{""stimulus"":""run_exp/static/images/task_images/dig.jpg"",""time"":0.890000257641077},{""stimulus"":""run_exp/static/images/task_images/land.jpg"",""time"":674.3850000202656},{""stimulus"":""run_exp/static/images/task_images/dig.jpg"",""time"":1342.2750001773238}]",[],3,,,,,,,,,,,,,
harvest,101,425867,0.0-33.0-4.0,,null,run_exp/static/images/task_images/gems/96.jpg,null,,,,,,52,,,3,,,,,96,0.545070023,0.541666667,,,,,,
decision,102,426419,0.0-33.0-5.0,,550.2549997,run_exp/static/images/task_images/land.jpg,65,,,,,,52,,,3,,,,,,,,78271,1,0,FALSE,,
dig,103,428875,0.0-34.0-0.0,,,,,,,,,,,"[{""stimulus"":""run_exp/static/images/task_images/dig.jpg"",""time"":0.6499998271465302},{""stimulus"":""run_exp/static/images/task_images/land.jpg"",""time"":822.9000000283122},{""stimulus"":""run_exp/static/images/task_images/dig.jpg"",""time"":1634.5349997282028}]",[],3,,,,,,,,,,,,,
harvest,104,429879,0.0-34.0-1.0,,null,run_exp/static/images/task_images/gems/52.jpg,null,,,,,,24,,,3,,,,,52,0.469426251,0.461538462,,,,,,
decision,105,430381,0.0-34.0-2.0,,500.6949999,run_exp/static/images/task_images/land.jpg,65,,,,,,24,,,3,,,,,,,,82233,1,1,FALSE,,
dig,106,432892,0.0-35.0-0.0,,,,,,,,,,,"[{""stimulus"":""run_exp/static/images/task_images/dig.jpg"",""time"":1.0449998080730438},{""stimulus"":""run_exp/static/images/task_images/land.jpg"",""time"":837.0550000108778},{""stimulus"":""run_exp/static/images/task_images/dig.jpg"",""time"":1671.0899998433888}]",[],3,,,,,,,,,,,,,
harvest,107,433896,0.0-35.0-1.0,,null,run_exp/static/images/task_images/gems/24.jpg,null,,,,,,13,,,3,,,,,24,0.542244836,0.541666667,,,,,,
decision,108,434311,0.0-35.0-2.0,,414.1549999,run_exp/static/images/task_images/land.jpg,65,,,,,,13,,,3,,,,,,,,86163,1,2,FALSE,,
dig,109,436901,0.0-36.0-0.0,,,,,,,,,,,"[{""stimulus"":""run_exp/static/images/task_images/dig.jpg"",""time"":0.6200000643730164},{""stimulus"":""run_exp/static/images/task_images/land.jpg"",""time"":867.8399999625981},{""stimulus"":""run_exp/static/images/task_images/dig.jpg"",""time"":1727.1850001998246}]",[],3,,,,,,,,,,,,,
harvest,110,437903,0.0-36.0-1.0,,null,run_exp/static/images/task_images/gems/13.jpg,null,,,,,,7,,,3,,,,,13,0.519582351,0.538461538,,,,,,
decision,111,438216,0.0-36.0-2.0,,311.6250001,run_exp/static/images/task_images/land.jpg,65,,,,,,7,,,3,,,,,,,,90068,1,3,FALSE,,
dig,112,440913,0.0-37.0-0.0,,,,,,,,,,,"[{""stimulus"":""run_exp/static/images/task_images/dig.jpg"",""time"":0.6750002503395081},{""stimulus"":""run_exp/static/images/task_images/land.jpg"",""time"":898.1150002218783},{""stimulus"":""run_exp/static/images/task_images/dig.jpg"",""time"":1796.4949999004602}]",[],3,,,,,,,,,,,,,
harvest,113,441917,0.0-37.0-1.0,,null,run_exp/static/images/task_images/gems/7.jpg,null,,,,,,3,,,3,,,,,7,0.454750155,0.428571429,,,,,,
decision,114,442146,0.0-37.0-2.0,,227.5799997,run_exp/static/images/task_images/land.jpg,65,,,,,,3,,,3,,,,,,,,93998,1,4,FALSE,,
dig,115,444927,0.0-38.0-0.0,,,,,,,,,,,"[{""stimulus"":""run_exp/static/images/task_images/dig.jpg"",""time"":0.6849998608231544},{""stimulus"":""run_exp/static/images/task_images/land.jpg"",""time"":931.039999704808},{""stimulus"":""run_exp/static/images/task_images/dig.jpg"",""time"":1855.6550000794232}]",[],3,,,,,,,,,,,,,
harvest,116,445929,0.0-38.0-1.0,,null,run_exp/static/images/task_images/gems/3.jpg,null,,,,,,1,,,3,,,,,3,0.414764565,0.333333333,,,,,,
decision,117,446356,0.0-38.0-2.0,,425.3450003,run_exp/static/images/task_images/land.jpg,65,,,,,,1,,,3,,,,,,,,98208,1,5,FALSE,,
dig,118,448944,0.0-39.0-0.0,,,,,,,,,,,"[{""stimulus"":""run_exp/static/images/task_images/dig.jpg"",""time"":1.0899999178946018},{""stimulus"":""run_exp/static/images/task_images/land.jpg"",""time"":860.7600000686944},{""stimulus"":""run_exp/static/images/task_images/dig.jpg"",""time"":1723.2349999248981}]",[],3,,,,,,,,,,,,,
harvest,119,449948,0.0-39.0-1.0,,null,run_exp/static/images/task_images/gems/1.jpg,null,,,,,,0,,,3,,,,,1,0.464729221,0,,,,,,
decision,120,450094,0.0-39.0-2.0,,144.0400002,run_exp/static/images/task_images/land.jpg,76,,,,,,0,,,3,,,,,,,,101946,1,6,TRUE,,
travel,121,459959,0.0-40.0-0.0,,,,,,,,,,,"[{""stimulus"":""run_exp/static/images/task_images/rocket-01.jpg"",""time"":0.1449999399483204},{""stimulus"":""run_exp/static/images/task_images/rocket-02.jpg"",""time"":1096.289999783039},{""stimulus"":""run_exp/static/images/task_images/rocket-03.jpg"",""time"":2194.8000001721084},{""stimulus"":""run_exp/static/images/task_images/rocket-04.jpg"",""time"":3286.009999923408},{""stimulus"":""run_exp/static/images/task_images/rocket-05.jpg"",""time"":4386.01000001654},{""stimulus"":""run_exp/static/images/task_images/rocket-06.jpg"",""time"":5479.92999991402},{""stimulus"":""run_exp/static/images/task_images/rocket-07.jpg"",""time"":6575.949999969453},{""stimulus"":""run_exp/static/images/task_images/rocket-08.jpg"",""time"":7670.069999992847},{""stimulus"":""run_exp/static/images/task_images/rocket-09.jpg"",""time"":8763.534999918193}]",[],3,,,,,,,,,,,,,
alien_welcome,122,464962,0.0-40.0-1.0,,null,run_exp/static/images/task_images/aliens/old_aliens/planet/alien_planet-63.jpg,null,,,,,,,,,,,,63,"40,21,13,63,34,24,64,68,15,53,44,37,18,74,59,62,20,61,23,58,1,9,78,79,22,69,52",,,,,,,,,
land,123,465468,0.0-40.0-2.0,,null,run_exp/static/images/task_images/land.jpg,null,,,,,,105,,,4,,,,,,,,,,,,,
dig,124,467479,0.0-40.0-3.0,,,,,,,,,,,"[{""stimulus"":""run_exp/static/images/task_images/dig.jpg"",""time"":1.3449997641146183},{""stimulus"":""run_exp/static/images/task_images/land.jpg"",""time"":674.5749996043742},{""stimulus"":""run_exp/static/images/task_images/dig.jpg"",""time"":1343.3549995534122}]",[],4,,,,,,,,,,,,,
harvest,125,468485,0.0-40.0-4.0,,null,run_exp/static/images/task_images/gems/105.jpg,null,,,,,,62,,,4,,,,,105,0.590826586,0.59047619,,,,,,
decision,126,469798,0.0-40.0-5.0,,1312.115,run_exp/static/images/task_images/land.jpg,65,,,,,,62,,,4,,,,,,,,121651,1,0,FALSE,,
dig,127,471495,0.0-41.0-0.0,,,,,,,,,,,"[{""stimulus"":""run_exp/static/images/task_images/dig.jpg"",""time"":0.6249998696148396},{""stimulus"":""run_exp/static/images/task_images/land.jpg"",""time"":568.9500002190471},{""stimulus"":""run_exp/static/images/task_images/dig.jpg"",""time"":1127.559999935329}]",[],4,,,,,,,,,,,,,
harvest,128,472498,0.0-41.0-1.0,,null,run_exp/static/images/task_images/gems/62.jpg,null,,,,,,31,,,4,,,,,62,0.492802471,0.5,,,,,,
decision,129,472868,0.0-41.0-2.0,,367.2450003,run_exp/static/images/task_images/land.jpg,65,,,,,,31,,,4,,,,,,,,124720,1,1,FALSE,,
dig,130,475509,0.0-42.0-0.0,,,,,,,,,,,"[{""stimulus"":""run_exp/static/images/task_images/dig.jpg"",""time"":0.6999997422099113},{""stimulus"":""run_exp/static/images/task_images/land.jpg"",""time"":884.0199997648597},{""stimulus"":""run_exp/static/images/task_images/dig.jpg"",""time"":1757.9600000753999}]",[],4,,,,,,,,,,,,,
harvest,131,476513,0.0-42.0-1.0,,null,run_exp/static/images/task_images/gems/31.jpg,null,,,,,,15,,,4,,,,,31,0.483176468,0.483870968,,,,,,
decision,132,477029,0.0-42.0-2.0,,513.7,run_exp/static/images/task_images/land.jpg,65,,,,,,15,,,4,,,,,,,,128881,1,2,FALSE,,
dig,133,479522,0.0-43.0-0.0,,,,,,,,,,,"[{""stimulus"":""run_exp/static/images/task_images/dig.jpg"",""time"":0.6249998696148396},{""stimulus"":""run_exp/static/images/task_images/land.jpg"",""time"":830.2549999207258},{""stimulus"":""run_exp/static/images/task_images/dig.jpg"",""time"":1663.569999858737}]",[],4,,,,,,,,,,,,,
harvest,134,480524,0.0-43.0-1.0,,null,run_exp/static/images/task_images/gems/15.jpg,null,,,,,,6,,,4,,,,,15,0.41853389,0.4,,,,,,
decision,135,481157,0.0-43.0-2.0,,632.0949998,run_exp/static/images/task_images/land.jpg,65,,,,,,6,,,4,,,,,,,,133009,1,3,FALSE,,
dig,136,483531,0.0-44.0-0.0,,,,,,,,,,,"[{""stimulus"":""run_exp/static/images/task_images/dig.jpg"",""time"":0.6499998271465302},{""stimulus"":""run_exp/static/images/task_images/land.jpg"",""time"":793.7400001101196},{""stimulus"":""run_exp/static/images/task_images/dig.jpg"",""time"":1585.1349998265505}]",[],4,,,,,,,,,,,,,
harvest,137,484536,0.0-44.0-1.0,,null,run_exp/static/images/task_images/gems/6.jpg,null,,,,,,3,,,4,,,,,6,0.537173428,0.5,,,,,,
decision,138,484971,0.0-44.0-2.0,,432.3150003,run_exp/static/images/task_images/land.jpg,65,,,,,,3,,,4,,,,,,,,136823,1,4,FALSE,,
dig,139,487547,0.0-45.0-0.0,,,,,,,,,,,"[{""stimulus"":""run_exp/static/images/task_images/dig.jpg"",""time"":0.8050003089010715},{""stimulus"":""run_exp/static/images/task_images/land.jpg"",""time"":862.300000153482},{""stimulus"":""run_exp/static/images/task_images/dig.jpg"",""time"":1714.7250003181398}]",[],4,,,,,,,,,,,,,
harvest,140,488553,0.0-45.0-1.0,,null,run_exp/static/images/task_images/gems/3.jpg,null,,,,,,1,,,4,,,,,3,0.493680685,0.333333333,,,,,,
decision,141,488885,0.0-45.0-2.0,,330.3399999,run_exp/static/images/task_images/land.jpg,65,,,,,,1,,,4,,,,,,,,140738,1,5,FALSE,,
dig,142,491563,0.0-46.0-0.0,,,,,,,,,,,"[{""stimulus"":""run_exp/static/images/task_images/dig.jpg"",""time"":0.6999997422099113},{""stimulus"":""run_exp/static/images/task_images/land.jpg"",""time"":891.3949998095632},{""stimulus"":""run_exp/static/images/task_images/dig.jpg"",""time"":1785.3549998253584}]",[],4,,,,,,,,,,,,,
harvest,143,492567,0.0-46.0-1.0,,null,run_exp/static/images/task_images/gems/1.jpg,null,,,,,,0,,,4,,,,,1,0.490245104,0,,,,,,
decision,144,493585,0.0-46.0-2.0,,1016.095,run_exp/static/images/task_images/land.jpg,76,,,,,,0,,,4,,,,,,,,145437,1,6,TRUE,,
travel,145,502573,0.0-47.0-0.0,,,,,,,,,,,"[{""stimulus"":""run_exp/static/images/task_images/rocket-01.jpg"",""time"":0.14999974519014359},{""stimulus"":""run_exp/static/images/task_images/rocket-02.jpg"",""time"":999.4950001128018},{""stimulus"":""run_exp/static/images/task_images/rocket-03.jpg"",""time"":2001.9700000993907},{""stimulus"":""run_exp/static/images/task_images/rocket-04.jpg"",""time"":2998.1149998493493},{""stimulus"":""run_exp/static/images/task_images/rocket-05.jpg"",""time"":3995.6499999389052},{""stimulus"":""run_exp/static/images/task_images/rocket-06.jpg"",""time"":4992.064999882132},{""stimulus"":""run_exp/static/images/task_images/rocket-07.jpg"",""time"":5992.134999949485},{""stimulus"":""run_exp/static/images/task_images/rocket-08.jpg"",""time"":6991.949999704957},{""stimulus"":""run_exp/static/images/task_images/rocket-09.jpg"",""time"":7989.955000113696}]",[],4,,,,,,,,,,,,,
alien_welcome,146,507581,0.0-47.0-1.0,,null,run_exp/static/images/task_images/aliens/old_aliens/planet/alien_planet-34.jpg,null,,,,,,,,,,,,34,"40,21,13,63,34,24,64,68,15,53,44,37,18,74,59,62,20,61,23,58,1,9,78,79,22,69,52",,,,,,,,,
land,147,508083,0.0-47.0-2.0,,null,run_exp/static/images/task_images/land.jpg,null,,,,,,90,,,5,,,,,,,,,,,,,
dig,148,510087,0.0-47.0-3.0,,,,,,,,,,,"[{""stimulus"":""run_exp/static/images/task_images/dig.jpg"",""time"":0.9400001727044582},{""stimulus"":""run_exp/static/images/task_images/land.jpg"",""time"":669.4249999709427},{""stimulus"":""run_exp/static/images/task_images/dig.jpg"",""time"":1337.2250003740191}]",[],5,,,,,,,,,,,,,
harvest,149,511090,0.0-47.0-4.0,,null,run_exp/static/images/task_images/gems/90.jpg,null,,,,,,40,,,5,,,,,90,0.440005828,0.444444444,,,,,,
decision,150,512106,0.0-47.0-5.0,,1014.42,run_exp/static/images/task_images/land.jpg,65,,,,,,40,,,5,,,,,,,,163958,1,0,FALSE,,
dig,151,514100,0.0-48.0-0.0,,,,,,,,,,,"[{""stimulus"":""run_exp/static/images/task_images/dig.jpg"",""time"":0.6299996748566628},{""stimulus"":""run_exp/static/images/task_images/land.jpg"",""time"":665.244999807328},{""stimulus"":""run_exp/static/images/task_images/dig.jpg"",""time"":1325.5949998274446}]",[],5,,,,,,,,,,,,,
harvest,152,515103,0.0-48.0-1.0,,null,run_exp/static/images/task_images/gems/40.jpg,null,,,,,,22,,,5,,,,,40,0.557057312,0.55,,,,,,
decision,153,515560,0.0-48.0-2.0,,455.24,run_exp/static/images/task_images/land.jpg,65,,,,,,22,,,5,,,,,,,,167412,1,1,FALSE,,
dig,154,518117,0.0-49.0-0.0,,,,,,,,,,,"[{""stimulus"":""run_exp/static/images/task_images/dig.jpg"",""time"":0.6550000980496407},{""stimulus"":""run_exp/static/images/task_images/land.jpg"",""time"":850.380000192672},{""stimulus"":""run_exp/static/images/task_images/dig.jpg"",""time"":1700.9850000031292}]",[],5,,,,,,,,,,,,,
harvest,155,519123,0.0-49.0-1.0,,null,run_exp/static/images/task_images/gems/22.jpg,null,,,,,,12,,,5,,,,,22,0.535398109,0.545454545,,,,,,
decision,156,519739,0.0-49.0-2.0,,614.3399999,run_exp/static/images/task_images/land.jpg,65,,,,,,12,,,5,,,,,,,,171592,1,2,FALSE,,
dig,157,522134,0.0-50.0-0.0,,,,,,,,,,,"[{""stimulus"":""run_exp/static/images/task_images/dig.jpg"",""time"":0.7650000043213367},{""stimulus"":""run_exp/static/images/task_images/land.jpg"",""time"":801.1850002221763},{""stimulus"":""run_exp/static/images/task_images/dig.jpg"",""time"":1597.915000282228}]",[],5,,,,,,,,,,,,,
harvest,158,523140,0.0-50.0-1.0,,null,run_exp/static/images/task_images/gems/12.jpg,null,,,,,,6,,,5,,,,,12,0.474169105,0.5,,,,,,
decision,159,524046,0.0-50.0-2.0,,904.4500003,run_exp/static/images/task_images/land.jpg,65,,,,,,6,,,5,,,,,,,,175899,1,3,FALSE,,
dig,160,526151,0.0-51.0-0.0,,,,,,,,,,,"[{""stimulus"":""run_exp/static/images/task_images/dig.jpg"",""time"":0.7150000892579556},{""stimulus"":""run_exp/static/images/task_images/land.jpg"",""time"":704.8800000920892},{""stimulus"":""run_exp/static/images/task_images/dig.jpg"",""time"":1398.7150001339614}]",[],5,,,,,,,,,,,,,
harvest,161,527155,0.0-51.0-1.0,,null,run_exp/static/images/task_images/gems/6.jpg,null,,,,,,3,,,5,,,,,6,0.450478017,0.5,,,,,,
decision,162,528660,0.0-51.0-2.0,,1503.095,run_exp/static/images/task_images/land.jpg,65,,,,,,3,,,5,,,,,,,,180512,1,4,FALSE,,
dig,163,530165,0.0-52.0-0.0,,,,,,,,,,,"[{""stimulus"":""run_exp/static/images/task_images/dig.jpg"",""time"":0.6800000555813313},{""stimulus"":""run_exp/static/images/task_images/land.jpg"",""time"":500.60500018298626},{""stimulus"":""run_exp/static/images/task_images/dig.jpg"",""time"":1001.5350002795458}]",[],5,,,,,,,,,,,,,
harvest,164,531168,0.0-52.0-1.0,,null,run_exp/static/images/task_images/gems/3.jpg,null,,,,,,2,,,5,,,,,3,0.622686995,0.666666667,,,,,,
decision,165,531588,0.0-52.0-2.0,,418.4350003,run_exp/static/images/task_images/land.jpg,65,,,,,,2,,,5,,,,,,,,183440,1,5,FALSE,,
dig,166,534177,0.0-53.0-0.0,,,,,,,,,,,"[{""stimulus"":""run_exp/static/images/task_images/dig.jpg"",""time"":0.6200000643730164},{""stimulus"":""run_exp/static/images/task_images/land.jpg"",""time"":866.880000103265},{""stimulus"":""run_exp/static/images/task_images/dig.jpg"",""time"":1726.60499997437}]",[],5,,,,,,,,,,,,,
harvest,167,535181,0.0-53.0-1.0,,null,run_exp/static/images/task_images/gems/2.jpg,null,,,,,,1,,,5,,,,,2,0.555049946,0.5,,,,,,
decision,168,535799,0.0-53.0-2.0,,616.6699999,run_exp/static/images/task_images/land.jpg,65,,,,,,1,,,5,,,,,,,,187651,1,6,FALSE,,
dig,169,538193,0.0-54.0-0.0,,,,,,,,,,,"[{""stimulus"":""run_exp/static/images/task_images/dig.jpg"",""time"":0.6200000643730164},{""stimulus"":""run_exp/static/images/task_images/land.jpg"",""time"":798.4299999661744},{""stimulus"":""run_exp/static/images/task_images/dig.jpg"",""time"":1595.4849999397993}]",[],5,,,,,,,,,,,,,
harvest,170,539195,0.0-54.0-1.0,,null,run_exp/static/images/task_images/gems/1.jpg,null,,,,,,0,,,5,,,,,1,0.485903741,0,,,,,,
decision,171,539603,0.0-54.0-2.0,,405.8449999,run_exp/static/images/task_images/land.jpg,76,,,,,,0,,,5,,,,,,,,191455,1,7,TRUE,,
travel,172,549203,0.0-55.0-0.0,,,,,,,,,,,"[{""stimulus"":""run_exp/static/images/task_images/rocket-01.jpg"",""time"":0.1550000160932541},{""stimulus"":""run_exp/static/images/task_images/rocket-02.jpg"",""time"":1071.9900000840425},{""stimulus"":""run_exp/static/images/task_images/rocket-03.jpg"",""time"":2138.0349998362362},{""stimulus"":""run_exp/static/images/task_images/rocket-04.jpg"",""time"":3200.0649999827147},{""stimulus"":""run_exp/static/images/task_images/rocket-05.jpg"",""time"":4265.379999764264},{""stimulus"":""run_exp/static/images/task_images/rocket-06.jpg"",""time"":5332.674999721348},{""stimulus"":""run_exp/static/images/task_images/rocket-07.jpg"",""time"":6398.8749999552965},{""stimulus"":""run_exp/static/images/task_images/rocket-08.jpg"",""time"":7465.719999745488},{""stimulus"":""run_exp/static/images/task_images/rocket-09.jpg"",""time"":8529.420000035316}]",[],5,,,,,,,,,,,,,
alien_welcome,173,554210,0.0-55.0-1.0,,null,run_exp/static/images/task_images/aliens/old_aliens/planet/alien_planet-24.jpg,null,,,,,,,,,,,,24,"40,21,13,63,34,24,64,68,15,53,44,37,18,74,59,62,20,61,23,58,1,9,78,79,22,69,52",,,,,,,,,
land,174,554713,0.0-55.0-2.0,,null,run_exp/static/images/task_images/land.jpg,null,,,,,,88,,,6,,,,,,,,,,,,,
dig,175,556721,0.0-55.0-3.0,,,,,,,,,,,"[{""stimulus"":""run_exp/static/images/task_images/dig.jpg"",""time"":0.9399997070431709},{""stimulus"":""run_exp/static/images/task_images/land.jpg"",""time"":673.6249998211861},{""stimulus"":""run_exp/static/images/task_images/dig.jpg"",""time"":1341.2049999460578}]",[],6,,,,,,,,,,,,,
harvest,176,557723,0.0-55.0-4.0,,null,run_exp/static/images/task_images/gems/88.jpg,null,,,,,,74,,,6,,,,,88,0.837938167,0.840909091,,,,,,
decision,177,558419,0.0-55.0-5.0,,694.685,run_exp/static/images/task_images/land.jpg,65,,,,,,74,,,6,,,,,,,,210271,1,0,FALSE,,
dig,178,560733,0.0-56.0-0.0,,,,,,,,,,,"[{""stimulus"":""run_exp/static/images/task_images/dig.jpg"",""time"":0.6599999032914639},{""stimulus"":""run_exp/static/images/task_images/land.jpg"",""time"":771.3150000199676},{""stimulus"":""run_exp/static/images/task_images/dig.jpg"",""time"":1541.1000000312924}]",[],6,,,,,,,,,,,,,
harvest,179,561738,0.0-56.0-1.0,,null,run_exp/static/images/task_images/gems/74.jpg,null,,,,,,62,,,6,,,,,74,0.833325774,0.837837838,,,,,,
decision,180,562007,0.0-56.0-2.0,,266.725,run_exp/static/images/task_images/land.jpg,65,,,,,,62,,,6,,,,,,,,213859,1,1,FALSE,,
dig,181,564751,0.0-57.0-0.0,,,,,,,,,,,"[{""stimulus"":""run_exp/static/images/task_images/dig.jpg"",""time"":0.6349999457597733},{""stimulus"":""run_exp/static/images/task_images/land.jpg"",""time"":913.59500028193},{""stimulus"":""run_exp/static/images/task_images/dig.jpg"",""time"":1827.8850000351667}]",[],6,,,,,,,,,,,,,
harvest,182,565755,0.0-57.0-1.0,,null,run_exp/static/images/task_images/gems/62.jpg,null,,,,,,54,,,6,,,,,62,0.86510132,0.870967742,,,,,,
decision,183,568761,0.0-57.0-2.0,,null,run_exp/static/images/task_images/land.jpg,null,,,,,,54,,,6,,,,,,,,220613,1,2,FALSE,,
time_out,184,570772,0.0-58.0-0.0,,null,run_exp/static/images/task_images/time_out.jpg,null,,,,,,54,,,,,,,,,,,,,,,,
decision,185,571124,0.0-58.0-1.0,,350.4699999,run_exp/static/images/task_images/land.jpg,65,,,,,,54,,,6,,,,,,,,222976,1,2,FALSE,,
dig,186,573781,0.0-59.0-0.0,,,,,,,,,,,"[{""stimulus"":""run_exp/static/images/task_images/dig.jpg"",""time"":0.8050003089010715},{""stimulus"":""run_exp/static/images/task_images/land.jpg"",""time"":890.1100000366569},{""stimulus"":""run_exp/static/images/task_images/dig.jpg"",""time"":1769.68999998644}]",[],6,,,,,,,,,,,,,
harvest,187,574783,0.0-59.0-1.0,,null,run_exp/static/images/task_images/gems/54.jpg,null,,,,,,45,,,6,,,,,54,0.830544731,0.833333333,,,,,,
decision,188,575078,0.0-59.0-2.0,,293.4699999,run_exp/static/images/task_images/land.jpg,65,,,,,,45,,,6,,,,,,,,226930,1,3,FALSE,,
dig,189,577794,0.0-60.0-0.0,,,,,,,,,,,"[{""stimulus"":""run_exp/static/images/task_images/dig.jpg"",""time"":0.6999997422099113},{""stimulus"":""run_exp/static/images/task_images/land.jpg"",""time"":906.6099999472499},{""stimulus"":""run_exp/static/images/task_images/dig.jpg"",""time"":1807.1249998174608}]",[],6,,,,,,,,,,,,,
harvest,190,578799,0.0-60.0-1.0,,null,run_exp/static/images/task_images/gems/45.jpg,null,,,,,,36,,,6,,,,,45,0.791705011,0.8,,,,,,
decision,191,578834,0.0-60.0-2.0,,33.48000022,run_exp/static/images/task_images/land.jpg,65,,,,,,36,,,6,,,,,,,,230687,1,4,FALSE,,
dig,192,581807,0.0-61.0-0.0,,,,,,,,,,,"[{""stimulus"":""run_exp/static/images/task_images/dig.jpg"",""time"":0.6249998696148396},{""stimulus"":""run_exp/static/images/task_images/land.jpg"",""time"":990.4450001195073},{""stimulus"":""run_exp/static/images/task_images/dig.jpg"",""time"":1982.1399999782443}]",[],6,,,,,,,,,,,,,
harvest,193,582810,0.0-61.0-1.0,,null,run_exp/static/images/task_images/gems/36.jpg,null,,,,,,29,,,6,,,,,36,0.814979159,0.805555556,,,,,,
decision,194,582883,0.0-61.0-2.0,,71.3849999,run_exp/static/images/task_images/land.jpg,65,,,,,,29,,,6,,,,,,,,234735,1,5,FALSE,,
dig,195,585817,0.0-62.0-0.0,,,,,,,,,,,"[{""stimulus"":""run_exp/static/images/task_images/dig.jpg"",""time"":0.6250003352761269},{""stimulus"":""run_exp/static/images/task_images/land.jpg"",""time"":979.605000000447},{""stimulus"":""run_exp/static/images/task_images/dig.jpg"",""time"":1959.7249999642372}]",[],6,,,,,,,,,,,,,
harvest,196,586820,0.0-62.0-1.0,,null,run_exp/static/images/task_images/gems/29.jpg,null,,,,,,23,,,6,,,,,29,0.78766665,0.793103448,,,,,,
decision,197,587318,0.0-62.0-2.0,,496.88,run_exp/static/images/task_images/land.jpg,65,,,,,,23,,,6,,,,,,,,239170,1,6,FALSE,,
dig,198,589826,0.0-63.0-0.0,,,,,,,,,,,"[{""stimulus"":""run_exp/static/images/task_images/dig.jpg"",""time"":0.6249998696148396},{""stimulus"":""run_exp/static/images/task_images/land.jpg"",""time"":836.4699999801815},{""stimulus"":""run_exp/static/images/task_images/dig.jpg"",""time"":1673.3200000599027}]",[],6,,,,,,,,,,,,,
harvest,199,590828,0.0-63.0-1.0,,null,run_exp/static/images/task_images/gems/23.jpg,null,,,,,,20,,,6,,,,,23,0.854804774,0.869565217,,,,,,
decision,200,593676,0.0-63.0-2.0,,2846.04,run_exp/static/images/task_images/land.jpg,65,,,,,,20,,,6,,,,,,,,245528,1,7,FALSE,,
dig,201,593891,0.0-64.0-0.0,,,,,,,,,,,"[{""stimulus"":""run_exp/static/images/task_images/dig.jpg"",""time"":0.9200000204145908},{""stimulus"":""run_exp/static/images/task_images/land.jpg"",""time"":106.44999984651804},{""stimulus"":""run_exp/static/images/task_images/dig.jpg"",""time"":159.72999995574355}]",[],6,,,,,,,,,,,,,
harvest,202,594898,0.0-64.0-1.0,,null,run_exp/static/images/task_images/gems/20.jpg,null,,,,,,18,,,6,,,,,20,0.88777547,0.9,,,,,,
decision,203,595644,0.0-64.0-2.0,,744.0249999,run_exp/static/images/task_images/land.jpg,65,,,,,,18,,,6,,,,,,,,247496,1,8,FALSE,,
dig,204,597908,0.0-65.0-0.0,,,,,,,,,,,"[{""stimulus"":""run_exp/static/images/task_images/dig.jpg"",""time"":0.6249998696148396},{""stimulus"":""run_exp/static/images/task_images/land.jpg"",""time"":756.7300000227988},{""stimulus"":""run_exp/static/images/task_images/dig.jpg"",""time"":1509.7550000064075}]",[],6,,,,,,,,,,,,,
harvest,205,598914,0.0-65.0-1.0,,null,run_exp/static/images/task_images/gems/18.jpg,null,,,,,,15,,,6,,,,,18,0.843035261,0.833333333,,,,,,
decision,206,599586,0.0-65.0-2.0,,669.2949999,run_exp/static/images/task_images/land.jpg,65,,,,,,15,,,6,,,,,,,,251438,1,9,FALSE,,
dig,207,601925,0.0-66.0-0.0,,,,,,,,,,,"[{""stimulus"":""run_exp/static/images/task_images/dig.jpg"",""time"":0.7950002327561378},{""stimulus"":""run_exp/static/images/task_images/land.jpg"",""time"":781.6800000146031},{""stimulus"":""run_exp/static/images/task_images/dig.jpg"",""time"":1559.594999998808}]",[],6,,,,,,,,,,,,,
harvest,208,602931,0.0-66.0-1.0,,null,run_exp/static/images/task_images/gems/15.jpg,null,,,,,,11,,,6,,,,,15,0.75678434,0.733333333,,,,,,
decision,209,603247,0.0-66.0-2.0,,314.1399999,run_exp/static/images/task_images/land.jpg,65,,,,,,11,,,6,,,,,,,,255100,1,10,FALSE,,
dig,210,605942,0.0-67.0-0.0,,,,,,,,,,,"[{""stimulus"":""run_exp/static/images/task_images/dig.jpg"",""time"":0.800000037997961},{""stimulus"":""run_exp/static/images/task_images/land.jpg"",""time"":897.2999998368323},{""stimulus"":""run_exp/static/images/task_images/dig.jpg"",""time"":1797.9549998417497}]",[],6,,,,,,,,,,,,,
harvest,211,606949,0.0-67.0-1.0,,null,run_exp/static/images/task_images/gems/11.jpg,null,,,,,,9,,,6,,,,,11,0.828036069,0.818181818,,,,,,
decision,212,607159,0.0-67.0-2.0,,208.66,run_exp/static/images/task_images/land.jpg,65,,,,,,9,,,6,,,,,,,,259011,1,11,FALSE,,
dig,213,609959,0.0-68.0-0.0,,,,,,,,,,,"[{""stimulus"":""run_exp/static/images/task_images/dig.jpg"",""time"":0.6349999457597733},{""stimulus"":""run_exp/static/images/task_images/land.jpg"",""time"":933.4950000047684},{""stimulus"":""run_exp/static/images/task_images/dig.jpg"",""time"":1863.149999640882}]",[],6,,,,,,,,,,,,,
harvest,214,610965,0.0-68.0-1.0,,null,run_exp/static/images/task_images/gems/9.jpg,null,,,,,,7,,,6,,,,,9,0.74527116,0.777777778,,,,,,
decision,215,613347,0.0-68.0-2.0,,2378.175,run_exp/static/images/task_images/land.jpg,65,,,,,,7,,,6,,,,,,,,265199,1,12,FALSE,,
dig,216,613977,0.0-69.0-0.0,,,,,,,,,,,"[{""stimulus"":""run_exp/static/images/task_images/dig.jpg"",""time"":0.8049998432397842},{""stimulus"":""run_exp/static/images/task_images/land.jpg"",""time"":211.70999994501472},{""stimulus"":""run_exp/static/images/task_images/dig.jpg"",""time"":417.86499973386526}]",[],6,,,,,,,,,,,,,
harvest,217,614980,0.0-69.0-1.0,,null,run_exp/static/images/task_images/gems/7.jpg,null,,,,,,6,,,6,,,,,7,0.825867145,0.857142857,,,,,,
decision,218,615617,0.0-69.0-2.0,,635.365,run_exp/static/images/task_images/land.jpg,65,,,,,,6,,,6,,,,,,,,267469,1,13,FALSE,,
dig,219,617989,0.0-70.0-0.0,,,,,,,,,,,"[{""stimulus"":""run_exp/static/images/task_images/dig.jpg"",""time"":0.6349999457597733},{""stimulus"":""run_exp/static/images/task_images/land.jpg"",""time"":794.9250000528991},{""stimulus"":""run_exp/static/images/task_images/dig.jpg"",""time"":1583.1800000742078}]",[],6,,,,,,,,,,,,,
harvest,220,618994,0.0-70.0-1.0,,null,run_exp/static/images/task_images/gems/6.jpg,null,,,,,,5,,,6,,,,,6,0.836544784,0.833333333,,,,,,
decision,221,619766,0.0-70.0-2.0,,769.8499998,run_exp/static/images/task_images/land.jpg,65,,,,,,5,,,6,,,,,,,,271618,1,14,FALSE,,
dig,222,622008,0.0-71.0-0.0,,,,,,,,,,,"[{""stimulus"":""run_exp/static/images/task_images/dig.jpg"",""time"":0.9200000204145908},{""stimulus"":""run_exp/static/images/task_images/land.jpg"",""time"":746.3500001467764},{""stimulus"":""run_exp/static/images/task_images/dig.jpg"",""time"":1490.0000002235174}]",[],6,,,,,,,,,,,,,
harvest,223,623011,0.0-71.0-1.0,,null,run_exp/static/images/task_images/gems/5.jpg,null,,,,,,4,,,6,,,,,5,0.84054392,0.8,,,,,,
decision,224,624702,0.0-71.0-2.0,,1689.51,run_exp/static/images/task_images/land.jpg,65,,,,,,4,,,6,,,,,,,,276554,1,15,FALSE,,
dig,225,626019,0.0-72.0-0.0,,,,,,,,,,,"[{""stimulus"":""run_exp/static/images/task_images/dig.jpg"",""time"":0.6249998696148396},{""stimulus"":""run_exp/static/images/task_images/land.jpg"",""time"":440.06500020623207},{""stimulus"":""run_exp/static/images/task_images/dig.jpg"",""time"":875.2350001595914}]",[],6,,,,,,,,,,,,,
harvest,226,627022,0.0-72.0-1.0,,null,run_exp/static/images/task_images/gems/4.jpg,null,,,,,,3,,,6,,,,,4,0.858848275,0.75,,,,,,
decision,227,627476,0.0-72.0-2.0,,452.4499997,run_exp/static/images/task_images/land.jpg,65,,,,,,3,,,6,,,,,,,,279328,1,16,FALSE,,
dig,228,630033,0.0-73.0-0.0,,,,,,,,,,,"[{""stimulus"":""run_exp/static/images/task_images/dig.jpg"",""time"":0.6200000643730164},{""stimulus"":""run_exp/static/images/task_images/land.jpg"",""time"":855.8749998919666},{""stimulus"":""run_exp/static/images/task_images/dig.jpg"",""time"":1701.2100000865757}]",[],6,,,,,,,,,,,,,
harvest,229,631039,0.0-73.0-1.0,,null,run_exp/static/images/task_images/gems/3.jpg,null,,,,,,2,,,6,,,,,3,0.797948356,0.666666667,,,,,,
decision,230,631402,0.0-73.0-2.0,,361.5450002,run_exp/static/images/task_images/land.jpg,65,,,,,,2,,,6,,,,,,,,283254,1,17,FALSE,,
dig,231,634049,0.0-74.0-0.0,,,,,,,,,,,"[{""stimulus"":""run_exp/static/images/task_images/dig.jpg"",""time"":0.7150000892579556},{""stimulus"":""run_exp/static/images/task_images/land.jpg"",""time"":884.8649999126792},{""stimulus"":""run_exp/static/images/task_images/dig.jpg"",""time"":1765.7699999399483}]",[],6,,,,,,,,,,,,,
harvest,232,635055,0.0-74.0-1.0,,null,run_exp/static/images/task_images/gems/2.jpg,null,,,,,,2,,,6,,,,,2,0.869060543,1,,,,,,
decision,233,635461,0.0-74.0-2.0,,403.3400002,run_exp/static/images/task_images/land.jpg,65,,,,,,2,,,6,,,,,,,,287313,1,18,FALSE,,
dig,234,638068,0.0-75.0-0.0,,,,,,,,,,,"[{""stimulus"":""run_exp/static/images/task_images/dig.jpg"",""time"":0.645000021904707},{""stimulus"":""run_exp/static/images/task_images/land.jpg"",""time"":870.8750000223517},{""stimulus"":""run_exp/static/images/task_images/dig.jpg"",""time"":1737.5300000421703}]",[],6,,,,,,,,,,,,,
harvest,235,639074,0.0-75.0-1.0,,null,run_exp/static/images/task_images/gems/2.jpg,null,,,,,,2,,,6,,,,,2,0.874871719,1,,,,,,
decision,236,640532,0.0-75.0-2.0,,1456.705,run_exp/static/images/task_images/land.jpg,65,,,,,,0,,,6,,,,,,,,292384,1,19,FALSE,,
dig,237,642086,0.0-76.0-0.0,,,,,,,,,,,"[{""stimulus"":""run_exp/static/images/task_images/dig.jpg"",""time"":0.6300001405179501},{""stimulus"":""run_exp/static/images/task_images/land.jpg"",""time"":516.4049998857081},{""stimulus"":""run_exp/static/images/task_images/dig.jpg"",""time"":1033.9250001125038}]",[],6,,,,,,,,,,,,,
harvest,238,643091,0.0-76.0-1.0,,null,run_exp/static/images/task_images/gems/0.jpg,null,,,,,,0,,,6,,,,,0,0.782851618,NaN,,,,,,
decision,239,644078,0.0-76.0-2.0,,986.0700001,run_exp/static/images/task_images/land.jpg,76,,,,,,0,,,6,,,,,,,,295930,1,20,TRUE,,
travel,240,653097,0.0-77.0-0.0,,,,,,,,,,,"[{""stimulus"":""run_exp/static/images/task_images/rocket-01.jpg"",""time"":0.1449999399483204},{""stimulus"":""run_exp/static/images/task_images/rocket-02.jpg"",""time"":1004.7300001606345},{""stimulus"":""run_exp/static/images/task_images/rocket-03.jpg"",""time"":2003.3849999308586},{""stimulus"":""run_exp/static/images/task_images/rocket-04.jpg"",""time"":3008.8900001719594},{""stimulus"":""run_exp/static/images/task_images/rocket-05.jpg"",""time"":4009.949999861419},{""stimulus"":""run_exp/static/images/task_images/rocket-06.jpg"",""time"":5010.8949998393655},{""stimulus"":""run_exp/static/images/task_images/rocket-07.jpg"",""time"":6009.000000078231},{""stimulus"":""run_exp/static/images/task_images/rocket-08.jpg"",""time"":7012.895000167191},{""stimulus"":""run_exp/static/images/task_images/rocket-09.jpg"",""time"":8012.649999931455}]",[],6,,,,,,,,,,,,,
alien_welcome,241,658101,0.0-77.0-1.0,,null,run_exp/static/images/task_images/aliens/old_aliens/planet/alien_planet-64.jpg,null,,,,,,,,,,,,64,"40,21,13,63,34,24,64,68,15,53,44,37,18,74,59,62,20,61,23,58,1,9,78,79,22,69,52",,,,,,,,,
land,242,658607,0.0-77.0-2.0,,null,run_exp/static/images/task_images/land.jpg,null,,,,,,99,,,7,,,,,,,,,,,,,
dig,243,660614,0.0-77.0-3.0,,,,,,,,,,,"[{""stimulus"":""run_exp/static/images/task_images/dig.jpg"",""time"":0.9150002151727676},{""stimulus"":""run_exp/static/images/task_images/land.jpg"",""time"":672.6799998432398},{""stimulus"":""run_exp/static/images/task_images/dig.jpg"",""time"":1341.264999937266}]",[],7,,,,,,,,,,,,,
harvest,244,661621,0.0-77.0-4.0,,null,run_exp/static/images/task_images/gems/99.jpg,null,,,,,,72,,,7,,,,,99,0.725362171,0.727272727,,,,,,
decision,245,662564,0.0-77.0-5.0,,942.1699997,run_exp/static/images/task_images/land.jpg,65,,,,,,72,,,7,,,,,,,,314417,1,0,TRUE,,
end_of_block_continue,246,671420,0.0-78.0-0.0,,null,run_exp/static/audio/clip_32_block_end.m4a,,,,,,null,,,,,,,,,,,,,,,,,
alien_welcome,247,676446,0.0-79.0-0.0,,null,run_exp/static/images/task_images/aliens/old_aliens/planet/alien_planet-68.jpg,null,,,,,,,,,,,,68,"40,21,13,63,34,24,64,68,15,53,44,37,18,74,59,62,20,61,23,58,1,9,78,79,22,69,52",,,,,,,,,
land,248,676949,0.0-79.0-1.0,,null,run_exp/static/images/task_images/land.jpg,null,,,,,,93,,,8,,,,,,,,,,,,,
dig,249,678959,0.0-79.0-2.0,,,,,,,,,,,"[{""stimulus"":""run_exp/static/images/task_images/dig.jpg"",""time"":0.9099999442696571},{""stimulus"":""run_exp/static/images/task_images/land.jpg"",""time"":669.3249996751547},{""stimulus"":""run_exp/static/images/task_images/dig.jpg"",""time"":1342.3750000074506}]",[],8,,,,,,,,,,,,,
harvest,250,679965,0.0-79.0-3.0,,null,run_exp/static/images/task_images/gems/93.jpg,null,,,,,,16,,,8,,,,,93,0.171710687,0.172043011,,,,,,
decision,251,682727,0.0-79.0-4.0,,2760.6,run_exp/static/images/task_images/land.jpg,65,,,,,,16,,,8,,,,,,,,11287,2,0,FALSE,,
dig,252,682977,0.0-80.0-0.0,,,,,,,,,,,"[{""stimulus"":""run_exp/static/images/task_images/dig.jpg"",""time"":0.6349999457597733},{""stimulus"":""run_exp/static/images/task_images/land.jpg"",""time"":99.73499970510602},{""stimulus"":""run_exp/static/images/task_images/dig.jpg"",""time"":165.62499990686774}]",[],8,,,,,,,,,,,,,
harvest,253,683983,0.0-80.0-1.0,,null,run_exp/static/images/task_images/gems/16.jpg,null,,,,,,5,,,8,,,,,16,0.293616459,0.3125,,,,,,
decision,254,685292,0.0-80.0-2.0,,1306.84,run_exp/static/images/task_images/land.jpg,65,,,,,,5,,,8,,,,,,,,13851,2,1,FALSE,,
dig,255,686992,0.0-81.0-0.0,,,,,,,,,,,"[{""stimulus"":""run_exp/static/images/task_images/dig.jpg"",""time"":0.6249998696148396},{""stimulus"":""run_exp/static/images/task_images/land.jpg"",""time"":570.2999997884035},{""stimulus"":""run_exp/static/images/task_images/dig.jpg"",""time"":1131.7799999378622}]",[],8,,,,,,,,,,,,,
harvest,256,687998,0.0-81.0-1.0,,null,run_exp/static/images/task_images/gems/5.jpg,null,,,,,,1,,,8,,,,,5,0.223033592,0.2,,,,,,
decision,257,690197,0.0-81.0-2.0,,2196.61,run_exp/static/images/task_images/land.jpg,65,,,,,,1,,,8,,,,,,,,18756,2,2,FALSE,,
dig,258,691007,0.0-82.0-0.0,,,,,,,,,,,"[{""stimulus"":""run_exp/static/images/task_images/dig.jpg"",""time"":0.645000021904707},{""stimulus"":""run_exp/static/images/task_images/land.jpg"",""time"":271.1899997666478},{""stimulus"":""run_exp/static/images/task_images/dig.jpg"",""time"":538.6600000783801}]",[],8,,,,,,,,,,,,,
harvest,259,692014,0.0-82.0-1.0,,null,run_exp/static/images/task_images/gems/1.jpg,null,,,,,,0,,,8,,,,,1,0.113660501,0,,,,,,
decision,260,693503,0.0-82.0-2.0,,1487.17,run_exp/static/images/task_images/land.jpg,65,,,,,,0,,,8,,,,,,,,22062,2,3,FALSE,,
dig,261,695022,0.0-83.0-0.0,,,,,,,,,,,"[{""stimulus"":""run_exp/static/images/task_images/dig.jpg"",""time"":0.619999598711729},{""stimulus"":""run_exp/static/images/task_images/land.jpg"",""time"":508.25499976053834},{""stimulus"":""run_exp/static/images/task_images/dig.jpg"",""time"":1011.1050000414252}]",[],8,,,,,,,,,,,,,
harvest,262,696029,0.0-83.0-1.0,,null,run_exp/static/images/task_images/gems/0.jpg,null,,,,,,0,,,8,,,,,0,0.118841317,NaN,,,,,,
decision,263,696710,0.0-83.0-2.0,,679.3499999,run_exp/static/images/task_images/land.jpg,76,,,,,,0,,,8,,,,,,,,25270,2,4,TRUE,,
travel,264,706036,0.0-84.0-0.0,,,,,,,,,,,"[{""stimulus"":""run_exp/static/images/task_images/rocket-01.jpg"",""time"":0.14999974519014359},{""stimulus"":""run_exp/static/images/task_images/rocket-02.jpg"",""time"":1036.3149996846914},{""stimulus"":""run_exp/static/images/task_images/rocket-03.jpg"",""time"":2075.989999808371},{""stimulus"":""run_exp/static/images/task_images/rocket-04.jpg"",""time"":3107.354999985546},{""stimulus"":""run_exp/static/images/task_images/rocket-05.jpg"",""time"":4145.930000115186},{""stimulus"":""run_exp/static/images/task_images/rocket-06.jpg"",""time"":5177.339999936521},{""stimulus"":""run_exp/static/images/task_images/rocket-07.jpg"",""time"":6214.619999751449},{""stimulus"":""run_exp/static/images/task_images/rocket-08.jpg"",""time"":7250.874999910593},{""stimulus"":""run_exp/static/images/task_images/rocket-09.jpg"",""time"":8281.214999966323}]",[],8,,,,,,,,,,,,,
alien_welcome,265,711043,0.0-84.0-1.0,,null,run_exp/static/images/task_images/aliens/old_aliens/planet/alien_planet-15.jpg,null,,,,,,,,,,,,15,"40,21,13,63,34,24,64,68,15,53,44,37,18,74,59,62,20,61,23,58,1,9,78,79,22,69,52",,,,,,,,,
land,266,711548,0.0-84.0-2.0,,null,run_exp/static/images/task_images/land.jpg,null,,,,,,107,,,9,,,,,,,,,,,,,
dig,267,713556,0.0-84.0-3.0,,,,,,,,,,,"[{""stimulus"":""run_exp/static/images/task_images/dig.jpg"",""time"":0.8899997919797897},{""stimulus"":""run_exp/static/images/task_images/land.jpg"",""time"":670.6449999473989},{""stimulus"":""run_exp/static/images/task_images/dig.jpg"",""time"":1338.2500000298023}]",[],9,,,,,,,,,,,,,
harvest,268,714563,0.0-84.0-4.0,,null,run_exp/static/images/task_images/gems/107.jpg,null,,,,,,19,,,9,,,,,107,0.180016886,0.177570093,,,,,,
decision,269,715562,0.0-84.0-5.0,,997.3599999,run_exp/static/images/task_images/land.jpg,65,,,,,,19,,,9,,,,,,,,44121,2,0,FALSE,,
dig,270,717574,0.0-85.0-0.0,,,,,,,,,,,"[{""stimulus"":""run_exp/static/images/task_images/dig.jpg"",""time"":0.6249998696148396},{""stimulus"":""run_exp/static/images/task_images/land.jpg"",""time"":673.5399998724461},{""stimulus"":""run_exp/static/images/task_images/dig.jpg"",""time"":1341.5599996224046}]",[],9,,,,,,,,,,,,,
harvest,271,718581,0.0-85.0-1.0,,null,run_exp/static/images/task_images/gems/19.jpg,null,,,,,,3,,,9,,,,,19,0.183653287,0.157894737,,,,,,
decision,272,721005,0.0-85.0-2.0,,2422.515,run_exp/static/images/task_images/land.jpg,65,,,,,,3,,,9,,,,,,,,49564,2,1,FALSE,,
dig,273,721588,0.0-86.0-0.0,,,,,,,,,,,"[{""stimulus"":""run_exp/static/images/task_images/dig.jpg"",""time"":0.6149997934699059},{""stimulus"":""run_exp/static/images/task_images/land.jpg"",""time"":193.9849997870624},{""stimulus"":""run_exp/static/images/task_images/dig.jpg"",""time"":391.6899999603629}]",[],9,,,,,,,,,,,,,
harvest,274,722595,0.0-86.0-1.0,,null,run_exp/static/images/task_images/gems/3.jpg,null,,,,,,1,,,9,,,,,3,0.189197018,0.333333333,,,,,,
decision,275,723986,0.0-86.0-2.0,,1388.695,run_exp/static/images/task_images/land.jpg,65,,,,,,1,,,9,,,,,,,,52545,2,2,FALSE,,
dig,276,725604,0.0-87.0-0.0,,,,,,,,,,,"[{""stimulus"":""run_exp/static/images/task_images/dig.jpg"",""time"":0.6699999794363976},{""stimulus"":""run_exp/static/images/task_images/land.jpg"",""time"":540.7300000078976},{""stimulus"":""run_exp/static/images/task_images/dig.jpg"",""time"":1080.5699997581542}]",[],9,,,,,,,,,,,,,
harvest,277,726611,0.0-87.0-1.0,,null,run_exp/static/images/task_images/gems/1.jpg,null,,,,,,0,,,9,,,,,1,0.178803262,0,,,,,,
decision,278,728304,0.0-87.0-2.0,,1691.48,run_exp/static/images/task_images/land.jpg,76,,,,,,0,,,9,,,,,,,,56863,2,3,TRUE,,
travel,279,736622,0.0-88.0-0.0,,,,,,,,,,,"[{""stimulus"":""run_exp/static/images/task_images/rocket-01.jpg"",""time"":0.3650002181529999},{""stimulus"":""run_exp/static/images/task_images/rocket-02.jpg"",""time"":926.0550001636147},{""stimulus"":""run_exp/static/images/task_images/rocket-03.jpg"",""time"":1847.53999998793},{""stimulus"":""run_exp/static/images/task_images/rocket-04.jpg"",""time"":2771.974999923259},{""stimulus"":""run_exp/static/images/task_images/rocket-05.jpg"",""time"":3696.0100000724196},{""stimulus"":""run_exp/static/images/task_images/rocket-06.jpg"",""time"":4618.060000240803},{""stimulus"":""run_exp/static/images/task_images/rocket-07.jpg"",""time"":5541.765000205487},{""stimulus"":""run_exp/static/images/task_images/rocket-08.jpg"",""time"":6467.145000118762},{""stimulus"":""run_exp/static/images/task_images/rocket-09.jpg"",""time"":7390.209999866784}]",[],9,,,,,,,,,,,,,
alien_welcome,280,741629,0.0-88.0-1.0,,null,run_exp/static/images/task_images/aliens/old_aliens/planet/alien_planet-53.jpg,null,,,,,,,,,,,,53,"40,21,13,63,34,24,64,68,15,53,44,37,18,74,59,62,20,61,23,58,1,9,78,79,22,69,52",,,,,,,,,
land,281,742136,0.0-88.0-2.0,,null,run_exp/static/images/task_images/land.jpg,null,,,,,,98,,,10,,,,,,,,,,,,,
dig,282,744144,0.0-88.0-3.0,,,,,,,,,,,"[{""stimulus"":""run_exp/static/images/task_images/dig.jpg"",""time"":1.0449998080730438},{""stimulus"":""run_exp/static/images/task_images/land.jpg"",""time"":672.8599998168647},{""stimulus"":""run_exp/static/images/task_images/dig.jpg"",""time"":1338.5850000195205}]",[],10,,,,,,,,,,,,,
harvest,283,745146,0.0-88.0-4.0,,null,run_exp/static/images/task_images/gems/98.jpg,null,,,,,,17,,,10,,,,,98,0.169991749,0.173469388,,,,,,
decision,284,746872,0.0-88.0-5.0,,1724.75,run_exp/static/images/task_images/land.jpg,65,,,,,,17,,,10,,,,,,,,75431,2,0,FALSE,,
dig,285,748156,0.0-89.0-0.0,,,,,,,,,,,"[{""stimulus"":""run_exp/static/images/task_images/dig.jpg"",""time"":0.6149997934699059},{""stimulus"":""run_exp/static/images/task_images/land.jpg"",""time"":429.57499995827675},{""stimulus"":""run_exp/static/images/task_images/dig.jpg"",""time"":857.7299998141825}]",[],10,,,,,,,,,,,,,
harvest,286,749163,0.0-89.0-1.0,,null,run_exp/static/images/task_images/gems/17.jpg,null,,,,,,4,,,10,,,,,17,0.23199667,0.235294118,,,,,,
decision,287,749808,0.0-89.0-2.0,,643.2500002,run_exp/static/images/task_images/land.jpg,65,,,,,,4,,,10,,,,,,,,78367,2,1,FALSE,,
dig,288,752173,0.0-90.0-0.0,,,,,,,,,,,"[{""stimulus"":""run_exp/static/images/task_images/dig.jpg"",""time"":0.7749996148049831},{""stimulus"":""run_exp/static/images/task_images/land.jpg"",""time"":790.5899998731911},{""stimulus"":""run_exp/static/images/task_images/dig.jpg"",""time"":1574.50499990955}]",[],10,,,,,,,,,,,,,
harvest,289,753178,0.0-90.0-1.0,,null,run_exp/static/images/task_images/gems/4.jpg,null,,,,,,1,,,10,,,,,4,0.212631909,0.25,,,,,,
decision,290,753720,0.0-90.0-2.0,,540.3149999,run_exp/static/images/task_images/land.jpg,65,,,,,,1,,,10,,,,,,,,82279,2,2,FALSE,,
dig,291,756189,0.0-91.0-0.0,,,,,,,,,,,"[{""stimulus"":""run_exp/static/images/task_images/dig.jpg"",""time"":0.619999598711729},{""stimulus"":""run_exp/static/images/task_images/land.jpg"",""time"":824.7949997894466},{""stimulus"":""run_exp/static/images/task_images/dig.jpg"",""time"":1645.6899996846914}]",[],10,,,,,,,,,,,,,
harvest,292,757191,0.0-91.0-1.0,,null,run_exp/static/images/task_images/gems/1.jpg,null,,,,,,0,,,10,,,,,1,0.211867985,0,,,,,,
decision,293,757707,0.0-91.0-2.0,,513.9350002,run_exp/static/images/task_images/land.jpg,76,,,,,,0,,,10,,,,,,,,86266,2,3,TRUE,,
travel,294,767205,0.0-92.0-0.0,,,,,,,,,,,"[{""stimulus"":""run_exp/static/images/task_images/rocket-01.jpg"",""time"":0.2999999560415745},{""stimulus"":""run_exp/static/images/task_images/rocket-02.jpg"",""time"":1058.800000231713},{""stimulus"":""run_exp/static/images/task_images/rocket-03.jpg"",""time"":2114.065000321716},{""stimulus"":""run_exp/static/images/task_images/rocket-04.jpg"",""time"":3168.0550002492964},{""stimulus"":""run_exp/static/images/task_images/rocket-05.jpg"",""time"":4218.5500003397465},{""stimulus"":""run_exp/static/images/task_images/rocket-06.jpg"",""time"":5271.730000153184},{""stimulus"":""run_exp/static/images/task_images/rocket-07.jpg"",""time"":6326.000000350177},{""stimulus"":""run_exp/static/images/task_images/rocket-08.jpg"",""time"":7383.415000047535},{""stimulus"":""run_exp/static/images/task_images/rocket-09.jpg"",""time"":8438.210000284016}]",[],10,,,,,,,,,,,,,
alien_welcome,295,772209,0.0-92.0-1.0,,null,run_exp/static/images/task_images/aliens/old_aliens/planet/alien_planet-44.jpg,null,,,,,,,,,,,,44,"40,21,13,63,34,24,64,68,15,53,44,37,18,74,59,62,20,61,23,58,1,9,78,79,22,69,52",,,,,,,,,
land,296,772712,0.0-92.0-2.0,,null,run_exp/static/images/task_images/land.jpg,null,,,,,,97,,,11,,,,,,,,,,,,,
dig,297,774719,0.0-92.0-3.0,,,,,,,,,,,"[{""stimulus"":""run_exp/static/images/task_images/dig.jpg"",""time"":1.0099997743964195},{""stimulus"":""run_exp/static/images/task_images/land.jpg"",""time"":674.5299999602139},{""stimulus"":""run_exp/static/images/task_images/dig.jpg"",""time"":1341.0849999636412}]",[],11,,,,,,,,,,,,,
harvest,298,775726,0.0-92.0-4.0,,null,run_exp/static/images/task_images/gems/97.jpg,null,,,,,,79,,,11,,,,,97,0.809675414,0.81443299,,,,,,
decision,299,775882,0.0-92.0-5.0,,155.2799996,run_exp/static/images/task_images/land.jpg,65,,,,,,79,,,11,,,,,,,,104442,2,0,FALSE,,
dig,300,778737,0.0-93.0-0.0,,,,,,,,,,,"[{""stimulus"":""run_exp/static/images/task_images/dig.jpg"",""time"":0.6300001405179501},{""stimulus"":""run_exp/static/images/task_images/land.jpg"",""time"":954.7350001521409},{""stimulus"":""run_exp/static/images/task_images/dig.jpg"",""time"":1903.6400001496077}]",[],11,,,,,,,,,,,,,
harvest,301,779743,0.0-93.0-1.0,,null,run_exp/static/images/task_images/gems/79.jpg,null,,,,,,66,,,11,,,,,79,0.832748007,0.835443038,,,,,,
decision,302,782750,0.0-93.0-2.0,,null,run_exp/static/images/task_images/land.jpg,null,,,,,,66,,,11,,,,,,,,111309,2,1,FALSE,,
time_out,303,784760,0.0-94.0-0.0,,null,run_exp/static/images/task_images/time_out.jpg,null,,,,,,66,,,,,,,,,,,,,,,,
decision,304,787436,0.0-94.0-1.0,,2674.22,run_exp/static/images/task_images/land.jpg,65,,,,,,66,,,11,,,,,,,,115995,2,1,FALSE,,
dig,305,787777,0.0-95.0-0.0,,,,,,,,,,,"[{""stimulus"":""run_exp/static/images/task_images/dig.jpg"",""time"":0.8399998769164085},{""stimulus"":""run_exp/static/images/task_images/land.jpg"",""time"":112.6999999396503},{""stimulus"":""run_exp/static/images/task_images/dig.jpg"",""time"":223.5249998047948}]",[],11,,,,,,,,,,,,,
harvest,306,788783,0.0-95.0-1.0,,null,run_exp/static/images/task_images/gems/66.jpg,null,,,,,,58,,,11,,,,,66,0.884011794,0.878787879,,,,,,
decision,307,790070,0.0-95.0-2.0,,1285.185,run_exp/static/images/task_images/land.jpg,65,,,,,,58,,,11,,,,,,,,118629,2,2,FALSE,,
dig,308,791794,0.0-96.0-0.0,,,,,,,,,,,"[{""stimulus"":""run_exp/static/images/task_images/dig.jpg"",""time"":0.6249998696148396},{""stimulus"":""run_exp/static/images/task_images/land.jpg"",""time"":577.929999679327},{""stimulus"":""run_exp/static/images/task_images/dig.jpg"",""time"":1146.9899998046458}]",[],11,,,,,,,,,,,,,
harvest,309,792799,0.0-96.0-1.0,,null,run_exp/static/images/task_images/gems/58.jpg,null,,,,,,46,,,11,,,,,58,0.79307897,0.793103448,,,,,,
decision,310,793243,0.0-96.0-2.0,,441.745,run_exp/static/images/task_images/land.jpg,65,,,,,,46,,,11,,,,,,,,121802,2,3,FALSE,,
dig,311,795811,0.0-97.0-0.0,,,,,,,,,,,"[{""stimulus"":""run_exp/static/images/task_images/dig.jpg"",""time"":0.6299996748566628},{""stimulus"":""run_exp/static/images/task_images/land.jpg"",""time"":856.3349996693432},{""stimulus"":""run_exp/static/images/task_images/dig.jpg"",""time"":1711.7849998176098}]",[],11,,,,,,,,,,,,,
harvest,312,796816,0.0-97.0-1.0,,null,run_exp/static/images/task_images/gems/46.jpg,null,,,,,,34,,,11,,,,,46,0.736722157,0.739130435,,,,,,
decision,313,798313,0.0-97.0-2.0,,1495.57,run_exp/static/images/task_images/land.jpg,65,,,,,,34,,,11,,,,,,,,126872,2,4,FALSE,,
dig,314,799825,0.0-98.0-0.0,,,,,,,,,,,"[{""stimulus"":""run_exp/static/images/task_images/dig.jpg"",""time"":0.6249998696148396},{""stimulus"":""run_exp/static/images/task_images/land.jpg"",""time"":504.3950001709163},{""stimulus"":""run_exp/static/images/task_images/dig.jpg"",""time"":1005.2000000141561}]",[],11,,,,,,,,,,,,,
harvest,315,800828,0.0-98.0-1.0,,null,run_exp/static/images/task_images/gems/34.jpg,null,,,,,,27,,,11,,,,,34,0.782269998,0.794117647,,,,,,
decision,316,802770,0.0-98.0-2.0,,1940.52,run_exp/static/images/task_images/land.jpg,65,,,,,,27,,,11,,,,,,,,131330,2,5,FALSE,,
dig,317,803842,0.0-99.0-0.0,,,,,,,,,,,"[{""stimulus"":""run_exp/static/images/task_images/dig.jpg"",""time"":0.6249998696148396},{""stimulus"":""run_exp/static/images/task_images/land.jpg"",""time"":358.2299998961389},{""stimulus"":""run_exp/static/images/task_images/dig.jpg"",""time"":710.6500002555549}]",[],11,,,,,,,,,,,,,
harvest,318,804845,0.0-99.0-1.0,,null,run_exp/static/images/task_images/gems/27.jpg,null,,,,,,20,,,11,,,,,27,0.751446082,0.740740741,,,,,,
decision,319,805228,0.0-99.0-2.0,,381.3149999,run_exp/static/images/task_images/land.jpg,65,,,,,,20,,,11,,,,,,,,133787,2,6,FALSE,,
dig,320,807856,0.0-100.0-0.0,,,,,,,,,,,"[{""stimulus"":""run_exp/static/images/task_images/dig.jpg"",""time"":0.6299996748566628},{""stimulus"":""run_exp/static/images/task_images/land.jpg"",""time"":877.4349996820092},{""stimulus"":""run_exp/static/images/task_images/dig.jpg"",""time"":1746.5099999681115}]",[],11,,,,,,,,,,,,,
harvest,321,808862,0.0-100.0-1.0,,null,run_exp/static/images/task_images/gems/20.jpg,null,,,,,,16,,,11,,,,,20,0.822478483,0.8,,,,,,
decision,322,810033,0.0-100.0-2.0,,1167.965,run_exp/static/images/task_images/land.jpg,65,,,,,,16,,,11,,,,,,,,138592,2,7,FALSE,,
dig,323,811875,0.0-101.0-0.0,,,,,,,,,,,"[{""stimulus"":""run_exp/static/images/task_images/dig.jpg"",""time"":0.6949999369680882},{""stimulus"":""run_exp/static/images/task_images/land.jpg"",""time"":617.0250000432134},{""stimulus"":""run_exp/static/images/task_images/dig.jpg"",""time"":1224.7100002132356}]",[],11,,,,,,,,,,,,,
harvest,324,812879,0.0-101.0-1.0,,null,run_exp/static/images/task_images/gems/16.jpg,null,,,,,,13,,,11,,,,,16,0.783216345,0.8125,,,,,,
decision,325,813736,0.0-101.0-2.0,,854.7049998,run_exp/static/images/task_images/land.jpg,65,,,,,,13,,,11,,,,,,,,142295,2,8,FALSE,,
dig,326,815896,0.0-102.0-0.0,,,,,,,,,,,"[{""stimulus"":""run_exp/static/images/task_images/dig.jpg"",""time"":1.0199998505413532},{""stimulus"":""run_exp/static/images/task_images/land.jpg"",""time"":719.2049999721348},{""stimulus"":""run_exp/static/images/task_images/dig.jpg"",""time"":1435.2599997073412}]",[],11,,,,,,,,,,,,,
harvest,327,816903,0.0-102.0-1.0,,null,run_exp/static/images/task_images/gems/13.jpg,null,,,,,,10,,,11,,,,,13,0.761221961,0.769230769,,,,,,
decision,328,817499,0.0-102.0-2.0,,594.0699996,run_exp/static/images/task_images/land.jpg,65,,,,,,10,,,11,,,,,,,,146058,2,9,FALSE,,
dig,329,819913,0.0-103.0-0.0,,,,,,,,,,,"[{""stimulus"":""run_exp/static/images/task_images/dig.jpg"",""time"":1.0100002400577068},{""stimulus"":""run_exp/static/images/task_images/land.jpg"",""time"":806.8000003695488},{""stimulus"":""run_exp/static/images/task_images/dig.jpg"",""time"":1607.3549999855459}]",[],11,,,,,,,,,,,,,
harvest,330,820918,0.0-103.0-1.0,,null,run_exp/static/images/task_images/gems/10.jpg,null,,,,,,8,,,11,,,,,10,0.80964991,0.8,,,,,,
decision,331,821016,0.0-103.0-2.0,,96.20999964,run_exp/static/images/task_images/land.jpg,65,,,,,,8,,,11,,,,,,,,149575,2,10,FALSE,,
dig,332,823930,0.0-104.0-0.0,,,,,,,,,,,"[{""stimulus"":""run_exp/static/images/task_images/dig.jpg"",""time"":1.075000036507845},{""stimulus"":""run_exp/static/images/task_images/land.jpg"",""time"":972.7300000376999},{""stimulus"":""run_exp/static/images/task_images/dig.jpg"",""time"":1940.3800000436604}]",[],11,,,,,,,,,,,,,
harvest,333,824938,0.0-104.0-1.0,,null,run_exp/static/images/task_images/gems/8.jpg,null,,,,,,6,,,11,,,,,8,0.731164568,0.75,,,,,,
decision,334,825095,0.0-104.0-2.0,,156.0299997,run_exp/static/images/task_images/land.jpg,65,,,,,,6,,,11,,,,,,,,153654,2,11,FALSE,,
dig,335,827943,0.0-105.0-0.0,,,,,,,,,,,"[{""stimulus"":""run_exp/static/images/task_images/dig.jpg"",""time"":0.6699999794363976},{""stimulus"":""run_exp/static/images/task_images/land.jpg"",""time"":950.7599999196827},{""stimulus"":""run_exp/static/images/task_images/dig.jpg"",""time"":1897.8099999949336}]",[],11,,,,,,,,,,,,,
harvest,336,828948,0.0-105.0-1.0,,null,run_exp/static/images/task_images/gems/6.jpg,null,,,,,,5,,,11,,,,,6,0.775900837,0.833333333,,,,,,
decision,337,829395,0.0-105.0-2.0,,444.995,run_exp/static/images/task_images/land.jpg,65,,,,,,5,,,11,,,,,,,,157954,2,12,FALSE,,
dig,338,831957,0.0-106.0-0.0,,,,,,,,,,,"[{""stimulus"":""run_exp/static/images/task_images/dig.jpg"",""time"":0.619999598711729},{""stimulus"":""run_exp/static/images/task_images/land.jpg"",""time"":855.559999588877},{""stimulus"":""run_exp/static/images/task_images/dig.jpg"",""time"":1707.1199999190867}]",[],11,,,,,,,,,,,,,
harvest,339,832959,0.0-106.0-1.0,,null,run_exp/static/images/task_images/gems/5.jpg,null,,,,,,4,,,11,,,,,5,0.865207604,0.8,,,,,,
decision,340,833253,0.0-106.0-2.0,,290.8900003,run_exp/static/images/task_images/land.jpg,65,,,,,,4,,,11,,,,,,,,161812,2,13,FALSE,,
dig,341,835973,0.0-107.0-0.0,,,,,,,,,,,"[{""stimulus"":""run_exp/static/images/task_images/dig.jpg"",""time"":0.800000037997961},{""stimulus"":""run_exp/static/images/task_images/land.jpg"",""time"":906.8849999457598},{""stimulus"":""run_exp/static/images/task_images/dig.jpg"",""time"":1813.9450000599027}]",[],11,,,,,,,,,,,,,
harvest,342,836976,0.0-107.0-1.0,,null,run_exp/static/images/task_images/gems/4.jpg,null,,,,,,3,,,11,,,,,4,0.842184736,0.75,,,,,,
decision,343,839498,0.0-107.0-2.0,,2520.225,run_exp/static/images/task_images/land.jpg,65,,,,,,3,,,11,,,,,,,,168057,2,14,FALSE,,
dig,344,839985,0.0-108.0-0.0,,,,,,,,,,,"[{""stimulus"":""run_exp/static/images/task_images/dig.jpg"",""time"":0.6299996748566628},{""stimulus"":""run_exp/static/images/task_images/land.jpg"",""time"":161.21499985456467},{""stimulus"":""run_exp/static/images/task_images/dig.jpg"",""time"":323.80999997258186}]",[],11,,,,,,,,,,,,,
harvest,345,840992,0.0-108.0-1.0,,null,run_exp/static/images/task_images/gems/3.jpg,null,,,,,,2,,,11,,,,,3,0.733894119,0.666666667,,,,,,
decision,346,841491,0.0-108.0-2.0,,497.0499999,run_exp/static/images/task_images/land.jpg,65,,,,,,2,,,11,,,,,,,,170050,2,15,FALSE,,
dig,347,844002,0.0-109.0-0.0,,,,,,,,,,,"[{""stimulus"":""run_exp/static/images/task_images/dig.jpg"",""time"":0.6349999457597733},{""stimulus"":""run_exp/static/images/task_images/land.jpg"",""time"":836.31999976933},{""stimulus"":""run_exp/static/images/task_images/dig.jpg"",""time"":1670.464999973774}]",[],11,,,,,,,,,,,,,
harvest,348,845007,0.0-109.0-1.0,,null,run_exp/static/images/task_images/gems/2.jpg,null,,,,,,1,,,11,,,,,2,0.740394796,0.5,,,,,,
decision,349,847097,0.0-109.0-2.0,,2088.45,run_exp/static/images/task_images/land.jpg,65,,,,,,1,,,11,,,,,,,,175656,2,16,FALSE,,
dig,350,848015,0.0-110.0-0.0,,,,,,,,,,,"[{""stimulus"":""run_exp/static/images/task_images/dig.jpg"",""time"":0.619999598711729},{""stimulus"":""run_exp/static/images/task_images/land.jpg"",""time"":305.6199997663498},{""stimulus"":""run_exp/static/images/task_images/dig.jpg"",""time"":613.4849996306002}]",[],11,,,,,,,,,,,,,
harvest,351,849018,0.0-110.0-1.0,,null,run_exp/static/images/task_images/gems/1.jpg,null,,,,,,1,,,11,,,,,1,0.839684847,1,,,,,,
decision,352,850309,0.0-110.0-2.0,,1289.28,run_exp/static/images/task_images/land.jpg,76,,,,,,1,,,11,,,,,,,,178868,2,17,TRUE,,
travel,353,859022,0.0-111.0-0.0,,,,,,,,,,,"[{""stimulus"":""run_exp/static/images/task_images/rocket-01.jpg"",""time"":0.14999974519014359},{""stimulus"":""run_exp/static/images/task_images/rocket-02.jpg"",""time"":969.2899999208748},{""stimulus"":""run_exp/static/images/task_images/rocket-03.jpg"",""time"":1935.984999872744},{""stimulus"":""run_exp/static/images/task_images/rocket-04.jpg"",""time"":2902.7499998919666},{""stimulus"":""run_exp/static/images/task_images/rocket-05.jpg"",""time"":3869.504999835044},{""stimulus"":""run_exp/static/images/task_images/rocket-06.jpg"",""time"":4836.124999914318},{""stimulus"":""run_exp/static/images/task_images/rocket-07.jpg"",""time"":5803.115000016987},{""stimulus"":""run_exp/static/images/task_images/rocket-08.jpg"",""time"":6769.865000154823},{""stimulus"":""run_exp/static/images/task_images/rocket-09.jpg"",""time"":7737.100000027567}]",[],11,,,,,,,,,,,,,
alien_welcome,354,864027,0.0-111.0-1.0,,null,run_exp/static/images/task_images/aliens/old_aliens/planet/alien_planet-37.jpg,null,,,,,,,,,,,,37,"40,21,13,63,34,24,64,68,15,53,44,37,18,74,59,62,20,61,23,58,1,9,78,79,22,69,52",,,,,,,,,
land,355,864529,0.0-111.0-2.0,,null,run_exp/static/images/task_images/land.jpg,null,,,,,,101,,,12,,,,,,,,,,,,,
dig,356,866535,0.0-111.0-3.0,,,,,,,,,,,"[{""stimulus"":""run_exp/static/images/task_images/dig.jpg"",""time"":0.8899997919797897},{""stimulus"":""run_exp/static/images/task_images/land.jpg"",""time"":670.6749997101724},{""stimulus"":""run_exp/static/images/task_images/dig.jpg"",""time"":1337.9349997267127}]",[],12,,,,,,,,,,,,,
harvest,357,867539,0.0-111.0-4.0,,null,run_exp/static/images/task_images/gems/101.jpg,null,,,,,,80,,,12,,,,,101,0.787930376,0.792079208,,,,,,
decision,358,868285,0.0-111.0-5.0,,744.93,run_exp/static/images/task_images/land.jpg,65,,,,,,80,,,12,,,,,,,,196844,2,0,FALSE,,
dig,359,870552,0.0-112.0-0.0,,,,,,,,,,,"[{""stimulus"":""run_exp/static/images/task_images/dig.jpg"",""time"":0.7700002752244473},{""stimulus"":""run_exp/static/images/task_images/land.jpg"",""time"":754.590000025928},{""stimulus"":""run_exp/static/images/task_images/dig.jpg"",""time"":1509.5549998804927}]",[],12,,,,,,,,,,,,,
harvest,360,871557,0.0-112.0-1.0,,null,run_exp/static/images/task_images/gems/80.jpg,null,,,,,,66,,,12,,,,,80,0.827557227,0.825,,,,,,
decision,361,871986,0.0-112.0-2.0,,427.47,run_exp/static/images/task_images/land.jpg,65,,,,,,66,,,12,,,,,,,,200545,2,1,FALSE,,
dig,362,874565,0.0-113.0-0.0,,,,,,,,,,,"[{""stimulus"":""run_exp/static/images/task_images/dig.jpg"",""time"":0.6249998696148396},{""stimulus"":""run_exp/static/images/task_images/land.jpg"",""time"":861.2750000320375},{""stimulus"":""run_exp/static/images/task_images/dig.jpg"",""time"":1720.6149999983609}]",[],12,,,,,,,,,,,,,
harvest,363,875569,0.0-113.0-1.0,,null,run_exp/static/images/task_images/gems/66.jpg,null,,,,,,60,,,12,,,,,66,0.906405386,0.909090909,,,,,,
decision,364,875865,0.0-113.0-2.0,,294.4450001,run_exp/static/images/task_images/land.jpg,65,,,,,,60,,,12,,,,,,,,204424,2,2,FALSE,,
dig,365,878578,0.0-114.0-0.0,,,,,,,,,,,"[{""stimulus"":""run_exp/static/images/task_images/dig.jpg"",""time"":0.6249998696148396},{""stimulus"":""run_exp/static/images/task_images/land.jpg"",""time"":907.9149998724461},{""stimulus"":""run_exp/static/images/task_images/dig.jpg"",""time"":1809.505000244826}]",[],12,,,,,,,,,,,,,
harvest,366,879581,0.0-114.0-1.0,,null,run_exp/static/images/task_images/gems/60.jpg,null,,,,,,49,,,12,,,,,60,0.821791768,0.816666667,,,,,,
decision,367,880874,0.0-114.0-2.0,,1291.095,run_exp/static/images/task_images/land.jpg,65,,,,,,49,,,12,,,,,,,,209433,2,3,FALSE,,
dig,368,882595,0.0-115.0-0.0,,,,,,,,,,,"[{""stimulus"":""run_exp/static/images/task_images/dig.jpg"",""time"":0.6249998696148396},{""stimulus"":""run_exp/static/images/task_images/land.jpg"",""time"":571.7349997721612},{""stimulus"":""run_exp/static/images/task_images/dig.jpg"",""time"":1145.6549996510148}]",[],12,,,,,,,,,,,,,
harvest,369,883598,0.0-115.0-1.0,,null,run_exp/static/images/task_images/gems/49.jpg,null,,,,,,41,,,12,,,,,49,0.844905679,0.836734694,,,,,,
decision,370,883873,0.0-115.0-2.0,,272.7400004,run_exp/static/images/task_images/land.jpg,65,,,,,,41,,,12,,,,,,,,212432,2,4,FALSE,,
dig,371,886612,0.0-116.0-0.0,,,,,,,,,,,"[{""stimulus"":""run_exp/static/images/task_images/dig.jpg"",""time"":0.6549996323883533},{""stimulus"":""run_exp/static/images/task_images/land.jpg"",""time"":915.8499999903142},{""stimulus"":""run_exp/static/images/task_images/dig.jpg"",""time"":1825.5149996839464}]",[],12,,,,,,,,,,,,,
harvest,372,887614,0.0-116.0-1.0,,null,run_exp/static/images/task_images/gems/41.jpg,null,,,,,,32,,,12,,,,,41,0.789109293,0.780487805,,,,,,
decision,373,888154,0.0-116.0-2.0,,538.0949997,run_exp/static/images/task_images/land.jpg,65,,,,,,32,,,12,,,,,,,,216713,2,5,FALSE,,
dig,374,890627,0.0-117.0-0.0,,,,,,,,,,,"[{""stimulus"":""run_exp/static/images/task_images/dig.jpg"",""time"":0.6400002166628838},{""stimulus"":""run_exp/static/images/task_images/land.jpg"",""time"":826.9150000996888},{""stimulus"":""run_exp/static/images/task_images/dig.jpg"",""time"":1644.43500014022}]",[],12,,,,,,,,,,,,,
harvest,375,891631,0.0-117.0-1.0,,null,run_exp/static/images/task_images/gems/32.jpg,null,,,,,,25,,,12,,,,,32,0.77687359,0.78125,,,,,,
decision,376,894637,0.0-117.0-2.0,,null,run_exp/static/images/task_images/land.jpg,null,,,,,,25,,,12,,,,,,,,223196,2,6,FALSE,,
time_out,377,896644,0.0-118.0-0.0,,null,run_exp/static/images/task_images/time_out.jpg,null,,,,,,25,,,,,,,,,,,,,,,,
decision,378,897148,0.0-118.0-1.0,,502.1549999,run_exp/static/images/task_images/land.jpg,65,,,,,,25,,,12,,,,,,,,225707,2,6,FALSE,,
dig,379,899654,0.0-119.0-0.0,,,,,,,,,,,"[{""stimulus"":""run_exp/static/images/task_images/dig.jpg"",""time"":0.8600000292062759},{""stimulus"":""run_exp/static/images/task_images/land.jpg"",""time"":834.2749997973442},{""stimulus"":""run_exp/static/images/task_images/dig.jpg"",""time"":1668.5449997894466}]",[],12,,,,,,,,,,,,,
harvest,380,900659,0.0-119.0-1.0,,null,run_exp/static/images/task_images/gems/25.jpg,null,,,,,,20,,,12,,,,,25,0.781769287,0.8,,,,,,
decision,381,901543,0.0-119.0-2.0,,882.6549998,run_exp/static/images/task_images/land.jpg,65,,,,,,20,,,12,,,,,,,,230102,2,7,FALSE,,
dig,382,903667,0.0-120.0-0.0,,,,,,,,,,,"[{""stimulus"":""run_exp/static/images/task_images/dig.jpg"",""time"":0.6349999457597733},{""stimulus"":""run_exp/static/images/task_images/land.jpg"",""time"":710.0749998353422},{""stimulus"":""run_exp/static/images/task_images/dig.jpg"",""time"":1414.71999976784}]",[],12,,,,,,,,,,,,,
harvest,383,904672,0.0-120.0-1.0,,null,run_exp/static/images/task_images/gems/20.jpg,null,,,,,,15,,,12,,,,,20,0.750088926,0.75,,,,,,
decision,384,907675,0.0-120.0-2.0,,null,run_exp/static/images/task_images/land.jpg,null,,,,,,15,,,12,,,,,,,,236234,2,8,FALSE,,
time_out,385,909688,0.0-121.0-0.0,,null,run_exp/static/images/task_images/time_out.jpg,null,,,,,,15,,,,,,,,,,,,,,,,
decision,386,910273,0.0-121.0-1.0,,583.2000002,run_exp/static/images/task_images/land.jpg,65,,,,,,15,,,12,,,,,,,,238832,2,8,FALSE,,
dig,387,912698,0.0-122.0-0.0,,,,,,,,,,,"[{""stimulus"":""run_exp/static/images/task_images/dig.jpg"",""time"":0.645000021904707},{""stimulus"":""run_exp/static/images/task_images/land.jpg"",""time"":809.0599998831749},{""stimulus"":""run_exp/static/images/task_images/dig.jpg"",""time"":1615.6049999408424}]",[],12,,,,,,,,,,,,,
harvest,388,913700,0.0-122.0-1.0,,null,run_exp/static/images/task_images/gems/15.jpg,null,,,,,,11,,,12,,,,,15,0.744368514,0.733333333,,,,,,
decision,389,914099,0.0-122.0-2.0,,397.4349997,run_exp/static/images/task_images/land.jpg,65,,,,,,11,,,12,,,,,,,,242659,2,9,FALSE,,
dig,390,916712,0.0-123.0-0.0,,,,,,,,,,,"[{""stimulus"":""run_exp/static/images/task_images/dig.jpg"",""time"":0.6349999457597733},{""stimulus"":""run_exp/static/images/task_images/land.jpg"",""time"":869.9099998921156},{""stimulus"":""run_exp/static/images/task_images/dig.jpg"",""time"":1739.2700002528727}]",[],12,,,,,,,,,,,,,
harvest,391,917715,0.0-123.0-1.0,,null,run_exp/static/images/task_images/gems/11.jpg,null,,,,,,9,,,12,,,,,11,0.811701737,0.818181818,,,,,,
decision,392,918100,0.0-123.0-2.0,,382.8250002,run_exp/static/images/task_images/land.jpg,65,,,,,,9,,,12,,,,,,,,246659,2,10,FALSE,,
dig,393,920727,0.0-124.0-0.0,,,,,,,,,,,"[{""stimulus"":""run_exp/static/images/task_images/dig.jpg"",""time"":0.6399997510015965},{""stimulus"":""run_exp/static/images/task_images/land.jpg"",""time"":875.6749997846782},{""stimulus"":""run_exp/static/images/task_images/dig.jpg"",""time"":1750.5799997597933}]",[],12,,,,,,,,,,,,,
harvest,394,921729,0.0-124.0-1.0,,null,run_exp/static/images/task_images/gems/9.jpg,null,,,,,,7,,,12,,,,,9,0.821304406,0.777777778,,,,,,
decision,395,922142,0.0-124.0-2.0,,411.1299999,run_exp/static/images/task_images/land.jpg,65,,,,,,7,,,12,,,,,,,,250701,2,11,FALSE,,
dig,396,924737,0.0-125.0-0.0,,,,,,,,,,,"[{""stimulus"":""run_exp/static/images/task_images/dig.jpg"",""time"":0.6249998696148396},{""stimulus"":""run_exp/static/images/task_images/land.jpg"",""time"":865.2299996465445},{""stimulus"":""run_exp/static/images/task_images/dig.jpg"",""time"":1726.674999576062}]",[],12,,,,,,,,,,,,,
harvest,397,925739,0.0-125.0-1.0,,null,run_exp/static/images/task_images/gems/7.jpg,null,,,,,,5,,,12,,,,,7,0.779209092,0.714285714,,,,,,
decision,398,926134,0.0-125.0-2.0,,391.6949998,run_exp/static/images/task_images/land.jpg,65,,,,,,5,,,12,,,,,,,,254693,2,12,FALSE,,
dig,399,928751,0.0-126.0-0.0,,,,,,,,,,,"[{""stimulus"":""run_exp/static/images/task_images/dig.jpg"",""time"":0.800000037997961},{""stimulus"":""run_exp/static/images/task_images/land.jpg"",""time"":873.9750003442168},{""stimulus"":""run_exp/static/images/task_images/dig.jpg"",""time"":1741.7350001633167}]",[],12,,,,,,,,,,,,,
harvest,400,929754,0.0-126.0-1.0,,null,run_exp/static/images/task_images/gems/5.jpg,null,,,,,,4,,,12,,,,,5,0.826694446,0.8,,,,,,
decision,401,930123,0.0-126.0-2.0,,367.755,run_exp/static/images/task_images/land.jpg,65,,,,,,4,,,12,,,,,,,,258682,2,13,FALSE,,
dig,402,932765,0.0-127.0-0.0,,,,,,,,,,,"[{""stimulus"":""run_exp/static/images/task_images/dig.jpg"",""time"":0.6249998696148396},{""stimulus"":""run_exp/static/images/task_images/land.jpg"",""time"":878.8399999029934},{""stimulus"":""run_exp/static/images/task_images/dig.jpg"",""time"":1759.9650002084672}]",[],12,,,,,,,,,,,,,
harvest,403,933767,0.0-127.0-1.0,,null,run_exp/static/images/task_images/gems/4.jpg,null,,,,,,4,,,12,,,,,4,0.894135179,1,,,,,,
decision,404,935378,0.0-127.0-2.0,,1608.115,run_exp/static/images/task_images/land.jpg,65,,,,,,4,,,12,,,,,,,,263937,2,14,FALSE,,
dig,405,936775,0.0-128.0-0.0,,,,,,,,,,,"[{""stimulus"":""run_exp/static/images/task_images/dig.jpg"",""time"":0.6599999032914639},{""stimulus"":""run_exp/static/images/task_images/land.jpg"",""time"":469.93999974802136},{""stimulus"":""run_exp/static/images/task_images/dig.jpg"",""time"":933.6000001057982}]",[],12,,,,,,,,,,,,,
harvest,406,937779,0.0-128.0-1.0,,null,run_exp/static/images/task_images/gems/4.jpg,null,,,,,,3,,,12,,,,,4,0.749285576,0.75,,,,,,
decision,407,937876,0.0-128.0-2.0,,95.02000036,run_exp/static/images/task_images/land.jpg,65,,,,,,3,,,12,,,,,,,,266435,2,15,FALSE,,
dig,408,940788,0.0-129.0-0.0,,,,,,,,,,,"[{""stimulus"":""run_exp/static/images/task_images/dig.jpg"",""time"":0.6200000643730164},{""stimulus"":""run_exp/static/images/task_images/land.jpg"",""time"":970.7499998621643},{""stimulus"":""run_exp/static/images/task_images/dig.jpg"",""time"":1943.9750001765788}]",[],12,,,,,,,,,,,,,
harvest,409,941792,0.0-129.0-1.0,,null,run_exp/static/images/task_images/gems/3.jpg,null,,,,,,2,,,12,,,,,3,0.794247808,0.666666667,,,,,,
decision,410,941958,0.0-129.0-2.0,,163.6649999,run_exp/static/images/task_images/land.jpg,65,,,,,,2,,,12,,,,,,,,270517,2,16,FALSE,,
dig,411,944803,0.0-130.0-0.0,,,,,,,,,,,"[{""stimulus"":""run_exp/static/images/task_images/dig.jpg"",""time"":0.6249998696148396},{""stimulus"":""run_exp/static/images/task_images/land.jpg"",""time"":947.0899999141693},{""stimulus"":""run_exp/static/images/task_images/dig.jpg"",""time"":1896.259999834001}]",[],12,,,,,,,,,,,,,
harvest,412,945805,0.0-130.0-1.0,,null,run_exp/static/images/task_images/gems/2.jpg,null,,,,,,2,,,12,,,,,2,0.812471366,1,,,,,,
decision,413,948507,0.0-130.0-2.0,,2700.465,run_exp/static/images/task_images/land.jpg,76,,,,,,2,,,12,,,,,,,,277066,2,17,TRUE,,
travel,414,955818,0.0-131.0-0.0,,,,,,,,,,,"[{""stimulus"":""run_exp/static/images/task_images/rocket-01.jpg"",""time"":0.1449999399483204},{""stimulus"":""run_exp/static/images/task_images/rocket-02.jpg"",""time"":813.6100000701845},{""stimulus"":""run_exp/static/images/task_images/rocket-03.jpg"",""time"":1627.889999654144},{""stimulus"":""run_exp/static/images/task_images/rocket-04.jpg"",""time"":2438.9450000599027},{""stimulus"":""run_exp/static/images/task_images/rocket-05.jpg"",""time"":3247.105000074953},{""stimulus"":""run_exp/static/images/task_images/rocket-06.jpg"",""time"":4060.9399997629225},{""stimulus"":""run_exp/static/images/task_images/rocket-07.jpg"",""time"":4871.864999644458},{""stimulus"":""run_exp/static/images/task_images/rocket-08.jpg"",""time"":5680.61999976635},{""stimulus"":""run_exp/static/images/task_images/rocket-09.jpg"",""time"":6493.929999880493}]",[],12,,,,,,,,,,,,,
alien_welcome,415,960825,0.0-131.0-1.0,,null,run_exp/static/images/task_images/aliens/old_aliens/planet/alien_planet-18.jpg,null,,,,,,,,,,,,18,"40,21,13,63,34,24,64,68,15,53,44,37,18,74,59,62,20,61,23,58,1,9,78,79,22,69,52",,,,,,,,,
land,416,961327,0.0-131.0-2.0,,null,run_exp/static/images/task_images/land.jpg,null,,,,,,104,,,13,,,,,,,,,,,,,
dig,417,963333,0.0-131.0-3.0,,,,,,,,,,,"[{""stimulus"":""run_exp/static/images/task_images/dig.jpg"",""time"":0.8299998007714748},{""stimulus"":""run_exp/static/images/task_images/land.jpg"",""time"":674.254999961704},{""stimulus"":""run_exp/static/images/task_images/dig.jpg"",""time"":1338.8249999843538}]",[],13,,,,,,,,,,,,,
harvest,418,964339,0.0-131.0-4.0,,null,run_exp/static/images/task_images/gems/104.jpg,null,,,,,,90,,,13,,,,,104,0.862722427,0.865384615,,,,,,
decision,419,965501,0.0-131.0-5.0,,1160.275,run_exp/static/images/task_images/land.jpg,65,,,,,,90,,,13,,,,,,,,294060,2,0,FALSE,,
dig,420,967350,0.0-132.0-0.0,,,,,,,,,,,"[{""stimulus"":""run_exp/static/images/task_images/dig.jpg"",""time"":0.6200000643730164},{""stimulus"":""run_exp/static/images/task_images/land.jpg"",""time"":619.8999998159707},{""stimulus"":""run_exp/static/images/task_images/dig.jpg"",""time"":1233.114999718964}]",[],13,,,,,,,,,,,,,
harvest,421,968357,0.0-132.0-1.0,,null,run_exp/static/images/task_images/gems/90.jpg,null,,,,,,66,,,13,,,,,90,0.729978757,0.733333333,,,,,,
decision,422,968896,0.0-132.0-2.0,,536.7050003,run_exp/static/images/task_images/land.jpg,65,,,,,,66,,,13,,,,,,,,297455,2,1,FALSE,,
dig,423,971367,0.0-133.0-0.0,,,,,,,,,,,"[{""stimulus"":""run_exp/static/images/task_images/dig.jpg"",""time"":0.6250003352761269},{""stimulus"":""run_exp/static/images/task_images/land.jpg"",""time"":826.185000129044},{""stimulus"":""run_exp/static/images/task_images/dig.jpg"",""time"":1644.6150001138449}]",[],13,,,,,,,,,,,,,
harvest,424,972373,0.0-133.0-1.0,,null,run_exp/static/images/task_images/gems/66.jpg,null,,,,,,47,,,13,,,,,66,0.719687865,0.712121212,,,,,,
decision,425,972921,0.0-133.0-2.0,,545.81,run_exp/static/images/task_images/land.jpg,65,,,,,,47,,,13,,,,,,,,301480,2,2,TRUE,,
end_of_block_continue,426,981771,0.0-134.0-0.0,,null,run_exp/static/audio/clip_32_block_end.m4a,,,,,,null,,,,,,,,,,,,,,,,,
alien_welcome,427,986796,0.0-135.0-0.0,,null,run_exp/static/images/task_images/aliens/old_aliens/planet/alien_planet-74.jpg,null,,,,,,,,,,,,74,"40,21,13,63,34,24,64,68,15,53,44,37,18,74,59,62,20,61,23,58,1,9,78,79,22,69,52",,,,,,,,,
land,428,987303,0.0-135.0-1.0,,null,run_exp/static/images/task_images/land.jpg,null,,,,,,97,,,14,,,,,,,,,,,,,
dig,429,989313,0.0-135.0-2.0,,,,,,,,,,,"[{""stimulus"":""run_exp/static/images/task_images/dig.jpg"",""time"":1.2199999764561653},{""stimulus"":""run_exp/static/images/task_images/land.jpg"",""time"":674.9800001271069},{""stimulus"":""run_exp/static/images/task_images/dig.jpg"",""time"":1340.3500001877546}]",[],14,,,,,,,,,,,,,
