trial_type,trial_index,time_elapsed,internal_node_id,interactions,blur_events,focus_events,fullscreenenter_events,fullscreenexit_events,success,rt,stimulus,key_press,prompt,subject_id,participant_id,age,gender,button_pressed,next_reward,animation_sequence,responses,planet,curr_prac_trial,n_prac_rounds,alien,aliens,reward_received,decay_rate_actual,decay_rate_exp,time_in_block,block_num,prt,last_trial_on_planet,button_html,bonus,num_failures
pavlovia,0,2,0.0-0.0,"""event"",""trial"",""time""
""fullscreenenter"",""1"",""2069""
","
","
","""event"",""trial"",""time""
""fullscreenenter"",""1"",""2069""
","
",,,,,,,,,,,,,,,,,,,,,,,,,,,,
fullscreen,1,3063,0.0-1.0,"""event"",""trial"",""time""
""fullscreenenter"",""1"",""2069""
","
","
","""event"",""trial"",""time""
""fullscreenenter"",""1"",""2069""
","
",TRUE,,,,,,,,,,,,,,,,,,,,,,,,,,,
instruc_welcome,2,12802,0.0-2.0,"""event"",""trial"",""time""
""fullscreenenter"",""1"",""2069""
","
","
","""event"",""trial"",""time""
""fullscreenenter"",""1"",""2069""
","
",,null,run_exp/static/audio/clip_1_welcome.m4a,null,"<p>Howdy! In this experiment, you’ll be an explorer traveling through space to collect space treasure.</p><p>Your mission is to collect as much treasure as possible.</p><br><br><p><img src='run_exp/static/images/task_images/opening_img-01.jpg' height='300' width='auto'></p>",9254,3966,20.77,Male,,,,,,,,,,,,,,,,,,,
audio-keyboard-response,3,29567,0.0-3.0,"""event"",""trial"",""time""
""fullscreenenter"",""1"",""2069""
","
","
","""event"",""trial"",""time""
""fullscreenenter"",""1"",""2069""
","
",,null,run_exp/static/audio/clip_2_move.m4a,null,,,,,,,,,,,,,,,,,,,,,,,,
welcome_dec,4,33762,0.0-4.0,"""event"",""trial"",""time""
""fullscreenenter"",""1"",""2069""
","
","
","""event"",""trial"",""time""
""fullscreenenter"",""1"",""2069""
","
",,4191.2,"<p>Howdy! In this experiment, you’ll be an explorer traveling through space to collect space treasure.</p><p>Your mission is to collect as much treasure as possible.</p><br><br><p><img src='run_exp/static/images/task_images/opening_img-01.jpg' height='300' width='auto'></p>",,,,,,,1,,,,,,,,,,,,,,,,,,
html-keyboard-response,5,36642,0.0-5.0,"""event"",""trial"",""time""
""fullscreenenter"",""1"",""2069""
","
","
","""event"",""trial"",""time""
""fullscreenenter"",""1"",""2069""
","
",,2878,"<p>Howdy! In this experiment, you’ll be an explorer traveling through space to collect space treasure.</p><p>Your mission is to collect as much treasure as possible.</p><br><br><p><img src='run_exp/static/images/task_images/opening_img-01.jpg' height='300' width='auto'></p><button class=""jspsych-html-btn-unchosen""><img src=""run_exp/static/images/task_images/planet-01.jpg"" height=""50""></button><button class=""jspsych-html-btn-chosen""><img src=""run_exp/static/images/task_images/planet-02.jpg"" height=""50""></button><p><b>[press the space bar to lock in your answer]<b><br></p>",32,,,,,,,,,,,,,,,,,,,,,,,,
instruc_goal,6,46707,0.0-6.0-0.0,"""event"",""trial"",""time""
""fullscreenenter"",""1"",""2069""
","
","
","""event"",""trial"",""time""
""fullscreenenter"",""1"",""2069""
","
",,null,run_exp/static/audio/clip_3_goal.m4a,null,"<p> As a space explorer, you’ll visit different planets to dig for space treasure, these pink gems.</p> <p> The more treasure you dig up, the more bonus money you’ll win! </p><br><br><p><img src='run_exp/static/images/task_images/pink_gem.jpg' height='300' width='auto'></p>",,,,,,,,,,,,,,,,,,,,,,,
instruc_goal,7,51088,0.0-6.0-1.0,"""event"",""trial"",""time""
""fullscreenenter"",""1"",""2069""
","
","
","""event"",""trial"",""time""
""fullscreenenter"",""1"",""2069""
","
",,4378.3,"<p> As a space explorer, you’ll visit different planets to dig for space treasure, these pink gems.</p> <p> The more treasure you dig up, the more bonus money you’ll win! </p><br><br><p><img src='run_exp/static/images/task_images/pink_gem.jpg' height='300' width='auto'></p>",,,,,,,1,,,,,,,,,,,,,,,,,,
html-keyboard-response,8,51619,0.0-6.0-2.0,"""event"",""trial"",""time""
""fullscreenenter"",""1"",""2069""
","
","
","""event"",""trial"",""time""
""fullscreenenter"",""1"",""2069""
","
",,529.0999999,"<p> As a space explorer, you’ll visit different planets to dig for space treasure, these pink gems.</p> <p> The more treasure you dig up, the more bonus money you’ll win! </p><br><br><p><img src='run_exp/static/images/task_images/pink_gem.jpg' height='300' width='auto'></p><button class=""jspsych-html-btn-unchosen""><img src=""run_exp/static/images/task_images/planet-01.jpg"" height=""50""></button><button class=""jspsych-html-btn-chosen""><img src=""run_exp/static/images/task_images/planet-02.jpg"" height=""50""></button><p><b>[press the space bar to lock in your answer]<b><br></p>",32,,,,,,,,,,,,,,,,,,,,,,,,
instruc_dig,9,67627,0.0-7.0-0.0,"""event"",""trial"",""time""
""fullscreenenter"",""1"",""2069""
","
","
","""event"",""trial"",""time""
""fullscreenenter"",""1"",""2069""
","
",,null,run_exp/static/audio/clip_4_dig.m4a,null,,,,,,,100,,,,,,,,,,,,,,,,,
instruc_dig_try,10,67670,0.0-7.0-1.0,"""event"",""trial"",""time""
""fullscreenenter"",""1"",""2069""
","
","
","""event"",""trial"",""time""
""fullscreenenter"",""1"",""2069""
","
",,41.20000005,"<p> When you’ve arrived at a new planet, you will dig once. </p> <p>Then, you get to decide if you want to stay on the planet and dig again or travel to a new planet and dig there.</p> <p> To stay and dig, press the letter <strong>‘A’</strong> on your keyboard. Try pressing it now! </p><p><img src='run_exp/static/images/task_images/land.jpg'  height='700' width='auto'></p>",65,"<p> When you’ve arrived at a new planet, you will dig once. </p> <p>Then, you get to decide if you want to stay on the planet and dig again or travel to a new planet and dig there.</p> <p> To stay and dig, press the letter <strong>‘A’</strong> on your keyboard. Try pressing it now! </p><p><img src='run_exp/static/images/task_images/land.jpg'  height='700' width='auto'></p>",,,,,,100,,,,,,,,,,,,,,,,,
dig_prac,11,69681,0.0-7.0-2.0,"""event"",""trial"",""time""
""fullscreenenter"",""1"",""2069""
","
","
","""event"",""trial"",""time""
""fullscreenenter"",""1"",""2069""
","
",,,,,,,,,,,,"[{""stimulus"":""run_exp/static/images/task_images/dig.jpg"",""time"":0.40000009536743164},{""stimulus"":""run_exp/static/images/task_images/land.jpg"",""time"":668.9000000953674},{""stimulus"":""run_exp/static/images/task_images/dig.jpg"",""time"":1335.7999999523163}]",[],,,,,,,,,,,,,,,
instruc_travel,12,105928,0.0-7.0-3.0,"""event"",""trial"",""time""
""fullscreenenter"",""1"",""2069""
","
","
","""event"",""trial"",""time""
""fullscreenenter"",""1"",""2069""
","
",,null,run_exp/static/audio/clip_5_travel.m4a,null,"<p>Every time you dig up gems, there are less gems on the planet, so the more you dig on a planet the fewer gems you’ll get with each dig.</p><p>When gems are running low, you may want to travel to a new planet. </p> <p>  Planets are very far apart in this galaxy, so it will take some time to travel between them. </p> <br><p>There are lots and lots of planets for you to visit, so you won’t be able to return to any planets you’ve seen before. </p><br><p>To leave this planet and travel to a new one, press the letter <strong>‘L’</strong> on your keyboard. Try pressing it now! </p><p><img src='run_exp/static/images/task_images/rocket-01.jpg'  height='600' width='auto'></p>",,,,,,,,,,,,,,,,,,,,,,,
instruc_travel_try,13,106187,0.0-7.0-4.0,"""event"",""trial"",""time""
""fullscreenenter"",""1"",""2069""
","
","
","""event"",""trial"",""time""
""fullscreenenter"",""1"",""2069""
","
",,257.5,"<p>Every time you dig up gems, there are less gems on the planet, so the more you dig on a planet the fewer gems you’ll get with each dig.</p><p>When gems are running low, you may want to travel to a new planet. </p> <p>  Planets are very far apart in this galaxy, so it will take some time to travel between them. </p> <br><p>There are lots and lots of planets for you to visit, so you won’t be able to return to any planets you’ve seen before. </p><br><p>To leave this planet and travel to a new one, press the letter <strong>‘L’</strong> on your keyboard. Try pressing it now! </p><p><img src='run_exp/static/images/task_images/rocket-01.jpg'  height='600' width='auto'></p>",76,"<p>Every time you dig up gems, there are less gems on the planet, so the more you dig on a planet the fewer gems you’ll get with each dig.</p><p>When gems are running low, you may want to travel to a new planet. </p> <p>  Planets are very far apart in this galaxy, so it will take some time to travel between them. </p> <br><p>There are lots and lots of planets for you to visit, so you won’t be able to return to any planets you’ve seen before. </p><br><p>To leave this planet and travel to a new one, press the letter <strong>‘L’</strong> on your keyboard. Try pressing it now! </p><p><img src='run_exp/static/images/task_images/rocket-01.jpg'  height='600' width='auto'></p>",,,,,,,,,,,,,,,,,,,,,,,
travel_prac,14,116189,0.0-7.0-5.0,"""event"",""trial"",""time""
""fullscreenenter"",""1"",""2069""
","
","
","""event"",""trial"",""time""
""fullscreenenter"",""1"",""2069""
","
",,,,,,,,,,,,"[{""stimulus"":""run_exp/static/images/task_images/rocket-01.jpg"",""time"":0.39999985694885254},{""stimulus"":""run_exp/static/images/task_images/rocket-02.jpg"",""time"":1113.0999999046326},{""stimulus"":""run_exp/static/images/task_images/rocket-03.jpg"",""time"":2223.5999999046326},{""stimulus"":""run_exp/static/images/task_images/rocket-04.jpg"",""time"":3334.5999999046326},{""stimulus"":""run_exp/static/images/task_images/rocket-05.jpg"",""time"":4446},{""stimulus"":""run_exp/static/images/task_images/rocket-06.jpg"",""time"":5557},{""stimulus"":""run_exp/static/images/task_images/rocket-07.jpg"",""time"":6667.199999809265},{""stimulus"":""run_exp/static/images/task_images/rocket-08.jpg"",""time"":7779.099999904633},{""stimulus"":""run_exp/static/images/task_images/rocket-09.jpg"",""time"":8889.699999809265}]",[],0,,,,,,,,,,,,,,
instruc_alien_greet,15,143368,0.0-7.0-6.0,"""event"",""trial"",""time""
""fullscreenenter"",""1"",""2069""
","
","
","""event"",""trial"",""time""
""fullscreenenter"",""1"",""2069""
","
",,null,run_exp/static/audio/clip_6_alien.m4a,null,"<p>When you arrive at a new planet, the alien who owns the treasure mine on that planet will greet you!</p><p>The better an alien takes care of their mine the easier it is to dig for gems. Some aliens take better care of their mine than others. So, you won’t get exactly the same amount of gems on each planet.</p><p>What the alien looks like does not tell you anything about how many gems there are on the planet.</p><br><p><img src=""run_exp/static/images/task_images/aliens/instructions_aliens/planet/alien_planet-1.jpg""  height=""600"" width=""auto""></p>",,,,,,,,,,,,,,,,,,,,,,,
instruc_alien_greet,16,148170,0.0-7.0-7.0,"""event"",""trial"",""time""
""fullscreenenter"",""1"",""2069""
","
","
","""event"",""trial"",""time""
""fullscreenenter"",""1"",""2069""
","
",,4799.8,"<p>When you arrive at a new planet, the alien who owns the treasure mine on that planet will greet you!</p><p>The better an alien takes care of their mine the easier it is to dig for gems. Some aliens take better care of their mine than others. So, you won’t get exactly the same amount of gems on each planet.</p><p>What the alien looks like does not tell you anything about how many gems there are on the planet.</p><br><p><img src=""run_exp/static/images/task_images/aliens/instructions_aliens/planet/alien_planet-1.jpg""  height=""600"" width=""auto""></p>",,,,,,,1,,,,,,,,,,,,,,,,,,
html-keyboard-response,17,148590,0.0-7.0-8.0,"""event"",""trial"",""time""
""fullscreenenter"",""1"",""2069""
","
","
","""event"",""trial"",""time""
""fullscreenenter"",""1"",""2069""
","
",,419.4000001,"<p>When you arrive at a new planet, the alien who owns the treasure mine on that planet will greet you!</p><p>The better an alien takes care of their mine the easier it is to dig for gems. Some aliens take better care of their mine than others. So, you won’t get exactly the same amount of gems on each planet.</p><p>What the alien looks like does not tell you anything about how many gems there are on the planet.</p><br><p><img src=""run_exp/static/images/task_images/aliens/instructions_aliens/planet/alien_planet-1.jpg""  height=""600"" width=""auto""></p><button class=""jspsych-html-btn-unchosen""><img src=""run_exp/static/images/task_images/planet-01.jpg"" height=""50""></button><button class=""jspsych-html-btn-chosen""><img src=""run_exp/static/images/task_images/planet-02.jpg"" height=""50""></button><p><b>[press the space bar to lock in your answer]<b><br></p>",32,,,,,,,,,,,,,,,,,,,,,,,,
time_out,18,159667,0.0-8.0-0.0,"""event"",""trial"",""time""
""fullscreenenter"",""1"",""2069""
","
","
","""event"",""trial"",""time""
""fullscreenenter"",""1"",""2069""
","
",,null,run_exp/static/audio/clip_7_timeout.m4a,null,"<p>If you don't make your choice fast enough, you’ll have to wait a few seconds before you can make another one.</p><p>You can’t dig for more gems or travel to new planets. You just have to sit and wait.</p><br><p><img src='run_exp/static/images/task_images/time_out.jpg'  height='600' width='auto'></p>",,,,,,,,,,,,,,,,,,,,,,,
time_out,19,161039,0.0-8.0-1.0,"""event"",""trial"",""time""
""fullscreenenter"",""1"",""2069""
","
","
","""event"",""trial"",""time""
""fullscreenenter"",""1"",""2069""
","
",,1369.7,"<p>If you don't make your choice fast enough, you’ll have to wait a few seconds before you can make another one.</p><p>You can’t dig for more gems or travel to new planets. You just have to sit and wait.</p><br><p><img src='run_exp/static/images/task_images/time_out.jpg'  height='600' width='auto'></p>",,,,,,,1,,,,,,,,,,,,,,,,,,
html-keyboard-response,20,162211,0.0-8.0-2.0,"""event"",""trial"",""time""
""fullscreenenter"",""1"",""2069""
","
","
","""event"",""trial"",""time""
""fullscreenenter"",""1"",""2069""
","
",,1171.1,"<p>If you don't make your choice fast enough, you’ll have to wait a few seconds before you can make another one.</p><p>You can’t dig for more gems or travel to new planets. You just have to sit and wait.</p><br><p><img src='run_exp/static/images/task_images/time_out.jpg'  height='600' width='auto'></p><button class=""jspsych-html-btn-unchosen""><img src=""run_exp/static/images/task_images/planet-01.jpg"" height=""50""></button><button class=""jspsych-html-btn-chosen""><img src=""run_exp/static/images/task_images/planet-02.jpg"" height=""50""></button><p><b>[press the space bar to lock in your answer]<b><br></p>",32,,,,,,,,,,,,,,,,,,,,,,,,
instruc_break,21,177888,0.0-9.0-0.0,"""event"",""trial"",""time""
""fullscreenenter"",""1"",""2069""
","
","
","""event"",""trial"",""time""
""fullscreenenter"",""1"",""2069""
","
",,null,run_exp/static/audio/clip_8_break.m4a,null,"<p> After digging and traveling for a while, you’ll be able to take a break at home base. </p><p>The game will last 20 minutes no matter what.</p><p>You will visit home base every 5 minutes, so, you will visit home base three times during the game.</p><br><p><img src='run_exp/static/images/task_images/home_base.jpg' height='600' width='auto'></p>",,,,,,,,,,,,,,,,,,,,,,,
instruc_break,22,179760,0.0-9.0-1.0,"""event"",""trial"",""time""
""fullscreenenter"",""1"",""2069""
","
","
","""event"",""trial"",""time""
""fullscreenenter"",""1"",""2069""
","
",,1870.8,"<p> After digging and traveling for a while, you’ll be able to take a break at home base. </p><p>The game will last 20 minutes no matter what.</p><p>You will visit home base every 5 minutes, so, you will visit home base three times during the game.</p><br><p><img src='run_exp/static/images/task_images/home_base.jpg' height='600' width='auto'></p>",,,,,,,1,,,,,,,,,,,,,,,,,,
html-keyboard-response,23,180857,0.0-9.0-2.0,"""event"",""trial"",""time""
""fullscreenenter"",""1"",""2069""
","
","
","""event"",""trial"",""time""
""fullscreenenter"",""1"",""2069""
","
",,1095.4,"<p> After digging and traveling for a while, you’ll be able to take a break at home base. </p><p>The game will last 20 minutes no matter what.</p><p>You will visit home base every 5 minutes, so, you will visit home base three times during the game.</p><br><p><img src='run_exp/static/images/task_images/home_base.jpg' height='600' width='auto'></p><button class=""jspsych-html-btn-unchosen""><img src=""run_exp/static/images/task_images/planet-01.jpg"" height=""50""></button><button class=""jspsych-html-btn-chosen""><img src=""run_exp/static/images/task_images/planet-02.jpg"" height=""50""></button><p><b>[press the space bar to lock in your answer]<b><br></p>",32,,,,,,,,,,,,,,,,,,,,,,,,
instruc_prac_game,24,190988,0.0-10.0-0.0,"""event"",""trial"",""time""
""fullscreenenter"",""1"",""2069""
","
","
","""event"",""trial"",""time""
""fullscreenenter"",""1"",""2069""
","
",,null,run_exp/static/audio/clip_9_practice.m4a,null,"<p> Are you ready to play a practice game? </p> <p>In this practice game, you'll be digging up barrels of gems. But, in the real game, you'll be digging up the gems themselves. </p>",,,,,,,,,,,,,,,,,,,,,,,
html-button-response,25,192227,0.0-10.0-1.0,"""event"",""trial"",""time""
""fullscreenenter"",""1"",""2069""
","
","
","""event"",""trial"",""time""
""fullscreenenter"",""1"",""2069""
","
",,1237.7,"<p> Are you ready to play a practice game? </p> <p>In this practice game, you'll be digging up barrels of gems. But, in the real game, you'll be digging up the gems themselves. </p>",,,,,,,0,,,,,,,,,,,,,,,,,,
alien_welcome_prac,26,197230,0.0-11.0-0.0,"""event"",""trial"",""time""
""fullscreenenter"",""1"",""2069""
","
","
","""event"",""trial"",""time""
""fullscreenenter"",""1"",""2069""
","
",,null,run_exp/static/images/task_images/aliens/practice_aliens/planet/alien_planet-5.jpg,null,,,,,,,,,,,,,,,,,,,,,,,,
land_prac,27,197736,0.0-11.0-1.0,"""event"",""trial"",""time""
""fullscreenenter"",""1"",""2069""
","
","
","""event"",""trial"",""time""
""fullscreenenter"",""1"",""2069""
","
",,null,run_exp/static/images/task_images/land.jpg,null,,,,,,,100,,,0,,,,,,,,,,,,,,
dig_prac,28,199742,0.0-11.0-2.0,"""event"",""trial"",""time""
""fullscreenenter"",""1"",""2069""
","
","
","""event"",""trial"",""time""
""fullscreenenter"",""1"",""2069""
","
",,,,,,,,,,,,"[{""stimulus"":""run_exp/static/images/task_images/dig.jpg"",""time"":0.2999999523162842},{""stimulus"":""run_exp/static/images/task_images/land.jpg"",""time"":668.5999999046326},{""stimulus"":""run_exp/static/images/task_images/dig.jpg"",""time"":1335.6999998092651}]",[],,,,,,,,,,,,,,,
harvest_prac,29,200744,0.0-11.0-3.0,"""event"",""trial"",""time""
""fullscreenenter"",""1"",""2069""
","
","
","""event"",""trial"",""time""
""fullscreenenter"",""1"",""2069""
","
",,null,run_exp/static/images/task_images/barrel_text.jpg,null,,,,,,,,,,,,,,,,,,,,,,,,
decision_prac,30,203746,0.0-11.0-4.0,"""event"",""trial"",""time""
""fullscreenenter"",""1"",""2069""
","
","
","""event"",""trial"",""time""
""fullscreenenter"",""1"",""2069""
","
",,null,run_exp/static/images/task_images/land.jpg,null,,,,,,,,,,,1,,,,,,,,,,,,,
time_out,31,205750,0.0-12.0-0.0,"""event"",""trial"",""time""
""fullscreenenter"",""1"",""2069""
","
","
","""event"",""trial"",""time""
""fullscreenenter"",""1"",""2069""
","
",,null,run_exp/static/images/task_images/time_out.jpg,null,,,,,,,,,,,,,,,,,,,,,,,,
decision_prac,32,206473,0.0-12.0-1.0,"""event"",""trial"",""time""
""fullscreenenter"",""1"",""2069""
","
","
","""event"",""trial"",""time""
""fullscreenenter"",""1"",""2069""
","
",,722.1999998,run_exp/static/images/task_images/land.jpg,65,,,,,,,,,,,2,,,,,,,,,,,,,
dig_prac,33,208491,0.0-13.0-0.0,"""event"",""trial"",""time""
""fullscreenenter"",""1"",""2069""
","
","
","""event"",""trial"",""time""
""fullscreenenter"",""1"",""2069""
","
",,,,,,,,,,,,"[{""stimulus"":""run_exp/static/images/task_images/dig.jpg"",""time"":0.09999990463256836},{""stimulus"":""run_exp/static/images/task_images/land.jpg"",""time"":668.3999998569489},{""stimulus"":""run_exp/static/images/task_images/dig.jpg"",""time"":1335.1999998092651}]",[],,,,,,,,,,,,,,,
harvest_prac,34,209493,0.0-13.0-1.0,"""event"",""trial"",""time""
""fullscreenenter"",""1"",""2069""
","
","
","""event"",""trial"",""time""
""fullscreenenter"",""1"",""2069""
","
",,null,run_exp/static/images/task_images/barrel_text.jpg,null,,,,,,,,,,,,,,,,,,,,,,,,
decision_prac,35,210228,0.0-13.0-2.0,"""event"",""trial"",""time""
""fullscreenenter"",""1"",""2069""
","
","
","""event"",""trial"",""time""
""fullscreenenter"",""1"",""2069""
","
",,733.8,run_exp/static/images/task_images/land.jpg,65,,,,,,,,,,,3,,,,,,,,,,,,,
dig_prac,36,212234,0.0-14.0-0.0,"""event"",""trial"",""time""
""fullscreenenter"",""1"",""2069""
","
","
","""event"",""trial"",""time""
""fullscreenenter"",""1"",""2069""
","
",,,,,,,,,,,,"[{""stimulus"":""run_exp/static/images/task_images/dig.jpg"",""time"":0.10000014305114746},{""stimulus"":""run_exp/static/images/task_images/land.jpg"",""time"":669.3000001907349},{""stimulus"":""run_exp/static/images/task_images/dig.jpg"",""time"":1336.6000001430511}]",[],,,,,,,,,,,,,,,
harvest_prac,37,213249,0.0-14.0-1.0,"""event"",""trial"",""time""
""fullscreenenter"",""1"",""2069""
","
","
","""event"",""trial"",""time""
""fullscreenenter"",""1"",""2069""
","
",,null,run_exp/static/images/task_images/barrel_text.jpg,null,,,,,,,,,,,,,,,,,,,,,,,,
decision_prac,38,213589,0.0-14.0-2.0,"""event"",""trial"",""time""
""fullscreenenter"",""1"",""2069""
","
","
","""event"",""trial"",""time""
""fullscreenenter"",""1"",""2069""
","
",,339.3,run_exp/static/images/task_images/land.jpg,65,,,,,,,,,,,4,,,,,,,,,,,,,
dig_prac,39,215595,0.0-15.0-0.0,"""event"",""trial"",""time""
""fullscreenenter"",""1"",""2069""
","
","
","""event"",""trial"",""time""
""fullscreenenter"",""1"",""2069""
","
",,,,,,,,,,,,"[{""stimulus"":""run_exp/static/images/task_images/dig.jpg"",""time"":0.3000001907348633},{""stimulus"":""run_exp/static/images/task_images/land.jpg"",""time"":668.5},{""stimulus"":""run_exp/static/images/task_images/dig.jpg"",""time"":1336.3000001907349}]",[],,,,,,,,,,,,,,,
harvest_prac,40,216597,0.0-15.0-1.0,"""event"",""trial"",""time""
""fullscreenenter"",""1"",""2069""
","
","
","""event"",""trial"",""time""
""fullscreenenter"",""1"",""2069""
","
",,null,run_exp/static/images/task_images/barrel_text.jpg,null,,,,,,,,,,,,,,,,,,,,,,,,
decision_prac,41,216937,0.0-15.0-2.0,"""event"",""trial"",""time""
""fullscreenenter"",""1"",""2069""
","
","
","""event"",""trial"",""time""
""fullscreenenter"",""1"",""2069""
","
",,338.3999999,run_exp/static/images/task_images/land.jpg,65,,,,,,,,,,,,1,,,,,,,,,,,,
quiz_instruc,42,220093,0.0-16.0-0.0,"""event"",""trial"",""time""
""fullscreenenter"",""1"",""2069""
","
","
","""event"",""trial"",""time""
""fullscreenenter"",""1"",""2069""
","
",,3153.1,run_exp/static/audio/clip_10_quiz.m4a,,,,,,,0,,,,,,,,,,,,,,,,,,
instruc_repeat,43,262857,0.0-16.0-1.0,"""event"",""trial"",""time""
""fullscreenenter"",""1"",""2069""
","
","
","""event"",""trial"",""time""
""fullscreenenter"",""1"",""2069""
","
",,null,"<p> Are you ready to play a practice game? </p> <p>In this practice game, you'll be digging up barrels of gems. But, in the real game, you'll be digging up the gems themselves. </p>",null,"<p>In this game, your goal is to collect as many gems as you can. That’s how you will win bonus money. </p> <p>The entire game will last 20 minutes no matter how many gems you collect or how many planets you visit. </p><p>To stay on a planet and dig again, press the letter A on your keyboard. To leave for a new planet, press the letter L.</p><p>The more you dig on a planet, the fewer gems you’ll get with each dig which is why you might consider leaving for a new planet. </p><p>When you arrive at a new planet, you’ll be greeted by an alien. What the alien looks like does not tell you anything about how much treasure is on the planet. </p>",,,,,,,,,,,,,,,,,,,,,,,
instruc_repeat_continue,44,267502,0.0-16.0-2.0,"""event"",""trial"",""time""
""fullscreenenter"",""1"",""2069""
","
","
","""event"",""trial"",""time""
""fullscreenenter"",""1"",""2069""
","
",,4643.8,"<p> Are you ready to play a practice game? </p> <p>In this practice game, you'll be digging up barrels of gems. But, in the real game, you'll be digging up the gems themselves. </p>",,,,,,,0,,,,,,,,,,,,,,,,,,
quiz_q_1_ask,45,271610,0.0-16.0-3.0,"""event"",""trial"",""time""
""fullscreenenter"",""1"",""2069""
","
","
","""event"",""trial"",""time""
""fullscreenenter"",""1"",""2069""
","
",,4106.9,run_exp/static/audio/clip_11_q1_ask.m4a,,,,,,,2,,,,,,,,,,,,,,,,,,
quiz_q_1_fb_correct,46,275457,0.0-17.0-0.0,"""event"",""trial"",""time""
""fullscreenenter"",""1"",""2069""
","
","
","""event"",""trial"",""time""
""fullscreenenter"",""1"",""2069""
","
",,null,run_exp/static/audio/clip_12_q1_correct.m4a,null,<p>That’s correct. You win extra money by collecting more gems.</p>,,,,,,,,,,,,,,,,,,,,,,,
quiz_q_2_ask,47,278516,0.0-17.0-1.0,"""event"",""trial"",""time""
""fullscreenenter"",""1"",""2069""
","
","
","""event"",""trial"",""time""
""fullscreenenter"",""1"",""2069""
","
",,3057.5,run_exp/static/audio/clip_14_q2_ask.m4a,,,,,,,1,,,,,,,,,,,,,,,,,,
quiz_q_2_fb_correct,48,282518,0.0-18.0-0.0,"""event"",""trial"",""time""
""fullscreenenter"",""1"",""2069""
","
","
","""event"",""trial"",""time""
""fullscreenenter"",""1"",""2069""
","
",,null,run_exp/static/audio/clip_15_q2_correct.m4a,null,<p>That’s correct. The experiment is 20 minutes no matter what.</p>,,,,,,,,,,,,,,,,,,,,,,,
quiz_q_3_ask,49,286100,0.0-18.0-1.0,"""event"",""trial"",""time""
""fullscreenenter"",""1"",""2069""
","
","
","""event"",""trial"",""time""
""fullscreenenter"",""1"",""2069""
","
",,3580.3,run_exp/static/audio/clip_17_q3_ask.m4a,,,,,,,1,,,,,,,,,,,,,,,,,,
quiz_q_3_fb_correct,50,290078,0.0-19.0-0.0,"""event"",""trial"",""time""
""fullscreenenter"",""1"",""2069""
","
","
","""event"",""trial"",""time""
""fullscreenenter"",""1"",""2069""
","
",,null,run_exp/static/audio/clip_18_q3_correct.m4a,null,<p> That’s correct. You press the letter L to travel to a new planet.</p>,,,,,,,,,,,,,,,,,,,,,,,
quiz_q_4_ask,51,295898,0.0-19.0-1.0,"""event"",""trial"",""time""
""fullscreenenter"",""1"",""2069""
","
","
","""event"",""trial"",""time""
""fullscreenenter"",""1"",""2069""
","
",,5818.3,run_exp/static/audio/clip_20_q4_ask.m4a,,,,,,,1,,,,,,,,,,,,,,,,,,
quiz_q_4_fb_incorrect,52,301698,0.0-20.0-0.0,"""event"",""trial"",""time""
""fullscreenenter"",""1"",""2069""
","
","
","""event"",""trial"",""time""
""fullscreenenter"",""1"",""2069""
","
",,null,run_exp/static/audio/clip_22_q4_incorrect.m4a,null,<p>That’s incorrect.  The more you dig on a planet the fewer gems you’ll get with each dig.</p>,,,,,,,,,,,,,,,,,,,,,,,
quiz_q_5_ask,53,304358,0.0-20.0-1.0,"""event"",""trial"",""time""
""fullscreenenter"",""1"",""2069""
","
","
","""event"",""trial"",""time""
""fullscreenenter"",""1"",""2069""
","
",,2658.3,run_exp/static/audio/clip_23_q5_ask.m4a,,,,,,,1,,,,,,,,,,,,,,,,,,
quiz_q_5_fb_correct,54,309357,0.0-21.0-0.0,"""event"",""trial"",""time""
""fullscreenenter"",""1"",""2069""
","
","
","""event"",""trial"",""time""
""fullscreenenter"",""1"",""2069""
","
",,null,run_exp/static/audio/clip_24_q5_correct.m4a,null,<p> That’s correct. The alien tells you nothing about how much treasure is on the planet.</p>,,,,,,,,,,,,,,,,,,,,,,,
quiz_incorrect,55,314897,0.0-22.0-0.0,"""event"",""trial"",""time""
""fullscreenenter"",""1"",""2069""
","
","
","""event"",""trial"",""time""
""fullscreenenter"",""1"",""2069""
","
",,null,run_exp/static/audio/clip_27_incorrect_quiz.m4a,null,,,,,,,,,,,,,,,,,,,,,,,,
quiz_incorrect_continue,56,316249,0.0-22.0-1.0,"""event"",""trial"",""time""
""fullscreenenter"",""1"",""2069""
","
","
","""event"",""trial"",""time""
""fullscreenenter"",""1"",""2069""
","
",,1350.4,"<p>Oops, you missed some questions.</p><p>Now that you’ve heard the correct answers. Try the quiz again!</p>",,,,,,,0,,,,,,,,,,,,,,,,,,
quiz_q_1_ask,57,318082,0.0-22.0-2.0,"""event"",""trial"",""time""
""fullscreenenter"",""1"",""2069""
","
","
","""event"",""trial"",""time""
""fullscreenenter"",""1"",""2069""
","
",,1832.5,run_exp/static/audio/clip_11_q1_ask.m4a,,,,,,,2,,,,,,,,,,,,,,,,,,
quiz_q_1_fb_correct,58,321937,0.0-23.0-0.0,"""event"",""trial"",""time""
""fullscreenenter"",""1"",""2069""
","
","
","""event"",""trial"",""time""
""fullscreenenter"",""1"",""2069""
","
",,null,run_exp/static/audio/clip_12_q1_correct.m4a,null,<p>That’s correct. You win extra money by collecting more gems.</p>,,,,,,,,,,,,,,,,,,,,,,,
quiz_q_2_ask,59,323258,0.0-23.0-1.0,"""event"",""trial"",""time""
""fullscreenenter"",""1"",""2069""
","
","
","""event"",""trial"",""time""
""fullscreenenter"",""1"",""2069""
","
",,1317.9,run_exp/static/audio/clip_14_q2_ask.m4a,,,,,,,1,,,,,,,,,,,,,,,,,,
quiz_q_2_fb_correct,60,327257,0.0-24.0-0.0,"""event"",""trial"",""time""
""fullscreenenter"",""1"",""2069""
","
","
","""event"",""trial"",""time""
""fullscreenenter"",""1"",""2069""
","
",,null,run_exp/static/audio/clip_15_q2_correct.m4a,null,<p>That’s correct. The experiment is 20 minutes no matter what.</p>,,,,,,,,,,,,,,,,,,,,,,,
quiz_q_3_ask,61,328939,0.0-24.0-1.0,"""event"",""trial"",""time""
""fullscreenenter"",""1"",""2069""
","
","
","""event"",""trial"",""time""
""fullscreenenter"",""1"",""2069""
","
",,1680.4,run_exp/static/audio/clip_17_q3_ask.m4a,,,,,,,1,,,,,,,,,,,,,,,,,,
quiz_q_3_fb_correct,62,332917,0.0-25.0-0.0,"""event"",""trial"",""time""
""fullscreenenter"",""1"",""2069""
","
","
","""event"",""trial"",""time""
""fullscreenenter"",""1"",""2069""
","
",,null,run_exp/static/audio/clip_18_q3_correct.m4a,null,<p> That’s correct. You press the letter L to travel to a new planet.</p>,,,,,,,,,,,,,,,,,,,,,,,
quiz_q_4_ask,63,334666,0.0-25.0-1.0,"""event"",""trial"",""time""
""fullscreenenter"",""1"",""2069""
","
","
","""event"",""trial"",""time""
""fullscreenenter"",""1"",""2069""
","
",,1746.6,run_exp/static/audio/clip_20_q4_ask.m4a,,,,,,,0,,,,,,,,,,,,,,,,,,
quiz_q_4_fb_correct,64,339997,0.0-26.0-0.0,"""event"",""trial"",""time""
""fullscreenenter"",""1"",""2069""
","
","
","""event"",""trial"",""time""
""fullscreenenter"",""1"",""2069""
","
",,null,run_exp/static/audio/clip_21_q4_correct.m4a,null,<p> That’s correct. The more you dig on a planet the fewer gems you’ll get with each dig. </p>,,,,,,,,,,,,,,,,,,,,,,,
quiz_q_5_ask,65,342124,0.0-26.0-1.0,"""event"",""trial"",""time""
""fullscreenenter"",""1"",""2069""
","
","
","""event"",""trial"",""time""
""fullscreenenter"",""1"",""2069""
","
",,2125.4,run_exp/static/audio/clip_23_q5_ask.m4a,,,,,,,1,,,,,,,,,,,,,,,,,,
quiz_q_5_fb_correct,66,347137,0.0-27.0-0.0,"""event"",""trial"",""time""
""fullscreenenter"",""1"",""2069""
","
","
","""event"",""trial"",""time""
""fullscreenenter"",""1"",""2069""
","
",,null,run_exp/static/audio/clip_24_q5_correct.m4a,null,<p> That’s correct. The alien tells you nothing about how much treasure is on the planet.</p>,,,,,,,,,,,,,,,,,,,,,,,
quiz_correct,67,350597,0.0-28.0-0.0,"""event"",""trial"",""time""
""fullscreenenter"",""1"",""2069""
","
","
","""event"",""trial"",""time""
""fullscreenenter"",""1"",""2069""
","
",,null,run_exp/static/audio/clip_26_correct_quiz.m4a,null,,,,,,,,,,,,,,,,,,,,,,,,
quiz_correct_continue,68,351889,0.0-28.0-1.0,"""event"",""trial"",""time""
""fullscreenenter"",""1"",""2069""
","
","
","""event"",""trial"",""time""
""fullscreenenter"",""1"",""2069""
","
",,1291.2,<p>Good job! You're now ready to move on to the real game!</p>,,,,,,,0,,,,,,,,,,,,,,,,,,
audio-keyboard-response,69,362017,0.0-28.0-2.0,"""event"",""trial"",""time""
""fullscreenenter"",""1"",""2069""
","
","
","""event"",""trial"",""time""
""fullscreenenter"",""1"",""2069""
","
",,null,run_exp/static/audio/clip_28_real_game.m4a,null,,,,,,,,,,,,,,,,,,,,,,,,
instruc_begin_exp_contine,70,363218,0.0-28.0-3.0,"""event"",""trial"",""time""
""fullscreenenter"",""1"",""2069""
","
","
","""event"",""trial"",""time""
""fullscreenenter"",""1"",""2069""
","
",,1199.3,"<p>Now that you know how  to dig for space treasure and travel to new planets,you can start exploring! </p><p>Do you want to go over the instructions again or get started with the real game?</p>",,,,,,,1,,,,,,1,,,,,,,,,,,,
alien_welcome,71,368220,0.0-29.0-0.0,"""event"",""trial"",""time""
""fullscreenenter"",""1"",""2069""
","
","
","""event"",""trial"",""time""
""fullscreenenter"",""1"",""2069""
","
",,null,run_exp/static/images/task_images/aliens/old_aliens/planet/alien_planet-40.jpg,null,,,,,,,,,,,,,40,"40,65,75,56,62,42,48,77,34,54,38,37,49,18,24,35,12,17,41,66,16,26,15,47,63,45,29,27,11,69,58,39,4,72,22,20,25,23",,,,,,,,,,
land,72,368722,0.0-29.0-1.0,"""event"",""trial"",""time""
""fullscreenenter"",""1"",""2069""
","
","
","""event"",""trial"",""time""
""fullscreenenter"",""1"",""2069""
","
",,null,run_exp/static/images/task_images/land.jpg,null,,,,,,,96,,,1,,,,,,,,,,,,,,
dig,73,370726,0.0-29.0-2.0,"""event"",""trial"",""time""
""fullscreenenter"",""1"",""2069""
","
","
","""event"",""trial"",""time""
""fullscreenenter"",""1"",""2069""
","
",,,,,,,,,,,,"[{""stimulus"":""run_exp/static/images/task_images/dig.jpg"",""time"":0.10000014305114746},{""stimulus"":""run_exp/static/images/task_images/land.jpg"",""time"":668.7000000476837},{""stimulus"":""run_exp/static/images/task_images/dig.jpg"",""time"":1335.7000000476837}]",[],1,,,,,,,,,,,,,,
harvest,74,371730,0.0-29.0-3.0,"""event"",""trial"",""time""
""fullscreenenter"",""1"",""2069""
","
","
","""event"",""trial"",""time""
""fullscreenenter"",""1"",""2069""
","
",,null,run_exp/static/images/task_images/gems/96.jpg,null,,,,,,,26,,,1,,,,,96,0.270232763,0.270833333,,,,,,,
decision,75,372390,0.0-29.0-4.0,"""event"",""trial"",""time""
""fullscreenenter"",""1"",""2069""
","
","
","""event"",""trial"",""time""
""fullscreenenter"",""1"",""2069""
","
",,658.5,run_exp/static/images/task_images/land.jpg,65,,,,,,,26,,,1,,,,,,,,9172,1,0,FALSE,,,
dig,76,374735,0.0-30.0-0.0,"""event"",""trial"",""time""
""fullscreenenter"",""1"",""2069""
","
","
","""event"",""trial"",""time""
""fullscreenenter"",""1"",""2069""
","
",,,,,,,,,,,,"[{""stimulus"":""run_exp/static/images/task_images/dig.jpg"",""time"":0},{""stimulus"":""run_exp/static/images/task_images/land.jpg"",""time"":781.6999998092651},{""stimulus"":""run_exp/static/images/task_images/dig.jpg"",""time"":1560.8999998569489}]",[],1,,,,,,,,,,,,,,
harvest,77,375737,0.0-30.0-1.0,"""event"",""trial"",""time""
""fullscreenenter"",""1"",""2069""
","
","
","""event"",""trial"",""time""
""fullscreenenter"",""1"",""2069""
","
",,null,run_exp/static/images/task_images/gems/26.jpg,null,,,,,,,4,,,1,,,,,26,0.146514381,0.153846154,,,,,,,
decision,78,376108,0.0-30.0-2.0,"""event"",""trial"",""time""
""fullscreenenter"",""1"",""2069""
","
","
","""event"",""trial"",""time""
""fullscreenenter"",""1"",""2069""
","
",,369.0999999,run_exp/static/images/task_images/land.jpg,65,,,,,,,4,,,1,,,,,,,,12889,1,1,FALSE,,,
dig,79,378740,0.0-31.0-0.0,"""event"",""trial"",""time""
""fullscreenenter"",""1"",""2069""
","
","
","""event"",""trial"",""time""
""fullscreenenter"",""1"",""2069""
","
",,,,,,,,,,,,"[{""stimulus"":""run_exp/static/images/task_images/dig.jpg"",""time"":0.20000004768371582},{""stimulus"":""run_exp/static/images/task_images/land.jpg"",""time"":877.7000000476837},{""stimulus"":""run_exp/static/images/task_images/dig.jpg"",""time"":1753.2000000476837}]",[],1,,,,,,,,,,,,,,
harvest,80,379741,0.0-31.0-1.0,"""event"",""trial"",""time""
""fullscreenenter"",""1"",""2069""
","
","
","""event"",""trial"",""time""
""fullscreenenter"",""1"",""2069""
","
",,null,run_exp/static/images/task_images/gems/4.jpg,null,,,,,,,1,,,1,,,,,4,0.147570545,0.25,,,,,,,
decision,81,380038,0.0-31.0-2.0,"""event"",""trial"",""time""
""fullscreenenter"",""1"",""2069""
","
","
","""event"",""trial"",""time""
""fullscreenenter"",""1"",""2069""
","
",,294.9000001,run_exp/static/images/task_images/land.jpg,76,,,,,,,1,,,1,,,,,,,,16819,1,2,TRUE,,,
travel,82,389742,0.0-32.0-0.0,"""event"",""trial"",""time""
""fullscreenenter"",""1"",""2069""
","
","
","""event"",""trial"",""time""
""fullscreenenter"",""1"",""2069""
","
",,,,,,,,,,,,"[{""stimulus"":""run_exp/static/images/task_images/rocket-01.jpg"",""time"":0},{""stimulus"":""run_exp/static/images/task_images/rocket-02.jpg"",""time"":1079},{""stimulus"":""run_exp/static/images/task_images/rocket-03.jpg"",""time"":2158.4000000953674},{""stimulus"":""run_exp/static/images/task_images/rocket-04.jpg"",""time"":3235.5},{""stimulus"":""run_exp/static/images/task_images/rocket-05.jpg"",""time"":4313.700000047684},{""stimulus"":""run_exp/static/images/task_images/rocket-06.jpg"",""time"":5391.5},{""stimulus"":""run_exp/static/images/task_images/rocket-07.jpg"",""time"":6469.099999904633},{""stimulus"":""run_exp/static/images/task_images/rocket-08.jpg"",""time"":7547.599999904633},{""stimulus"":""run_exp/static/images/task_images/rocket-09.jpg"",""time"":8625.299999952316}]",[],1,,,,,,,,,,,,,,
alien_welcome,83,394744,0.0-32.0-1.0,"""event"",""trial"",""time""
""fullscreenenter"",""1"",""2069""
","
","
","""event"",""trial"",""time""
""fullscreenenter"",""1"",""2069""
","
",,null,run_exp/static/images/task_images/aliens/old_aliens/planet/alien_planet-65.jpg,null,,,,,,,,,,,,,65,"40,65,75,56,62,42,48,77,34,54,38,37,49,18,24,35,12,17,41,66,16,26,15,47,63,45,29,27,11,69,58,39,4,72,22,20,25,23",,,,,,,,,,
land,84,395246,0.0-32.0-2.0,"""event"",""trial"",""time""
""fullscreenenter"",""1"",""2069""
","
","
","""event"",""trial"",""time""
""fullscreenenter"",""1"",""2069""
","
",,null,run_exp/static/images/task_images/land.jpg,null,,,,,,,90,,,2,,,,,,,,,,,,,,
dig,85,397250,0.0-32.0-3.0,"""event"",""trial"",""time""
""fullscreenenter"",""1"",""2069""
","
","
","""event"",""trial"",""time""
""fullscreenenter"",""1"",""2069""
","
",,,,,,,,,,,,"[{""stimulus"":""run_exp/static/images/task_images/dig.jpg"",""time"":0.40000009536743164},{""stimulus"":""run_exp/static/images/task_images/land.jpg"",""time"":669.7999999523163},{""stimulus"":""run_exp/static/images/task_images/dig.jpg"",""time"":1336}]",[],2,,,,,,,,,,,,,,
harvest,86,398252,0.0-32.0-4.0,"""event"",""trial"",""time""
""fullscreenenter"",""1"",""2069""
","
","
","""event"",""trial"",""time""
""fullscreenenter"",""1"",""2069""
","
",,null,run_exp/static/images/task_images/gems/90.jpg,null,,,,,,,15,,,2,,,,,90,0.170539119,0.166666667,,,,,,,
decision,87,398500,0.0-32.0-5.0,"""event"",""trial"",""time""
""fullscreenenter"",""1"",""2069""
","
","
","""event"",""trial"",""time""
""fullscreenenter"",""1"",""2069""
","
",,246.4000001,run_exp/static/images/task_images/land.jpg,65,,,,,,,15,,,2,,,,,,,,35281,1,0,FALSE,,,
dig,88,401255,0.0-33.0-0.0,"""event"",""trial"",""time""
""fullscreenenter"",""1"",""2069""
","
","
","""event"",""trial"",""time""
""fullscreenenter"",""1"",""2069""
","
",,,,,,,,,,,,"[{""stimulus"":""run_exp/static/images/task_images/dig.jpg"",""time"":0.19999980926513672},{""stimulus"":""run_exp/static/images/task_images/land.jpg"",""time"":919.1999998092651},{""stimulus"":""run_exp/static/images/task_images/dig.jpg"",""time"":1835.6999998092651}]",[],2,,,,,,,,,,,,,,
harvest,89,402257,0.0-33.0-1.0,"""event"",""trial"",""time""
""fullscreenenter"",""1"",""2069""
","
","
","""event"",""trial"",""time""
""fullscreenenter"",""1"",""2069""
","
",,null,run_exp/static/images/task_images/gems/15.jpg,null,,,,,,,4,,,2,,,,,15,0.23585171,0.266666667,,,,,,,
decision,90,403028,0.0-33.0-2.0,"""event"",""trial"",""time""
""fullscreenenter"",""1"",""2069""
","
","
","""event"",""trial"",""time""
""fullscreenenter"",""1"",""2069""
","
",,769.0999999,run_exp/static/images/task_images/land.jpg,65,,,,,,,4,,,2,,,,,,,,39809,1,1,FALSE,,,
dig,91,405261,0.0-34.0-0.0,"""event"",""trial"",""time""
""fullscreenenter"",""1"",""2069""
","
","
","""event"",""trial"",""time""
""fullscreenenter"",""1"",""2069""
","
",,,,,,,,,,,,"[{""stimulus"":""run_exp/static/images/task_images/dig.jpg"",""time"":0.20000004768371582},{""stimulus"":""run_exp/static/images/task_images/land.jpg"",""time"":744.2000000476837},{""stimulus"":""run_exp/static/images/task_images/dig.jpg"",""time"":1490}]",[],2,,,,,,,,,,,,,,
harvest,92,406263,0.0-34.0-1.0,"""event"",""trial"",""time""
""fullscreenenter"",""1"",""2069""
","
","
","""event"",""trial"",""time""
""fullscreenenter"",""1"",""2069""
","
",,null,run_exp/static/images/task_images/gems/4.jpg,null,,,,,,,1,,,2,,,,,4,0.198188112,0.25,,,,,,,
decision,93,406547,0.0-34.0-2.0,"""event"",""trial"",""time""
""fullscreenenter"",""1"",""2069""
","
","
","""event"",""trial"",""time""
""fullscreenenter"",""1"",""2069""
","
",,282.5,run_exp/static/images/task_images/land.jpg,76,,,,,,,1,,,2,,,,,,,,43328,1,2,TRUE,,,
travel,94,416263,0.0-35.0-0.0,"""event"",""trial"",""time""
""fullscreenenter"",""1"",""2069""
","
","
","""event"",""trial"",""time""
""fullscreenenter"",""1"",""2069""
","
",,,,,,,,,,,,"[{""stimulus"":""run_exp/static/images/task_images/rocket-01.jpg"",""time"":0.20000004768371582},{""stimulus"":""run_exp/static/images/task_images/rocket-02.jpg"",""time"":1081.4000000953674},{""stimulus"":""run_exp/static/images/task_images/rocket-03.jpg"",""time"":2159.600000143051},{""stimulus"":""run_exp/static/images/task_images/rocket-04.jpg"",""time"":3239.100000143051},{""stimulus"":""run_exp/static/images/task_images/rocket-05.jpg"",""time"":4317.299999952316},{""stimulus"":""run_exp/static/images/task_images/rocket-06.jpg"",""time"":5397.200000047684},{""stimulus"":""run_exp/static/images/task_images/rocket-07.jpg"",""time"":6475.299999952316},{""stimulus"":""run_exp/static/images/task_images/rocket-08.jpg"",""time"":7554.299999952316},{""stimulus"":""run_exp/static/images/task_images/rocket-09.jpg"",""time"":8633.799999952316}]",[],2,,,,,,,,,,,,,,
alien_welcome,95,421266,0.0-35.0-1.0,"""event"",""trial"",""time""
""fullscreenenter"",""1"",""2069""
","
","
","""event"",""trial"",""time""
""fullscreenenter"",""1"",""2069""
","
",,null,run_exp/static/images/task_images/aliens/old_aliens/planet/alien_planet-75.jpg,null,,,,,,,,,,,,,75,"40,65,75,56,62,42,48,77,34,54,38,37,49,18,24,35,12,17,41,66,16,26,15,47,63,45,29,27,11,69,58,39,4,72,22,20,25,23",,,,,,,,,,
land,96,421769,0.0-35.0-2.0,"""event"",""trial"",""time""
""fullscreenenter"",""1"",""2069""
","
","
","""event"",""trial"",""time""
""fullscreenenter"",""1"",""2069""
","
",,null,run_exp/static/images/task_images/land.jpg,null,,,,,,,93,,,3,,,,,,,,,,,,,,
dig,97,423773,0.0-35.0-3.0,"""event"",""trial"",""time""
""fullscreenenter"",""1"",""2069""
","
","
","""event"",""trial"",""time""
""fullscreenenter"",""1"",""2069""
","
",,,,,,,,,,,,"[{""stimulus"":""run_exp/static/images/task_images/dig.jpg"",""time"":0.2999999523162842},{""stimulus"":""run_exp/static/images/task_images/land.jpg"",""time"":668.2999999523163},{""stimulus"":""run_exp/static/images/task_images/dig.jpg"",""time"":1335.2999999523163}]",[],3,,,,,,,,,,,,,,
harvest,98,424775,0.0-35.0-4.0,"""event"",""trial"",""time""
""fullscreenenter"",""1"",""2069""
","
","
","""event"",""trial"",""time""
""fullscreenenter"",""1"",""2069""
","
",,null,run_exp/static/images/task_images/gems/93.jpg,null,,,,,,,44,,,3,,,,,93,0.473550912,0.47311828,,,,,,,
decision,99,425099,0.0-35.0-5.0,"""event"",""trial"",""time""
""fullscreenenter"",""1"",""2069""
","
","
","""event"",""trial"",""time""
""fullscreenenter"",""1"",""2069""
","
",,322.8,run_exp/static/images/task_images/land.jpg,65,,,,,,,44,,,3,,,,,,,,61880,1,0,FALSE,,,
dig,100,427780,0.0-36.0-0.0,"""event"",""trial"",""time""
""fullscreenenter"",""1"",""2069""
","
","
","""event"",""trial"",""time""
""fullscreenenter"",""1"",""2069""
","
",,,,,,,,,,,,"[{""stimulus"":""run_exp/static/images/task_images/dig.jpg"",""time"":0.10000014305114746},{""stimulus"":""run_exp/static/images/task_images/land.jpg"",""time"":893},{""stimulus"":""run_exp/static/images/task_images/dig.jpg"",""time"":1786}]",[],3,,,,,,,,,,,,,,
harvest,101,428781,0.0-36.0-1.0,"""event"",""trial"",""time""
""fullscreenenter"",""1"",""2069""
","
","
","""event"",""trial"",""time""
""fullscreenenter"",""1"",""2069""
","
",,null,run_exp/static/images/task_images/gems/44.jpg,null,,,,,,,20,,,3,,,,,44,0.460347503,0.454545455,,,,,,,
decision,102,429032,0.0-36.0-2.0,"""event"",""trial"",""time""
""fullscreenenter"",""1"",""2069""
","
","
","""event"",""trial"",""time""
""fullscreenenter"",""1"",""2069""
","
",,249.4000001,run_exp/static/images/task_images/land.jpg,65,,,,,,,20,,,3,,,,,,,,65813,1,1,FALSE,,,
dig,103,431784,0.0-37.0-0.0,"""event"",""trial"",""time""
""fullscreenenter"",""1"",""2069""
","
","
","""event"",""trial"",""time""
""fullscreenenter"",""1"",""2069""
","
",,,,,,,,,,,,"[{""stimulus"":""run_exp/static/images/task_images/dig.jpg"",""time"":0.09999990463256836},{""stimulus"":""run_exp/static/images/task_images/land.jpg"",""time"":917},{""stimulus"":""run_exp/static/images/task_images/dig.jpg"",""time"":1834.5999999046326}]",[],3,,,,,,,,,,,,,,
harvest,104,432787,0.0-37.0-1.0,"""event"",""trial"",""time""
""fullscreenenter"",""1"",""2069""
","
","
","""event"",""trial"",""time""
""fullscreenenter"",""1"",""2069""
","
",,null,run_exp/static/images/task_images/gems/20.jpg,null,,,,,,,10,,,3,,,,,20,0.477702924,0.5,,,,,,,
decision,105,432968,0.0-37.0-2.0,"""event"",""trial"",""time""
""fullscreenenter"",""1"",""2069""
","
","
","""event"",""trial"",""time""
""fullscreenenter"",""1"",""2069""
","
",,179.4000001,run_exp/static/images/task_images/land.jpg,65,,,,,,,10,,,3,,,,,,,,69749,1,2,FALSE,,,
dig,106,435791,0.0-38.0-0.0,"""event"",""trial"",""time""
""fullscreenenter"",""1"",""2069""
","
","
","""event"",""trial"",""time""
""fullscreenenter"",""1"",""2069""
","
",,,,,,,,,,,,"[{""stimulus"":""run_exp/static/images/task_images/dig.jpg"",""time"":0.10000014305114746},{""stimulus"":""run_exp/static/images/task_images/land.jpg"",""time"":941.7000000476837},{""stimulus"":""run_exp/static/images/task_images/dig.jpg"",""time"":1880.9000000953674}]",[],3,,,,,,,,,,,,,,
harvest,107,436794,0.0-38.0-1.0,"""event"",""trial"",""time""
""fullscreenenter"",""1"",""2069""
","
","
","""event"",""trial"",""time""
""fullscreenenter"",""1"",""2069""
","
",,null,run_exp/static/images/task_images/gems/10.jpg,null,,,,,,,5,,,3,,,,,10,0.495761468,0.5,,,,,,,
decision,108,437214,0.0-38.0-2.0,"""event"",""trial"",""time""
""fullscreenenter"",""1"",""2069""
","
","
","""event"",""trial"",""time""
""fullscreenenter"",""1"",""2069""
","
",,418.7,run_exp/static/images/task_images/land.jpg,76,,,,,,,5,,,3,,,,,,,,73995,1,3,TRUE,,,
travel,109,446795,0.0-39.0-0.0,"""event"",""trial"",""time""
""fullscreenenter"",""1"",""2069""
","
","
","""event"",""trial"",""time""
""fullscreenenter"",""1"",""2069""
","
",,,,,,,,,,,,"[{""stimulus"":""run_exp/static/images/task_images/rocket-01.jpg"",""time"":0.20000004768371582},{""stimulus"":""run_exp/static/images/task_images/rocket-02.jpg"",""time"":1065.5999999046326},{""stimulus"":""run_exp/static/images/task_images/rocket-03.jpg"",""time"":2129.5999999046326},{""stimulus"":""run_exp/static/images/task_images/rocket-04.jpg"",""time"":3193.7000000476837},{""stimulus"":""run_exp/static/images/task_images/rocket-05.jpg"",""time"":4257.599999904633},{""stimulus"":""run_exp/static/images/task_images/rocket-06.jpg"",""time"":5321},{""stimulus"":""run_exp/static/images/task_images/rocket-07.jpg"",""time"":6385.200000047684},{""stimulus"":""run_exp/static/images/task_images/rocket-08.jpg"",""time"":7449.5},{""stimulus"":""run_exp/static/images/task_images/rocket-09.jpg"",""time"":8513.5}]",[],3,,,,,,,,,,,,,,
alien_welcome,110,451798,0.0-39.0-1.0,"""event"",""trial"",""time""
""fullscreenenter"",""1"",""2069""
","
","
","""event"",""trial"",""time""
""fullscreenenter"",""1"",""2069""
","
",,null,run_exp/static/images/task_images/aliens/old_aliens/planet/alien_planet-56.jpg,null,,,,,,,,,,,,,56,"40,65,75,56,62,42,48,77,34,54,38,37,49,18,24,35,12,17,41,66,16,26,15,47,63,45,29,27,11,69,58,39,4,72,22,20,25,23",,,,,,,,,,
land,111,452300,0.0-39.0-2.0,"""event"",""trial"",""time""
""fullscreenenter"",""1"",""2069""
","
","
","""event"",""trial"",""time""
""fullscreenenter"",""1"",""2069""
","
",,null,run_exp/static/images/task_images/land.jpg,null,,,,,,,98,,,4,,,,,,,,,,,,,,
dig,112,454304,0.0-39.0-3.0,"""event"",""trial"",""time""
""fullscreenenter"",""1"",""2069""
","
","
","""event"",""trial"",""time""
""fullscreenenter"",""1"",""2069""
","
",,,,,,,,,,,,"[{""stimulus"":""run_exp/static/images/task_images/dig.jpg"",""time"":0.39999985694885254},{""stimulus"":""run_exp/static/images/task_images/land.jpg"",""time"":668.5999999046326},{""stimulus"":""run_exp/static/images/task_images/dig.jpg"",""time"":1336.2999999523163}]",[],4,,,,,,,,,,,,,,
harvest,113,455307,0.0-39.0-4.0,"""event"",""trial"",""time""
""fullscreenenter"",""1"",""2069""
","
","
","""event"",""trial"",""time""
""fullscreenenter"",""1"",""2069""
","
",,null,run_exp/static/images/task_images/gems/98.jpg,null,,,,,,,60,,,4,,,,,98,0.614855527,0.612244898,,,,,,,
decision,114,455643,0.0-39.0-5.0,"""event"",""trial"",""time""
""fullscreenenter"",""1"",""2069""
","
","
","""event"",""trial"",""time""
""fullscreenenter"",""1"",""2069""
","
",,334.6999998,run_exp/static/images/task_images/land.jpg,65,,,,,,,60,,,4,,,,,,,,92424,1,0,FALSE,,,
dig,115,458311,0.0-40.0-0.0,"""event"",""trial"",""time""
""fullscreenenter"",""1"",""2069""
","
","
","""event"",""trial"",""time""
""fullscreenenter"",""1"",""2069""
","
",,,,,,,,,,,,"[{""stimulus"":""run_exp/static/images/task_images/dig.jpg"",""time"":0.20000004768371582},{""stimulus"":""run_exp/static/images/task_images/land.jpg"",""time"":889.6000001430511},{""stimulus"":""run_exp/static/images/task_images/dig.jpg"",""time"":1777.9000000953674}]",[],4,,,,,,,,,,,,,,
harvest,116,459313,0.0-40.0-1.0,"""event"",""trial"",""time""
""fullscreenenter"",""1"",""2069""
","
","
","""event"",""trial"",""time""
""fullscreenenter"",""1"",""2069""
","
",,null,run_exp/static/images/task_images/gems/60.jpg,null,,,,,,,32,,,4,,,,,60,0.530716924,0.533333333,,,,,,,
decision,117,459572,0.0-40.0-2.0,"""event"",""trial"",""time""
""fullscreenenter"",""1"",""2069""
","
","
","""event"",""trial"",""time""
""fullscreenenter"",""1"",""2069""
","
",,257.6999998,run_exp/static/images/task_images/land.jpg,65,,,,,,,32,,,4,,,,,,,,96353,1,1,FALSE,,,
dig,118,462319,0.0-41.0-0.0,"""event"",""trial"",""time""
""fullscreenenter"",""1"",""2069""
","
","
","""event"",""trial"",""time""
""fullscreenenter"",""1"",""2069""
","
",,,,,,,,,,,,"[{""stimulus"":""run_exp/static/images/task_images/dig.jpg"",""time"":0.20000004768371582},{""stimulus"":""run_exp/static/images/task_images/land.jpg"",""time"":915.5},{""stimulus"":""run_exp/static/images/task_images/dig.jpg"",""time"":1830}]",[],4,,,,,,,,,,,,,,
harvest,119,463324,0.0-41.0-1.0,"""event"",""trial"",""time""
""fullscreenenter"",""1"",""2069""
","
","
","""event"",""trial"",""time""
""fullscreenenter"",""1"",""2069""
","
",,null,run_exp/static/images/task_images/gems/32.jpg,null,,,,,,,17,,,4,,,,,32,0.53999415,0.53125,,,,,,,
decision,120,463481,0.0-41.0-2.0,"""event"",""trial"",""time""
""fullscreenenter"",""1"",""2069""
","
","
","""event"",""trial"",""time""
""fullscreenenter"",""1"",""2069""
","
",,156,run_exp/static/images/task_images/land.jpg,65,,,,,,,17,,,4,,,,,,,,100263,1,2,FALSE,,,
dig,121,466330,0.0-42.0-0.0,"""event"",""trial"",""time""
""fullscreenenter"",""1"",""2069""
","
","
","""event"",""trial"",""time""
""fullscreenenter"",""1"",""2069""
","
",,,,,,,,,,,,"[{""stimulus"":""run_exp/static/images/task_images/dig.jpg"",""time"":0.09999990463256836},{""stimulus"":""run_exp/static/images/task_images/land.jpg"",""time"":949.5},{""stimulus"":""run_exp/static/images/task_images/dig.jpg"",""time"":1897.0999999046326}]",[],4,,,,,,,,,,,,,,
harvest,122,467332,0.0-42.0-1.0,"""event"",""trial"",""time""
""fullscreenenter"",""1"",""2069""
","
","
","""event"",""trial"",""time""
""fullscreenenter"",""1"",""2069""
","
",,null,run_exp/static/images/task_images/gems/17.jpg,null,,,,,,,9,,,4,,,,,17,0.542015884,0.529411765,,,,,,,
decision,123,467361,0.0-42.0-2.0,"""event"",""trial"",""time""
""fullscreenenter"",""1"",""2069""
","
","
","""event"",""trial"",""time""
""fullscreenenter"",""1"",""2069""
","
",,27.60000014,run_exp/static/images/task_images/land.jpg,65,,,,,,,9,,,4,,,,,,,,104142,1,3,FALSE,,,
dig,124,470335,0.0-43.0-0.0,"""event"",""trial"",""time""
""fullscreenenter"",""1"",""2069""
","
","
","""event"",""trial"",""time""
""fullscreenenter"",""1"",""2069""
","
",,,,,,,,,,,,"[{""stimulus"":""run_exp/static/images/task_images/dig.jpg"",""time"":0.09999990463256836},{""stimulus"":""run_exp/static/images/task_images/land.jpg"",""time"":990.8999998569489},{""stimulus"":""run_exp/static/images/task_images/dig.jpg"",""time"":1981.2000000476837}]",[],4,,,,,,,,,,,,,,
harvest,125,471338,0.0-43.0-1.0,"""event"",""trial"",""time""
""fullscreenenter"",""1"",""2069""
","
","
","""event"",""trial"",""time""
""fullscreenenter"",""1"",""2069""
","
",,null,run_exp/static/images/task_images/gems/9.jpg,null,,,,,,,5,,,4,,,,,9,0.528072279,0.555555556,,,,,,,
decision,126,471362,0.0-43.0-2.0,"""event"",""trial"",""time""
""fullscreenenter"",""1"",""2069""
","
","
","""event"",""trial"",""time""
""fullscreenenter"",""1"",""2069""
","
",,22.60000014,run_exp/static/images/task_images/land.jpg,65,,,,,,,5,,,4,,,,,,,,108143,1,4,FALSE,,,
dig,127,474343,0.0-44.0-0.0,"""event"",""trial"",""time""
""fullscreenenter"",""1"",""2069""
","
","
","""event"",""trial"",""time""
""fullscreenenter"",""1"",""2069""
","
",,,,,,,,,,,,"[{""stimulus"":""run_exp/static/images/task_images/dig.jpg"",""time"":0.20000004768371582},{""stimulus"":""run_exp/static/images/task_images/land.jpg"",""time"":993.7000000476837},{""stimulus"":""run_exp/static/images/task_images/dig.jpg"",""time"":1984.7999999523163}]",[],4,,,,,,,,,,,,,,
harvest,128,475344,0.0-44.0-1.0,"""event"",""trial"",""time""
""fullscreenenter"",""1"",""2069""
","
","
","""event"",""trial"",""time""
""fullscreenenter"",""1"",""2069""
","
",,null,run_exp/static/images/task_images/gems/5.jpg,null,,,,,,,2,,,4,,,,,5,0.395102805,0.4,,,,,,,
decision,129,475901,0.0-44.0-2.0,"""event"",""trial"",""time""
""fullscreenenter"",""1"",""2069""
","
","
","""event"",""trial"",""time""
""fullscreenenter"",""1"",""2069""
","
",,555.2,run_exp/static/images/task_images/land.jpg,76,,,,,,,2,,,4,,,,,,,,112682,1,5,TRUE,,,
travel,130,485347,0.0-45.0-0.0,"""event"",""trial"",""time""
""fullscreenenter"",""1"",""2069""
","
","
","""event"",""trial"",""time""
""fullscreenenter"",""1"",""2069""
","
",,,,,,,,,,,,"[{""stimulus"":""run_exp/static/images/task_images/rocket-01.jpg"",""time"":0},{""stimulus"":""run_exp/static/images/task_images/rocket-02.jpg"",""time"":1049.7999999523163},{""stimulus"":""run_exp/static/images/task_images/rocket-03.jpg"",""time"":2098.9000000953674},{""stimulus"":""run_exp/static/images/task_images/rocket-04.jpg"",""time"":3147.9000000953674},{""stimulus"":""run_exp/static/images/task_images/rocket-05.jpg"",""time"":4197},{""stimulus"":""run_exp/static/images/task_images/rocket-06.jpg"",""time"":5246.600000143051},{""stimulus"":""run_exp/static/images/task_images/rocket-07.jpg"",""time"":6295.700000047684},{""stimulus"":""run_exp/static/images/task_images/rocket-08.jpg"",""time"":7344.799999952316},{""stimulus"":""run_exp/static/images/task_images/rocket-09.jpg"",""time"":8392.900000095367}]",[],4,,,,,,,,,,,,,,
alien_welcome,131,490355,0.0-45.0-1.0,"""event"",""trial"",""time""
""fullscreenenter"",""1"",""2069""
","
","
","""event"",""trial"",""time""
""fullscreenenter"",""1"",""2069""
","
",,null,run_exp/static/images/task_images/aliens/old_aliens/planet/alien_planet-62.jpg,null,,,,,,,,,,,,,62,"40,65,75,56,62,42,48,77,34,54,38,37,49,18,24,35,12,17,41,66,16,26,15,47,63,45,29,27,11,69,58,39,4,72,22,20,25,23",,,,,,,,,,
land,132,490858,0.0-45.0-2.0,"""event"",""trial"",""time""
""fullscreenenter"",""1"",""2069""
","
","
","""event"",""trial"",""time""
""fullscreenenter"",""1"",""2069""
","
",,null,run_exp/static/images/task_images/land.jpg,null,,,,,,,101,,,5,,,,,,,,,,,,,,
dig,133,492862,0.0-45.0-3.0,"""event"",""trial"",""time""
""fullscreenenter"",""1"",""2069""
","
","
","""event"",""trial"",""time""
""fullscreenenter"",""1"",""2069""
","
",,,,,,,,,,,,"[{""stimulus"":""run_exp/static/images/task_images/dig.jpg"",""time"":0.20000004768371582},{""stimulus"":""run_exp/static/images/task_images/land.jpg"",""time"":668.5999999046326},{""stimulus"":""run_exp/static/images/task_images/dig.jpg"",""time"":1335.2000000476837}]",[],5,,,,,,,,,,,,,,
harvest,134,493864,0.0-45.0-4.0,"""event"",""trial"",""time""
""fullscreenenter"",""1"",""2069""
","
","
","""event"",""trial"",""time""
""fullscreenenter"",""1"",""2069""
","
",,null,run_exp/static/images/task_images/gems/101.jpg,null,,,,,,,60,,,5,,,,,101,0.595766951,0.594059406,,,,,,,
decision,135,494380,0.0-45.0-5.0,"""event"",""trial"",""time""
""fullscreenenter"",""1"",""2069""
","
","
","""event"",""trial"",""time""
""fullscreenenter"",""1"",""2069""
","
",,514.5999999,run_exp/static/images/task_images/land.jpg,65,,,,,,,60,,,5,,,,,,,,131161,1,0,FALSE,,,
dig,136,496876,0.0-46.0-0.0,"""event"",""trial"",""time""
""fullscreenenter"",""1"",""2069""
","
","
","""event"",""trial"",""time""
""fullscreenenter"",""1"",""2069""
","
",,,,,,,,,,,,"[{""stimulus"":""run_exp/static/images/task_images/dig.jpg"",""time"":0.2999999523162842},{""stimulus"":""run_exp/static/images/task_images/land.jpg"",""time"":830.2000000476837},{""stimulus"":""run_exp/static/images/task_images/dig.jpg"",""time"":1663.7999999523163}]",[],5,,,,,,,,,,,,,,
harvest,137,497879,0.0-46.0-1.0,"""event"",""trial"",""time""
""fullscreenenter"",""1"",""2069""
","
","
","""event"",""trial"",""time""
""fullscreenenter"",""1"",""2069""
","
",,null,run_exp/static/images/task_images/gems/60.jpg,null,,,,,,,32,,,5,,,,,60,0.528894463,0.533333333,,,,,,,
decision,138,498103,0.0-46.0-2.0,"""event"",""trial"",""time""
""fullscreenenter"",""1"",""2069""
","
","
","""event"",""trial"",""time""
""fullscreenenter"",""1"",""2069""
","
",,223.1999998,run_exp/static/images/task_images/land.jpg,65,,,,,,,32,,,5,,,,,,,,134884,1,1,FALSE,,,
dig,139,500898,0.0-47.0-0.0,"""event"",""trial"",""time""
""fullscreenenter"",""1"",""2069""
","
","
","""event"",""trial"",""time""
""fullscreenenter"",""1"",""2069""
","
",,,,,,,,,,,,"[{""stimulus"":""run_exp/static/images/task_images/dig.jpg"",""time"":0.20000004768371582},{""stimulus"":""run_exp/static/images/task_images/land.jpg"",""time"":926},{""stimulus"":""run_exp/static/images/task_images/dig.jpg"",""time"":1851.7000000476837}]",[],5,,,,,,,,,,,,,,
harvest,140,501899,0.0-47.0-1.0,"""event"",""trial"",""time""
""fullscreenenter"",""1"",""2069""
","
","
","""event"",""trial"",""time""
""fullscreenenter"",""1"",""2069""
","
",,null,run_exp/static/images/task_images/gems/32.jpg,null,,,,,,,15,,,5,,,,,32,0.462506726,0.46875,,,,,,,
decision,141,502066,0.0-47.0-2.0,"""event"",""trial"",""time""
""fullscreenenter"",""1"",""2069""
","
","
","""event"",""trial"",""time""
""fullscreenenter"",""1"",""2069""
","
",,165.4000001,run_exp/static/images/task_images/land.jpg,65,,,,,,,15,,,5,,,,,,,,138847,1,2,FALSE,,,
dig,142,504913,0.0-48.0-0.0,"""event"",""trial"",""time""
""fullscreenenter"",""1"",""2069""
","
","
","""event"",""trial"",""time""
""fullscreenenter"",""1"",""2069""
","
",,,,,,,,,,,,"[{""stimulus"":""run_exp/static/images/task_images/dig.jpg"",""time"":0.10000014305114746},{""stimulus"":""run_exp/static/images/task_images/land.jpg"",""time"":945.7000000476837},{""stimulus"":""run_exp/static/images/task_images/dig.jpg"",""time"":1888.9000000953674}]",[],5,,,,,,,,,,,,,,
harvest,143,505915,0.0-48.0-1.0,"""event"",""trial"",""time""
""fullscreenenter"",""1"",""2069""
","
","
","""event"",""trial"",""time""
""fullscreenenter"",""1"",""2069""
","
",,null,run_exp/static/images/task_images/gems/15.jpg,null,,,,,,,8,,,5,,,,,15,0.561469196,0.533333333,,,,,,,
decision,144,506197,0.0-48.0-2.0,"""event"",""trial"",""time""
""fullscreenenter"",""1"",""2069""
","
","
","""event"",""trial"",""time""
""fullscreenenter"",""1"",""2069""
","
",,280,run_exp/static/images/task_images/land.jpg,65,,,,,,,8,,,5,,,,,,,,142978,1,3,FALSE,,,
dig,145,508920,0.0-49.0-0.0,"""event"",""trial"",""time""
""fullscreenenter"",""1"",""2069""
","
","
","""event"",""trial"",""time""
""fullscreenenter"",""1"",""2069""
","
",,,,,,,,,,,,"[{""stimulus"":""run_exp/static/images/task_images/dig.jpg"",""time"":0.09999990463256836},{""stimulus"":""run_exp/static/images/task_images/land.jpg"",""time"":907.0999999046326},{""stimulus"":""run_exp/static/images/task_images/dig.jpg"",""time"":1813.7999999523163}]",[],5,,,,,,,,,,,,,,
harvest,146,509922,0.0-49.0-1.0,"""event"",""trial"",""time""
""fullscreenenter"",""1"",""2069""
","
","
","""event"",""trial"",""time""
""fullscreenenter"",""1"",""2069""
","
",,null,run_exp/static/images/task_images/gems/8.jpg,null,,,,,,,4,,,5,,,,,8,0.479346162,0.5,,,,,,,
decision,147,510278,0.0-49.0-2.0,"""event"",""trial"",""time""
""fullscreenenter"",""1"",""2069""
","
","
","""event"",""trial"",""time""
""fullscreenenter"",""1"",""2069""
","
",,355.3,run_exp/static/images/task_images/land.jpg,76,,,,,,,4,,,5,,,,,,,,147059,1,4,TRUE,,,
travel,148,519922,0.0-50.0-0.0,"""event"",""trial"",""time""
""fullscreenenter"",""1"",""2069""
","
","
","""event"",""trial"",""time""
""fullscreenenter"",""1"",""2069""
","
",,,,,,,,,,,,"[{""stimulus"":""run_exp/static/images/task_images/rocket-01.jpg"",""time"":0.10000014305114746},{""stimulus"":""run_exp/static/images/task_images/rocket-02.jpg"",""time"":1073.2999999523163},{""stimulus"":""run_exp/static/images/task_images/rocket-03.jpg"",""time"":2142.7000000476837},{""stimulus"":""run_exp/static/images/task_images/rocket-04.jpg"",""time"":3215},{""stimulus"":""run_exp/static/images/task_images/rocket-05.jpg"",""time"":4285.600000143051},{""stimulus"":""run_exp/static/images/task_images/rocket-06.jpg"",""time"":5356.900000095367},{""stimulus"":""run_exp/static/images/task_images/rocket-07.jpg"",""time"":6427.900000095367},{""stimulus"":""run_exp/static/images/task_images/rocket-08.jpg"",""time"":7498.400000095367},{""stimulus"":""run_exp/static/images/task_images/rocket-09.jpg"",""time"":8569}]",[],5,,,,,,,,,,,,,,
alien_welcome,149,524925,0.0-50.0-1.0,"""event"",""trial"",""time""
""fullscreenenter"",""1"",""2069""
","
","
","""event"",""trial"",""time""
""fullscreenenter"",""1"",""2069""
","
",,null,run_exp/static/images/task_images/aliens/old_aliens/planet/alien_planet-42.jpg,null,,,,,,,,,,,,,42,"40,65,75,56,62,42,48,77,34,54,38,37,49,18,24,35,12,17,41,66,16,26,15,47,63,45,29,27,11,69,58,39,4,72,22,20,25,23",,,,,,,,,,
land,150,525429,0.0-50.0-2.0,"""event"",""trial"",""time""
""fullscreenenter"",""1"",""2069""
","
","
","""event"",""trial"",""time""
""fullscreenenter"",""1"",""2069""
","
",,null,run_exp/static/images/task_images/land.jpg,null,,,,,,,95,,,6,,,,,,,,,,,,,,
dig,151,527433,0.0-50.0-3.0,"""event"",""trial"",""time""
""fullscreenenter"",""1"",""2069""
","
","
","""event"",""trial"",""time""
""fullscreenenter"",""1"",""2069""
","
",,,,,,,,,,,,"[{""stimulus"":""run_exp/static/images/task_images/dig.jpg"",""time"":0.2999999523162842},{""stimulus"":""run_exp/static/images/task_images/land.jpg"",""time"":669},{""stimulus"":""run_exp/static/images/task_images/dig.jpg"",""time"":1335.5999999046326}]",[],6,,,,,,,,,,,,,,
harvest,152,528435,0.0-50.0-4.0,"""event"",""trial"",""time""
""fullscreenenter"",""1"",""2069""
","
","
","""event"",""trial"",""time""
""fullscreenenter"",""1"",""2069""
","
",,null,run_exp/static/images/task_images/gems/95.jpg,null,,,,,,,83,,,6,,,,,95,0.874545311,0.873684211,,,,,,,
decision,153,529097,0.0-50.0-5.0,"""event"",""trial"",""time""
""fullscreenenter"",""1"",""2069""
","
","
","""event"",""trial"",""time""
""fullscreenenter"",""1"",""2069""
","
",,661.1000001,run_exp/static/images/task_images/land.jpg,65,,,,,,,83,,,6,,,,,,,,165879,1,0,FALSE,,,
dig,154,531440,0.0-51.0-0.0,"""event"",""trial"",""time""
""fullscreenenter"",""1"",""2069""
","
","
","""event"",""trial"",""time""
""fullscreenenter"",""1"",""2069""
","
",,,,,,,,,,,,"[{""stimulus"":""run_exp/static/images/task_images/dig.jpg"",""time"":0.20000004768371582},{""stimulus"":""run_exp/static/images/task_images/land.jpg"",""time"":780.3999998569489},{""stimulus"":""run_exp/static/images/task_images/dig.jpg"",""time"":1559.2999999523163}]",[],6,,,,,,,,,,,,,,
harvest,155,532443,0.0-51.0-1.0,"""event"",""trial"",""time""
""fullscreenenter"",""1"",""2069""
","
","
","""event"",""trial"",""time""
""fullscreenenter"",""1"",""2069""
","
",,null,run_exp/static/images/task_images/gems/83.jpg,null,,,,,,,67,,,6,,,,,83,0.804960051,0.807228916,,,,,,,
decision,156,532805,0.0-51.0-2.0,"""event"",""trial"",""time""
""fullscreenenter"",""1"",""2069""
","
","
","""event"",""trial"",""time""
""fullscreenenter"",""1"",""2069""
","
",,362.3,run_exp/static/images/task_images/land.jpg,65,,,,,,,67,,,6,,,,,,,,169586,1,1,FALSE,,,
dig,157,535445,0.0-52.0-0.0,"""event"",""trial"",""time""
""fullscreenenter"",""1"",""2069""
","
","
","""event"",""trial"",""time""
""fullscreenenter"",""1"",""2069""
","
",,,,,,,,,,,,"[{""stimulus"":""run_exp/static/images/task_images/dig.jpg"",""time"":0.09999990463256836},{""stimulus"":""run_exp/static/images/task_images/land.jpg"",""time"":880.5999999046326},{""stimulus"":""run_exp/static/images/task_images/dig.jpg"",""time"":1759.5}]",[],6,,,,,,,,,,,,,,
harvest,158,536447,0.0-52.0-1.0,"""event"",""trial"",""time""
""fullscreenenter"",""1"",""2069""
","
","
","""event"",""trial"",""time""
""fullscreenenter"",""1"",""2069""
","
",,null,run_exp/static/images/task_images/gems/67.jpg,null,,,,,,,58,,,6,,,,,67,0.860018914,0.865671642,,,,,,,
decision,159,536744,0.0-52.0-2.0,"""event"",""trial"",""time""
""fullscreenenter"",""1"",""2069""
","
","
","""event"",""trial"",""time""
""fullscreenenter"",""1"",""2069""
","
",,295.5,run_exp/static/images/task_images/land.jpg,65,,,,,,,58,,,6,,,,,,,,173525,1,2,FALSE,,,
dig,160,539452,0.0-53.0-0.0,"""event"",""trial"",""time""
""fullscreenenter"",""1"",""2069""
","
","
","""event"",""trial"",""time""
""fullscreenenter"",""1"",""2069""
","
",,,,,,,,,,,,"[{""stimulus"":""run_exp/static/images/task_images/dig.jpg"",""time"":0.10000014305114746},{""stimulus"":""run_exp/static/images/task_images/land.jpg"",""time"":902.4000000953674},{""stimulus"":""run_exp/static/images/task_images/dig.jpg"",""time"":1803.2999999523163}]",[],6,,,,,,,,,,,,,,
harvest,161,540454,0.0-53.0-1.0,"""event"",""trial"",""time""
""fullscreenenter"",""1"",""2069""
","
","
","""event"",""trial"",""time""
""fullscreenenter"",""1"",""2069""
","
",,null,run_exp/static/images/task_images/gems/58.jpg,null,,,,,,,48,,,6,,,,,58,0.83424302,0.827586207,,,,,,,
decision,162,540693,0.0-53.0-2.0,"""event"",""trial"",""time""
""fullscreenenter"",""1"",""2069""
","
","
","""event"",""trial"",""time""
""fullscreenenter"",""1"",""2069""
","
",,237.8,run_exp/static/images/task_images/land.jpg,65,,,,,,,48,,,6,,,,,,,,177474,1,3,FALSE,,,
dig,163,543457,0.0-54.0-0.0,"""event"",""trial"",""time""
""fullscreenenter"",""1"",""2069""
","
","
","""event"",""trial"",""time""
""fullscreenenter"",""1"",""2069""
","
",,,,,,,,,,,,"[{""stimulus"":""run_exp/static/images/task_images/dig.jpg"",""time"":0.20000004768371582},{""stimulus"":""run_exp/static/images/task_images/land.jpg"",""time"":921.0999999046326},{""stimulus"":""run_exp/static/images/task_images/dig.jpg"",""time"":1841.5999999046326}]",[],6,,,,,,,,,,,,,,
harvest,164,544460,0.0-54.0-1.0,"""event"",""trial"",""time""
""fullscreenenter"",""1"",""2069""
","
","
","""event"",""trial"",""time""
""fullscreenenter"",""1"",""2069""
","
",,null,run_exp/static/images/task_images/gems/48.jpg,null,,,,,,,38,,,6,,,,,48,0.781735599,0.791666667,,,,,,,
decision,165,544677,0.0-54.0-2.0,"""event"",""trial"",""time""
""fullscreenenter"",""1"",""2069""
","
","
","""event"",""trial"",""time""
""fullscreenenter"",""1"",""2069""
","
",,215.9000001,run_exp/static/images/task_images/land.jpg,65,,,,,,,38,,,6,,,,,,,,181459,1,4,FALSE,,,
dig,166,547467,0.0-55.0-0.0,"""event"",""trial"",""time""
""fullscreenenter"",""1"",""2069""
","
","
","""event"",""trial"",""time""
""fullscreenenter"",""1"",""2069""
","
",,,,,,,,,,,,"[{""stimulus"":""run_exp/static/images/task_images/dig.jpg"",""time"":0.20000004768371582},{""stimulus"":""run_exp/static/images/task_images/land.jpg"",""time"":929.9000000953674},{""stimulus"":""run_exp/static/images/task_images/dig.jpg"",""time"":1871.2000000476837}]",[],6,,,,,,,,,,,,,,
harvest,167,548470,0.0-55.0-1.0,"""event"",""trial"",""time""
""fullscreenenter"",""1"",""2069""
","
","
","""event"",""trial"",""time""
""fullscreenenter"",""1"",""2069""
","
",,null,run_exp/static/images/task_images/gems/38.jpg,null,,,,,,,31,,,6,,,,,38,0.823853058,0.815789474,,,,,,,
decision,168,548765,0.0-55.0-2.0,"""event"",""trial"",""time""
""fullscreenenter"",""1"",""2069""
","
","
","""event"",""trial"",""time""
""fullscreenenter"",""1"",""2069""
","
",,293.3,run_exp/static/images/task_images/land.jpg,65,,,,,,,31,,,6,,,,,,,,185546,1,5,FALSE,,,
dig,169,551475,0.0-56.0-0.0,"""event"",""trial"",""time""
""fullscreenenter"",""1"",""2069""
","
","
","""event"",""trial"",""time""
""fullscreenenter"",""1"",""2069""
","
",,,,,,,,,,,,"[{""stimulus"":""run_exp/static/images/task_images/dig.jpg"",""time"":0.09999990463256836},{""stimulus"":""run_exp/static/images/task_images/land.jpg"",""time"":903},{""stimulus"":""run_exp/static/images/task_images/dig.jpg"",""time"":1810.5}]",[],6,,,,,,,,,,,,,,
harvest,170,552478,0.0-56.0-1.0,"""event"",""trial"",""time""
""fullscreenenter"",""1"",""2069""
","
","
","""event"",""trial"",""time""
""fullscreenenter"",""1"",""2069""
","
",,null,run_exp/static/images/task_images/gems/31.jpg,null,,,,,,,25,,,6,,,,,31,0.813208229,0.806451613,,,,,,,
decision,171,552832,0.0-56.0-2.0,"""event"",""trial"",""time""
""fullscreenenter"",""1"",""2069""
","
","
","""event"",""trial"",""time""
""fullscreenenter"",""1"",""2069""
","
",,353.3000002,run_exp/static/images/task_images/land.jpg,65,,,,,,,25,,,6,,,,,,,,189613,1,6,FALSE,,,
dig,172,555483,0.0-57.0-0.0,"""event"",""trial"",""time""
""fullscreenenter"",""1"",""2069""
","
","
","""event"",""trial"",""time""
""fullscreenenter"",""1"",""2069""
","
",,,,,,,,,,,,"[{""stimulus"":""run_exp/static/images/task_images/dig.jpg"",""time"":0},{""stimulus"":""run_exp/static/images/task_images/land.jpg"",""time"":883.5},{""stimulus"":""run_exp/static/images/task_images/dig.jpg"",""time"":1765.6000001430511}]",[],6,,,,,,,,,,,,,,
harvest,173,556486,0.0-57.0-1.0,"""event"",""trial"",""time""
""fullscreenenter"",""1"",""2069""
","
","
","""event"",""trial"",""time""
""fullscreenenter"",""1"",""2069""
","
",,null,run_exp/static/images/task_images/gems/25.jpg,null,,,,,,,21,,,6,,,,,25,0.826977891,0.84,,,,,,,
decision,174,556729,0.0-57.0-2.0,"""event"",""trial"",""time""
""fullscreenenter"",""1"",""2069""
","
","
","""event"",""trial"",""time""
""fullscreenenter"",""1"",""2069""
","
",,241.6999998,run_exp/static/images/task_images/land.jpg,65,,,,,,,21,,,6,,,,,,,,193510,1,7,FALSE,,,
dig,175,559490,0.0-58.0-0.0,"""event"",""trial"",""time""
""fullscreenenter"",""1"",""2069""
","
","
","""event"",""trial"",""time""
""fullscreenenter"",""1"",""2069""
","
",,,,,,,,,,,,"[{""stimulus"":""run_exp/static/images/task_images/dig.jpg"",""time"":0.09999990463256836},{""stimulus"":""run_exp/static/images/task_images/land.jpg"",""time"":920.0999999046326},{""stimulus"":""run_exp/static/images/task_images/dig.jpg"",""time"":1839.2999999523163}]",[],6,,,,,,,,,,,,,,
harvest,176,560492,0.0-58.0-1.0,"""event"",""trial"",""time""
""fullscreenenter"",""1"",""2069""
","
","
","""event"",""trial"",""time""
""fullscreenenter"",""1"",""2069""
","
",,null,run_exp/static/images/task_images/gems/21.jpg,null,,,,,,,19,,,6,,,,,21,0.88279277,0.904761905,,,,,,,
decision,177,561225,0.0-58.0-2.0,"""event"",""trial"",""time""
""fullscreenenter"",""1"",""2069""
","
","
","""event"",""trial"",""time""
""fullscreenenter"",""1"",""2069""
","
",,731.3,run_exp/static/images/task_images/land.jpg,65,,,,,,,19,,,6,,,,,,,,198006,1,8,FALSE,,,
dig,178,563499,0.0-59.0-0.0,"""event"",""trial"",""time""
""fullscreenenter"",""1"",""2069""
","
","
","""event"",""trial"",""time""
""fullscreenenter"",""1"",""2069""
","
",,,,,,,,,,,,"[{""stimulus"":""run_exp/static/images/task_images/dig.jpg"",""time"":0.20000004768371582},{""stimulus"":""run_exp/static/images/task_images/land.jpg"",""time"":756.9000000953674},{""stimulus"":""run_exp/static/images/task_images/dig.jpg"",""time"":1514.4000000953674}]",[],6,,,,,,,,,,,,,,
harvest,179,564501,0.0-59.0-1.0,"""event"",""trial"",""time""
""fullscreenenter"",""1"",""2069""
","
","
","""event"",""trial"",""time""
""fullscreenenter"",""1"",""2069""
","
",,null,run_exp/static/images/task_images/gems/19.jpg,null,,,,,,,15,,,6,,,,,19,0.767761702,0.789473684,,,,,,,
decision,180,564828,0.0-59.0-2.0,"""event"",""trial"",""time""
""fullscreenenter"",""1"",""2069""
","
","
","""event"",""trial"",""time""
""fullscreenenter"",""1"",""2069""
","
",,325,run_exp/static/images/task_images/land.jpg,65,,,,,,,15,,,6,,,,,,,,201609,1,9,FALSE,,,
dig,181,567506,0.0-60.0-0.0,"""event"",""trial"",""time""
""fullscreenenter"",""1"",""2069""
","
","
","""event"",""trial"",""time""
""fullscreenenter"",""1"",""2069""
","
",,,,,,,,,,,,"[{""stimulus"":""run_exp/static/images/task_images/dig.jpg"",""time"":0.19999980926513672},{""stimulus"":""run_exp/static/images/task_images/land.jpg"",""time"":892.3999998569489},{""stimulus"":""run_exp/static/images/task_images/dig.jpg"",""time"":1783.6999998092651}]",[],6,,,,,,,,,,,,,,
harvest,182,568507,0.0-60.0-1.0,"""event"",""trial"",""time""
""fullscreenenter"",""1"",""2069""
","
","
","""event"",""trial"",""time""
""fullscreenenter"",""1"",""2069""
","
",,null,run_exp/static/images/task_images/gems/15.jpg,null,,,,,,,13,,,6,,,,,15,0.856336549,0.866666667,,,,,,,
decision,183,568596,0.0-60.0-2.0,"""event"",""trial"",""time""
""fullscreenenter"",""1"",""2069""
","
","
","""event"",""trial"",""time""
""fullscreenenter"",""1"",""2069""
","
",,87,run_exp/static/images/task_images/land.jpg,65,,,,,,,13,,,6,,,,,,,,205377,1,10,FALSE,,,
dig,184,571514,0.0-61.0-0.0,"""event"",""trial"",""time""
""fullscreenenter"",""1"",""2069""
","
","
","""event"",""trial"",""time""
""fullscreenenter"",""1"",""2069""
","
",,,,,,,,,,,,"[{""stimulus"":""run_exp/static/images/task_images/dig.jpg"",""time"":0.20000004768371582},{""stimulus"":""run_exp/static/images/task_images/land.jpg"",""time"":972.0999999046326},{""stimulus"":""run_exp/static/images/task_images/dig.jpg"",""time"":1943.7000000476837}]",[],6,,,,,,,,,,,,,,
harvest,185,572516,0.0-61.0-1.0,"""event"",""trial"",""time""
""fullscreenenter"",""1"",""2069""
","
","
","""event"",""trial"",""time""
""fullscreenenter"",""1"",""2069""
","
",,null,run_exp/static/images/task_images/gems/13.jpg,null,,,,,,,10,,,6,,,,,13,0.79437178,0.769230769,,,,,,,
decision,186,573384,0.0-61.0-2.0,"""event"",""trial"",""time""
""fullscreenenter"",""1"",""2069""
","
","
","""event"",""trial"",""time""
""fullscreenenter"",""1"",""2069""
","
",,866.3,run_exp/static/images/task_images/land.jpg,76,,,,,,,10,,,6,,,,,,,,210165,1,11,TRUE,,,
travel,187,582514,0.0-62.0-0.0,"""event"",""trial"",""time""
""fullscreenenter"",""1"",""2069""
","
","
","""event"",""trial"",""time""
""fullscreenenter"",""1"",""2069""
","
",,,,,,,,,,,,"[{""stimulus"":""run_exp/static/images/task_images/rocket-01.jpg"",""time"":0.10000014305114746},{""stimulus"":""run_exp/static/images/task_images/rocket-02.jpg"",""time"":1015.4000000953674},{""stimulus"":""run_exp/static/images/task_images/rocket-03.jpg"",""time"":2028.7000000476837},{""stimulus"":""run_exp/static/images/task_images/rocket-04.jpg"",""time"":3043.5},{""stimulus"":""run_exp/static/images/task_images/rocket-05.jpg"",""time"":4057.7000000476837},{""stimulus"":""run_exp/static/images/task_images/rocket-06.jpg"",""time"":5072.100000143051},{""stimulus"":""run_exp/static/images/task_images/rocket-07.jpg"",""time"":6090.700000047684},{""stimulus"":""run_exp/static/images/task_images/rocket-08.jpg"",""time"":7098.800000190735},{""stimulus"":""run_exp/static/images/task_images/rocket-09.jpg"",""time"":8113.5}]",[],6,,,,,,,,,,,,,,
alien_welcome,188,587516,0.0-62.0-1.0,"""event"",""trial"",""time""
""fullscreenenter"",""1"",""2069""
","
","
","""event"",""trial"",""time""
""fullscreenenter"",""1"",""2069""
","
",,null,run_exp/static/images/task_images/aliens/old_aliens/planet/alien_planet-48.jpg,null,,,,,,,,,,,,,48,"40,65,75,56,62,42,48,77,34,54,38,37,49,18,24,35,12,17,41,66,16,26,15,47,63,45,29,27,11,69,58,39,4,72,22,20,25,23",,,,,,,,,,
land,189,588018,0.0-62.0-2.0,"""event"",""trial"",""time""
""fullscreenenter"",""1"",""2069""
","
","
","""event"",""trial"",""time""
""fullscreenenter"",""1"",""2069""
","
",,null,run_exp/static/images/task_images/land.jpg,null,,,,,,,97,,,7,,,,,,,,,,,,,,
dig,190,590023,0.0-62.0-3.0,"""event"",""trial"",""time""
""fullscreenenter"",""1"",""2069""
","
","
","""event"",""trial"",""time""
""fullscreenenter"",""1"",""2069""
","
",,,,,,,,,,,,"[{""stimulus"":""run_exp/static/images/task_images/dig.jpg"",""time"":0.2999999523162842},{""stimulus"":""run_exp/static/images/task_images/land.jpg"",""time"":669.2999999523163},{""stimulus"":""run_exp/static/images/task_images/dig.jpg"",""time"":1335.6999998092651}]",[],7,,,,,,,,,,,,,,
harvest,191,591025,0.0-62.0-4.0,"""event"",""trial"",""time""
""fullscreenenter"",""1"",""2069""
","
","
","""event"",""trial"",""time""
""fullscreenenter"",""1"",""2069""
","
",,null,run_exp/static/images/task_images/gems/97.jpg,null,,,,,,,81,,,7,,,,,97,0.833795832,0.835051546,,,,,,,
decision,192,592021,0.0-62.0-5.0,"""event"",""trial"",""time""
""fullscreenenter"",""1"",""2069""
","
","
","""event"",""trial"",""time""
""fullscreenenter"",""1"",""2069""
","
",,994.3999999,run_exp/static/images/task_images/land.jpg,65,,,,,,,81,,,7,,,,,,,,228802,1,0,FALSE,,,
dig,193,594030,0.0-63.0-0.0,"""event"",""trial"",""time""
""fullscreenenter"",""1"",""2069""
","
","
","""event"",""trial"",""time""
""fullscreenenter"",""1"",""2069""
","
",,,,,,,,,,,,"[{""stimulus"":""run_exp/static/images/task_images/dig.jpg"",""time"":0.2999999523162842},{""stimulus"":""run_exp/static/images/task_images/land.jpg"",""time"":669.7000000476837},{""stimulus"":""run_exp/static/images/task_images/dig.jpg"",""time"":1338}]",[],7,,,,,,,,,,,,,,
harvest,194,595032,0.0-63.0-1.0,"""event"",""trial"",""time""
""fullscreenenter"",""1"",""2069""
","
","
","""event"",""trial"",""time""
""fullscreenenter"",""1"",""2069""
","
",,null,run_exp/static/images/task_images/gems/81.jpg,null,,,,,,,69,,,7,,,,,81,0.849492765,0.851851852,,,,,,,
decision,195,595656,0.0-63.0-2.0,"""event"",""trial"",""time""
""fullscreenenter"",""1"",""2069""
","
","
","""event"",""trial"",""time""
""fullscreenenter"",""1"",""2069""
","
",,622.7,run_exp/static/images/task_images/land.jpg,65,,,,,,,69,,,7,,,,,,,,232437,1,1,FALSE,,,
dig,196,598038,0.0-64.0-0.0,"""event"",""trial"",""time""
""fullscreenenter"",""1"",""2069""
","
","
","""event"",""trial"",""time""
""fullscreenenter"",""1"",""2069""
","
",,,,,,,,,,,,"[{""stimulus"":""run_exp/static/images/task_images/dig.jpg"",""time"":0.19999980926513672},{""stimulus"":""run_exp/static/images/task_images/land.jpg"",""time"":793.2999999523163},{""stimulus"":""run_exp/static/images/task_images/dig.jpg"",""time"":1584.8999998569489}]",[],7,,,,,,,,,,,,,,
harvest,197,599040,0.0-64.0-1.0,"""event"",""trial"",""time""
""fullscreenenter"",""1"",""2069""
","
","
","""event"",""trial"",""time""
""fullscreenenter"",""1"",""2069""
","
",,null,run_exp/static/images/task_images/gems/69.jpg,null,,,,,,,51,,,7,,,,,69,0.732465375,0.739130435,,,,,,,
decision,198,599441,0.0-64.0-2.0,"""event"",""trial"",""time""
""fullscreenenter"",""1"",""2069""
","
","
","""event"",""trial"",""time""
""fullscreenenter"",""1"",""2069""
","
",,399.8,run_exp/static/images/task_images/land.jpg,65,,,,,,,51,,,7,,,,,,,,236222,1,2,FALSE,,,
dig,199,602043,0.0-65.0-0.0,"""event"",""trial"",""time""
""fullscreenenter"",""1"",""2069""
","
","
","""event"",""trial"",""time""
""fullscreenenter"",""1"",""2069""
","
",,,,,,,,,,,,"[{""stimulus"":""run_exp/static/images/task_images/dig.jpg"",""time"":0.20000004768371582},{""stimulus"":""run_exp/static/images/task_images/land.jpg"",""time"":867.5999999046326},{""stimulus"":""run_exp/static/images/task_images/dig.jpg"",""time"":1734.2000000476837}]",[],7,,,,,,,,,,,,,,
harvest,200,603046,0.0-65.0-1.0,"""event"",""trial"",""time""
""fullscreenenter"",""1"",""2069""
","
","
","""event"",""trial"",""time""
""fullscreenenter"",""1"",""2069""
","
",,null,run_exp/static/images/task_images/gems/51.jpg,null,,,,,,,43,,,7,,,,,51,0.84155725,0.843137255,,,,,,,
decision,201,603336,0.0-65.0-2.0,"""event"",""trial"",""time""
""fullscreenenter"",""1"",""2069""
","
","
","""event"",""trial"",""time""
""fullscreenenter"",""1"",""2069""
","
",,289.3,run_exp/static/images/task_images/land.jpg,65,,,,,,,43,,,7,,,,,,,,240117,1,3,FALSE,,,
dig,202,606050,0.0-66.0-0.0,"""event"",""trial"",""time""
""fullscreenenter"",""1"",""2069""
","
","
","""event"",""trial"",""time""
""fullscreenenter"",""1"",""2069""
","
",,,,,,,,,,,,"[{""stimulus"":""run_exp/static/images/task_images/dig.jpg"",""time"":0.10000014305114746},{""stimulus"":""run_exp/static/images/task_images/land.jpg"",""time"":905.4000000953674},{""stimulus"":""run_exp/static/images/task_images/dig.jpg"",""time"":1807.6000001430511}]",[],7,,,,,,,,,,,,,,
harvest,203,607052,0.0-66.0-1.0,"""event"",""trial"",""time""
""fullscreenenter"",""1"",""2069""
","
","
","""event"",""trial"",""time""
""fullscreenenter"",""1"",""2069""
","
",,null,run_exp/static/images/task_images/gems/43.jpg,null,,,,,,,37,,,7,,,,,43,0.867260537,0.860465116,,,,,,,
decision,204,607481,0.0-66.0-2.0,"""event"",""trial"",""time""
""fullscreenenter"",""1"",""2069""
","
","
","""event"",""trial"",""time""
""fullscreenenter"",""1"",""2069""
","
",,427.8,run_exp/static/images/task_images/land.jpg,65,,,,,,,37,,,7,,,,,,,,244262,1,4,FALSE,,,
dig,205,610057,0.0-67.0-0.0,"""event"",""trial"",""time""
""fullscreenenter"",""1"",""2069""
","
","
","""event"",""trial"",""time""
""fullscreenenter"",""1"",""2069""
","
",,,,,,,,,,,,"[{""stimulus"":""run_exp/static/images/task_images/dig.jpg"",""time"":0.2999999523162842},{""stimulus"":""run_exp/static/images/task_images/land.jpg"",""time"":858.6000001430511},{""stimulus"":""run_exp/static/images/task_images/dig.jpg"",""time"":1715.7000000476837}]",[],7,,,,,,,,,,,,,,
harvest,206,611059,0.0-67.0-1.0,"""event"",""trial"",""time""
""fullscreenenter"",""1"",""2069""
","
","
","""event"",""trial"",""time""
""fullscreenenter"",""1"",""2069""
","
",,null,run_exp/static/images/task_images/gems/37.jpg,null,,,,,,,31,,,7,,,,,37,0.841756501,0.837837838,,,,,,,
decision,207,611640,0.0-67.0-2.0,"""event"",""trial"",""time""
""fullscreenenter"",""1"",""2069""
","
","
","""event"",""trial"",""time""
""fullscreenenter"",""1"",""2069""
","
",,579.5,run_exp/static/images/task_images/land.jpg,65,,,,,,,31,,,7,,,,,,,,248421,1,5,FALSE,,,
dig,208,614063,0.0-68.0-0.0,"""event"",""trial"",""time""
""fullscreenenter"",""1"",""2069""
","
","
","""event"",""trial"",""time""
""fullscreenenter"",""1"",""2069""
","
",,,,,,,,,,,,"[{""stimulus"":""run_exp/static/images/task_images/dig.jpg"",""time"":0.20000004768371582},{""stimulus"":""run_exp/static/images/task_images/land.jpg"",""time"":807.6000001430511},{""stimulus"":""run_exp/static/images/task_images/dig.jpg"",""time"":1613}]",[],7,,,,,,,,,,,,,,
harvest,209,615081,0.0-68.0-1.0,"""event"",""trial"",""time""
""fullscreenenter"",""1"",""2069""
","
","
","""event"",""trial"",""time""
""fullscreenenter"",""1"",""2069""
","
",,null,run_exp/static/images/task_images/gems/31.jpg,null,,,,,,,24,,,7,,,,,31,0.786446067,0.774193548,,,,,,,
decision,210,616141,0.0-68.0-2.0,"""event"",""trial"",""time""
""fullscreenenter"",""1"",""2069""
","
","
","""event"",""trial"",""time""
""fullscreenenter"",""1"",""2069""
","
",,1059,run_exp/static/images/task_images/land.jpg,65,,,,,,,24,,,7,,,,,,,,252922,1,6,FALSE,,,
dig,211,618089,0.0-69.0-0.0,"""event"",""trial"",""time""
""fullscreenenter"",""1"",""2069""
","
","
","""event"",""trial"",""time""
""fullscreenenter"",""1"",""2069""
","
",,,,,,,,,,,,"[{""stimulus"":""run_exp/static/images/task_images/dig.jpg"",""time"":0.2999999523162842},{""stimulus"":""run_exp/static/images/task_images/land.jpg"",""time"":648.9000000953674},{""stimulus"":""run_exp/static/images/task_images/dig.jpg"",""time"":1295.7999999523163}]",[],7,,,,,,,,,,,,,,
harvest,212,619092,0.0-69.0-1.0,"""event"",""trial"",""time""
""fullscreenenter"",""1"",""2069""
","
","
","""event"",""trial"",""time""
""fullscreenenter"",""1"",""2069""
","
",,null,run_exp/static/images/task_images/gems/24.jpg,null,,,,,,,21,,,7,,,,,24,0.874983595,0.875,,,,,,,
decision,213,619655,0.0-69.0-2.0,"""event"",""trial"",""time""
""fullscreenenter"",""1"",""2069""
","
","
","""event"",""trial"",""time""
""fullscreenenter"",""1"",""2069""
","
",,561.5999999,run_exp/static/images/task_images/land.jpg,65,,,,,,,21,,,7,,,,,,,,256436,1,7,FALSE,,,
dig,214,622095,0.0-70.0-0.0,"""event"",""trial"",""time""
""fullscreenenter"",""1"",""2069""
","
","
","""event"",""trial"",""time""
""fullscreenenter"",""1"",""2069""
","
",,,,,,,,,,,,"[{""stimulus"":""run_exp/static/images/task_images/dig.jpg"",""time"":0.10000014305114746},{""stimulus"":""run_exp/static/images/task_images/land.jpg"",""time"":812.7000000476837},{""stimulus"":""run_exp/static/images/task_images/dig.jpg"",""time"":1625.2000000476837}]",[],7,,,,,,,,,,,,,,
harvest,215,623097,0.0-70.0-1.0,"""event"",""trial"",""time""
""fullscreenenter"",""1"",""2069""
","
","
","""event"",""trial"",""time""
""fullscreenenter"",""1"",""2069""
","
",,null,run_exp/static/images/task_images/gems/21.jpg,null,,,,,,,17,,,7,,,,,21,0.818017265,0.80952381,,,,,,,
decision,216,623914,0.0-70.0-2.0,"""event"",""trial"",""time""
""fullscreenenter"",""1"",""2069""
","
","
","""event"",""trial"",""time""
""fullscreenenter"",""1"",""2069""
","
",,815.6000001,run_exp/static/images/task_images/land.jpg,65,,,,,,,17,,,7,,,,,,,,260695,1,8,FALSE,,,
dig,217,626104,0.0-71.0-0.0,"""event"",""trial"",""time""
""fullscreenenter"",""1"",""2069""
","
","
","""event"",""trial"",""time""
""fullscreenenter"",""1"",""2069""
","
",,,,,,,,,,,,"[{""stimulus"":""run_exp/static/images/task_images/dig.jpg"",""time"":0.20000004768371582},{""stimulus"":""run_exp/static/images/task_images/land.jpg"",""time"":730.6000001430511},{""stimulus"":""run_exp/static/images/task_images/dig.jpg"",""time"":1457.9000000953674}]",[],7,,,,,,,,,,,,,,
harvest,218,627106,0.0-71.0-1.0,"""event"",""trial"",""time""
""fullscreenenter"",""1"",""2069""
","
","
","""event"",""trial"",""time""
""fullscreenenter"",""1"",""2069""
","
",,null,run_exp/static/images/task_images/gems/17.jpg,null,,,,,,,14,,,7,,,,,17,0.806302076,0.823529412,,,,,,,
decision,219,627432,0.0-71.0-2.0,"""event"",""trial"",""time""
""fullscreenenter"",""1"",""2069""
","
","
","""event"",""trial"",""time""
""fullscreenenter"",""1"",""2069""
","
",,325.5,run_exp/static/images/task_images/land.jpg,65,,,,,,,14,,,7,,,,,,,,264214,1,9,FALSE,,,
dig,220,630110,0.0-72.0-0.0,"""event"",""trial"",""time""
""fullscreenenter"",""1"",""2069""
","
","
","""event"",""trial"",""time""
""fullscreenenter"",""1"",""2069""
","
",,,,,,,,,,,,"[{""stimulus"":""run_exp/static/images/task_images/dig.jpg"",""time"":0.20000004768371582},{""stimulus"":""run_exp/static/images/task_images/land.jpg"",""time"":892.2000000476837},{""stimulus"":""run_exp/static/images/task_images/dig.jpg"",""time"":1783.6000001430511}]",[],7,,,,,,,,,,,,,,
harvest,221,631113,0.0-72.0-1.0,"""event"",""trial"",""time""
""fullscreenenter"",""1"",""2069""
","
","
","""event"",""trial"",""time""
""fullscreenenter"",""1"",""2069""
","
",,null,run_exp/static/images/task_images/gems/14.jpg,null,,,,,,,11,,,7,,,,,14,0.757708707,0.785714286,,,,,,,
decision,222,631457,0.0-72.0-2.0,"""event"",""trial"",""time""
""fullscreenenter"",""1"",""2069""
","
","
","""event"",""trial"",""time""
""fullscreenenter"",""1"",""2069""
","
",,342.5,run_exp/static/images/task_images/land.jpg,76,,,,,,,11,,,7,,,,,,,,268238,1,10,TRUE,,,
travel,223,641119,0.0-73.0-0.0,"""event"",""trial"",""time""
""fullscreenenter"",""1"",""2069""
","
","
","""event"",""trial"",""time""
""fullscreenenter"",""1"",""2069""
","
",,,,,,,,,,,,"[{""stimulus"":""run_exp/static/images/task_images/rocket-01.jpg"",""time"":0.10000014305114746},{""stimulus"":""run_exp/static/images/task_images/rocket-02.jpg"",""time"":1074.4000000953674},{""stimulus"":""run_exp/static/images/task_images/rocket-03.jpg"",""time"":2147.100000143051},{""stimulus"":""run_exp/static/images/task_images/rocket-04.jpg"",""time"":3220.4000000953674},{""stimulus"":""run_exp/static/images/task_images/rocket-05.jpg"",""time"":4293.400000095367},{""stimulus"":""run_exp/static/images/task_images/rocket-06.jpg"",""time"":5366.5},{""stimulus"":""run_exp/static/images/task_images/rocket-07.jpg"",""time"":6439.299999952316},{""stimulus"":""run_exp/static/images/task_images/rocket-08.jpg"",""time"":7512.299999952316},{""stimulus"":""run_exp/static/images/task_images/rocket-09.jpg"",""time"":8585.600000143051}]",[],7,,,,,,,,,,,,,,
alien_welcome,224,646123,0.0-73.0-1.0,"""event"",""trial"",""time""
""fullscreenenter"",""1"",""2069""
","
","
","""event"",""trial"",""time""
""fullscreenenter"",""1"",""2069""
","
",,null,run_exp/static/images/task_images/aliens/old_aliens/planet/alien_planet-77.jpg,null,,,,,,,,,,,,,77,"40,65,75,56,62,42,48,77,34,54,38,37,49,18,24,35,12,17,41,66,16,26,15,47,63,45,29,27,11,69,58,39,4,72,22,20,25,23",,,,,,,,,,
land,225,646624,0.0-73.0-2.0,"""event"",""trial"",""time""
""fullscreenenter"",""1"",""2069""
","
","
","""event"",""trial"",""time""
""fullscreenenter"",""1"",""2069""
","
",,null,run_exp/static/images/task_images/land.jpg,null,,,,,,,98,,,8,,,,,,,,,,,,,,
dig,226,648629,0.0-73.0-3.0,"""event"",""trial"",""time""
""fullscreenenter"",""1"",""2069""
","
","
","""event"",""trial"",""time""
""fullscreenenter"",""1"",""2069""
","
",,,,,,,,,,,,"[{""stimulus"":""run_exp/static/images/task_images/dig.jpg"",""time"":0.2999999523162842},{""stimulus"":""run_exp/static/images/task_images/land.jpg"",""time"":668.9000000953674},{""stimulus"":""run_exp/static/images/task_images/dig.jpg"",""time"":1335.6000001430511}]",[],8,,,,,,,,,,,,,,
harvest,227,649631,0.0-73.0-4.0,"""event"",""trial"",""time""
""fullscreenenter"",""1"",""2069""
","
","
","""event"",""trial"",""time""
""fullscreenenter"",""1"",""2069""
","
",,null,run_exp/static/images/task_images/gems/98.jpg,null,,,,,,,76,,,8,,,,,98,0.779951046,0.775510204,,,,,,,
decision,228,650849,0.0-73.0-5.0,"""event"",""trial"",""time""
""fullscreenenter"",""1"",""2069""
","
","
","""event"",""trial"",""time""
""fullscreenenter"",""1"",""2069""
","
",,1216.6,run_exp/static/images/task_images/land.jpg,65,,,,,,,76,,,8,,,,,,,,287630,1,0,FALSE,,,
dig,229,652636,0.0-74.0-0.0,"""event"",""trial"",""time""
""fullscreenenter"",""1"",""2069""
","
","
","""event"",""trial"",""time""
""fullscreenenter"",""1"",""2069""
","
",,,,,,,,,,,,"[{""stimulus"":""run_exp/static/images/task_images/dig.jpg"",""time"":0.20000004768371582},{""stimulus"":""run_exp/static/images/task_images/land.jpg"",""time"":595.3999998569489},{""stimulus"":""run_exp/static/images/task_images/dig.jpg"",""time"":1190.0999999046326}]",[],8,,,,,,,,,,,,,,
harvest,230,653637,0.0-74.0-1.0,"""event"",""trial"",""time""
""fullscreenenter"",""1"",""2069""
","
","
","""event"",""trial"",""time""
""fullscreenenter"",""1"",""2069""
","
",,null,run_exp/static/images/task_images/gems/76.jpg,null,,,,,,,65,,,8,,,,,76,0.860626741,0.855263158,,,,,,,
decision,231,654210,0.0-74.0-2.0,"""event"",""trial"",""time""
""fullscreenenter"",""1"",""2069""
","
","
","""event"",""trial"",""time""
""fullscreenenter"",""1"",""2069""
","
",,571.3999999,run_exp/static/images/task_images/land.jpg,65,,,,,,,65,,,8,,,,,,,,290991,1,1,FALSE,,,
dig,232,656642,0.0-75.0-0.0,"""event"",""trial"",""time""
""fullscreenenter"",""1"",""2069""
","
","
","""event"",""trial"",""time""
""fullscreenenter"",""1"",""2069""
","
",,,,,,,,,,,,"[{""stimulus"":""run_exp/static/images/task_images/dig.jpg"",""time"":0.20000004768371582},{""stimulus"":""run_exp/static/images/task_images/land.jpg"",""time"":810.1000001430511},{""stimulus"":""run_exp/static/images/task_images/dig.jpg"",""time"":1619.9000000953674}]",[],8,,,,,,,,,,,,,,
harvest,233,657643,0.0-75.0-1.0,"""event"",""trial"",""time""
""fullscreenenter"",""1"",""2069""
","
","
","""event"",""trial"",""time""
""fullscreenenter"",""1"",""2069""
","
",,null,run_exp/static/images/task_images/gems/65.jpg,null,,,,,,,54,,,8,,,,,65,0.835939263,0.830769231,,,,,,,
decision,234,658320,0.0-75.0-2.0,"""event"",""trial"",""time""
""fullscreenenter"",""1"",""2069""
","
","
","""event"",""trial"",""time""
""fullscreenenter"",""1"",""2069""
","
",,675.4000001,run_exp/static/images/task_images/land.jpg,65,,,,,,,54,,,8,,,,,,,,295101,1,2,FALSE,,,
dig,235,660647,0.0-76.0-0.0,"""event"",""trial"",""time""
""fullscreenenter"",""1"",""2069""
","
","
","""event"",""trial"",""time""
""fullscreenenter"",""1"",""2069""
","
",,,,,,,,,,,,"[{""stimulus"":""run_exp/static/images/task_images/dig.jpg"",""time"":0.3000001907348633},{""stimulus"":""run_exp/static/images/task_images/land.jpg"",""time"":775.9000000953674},{""stimulus"":""run_exp/static/images/task_images/dig.jpg"",""time"":1549.7000000476837}]",[],8,,,,,,,,,,,,,,
harvest,236,661649,0.0-76.0-1.0,"""event"",""trial"",""time""
""fullscreenenter"",""1"",""2069""
","
","
","""event"",""trial"",""time""
""fullscreenenter"",""1"",""2069""
","
",,null,run_exp/static/images/task_images/gems/54.jpg,null,,,,,,,45,,,8,,,,,54,0.825781067,0.833333333,,,,,,,
decision,237,662125,0.0-76.0-2.0,"""event"",""trial"",""time""
""fullscreenenter"",""1"",""2069""
","
","
","""event"",""trial"",""time""
""fullscreenenter"",""1"",""2069""
","
",,474.6999998,run_exp/static/images/task_images/land.jpg,65,,,,,,,45,,,8,,,,,,,,298906,1,3,FALSE,,,
dig,238,664653,0.0-77.0-0.0,"""event"",""trial"",""time""
""fullscreenenter"",""1"",""2069""
","
","
","""event"",""trial"",""time""
""fullscreenenter"",""1"",""2069""
","
",,,,,,,,,,,,"[{""stimulus"":""run_exp/static/images/task_images/dig.jpg"",""time"":0.19999980926513672},{""stimulus"":""run_exp/static/images/task_images/land.jpg"",""time"":842.8999998569489},{""stimulus"":""run_exp/static/images/task_images/dig.jpg"",""time"":1683.6999998092651}]",[],8,,,,,,,,,,,,,,
harvest,239,665655,0.0-77.0-1.0,"""event"",""trial"",""time""
""fullscreenenter"",""1"",""2069""
","
","
","""event"",""trial"",""time""
""fullscreenenter"",""1"",""2069""
","
",,null,run_exp/static/images/task_images/gems/45.jpg,null,,,,,,,38,,,8,,,,,45,0.83445756,0.844444444,,,,,,,
decision,240,666393,0.0-77.0-2.0,"""event"",""trial"",""time""
""fullscreenenter"",""1"",""2069""
","
","
","""event"",""trial"",""time""
""fullscreenenter"",""1"",""2069""
","
",,736.8,run_exp/static/images/task_images/land.jpg,65,,,,,,,38,,,8,,,,,,,,303174,1,4,TRUE,,,
end_of_block_continue,241,675292,0.0-78.0-0.0,"""event"",""trial"",""time""
""fullscreenenter"",""1"",""2069""
","
","
","""event"",""trial"",""time""
""fullscreenenter"",""1"",""2069""
","
",,null,run_exp/static/audio/clip_32_block_end.m4a,,,,,,,null,,,,,,,,,,,,,,,,,,
alien_welcome,242,680299,0.0-79.0-0.0,"""event"",""trial"",""time""
""fullscreenenter"",""1"",""2069""
","
","
","""event"",""trial"",""time""
""fullscreenenter"",""1"",""2069""
","
",,null,run_exp/static/images/task_images/aliens/old_aliens/planet/alien_planet-34.jpg,null,,,,,,,,,,,,,34,"40,65,75,56,62,42,48,77,34,54,38,37,49,18,24,35,12,17,41,66,16,26,15,47,63,45,29,27,11,69,58,39,4,72,22,20,25,23",,,,,,,,,,
land,243,680801,0.0-79.0-1.0,"""event"",""trial"",""time""
""fullscreenenter"",""1"",""2069""
","
","
","""event"",""trial"",""time""
""fullscreenenter"",""1"",""2069""
","
",,null,run_exp/static/images/task_images/land.jpg,null,,,,,,,104,,,9,,,,,,,,,,,,,,
dig,244,682805,0.0-79.0-2.0,"""event"",""trial"",""time""
""fullscreenenter"",""1"",""2069""
","
","
","""event"",""trial"",""time""
""fullscreenenter"",""1"",""2069""
","
",,,,,,,,,,,,"[{""stimulus"":""run_exp/static/images/task_images/dig.jpg"",""time"":0.2999999523162842},{""stimulus"":""run_exp/static/images/task_images/land.jpg"",""time"":668.2999999523163},{""stimulus"":""run_exp/static/images/task_images/dig.jpg"",""time"":1335.8999998569489}]",[],9,,,,,,,,,,,,,,
harvest,245,683807,0.0-79.0-3.0,"""event"",""trial"",""time""
""fullscreenenter"",""1"",""2069""
","
","
","""event"",""trial"",""time""
""fullscreenenter"",""1"",""2069""
","
",,null,run_exp/static/images/task_images/gems/104.jpg,null,,,,,,,16,,,9,,,,,104,0.150755409,0.153846154,,,,,,,
decision,246,684531,0.0-79.0-4.0,"""event"",""trial"",""time""
""fullscreenenter"",""1"",""2069""
","
","
","""event"",""trial"",""time""
""fullscreenenter"",""1"",""2069""
","
",,723.3999999,run_exp/static/images/task_images/land.jpg,65,,,,,,,16,,,9,,,,,,,,9236,2,0,FALSE,,,
dig,247,686810,0.0-80.0-0.0,"""event"",""trial"",""time""
""fullscreenenter"",""1"",""2069""
","
","
","""event"",""trial"",""time""
""fullscreenenter"",""1"",""2069""
","
",,,,,,,,,,,,"[{""stimulus"":""run_exp/static/images/task_images/dig.jpg"",""time"":0.20000004768371582},{""stimulus"":""run_exp/static/images/task_images/land.jpg"",""time"":759.9000000953674},{""stimulus"":""run_exp/static/images/task_images/dig.jpg"",""time"":1519.5}]",[],9,,,,,,,,,,,,,,
harvest,248,687812,0.0-80.0-1.0,"""event"",""trial"",""time""
""fullscreenenter"",""1"",""2069""
","
","
","""event"",""trial"",""time""
""fullscreenenter"",""1"",""2069""
","
",,null,run_exp/static/images/task_images/gems/16.jpg,null,,,,,,,4,,,9,,,,,16,0.234843828,0.25,,,,,,,
decision,249,688669,0.0-80.0-2.0,"""event"",""trial"",""time""
""fullscreenenter"",""1"",""2069""
","
","
","""event"",""trial"",""time""
""fullscreenenter"",""1"",""2069""
","
",,855.6999998,run_exp/static/images/task_images/land.jpg,76,,,,,,,4,,,9,,,,,,,,13373,2,1,TRUE,,,
travel,250,697820,0.0-81.0-0.0,"""event"",""trial"",""time""
""fullscreenenter"",""1"",""2069""
","
","
","""event"",""trial"",""time""
""fullscreenenter"",""1"",""2069""
","
",,,,,,,,,,,,"[{""stimulus"":""run_exp/static/images/task_images/rocket-01.jpg"",""time"":0.20000004768371582},{""stimulus"":""run_exp/static/images/task_images/rocket-02.jpg"",""time"":1017.9000000953674},{""stimulus"":""run_exp/static/images/task_images/rocket-03.jpg"",""time"":2033.4000000953674},{""stimulus"":""run_exp/static/images/task_images/rocket-04.jpg"",""time"":3049.7999999523163},{""stimulus"":""run_exp/static/images/task_images/rocket-05.jpg"",""time"":4065.9000000953674},{""stimulus"":""run_exp/static/images/task_images/rocket-06.jpg"",""time"":5081.799999952316},{""stimulus"":""run_exp/static/images/task_images/rocket-07.jpg"",""time"":6098},{""stimulus"":""run_exp/static/images/task_images/rocket-08.jpg"",""time"":7113.400000095367},{""stimulus"":""run_exp/static/images/task_images/rocket-09.jpg"",""time"":8129.100000143051}]",[],9,,,,,,,,,,,,,,
alien_welcome,251,702824,0.0-81.0-1.0,"""event"",""trial"",""time""
""fullscreenenter"",""1"",""2069""
","
","
","""event"",""trial"",""time""
""fullscreenenter"",""1"",""2069""
","
",,null,run_exp/static/images/task_images/aliens/old_aliens/planet/alien_planet-54.jpg,null,,,,,,,,,,,,,54,"40,65,75,56,62,42,48,77,34,54,38,37,49,18,24,35,12,17,41,66,16,26,15,47,63,45,29,27,11,69,58,39,4,72,22,20,25,23",,,,,,,,,,
land,252,703326,0.0-81.0-2.0,"""event"",""trial"",""time""
""fullscreenenter"",""1"",""2069""
","
","
","""event"",""trial"",""time""
""fullscreenenter"",""1"",""2069""
","
