trial_type,trial_index,time_elapsed,internal_node_id,interactions,blur_events,focus_events,fullscreenenter_events,fullscreenexit_events,success,rt,stimulus,key_press,prompt,subject_id,participant_id,age,gender,button_pressed,next_reward,animation_sequence,responses,planet,curr_prac_trial,n_prac_rounds,alien,aliens,reward_received,decay_rate_actual,decay_rate_exp,time_in_block,block_num,prt,last_trial_on_planet,button_html,bonus,num_failures
pavlovia,0,12,0.0-0.0,"""event"",""trial"",""time""
""fullscreenenter"",""1"",""3832""
","
","
","""event"",""trial"",""time""
""fullscreenenter"",""1"",""3832""
","
",,,,,,,,,,,,,,,,,,,,,,,,,,,,
fullscreen,1,4818,0.0-1.0,"""event"",""trial"",""time""
""fullscreenenter"",""1"",""3832""
","
","
","""event"",""trial"",""time""
""fullscreenenter"",""1"",""3832""
","
",TRUE,,,,,,,,,,,,,,,,,,,,,,,,,,,
instruc_welcome,2,14578,0.0-2.0,"""event"",""trial"",""time""
""fullscreenenter"",""1"",""3832""
","
","
","""event"",""trial"",""time""
""fullscreenenter"",""1"",""3832""
","
",,null,run_exp/static/audio/clip_1_welcome.m4a,null,"<p>Howdy! In this experiment, you’ll be an explorer traveling through space to collect space treasure.</p><p>Your mission is to collect as much treasure as possible.</p><br><br><p><img src='run_exp/static/images/task_images/opening_img-01.jpg' height='300' width='auto'></p>",8138,965,17.43,Female,,,,,,,,,,,,,,,,,,,
audio-keyboard-response,3,31474,0.0-3.0,"""event"",""trial"",""time""
""fullscreenenter"",""1"",""3832""
","
","
","""event"",""trial"",""time""
""fullscreenenter"",""1"",""3832""
","
",,null,run_exp/static/audio/clip_2_move.m4a,null,,,,,,,,,,,,,,,,,,,,,,,,
welcome_dec,4,33727,0.0-4.0,"""event"",""trial"",""time""
""fullscreenenter"",""1"",""3832""
","
","
","""event"",""trial"",""time""
""fullscreenenter"",""1"",""3832""
","
",,2222.9,"<p>Howdy! In this experiment, you’ll be an explorer traveling through space to collect space treasure.</p><p>Your mission is to collect as much treasure as possible.</p><br><br><p><img src='run_exp/static/images/task_images/opening_img-01.jpg' height='300' width='auto'></p>",,,,,,,1,,,,,,,,,,,,,,,,,,
html-keyboard-response,5,34507,0.0-5.0,"""event"",""trial"",""time""
""fullscreenenter"",""1"",""3832""
","
","
","""event"",""trial"",""time""
""fullscreenenter"",""1"",""3832""
","
",,773.5,"<p>Howdy! In this experiment, you’ll be an explorer traveling through space to collect space treasure.</p><p>Your mission is to collect as much treasure as possible.</p><br><br><p><img src='run_exp/static/images/task_images/opening_img-01.jpg' height='300' width='auto'></p><button class=""jspsych-html-btn-unchosen""><img src=""run_exp/static/images/task_images/planet-01.jpg"" height=""50""></button><button class=""jspsych-html-btn-chosen""><img src=""run_exp/static/images/task_images/planet-02.jpg"" height=""50""></button><p><b>[press the space bar to lock in your answer]<b><br></p>",32,,,,,,,,,,,,,,,,,,,,,,,,
instruc_goal,6,44785,0.0-6.0-0.0,"""event"",""trial"",""time""
""fullscreenenter"",""1"",""3832""
","
","
","""event"",""trial"",""time""
""fullscreenenter"",""1"",""3832""
","
",,null,run_exp/static/audio/clip_3_goal.m4a,null,"<p> As a space explorer, you’ll visit different planets to dig for space treasure, these pink gems.</p> <p> The more treasure you dig up, the more bonus money you’ll win! </p><br><br><p><img src='run_exp/static/images/task_images/pink_gem.jpg' height='300' width='auto'></p>",,,,,,,,,,,,,,,,,,,,,,,
instruc_goal,7,52618,0.0-6.0-1.0,"""event"",""trial"",""time""
""fullscreenenter"",""1"",""3832""
","
","
","""event"",""trial"",""time""
""fullscreenenter"",""1"",""3832""
","
",,7825.6,"<p> As a space explorer, you’ll visit different planets to dig for space treasure, these pink gems.</p> <p> The more treasure you dig up, the more bonus money you’ll win! </p><br><br><p><img src='run_exp/static/images/task_images/pink_gem.jpg' height='300' width='auto'></p>",,,,,,,1,,,,,,,,,,,,,,,,,,
html-keyboard-response,8,53277,0.0-6.0-2.0,"""event"",""trial"",""time""
""fullscreenenter"",""1"",""3832""
","
","
","""event"",""trial"",""time""
""fullscreenenter"",""1"",""3832""
","
",,656.2,"<p> As a space explorer, you’ll visit different planets to dig for space treasure, these pink gems.</p> <p> The more treasure you dig up, the more bonus money you’ll win! </p><br><br><p><img src='run_exp/static/images/task_images/pink_gem.jpg' height='300' width='auto'></p><button class=""jspsych-html-btn-unchosen""><img src=""run_exp/static/images/task_images/planet-01.jpg"" height=""50""></button><button class=""jspsych-html-btn-chosen""><img src=""run_exp/static/images/task_images/planet-02.jpg"" height=""50""></button><p><b>[press the space bar to lock in your answer]<b><br></p>",32,,,,,,,,,,,,,,,,,,,,,,,,
instruc_dig,9,69489,0.0-7.0-0.0,"""event"",""trial"",""time""
""fullscreenenter"",""1"",""3832""
","
","
","""event"",""trial"",""time""
""fullscreenenter"",""1"",""3832""
","
",,null,run_exp/static/audio/clip_4_dig.m4a,null,,,,,,,100,,,,,,,,,,,,,,,,,
instruc_dig_try,10,69968,0.0-7.0-1.0,"""event"",""trial"",""time""
""fullscreenenter"",""1"",""3832""
","
","
","""event"",""trial"",""time""
""fullscreenenter"",""1"",""3832""
","
",,473.5,"<p> When you’ve arrived at a new planet, you will dig once. </p> <p>Then, you get to decide if you want to stay on the planet and dig again or travel to a new planet and dig there.</p> <p> To stay and dig, press the letter <strong>‘A’</strong> on your keyboard. Try pressing it now! </p><p><img src='run_exp/static/images/task_images/land.jpg'  height='700' width='auto'></p>",65,"<p> When you’ve arrived at a new planet, you will dig once. </p> <p>Then, you get to decide if you want to stay on the planet and dig again or travel to a new planet and dig there.</p> <p> To stay and dig, press the letter <strong>‘A’</strong> on your keyboard. Try pressing it now! </p><p><img src='run_exp/static/images/task_images/land.jpg'  height='700' width='auto'></p>",,,,,,100,,,,,,,,,,,,,,,,,
dig_prac,11,72002,0.0-7.0-2.0,"""event"",""trial"",""time""
""fullscreenenter"",""1"",""3832""
","
","
","""event"",""trial"",""time""
""fullscreenenter"",""1"",""3832""
","
",,,,,,,,,,,,"[{""stimulus"":""run_exp/static/images/task_images/dig.jpg"",""time"":0.5},{""stimulus"":""run_exp/static/images/task_images/land.jpg"",""time"":679.5},{""stimulus"":""run_exp/static/images/task_images/dig.jpg"",""time"":1337.2999999970198}]",[],,,,,,,,,,,,,,,
instruc_travel,12,108402,0.0-7.0-3.0,"""event"",""trial"",""time""
""fullscreenenter"",""1"",""3832""
","
","
","""event"",""trial"",""time""
""fullscreenenter"",""1"",""3832""
","
",,null,run_exp/static/audio/clip_5_travel.m4a,null,"<p>Every time you dig up gems, there are less gems on the planet, so the more you dig on a planet the fewer gems you’ll get with each dig.</p><p>When gems are running low, you may want to travel to a new planet. </p> <p>  Planets are very far apart in this galaxy, so it will take some time to travel between them. </p> <br><p>There are lots and lots of planets for you to visit, so you won’t be able to return to any planets you’ve seen before. </p><br><p>To leave this planet and travel to a new one, press the letter <strong>‘L’</strong> on your keyboard. Try pressing it now! </p><p><img src='run_exp/static/images/task_images/rocket-01.jpg'  height='600' width='auto'></p>",,,,,,,,,,,,,,,,,,,,,,,
instruc_travel_try,13,111555,0.0-7.0-4.0,"""event"",""trial"",""time""
""fullscreenenter"",""1"",""3832""
","
","
","""event"",""trial"",""time""
""fullscreenenter"",""1"",""3832""
","
",,3149.7,"<p>Every time you dig up gems, there are less gems on the planet, so the more you dig on a planet the fewer gems you’ll get with each dig.</p><p>When gems are running low, you may want to travel to a new planet. </p> <p>  Planets are very far apart in this galaxy, so it will take some time to travel between them. </p> <br><p>There are lots and lots of planets for you to visit, so you won’t be able to return to any planets you’ve seen before. </p><br><p>To leave this planet and travel to a new one, press the letter <strong>‘L’</strong> on your keyboard. Try pressing it now! </p><p><img src='run_exp/static/images/task_images/rocket-01.jpg'  height='600' width='auto'></p>",76,"<p>Every time you dig up gems, there are less gems on the planet, so the more you dig on a planet the fewer gems you’ll get with each dig.</p><p>When gems are running low, you may want to travel to a new planet. </p> <p>  Planets are very far apart in this galaxy, so it will take some time to travel between them. </p> <br><p>There are lots and lots of planets for you to visit, so you won’t be able to return to any planets you’ve seen before. </p><br><p>To leave this planet and travel to a new one, press the letter <strong>‘L’</strong> on your keyboard. Try pressing it now! </p><p><img src='run_exp/static/images/task_images/rocket-01.jpg'  height='600' width='auto'></p>",,,,,,,,,,,,,,,,,,,,,,,
travel_prac,14,121562,0.0-7.0-5.0,"""event"",""trial"",""time""
""fullscreenenter"",""1"",""3832""
","
","
","""event"",""trial"",""time""
""fullscreenenter"",""1"",""3832""
","
",,,,,,,,,,,,"[{""stimulus"":""run_exp/static/images/task_images/rocket-01.jpg"",""time"":0.3999999910593033},{""stimulus"":""run_exp/static/images/task_images/rocket-02.jpg"",""time"":1117.7000000029802},{""stimulus"":""run_exp/static/images/task_images/rocket-03.jpg"",""time"":2229.7999999970198},{""stimulus"":""run_exp/static/images/task_images/rocket-04.jpg"",""time"":3341.7000000029802},{""stimulus"":""run_exp/static/images/task_images/rocket-05.jpg"",""time"":4454},{""stimulus"":""run_exp/static/images/task_images/rocket-06.jpg"",""time"":5558},{""stimulus"":""run_exp/static/images/task_images/rocket-07.jpg"",""time"":6669.70000000298},{""stimulus"":""run_exp/static/images/task_images/rocket-08.jpg"",""time"":7781.79999999702},{""stimulus"":""run_exp/static/images/task_images/rocket-09.jpg"",""time"":8893.89999999106}]",[],0,,,,,,,,,,,,,,
instruc_alien_greet,15,148897,0.0-7.0-6.0,"""event"",""trial"",""time""
""fullscreenenter"",""1"",""3832""
","
","
","""event"",""trial"",""time""
""fullscreenenter"",""1"",""3832""
","
",,null,run_exp/static/audio/clip_6_alien.m4a,null,"<p>When you arrive at a new planet, the alien who owns the treasure mine on that planet will greet you!</p><p>The better an alien takes care of their mine the easier it is to dig for gems. Some aliens take better care of their mine than others. So, you won’t get exactly the same amount of gems on each planet.</p><p>What the alien looks like does not tell you anything about how many gems there are on the planet.</p><br><p><img src=""run_exp/static/images/task_images/aliens/instructions_aliens/planet/alien_planet-1.jpg""  height=""600"" width=""auto""></p>",,,,,,,,,,,,,,,,,,,,,,,
instruc_alien_greet,16,178790,0.0-7.0-7.0,"""event"",""trial"",""time""
""fullscreenenter"",""1"",""3832""
","
","
","""event"",""trial"",""time""
""fullscreenenter"",""1"",""3832""
","
",,29887.5,"<p>When you arrive at a new planet, the alien who owns the treasure mine on that planet will greet you!</p><p>The better an alien takes care of their mine the easier it is to dig for gems. Some aliens take better care of their mine than others. So, you won’t get exactly the same amount of gems on each planet.</p><p>What the alien looks like does not tell you anything about how many gems there are on the planet.</p><br><p><img src=""run_exp/static/images/task_images/aliens/instructions_aliens/planet/alien_planet-1.jpg""  height=""600"" width=""auto""></p>",,,,,,,1,,,,,,,,,,,,,,,,,,
html-keyboard-response,17,179324,0.0-7.0-8.0,"""event"",""trial"",""time""
""fullscreenenter"",""1"",""3832""
","
","
","""event"",""trial"",""time""
""fullscreenenter"",""1"",""3832""
","
",,530.5,"<p>When you arrive at a new planet, the alien who owns the treasure mine on that planet will greet you!</p><p>The better an alien takes care of their mine the easier it is to dig for gems. Some aliens take better care of their mine than others. So, you won’t get exactly the same amount of gems on each planet.</p><p>What the alien looks like does not tell you anything about how many gems there are on the planet.</p><br><p><img src=""run_exp/static/images/task_images/aliens/instructions_aliens/planet/alien_planet-1.jpg""  height=""600"" width=""auto""></p><button class=""jspsych-html-btn-unchosen""><img src=""run_exp/static/images/task_images/planet-01.jpg"" height=""50""></button><button class=""jspsych-html-btn-chosen""><img src=""run_exp/static/images/task_images/planet-02.jpg"" height=""50""></button><p><b>[press the space bar to lock in your answer]<b><br></p>",32,,,,,,,,,,,,,,,,,,,,,,,,
time_out,18,190499,0.0-8.0-0.0,"""event"",""trial"",""time""
""fullscreenenter"",""1"",""3832""
","
","
","""event"",""trial"",""time""
""fullscreenenter"",""1"",""3832""
","
",,null,run_exp/static/audio/clip_7_timeout.m4a,null,"<p>If you don't make your choice fast enough, you’ll have to wait a few seconds before you can make another one.</p><p>You can’t dig for more gems or travel to new planets. You just have to sit and wait.</p><br><p><img src='run_exp/static/images/task_images/time_out.jpg'  height='600' width='auto'></p>",,,,,,,,,,,,,,,,,,,,,,,
time_out,19,194517,0.0-8.0-1.0,"""event"",""trial"",""time""
""fullscreenenter"",""1"",""3832""
","
","
","""event"",""trial"",""time""
""fullscreenenter"",""1"",""3832""
","
",,4012.5,"<p>If you don't make your choice fast enough, you’ll have to wait a few seconds before you can make another one.</p><p>You can’t dig for more gems or travel to new planets. You just have to sit and wait.</p><br><p><img src='run_exp/static/images/task_images/time_out.jpg'  height='600' width='auto'></p>",,,,,,,1,,,,,,,,,,,,,,,,,,
html-keyboard-response,20,195376,0.0-8.0-2.0,"""event"",""trial"",""time""
""fullscreenenter"",""1"",""3832""
","
","
","""event"",""trial"",""time""
""fullscreenenter"",""1"",""3832""
","
",,855.8,"<p>If you don't make your choice fast enough, you’ll have to wait a few seconds before you can make another one.</p><p>You can’t dig for more gems or travel to new planets. You just have to sit and wait.</p><br><p><img src='run_exp/static/images/task_images/time_out.jpg'  height='600' width='auto'></p><button class=""jspsych-html-btn-unchosen""><img src=""run_exp/static/images/task_images/planet-01.jpg"" height=""50""></button><button class=""jspsych-html-btn-chosen""><img src=""run_exp/static/images/task_images/planet-02.jpg"" height=""50""></button><p><b>[press the space bar to lock in your answer]<b><br></p>",32,,,,,,,,,,,,,,,,,,,,,,,,
instruc_break,21,211363,0.0-9.0-0.0,"""event"",""trial"",""time""
""fullscreenenter"",""1"",""3832""
","
","
","""event"",""trial"",""time""
""fullscreenenter"",""1"",""3832""
","
",,null,run_exp/static/audio/clip_8_break.m4a,null,"<p> After digging and traveling for a while, you’ll be able to take a break at home base. </p><p>The game will last 20 minutes no matter what.</p><p>You will visit home base every 5 minutes, so, you will visit home base three times during the game.</p><br><p><img src='run_exp/static/images/task_images/home_base.jpg' height='600' width='auto'></p>",,,,,,,,,,,,,,,,,,,,,,,
instruc_break,22,225820,0.0-9.0-1.0,"""event"",""trial"",""time""
""fullscreenenter"",""1"",""3832""
","
","
","""event"",""trial"",""time""
""fullscreenenter"",""1"",""3832""
","
",,14451.3,"<p> After digging and traveling for a while, you’ll be able to take a break at home base. </p><p>The game will last 20 minutes no matter what.</p><p>You will visit home base every 5 minutes, so, you will visit home base three times during the game.</p><br><p><img src='run_exp/static/images/task_images/home_base.jpg' height='600' width='auto'></p>",,,,,,,1,,,,,,,,,,,,,,,,,,
html-keyboard-response,23,226423,0.0-9.0-2.0,"""event"",""trial"",""time""
""fullscreenenter"",""1"",""3832""
","
","
","""event"",""trial"",""time""
""fullscreenenter"",""1"",""3832""
","
",,598.1,"<p> After digging and traveling for a while, you’ll be able to take a break at home base. </p><p>The game will last 20 minutes no matter what.</p><p>You will visit home base every 5 minutes, so, you will visit home base three times during the game.</p><br><p><img src='run_exp/static/images/task_images/home_base.jpg' height='600' width='auto'></p><button class=""jspsych-html-btn-unchosen""><img src=""run_exp/static/images/task_images/planet-01.jpg"" height=""50""></button><button class=""jspsych-html-btn-chosen""><img src=""run_exp/static/images/task_images/planet-02.jpg"" height=""50""></button><p><b>[press the space bar to lock in your answer]<b><br></p>",32,,,,,,,,,,,,,,,,,,,,,,,,
instruc_prac_game,24,236564,0.0-10.0-0.0,"""event"",""trial"",""time""
""fullscreenenter"",""1"",""3832""
","
","
","""event"",""trial"",""time""
""fullscreenenter"",""1"",""3832""
","
",,null,run_exp/static/audio/clip_9_practice.m4a,null,"<p> Are you ready to play a practice game? </p> <p>In this practice game, you'll be digging up barrels of gems. But, in the real game, you'll be digging up the gems themselves. </p>",,,,,,,,,,,,,,,,,,,,,,,
html-button-response,25,241781,0.0-10.0-1.0,"""event"",""trial"",""time""
""fullscreenenter"",""1"",""3832""
","
","
","""event"",""trial"",""time""
""fullscreenenter"",""1"",""3832""
","
",,5213.1,"<p> Are you ready to play a practice game? </p> <p>In this practice game, you'll be digging up barrels of gems. But, in the real game, you'll be digging up the gems themselves. </p>",,,,,,,0,,,,,,,,,,,,,,,,,,
alien_welcome_prac,26,246796,0.0-11.0-0.0,"""event"",""trial"",""time""
""fullscreenenter"",""1"",""3832""
","
","
","""event"",""trial"",""time""
""fullscreenenter"",""1"",""3832""
","
",,null,run_exp/static/images/task_images/aliens/practice_aliens/planet/alien_planet-5.jpg,null,,,,,,,,,,,,,,,,,,,,,,,,
land_prac,27,247303,0.0-11.0-1.0,"""event"",""trial"",""time""
""fullscreenenter"",""1"",""3832""
","
","
","""event"",""trial"",""time""
""fullscreenenter"",""1"",""3832""
","
",,null,run_exp/static/images/task_images/land.jpg,null,,,,,,,101,,,0,,,,,,,,,,,,,,
dig_prac,28,249315,0.0-11.0-2.0,"""event"",""trial"",""time""
""fullscreenenter"",""1"",""3832""
","
","
","""event"",""trial"",""time""
""fullscreenenter"",""1"",""3832""
","
",,,,,,,,,,,,"[{""stimulus"":""run_exp/static/images/task_images/dig.jpg"",""time"":0.5999999940395355},{""stimulus"":""run_exp/static/images/task_images/land.jpg"",""time"":672.3999999910593},{""stimulus"":""run_exp/static/images/task_images/dig.jpg"",""time"":1336.2000000029802}]",[],,,,,,,,,,,,,,,
harvest_prac,29,250323,0.0-11.0-3.0,"""event"",""trial"",""time""
""fullscreenenter"",""1"",""3832""
","
","
","""event"",""trial"",""time""
""fullscreenenter"",""1"",""3832""
","
",,null,run_exp/static/images/task_images/barrel_text.jpg,null,,,,,,,,,,,,,,,,,,,,,,,,
decision_prac,30,251952,0.0-11.0-4.0,"""event"",""trial"",""time""
""fullscreenenter"",""1"",""3832""
","
","
","""event"",""trial"",""time""
""fullscreenenter"",""1"",""3832""
","
",,1626.6,run_exp/static/images/task_images/land.jpg,65,,,,,,,,,,,1,,,,,,,,,,,,,
dig_prac,31,253962,0.0-12.0-0.0,"""event"",""trial"",""time""
""fullscreenenter"",""1"",""3832""
","
","
","""event"",""trial"",""time""
""fullscreenenter"",""1"",""3832""
","
",,,,,,,,,,,,"[{""stimulus"":""run_exp/static/images/task_images/dig.jpg"",""time"":0.4000000059604645},{""stimulus"":""run_exp/static/images/task_images/land.jpg"",""time"":669},{""stimulus"":""run_exp/static/images/task_images/dig.jpg"",""time"":1341.2000000029802}]",[],,,,,,,,,,,,,,,
harvest_prac,32,254971,0.0-12.0-1.0,"""event"",""trial"",""time""
""fullscreenenter"",""1"",""3832""
","
","
","""event"",""trial"",""time""
""fullscreenenter"",""1"",""3832""
","
",,null,run_exp/static/images/task_images/barrel_text.jpg,null,,,,,,,,,,,,,,,,,,,,,,,,
decision_prac,33,255736,0.0-12.0-2.0,"""event"",""trial"",""time""
""fullscreenenter"",""1"",""3832""
","
","
","""event"",""trial"",""time""
""fullscreenenter"",""1"",""3832""
","
",,763.1,run_exp/static/images/task_images/land.jpg,65,,,,,,,,,,,2,,,,,,,,,,,,,
dig_prac,34,257746,0.0-13.0-0.0,"""event"",""trial"",""time""
""fullscreenenter"",""1"",""3832""
","
","
","""event"",""trial"",""time""
""fullscreenenter"",""1"",""3832""
","
",,,,,,,,,,,,"[{""stimulus"":""run_exp/static/images/task_images/dig.jpg"",""time"":0.4000000059604645},{""stimulus"":""run_exp/static/images/task_images/land.jpg"",""time"":670},{""stimulus"":""run_exp/static/images/task_images/dig.jpg"",""time"":1342.300000011921}]",[],,,,,,,,,,,,,,,
harvest_prac,35,258755,0.0-13.0-1.0,"""event"",""trial"",""time""
""fullscreenenter"",""1"",""3832""
","
","
","""event"",""trial"",""time""
""fullscreenenter"",""1"",""3832""
","
",,null,run_exp/static/images/task_images/barrel_text.jpg,null,,,,,,,,,,,,,,,,,,,,,,,,
decision_prac,36,259572,0.0-13.0-2.0,"""event"",""trial"",""time""
""fullscreenenter"",""1"",""3832""
","
","
","""event"",""trial"",""time""
""fullscreenenter"",""1"",""3832""
","
",,815.4,run_exp/static/images/task_images/land.jpg,65,,,,,,,,,,,3,,,,,,,,,,,,,
dig_prac,37,261587,0.0-14.0-0.0,"""event"",""trial"",""time""
""fullscreenenter"",""1"",""3832""
","
","
","""event"",""trial"",""time""
""fullscreenenter"",""1"",""3832""
","
",,,,,,,,,,,,"[{""stimulus"":""run_exp/static/images/task_images/dig.jpg"",""time"":0.3999999910593033},{""stimulus"":""run_exp/static/images/task_images/land.jpg"",""time"":673.5999999940395},{""stimulus"":""run_exp/static/images/task_images/dig.jpg"",""time"":1337.5999999940395}]",[],,,,,,,,,,,,,,,
harvest_prac,38,262595,0.0-14.0-1.0,"""event"",""trial"",""time""
""fullscreenenter"",""1"",""3832""
","
","
","""event"",""trial"",""time""
""fullscreenenter"",""1"",""3832""
","
",,null,run_exp/static/images/task_images/barrel_text.jpg,null,,,,,,,,,,,,,,,,,,,,,,,,
decision_prac,39,263589,0.0-14.0-2.0,"""event"",""trial"",""time""
""fullscreenenter"",""1"",""3832""
","
","
","""event"",""trial"",""time""
""fullscreenenter"",""1"",""3832""
","
",,991.8,run_exp/static/images/task_images/land.jpg,65,,,,,,,,,,,4,,,,,,,,,,,,,
dig_prac,40,265603,0.0-15.0-0.0,"""event"",""trial"",""time""
""fullscreenenter"",""1"",""3832""
","
","
","""event"",""trial"",""time""
""fullscreenenter"",""1"",""3832""
","
",,,,,,,,,,,,"[{""stimulus"":""run_exp/static/images/task_images/dig.jpg"",""time"":0.4000000059604645},{""stimulus"":""run_exp/static/images/task_images/land.jpg"",""time"":672},{""stimulus"":""run_exp/static/images/task_images/dig.jpg"",""time"":1336.4000000059605}]",[],,,,,,,,,,,,,,,
harvest_prac,41,266611,0.0-15.0-1.0,"""event"",""trial"",""time""
""fullscreenenter"",""1"",""3832""
","
","
","""event"",""trial"",""time""
""fullscreenenter"",""1"",""3832""
","
",,null,run_exp/static/images/task_images/barrel_text.jpg,null,,,,,,,,,,,,,,,,,,,,,,,,
decision_prac,42,267267,0.0-15.0-2.0,"""event"",""trial"",""time""
""fullscreenenter"",""1"",""3832""
","
","
","""event"",""trial"",""time""
""fullscreenenter"",""1"",""3832""
","
",,653.5,run_exp/static/images/task_images/land.jpg,65,,,,,,,,,,,,1,,,,,,,,,,,,
quiz_instruc,43,274254,0.0-16.0-0.0,"""event"",""trial"",""time""
""fullscreenenter"",""1"",""3832""
","
","
","""event"",""trial"",""time""
""fullscreenenter"",""1"",""3832""
","
",,6980.5,run_exp/static/audio/clip_10_quiz.m4a,,,,,,,0,,,,,,,,,,,,,,,,,,
instruc_repeat,44,317228,0.0-16.0-1.0,"""event"",""trial"",""time""
""fullscreenenter"",""1"",""3832""
","
","
","""event"",""trial"",""time""
""fullscreenenter"",""1"",""3832""
","
",,null,"<p> Are you ready to play a practice game? </p> <p>In this practice game, you'll be digging up barrels of gems. But, in the real game, you'll be digging up the gems themselves. </p>",null,"<p>In this game, your goal is to collect as many gems as you can. That’s how you will win bonus money. </p> <p>The entire game will last 20 minutes no matter how many gems you collect or how many planets you visit. </p><p>To stay on a planet and dig again, press the letter A on your keyboard. To leave for a new planet, press the letter L.</p><p>The more you dig on a planet, the fewer gems you’ll get with each dig which is why you might consider leaving for a new planet. </p><p>When you arrive at a new planet, you’ll be greeted by an alien. What the alien looks like does not tell you anything about how much treasure is on the planet. </p>",,,,,,,,,,,,,,,,,,,,,,,
instruc_repeat_continue,45,319129,0.0-16.0-2.0,"""event"",""trial"",""time""
""fullscreenenter"",""1"",""3832""
","
","
","""event"",""trial"",""time""
""fullscreenenter"",""1"",""3832""
","
",,1897.1,"<p> Are you ready to play a practice game? </p> <p>In this practice game, you'll be digging up barrels of gems. But, in the real game, you'll be digging up the gems themselves. </p>",,,,,,,0,,,,,,,,,,,,,,,,,,
quiz_q_1_ask,46,329494,0.0-16.0-3.0,"""event"",""trial"",""time""
""fullscreenenter"",""1"",""3832""
","
","
","""event"",""trial"",""time""
""fullscreenenter"",""1"",""3832""
","
",,10360.6,run_exp/static/audio/clip_11_q1_ask.m4a,,,,,,,2,,,,,,,,,,,,,,,,,,
quiz_q_1_fb_correct,47,333484,0.0-17.0-0.0,"""event"",""trial"",""time""
""fullscreenenter"",""1"",""3832""
","
","
","""event"",""trial"",""time""
""fullscreenenter"",""1"",""3832""
","
",,null,run_exp/static/audio/clip_12_q1_correct.m4a,null,<p>That’s correct. You win extra money by collecting more gems.</p>,,,,,,,,,,,,,,,,,,,,,,,
quiz_q_2_ask,48,336362,0.0-17.0-1.0,"""event"",""trial"",""time""
""fullscreenenter"",""1"",""3832""
","
","
","""event"",""trial"",""time""
""fullscreenenter"",""1"",""3832""
","
",,2873.1,run_exp/static/audio/clip_14_q2_ask.m4a,,,,,,,1,,,,,,,,,,,,,,,,,,
quiz_q_2_fb_correct,49,340396,0.0-18.0-0.0,"""event"",""trial"",""time""
""fullscreenenter"",""1"",""3832""
","
","
","""event"",""trial"",""time""
""fullscreenenter"",""1"",""3832""
","
",,null,run_exp/static/audio/clip_15_q2_correct.m4a,null,<p>That’s correct. The experiment is 20 minutes no matter what.</p>,,,,,,,,,,,,,,,,,,,,,,,
quiz_q_3_ask,50,342588,0.0-18.0-1.0,"""event"",""trial"",""time""
""fullscreenenter"",""1"",""3832""
","
","
","""event"",""trial"",""time""
""fullscreenenter"",""1"",""3832""
","
",,2186.8,run_exp/static/audio/clip_17_q3_ask.m4a,,,,,,,1,,,,,,,,,,,,,,,,,,
quiz_q_3_fb_correct,51,346796,0.0-19.0-0.0,"""event"",""trial"",""time""
""fullscreenenter"",""1"",""3832""
","
","
","""event"",""trial"",""time""
""fullscreenenter"",""1"",""3832""
","
",,null,run_exp/static/audio/clip_18_q3_correct.m4a,null,<p> That’s correct. You press the letter L to travel to a new planet.</p>,,,,,,,,,,,,,,,,,,,,,,,
quiz_q_4_ask,52,349434,0.0-19.0-1.0,"""event"",""trial"",""time""
""fullscreenenter"",""1"",""3832""
","
","
","""event"",""trial"",""time""
""fullscreenenter"",""1"",""3832""
","
",,2635.3,run_exp/static/audio/clip_20_q4_ask.m4a,,,,,,,0,,,,,,,,,,,,,,,,,,
quiz_q_4_fb_correct,53,354987,0.0-20.0-0.0,"""event"",""trial"",""time""
""fullscreenenter"",""1"",""3832""
","
","
","""event"",""trial"",""time""
""fullscreenenter"",""1"",""3832""
","
",,null,run_exp/static/audio/clip_21_q4_correct.m4a,null,<p> That’s correct. The more you dig on a planet the fewer gems you’ll get with each dig. </p>,,,,,,,,,,,,,,,,,,,,,,,
quiz_q_5_ask,54,357043,0.0-20.0-1.0,"""event"",""trial"",""time""
""fullscreenenter"",""1"",""3832""
","
","
","""event"",""trial"",""time""
""fullscreenenter"",""1"",""3832""
","
",,2050.6,run_exp/static/audio/clip_23_q5_ask.m4a,,,,,,,1,,,,,,,,,,,,,,,,,,
quiz_q_5_fb_correct,55,362284,0.0-21.0-0.0,"""event"",""trial"",""time""
""fullscreenenter"",""1"",""3832""
","
","
","""event"",""trial"",""time""
""fullscreenenter"",""1"",""3832""
","
",,null,run_exp/static/audio/clip_24_q5_correct.m4a,null,<p> That’s correct. The alien tells you nothing about how much treasure is on the planet.</p>,,,,,,,,,,,,,,,,,,,,,,,
quiz_correct,56,365997,0.0-22.0-0.0,"""event"",""trial"",""time""
""fullscreenenter"",""1"",""3832""
","
","
","""event"",""trial"",""time""
""fullscreenenter"",""1"",""3832""
","
",,null,run_exp/static/audio/clip_26_correct_quiz.m4a,null,,,,,,,,,,,,,,,,,,,,,,,,
quiz_correct_continue,57,368137,0.0-22.0-1.0,"""event"",""trial"",""time""
""fullscreenenter"",""1"",""3832""
","
","
","""event"",""trial"",""time""
""fullscreenenter"",""1"",""3832""
","
",,2138,<p>Good job! You're now ready to move on to the real game!</p>,,,,,,,0,,,,,,,,,,,,,,,,,,
audio-keyboard-response,58,378412,0.0-22.0-2.0,"""event"",""trial"",""time""
""fullscreenenter"",""1"",""3832""
","
","
","""event"",""trial"",""time""
""fullscreenenter"",""1"",""3832""
","
",,null,run_exp/static/audio/clip_28_real_game.m4a,null,,,,,,,,,,,,,,,,,,,,,,,,
instruc_begin_exp_contine,59,380644,0.0-22.0-3.0,"""event"",""trial"",""time""
""fullscreenenter"",""1"",""3832""
","
","
","""event"",""trial"",""time""
""fullscreenenter"",""1"",""3832""
","
",,2228.8,"<p>Now that you know how  to dig for space treasure and travel to new planets,you can start exploring! </p><p>Do you want to go over the instructions again or get started with the real game?</p>",,,,,,,1,,,,,,1,,,,,,,,,,,,
alien_welcome,60,385651,0.0-23.0-0.0,"""event"",""trial"",""time""
""fullscreenenter"",""1"",""3832""
","
","
","""event"",""trial"",""time""
""fullscreenenter"",""1"",""3832""
","
",,null,run_exp/static/images/task_images/aliens/old_aliens/planet/alien_planet-62.jpg,null,,,,,,,,,,,,,62,"62,21,37,70,61,16,53,71,43,76,77,57,5,79,46,49,59,40,6,60,48,15,39,29",,,,,,,,,,
land,61,386155,0.0-23.0-1.0,"""event"",""trial"",""time""
""fullscreenenter"",""1"",""3832""
","
","
","""event"",""trial"",""time""
""fullscreenenter"",""1"",""3832""
","
",,null,run_exp/static/images/task_images/land.jpg,null,,,,,,,97,,,1,,,,,,,,,,,,,,
dig,62,388163,0.0-23.0-2.0,"""event"",""trial"",""time""
""fullscreenenter"",""1"",""3832""
","
","
","""event"",""trial"",""time""
""fullscreenenter"",""1"",""3832""
","
",,,,,,,,,,,,"[{""stimulus"":""run_exp/static/images/task_images/dig.jpg"",""time"":0.30000001192092896},{""stimulus"":""run_exp/static/images/task_images/land.jpg"",""time"":669.1000000089407},{""stimulus"":""run_exp/static/images/task_images/dig.jpg"",""time"":1342.7000000029802}]",[],1,,,,,,,,,,,,,,
harvest,63,389170,0.0-23.0-3.0,"""event"",""trial"",""time""
""fullscreenenter"",""1"",""3832""
","
","
","""event"",""trial"",""time""
""fullscreenenter"",""1"",""3832""
","
",,null,run_exp/static/images/task_images/gems/97.jpg,null,,,,,,,21,,,1,,,,,97,0.21230492,0.216494845,,,,,,,
decision,64,390999,0.0-23.0-4.0,"""event"",""trial"",""time""
""fullscreenenter"",""1"",""3832""
","
","
","""event"",""trial"",""time""
""fullscreenenter"",""1"",""3832""
","
",,1825.2,run_exp/static/images/task_images/land.jpg,65,,,,,,,21,,,1,,,,,,,,10354,1,0,FALSE,,,
dig,65,392187,0.0-24.0-0.0,"""event"",""trial"",""time""
""fullscreenenter"",""1"",""3832""
","
","
","""event"",""trial"",""time""
""fullscreenenter"",""1"",""3832""
","
",,,,,,,,,,,,"[{""stimulus"":""run_exp/static/images/task_images/dig.jpg"",""time"":0.5},{""stimulus"":""run_exp/static/images/task_images/land.jpg"",""time"":396.79999999701977},{""stimulus"":""run_exp/static/images/task_images/dig.jpg"",""time"":788.5999999940395}]",[],1,,,,,,,,,,,,,,
harvest,66,393194,0.0-24.0-1.0,"""event"",""trial"",""time""
""fullscreenenter"",""1"",""3832""
","
","
","""event"",""trial"",""time""
""fullscreenenter"",""1"",""3832""
","
",,null,run_exp/static/images/task_images/gems/21.jpg,null,,,,,,,3,,,1,,,,,21,0.119913858,0.142857143,,,,,,,
decision,67,393947,0.0-24.0-2.0,"""event"",""trial"",""time""
""fullscreenenter"",""1"",""3832""
","
","
","""event"",""trial"",""time""
""fullscreenenter"",""1"",""3832""
","
",,750.2,run_exp/static/images/task_images/land.jpg,65,,,,,,,3,,,1,,,,,,,,13301,1,1,FALSE,,,
dig,68,396202,0.0-25.0-0.0,"""event"",""trial"",""time""
""fullscreenenter"",""1"",""3832""
","
","
","""event"",""trial"",""time""
""fullscreenenter"",""1"",""3832""
","
",,,,,,,,,,,,"[{""stimulus"":""run_exp/static/images/task_images/dig.jpg"",""time"":0.6000000089406967},{""stimulus"":""run_exp/static/images/task_images/land.jpg"",""time"":753.9000000059605},{""stimulus"":""run_exp/static/images/task_images/dig.jpg"",""time"":1505.800000011921}]",[],1,,,,,,,,,,,,,,
harvest,69,397211,0.0-25.0-1.0,"""event"",""trial"",""time""
""fullscreenenter"",""1"",""3832""
","
","
","""event"",""trial"",""time""
""fullscreenenter"",""1"",""3832""
","
",,null,run_exp/static/images/task_images/gems/3.jpg,null,,,,,,,1,,,1,,,,,3,0.169650186,0.333333333,,,,,,,
decision,70,398823,0.0-25.0-2.0,"""event"",""trial"",""time""
""fullscreenenter"",""1"",""3832""
","
","
","""event"",""trial"",""time""
""fullscreenenter"",""1"",""3832""
","
",,1609.3,run_exp/static/images/task_images/land.jpg,76,,,,,,,1,,,1,,,,,,,,18176,1,2,TRUE,,,
travel,71,407219,0.0-26.0-0.0,"""event"",""trial"",""time""
""fullscreenenter"",""1"",""3832""
","
","
","""event"",""trial"",""time""
""fullscreenenter"",""1"",""3832""
","
",,,,,,,,,,,,"[{""stimulus"":""run_exp/static/images/task_images/rocket-01.jpg"",""time"":0.29999999701976776},{""stimulus"":""run_exp/static/images/task_images/rocket-02.jpg"",""time"":933.8999999910593},{""stimulus"":""run_exp/static/images/task_images/rocket-03.jpg"",""time"":1870},{""stimulus"":""run_exp/static/images/task_images/rocket-04.jpg"",""time"":2797.8999999910593},{""stimulus"":""run_exp/static/images/task_images/rocket-05.jpg"",""time"":3734.7000000029802},{""stimulus"":""run_exp/static/images/task_images/rocket-06.jpg"",""time"":4662},{""stimulus"":""run_exp/static/images/task_images/rocket-07.jpg"",""time"":5598},{""stimulus"":""run_exp/static/images/task_images/rocket-08.jpg"",""time"":6526.0999999940395},{""stimulus"":""run_exp/static/images/task_images/rocket-09.jpg"",""time"":7462.29999999702}]",[],1,,,,,,,,,,,,,,
alien_welcome,72,412229,0.0-26.0-1.0,"""event"",""trial"",""time""
""fullscreenenter"",""1"",""3832""
","
","
","""event"",""trial"",""time""
""fullscreenenter"",""1"",""3832""
","
",,null,run_exp/static/images/task_images/aliens/old_aliens/planet/alien_planet-21.jpg,null,,,,,,,,,,,,,21,"62,21,37,70,61,16,53,71,43,76,77,57,5,79,46,49,59,40,6,60,48,15,39,29",,,,,,,,,,
land,73,412739,0.0-26.0-2.0,"""event"",""trial"",""time""
""fullscreenenter"",""1"",""3832""
","
","
","""event"",""trial"",""time""
""fullscreenenter"",""1"",""3832""
","
",,null,run_exp/static/images/task_images/land.jpg,null,,,,,,,95,,,2,,,,,,,,,,,,,,
dig,74,414746,0.0-26.0-3.0,"""event"",""trial"",""time""
""fullscreenenter"",""1"",""3832""
","
","
","""event"",""trial"",""time""
""fullscreenenter"",""1"",""3832""
","
",,,,,,,,,,,,"[{""stimulus"":""run_exp/static/images/task_images/dig.jpg"",""time"":0.7000000029802322},{""stimulus"":""run_exp/static/images/task_images/land.jpg"",""time"":677.6000000089407},{""stimulus"":""run_exp/static/images/task_images/dig.jpg"",""time"":1342}]",[],2,,,,,,,,,,,,,,
harvest,75,415755,0.0-26.0-4.0,"""event"",""trial"",""time""
""fullscreenenter"",""1"",""3832""
","
","
","""event"",""trial"",""time""
""fullscreenenter"",""1"",""3832""
","
",,null,run_exp/static/images/task_images/gems/95.jpg,null,,,,,,,18,,,2,,,,,95,0.187469363,0.189473684,,,,,,,
decision,76,416442,0.0-26.0-5.0,"""event"",""trial"",""time""
""fullscreenenter"",""1"",""3832""
","
","
","""event"",""trial"",""time""
""fullscreenenter"",""1"",""3832""
","
",,684.2,run_exp/static/images/task_images/land.jpg,65,,,,,,,18,,,2,,,,,,,,35795,1,0,FALSE,,,
dig,77,418771,0.0-27.0-0.0,"""event"",""trial"",""time""
""fullscreenenter"",""1"",""3832""
","
","
","""event"",""trial"",""time""
""fullscreenenter"",""1"",""3832""
","
",,,,,,,,,,,,"[{""stimulus"":""run_exp/static/images/task_images/dig.jpg"",""time"":0.4000000059604645},{""stimulus"":""run_exp/static/images/task_images/land.jpg"",""time"":778.2000000029802},{""stimulus"":""run_exp/static/images/task_images/dig.jpg"",""time"":1546.4000000059605}]",[],2,,,,,,,,,,,,,,
harvest,78,419779,0.0-27.0-1.0,"""event"",""trial"",""time""
""fullscreenenter"",""1"",""3832""
","
","
","""event"",""trial"",""time""
""fullscreenenter"",""1"",""3832""
","
",,null,run_exp/static/images/task_images/gems/18.jpg,null,,,,,,,4,,,2,,,,,18,0.196979824,0.222222222,,,,,,,
decision,79,420291,0.0-27.0-2.0,"""event"",""trial"",""time""
""fullscreenenter"",""1"",""3832""
","
","
","""event"",""trial"",""time""
""fullscreenenter"",""1"",""3832""
","
",,510,run_exp/static/images/task_images/land.jpg,65,,,,,,,4,,,2,,,,,,,,39645,1,1,FALSE,,,
dig,80,422794,0.0-28.0-0.0,"""event"",""trial"",""time""
""fullscreenenter"",""1"",""3832""
","
","
","""event"",""trial"",""time""
""fullscreenenter"",""1"",""3832""
","
",,,,,,,,,,,,"[{""stimulus"":""run_exp/static/images/task_images/dig.jpg"",""time"":0.29999999701976776},{""stimulus"":""run_exp/static/images/task_images/land.jpg"",""time"":834},{""stimulus"":""run_exp/static/images/task_images/dig.jpg"",""time"":1666}]",[],2,,,,,,,,,,,,,,
harvest,81,423803,0.0-28.0-1.0,"""event"",""trial"",""time""
""fullscreenenter"",""1"",""3832""
","
","
","""event"",""trial"",""time""
""fullscreenenter"",""1"",""3832""
","
",,null,run_exp/static/images/task_images/gems/4.jpg,null,,,,,,,1,,,2,,,,,4,0.168997879,0.25,,,,,,,
decision,82,425796,0.0-28.0-2.0,"""event"",""trial"",""time""
""fullscreenenter"",""1"",""3832""
","
","
","""event"",""trial"",""time""
""fullscreenenter"",""1"",""3832""
","
",,1990.7,run_exp/static/images/task_images/land.jpg,76,,,,,,,1,,,2,,,,,,,,45149,1,2,TRUE,,,
travel,83,433803,0.0-29.0-0.0,"""event"",""trial"",""time""
""fullscreenenter"",""1"",""3832""
","
","
","""event"",""trial"",""time""
""fullscreenenter"",""1"",""3832""
","
",,,,,,,,,,,,"[{""stimulus"":""run_exp/static/images/task_images/rocket-01.jpg"",""time"":0.3999999910593033},{""stimulus"":""run_exp/static/images/task_images/rocket-02.jpg"",""time"":897.6999999880791},{""stimulus"":""run_exp/static/images/task_images/rocket-03.jpg"",""time"":1785.8999999910593},{""stimulus"":""run_exp/static/images/task_images/rocket-04.jpg"",""time"":2674.699999988079},{""stimulus"":""run_exp/static/images/task_images/rocket-05.jpg"",""time"":3562.199999988079},{""stimulus"":""run_exp/static/images/task_images/rocket-06.jpg"",""time"":4449.699999988079},{""stimulus"":""run_exp/static/images/task_images/rocket-07.jpg"",""time"":5337.79999999702},{""stimulus"":""run_exp/static/images/task_images/rocket-08.jpg"",""time"":6226},{""stimulus"":""run_exp/static/images/task_images/rocket-09.jpg"",""time"":7122.0999999940395}]",[],2,,,,,,,,,,,,,,
alien_welcome,84,438811,0.0-29.0-1.0,"""event"",""trial"",""time""
""fullscreenenter"",""1"",""3832""
","
","
","""event"",""trial"",""time""
""fullscreenenter"",""1"",""3832""
","
",,null,run_exp/static/images/task_images/aliens/old_aliens/planet/alien_planet-37.jpg,null,,,,,,,,,,,,,37,"62,21,37,70,61,16,53,71,43,76,77,57,5,79,46,49,59,40,6,60,48,15,39,29",,,,,,,,,,
land,85,439323,0.0-29.0-2.0,"""event"",""trial"",""time""
""fullscreenenter"",""1"",""3832""
","
","
","""event"",""trial"",""time""
""fullscreenenter"",""1"",""3832""
","
",,null,run_exp/static/images/task_images/land.jpg,null,,,,,,,101,,,3,,,,,,,,,,,,,,
dig,86,441330,0.0-29.0-3.0,"""event"",""trial"",""time""
""fullscreenenter"",""1"",""3832""
","
","
","""event"",""trial"",""time""
""fullscreenenter"",""1"",""3832""
","
",,,,,,,,,,,,"[{""stimulus"":""run_exp/static/images/task_images/dig.jpg"",""time"":0.3999999910593033},{""stimulus"":""run_exp/static/images/task_images/land.jpg"",""time"":669.2000000029802},{""stimulus"":""run_exp/static/images/task_images/dig.jpg"",""time"":1341}]",[],3,,,,,,,,,,,,,,
harvest,87,442339,0.0-29.0-4.0,"""event"",""trial"",""time""
""fullscreenenter"",""1"",""3832""
","
","
","""event"",""trial"",""time""
""fullscreenenter"",""1"",""3832""
","
",,null,run_exp/static/images/task_images/gems/101.jpg,null,,,,,,,55,,,3,,,,,101,0.549333789,0.544554455,,,,,,,
decision,88,442829,0.0-29.0-5.0,"""event"",""trial"",""time""
""fullscreenenter"",""1"",""3832""
","
","
","""event"",""trial"",""time""
""fullscreenenter"",""1"",""3832""
","
",,488,run_exp/static/images/task_images/land.jpg,65,,,,,,,55,,,3,,,,,,,,62182,1,0,FALSE,,,
dig,89,445354,0.0-30.0-0.0,"""event"",""trial"",""time""
""fullscreenenter"",""1"",""3832""
","
","
","""event"",""trial"",""time""
""fullscreenenter"",""1"",""3832""
","
",,,,,,,,,,,,"[{""stimulus"":""run_exp/static/images/task_images/dig.jpg"",""time"":0.5},{""stimulus"":""run_exp/static/images/task_images/land.jpg"",""time"":840.8999999910593},{""stimulus"":""run_exp/static/images/task_images/dig.jpg"",""time"":1681.5}]",[],3,,,,,,,,,,,,,,
harvest,90,446363,0.0-30.0-1.0,"""event"",""trial"",""time""
""fullscreenenter"",""1"",""3832""
","
","
","""event"",""trial"",""time""
""fullscreenenter"",""1"",""3832""
","
",,null,run_exp/static/images/task_images/gems/55.jpg,null,,,,,,,28,,,3,,,,,55,0.503291578,0.509090909,,,,,,,
decision,91,446927,0.0-30.0-2.0,"""event"",""trial"",""time""
""fullscreenenter"",""1"",""3832""
","
","
","""event"",""trial"",""time""
""fullscreenenter"",""1"",""3832""
","
",,561.9,run_exp/static/images/task_images/land.jpg,65,,,,,,,28,,,3,,,,,,,,66280,1,1,FALSE,,,
dig,92,449370,0.0-31.0-0.0,"""event"",""trial"",""time""
""fullscreenenter"",""1"",""3832""
","
","
","""event"",""trial"",""time""
""fullscreenenter"",""1"",""3832""
","
",,,,,,,,,,,,"[{""stimulus"":""run_exp/static/images/task_images/dig.jpg"",""time"":0.4000000059604645},{""stimulus"":""run_exp/static/images/task_images/land.jpg"",""time"":816.2999999970198},{""stimulus"":""run_exp/static/images/task_images/dig.jpg"",""time"":1631.2999999970198}]",[],3,,,,,,,,,,,,,,
harvest,93,450379,0.0-31.0-1.0,"""event"",""trial"",""time""
""fullscreenenter"",""1"",""3832""
","
","
","""event"",""trial"",""time""
""fullscreenenter"",""1"",""3832""
","
",,null,run_exp/static/images/task_images/gems/28.jpg,null,,,,,,,15,,,3,,,,,28,0.552683395,0.535714286,,,,,,,
decision,94,450800,0.0-31.0-2.0,"""event"",""trial"",""time""
""fullscreenenter"",""1"",""3832""
","
","
","""event"",""trial"",""time""
""fullscreenenter"",""1"",""3832""
","
",,416.9,run_exp/static/images/task_images/land.jpg,65,,,,,,,15,,,3,,,,,,,,70153,1,2,FALSE,,,
dig,95,453394,0.0-32.0-0.0,"""event"",""trial"",""time""
""fullscreenenter"",""1"",""3832""
","
","
","""event"",""trial"",""time""
""fullscreenenter"",""1"",""3832""
","
",,,,,,,,,,,,"[{""stimulus"":""run_exp/static/images/task_images/dig.jpg"",""time"":0.3999999910593033},{""stimulus"":""run_exp/static/images/task_images/land.jpg"",""time"":863},{""stimulus"":""run_exp/static/images/task_images/dig.jpg"",""time"":1727.2000000029802}]",[],3,,,,,,,,,,,,,,
harvest,96,454402,0.0-32.0-1.0,"""event"",""trial"",""time""
""fullscreenenter"",""1"",""3832""
","
","
","""event"",""trial"",""time""
""fullscreenenter"",""1"",""3832""
","
",,null,run_exp/static/images/task_images/gems/15.jpg,null,,,,,,,8,,,3,,,,,15,0.526504856,0.533333333,,,,,,,
decision,97,454916,0.0-32.0-2.0,"""event"",""trial"",""time""
""fullscreenenter"",""1"",""3832""
","
","
","""event"",""trial"",""time""
""fullscreenenter"",""1"",""3832""
","
",,511.3,run_exp/static/images/task_images/land.jpg,65,,,,,,,8,,,3,,,,,,,,74269,1,3,FALSE,,,
dig,98,457410,0.0-33.0-0.0,"""event"",""trial"",""time""
""fullscreenenter"",""1"",""3832""
","
","
","""event"",""trial"",""time""
""fullscreenenter"",""1"",""3832""
","
",,,,,,,,,,,,"[{""stimulus"":""run_exp/static/images/task_images/dig.jpg"",""time"":0.4000000059604645},{""stimulus"":""run_exp/static/images/task_images/land.jpg"",""time"":834.2000000029802},{""stimulus"":""run_exp/static/images/task_images/dig.jpg"",""time"":1666.2000000029802}]",[],3,,,,,,,,,,,,,,
harvest,99,458418,0.0-33.0-1.0,"""event"",""trial"",""time""
""fullscreenenter"",""1"",""3832""
","
","
","""event"",""trial"",""time""
""fullscreenenter"",""1"",""3832""
","
",,null,run_exp/static/images/task_images/gems/8.jpg,null,,,,,,,4,,,3,,,,,8,0.463684243,0.5,,,,,,,
decision,100,458825,0.0-33.0-2.0,"""event"",""trial"",""time""
""fullscreenenter"",""1"",""3832""
","
","
","""event"",""trial"",""time""
""fullscreenenter"",""1"",""3832""
","
",,403.3,run_exp/static/images/task_images/land.jpg,65,,,,,,,4,,,3,,,,,,,,78178,1,4,FALSE,,,
dig,101,461434,0.0-34.0-0.0,"""event"",""trial"",""time""
""fullscreenenter"",""1"",""3832""
","
","
","""event"",""trial"",""time""
""fullscreenenter"",""1"",""3832""
","
",,,,,,,,,,,,"[{""stimulus"":""run_exp/static/images/task_images/dig.jpg"",""time"":0.29999999701976776},{""stimulus"":""run_exp/static/images/task_images/land.jpg"",""time"":866.8999999910593},{""stimulus"":""run_exp/static/images/task_images/dig.jpg"",""time"":1738.8999999910593}]",[],3,,,,,,,,,,,,,,
harvest,102,462442,0.0-34.0-1.0,"""event"",""trial"",""time""
""fullscreenenter"",""1"",""3832""
","
","
","""event"",""trial"",""time""
""fullscreenenter"",""1"",""3832""
","
",,null,run_exp/static/images/task_images/gems/4.jpg,null,,,,,,,2,,,3,,,,,4,0.491937028,0.5,,,,,,,
decision,103,462804,0.0-34.0-2.0,"""event"",""trial"",""time""
""fullscreenenter"",""1"",""3832""
","
","
","""event"",""trial"",""time""
""fullscreenenter"",""1"",""3832""
","
",,358.8,run_exp/static/images/task_images/land.jpg,65,,,,,,,2,,,3,,,,,,,,82157,1,5,FALSE,,,
dig,104,465458,0.0-35.0-0.0,"""event"",""trial"",""time""
""fullscreenenter"",""1"",""3832""
","
","
","""event"",""trial"",""time""
""fullscreenenter"",""1"",""3832""
","
",,,,,,,,,,,,"[{""stimulus"":""run_exp/static/images/task_images/dig.jpg"",""time"":0.5},{""stimulus"":""run_exp/static/images/task_images/land.jpg"",""time"":890.0999999940395},{""stimulus"":""run_exp/static/images/task_images/dig.jpg"",""time"":1770.0999999940395}]",[],3,,,,,,,,,,,,,,
harvest,105,466467,0.0-35.0-1.0,"""event"",""trial"",""time""
""fullscreenenter"",""1"",""3832""
","
","
","""event"",""trial"",""time""
""fullscreenenter"",""1"",""3832""
","
",,null,run_exp/static/images/task_images/gems/2.jpg,null,,,,,,,1,,,3,,,,,2,0.417565619,0.5,,,,,,,
decision,106,467142,0.0-35.0-2.0,"""event"",""trial"",""time""
""fullscreenenter"",""1"",""3832""
","
","
","""event"",""trial"",""time""
""fullscreenenter"",""1"",""3832""
","
",,672.3,run_exp/static/images/task_images/land.jpg,65,,,,,,,1,,,3,,,,,,,,86495,1,6,FALSE,,,
dig,107,469474,0.0-36.0-0.0,"""event"",""trial"",""time""
""fullscreenenter"",""1"",""3832""
","
","
","""event"",""trial"",""time""
""fullscreenenter"",""1"",""3832""
","
",,,,,,,,,,,,"[{""stimulus"":""run_exp/static/images/task_images/dig.jpg"",""time"":0.4000000059604645},{""stimulus"":""run_exp/static/images/task_images/land.jpg"",""time"":784.2000000029802},{""stimulus"":""run_exp/static/images/task_images/dig.jpg"",""time"":1552}]",[],3,,,,,,,,,,,,,,
harvest,108,470483,0.0-36.0-1.0,"""event"",""trial"",""time""
""fullscreenenter"",""1"",""3832""
","
","
","""event"",""trial"",""time""
""fullscreenenter"",""1"",""3832""
","
",,null,run_exp/static/images/task_images/gems/1.jpg,null,,,,,,,0,,,3,,,,,1,0.397702936,0,,,,,,,
decision,109,470892,0.0-36.0-2.0,"""event"",""trial"",""time""
""fullscreenenter"",""1"",""3832""
","
","
","""event"",""trial"",""time""
""fullscreenenter"",""1"",""3832""
","
",,406.6,run_exp/static/images/task_images/land.jpg,65,,,,,,,0,,,3,,,,,,,,90245,1,7,FALSE,,,
dig,110,473498,0.0-37.0-0.0,"""event"",""trial"",""time""
""fullscreenenter"",""1"",""3832""
","
","
","""event"",""trial"",""time""
""fullscreenenter"",""1"",""3832""
","
",,,,,,,,,,,,"[{""stimulus"":""run_exp/static/images/task_images/dig.jpg"",""time"":0.4000000059604645},{""stimulus"":""run_exp/static/images/task_images/land.jpg"",""time"":872.2999999970198},{""stimulus"":""run_exp/static/images/task_images/dig.jpg"",""time"":1736.0999999940395}]",[],3,,,,,,,,,,,,,,
harvest,111,474507,0.0-37.0-1.0,"""event"",""trial"",""time""
""fullscreenenter"",""1"",""3832""
","
","
","""event"",""trial"",""time""
""fullscreenenter"",""1"",""3832""
","
",,null,run_exp/static/images/task_images/gems/0.jpg,null,,,,,,,0,,,3,,,,,0,0.505476269,NaN,,,,,,,
decision,112,475780,0.0-37.0-2.0,"""event"",""trial"",""time""
""fullscreenenter"",""1"",""3832""
","
","
","""event"",""trial"",""time""
""fullscreenenter"",""1"",""3832""
","
",,1270.8,run_exp/static/images/task_images/land.jpg,76,,,,,,,0,,,3,,,,,,,,95133,1,8,TRUE,,,
travel,113,484514,0.0-38.0-0.0,"""event"",""trial"",""time""
""fullscreenenter"",""1"",""3832""
","
","
","""event"",""trial"",""time""
""fullscreenenter"",""1"",""3832""
","
",,,,,,,,,,,,"[{""stimulus"":""run_exp/static/images/task_images/rocket-01.jpg"",""time"":0.4000000059604645},{""stimulus"":""run_exp/static/images/task_images/rocket-02.jpg"",""time"":978.6000000089407},{""stimulus"":""run_exp/static/images/task_images/rocket-03.jpg"",""time"":1946.5},{""stimulus"":""run_exp/static/images/task_images/rocket-04.jpg"",""time"":2915.7000000029802},{""stimulus"":""run_exp/static/images/task_images/rocket-05.jpg"",""time"":3882.7000000029802},{""stimulus"":""run_exp/static/images/task_images/rocket-06.jpg"",""time"":4850.20000000298},{""stimulus"":""run_exp/static/images/task_images/rocket-07.jpg"",""time"":5818.5},{""stimulus"":""run_exp/static/images/task_images/rocket-08.jpg"",""time"":6786.4000000059605},{""stimulus"":""run_exp/static/images/task_images/rocket-09.jpg"",""time"":7754.70000000298}]",[],3,,,,,,,,,,,,,,
alien_welcome,114,489523,0.0-38.0-1.0,"""event"",""trial"",""time""
""fullscreenenter"",""1"",""3832""
","
","
","""event"",""trial"",""time""
""fullscreenenter"",""1"",""3832""
","
",,null,run_exp/static/images/task_images/aliens/old_aliens/planet/alien_planet-70.jpg,null,,,,,,,,,,,,,70,"62,21,37,70,61,16,53,71,43,76,77,57,5,79,46,49,59,40,6,60,48,15,39,29",,,,,,,,,,
land,115,490027,0.0-38.0-2.0,"""event"",""trial"",""time""
""fullscreenenter"",""1"",""3832""
","
","
","""event"",""trial"",""time""
""fullscreenenter"",""1"",""3832""
","
",,null,run_exp/static/images/task_images/land.jpg,null,,,,,,,103,,,4,,,,,,,,,,,,,,
dig,116,492037,0.0-38.0-3.0,"""event"",""trial"",""time""
""fullscreenenter"",""1"",""3832""
","
","
","""event"",""trial"",""time""
""fullscreenenter"",""1"",""3832""
","
",,,,,,,,,,,,"[{""stimulus"":""run_exp/static/images/task_images/dig.jpg"",""time"":0.5},{""stimulus"":""run_exp/static/images/task_images/land.jpg"",""time"":677.2000000029802},{""stimulus"":""run_exp/static/images/task_images/dig.jpg"",""time"":1340.7999999970198}]",[],4,,,,,,,,,,,,,,
harvest,117,493043,0.0-38.0-4.0,"""event"",""trial"",""time""
""fullscreenenter"",""1"",""3832""
","
","
","""event"",""trial"",""time""
""fullscreenenter"",""1"",""3832""
","
",,null,run_exp/static/images/task_images/gems/103.jpg,null,,,,,,,42,,,4,,,,,103,0.412349992,0.40776699,,,,,,,
decision,118,493480,0.0-38.0-5.0,"""event"",""trial"",""time""
""fullscreenenter"",""1"",""3832""
","
","
","""event"",""trial"",""time""
""fullscreenenter"",""1"",""3832""
","
",,434.8,run_exp/static/images/task_images/land.jpg,65,,,,,,,42,,,4,,,,,,,,112834,1,0,FALSE,,,
dig,119,496058,0.0-39.0-0.0,"""event"",""trial"",""time""
""fullscreenenter"",""1"",""3832""
","
","
","""event"",""trial"",""time""
""fullscreenenter"",""1"",""3832""
","
",,,,,,,,,,,,"[{""stimulus"":""run_exp/static/images/task_images/dig.jpg"",""time"":0.4000000059604645},{""stimulus"":""run_exp/static/images/task_images/land.jpg"",""time"":860},{""stimulus"":""run_exp/static/images/task_images/dig.jpg"",""time"":1716}]",[],4,,,,,,,,,,,,,,
harvest,120,497067,0.0-39.0-1.0,"""event"",""trial"",""time""
""fullscreenenter"",""1"",""3832""
","
","
","""event"",""trial"",""time""
""fullscreenenter"",""1"",""3832""
","
",,null,run_exp/static/images/task_images/gems/42.jpg,null,,,,,,,22,,,4,,,,,42,0.515071735,0.523809524,,,,,,,
decision,121,497391,0.0-39.0-2.0,"""event"",""trial"",""time""
""fullscreenenter"",""1"",""3832""
","
","
","""event"",""trial"",""time""
""fullscreenenter"",""1"",""3832""
","
",,321.4,run_exp/static/images/task_images/land.jpg,65,,,,,,,22,,,4,,,,,,,,116744,1,1,FALSE,,,
dig,122,500083,0.0-40.0-0.0,"""event"",""trial"",""time""
""fullscreenenter"",""1"",""3832""
","
","
","""event"",""trial"",""time""
""fullscreenenter"",""1"",""3832""
","
",,,,,,,,,,,,"[{""stimulus"":""run_exp/static/images/task_images/dig.jpg"",""time"":0.5},{""stimulus"":""run_exp/static/images/task_images/land.jpg"",""time"":901.0999999940395},{""stimulus"":""run_exp/static/images/task_images/dig.jpg"",""time"":1788.4000000059605}]",[],4,,,,,,,,,,,,,,
harvest,123,501091,0.0-40.0-1.0,"""event"",""trial"",""time""
""fullscreenenter"",""1"",""3832""
","
","
","""event"",""trial"",""time""
""fullscreenenter"",""1"",""3832""
","
",,null,run_exp/static/images/task_images/gems/22.jpg,null,,,,,,,13,,,4,,,,,22,0.575794066,0.590909091,,,,,,,
decision,124,501511,0.0-40.0-2.0,"""event"",""trial"",""time""
""fullscreenenter"",""1"",""3832""
","
","
","""event"",""trial"",""time""
""fullscreenenter"",""1"",""3832""
","
",,418,run_exp/static/images/task_images/land.jpg,65,,,,,,,13,,,4,,,,,,,,120864,1,2,FALSE,,,
dig,125,504106,0.0-41.0-0.0,"""event"",""trial"",""time""
""fullscreenenter"",""1"",""3832""
","
","
","""event"",""trial"",""time""
""fullscreenenter"",""1"",""3832""
","
",,,,,,,,,,,,"[{""stimulus"":""run_exp/static/images/task_images/dig.jpg"",""time"":0.29999999701976776},{""stimulus"":""run_exp/static/images/task_images/land.jpg"",""time"":868.8999999910593},{""stimulus"":""run_exp/static/images/task_images/dig.jpg"",""time"":1725.0999999940395}]",[],4,,,,,,,,,,,,,,
harvest,126,505115,0.0-41.0-1.0,"""event"",""trial"",""time""
""fullscreenenter"",""1"",""3832""
","
","
","""event"",""trial"",""time""
""fullscreenenter"",""1"",""3832""
","
",,null,run_exp/static/images/task_images/gems/13.jpg,null,,,,,,,6,,,4,,,,,13,0.47286141,0.461538462,,,,,,,
decision,127,505498,0.0-41.0-2.0,"""event"",""trial"",""time""
""fullscreenenter"",""1"",""3832""
","
","
","""event"",""trial"",""time""
""fullscreenenter"",""1"",""3832""
","
",,380.6,run_exp/static/images/task_images/land.jpg,65,,,,,,,6,,,4,,,,,,,,124851,1,3,FALSE,,,
dig,128,508131,0.0-42.0-0.0,"""event"",""trial"",""time""
""fullscreenenter"",""1"",""3832""
","
","
","""event"",""trial"",""time""
""fullscreenenter"",""1"",""3832""
","
",,,,,,,,,,,,"[{""stimulus"":""run_exp/static/images/task_images/dig.jpg"",""time"":0.29999999701976776},{""stimulus"":""run_exp/static/images/task_images/land.jpg"",""time"":876.2999999970198},{""stimulus"":""run_exp/static/images/task_images/dig.jpg"",""time"":1748.2000000029802}]",[],4,,,,,,,,,,,,,,
harvest,129,509139,0.0-42.0-1.0,"""event"",""trial"",""time""
""fullscreenenter"",""1"",""3832""
","
","
","""event"",""trial"",""time""
""fullscreenenter"",""1"",""3832""
","
",,null,run_exp/static/images/task_images/gems/6.jpg,null,,,,,,,3,,,4,,,,,6,0.518509762,0.5,,,,,,,
decision,130,509547,0.0-42.0-2.0,"""event"",""trial"",""time""
""fullscreenenter"",""1"",""3832""
","
","
","""event"",""trial"",""time""
""fullscreenenter"",""1"",""3832""
","
",,406.1,run_exp/static/images/task_images/land.jpg,65,,,,,,,3,,,4,,,,,,,,128900,1,4,FALSE,,,
dig,131,512156,0.0-43.0-0.0,"""event"",""trial"",""time""
""fullscreenenter"",""1"",""3832""
","
","
","""event"",""trial"",""time""
""fullscreenenter"",""1"",""3832""
","
",,,,,,,,,,,,"[{""stimulus"":""run_exp/static/images/task_images/dig.jpg"",""time"":0.3999999910593033},{""stimulus"":""run_exp/static/images/task_images/land.jpg"",""time"":873.5999999940395},{""stimulus"":""run_exp/static/images/task_images/dig.jpg"",""time"":1737.5999999940395}]",[],4,,,,,,,,,,,,,,
harvest,132,513163,0.0-43.0-1.0,"""event"",""trial"",""time""
""fullscreenenter"",""1"",""3832""
","
","
","""event"",""trial"",""time""
""fullscreenenter"",""1"",""3832""
","
",,null,run_exp/static/images/task_images/gems/3.jpg,null,,,,,,,2,,,4,,,,,3,0.500991903,0.666666667,,,,,,,
decision,133,513643,0.0-43.0-2.0,"""event"",""trial"",""time""
""fullscreenenter"",""1"",""3832""
","
","
","""event"",""trial"",""time""
""fullscreenenter"",""1"",""3832""
","
",,478.4,run_exp/static/images/task_images/land.jpg,65,,,,,,,2,,,4,,,,,,,,132996,1,5,FALSE,,,
dig,134,516171,0.0-44.0-0.0,"""event"",""trial"",""time""
""fullscreenenter"",""1"",""3832""
","
","
","""event"",""trial"",""time""
""fullscreenenter"",""1"",""3832""
","
",,,,,,,,,,,,"[{""stimulus"":""run_exp/static/images/task_images/dig.jpg"",""time"":0.4000000059604645},{""stimulus"":""run_exp/static/images/task_images/land.jpg"",""time"":842.5},{""stimulus"":""run_exp/static/images/task_images/dig.jpg"",""time"":1682.2000000029802}]",[],4,,,,,,,,,,,,,,
harvest,135,517179,0.0-44.0-1.0,"""event"",""trial"",""time""
""fullscreenenter"",""1"",""3832""
","
","
","""event"",""trial"",""time""
""fullscreenenter"",""1"",""3832""
","
",,null,run_exp/static/images/task_images/gems/2.jpg,null,,,,,,,1,,,4,,,,,2,0.485701985,0.5,,,,,,,
decision,136,517632,0.0-44.0-2.0,"""event"",""trial"",""time""
""fullscreenenter"",""1"",""3832""
","
","
","""event"",""trial"",""time""
""fullscreenenter"",""1"",""3832""
","
",,450.4,run_exp/static/images/task_images/land.jpg,65,,,,,,,1,,,4,,,,,,,,136985,1,6,FALSE,,,
dig,137,520186,0.0-45.0-0.0,"""event"",""trial"",""time""
""fullscreenenter"",""1"",""3832""
","
","
","""event"",""trial"",""time""
""fullscreenenter"",""1"",""3832""
","
",,,,,,,,,,,,"[{""stimulus"":""run_exp/static/images/task_images/dig.jpg"",""time"":0.5},{""stimulus"":""run_exp/static/images/task_images/land.jpg"",""time"":855.4000000059605},{""stimulus"":""run_exp/static/images/task_images/dig.jpg"",""time"":1703.4000000059605}]",[],4,,,,,,,,,,,,,,
harvest,138,521196,0.0-45.0-1.0,"""event"",""trial"",""time""
""fullscreenenter"",""1"",""3832""
","
","
","""event"",""trial"",""time""
""fullscreenenter"",""1"",""3832""
","
",,null,run_exp/static/images/task_images/gems/1.jpg,null,,,,,,,1,,,4,,,,,1,0.507812937,1,,,,,,,
decision,139,522450,0.0-45.0-2.0,"""event"",""trial"",""time""
""fullscreenenter"",""1"",""3832""
","
","
","""event"",""trial"",""time""
""fullscreenenter"",""1"",""3832""
","
",,1252.2,run_exp/static/images/task_images/land.jpg,76,,,,,,,1,,,4,,,,,,,,141803,1,7,TRUE,,,
travel,140,531202,0.0-46.0-0.0,"""event"",""trial"",""time""
""fullscreenenter"",""1"",""3832""
","
","
","""event"",""trial"",""time""
""fullscreenenter"",""1"",""3832""
","
",,,,,,,,,,,,"[{""stimulus"":""run_exp/static/images/task_images/rocket-01.jpg"",""time"":0.29999999701976776},{""stimulus"":""run_exp/static/images/task_images/rocket-02.jpg"",""time"":979},{""stimulus"":""run_exp/static/images/task_images/rocket-03.jpg"",""time"":1947.1000000089407},{""stimulus"":""run_exp/static/images/task_images/rocket-04.jpg"",""time"":2914.9000000059605},{""stimulus"":""run_exp/static/images/task_images/rocket-05.jpg"",""time"":3891.2000000029802},{""stimulus"":""run_exp/static/images/task_images/rocket-06.jpg"",""time"":4859.29999999702},{""stimulus"":""run_exp/static/images/task_images/rocket-07.jpg"",""time"":5835},{""stimulus"":""run_exp/static/images/task_images/rocket-08.jpg"",""time"":6803.29999999702},{""stimulus"":""run_exp/static/images/task_images/rocket-09.jpg"",""time"":7771.79999999702}]",[],4,,,,,,,,,,,,,,
alien_welcome,141,536211,0.0-46.0-1.0,"""event"",""trial"",""time""
""fullscreenenter"",""1"",""3832""
","
","
","""event"",""trial"",""time""
""fullscreenenter"",""1"",""3832""
","
",,null,run_exp/static/images/task_images/aliens/old_aliens/planet/alien_planet-61.jpg,null,,,,,,,,,,,,,61,"62,21,37,70,61,16,53,71,43,76,77,57,5,79,46,49,59,40,6,60,48,15,39,29",,,,,,,,,,
land,142,536715,0.0-46.0-2.0,"""event"",""trial"",""time""
""fullscreenenter"",""1"",""3832""
","
","
","""event"",""trial"",""time""
""fullscreenenter"",""1"",""3832""
","
",,null,run_exp/static/images/task_images/land.jpg,null,,,,,,,108,,,5,,,,,,,,,,,,,,
dig,143,538723,0.0-46.0-3.0,"""event"",""trial"",""time""
""fullscreenenter"",""1"",""3832""
","
","
","""event"",""trial"",""time""
""fullscreenenter"",""1"",""3832""
","
",,,,,,,,,,,,"[{""stimulus"":""run_exp/static/images/task_images/dig.jpg"",""time"":0.6000000089406967},{""stimulus"":""run_exp/static/images/task_images/land.jpg"",""time"":677.5},{""stimulus"":""run_exp/static/images/task_images/dig.jpg"",""time"":1341.2000000029802}]",[],5,,,,,,,,,,,,,,
harvest,144,539731,0.0-46.0-4.0,"""event"",""trial"",""time""
""fullscreenenter"",""1"",""3832""
","
","
","""event"",""trial"",""time""
""fullscreenenter"",""1"",""3832""
","
",,null,run_exp/static/images/task_images/gems/108.jpg,null,,,,,,,53,,,5,,,,,108,0.49362973,0.490740741,,,,,,,
decision,145,540122,0.0-46.0-5.0,"""event"",""trial"",""time""
""fullscreenenter"",""1"",""3832""
","
","
","""event"",""trial"",""time""
""fullscreenenter"",""1"",""3832""
","
",,388.3,run_exp/static/images/task_images/land.jpg,65,,,,,,,53,,,5,,,,,,,,159475,1,0,FALSE,,,
dig,146,542747,0.0-47.0-0.0,"""event"",""trial"",""time""
""fullscreenenter"",""1"",""3832""
","
","
","""event"",""trial"",""time""
""fullscreenenter"",""1"",""3832""
","
",,,,,,,,,,,,"[{""stimulus"":""run_exp/static/images/task_images/dig.jpg"",""time"":0.4000000059604645},{""stimulus"":""run_exp/static/images/task_images/land.jpg"",""time"":879.4000000059605},{""stimulus"":""run_exp/static/images/task_images/dig.jpg"",""time"":1743.5}]",[],5,,,,,,,,,,,,,,
harvest,147,543755,0.0-47.0-1.0,"""event"",""trial"",""time""
""fullscreenenter"",""1"",""3832""
","
","
","""event"",""trial"",""time""
""fullscreenenter"",""1"",""3832""
","
",,null,run_exp/static/images/task_images/gems/53.jpg,null,,,,,,,27,,,5,,,,,53,0.518575359,0.509433962,,,,,,,
decision,148,544202,0.0-47.0-2.0,"""event"",""trial"",""time""
""fullscreenenter"",""1"",""3832""
","
","
","""event"",""trial"",""time""
""fullscreenenter"",""1"",""3832""
","
",,444.7,run_exp/static/images/task_images/land.jpg,65,,,,,,,27,,,5,,,,,,,,163555,1,1,FALSE,,,
dig,149,546762,0.0-48.0-0.0,"""event"",""trial"",""time""
""fullscreenenter"",""1"",""3832""
","
","
","""event"",""trial"",""time""
""fullscreenenter"",""1"",""3832""
","
",,,,,,,,,,,,"[{""stimulus"":""run_exp/static/images/task_images/dig.jpg"",""time"":1},{""stimulus"":""run_exp/static/images/task_images/land.jpg"",""time"":860.2000000029802},{""stimulus"":""run_exp/static/images/task_images/dig.jpg"",""time"":1708.2999999970198}]",[],5,,,,,,,,,,,,,,
harvest,150,547771,0.0-48.0-1.0,"""event"",""trial"",""time""
""fullscreenenter"",""1"",""3832""
","
","
","""event"",""trial"",""time""
""fullscreenenter"",""1"",""3832""
","
",,null,run_exp/static/images/task_images/gems/27.jpg,null,,,,,,,11,,,5,,,,,27,0.41373893,0.407407407,,,,,,,
decision,151,548296,0.0-48.0-2.0,"""event"",""trial"",""time""
""fullscreenenter"",""1"",""3832""
","
","
","""event"",""trial"",""time""
""fullscreenenter"",""1"",""3832""
","
",,522.4,run_exp/static/images/task_images/land.jpg,65,,,,,,,11,,,5,,,,,,,,167649,1,2,FALSE,,,
dig,152,550779,0.0-49.0-0.0,"""event"",""trial"",""time""
""fullscreenenter"",""1"",""3832""
","
","
","""event"",""trial"",""time""
""fullscreenenter"",""1"",""3832""
","
",,,,,,,,,,,,"[{""stimulus"":""run_exp/static/images/task_images/dig.jpg"",""time"":0.4000000059604645},{""stimulus"":""run_exp/static/images/task_images/land.jpg"",""time"":829.7999999970198},{""stimulus"":""run_exp/static/images/task_images/dig.jpg"",""time"":1653.5}]",[],5,,,,,,,,,,,,,,
harvest,153,551787,0.0-49.0-1.0,"""event"",""trial"",""time""
""fullscreenenter"",""1"",""3832""
","
","
","""event"",""trial"",""time""
""fullscreenenter"",""1"",""3832""
","
",,null,run_exp/static/images/task_images/gems/11.jpg,null,,,,,,,6,,,5,,,,,11,0.523496713,0.545454545,,,,,,,
decision,154,552420,0.0-49.0-2.0,"""event"",""trial"",""time""
""fullscreenenter"",""1"",""3832""
","
","
","""event"",""trial"",""time""
""fullscreenenter"",""1"",""3832""
","
",,630.7,run_exp/static/images/task_images/land.jpg,65,,,,,,,6,,,5,,,,,,,,171773,1,3,FALSE,,,
dig,155,554803,0.0-50.0-0.0,"""event"",""trial"",""time""
""fullscreenenter"",""1"",""3832""
","
","
","""event"",""trial"",""time""
""fullscreenenter"",""1"",""3832""
","
",,,,,,,,,,,,"[{""stimulus"":""run_exp/static/images/task_images/dig.jpg"",""time"":0.699999988079071},{""stimulus"":""run_exp/static/images/task_images/land.jpg"",""time"":793.1999999880791},{""stimulus"":""run_exp/static/images/task_images/dig.jpg"",""time"":1585.3999999910593}]",[],5,,,,,,,,,,,,,,
harvest,156,555811,0.0-50.0-1.0,"""event"",""trial"",""time""
""fullscreenenter"",""1"",""3832""
","
","
","""event"",""trial"",""time""
""fullscreenenter"",""1"",""3832""
","
",,null,run_exp/static/images/task_images/gems/6.jpg,null,,,,,,,3,,,5,,,,,6,0.42652172,0.5,,,,,,,
decision,157,556143,0.0-50.0-2.0,"""event"",""trial"",""time""
""fullscreenenter"",""1"",""3832""
","
","
","""event"",""trial"",""time""
""fullscreenenter"",""1"",""3832""
","
",,328.9,run_exp/static/images/task_images/land.jpg,65,,,,,,,3,,,5,,,,,,,,175496,1,4,FALSE,,,
dig,158,558827,0.0-51.0-0.0,"""event"",""trial"",""time""
""fullscreenenter"",""1"",""3832""
","
","
","""event"",""trial"",""time""
""fullscreenenter"",""1"",""3832""
","
",,,,,,,,,,,,"[{""stimulus"":""run_exp/static/images/task_images/dig.jpg"",""time"":0.5},{""stimulus"":""run_exp/static/images/task_images/land.jpg"",""time"":893.2999999970198},{""stimulus"":""run_exp/static/images/task_images/dig.jpg"",""time"":1789.6000000089407}]",[],5,,,,,,,,,,,,,,
harvest,159,559835,0.0-51.0-1.0,"""event"",""trial"",""time""
""fullscreenenter"",""1"",""3832""
","
","
","""event"",""trial"",""time""
""fullscreenenter"",""1"",""3832""
","
",,null,run_exp/static/images/task_images/gems/3.jpg,null,,,,,,,2,,,5,,,,,3,0.504635117,0.666666667,,,,,,,
decision,160,560170,0.0-51.0-2.0,"""event"",""trial"",""time""
""fullscreenenter"",""1"",""3832""
","
","
","""event"",""trial"",""time""
""fullscreenenter"",""1"",""3832""
","
",,332.5,run_exp/static/images/task_images/land.jpg,65,,,,,,,2,,,5,,,,,,,,179523,1,5,FALSE,,,
dig,161,562851,0.0-52.0-0.0,"""event"",""trial"",""time""
""fullscreenenter"",""1"",""3832""
","
","
","""event"",""trial"",""time""
""fullscreenenter"",""1"",""3832""
","
",,,,,,,,,,,,"[{""stimulus"":""run_exp/static/images/task_images/dig.jpg"",""time"":0.5},{""stimulus"":""run_exp/static/images/task_images/land.jpg"",""time"":898.1999999880791},{""stimulus"":""run_exp/static/images/task_images/dig.jpg"",""time"":1786.699999988079}]",[],5,,,,,,,,,,,,,,
harvest,162,563859,0.0-52.0-1.0,"""event"",""trial"",""time""
""fullscreenenter"",""1"",""3832""
","
","
","""event"",""trial"",""time""
""fullscreenenter"",""1"",""3832""
","
",,null,run_exp/static/images/task_images/gems/2.jpg,null,,,,,,,1,,,5,,,,,2,0.479619607,0.5,,,,,,,
decision,163,564117,0.0-52.0-2.0,"""event"",""trial"",""time""
""fullscreenenter"",""1"",""3832""
","
","
","""event"",""trial"",""time""
""fullscreenenter"",""1"",""3832""
","
",,256.4,run_exp/static/images/task_images/land.jpg,65,,,,,,,1,,,5,,,,,,,,183470,1,6,FALSE,,,
dig,164,566866,0.0-53.0-0.0,"""event"",""trial"",""time""
""fullscreenenter"",""1"",""3832""
","
","
","""event"",""trial"",""time""
""fullscreenenter"",""1"",""3832""
","
",,,,,,,,,,,,"[{""stimulus"":""run_exp/static/images/task_images/dig.jpg"",""time"":0.5},{""stimulus"":""run_exp/static/images/task_images/land.jpg"",""time"":921.0999999940395},{""stimulus"":""run_exp/static/images/task_images/dig.jpg"",""time"":1833.199999988079}]",[],5,,,,,,,,,,,,,,
harvest,165,567875,0.0-53.0-1.0,"""event"",""trial"",""time""
""fullscreenenter"",""1"",""3832""
","
","
","""event"",""trial"",""time""
""fullscreenenter"",""1"",""3832""
","
",,null,run_exp/static/images/task_images/gems/1.jpg,null,,,,,,,0,,,5,,,,,1,0.452508661,0,,,,,,,
decision,166,568429,0.0-53.0-2.0,"""event"",""trial"",""time""
""fullscreenenter"",""1"",""3832""
","
","
","""event"",""trial"",""time""
""fullscreenenter"",""1"",""3832""
","
",,545.7,run_exp/static/images/task_images/land.jpg,65,,,,,,,0,,,5,,,,,,,,187782,1,7,FALSE,,,
dig,167,570891,0.0-54.0-0.0,"""event"",""trial"",""time""
""fullscreenenter"",""1"",""3832""
","
","
","""event"",""trial"",""time""
""fullscreenenter"",""1"",""3832""
","
",,,,,,,,,,,,"[{""stimulus"":""run_exp/static/images/task_images/dig.jpg"",""time"":0.5},{""stimulus"":""run_exp/static/images/task_images/land.jpg"",""time"":824.5999999940395},{""stimulus"":""run_exp/static/images/task_images/dig.jpg"",""time"":1640.5999999940395}]",[],5,,,,,,,,,,,,,,
harvest,168,571899,0.0-54.0-1.0,"""event"",""trial"",""time""
""fullscreenenter"",""1"",""3832""
","
","
","""event"",""trial"",""time""
""fullscreenenter"",""1"",""3832""
","
",,null,run_exp/static/images/task_images/gems/0.jpg,null,,,,,,,0,,,5,,,,,0,0.54018528,NaN,,,,,,,
decision,169,572983,0.0-54.0-2.0,"""event"",""trial"",""time""
""fullscreenenter"",""1"",""3832""
","
","
","""event"",""trial"",""time""
""fullscreenenter"",""1"",""3832""
","
",,1082.4,run_exp/static/images/task_images/land.jpg,76,,,,,,,0,,,5,,,,,,,,192337,1,8,TRUE,,,
travel,170,581907,0.0-55.0-0.0,"""event"",""trial"",""time""
""fullscreenenter"",""1"",""3832""
","
","
","""event"",""trial"",""time""
""fullscreenenter"",""1"",""3832""
","
",,,,,,,,,,,,"[{""stimulus"":""run_exp/static/images/task_images/rocket-01.jpg"",""time"":0.4000000059604645},{""stimulus"":""run_exp/static/images/task_images/rocket-02.jpg"",""time"":997.5},{""stimulus"":""run_exp/static/images/task_images/rocket-03.jpg"",""time"":1989.7000000029802},{""stimulus"":""run_exp/static/images/task_images/rocket-04.jpg"",""time"":2973.9000000059605},{""stimulus"":""run_exp/static/images/task_images/rocket-05.jpg"",""time"":3966.300000011921},{""stimulus"":""run_exp/static/images/task_images/rocket-06.jpg"",""time"":4957.70000000298},{""stimulus"":""run_exp/static/images/task_images/rocket-07.jpg"",""time"":5949.9000000059605},{""stimulus"":""run_exp/static/images/task_images/rocket-08.jpg"",""time"":6933.600000008941},{""stimulus"":""run_exp/static/images/task_images/rocket-09.jpg"",""time"":7925.70000000298}]",[],5,,,,,,,,,,,,,,
alien_welcome,171,586914,0.0-55.0-1.0,"""event"",""trial"",""time""
""fullscreenenter"",""1"",""3832""
","
","
","""event"",""trial"",""time""
""fullscreenenter"",""1"",""3832""
","
",,null,run_exp/static/images/task_images/aliens/old_aliens/planet/alien_planet-16.jpg,null,,,,,,,,,,,,,16,"62,21,37,70,61,16,53,71,43,76,77,57,5,79,46,49,59,40,6,60,48,15,39,29",,,,,,,,,,
land,172,587419,0.0-55.0-2.0,"""event"",""trial"",""time""
""fullscreenenter"",""1"",""3832""
","
","
","""event"",""trial"",""time""
""fullscreenenter"",""1"",""3832""
","
",,null,run_exp/static/images/task_images/land.jpg,null,,,,,,,101,,,6,,,,,,,,,,,,,,
dig,173,589426,0.0-55.0-3.0,"""event"",""trial"",""time""
""fullscreenenter"",""1"",""3832""
","
","
","""event"",""trial"",""time""
""fullscreenenter"",""1"",""3832""
","
",,,,,,,,,,,,"[{""stimulus"":""run_exp/static/images/task_images/dig.jpg"",""time"":0.699999988079071},{""stimulus"":""run_exp/static/images/task_images/land.jpg"",""time"":676.8999999910593},{""stimulus"":""run_exp/static/images/task_images/dig.jpg"",""time"":1340.8999999910593}]",[],6,,,,,,,,,,,,,,
harvest,174,590435,0.0-55.0-4.0,"""event"",""trial"",""time""
""fullscreenenter"",""1"",""3832""
","
","
","""event"",""trial"",""time""
""fullscreenenter"",""1"",""3832""
","
",,null,run_exp/static/images/task_images/gems/101.jpg,null,,,,,,,77,,,6,,,,,101,0.759970083,0.762376238,,,,,,,
decision,175,590959,0.0-55.0-5.0,"""event"",""trial"",""time""
""fullscreenenter"",""1"",""3832""
","
","
","""event"",""trial"",""time""
""fullscreenenter"",""1"",""3832""
","
",,521.1,run_exp/static/images/task_images/land.jpg,65,,,,,,,77,,,6,,,,,,,,210312,1,0,FALSE,,,
dig,176,593451,0.0-56.0-0.0,"""event"",""trial"",""time""
""fullscreenenter"",""1"",""3832""
","
","
","""event"",""trial"",""time""
""fullscreenenter"",""1"",""3832""
","
",,,,,,,,,,,,"[{""stimulus"":""run_exp/static/images/task_images/dig.jpg"",""time"":0.3999999910593033},{""stimulus"":""run_exp/static/images/task_images/land.jpg"",""time"":836},{""stimulus"":""run_exp/static/images/task_images/dig.jpg"",""time"":1659.3999999910593}]",[],6,,,,,,,,,,,,,,
harvest,177,594459,0.0-56.0-1.0,"""event"",""trial"",""time""
""fullscreenenter"",""1"",""3832""
","
","
","""event"",""trial"",""time""
""fullscreenenter"",""1"",""3832""
","
",,null,run_exp/static/images/task_images/gems/77.jpg,null,,,,,,,63,,,6,,,,,77,0.819867073,0.818181818,,,,,,,
decision,178,594926,0.0-56.0-2.0,"""event"",""trial"",""time""
""fullscreenenter"",""1"",""3832""
","
","
","""event"",""trial"",""time""
""fullscreenenter"",""1"",""3832""
","
",,464.7,run_exp/static/images/task_images/land.jpg,65,,,,,,,63,,,6,,,,,,,,214279,1,1,FALSE,,,
dig,179,597474,0.0-57.0-0.0,"""event"",""trial"",""time""
""fullscreenenter"",""1"",""3832""
","
","
","""event"",""trial"",""time""
""fullscreenenter"",""1"",""3832""
","
",,,,,,,,,,,,"[{""stimulus"":""run_exp/static/images/task_images/dig.jpg"",""time"":0.30000001192092896},{""stimulus"":""run_exp/static/images/task_images/land.jpg"",""time"":855},{""stimulus"":""run_exp/static/images/task_images/dig.jpg"",""time"":1694.6000000089407}]",[],6,,,,,,,,,,,,,,
harvest,180,598483,0.0-57.0-1.0,"""event"",""trial"",""time""
""fullscreenenter"",""1"",""3832""
","
","
","""event"",""trial"",""time""
""fullscreenenter"",""1"",""3832""
","
",,null,run_exp/static/images/task_images/gems/63.jpg,null,,,,,,,51,,,6,,,,,63,0.803000445,0.80952381,,,,,,,
decision,181,598914,0.0-57.0-2.0,"""event"",""trial"",""time""
""fullscreenenter"",""1"",""3832""
","
","
","""event"",""trial"",""time""
""fullscreenenter"",""1"",""3832""
","
",,428.5,run_exp/static/images/task_images/land.jpg,65,,,,,,,51,,,6,,,,,,,,218267,1,2,FALSE,,,
dig,182,601499,0.0-58.0-0.0,"""event"",""trial"",""time""
""fullscreenenter"",""1"",""3832""
","
","
","""event"",""trial"",""time""
""fullscreenenter"",""1"",""3832""
","
",,,,,,,,,,,,"[{""stimulus"":""run_exp/static/images/task_images/dig.jpg"",""time"":0.4000000059604645},{""stimulus"":""run_exp/static/images/task_images/land.jpg"",""time"":860.7999999970198},{""stimulus"":""run_exp/static/images/task_images/dig.jpg"",""time"":1716.7999999970198}]",[],6,,,,,,,,,,,,,,
harvest,183,602507,0.0-58.0-1.0,"""event"",""trial"",""time""
""fullscreenenter"",""1"",""3832""
","
","
","""event"",""trial"",""time""
""fullscreenenter"",""1"",""3832""
","
",,null,run_exp/static/images/task_images/gems/51.jpg,null,,,,,,,41,,,6,,,,,51,0.812237559,0.803921569,,,,,,,
decision,184,603101,0.0-58.0-2.0,"""event"",""trial"",""time""
""fullscreenenter"",""1"",""3832""
","
","
","""event"",""trial"",""time""
""fullscreenenter"",""1"",""3832""
","
",,591,run_exp/static/images/task_images/land.jpg,65,,,,,,,41,,,6,,,,,,,,222454,1,3,FALSE,,,
dig,185,605523,0.0-59.0-0.0,"""event"",""trial"",""time""
""fullscreenenter"",""1"",""3832""
","
","
","""event"",""trial"",""time""
""fullscreenenter"",""1"",""3832""
","
",,,,,,,,,,,,"[{""stimulus"":""run_exp/static/images/task_images/dig.jpg"",""time"":0.4000000059604645},{""stimulus"":""run_exp/static/images/task_images/land.jpg"",""time"":809.7000000029802},{""stimulus"":""run_exp/static/images/task_images/dig.jpg"",""time"":1609.4000000059605}]",[],6,,,,,,,,,,,,,,
harvest,186,606531,0.0-59.0-1.0,"""event"",""trial"",""time""
""fullscreenenter"",""1"",""3832""
","
","
","""event"",""trial"",""time""
""fullscreenenter"",""1"",""3832""
","
",,null,run_exp/static/images/task_images/gems/41.jpg,null,,,,,,,34,,,6,,,,,41,0.839856609,0.829268293,,,,,,,
decision,187,607030,0.0-59.0-2.0,"""event"",""trial"",""time""
""fullscreenenter"",""1"",""3832""
","
","
","""event"",""trial"",""time""
""fullscreenenter"",""1"",""3832""
","
",,496.6,run_exp/static/images/task_images/land.jpg,65,,,,,,,34,,,6,,,,,,,,226383,1,4,FALSE,,,
dig,188,609547,0.0-60.0-0.0,"""event"",""trial"",""time""
""fullscreenenter"",""1"",""3832""
","
","
","""event"",""trial"",""time""
""fullscreenenter"",""1"",""3832""
","
",,,,,,,,,,,,"[{""stimulus"":""run_exp/static/images/task_images/dig.jpg"",""time"":0.4000000059604645},{""stimulus"":""run_exp/static/images/task_images/land.jpg"",""time"":839.4000000059605},{""stimulus"":""run_exp/static/images/task_images/dig.jpg"",""time"":1671.4000000059605}]",[],6,,,,,,,,,,,,,,
harvest,189,610556,0.0-60.0-1.0,"""event"",""trial"",""time""
""fullscreenenter"",""1"",""3832""
","
","
","""event"",""trial"",""time""
""fullscreenenter"",""1"",""3832""
","
",,null,run_exp/static/images/task_images/gems/34.jpg,null,,,,,,,25,,,6,,,,,34,0.7347889,0.735294118,,,,,,,
decision,190,611017,0.0-60.0-2.0,"""event"",""trial"",""time""
""fullscreenenter"",""1"",""3832""
","
","
","""event"",""trial"",""time""
""fullscreenenter"",""1"",""3832""
","
",,457.6,run_exp/static/images/task_images/land.jpg,65,,,,,,,25,,,6,,,,,,,,230370,1,5,FALSE,,,
dig,191,613570,0.0-61.0-0.0,"""event"",""trial"",""time""
""fullscreenenter"",""1"",""3832""
","
","
","""event"",""trial"",""time""
""fullscreenenter"",""1"",""3832""
","
",,,,,,,,,,,,"[{""stimulus"":""run_exp/static/images/task_images/dig.jpg"",""time"":0.5},{""stimulus"":""run_exp/static/images/task_images/land.jpg"",""time"":852.2000000029802},{""stimulus"":""run_exp/static/images/task_images/dig.jpg"",""time"":1700}]",[],6,,,,,,,,,,,,,,
harvest,192,614579,0.0-61.0-1.0,"""event"",""trial"",""time""
""fullscreenenter"",""1"",""3832""
","
","
","""event"",""trial"",""time""
""fullscreenenter"",""1"",""3832""
","
",,null,run_exp/static/images/task_images/gems/25.jpg,null,,,,,,,18,,,6,,,,,25,0.705679893,0.72,,,,,,,
decision,193,615058,0.0-61.0-2.0,"""event"",""trial"",""time""
""fullscreenenter"",""1"",""3832""
","
","
","""event"",""trial"",""time""
""fullscreenenter"",""1"",""3832""
","
",,476.3,run_exp/static/images/task_images/land.jpg,65,,,,,,,18,,,6,,,,,,,,234411,1,6,FALSE,,,
dig,194,617595,0.0-62.0-0.0,"""event"",""trial"",""time""
""fullscreenenter"",""1"",""3832""
","
","
","""event"",""trial"",""time""
""fullscreenenter"",""1"",""3832""
","
",,,,,,,,,,,,"[{""stimulus"":""run_exp/static/images/task_images/dig.jpg"",""time"":0.4000000059604645},{""stimulus"":""run_exp/static/images/task_images/land.jpg"",""time"":844.5},{""stimulus"":""run_exp/static/images/task_images/dig.jpg"",""time"":1684.7000000029802}]",[],6,,,,,,,,,,,,,,
harvest,195,618603,0.0-62.0-1.0,"""event"",""trial"",""time""
""fullscreenenter"",""1"",""3832""
","
","
","""event"",""trial"",""time""
""fullscreenenter"",""1"",""3832""
","
",,null,run_exp/static/images/task_images/gems/18.jpg,null,,,,,,,14,,,6,,,,,18,0.755852213,0.777777778,,,,,,,
decision,196,618974,0.0-62.0-2.0,"""event"",""trial"",""time""
""fullscreenenter"",""1"",""3832""
","
","
","""event"",""trial"",""time""
""fullscreenenter"",""1"",""3832""
","
",,368.1,run_exp/static/images/task_images/land.jpg,65,,,,,,,14,,,6,,,,,,,,238328,1,7,FALSE,,,
dig,197,621619,0.0-63.0-0.0,"""event"",""trial"",""time""
""fullscreenenter"",""1"",""3832""
","
","
","""event"",""trial"",""time""
""fullscreenenter"",""1"",""3832""
","
",,,,,,,,,,,,"[{""stimulus"":""run_exp/static/images/task_images/dig.jpg"",""time"":0.30000001192092896},{""stimulus"":""run_exp/static/images/task_images/land.jpg"",""time"":879.3000000119209},{""stimulus"":""run_exp/static/images/task_images/dig.jpg"",""time"":1759.2000000029802}]",[],6,,,,,,,,,,,,,,
harvest,198,622627,0.0-63.0-1.0,"""event"",""trial"",""time""
""fullscreenenter"",""1"",""3832""
","
","
","""event"",""trial"",""time""
""fullscreenenter"",""1"",""3832""
","
",,null,run_exp/static/images/task_images/gems/14.jpg,null,,,,,,,11,,,6,,,,,14,0.787429075,0.785714286,,,,,,,
decision,199,623000,0.0-63.0-2.0,"""event"",""trial"",""time""
""fullscreenenter"",""1"",""3832""
","
","
","""event"",""trial"",""time""
""fullscreenenter"",""1"",""3832""
","
",,371.3,run_exp/static/images/task_images/land.jpg,65,,,,,,,11,,,6,,,,,,,,242354,1,8,FALSE,,,
dig,200,625643,0.0-64.0-0.0,"""event"",""trial"",""time""
""fullscreenenter"",""1"",""3832""
","
","
","""event"",""trial"",""time""
""fullscreenenter"",""1"",""3832""
","
",,,,,,,,,,,,"[{""stimulus"":""run_exp/static/images/task_images/dig.jpg"",""time"":0.4000000059604645},{""stimulus"":""run_exp/static/images/task_images/land.jpg"",""time"":884.1000000089407},{""stimulus"":""run_exp/static/images/task_images/dig.jpg"",""time"":1756}]",[],6,,,,,,,,,,,,,,
harvest,201,626651,0.0-64.0-1.0,"""event"",""trial"",""time""
""fullscreenenter"",""1"",""3832""
","
","
","""event"",""trial"",""time""
""fullscreenenter"",""1"",""3832""
","
",,null,run_exp/static/images/task_images/gems/11.jpg,null,,,,,,,9,,,6,,,,,11,0.86068331,0.818181818,,,,,,,
decision,202,627046,0.0-64.0-2.0,"""event"",""trial"",""time""
""fullscreenenter"",""1"",""3832""
","
","
","""event"",""trial"",""time""
""fullscreenenter"",""1"",""3832""
","
",,391.2,run_exp/static/images/task_images/land.jpg,65,,,,,,,9,,,6,,,,,,,,246399,1,9,FALSE,,,
dig,203,629666,0.0-65.0-0.0,"""event"",""trial"",""time""
""fullscreenenter"",""1"",""3832""
","
","
","""event"",""trial"",""time""
""fullscreenenter"",""1"",""3832""
","
",,,,,,,,,,,,"[{""stimulus"":""run_exp/static/images/task_images/dig.jpg"",""time"":0.29999999701976776},{""stimulus"":""run_exp/static/images/task_images/land.jpg"",""time"":878.4000000059605},{""stimulus"":""run_exp/static/images/task_images/dig.jpg"",""time"":1742.4000000059605}]",[],6,,,,,,,,,,,,,,
harvest,204,630675,0.0-65.0-1.0,"""event"",""trial"",""time""
""fullscreenenter"",""1"",""3832""
","
","
","""event"",""trial"",""time""
""fullscreenenter"",""1"",""3832""
","
",,null,run_exp/static/images/task_images/gems/9.jpg,null,,,,,,,7,,,6,,,,,9,0.765463695,0.777777778,,,,,,,
decision,205,631056,0.0-65.0-2.0,"""event"",""trial"",""time""
""fullscreenenter"",""1"",""3832""
","
","
","""event"",""trial"",""time""
""fullscreenenter"",""1"",""3832""
","
",,379.4,run_exp/static/images/task_images/land.jpg,65,,,,,,,7,,,6,,,,,,,,250409,1,10,FALSE,,,
dig,206,633682,0.0-66.0-0.0,"""event"",""trial"",""time""
""fullscreenenter"",""1"",""3832""
","
","
","""event"",""trial"",""time""
""fullscreenenter"",""1"",""3832""
","
",,,,,,,,,,,,"[{""stimulus"":""run_exp/static/images/task_images/dig.jpg"",""time"":0.3999999910593033},{""stimulus"":""run_exp/static/images/task_images/land.jpg"",""time"":877.8999999910593},{""stimulus"":""run_exp/static/images/task_images/dig.jpg"",""time"":1750.0999999940395}]",[],6,,,,,,,,,,,,,,
harvest,207,634691,0.0-66.0-1.0,"""event"",""trial"",""time""
""fullscreenenter"",""1"",""3832""
","
","
","""event"",""trial"",""time""
""fullscreenenter"",""1"",""3832""
","
",,null,run_exp/static/images/task_images/gems/7.jpg,null,,,,,,,6,,,6,,,,,7,0.908681692,0.857142857,,,,,,,
decision,208,635135,0.0-66.0-2.0,"""event"",""trial"",""time""
""fullscreenenter"",""1"",""3832""
","
","
","""event"",""trial"",""time""
""fullscreenenter"",""1"",""3832""
","
",,441.9,run_exp/static/images/task_images/land.jpg,65,,,,,,,6,,,6,,,,,,,,254488,1,11,FALSE,,,
dig,209,637699,0.0-67.0-0.0,"""event"",""trial"",""time""
""fullscreenenter"",""1"",""3832""
","
","
","""event"",""trial"",""time""
""fullscreenenter"",""1"",""3832""
","
",,,,,,,,,,,,"[{""stimulus"":""run_exp/static/images/task_images/dig.jpg"",""time"":0.29999999701976776},{""stimulus"":""run_exp/static/images/task_images/land.jpg"",""time"":854.8999999910593},{""stimulus"":""run_exp/static/images/task_images/dig.jpg"",""time"":1711}]",[],6,,,,,,,,,,,,,,
harvest,210,638707,0.0-67.0-1.0,"""event"",""trial"",""time""
""fullscreenenter"",""1"",""3832""
","
","
","""event"",""trial"",""time""
""fullscreenenter"",""1"",""3832""
","
",,null,run_exp/static/images/task_images/gems/6.jpg,null,,,,,,,5,,,6,,,,,6,0.762154355,0.833333333,,,,,,,
decision,211,639101,0.0-67.0-2.0,"""event"",""trial"",""time""
""fullscreenenter"",""1"",""3832""
","
","
","""event"",""trial"",""time""
""fullscreenenter"",""1"",""3832""
","
",,391.7,run_exp/static/images/task_images/land.jpg,65,,,,,,,5,,,6,,,,,,,,258454,1,12,FALSE,,,
dig,212,641723,0.0-68.0-0.0,"""event"",""trial"",""time""
""fullscreenenter"",""1"",""3832""
","
","
","""event"",""trial"",""time""
""fullscreenenter"",""1"",""3832""
","
",,,,,,,,,,,,"[{""stimulus"":""run_exp/static/images/task_images/dig.jpg"",""time"":0.29999999701976776},{""stimulus"":""run_exp/static/images/task_images/land.jpg"",""time"":872.7999999970198},{""stimulus"":""run_exp/static/images/task_images/dig.jpg"",""time"":1744.5999999940395}]",[],6,,,,,,,,,,,,,,
harvest,213,642731,0.0-68.0-1.0,"""event"",""trial"",""time""
""fullscreenenter"",""1"",""3832""
","
","
","""event"",""trial"",""time""
""fullscreenenter"",""1"",""3832""
","
",,null,run_exp/static/images/task_images/gems/5.jpg,null,,,,,,,4,,,6,,,,,5,0.858629074,0.8,,,,,,,
decision,214,643081,0.0-68.0-2.0,"""event"",""trial"",""time""
""fullscreenenter"",""1"",""3832""
","
","
","""event"",""trial"",""time""
""fullscreenenter"",""1"",""3832""
","
",,347.8,run_exp/static/images/task_images/land.jpg,65,,,,,,,4,,,6,,,,,,,,262434,1,13,FALSE,,,
dig,215,645747,0.0-69.0-0.0,"""event"",""trial"",""time""
""fullscreenenter"",""1"",""3832""
","
","
","""event"",""trial"",""time""
""fullscreenenter"",""1"",""3832""
","
",,,,,,,,,,,,"[{""stimulus"":""run_exp/static/images/task_images/dig.jpg"",""time"":0.3999999910593033},{""stimulus"":""run_exp/static/images/task_images/land.jpg"",""time"":893.8999999910593},{""stimulus"":""run_exp/static/images/task_images/dig.jpg"",""time"":1773.8999999910593}]",[],6,,,,,,,,,,,,,,
harvest,216,646755,0.0-69.0-1.0,"""event"",""trial"",""time""
""fullscreenenter"",""1"",""3832""
","
","
","""event"",""trial"",""time""
""fullscreenenter"",""1"",""3832""
","
",,null,run_exp/static/images/task_images/gems/4.jpg,null,,,,,,,3,,,6,,,,,4,0.769875793,0.75,,,,,,,
decision,217,647109,0.0-69.0-2.0,"""event"",""trial"",""time""
""fullscreenenter"",""1"",""3832""
","
","
","""event"",""trial"",""time""
""fullscreenenter"",""1"",""3832""
","
",,351.2,run_exp/static/images/task_images/land.jpg,65,,,,,,,3,,,6,,,,,,,,266462,1,14,FALSE,,,
dig,218,649771,0.0-70.0-0.0,"""event"",""trial"",""time""
""fullscreenenter"",""1"",""3832""
","
","
","""event"",""trial"",""time""
""fullscreenenter"",""1"",""3832""
","
",,,,,,,,,,,,"[{""stimulus"":""run_exp/static/images/task_images/dig.jpg"",""time"":0.3999999910593033},{""stimulus"":""run_exp/static/images/task_images/land.jpg"",""time"":887.8999999910593},{""stimulus"":""run_exp/static/images/task_images/dig.jpg"",""time"":1768.199999988079}]",[],6,,,,,,,,,,,,,,
harvest,219,650779,0.0-70.0-1.0,"""event"",""trial"",""time""
""fullscreenenter"",""1"",""3832""
","
","
","""event"",""trial"",""time""
""fullscreenenter"",""1"",""3832""
","
",,null,run_exp/static/images/task_images/gems/3.jpg,null,,,,,,,2,,,6,,,,,3,0.778876398,0.666666667,,,,,,,
decision,220,651064,0.0-70.0-2.0,"""event"",""trial"",""time""
""fullscreenenter"",""1"",""3832""
","
","
","""event"",""trial"",""time""
""fullscreenenter"",""1"",""3832""
","
",,282.6,run_exp/static/images/task_images/land.jpg,65,,,,,,,2,,,6,,,,,,,,270417,1,15,FALSE,,,
dig,221,653787,0.0-71.0-0.0,"""event"",""trial"",""time""
""fullscreenenter"",""1"",""3832""
","
","
","""event"",""trial"",""time""
""fullscreenenter"",""1"",""3832""
","
",,,,,,,,,,,,"[{""stimulus"":""run_exp/static/images/task_images/dig.jpg"",""time"":0.3999999910593033},{""stimulus"":""run_exp/static/images/task_images/land.jpg"",""time"":909.8999999910593},{""stimulus"":""run_exp/static/images/task_images/dig.jpg"",""time"":1814}]",[],6,,,,,,,,,,,,,,
harvest,222,654795,0.0-71.0-1.0,"""event"",""trial"",""time""
""fullscreenenter"",""1"",""3832""
","
","
","""event"",""trial"",""time""
""fullscreenenter"",""1"",""3832""
","
",,null,run_exp/static/images/task_images/gems/2.jpg,null,,,,,,,2,,,6,,,,,2,0.91839275,1,,,,,,,
decision,223,655805,0.0-71.0-2.0,"""event"",""trial"",""time""
""fullscreenenter"",""1"",""3832""
","
","
","""event"",""trial"",""time""
""fullscreenenter"",""1"",""3832""
","
",,1008,run_exp/static/images/task_images/land.jpg,65,,,,,,,2,,,6,,,,,,,,275159,1,16,FALSE,,,
dig,224,657810,0.0-72.0-0.0,"""event"",""trial"",""time""
""fullscreenenter"",""1"",""3832""
","
","
","""event"",""trial"",""time""
""fullscreenenter"",""1"",""3832""
","
",,,,,,,,,,,,"[{""stimulus"":""run_exp/static/images/task_images/dig.jpg"",""time"":0.3999999910593033},{""stimulus"":""run_exp/static/images/task_images/land.jpg"",""time"":672},{""stimulus"":""run_exp/static/images/task_images/dig.jpg"",""time"":1335.8999999910593}]",[],6,,,,,,,,,,,,,,
harvest,225,658819,0.0-72.0-1.0,"""event"",""trial"",""time""
""fullscreenenter"",""1"",""3832""
","
","
","""event"",""trial"",""time""
""fullscreenenter"",""1"",""3832""
","
",,null,run_exp/static/images/task_images/gems/2.jpg,null,,,,,,,2,,,6,,,,,2,0.870724701,1,,,,,,,
decision,226,659364,0.0-72.0-2.0,"""event"",""trial"",""time""
""fullscreenenter"",""1"",""3832""
","
","
","""event"",""trial"",""time""
""fullscreenenter"",""1"",""3832""
","
",,543.1,run_exp/static/images/task_images/land.jpg,65,,,,,,,0,,,6,,,,,,,,278717,1,17,FALSE,,,
dig,227,661834,0.0-73.0-0.0,"""event"",""trial"",""time""
""fullscreenenter"",""1"",""3832""
","
","
","""event"",""trial"",""time""
""fullscreenenter"",""1"",""3832""
","
",,,,,,,,,,,,"[{""stimulus"":""run_exp/static/images/task_images/dig.jpg"",""time"":0.5},{""stimulus"":""run_exp/static/images/task_images/land.jpg"",""time"":823.6000000089407},{""stimulus"":""run_exp/static/images/task_images/dig.jpg"",""time"":1639.9000000059605}]",[],6,,,,,,,,,,,,,,
harvest,228,662843,0.0-73.0-1.0,"""event"",""trial"",""time""
""fullscreenenter"",""1"",""3832""
","
","
","""event"",""trial"",""time""
""fullscreenenter"",""1"",""3832""
","
",,null,run_exp/static/images/task_images/gems/0.jpg,null,,,,,,,0,,,6,,,,,0,0.871634913,NaN,,,,,,,
decision,229,663706,0.0-73.0-2.0,"""event"",""trial"",""time""
""fullscreenenter"",""1"",""3832""
","
","
","""event"",""trial"",""time""
""fullscreenenter"",""1"",""3832""
","
",,860,run_exp/static/images/task_images/land.jpg,65,,,,,,,0,,,6,,,,,,,,283059,1,18,FALSE,,,
dig,230,665858,0.0-74.0-0.0,"""event"",""trial"",""time""
""fullscreenenter"",""1"",""3832""
","
","
","""event"",""trial"",""time""
""fullscreenenter"",""1"",""3832""
","
",,,,,,,,,,,,"[{""stimulus"":""run_exp/static/images/task_images/dig.jpg"",""time"":0.3999999910593033},{""stimulus"":""run_exp/static/images/task_images/land.jpg"",""time"":716.7000000029802},{""stimulus"":""run_exp/static/images/task_images/dig.jpg"",""time"":1428.3999999910593}]",[],6,,,,,,,,,,,,,,
harvest,231,666862,0.0-74.0-1.0,"""event"",""trial"",""time""
""fullscreenenter"",""1"",""3832""
","
","
","""event"",""trial"",""time""
""fullscreenenter"",""1"",""3832""
","
",,null,run_exp/static/images/task_images/gems/0.jpg,null,,,,,,,0,,,6,,,,,0,0.833020233,NaN,,,,,,,
decision,232,667259,0.0-74.0-2.0,"""event"",""trial"",""time""
""fullscreenenter"",""1"",""3832""
","
","
","""event"",""trial"",""time""
""fullscreenenter"",""1"",""3832""
","
",,394,run_exp/static/images/task_images/land.jpg,65,,,,,,,0,,,6,,,,,,,,286612,1,19,FALSE,,,
dig,233,669875,0.0-75.0-0.0,"""event"",""trial"",""time""
""fullscreenenter"",""1"",""3832""
","
","
","""event"",""trial"",""time""
""fullscreenenter"",""1"",""3832""
","
",,,,,,,,,,,,"[{""stimulus"":""run_exp/static/images/task_images/dig.jpg"",""time"":0.29999999701976776},{""stimulus"":""run_exp/static/images/task_images/land.jpg"",""time"":874.5},{""stimulus"":""run_exp/static/images/task_images/dig.jpg"",""time"":1738.7000000029802}]",[],6,,,,,,,,,,,,,,
harvest,234,670883,0.0-75.0-1.0,"""event"",""trial"",""time""
""fullscreenenter"",""1"",""3832""
","
","
","""event"",""trial"",""time""
""fullscreenenter"",""1"",""3832""
","
",,null,run_exp/static/images/task_images/gems/0.jpg,null,,,,,,,0,,,6,,,,,0,0.778441183,NaN,,,,,,,
decision,235,671622,0.0-75.0-2.0,"""event"",""trial"",""time""
""fullscreenenter"",""1"",""3832""
","
","
","""event"",""trial"",""time""
""fullscreenenter"",""1"",""3832""
","
",,736.4,run_exp/static/images/task_images/land.jpg,76,,,,,,,0,,,6,,,,,,,,290975,1,20,TRUE,,,
travel,236,680899,0.0-76.0-0.0,"""event"",""trial"",""time""
""fullscreenenter"",""1"",""3832""
","
","
","""event"",""trial"",""time""
""fullscreenenter"",""1"",""3832""
","
",,,,,,,,,,,,"[{""stimulus"":""run_exp/static/images/task_images/rocket-01.jpg"",""time"":0.4000000059604645},{""stimulus"":""run_exp/static/images/task_images/rocket-02.jpg"",""time"":1039},{""stimulus"":""run_exp/static/images/task_images/rocket-03.jpg"",""time"":2063.1000000089407},{""stimulus"":""run_exp/static/images/task_images/rocket-04.jpg"",""time"":3095.1000000089407},{""stimulus"":""run_exp/static/images/task_images/rocket-05.jpg"",""time"":4119},{""stimulus"":""run_exp/static/images/task_images/rocket-06.jpg"",""time"":5151.20000000298},{""stimulus"":""run_exp/static/images/task_images/rocket-07.jpg"",""time"":6183.100000008941},{""stimulus"":""run_exp/static/images/task_images/rocket-08.jpg"",""time"":7207},{""stimulus"":""run_exp/static/images/task_images/rocket-09.jpg"",""time"":8239}]",[],6,,,,,,,,,,,,,,
alien_welcome,237,685907,0.0-76.0-1.0,"""event"",""trial"",""time""
""fullscreenenter"",""1"",""3832""
","
","
","""event"",""trial"",""time""
""fullscreenenter"",""1"",""3832""
","
",,null,run_exp/static/images/task_images/aliens/old_aliens/planet/alien_planet-53.jpg,null,,,,,,,,,,,,,53,"62,21,37,70,61,16,53,71,43,76,77,57,5,79,46,49,59,40,6,60,48,15,39,29",,,,,,,,,,
land,238,686411,0.0-76.0-2.0,"""event"",""trial"",""time""
""fullscreenenter"",""1"",""3832""
","
","
","""event"",""trial"",""time""
""fullscreenenter"",""1"",""3832""
","
",,null,run_exp/static/images/task_images/land.jpg,null,,,,,,,107,,,7,,,,,,,,,,,,,,
dig,239,688419,0.0-76.0-3.0,"""event"",""trial"",""time""
""fullscreenenter"",""1"",""3832""
","
","
","""event"",""trial"",""time""
""fullscreenenter"",""1"",""3832""
","
",,,,,,,,,,,,"[{""stimulus"":""run_exp/static/images/task_images/dig.jpg"",""time"":0.5999999940395355},{""stimulus"":""run_exp/static/images/task_images/land.jpg"",""time"":669.7000000029802},{""stimulus"":""run_exp/static/images/task_images/dig.jpg"",""time"":1341.2000000029802}]",[],7,,,,,,,,,,,,,,
harvest,240,689427,0.0-76.0-4.0,"""event"",""trial"",""time""
""fullscreenenter"",""1"",""3832""
","
","
","""event"",""trial"",""time""
""fullscreenenter"",""1"",""3832""
","
",,null,run_exp/static/images/task_images/gems/107.jpg,null,,,,,,,92,,,7,,,,,107,0.859686207,0.859813084,,,,,,,
decision,241,690134,0.0-76.0-5.0,"""event"",""trial"",""time""
""fullscreenenter"",""1"",""3832""
","
","
","""event"",""trial"",""time""
""fullscreenenter"",""1"",""3832""
","
",,703.6,run_exp/static/images/task_images/land.jpg,65,,,,,,,92,,,7,,,,,,,,309487,1,0,TRUE,,,
end_of_block_continue,242,699048,0.0-77.0-0.0,"""event"",""trial"",""time""
""fullscreenenter"",""1"",""3832""
","
","
","""event"",""trial"",""time""
""fullscreenenter"",""1"",""3832""
","
",,null,run_exp/static/audio/clip_32_block_end.m4a,,,,,,,null,,,,,,,,,,,,,,,,,,
alien_welcome,243,704059,0.0-78.0-0.0,"""event"",""trial"",""time""
""fullscreenenter"",""1"",""3832""
","
","
","""event"",""trial"",""time""
""fullscreenenter"",""1"",""3832""
","
",,null,run_exp/static/images/task_images/aliens/old_aliens/planet/alien_planet-71.jpg,null,,,,,,,,,,,,,71,"62,21,37,70,61,16,53,71,43,76,77,57,5,79,46,49,59,40,6,60,48,15,39,29",,,,,,,,,,
land,244,704571,0.0-78.0-1.0,"""event"",""trial"",""time""
""fullscreenenter"",""1"",""3832""
","
","
","""event"",""trial"",""time""
""fullscreenenter"",""1"",""3832""
","
",,null,run_exp/static/images/task_images/land.jpg,null,,,,,,,111,,,8,,,,,,,,,,,,,,
dig,245,706579,0.0-78.0-2.0,"""event"",""trial"",""time""
""fullscreenenter"",""1"",""3832""
","
","
","""event"",""trial"",""time""
""fullscreenenter"",""1"",""3832""
","
",,,,,,,,,,,,"[{""stimulus"":""run_exp/static/images/task_images/dig.jpg"",""time"":0.6000000089406967},{""stimulus"":""run_exp/static/images/task_images/land.jpg"",""time"":676.5},{""stimulus"":""run_exp/static/images/task_images/dig.jpg"",""time"":1340.7999999970198}]",[],8,,,,,,,,,,,,,,
harvest,246,707587,0.0-78.0-3.0,"""event"",""trial"",""time""
""fullscreenenter"",""1"",""3832""
","
","
","""event"",""trial"",""time""
""fullscreenenter"",""1"",""3832""
","
",,null,run_exp/static/images/task_images/gems/111.jpg,null,,,,,,,20,,,8,,,,,111,0.175858922,0.18018018,,,,,,,
decision,247,708205,0.0-78.0-4.0,"""event"",""trial"",""time""
""fullscreenenter"",""1"",""3832""
","
","
","""event"",""trial"",""time""
""fullscreenenter"",""1"",""3832""
","
",,615.9,run_exp/static/images/task_images/land.jpg,65,,,,,,,20,,,8,,,,,,,,9151,2,0,FALSE,,,
dig,248,710603,0.0-79.0-0.0,"""event"",""trial"",""time""
""fullscreenenter"",""1"",""3832""
","
","
","""event"",""trial"",""time""
""fullscreenenter"",""1"",""3832""
","
",,,,,,,,,,,,"[{""stimulus"":""run_exp/static/images/task_images/dig.jpg"",""time"":0.5},{""stimulus"":""run_exp/static/images/task_images/land.jpg"",""time"":799.9000000059605},{""stimulus"":""run_exp/static/images/task_images/dig.jpg"",""time"":1592}]",[],8,,,,,,,,,,,,,,
harvest,249,711611,0.0-79.0-1.0,"""event"",""trial"",""time""
""fullscreenenter"",""1"",""3832""
","
","
","""event"",""trial"",""time""
""fullscreenenter"",""1"",""3832""
","
",,null,run_exp/static/images/task_images/gems/20.jpg,null,,,,,,,4,,,8,,,,,20,0.219029108,0.2,,,,,,,
decision,250,712106,0.0-79.0-2.0,"""event"",""trial"",""time""
""fullscreenenter"",""1"",""3832""
","
","
","""event"",""trial"",""time""
""fullscreenenter"",""1"",""3832""
","
",,492.5,run_exp/static/images/task_images/land.jpg,65,,,,,,,4,,,8,,,,,,,,13052,2,1,FALSE,,,
dig,251,714619,0.0-80.0-0.0,"""event"",""trial"",""time""
""fullscreenenter"",""1"",""3832""
","
","
","""event"",""trial"",""time""
""fullscreenenter"",""1"",""3832""
","
",,,,,,,,,,,,"[{""stimulus"":""run_exp/static/images/task_images/dig.jpg"",""time"":0.29999999701976776},{""stimulus"":""run_exp/static/images/task_images/land.jpg"",""time"":843.0999999940395},{""stimulus"":""run_exp/static/images/task_images/dig.jpg"",""time"":1674.8999999910593}]",[],8,,,,,,,,,,,,,,
harvest,252,715627,0.0-80.0-1.0,"""event"",""trial"",""time""
""fullscreenenter"",""1"",""3832""
","
","
","""event"",""trial"",""time""
""fullscreenenter"",""1"",""3832""
","
",,null,run_exp/static/images/task_images/gems/4.jpg,null,,,,,,,1,,,8,,,,,4,0.255988959,0.25,,,,,,,
decision,253,715922,0.0-80.0-2.0,"""event"",""trial"",""time""
""fullscreenenter"",""1"",""3832""
","
","
","""event"",""trial"",""time""
""fullscreenenter"",""1"",""3832""
","
",,291.4,run_exp/static/images/task_images/land.jpg,65,,,,,,,1,,,8,,,,,,,,16867,2,2,FALSE,,,
dig,254,718634,0.0-81.0-0.0,"""event"",""trial"",""time""
""fullscreenenter"",""1"",""3832""
","
","
","""event"",""trial"",""time""
""fullscreenenter"",""1"",""3832""
","
",,,,,,,,,,,,"[{""stimulus"":""run_exp/static/images/task_images/dig.jpg"",""time"":0.4000000059604645},{""stimulus"":""run_exp/static/images/task_images/land.jpg"",""time"":908.6000000089407},{""stimulus"":""run_exp/static/images/task_images/dig.jpg"",""time"":1812.800000011921}]",[],8,,,,,,,,,,,,,,
harvest,255,719643,0.0-81.0-1.0,"""event"",""trial"",""time""
""fullscreenenter"",""1"",""3832""
","
","
","""event"",""trial"",""time""
""fullscreenenter"",""1"",""3832""
","
",,null,run_exp/static/images/task_images/gems/1.jpg,null,,,,,,,0,,,8,,,,,1,0.155935919,0,,,,,,,
decision,256,721134,0.0-81.0-2.0,"""event"",""trial"",""time""
""fullscreenenter"",""1"",""3832""
","
","
","""event"",""trial"",""time""
""fullscreenenter"",""1"",""3832""
","
",,1488.9,run_exp/static/images/task_images/land.jpg,76,,,,,,,0,,,8,,,,,,,,22079,2,3,TRUE,,,
travel,257,729651,0.0-82.0-0.0,"""event"",""trial"",""time""
""fullscreenenter"",""1"",""3832""
","
","
","""event"",""trial"",""time""
""fullscreenenter"",""1"",""3832""
","
