trial_type,trial_index,time_elapsed,internal_node_id,interactions,blur_events,focus_events,fullscreenenter_events,fullscreenexit_events,success,rt,stimulus,key_press,prompt,subject_id,participant_id,age,gender,button_pressed,next_reward,animation_sequence,responses,planet,curr_prac_trial,n_prac_rounds,alien,aliens,reward_received,decay_rate_actual,decay_rate_exp,time_in_block,block_num,prt,last_trial_on_planet,button_html,bonus,num_failures
pavlovia,0,5,0.0-0.0,"""event"",""trial"",""time""
""fullscreenenter"",""1"",""2166""
","
","
","""event"",""trial"",""time""
""fullscreenenter"",""1"",""2166""
","
",,,,,,,,,,,,,,,,,,,,,,,,,,,,
fullscreen,1,3150,0.0-1.0,"""event"",""trial"",""time""
""fullscreenenter"",""1"",""2166""
","
","
","""event"",""trial"",""time""
""fullscreenenter"",""1"",""2166""
","
",TRUE,,,,,,,,,,,,,,,,,,,,,,,,,,,
instruc_welcome,2,12911,0.0-2.0,"""event"",""trial"",""time""
""fullscreenenter"",""1"",""2166""
","
","
","""event"",""trial"",""time""
""fullscreenenter"",""1"",""2166""
","
",,null,run_exp/static/audio/clip_1_welcome.m4a,null,"<p>Howdy! In this experiment, you’ll be an explorer traveling through space to collect space treasure.</p><p>Your mission is to collect as much treasure as possible.</p><br><br><p><img src='run_exp/static/images/task_images/opening_img-01.jpg' height='300' width='auto'></p>",8098,1708,21.45,Male,,,,,,,,,,,,,,,,,,,
audio-keyboard-response,3,29507,0.0-3.0,"""event"",""trial"",""time""
""fullscreenenter"",""1"",""2166""
","
","
","""event"",""trial"",""time""
""fullscreenenter"",""1"",""2166""
","
",,null,run_exp/static/audio/clip_2_move.m4a,null,,,,,,,,,,,,,,,,,,,,,,,,
welcome_dec,4,30609,0.0-4.0,"""event"",""trial"",""time""
""fullscreenenter"",""1"",""2166""
","
","
","""event"",""trial"",""time""
""fullscreenenter"",""1"",""2166""
","
",,1098.2,"<p>Howdy! In this experiment, you’ll be an explorer traveling through space to collect space treasure.</p><p>Your mission is to collect as much treasure as possible.</p><br><br><p><img src='run_exp/static/images/task_images/opening_img-01.jpg' height='300' width='auto'></p>",,,,,,,1,,,,,,,,,,,,,,,,,,
html-keyboard-response,5,31647,0.0-5.0,"""event"",""trial"",""time""
""fullscreenenter"",""1"",""2166""
","
","
","""event"",""trial"",""time""
""fullscreenenter"",""1"",""2166""
","
",,1034.8,"<p>Howdy! In this experiment, you’ll be an explorer traveling through space to collect space treasure.</p><p>Your mission is to collect as much treasure as possible.</p><br><br><p><img src='run_exp/static/images/task_images/opening_img-01.jpg' height='300' width='auto'></p><button class=""jspsych-html-btn-unchosen""><img src=""run_exp/static/images/task_images/planet-01.jpg"" height=""50""></button><button class=""jspsych-html-btn-chosen""><img src=""run_exp/static/images/task_images/planet-02.jpg"" height=""50""></button><p><b>[press the space bar to lock in your answer]<b><br></p>",32,,,,,,,,,,,,,,,,,,,,,,,,
instruc_goal,6,41710,0.0-6.0-0.0,"""event"",""trial"",""time""
""fullscreenenter"",""1"",""2166""
","
","
","""event"",""trial"",""time""
""fullscreenenter"",""1"",""2166""
","
",,null,run_exp/static/audio/clip_3_goal.m4a,null,"<p> As a space explorer, you’ll visit different planets to dig for space treasure, these pink gems.</p> <p> The more treasure you dig up, the more bonus money you’ll win! </p><br><br><p><img src='run_exp/static/images/task_images/pink_gem.jpg' height='300' width='auto'></p>",,,,,,,,,,,,,,,,,,,,,,,
instruc_goal,7,43381,0.0-6.0-1.0,"""event"",""trial"",""time""
""fullscreenenter"",""1"",""2166""
","
","
","""event"",""trial"",""time""
""fullscreenenter"",""1"",""2166""
","
",,1668.7,"<p> As a space explorer, you’ll visit different planets to dig for space treasure, these pink gems.</p> <p> The more treasure you dig up, the more bonus money you’ll win! </p><br><br><p><img src='run_exp/static/images/task_images/pink_gem.jpg' height='300' width='auto'></p>",,,,,,,1,,,,,,,,,,,,,,,,,,
html-keyboard-response,8,43828,0.0-6.0-2.0,"""event"",""trial"",""time""
""fullscreenenter"",""1"",""2166""
","
","
","""event"",""trial"",""time""
""fullscreenenter"",""1"",""2166""
","
",,446.4,"<p> As a space explorer, you’ll visit different planets to dig for space treasure, these pink gems.</p> <p> The more treasure you dig up, the more bonus money you’ll win! </p><br><br><p><img src='run_exp/static/images/task_images/pink_gem.jpg' height='300' width='auto'></p><button class=""jspsych-html-btn-unchosen""><img src=""run_exp/static/images/task_images/planet-01.jpg"" height=""50""></button><button class=""jspsych-html-btn-chosen""><img src=""run_exp/static/images/task_images/planet-02.jpg"" height=""50""></button><p><b>[press the space bar to lock in your answer]<b><br></p>",32,,,,,,,,,,,,,,,,,,,,,,,,
instruc_dig,9,59843,0.0-7.0-0.0,"""event"",""trial"",""time""
""fullscreenenter"",""1"",""2166""
","
","
","""event"",""trial"",""time""
""fullscreenenter"",""1"",""2166""
","
",,null,run_exp/static/audio/clip_4_dig.m4a,null,,,,,,,100,,,,,,,,,,,,,,,,,
instruc_dig_try,10,59976,0.0-7.0-1.0,"""event"",""trial"",""time""
""fullscreenenter"",""1"",""2166""
","
","
","""event"",""trial"",""time""
""fullscreenenter"",""1"",""2166""
","
",,131.1,"<p> When you’ve arrived at a new planet, you will dig once. </p> <p>Then, you get to decide if you want to stay on the planet and dig again or travel to a new planet and dig there.</p> <p> To stay and dig, press the letter <strong>‘A’</strong> on your keyboard. Try pressing it now! </p><p><img src='run_exp/static/images/task_images/land.jpg'  height='700' width='auto'></p>",65,"<p> When you’ve arrived at a new planet, you will dig once. </p> <p>Then, you get to decide if you want to stay on the planet and dig again or travel to a new planet and dig there.</p> <p> To stay and dig, press the letter <strong>‘A’</strong> on your keyboard. Try pressing it now! </p><p><img src='run_exp/static/images/task_images/land.jpg'  height='700' width='auto'></p>",,,,,,100,,,,,,,,,,,,,,,,,
dig_prac,11,62002,0.0-7.0-2.0,"""event"",""trial"",""time""
""fullscreenenter"",""1"",""2166""
","
","
","""event"",""trial"",""time""
""fullscreenenter"",""1"",""2166""
","
",,,,,,,,,,,,"[{""stimulus"":""run_exp/static/images/task_images/dig.jpg"",""time"":0.3999999761581421},{""stimulus"":""run_exp/static/images/task_images/land.jpg"",""time"":672.5},{""stimulus"":""run_exp/static/images/task_images/dig.jpg"",""time"":1339.6000000238419}]",[],,,,,,,,,,,,,,,
instruc_travel,12,98244,0.0-7.0-3.0,"""event"",""trial"",""time""
""fullscreenenter"",""1"",""2166""
","
","
","""event"",""trial"",""time""
""fullscreenenter"",""1"",""2166""
","
",,null,run_exp/static/audio/clip_5_travel.m4a,null,"<p>Every time you dig up gems, there are less gems on the planet, so the more you dig on a planet the fewer gems you’ll get with each dig.</p><p>When gems are running low, you may want to travel to a new planet. </p> <p>  Planets are very far apart in this galaxy, so it will take some time to travel between them. </p> <br><p>There are lots and lots of planets for you to visit, so you won’t be able to return to any planets you’ve seen before. </p><br><p>To leave this planet and travel to a new one, press the letter <strong>‘L’</strong> on your keyboard. Try pressing it now! </p><p><img src='run_exp/static/images/task_images/rocket-01.jpg'  height='600' width='auto'></p>",,,,,,,,,,,,,,,,,,,,,,,
instruc_travel_try,13,98651,0.0-7.0-4.0,"""event"",""trial"",""time""
""fullscreenenter"",""1"",""2166""
","
","
","""event"",""trial"",""time""
""fullscreenenter"",""1"",""2166""
","
",,404.6,"<p>Every time you dig up gems, there are less gems on the planet, so the more you dig on a planet the fewer gems you’ll get with each dig.</p><p>When gems are running low, you may want to travel to a new planet. </p> <p>  Planets are very far apart in this galaxy, so it will take some time to travel between them. </p> <br><p>There are lots and lots of planets for you to visit, so you won’t be able to return to any planets you’ve seen before. </p><br><p>To leave this planet and travel to a new one, press the letter <strong>‘L’</strong> on your keyboard. Try pressing it now! </p><p><img src='run_exp/static/images/task_images/rocket-01.jpg'  height='600' width='auto'></p>",76,"<p>Every time you dig up gems, there are less gems on the planet, so the more you dig on a planet the fewer gems you’ll get with each dig.</p><p>When gems are running low, you may want to travel to a new planet. </p> <p>  Planets are very far apart in this galaxy, so it will take some time to travel between them. </p> <br><p>There are lots and lots of planets for you to visit, so you won’t be able to return to any planets you’ve seen before. </p><br><p>To leave this planet and travel to a new one, press the letter <strong>‘L’</strong> on your keyboard. Try pressing it now! </p><p><img src='run_exp/static/images/task_images/rocket-01.jpg'  height='600' width='auto'></p>",,,,,,,,,,,,,,,,,,,,,,,
travel_prac,14,108653,0.0-7.0-5.0,"""event"",""trial"",""time""
""fullscreenenter"",""1"",""2166""
","
","
","""event"",""trial"",""time""
""fullscreenenter"",""1"",""2166""
","
",,,,,,,,,,,,"[{""stimulus"":""run_exp/static/images/task_images/rocket-01.jpg"",""time"":0.10000002384185791},{""stimulus"":""run_exp/static/images/task_images/rocket-02.jpg"",""time"":1113.7999999523163},{""stimulus"":""run_exp/static/images/task_images/rocket-03.jpg"",""time"":2226.100000023842},{""stimulus"":""run_exp/static/images/task_images/rocket-04.jpg"",""time"":3337},{""stimulus"":""run_exp/static/images/task_images/rocket-05.jpg"",""time"":4447.399999976158},{""stimulus"":""run_exp/static/images/task_images/rocket-06.jpg"",""time"":5560.299999952316},{""stimulus"":""run_exp/static/images/task_images/rocket-07.jpg"",""time"":6668.299999952316},{""stimulus"":""run_exp/static/images/task_images/rocket-08.jpg"",""time"":7782.5},{""stimulus"":""run_exp/static/images/task_images/rocket-09.jpg"",""time"":8892.699999928474}]",[],0,,,,,,,,,,,,,,
instruc_alien_greet,15,135834,0.0-7.0-6.0,"""event"",""trial"",""time""
""fullscreenenter"",""1"",""2166""
","
","
","""event"",""trial"",""time""
""fullscreenenter"",""1"",""2166""
","
",,null,run_exp/static/audio/clip_6_alien.m4a,null,"<p>When you arrive at a new planet, the alien who owns the treasure mine on that planet will greet you!</p><p>The better an alien takes care of their mine the easier it is to dig for gems. Some aliens take better care of their mine than others. So, you won’t get exactly the same amount of gems on each planet.</p><p>What the alien looks like does not tell you anything about how many gems there are on the planet.</p><br><p><img src=""run_exp/static/images/task_images/aliens/instructions_aliens/planet/alien_planet-1.jpg""  height=""600"" width=""auto""></p>",,,,,,,,,,,,,,,,,,,,,,,
instruc_alien_greet,16,138522,0.0-7.0-7.0,"""event"",""trial"",""time""
""fullscreenenter"",""1"",""2166""
","
","
","""event"",""trial"",""time""
""fullscreenenter"",""1"",""2166""
","
",,2685.7,"<p>When you arrive at a new planet, the alien who owns the treasure mine on that planet will greet you!</p><p>The better an alien takes care of their mine the easier it is to dig for gems. Some aliens take better care of their mine than others. So, you won’t get exactly the same amount of gems on each planet.</p><p>What the alien looks like does not tell you anything about how many gems there are on the planet.</p><br><p><img src=""run_exp/static/images/task_images/aliens/instructions_aliens/planet/alien_planet-1.jpg""  height=""600"" width=""auto""></p>",,,,,,,1,,,,,,,,,,,,,,,,,,
html-keyboard-response,17,139386,0.0-7.0-8.0,"""event"",""trial"",""time""
""fullscreenenter"",""1"",""2166""
","
","
","""event"",""trial"",""time""
""fullscreenenter"",""1"",""2166""
","
",,862,"<p>When you arrive at a new planet, the alien who owns the treasure mine on that planet will greet you!</p><p>The better an alien takes care of their mine the easier it is to dig for gems. Some aliens take better care of their mine than others. So, you won’t get exactly the same amount of gems on each planet.</p><p>What the alien looks like does not tell you anything about how many gems there are on the planet.</p><br><p><img src=""run_exp/static/images/task_images/aliens/instructions_aliens/planet/alien_planet-1.jpg""  height=""600"" width=""auto""></p><button class=""jspsych-html-btn-unchosen""><img src=""run_exp/static/images/task_images/planet-01.jpg"" height=""50""></button><button class=""jspsych-html-btn-chosen""><img src=""run_exp/static/images/task_images/planet-02.jpg"" height=""50""></button><p><b>[press the space bar to lock in your answer]<b><br></p>",32,,,,,,,,,,,,,,,,,,,,,,,,
time_out,18,150469,0.0-8.0-0.0,"""event"",""trial"",""time""
""fullscreenenter"",""1"",""2166""
","
","
","""event"",""trial"",""time""
""fullscreenenter"",""1"",""2166""
","
",,null,run_exp/static/audio/clip_7_timeout.m4a,null,"<p>If you don't make your choice fast enough, you’ll have to wait a few seconds before you can make another one.</p><p>You can’t dig for more gems or travel to new planets. You just have to sit and wait.</p><br><p><img src='run_exp/static/images/task_images/time_out.jpg'  height='600' width='auto'></p>",,,,,,,,,,,,,,,,,,,,,,,
time_out,19,151744,0.0-8.0-1.0,"""event"",""trial"",""time""
""fullscreenenter"",""1"",""2166""
","
","
","""event"",""trial"",""time""
""fullscreenenter"",""1"",""2166""
","
",,1272.7,"<p>If you don't make your choice fast enough, you’ll have to wait a few seconds before you can make another one.</p><p>You can’t dig for more gems or travel to new planets. You just have to sit and wait.</p><br><p><img src='run_exp/static/images/task_images/time_out.jpg'  height='600' width='auto'></p>",,,,,,,1,,,,,,,,,,,,,,,,,,
html-keyboard-response,20,152264,0.0-8.0-2.0,"""event"",""trial"",""time""
""fullscreenenter"",""1"",""2166""
","
","
","""event"",""trial"",""time""
""fullscreenenter"",""1"",""2166""
","
",,519,"<p>If you don't make your choice fast enough, you’ll have to wait a few seconds before you can make another one.</p><p>You can’t dig for more gems or travel to new planets. You just have to sit and wait.</p><br><p><img src='run_exp/static/images/task_images/time_out.jpg'  height='600' width='auto'></p><button class=""jspsych-html-btn-unchosen""><img src=""run_exp/static/images/task_images/planet-01.jpg"" height=""50""></button><button class=""jspsych-html-btn-chosen""><img src=""run_exp/static/images/task_images/planet-02.jpg"" height=""50""></button><p><b>[press the space bar to lock in your answer]<b><br></p>",32,,,,,,,,,,,,,,,,,,,,,,,,
instruc_break,21,167962,0.0-9.0-0.0,"""event"",""trial"",""time""
""fullscreenenter"",""1"",""2166""
","
","
","""event"",""trial"",""time""
""fullscreenenter"",""1"",""2166""
","
",,null,run_exp/static/audio/clip_8_break.m4a,null,"<p> After digging and traveling for a while, you’ll be able to take a break at home base. </p><p>The game will last 20 minutes no matter what.</p><p>You will visit home base every 5 minutes, so, you will visit home base three times during the game.</p><br><p><img src='run_exp/static/images/task_images/home_base.jpg' height='600' width='auto'></p>",,,,,,,,,,,,,,,,,,,,,,,
instruc_break,22,169340,0.0-9.0-1.0,"""event"",""trial"",""time""
""fullscreenenter"",""1"",""2166""
","
","
","""event"",""trial"",""time""
""fullscreenenter"",""1"",""2166""
","
",,1375.6,"<p> After digging and traveling for a while, you’ll be able to take a break at home base. </p><p>The game will last 20 minutes no matter what.</p><p>You will visit home base every 5 minutes, so, you will visit home base three times during the game.</p><br><p><img src='run_exp/static/images/task_images/home_base.jpg' height='600' width='auto'></p>",,,,,,,1,,,,,,,,,,,,,,,,,,
html-keyboard-response,23,169896,0.0-9.0-2.0,"""event"",""trial"",""time""
""fullscreenenter"",""1"",""2166""
","
","
","""event"",""trial"",""time""
""fullscreenenter"",""1"",""2166""
","
",,553.2,"<p> After digging and traveling for a while, you’ll be able to take a break at home base. </p><p>The game will last 20 minutes no matter what.</p><p>You will visit home base every 5 minutes, so, you will visit home base three times during the game.</p><br><p><img src='run_exp/static/images/task_images/home_base.jpg' height='600' width='auto'></p><button class=""jspsych-html-btn-unchosen""><img src=""run_exp/static/images/task_images/planet-01.jpg"" height=""50""></button><button class=""jspsych-html-btn-chosen""><img src=""run_exp/static/images/task_images/planet-02.jpg"" height=""50""></button><p><b>[press the space bar to lock in your answer]<b><br></p>",32,,,,,,,,,,,,,,,,,,,,,,,,
instruc_prac_game,24,180016,0.0-10.0-0.0,"""event"",""trial"",""time""
""fullscreenenter"",""1"",""2166""
","
","
","""event"",""trial"",""time""
""fullscreenenter"",""1"",""2166""
","
",,null,run_exp/static/audio/clip_9_practice.m4a,null,"<p> Are you ready to play a practice game? </p> <p>In this practice game, you'll be digging up barrels of gems. But, in the real game, you'll be digging up the gems themselves. </p>",,,,,,,,,,,,,,,,,,,,,,,
html-button-response,25,182129,0.0-10.0-1.0,"""event"",""trial"",""time""
""fullscreenenter"",""1"",""2166""
","
","
","""event"",""trial"",""time""
""fullscreenenter"",""1"",""2166""
","
",,2110.6,"<p> Are you ready to play a practice game? </p> <p>In this practice game, you'll be digging up barrels of gems. But, in the real game, you'll be digging up the gems themselves. </p>",,,,,,,0,,,,,,,,,,,,,,,,,,
alien_welcome_prac,26,187133,0.0-11.0-0.0,"""event"",""trial"",""time""
""fullscreenenter"",""1"",""2166""
","
","
","""event"",""trial"",""time""
""fullscreenenter"",""1"",""2166""
","
",,null,run_exp/static/images/task_images/aliens/practice_aliens/planet/alien_planet-5.jpg,null,,,,,,,,,,,,,,,,,,,,,,,,
land_prac,27,187636,0.0-11.0-1.0,"""event"",""trial"",""time""
""fullscreenenter"",""1"",""2166""
","
","
","""event"",""trial"",""time""
""fullscreenenter"",""1"",""2166""
","
",,null,run_exp/static/images/task_images/land.jpg,null,,,,,,,102,,,0,,,,,,,,,,,,,,
dig_prac,28,189640,0.0-11.0-2.0,"""event"",""trial"",""time""
""fullscreenenter"",""1"",""2166""
","
","
","""event"",""trial"",""time""
""fullscreenenter"",""1"",""2166""
","
",,,,,,,,,,,,"[{""stimulus"":""run_exp/static/images/task_images/dig.jpg"",""time"":0.20000004768371582},{""stimulus"":""run_exp/static/images/task_images/land.jpg"",""time"":671.8000000715256},{""stimulus"":""run_exp/static/images/task_images/dig.jpg"",""time"":1343.8999999761581}]",[],,,,,,,,,,,,,,,
harvest_prac,29,190642,0.0-11.0-3.0,"""event"",""trial"",""time""
""fullscreenenter"",""1"",""2166""
","
","
","""event"",""trial"",""time""
""fullscreenenter"",""1"",""2166""
","
",,null,run_exp/static/images/task_images/barrel_text.jpg,null,,,,,,,,,,,,,,,,,,,,,,,,
decision_prac,30,192369,0.0-11.0-4.0,"""event"",""trial"",""time""
""fullscreenenter"",""1"",""2166""
","
","
","""event"",""trial"",""time""
""fullscreenenter"",""1"",""2166""
","
",,1725.4,run_exp/static/images/task_images/land.jpg,65,,,,,,,,,,,1,,,,,,,,,,,,,
dig_prac,31,194376,0.0-12.0-0.0,"""event"",""trial"",""time""
""fullscreenenter"",""1"",""2166""
","
","
","""event"",""trial"",""time""
""fullscreenenter"",""1"",""2166""
","
",,,,,,,,,,,,"[{""stimulus"":""run_exp/static/images/task_images/dig.jpg"",""time"":0.2999999523162842},{""stimulus"":""run_exp/static/images/task_images/land.jpg"",""time"":669.1999999284744},{""stimulus"":""run_exp/static/images/task_images/dig.jpg"",""time"":1335.5}]",[],,,,,,,,,,,,,,,
harvest_prac,32,195379,0.0-12.0-1.0,"""event"",""trial"",""time""
""fullscreenenter"",""1"",""2166""
","
","
","""event"",""trial"",""time""
""fullscreenenter"",""1"",""2166""
","
",,null,run_exp/static/images/task_images/barrel_text.jpg,null,,,,,,,,,,,,,,,,,,,,,,,,
decision_prac,33,196094,0.0-12.0-2.0,"""event"",""trial"",""time""
""fullscreenenter"",""1"",""2166""
","
","
","""event"",""trial"",""time""
""fullscreenenter"",""1"",""2166""
","
",,713.7,run_exp/static/images/task_images/land.jpg,65,,,,,,,,,,,2,,,,,,,,,,,,,
dig_prac,34,198103,0.0-13.0-0.0,"""event"",""trial"",""time""
""fullscreenenter"",""1"",""2166""
","
","
","""event"",""trial"",""time""
""fullscreenenter"",""1"",""2166""
","
",,,,,,,,,,,,"[{""stimulus"":""run_exp/static/images/task_images/dig.jpg"",""time"":0.19999992847442627},{""stimulus"":""run_exp/static/images/task_images/land.jpg"",""time"":672.1999999284744},{""stimulus"":""run_exp/static/images/task_images/dig.jpg"",""time"":1337.5999999046326}]",[],,,,,,,,,,,,,,,
harvest_prac,35,199109,0.0-13.0-1.0,"""event"",""trial"",""time""
""fullscreenenter"",""1"",""2166""
","
","
","""event"",""trial"",""time""
""fullscreenenter"",""1"",""2166""
","
",,null,run_exp/static/images/task_images/barrel_text.jpg,null,,,,,,,,,,,,,,,,,,,,,,,,
decision_prac,36,199510,0.0-13.0-2.0,"""event"",""trial"",""time""
""fullscreenenter"",""1"",""2166""
","
","
","""event"",""trial"",""time""
""fullscreenenter"",""1"",""2166""
","
",,399.6,run_exp/static/images/task_images/land.jpg,65,,,,,,,,,,,3,,,,,,,,,,,,,
dig_prac,37,201520,0.0-14.0-0.0,"""event"",""trial"",""time""
""fullscreenenter"",""1"",""2166""
","
","
","""event"",""trial"",""time""
""fullscreenenter"",""1"",""2166""
","
",,,,,,,,,,,,"[{""stimulus"":""run_exp/static/images/task_images/dig.jpg"",""time"":0.20000004768371582},{""stimulus"":""run_exp/static/images/task_images/land.jpg"",""time"":669.3999999761581},{""stimulus"":""run_exp/static/images/task_images/dig.jpg"",""time"":1337.2999999523163}]",[],,,,,,,,,,,,,,,
harvest_prac,38,202523,0.0-14.0-1.0,"""event"",""trial"",""time""
""fullscreenenter"",""1"",""2166""
","
","
","""event"",""trial"",""time""
""fullscreenenter"",""1"",""2166""
","
",,null,run_exp/static/images/task_images/barrel_text.jpg,null,,,,,,,,,,,,,,,,,,,,,,,,
decision_prac,39,203263,0.0-14.0-2.0,"""event"",""trial"",""time""
""fullscreenenter"",""1"",""2166""
","
","
","""event"",""trial"",""time""
""fullscreenenter"",""1"",""2166""
","
",,739,run_exp/static/images/task_images/land.jpg,65,,,,,,,,,,,4,,,,,,,,,,,,,
dig_prac,40,205270,0.0-15.0-0.0,"""event"",""trial"",""time""
""fullscreenenter"",""1"",""2166""
","
","
","""event"",""trial"",""time""
""fullscreenenter"",""1"",""2166""
","
",,,,,,,,,,,,"[{""stimulus"":""run_exp/static/images/task_images/dig.jpg"",""time"":0.19999992847442627},{""stimulus"":""run_exp/static/images/task_images/land.jpg"",""time"":672.0999999046326},{""stimulus"":""run_exp/static/images/task_images/dig.jpg"",""time"":1339.8999999761581}]",[],,,,,,,,,,,,,,,
harvest_prac,41,206276,0.0-15.0-1.0,"""event"",""trial"",""time""
""fullscreenenter"",""1"",""2166""
","
","
","""event"",""trial"",""time""
""fullscreenenter"",""1"",""2166""
","
",,null,run_exp/static/images/task_images/barrel_text.jpg,null,,,,,,,,,,,,,,,,,,,,,,,,
decision_prac,42,206352,0.0-15.0-2.0,"""event"",""trial"",""time""
""fullscreenenter"",""1"",""2166""
","
","
","""event"",""trial"",""time""
""fullscreenenter"",""1"",""2166""
","
",,74.89999998,run_exp/static/images/task_images/land.jpg,76,,,,,,,,,,,,1,,,,,,,,,,,,
quiz_instruc,43,208672,0.0-16.0-0.0,"""event"",""trial"",""time""
""fullscreenenter"",""1"",""2166""
","
","
","""event"",""trial"",""time""
""fullscreenenter"",""1"",""2166""
","
",,2315.9,run_exp/static/audio/clip_10_quiz.m4a,,,,,,,0,,,,,,,,,,,,,,,,,,
instruc_repeat,44,251419,0.0-16.0-1.0,"""event"",""trial"",""time""
""fullscreenenter"",""1"",""2166""
","
","
","""event"",""trial"",""time""
""fullscreenenter"",""1"",""2166""
","
",,null,"<p> Are you ready to play a practice game? </p> <p>In this practice game, you'll be digging up barrels of gems. But, in the real game, you'll be digging up the gems themselves. </p>",null,"<p>In this game, your goal is to collect as many gems as you can. That’s how you will win bonus money. </p> <p>The entire game will last 20 minutes no matter how many gems you collect or how many planets you visit. </p><p>To stay on a planet and dig again, press the letter A on your keyboard. To leave for a new planet, press the letter L.</p><p>The more you dig on a planet, the fewer gems you’ll get with each dig which is why you might consider leaving for a new planet. </p><p>When you arrive at a new planet, you’ll be greeted by an alien. What the alien looks like does not tell you anything about how much treasure is on the planet. </p>",,,,,,,,,,,,,,,,,,,,,,,
instruc_repeat_continue,45,253018,0.0-16.0-2.0,"""event"",""trial"",""time""
""fullscreenenter"",""1"",""2166""
","
","
","""event"",""trial"",""time""
""fullscreenenter"",""1"",""2166""
","
",,1597.6,"<p> Are you ready to play a practice game? </p> <p>In this practice game, you'll be digging up barrels of gems. But, in the real game, you'll be digging up the gems themselves. </p>",,,,,,,0,,,,,,,,,,,,,,,,,,
quiz_q_1_ask,46,255077,0.0-16.0-3.0,"""event"",""trial"",""time""
""fullscreenenter"",""1"",""2166""
","
","
","""event"",""trial"",""time""
""fullscreenenter"",""1"",""2166""
","
",,2055.9,run_exp/static/audio/clip_11_q1_ask.m4a,,,,,,,2,,,,,,,,,,,,,,,,,,
quiz_q_1_fb_correct,47,258930,0.0-17.0-0.0,"""event"",""trial"",""time""
""fullscreenenter"",""1"",""2166""
","
","
","""event"",""trial"",""time""
""fullscreenenter"",""1"",""2166""
","
",,null,run_exp/static/audio/clip_12_q1_correct.m4a,null,<p>That’s correct. You win extra money by collecting more gems.</p>,,,,,,,,,,,,,,,,,,,,,,,
quiz_q_2_ask,48,261646,0.0-17.0-1.0,"""event"",""trial"",""time""
""fullscreenenter"",""1"",""2166""
","
","
","""event"",""trial"",""time""
""fullscreenenter"",""1"",""2166""
","
",,2712.1,run_exp/static/audio/clip_14_q2_ask.m4a,,,,,,,1,,,,,,,,,,,,,,,,,,
quiz_q_2_fb_correct,49,265671,0.0-18.0-0.0,"""event"",""trial"",""time""
""fullscreenenter"",""1"",""2166""
","
","
","""event"",""trial"",""time""
""fullscreenenter"",""1"",""2166""
","
",,null,run_exp/static/audio/clip_15_q2_correct.m4a,null,<p>That’s correct. The experiment is 20 minutes no matter what.</p>,,,,,,,,,,,,,,,,,,,,,,,
quiz_q_3_ask,50,268261,0.0-18.0-1.0,"""event"",""trial"",""time""
""fullscreenenter"",""1"",""2166""
","
","
","""event"",""trial"",""time""
""fullscreenenter"",""1"",""2166""
","
",,2587.7,run_exp/static/audio/clip_17_q3_ask.m4a,,,,,,,1,,,,,,,,,,,,,,,,,,
quiz_q_3_fb_correct,51,272241,0.0-19.0-0.0,"""event"",""trial"",""time""
""fullscreenenter"",""1"",""2166""
","
","
","""event"",""trial"",""time""
""fullscreenenter"",""1"",""2166""
","
",,null,run_exp/static/audio/clip_18_q3_correct.m4a,null,<p> That’s correct. You press the letter L to travel to a new planet.</p>,,,,,,,,,,,,,,,,,,,,,,,
quiz_q_4_ask,52,275506,0.0-19.0-1.0,"""event"",""trial"",""time""
""fullscreenenter"",""1"",""2166""
","
","
","""event"",""trial"",""time""
""fullscreenenter"",""1"",""2166""
","
",,3262.2,run_exp/static/audio/clip_20_q4_ask.m4a,,,,,,,0,,,,,,,,,,,,,,,,,,
quiz_q_4_fb_correct,53,280817,0.0-20.0-0.0,"""event"",""trial"",""time""
""fullscreenenter"",""1"",""2166""
","
","
","""event"",""trial"",""time""
""fullscreenenter"",""1"",""2166""
","
",,null,run_exp/static/audio/clip_21_q4_correct.m4a,null,<p> That’s correct. The more you dig on a planet the fewer gems you’ll get with each dig. </p>,,,,,,,,,,,,,,,,,,,,,,,
quiz_q_5_ask,54,283171,0.0-20.0-1.0,"""event"",""trial"",""time""
""fullscreenenter"",""1"",""2166""
","
","
","""event"",""trial"",""time""
""fullscreenenter"",""1"",""2166""
","
",,2351.2,run_exp/static/audio/clip_23_q5_ask.m4a,,,,,,,1,,,,,,,,,,,,,,,,,,
quiz_q_5_fb_correct,55,288178,0.0-21.0-0.0,"""event"",""trial"",""time""
""fullscreenenter"",""1"",""2166""
","
","
","""event"",""trial"",""time""
""fullscreenenter"",""1"",""2166""
","
",,null,run_exp/static/audio/clip_24_q5_correct.m4a,null,<p> That’s correct. The alien tells you nothing about how much treasure is on the planet.</p>,,,,,,,,,,,,,,,,,,,,,,,
quiz_correct,56,291634,0.0-22.0-0.0,"""event"",""trial"",""time""
""fullscreenenter"",""1"",""2166""
","
","
","""event"",""trial"",""time""
""fullscreenenter"",""1"",""2166""
","
",,null,run_exp/static/audio/clip_26_correct_quiz.m4a,null,,,,,,,,,,,,,,,,,,,,,,,,
quiz_correct_continue,57,292794,0.0-22.0-1.0,"""event"",""trial"",""time""
""fullscreenenter"",""1"",""2166""
","
","
","""event"",""trial"",""time""
""fullscreenenter"",""1"",""2166""
","
",,1158.5,<p>Good job! You're now ready to move on to the real game!</p>,,,,,,,0,,,,,,,,,,,,,,,,,,
audio-keyboard-response,58,302919,0.0-22.0-2.0,"""event"",""trial"",""time""
""fullscreenenter"",""1"",""2166""
","
","
","""event"",""trial"",""time""
""fullscreenenter"",""1"",""2166""
","
",,null,run_exp/static/audio/clip_28_real_game.m4a,null,,,,,,,,,,,,,,,,,,,,,,,,
instruc_begin_exp_contine,59,304591,0.0-22.0-3.0,"""event"",""trial"",""time""
""fullscreenenter"",""1"",""2166""
","
","
","""event"",""trial"",""time""
""fullscreenenter"",""1"",""2166""
","
",,1670.1,"<p>Now that you know how  to dig for space treasure and travel to new planets,you can start exploring! </p><p>Do you want to go over the instructions again or get started with the real game?</p>",,,,,,,1,,,,,,1,,,,,,,,,,,,
alien_welcome,60,309595,0.0-23.0-0.0,"""event"",""trial"",""time""
""fullscreenenter"",""1"",""2166""
","
","
","""event"",""trial"",""time""
""fullscreenenter"",""1"",""2166""
","
",,null,run_exp/static/images/task_images/aliens/old_aliens/planet/alien_planet-21.jpg,null,,,,,,,,,,,,,21,"21,5,1,77,25,10,30,42,72,67,52,50,6,58,28,16,68,66,47,40,53,8,45,35,29,44,23,7,18,57,48,13,74,59,12,33",,,,,,,,,,
land,61,310103,0.0-23.0-1.0,"""event"",""trial"",""time""
""fullscreenenter"",""1"",""2166""
","
","
","""event"",""trial"",""time""
""fullscreenenter"",""1"",""2166""
","
",,null,run_exp/static/images/task_images/land.jpg,null,,,,,,,95,,,1,,,,,,,,,,,,,,
dig,62,312109,0.0-23.0-2.0,"""event"",""trial"",""time""
""fullscreenenter"",""1"",""2166""
","
","
","""event"",""trial"",""time""
""fullscreenenter"",""1"",""2166""
","
",,,,,,,,,,,,"[{""stimulus"":""run_exp/static/images/task_images/dig.jpg"",""time"":0.3999999761581421},{""stimulus"":""run_exp/static/images/task_images/land.jpg"",""time"":672.6999999284744},{""stimulus"":""run_exp/static/images/task_images/dig.jpg"",""time"":1344.6000000238419}]",[],1,,,,,,,,,,,,,,
harvest,63,313114,0.0-23.0-3.0,"""event"",""trial"",""time""
""fullscreenenter"",""1"",""2166""
","
","
","""event"",""trial"",""time""
""fullscreenenter"",""1"",""2166""
","
",,null,run_exp/static/images/task_images/gems/95.jpg,null,,,,,,,23,,,1,,,,,95,0.244316123,0.242105263,,,,,,,
decision,64,313889,0.0-23.0-4.0,"""event"",""trial"",""time""
""fullscreenenter"",""1"",""2166""
","
","
","""event"",""trial"",""time""
""fullscreenenter"",""1"",""2166""
","
",,772.9,run_exp/static/images/task_images/land.jpg,65,,,,,,,23,,,1,,,,,,,,9297,1,0,FALSE,,,
dig,65,316124,0.0-24.0-0.0,"""event"",""trial"",""time""
""fullscreenenter"",""1"",""2166""
","
","
","""event"",""trial"",""time""
""fullscreenenter"",""1"",""2166""
","
",,,,,,,,,,,,"[{""stimulus"":""run_exp/static/images/task_images/dig.jpg"",""time"":0.20000004768371582},{""stimulus"":""run_exp/static/images/task_images/land.jpg"",""time"":747.2000000476837},{""stimulus"":""run_exp/static/images/task_images/dig.jpg"",""time"":1487.7000000476837}]",[],1,,,,,,,,,,,,,,
harvest,66,317127,0.0-24.0-1.0,"""event"",""trial"",""time""
""fullscreenenter"",""1"",""2166""
","
","
","""event"",""trial"",""time""
""fullscreenenter"",""1"",""2166""
","
",,null,run_exp/static/images/task_images/gems/23.jpg,null,,,,,,,4,,,1,,,,,23,0.19153456,0.173913043,,,,,,,
decision,67,317629,0.0-24.0-2.0,"""event"",""trial"",""time""
""fullscreenenter"",""1"",""2166""
","
","
","""event"",""trial"",""time""
""fullscreenenter"",""1"",""2166""
","
",,499.5999999,run_exp/static/images/task_images/land.jpg,65,,,,,,,4,,,1,,,,,,,,13036,1,1,FALSE,,,
dig,68,320134,0.0-25.0-0.0,"""event"",""trial"",""time""
""fullscreenenter"",""1"",""2166""
","
","
","""event"",""trial"",""time""
""fullscreenenter"",""1"",""2166""
","
",,,,,,,,,,,,"[{""stimulus"":""run_exp/static/images/task_images/dig.jpg"",""time"":0.19999992847442627},{""stimulus"":""run_exp/static/images/task_images/land.jpg"",""time"":838.1999999284744},{""stimulus"":""run_exp/static/images/task_images/dig.jpg"",""time"":1669.5}]",[],1,,,,,,,,,,,,,,
harvest,69,321138,0.0-25.0-1.0,"""event"",""trial"",""time""
""fullscreenenter"",""1"",""2166""
","
","
","""event"",""trial"",""time""
""fullscreenenter"",""1"",""2166""
","
",,null,run_exp/static/images/task_images/gems/4.jpg,null,,,,,,,1,,,1,,,,,4,0.193348817,0.25,,,,,,,
decision,70,321972,0.0-25.0-2.0,"""event"",""trial"",""time""
""fullscreenenter"",""1"",""2166""
","
","
","""event"",""trial"",""time""
""fullscreenenter"",""1"",""2166""
","
",,832.7,run_exp/static/images/task_images/land.jpg,76,,,,,,,1,,,1,,,,,,,,17380,1,2,TRUE,,,
travel,71,331141,0.0-26.0-0.0,"""event"",""trial"",""time""
""fullscreenenter"",""1"",""2166""
","
","
","""event"",""trial"",""time""
""fullscreenenter"",""1"",""2166""
","
",,,,,,,,,,,,"[{""stimulus"":""run_exp/static/images/task_images/rocket-01.jpg"",""time"":0.20000004768371582},{""stimulus"":""run_exp/static/images/task_images/rocket-02.jpg"",""time"":1023},{""stimulus"":""run_exp/static/images/task_images/rocket-03.jpg"",""time"":2041.1000000238419},{""stimulus"":""run_exp/static/images/task_images/rocket-04.jpg"",""time"":3056.8000000715256},{""stimulus"":""run_exp/static/images/task_images/rocket-05.jpg"",""time"":4074.5},{""stimulus"":""run_exp/static/images/task_images/rocket-06.jpg"",""time"":5095.600000023842},{""stimulus"":""run_exp/static/images/task_images/rocket-07.jpg"",""time"":6116.200000047684},{""stimulus"":""run_exp/static/images/task_images/rocket-08.jpg"",""time"":7130.200000047684},{""stimulus"":""run_exp/static/images/task_images/rocket-09.jpg"",""time"":8150.400000095367}]",[],1,,,,,,,,,,,,,,
alien_welcome,72,336146,0.0-26.0-1.0,"""event"",""trial"",""time""
""fullscreenenter"",""1"",""2166""
","
","
","""event"",""trial"",""time""
""fullscreenenter"",""1"",""2166""
","
",,null,run_exp/static/images/task_images/aliens/old_aliens/planet/alien_planet-5.jpg,null,,,,,,,,,,,,,5,"21,5,1,77,25,10,30,42,72,67,52,50,6,58,28,16,68,66,47,40,53,8,45,35,29,44,23,7,18,57,48,13,74,59,12,33",,,,,,,,,,
land,73,336648,0.0-26.0-2.0,"""event"",""trial"",""time""
""fullscreenenter"",""1"",""2166""
","
","
","""event"",""trial"",""time""
""fullscreenenter"",""1"",""2166""
","
",,null,run_exp/static/images/task_images/land.jpg,null,,,,,,,95,,,2,,,,,,,,,,,,,,
dig,74,338655,0.0-26.0-3.0,"""event"",""trial"",""time""
""fullscreenenter"",""1"",""2166""
","
","
","""event"",""trial"",""time""
""fullscreenenter"",""1"",""2166""
","
",,,,,,,,,,,,"[{""stimulus"":""run_exp/static/images/task_images/dig.jpg"",""time"":0.5},{""stimulus"":""run_exp/static/images/task_images/land.jpg"",""time"":671.6000000238419},{""stimulus"":""run_exp/static/images/task_images/dig.jpg"",""time"":1335.7000000476837}]",[],2,,,,,,,,,,,,,,
harvest,75,339661,0.0-26.0-4.0,"""event"",""trial"",""time""
""fullscreenenter"",""1"",""2166""
","
","
","""event"",""trial"",""time""
""fullscreenenter"",""1"",""2166""
","
",,null,run_exp/static/images/task_images/gems/95.jpg,null,,,,,,,16,,,2,,,,,95,0.166895887,0.168421053,,,,,,,
decision,76,340166,0.0-26.0-5.0,"""event"",""trial"",""time""
""fullscreenenter"",""1"",""2166""
","
","
","""event"",""trial"",""time""
""fullscreenenter"",""1"",""2166""
","
",,503.3,run_exp/static/images/task_images/land.jpg,65,,,,,,,16,,,2,,,,,,,,35573,1,0,FALSE,,,
dig,77,342670,0.0-27.0-0.0,"""event"",""trial"",""time""
""fullscreenenter"",""1"",""2166""
","
","
","""event"",""trial"",""time""
""fullscreenenter"",""1"",""2166""
","
",,,,,,,,,,,,"[{""stimulus"":""run_exp/static/images/task_images/dig.jpg"",""time"":0.10000002384185791},{""stimulus"":""run_exp/static/images/task_images/land.jpg"",""time"":838.2999999523163},{""stimulus"":""run_exp/static/images/task_images/dig.jpg"",""time"":1668}]",[],2,,,,,,,,,,,,,,
harvest,78,343675,0.0-27.0-1.0,"""event"",""trial"",""time""
""fullscreenenter"",""1"",""2166""
","
","
","""event"",""trial"",""time""
""fullscreenenter"",""1"",""2166""
","
",,null,run_exp/static/images/task_images/gems/16.jpg,null,,,,,,,3,,,2,,,,,16,0.16416563,0.1875,,,,,,,
decision,79,344166,0.0-27.0-2.0,"""event"",""trial"",""time""
""fullscreenenter"",""1"",""2166""
","
","
","""event"",""trial"",""time""
""fullscreenenter"",""1"",""2166""
","
",,489.8,run_exp/static/images/task_images/land.jpg,65,,,,,,,3,,,2,,,,,,,,39573,1,1,FALSE,,,
dig,80,346684,0.0-28.0-0.0,"""event"",""trial"",""time""
""fullscreenenter"",""1"",""2166""
","
","
","""event"",""trial"",""time""
""fullscreenenter"",""1"",""2166""
","
",,,,,,,,,,,,"[{""stimulus"":""run_exp/static/images/task_images/dig.jpg"",""time"":0.19999992847442627},{""stimulus"":""run_exp/static/images/task_images/land.jpg"",""time"":840.3999999761581},{""stimulus"":""run_exp/static/images/task_images/dig.jpg"",""time"":1674.7999999523163}]",[],2,,,,,,,,,,,,,,
harvest,81,347686,0.0-28.0-1.0,"""event"",""trial"",""time""
""fullscreenenter"",""1"",""2166""
","
","
","""event"",""trial"",""time""
""fullscreenenter"",""1"",""2166""
","
",,null,run_exp/static/images/task_images/gems/3.jpg,null,,,,,,,1,,,2,,,,,3,0.16920526,0.333333333,,,,,,,
decision,82,348102,0.0-28.0-2.0,"""event"",""trial"",""time""
""fullscreenenter"",""1"",""2166""
","
","
","""event"",""trial"",""time""
""fullscreenenter"",""1"",""2166""
","
",,413.4000001,run_exp/static/images/task_images/land.jpg,76,,,,,,,1,,,2,,,,,,,,43509,1,2,TRUE,,,
travel,83,357626,0.0-29.0-0.0,"""event"",""trial"",""time""
""fullscreenenter"",""1"",""2166""
","
","
","""event"",""trial"",""time""
""fullscreenenter"",""1"",""2166""
","
",,,,,,,,,,,,"[{""stimulus"":""run_exp/static/images/task_images/rocket-01.jpg"",""time"":0.20000004768371582},{""stimulus"":""run_exp/static/images/task_images/rocket-02.jpg"",""time"":1066.8000000715256},{""stimulus"":""run_exp/static/images/task_images/rocket-03.jpg"",""time"":2131.8000000715256},{""stimulus"":""run_exp/static/images/task_images/rocket-04.jpg"",""time"":3197.8000000715256},{""stimulus"":""run_exp/static/images/task_images/rocket-05.jpg"",""time"":4262.800000071526},{""stimulus"":""run_exp/static/images/task_images/rocket-06.jpg"",""time"":5338.300000071526},{""stimulus"":""run_exp/static/images/task_images/rocket-07.jpg"",""time"":6393.100000023842},{""stimulus"":""run_exp/static/images/task_images/rocket-08.jpg"",""time"":7460.5},{""stimulus"":""run_exp/static/images/task_images/rocket-09.jpg"",""time"":8521.600000023842}]",[],2,,,,,,,,,,,,,,
alien_welcome,84,362632,0.0-29.0-1.0,"""event"",""trial"",""time""
""fullscreenenter"",""1"",""2166""
","
","
","""event"",""trial"",""time""
""fullscreenenter"",""1"",""2166""
","
",,null,run_exp/static/images/task_images/aliens/old_aliens/planet/alien_planet-1.jpg,null,,,,,,,,,,,,,1,"21,5,1,77,25,10,30,42,72,67,52,50,6,58,28,16,68,66,47,40,53,8,45,35,29,44,23,7,18,57,48,13,74,59,12,33",,,,,,,,,,
land,85,363135,0.0-29.0-2.0,"""event"",""trial"",""time""
""fullscreenenter"",""1"",""2166""
","
","
","""event"",""trial"",""time""
""fullscreenenter"",""1"",""2166""
","
",,null,run_exp/static/images/task_images/land.jpg,null,,,,,,,94,,,3,,,,,,,,,,,,,,
dig,86,365144,0.0-29.0-3.0,"""event"",""trial"",""time""
""fullscreenenter"",""1"",""2166""
","
","
","""event"",""trial"",""time""
""fullscreenenter"",""1"",""2166""
","
",,,,,,,,,,,,"[{""stimulus"":""run_exp/static/images/task_images/dig.jpg"",""time"":0.3999999761581421},{""stimulus"":""run_exp/static/images/task_images/land.jpg"",""time"":672.1000000238419},{""stimulus"":""run_exp/static/images/task_images/dig.jpg"",""time"":1336.2000000476837}]",[],3,,,,,,,,,,,,,,
harvest,87,366149,0.0-29.0-4.0,"""event"",""trial"",""time""
""fullscreenenter"",""1"",""2166""
","
","
","""event"",""trial"",""time""
""fullscreenenter"",""1"",""2166""
","
",,null,run_exp/static/images/task_images/gems/94.jpg,null,,,,,,,36,,,3,,,,,94,0.384991693,0.382978723,,,,,,,
decision,88,366725,0.0-29.0-5.0,"""event"",""trial"",""time""
""fullscreenenter"",""1"",""2166""
","
","
","""event"",""trial"",""time""
""fullscreenenter"",""1"",""2166""
","
",,573,run_exp/static/images/task_images/land.jpg,65,,,,,,,36,,,3,,,,,,,,62132,1,0,FALSE,,,
dig,89,369162,0.0-30.0-0.0,"""event"",""trial"",""time""
""fullscreenenter"",""1"",""2166""
","
","
","""event"",""trial"",""time""
""fullscreenenter"",""1"",""2166""
","
",,,,,,,,,,,,"[{""stimulus"":""run_exp/static/images/task_images/dig.jpg"",""time"":0.20000004768371582},{""stimulus"":""run_exp/static/images/task_images/land.jpg"",""time"":814.6000000238419},{""stimulus"":""run_exp/static/images/task_images/dig.jpg"",""time"":1623.1000000238419}]",[],3,,,,,,,,,,,,,,
harvest,90,370167,0.0-30.0-1.0,"""event"",""trial"",""time""
""fullscreenenter"",""1"",""2166""
","
","
","""event"",""trial"",""time""
""fullscreenenter"",""1"",""2166""
","
",,null,run_exp/static/images/task_images/gems/36.jpg,null,,,,,,,17,,,3,,,,,36,0.465855373,0.472222222,,,,,,,
decision,91,370468,0.0-30.0-2.0,"""event"",""trial"",""time""
""fullscreenenter"",""1"",""2166""
","
","
","""event"",""trial"",""time""
""fullscreenenter"",""1"",""2166""
","
",,289.8,run_exp/static/images/task_images/land.jpg,65,,,,,,,17,,,3,,,,,,,,65876,1,1,FALSE,,,
dig,92,373237,0.0-31.0-0.0,"""event"",""trial"",""time""
""fullscreenenter"",""1"",""2166""
","
","
","""event"",""trial"",""time""
""fullscreenenter"",""1"",""2166""
","
",,,,,,,,,,,,"[{""stimulus"":""run_exp/static/images/task_images/dig.jpg"",""time"":1.8000000715255737},{""stimulus"":""run_exp/static/images/task_images/land.jpg"",""time"":1013.3999999761581},{""stimulus"":""run_exp/static/images/task_images/dig.jpg"",""time"":1815}]",[],3,,,,,,,,,,,,,,
harvest,93,374239,0.0-31.0-1.0,"""event"",""trial"",""time""
""fullscreenenter"",""1"",""2166""
","
","
","""event"",""trial"",""time""
""fullscreenenter"",""1"",""2166""
","
",,null,run_exp/static/images/task_images/gems/17.jpg,null,,,,,,,9,,,3,,,,,17,0.522007384,0.529411765,,,,,,,
decision,94,374549,0.0-31.0-2.0,"""event"",""trial"",""time""
""fullscreenenter"",""1"",""2166""
","
","
","""event"",""trial"",""time""
""fullscreenenter"",""1"",""2166""
","
",,308.0999999,run_exp/static/images/task_images/land.jpg,65,,,,,,,9,,,3,,,,,,,,69956,1,2,FALSE,,,
dig,95,377248,0.0-32.0-0.0,"""event"",""trial"",""time""
""fullscreenenter"",""1"",""2166""
","
","
","""event"",""trial"",""time""
""fullscreenenter"",""1"",""2166""
","
",,,,,,,,,,,,"[{""stimulus"":""run_exp/static/images/task_images/dig.jpg"",""time"":0.10000002384185791},{""stimulus"":""run_exp/static/images/task_images/land.jpg"",""time"":903},{""stimulus"":""run_exp/static/images/task_images/dig.jpg"",""time"":1797.6000000238419}]",[],3,,,,,,,,,,,,,,
harvest,96,378250,0.0-32.0-1.0,"""event"",""trial"",""time""
""fullscreenenter"",""1"",""2166""
","
","
","""event"",""trial"",""time""
""fullscreenenter"",""1"",""2166""
","
",,null,run_exp/static/images/task_images/gems/9.jpg,null,,,,,,,5,,,3,,,,,9,0.559763441,0.555555556,,,,,,,
decision,97,378321,0.0-32.0-2.0,"""event"",""trial"",""time""
""fullscreenenter"",""1"",""2166""
","
","
","""event"",""trial"",""time""
""fullscreenenter"",""1"",""2166""
","
",,68.69999993,run_exp/static/images/task_images/land.jpg,76,,,,,,,5,,,3,,,,,,,,73728,1,3,TRUE,,,
travel,98,388256,0.0-33.0-0.0,"""event"",""trial"",""time""
""fullscreenenter"",""1"",""2166""
","
","
","""event"",""trial"",""time""
""fullscreenenter"",""1"",""2166""
","
",,,,,,,,,,,,"[{""stimulus"":""run_exp/static/images/task_images/rocket-01.jpg"",""time"":0.20000004768371582},{""stimulus"":""run_exp/static/images/task_images/rocket-02.jpg"",""time"":1106.7000000476837},{""stimulus"":""run_exp/static/images/task_images/rocket-03.jpg"",""time"":2211.399999976158},{""stimulus"":""run_exp/static/images/task_images/rocket-04.jpg"",""time"":3314.7000000476837},{""stimulus"":""run_exp/static/images/task_images/rocket-05.jpg"",""time"":4414},{""stimulus"":""run_exp/static/images/task_images/rocket-06.jpg"",""time"":5520.700000047684},{""stimulus"":""run_exp/static/images/task_images/rocket-07.jpg"",""time"":6619.899999976158},{""stimulus"":""run_exp/static/images/task_images/rocket-08.jpg"",""time"":7723.600000023842},{""stimulus"":""run_exp/static/images/task_images/rocket-09.jpg"",""time"":8827.100000023842}]",[],3,,,,,,,,,,,,,,
alien_welcome,99,393260,0.0-33.0-1.0,"""event"",""trial"",""time""
""fullscreenenter"",""1"",""2166""
","
","
","""event"",""trial"",""time""
""fullscreenenter"",""1"",""2166""
","
",,null,run_exp/static/images/task_images/aliens/old_aliens/planet/alien_planet-77.jpg,null,,,,,,,,,,,,,77,"21,5,1,77,25,10,30,42,72,67,52,50,6,58,28,16,68,66,47,40,53,8,45,35,29,44,23,7,18,57,48,13,74,59,12,33",,,,,,,,,,
land,100,393763,0.0-33.0-2.0,"""event"",""trial"",""time""
""fullscreenenter"",""1"",""2166""
","
","
","""event"",""trial"",""time""
""fullscreenenter"",""1"",""2166""
","
",,null,run_exp/static/images/task_images/land.jpg,null,,,,,,,105,,,4,,,,,,,,,,,,,,
dig,101,395768,0.0-33.0-3.0,"""event"",""trial"",""time""
""fullscreenenter"",""1"",""2166""
","
","
","""event"",""trial"",""time""
""fullscreenenter"",""1"",""2166""
","
",,,,,,,,,,,,"[{""stimulus"":""run_exp/static/images/task_images/dig.jpg"",""time"":0.40000009536743164},{""stimulus"":""run_exp/static/images/task_images/land.jpg"",""time"":668.9000000953674},{""stimulus"":""run_exp/static/images/task_images/dig.jpg"",""time"":1340.4000000953674}]",[],4,,,,,,,,,,,,,,
harvest,102,396771,0.0-33.0-4.0,"""event"",""trial"",""time""
""fullscreenenter"",""1"",""2166""
","
","
","""event"",""trial"",""time""
""fullscreenenter"",""1"",""2166""
","
",,null,run_exp/static/images/task_images/gems/105.jpg,null,,,,,,,44,,,4,,,,,105,0.423306374,0.419047619,,,,,,,
decision,103,397110,0.0-33.0-5.0,"""event"",""trial"",""time""
""fullscreenenter"",""1"",""2166""
","
","
","""event"",""trial"",""time""
""fullscreenenter"",""1"",""2166""
","
",,338,run_exp/static/images/task_images/land.jpg,65,,,,,,,44,,,4,,,,,,,,92517,1,0,FALSE,,,
dig,104,399779,0.0-34.0-0.0,"""event"",""trial"",""time""
""fullscreenenter"",""1"",""2166""
","
","
","""event"",""trial"",""time""
""fullscreenenter"",""1"",""2166""
","
",,,,,,,,,,,,"[{""stimulus"":""run_exp/static/images/task_images/dig.jpg"",""time"":0.20000004768371582},{""stimulus"":""run_exp/static/images/task_images/land.jpg"",""time"":890.5},{""stimulus"":""run_exp/static/images/task_images/dig.jpg"",""time"":1779.2000000476837}]",[],4,,,,,,,,,,,,,,
harvest,105,400783,0.0-34.0-1.0,"""event"",""trial"",""time""
""fullscreenenter"",""1"",""2166""
","
","
","""event"",""trial"",""time""
""fullscreenenter"",""1"",""2166""
","
",,null,run_exp/static/images/task_images/gems/44.jpg,null,,,,,,,22,,,4,,,,,44,0.490606773,0.5,,,,,,,
decision,106,401827,0.0-34.0-2.0,"""event"",""trial"",""time""
""fullscreenenter"",""1"",""2166""
","
","
","""event"",""trial"",""time""
""fullscreenenter"",""1"",""2166""
","
",,1043.2,run_exp/static/images/task_images/land.jpg,65,,,,,,,22,,,4,,,,,,,,97234,1,1,FALSE,,,
dig,107,403789,0.0-35.0-0.0,"""event"",""trial"",""time""
""fullscreenenter"",""1"",""2166""
","
","
","""event"",""trial"",""time""
""fullscreenenter"",""1"",""2166""
","
",,,,,,,,,,,,"[{""stimulus"":""run_exp/static/images/task_images/dig.jpg"",""time"":0.19999992847442627},{""stimulus"":""run_exp/static/images/task_images/land.jpg"",""time"":657.1999999284744},{""stimulus"":""run_exp/static/images/task_images/dig.jpg"",""time"":1305.2999999523163}]",[],4,,,,,,,,,,,,,,
harvest,108,404795,0.0-35.0-1.0,"""event"",""trial"",""time""
""fullscreenenter"",""1"",""2166""
","
","
","""event"",""trial"",""time""
""fullscreenenter"",""1"",""2166""
","
",,null,run_exp/static/images/task_images/gems/22.jpg,null,,,,,,,12,,,4,,,,,22,0.544315372,0.545454545,,,,,,,
decision,109,405198,0.0-35.0-2.0,"""event"",""trial"",""time""
""fullscreenenter"",""1"",""2166""
","
","
","""event"",""trial"",""time""
""fullscreenenter"",""1"",""2166""
","
",,401.8,run_exp/static/images/task_images/land.jpg,65,,,,,,,12,,,4,,,,,,,,100605,1,2,FALSE,,,
dig,110,407800,0.0-36.0-0.0,"""event"",""trial"",""time""
""fullscreenenter"",""1"",""2166""
","
","
","""event"",""trial"",""time""
""fullscreenenter"",""1"",""2166""
","
",,,,,,,,,,,,"[{""stimulus"":""run_exp/static/images/task_images/dig.jpg"",""time"":0.10000002384185791},{""stimulus"":""run_exp/static/images/task_images/land.jpg"",""time"":867.7000000476837},{""stimulus"":""run_exp/static/images/task_images/dig.jpg"",""time"":1736.6000000238419}]",[],4,,,,,,,,,,,,,,
harvest,111,408807,0.0-36.0-1.0,"""event"",""trial"",""time""
""fullscreenenter"",""1"",""2166""
","
","
","""event"",""trial"",""time""
""fullscreenenter"",""1"",""2166""
","
",,null,run_exp/static/images/task_images/gems/12.jpg,null,,,,,,,6,,,4,,,,,12,0.508289208,0.5,,,,,,,
decision,112,409123,0.0-36.0-2.0,"""event"",""trial"",""time""
""fullscreenenter"",""1"",""2166""
","
","
","""event"",""trial"",""time""
""fullscreenenter"",""1"",""2166""
","
",,314.9,run_exp/static/images/task_images/land.jpg,65,,,,,,,6,,,4,,,,,,,,104530,1,3,FALSE,,,
dig,113,411815,0.0-37.0-0.0,"""event"",""trial"",""time""
""fullscreenenter"",""1"",""2166""
","
","
","""event"",""trial"",""time""
""fullscreenenter"",""1"",""2166""
","
",,,,,,,,,,,,"[{""stimulus"":""run_exp/static/images/task_images/dig.jpg"",""time"":0.20000004768371582},{""stimulus"":""run_exp/static/images/task_images/land.jpg"",""time"":898.2999999523163},{""stimulus"":""run_exp/static/images/task_images/dig.jpg"",""time"":1794.2000000476837}]",[],4,,,,,,,,,,,,,,
harvest,114,412821,0.0-37.0-1.0,"""event"",""trial"",""time""
""fullscreenenter"",""1"",""2166""
","
","
","""event"",""trial"",""time""
""fullscreenenter"",""1"",""2166""
","
",,null,run_exp/static/images/task_images/gems/6.jpg,null,,,,,,,3,,,4,,,,,6,0.491411349,0.5,,,,,,,
decision,115,413106,0.0-37.0-2.0,"""event"",""trial"",""time""
""fullscreenenter"",""1"",""2166""
","
","
","""event"",""trial"",""time""
""fullscreenenter"",""1"",""2166""
","
",,284,run_exp/static/images/task_images/land.jpg,76,,,,,,,3,,,4,,,,,,,,108513,1,4,TRUE,,,
travel,116,422822,0.0-38.0-0.0,"""event"",""trial"",""time""
""fullscreenenter"",""1"",""2166""
","
","
","""event"",""trial"",""time""
""fullscreenenter"",""1"",""2166""
","
",,,,,,,,,,,,"[{""stimulus"":""run_exp/static/images/task_images/rocket-01.jpg"",""time"":0.20000004768371582},{""stimulus"":""run_exp/static/images/task_images/rocket-02.jpg"",""time"":1081.6000000238419},{""stimulus"":""run_exp/static/images/task_images/rocket-03.jpg"",""time"":2159.5},{""stimulus"":""run_exp/static/images/task_images/rocket-04.jpg"",""time"":3239.5},{""stimulus"":""run_exp/static/images/task_images/rocket-05.jpg"",""time"":4318.900000095367},{""stimulus"":""run_exp/static/images/task_images/rocket-06.jpg"",""time"":5396.300000071526},{""stimulus"":""run_exp/static/images/task_images/rocket-07.jpg"",""time"":6477.100000023842},{""stimulus"":""run_exp/static/images/task_images/rocket-08.jpg"",""time"":7558.100000023842},{""stimulus"":""run_exp/static/images/task_images/rocket-09.jpg"",""time"":8636.300000071526}]",[],4,,,,,,,,,,,,,,
alien_welcome,117,427829,0.0-38.0-1.0,"""event"",""trial"",""time""
""fullscreenenter"",""1"",""2166""
","
","
","""event"",""trial"",""time""
""fullscreenenter"",""1"",""2166""
","
",,null,run_exp/static/images/task_images/aliens/old_aliens/planet/alien_planet-25.jpg,null,,,,,,,,,,,,,25,"21,5,1,77,25,10,30,42,72,67,52,50,6,58,28,16,68,66,47,40,53,8,45,35,29,44,23,7,18,57,48,13,74,59,12,33",,,,,,,,,,
land,118,428334,0.0-38.0-2.0,"""event"",""trial"",""time""
""fullscreenenter"",""1"",""2166""
","
","
","""event"",""trial"",""time""
""fullscreenenter"",""1"",""2166""
","
",,null,run_exp/static/images/task_images/land.jpg,null,,,,,,,102,,,5,,,,,,,,,,,,,,
dig,119,430341,0.0-38.0-3.0,"""event"",""trial"",""time""
""fullscreenenter"",""1"",""2166""
","
","
","""event"",""trial"",""time""
""fullscreenenter"",""1"",""2166""
","
",,,,,,,,,,,,"[{""stimulus"":""run_exp/static/images/task_images/dig.jpg"",""time"":0.19999992847442627},{""stimulus"":""run_exp/static/images/task_images/land.jpg"",""time"":671.6999999284744},{""stimulus"":""run_exp/static/images/task_images/dig.jpg"",""time"":1335.8999999761581}]",[],5,,,,,,,,,,,,,,
harvest,120,431343,0.0-38.0-4.0,"""event"",""trial"",""time""
""fullscreenenter"",""1"",""2166""
","
","
","""event"",""trial"",""time""
""fullscreenenter"",""1"",""2166""
","
",,null,run_exp/static/images/task_images/gems/102.jpg,null,,,,,,,52,,,5,,,,,102,0.509010586,0.509803922,,,,,,,
decision,121,433674,0.0-38.0-5.0,"""event"",""trial"",""time""
""fullscreenenter"",""1"",""2166""
","
","
","""event"",""trial"",""time""
""fullscreenenter"",""1"",""2166""
","
",,2329.5,run_exp/static/images/task_images/land.jpg,65,,,,,,,52,,,5,,,,,,,,129081,1,0,FALSE,,,
dig,122,434348,0.0-39.0-0.0,"""event"",""trial"",""time""
""fullscreenenter"",""1"",""2166""
","
","
","""event"",""trial"",""time""
""fullscreenenter"",""1"",""2166""
","
",,,,,,,,,,,,"[{""stimulus"":""run_exp/static/images/task_images/dig.jpg"",""time"":0.20000004768371582},{""stimulus"":""run_exp/static/images/task_images/land.jpg"",""time"":226.70000004768372},{""stimulus"":""run_exp/static/images/task_images/dig.jpg"",""time"":451.7000000476837}]",[],5,,,,,,,,,,,,,,
harvest,123,435353,0.0-39.0-1.0,"""event"",""trial"",""time""
""fullscreenenter"",""1"",""2166""
","
","
","""event"",""trial"",""time""
""fullscreenenter"",""1"",""2166""
","
",,null,run_exp/static/images/task_images/gems/52.jpg,null,,,,,,,27,,,5,,,,,52,0.514144386,0.519230769,,,,,,,
decision,124,435956,0.0-39.0-2.0,"""event"",""trial"",""time""
""fullscreenenter"",""1"",""2166""
","
","
","""event"",""trial"",""time""
""fullscreenenter"",""1"",""2166""
","
",,601.8,run_exp/static/images/task_images/land.jpg,65,,,,,,,27,,,5,,,,,,,,131363,1,1,FALSE,,,
dig,125,438360,0.0-40.0-0.0,"""event"",""trial"",""time""
""fullscreenenter"",""1"",""2166""
","
","
","""event"",""trial"",""time""
""fullscreenenter"",""1"",""2166""
","
",,,,,,,,,,,,"[{""stimulus"":""run_exp/static/images/task_images/dig.jpg"",""time"":0.2999999523162842},{""stimulus"":""run_exp/static/images/task_images/land.jpg"",""time"":801.6999999284744},{""stimulus"":""run_exp/static/images/task_images/dig.jpg"",""time"":1598.8999999761581}]",[],5,,,,,,,,,,,,,,
harvest,126,439363,0.0-40.0-1.0,"""event"",""trial"",""time""
""fullscreenenter"",""1"",""2166""
","
","
","""event"",""trial"",""time""
""fullscreenenter"",""1"",""2166""
","
",,null,run_exp/static/images/task_images/gems/27.jpg,null,,,,,,,13,,,5,,,,,27,0.485838661,0.481481481,,,,,,,
decision,127,439847,0.0-40.0-2.0,"""event"",""trial"",""time""
""fullscreenenter"",""1"",""2166""
","
","
","""event"",""trial"",""time""
""fullscreenenter"",""1"",""2166""
","
",,482.3000001,run_exp/static/images/task_images/land.jpg,65,,,,,,,13,,,5,,,,,,,,135254,1,2,FALSE,,,
dig,128,442372,0.0-41.0-0.0,"""event"",""trial"",""time""
""fullscreenenter"",""1"",""2166""
","
","
","""event"",""trial"",""time""
""fullscreenenter"",""1"",""2166""
","
",,,,,,,,,,,,"[{""stimulus"":""run_exp/static/images/task_images/dig.jpg"",""time"":0.19999992847442627},{""stimulus"":""run_exp/static/images/task_images/land.jpg"",""time"":841.2999999523163},{""stimulus"":""run_exp/static/images/task_images/dig.jpg"",""time"":1679.0999999046326}]",[],5,,,,,,,,,,,,,,
harvest,129,443375,0.0-41.0-1.0,"""event"",""trial"",""time""
""fullscreenenter"",""1"",""2166""
","
","
","""event"",""trial"",""time""
""fullscreenenter"",""1"",""2166""
","
",,null,run_exp/static/images/task_images/gems/13.jpg,null,,,,,,,6,,,5,,,,,13,0.455317753,0.461538462,,,,,,,
decision,130,443755,0.0-41.0-2.0,"""event"",""trial"",""time""
""fullscreenenter"",""1"",""2166""
","
","
","""event"",""trial"",""time""
""fullscreenenter"",""1"",""2166""
","
",,379.1,run_exp/static/images/task_images/land.jpg,65,,,,,,,6,,,5,,,,,,,,139163,1,3,FALSE,,,
dig,131,446381,0.0-42.0-0.0,"""event"",""trial"",""time""
""fullscreenenter"",""1"",""2166""
","
","
","""event"",""trial"",""time""
""fullscreenenter"",""1"",""2166""
","
",,,,,,,,,,,,"[{""stimulus"":""run_exp/static/images/task_images/dig.jpg"",""time"":0.19999992847442627},{""stimulus"":""run_exp/static/images/task_images/land.jpg"",""time"":877.3999999761581},{""stimulus"":""run_exp/static/images/task_images/dig.jpg"",""time"":1750.7999999523163}]",[],5,,,,,,,,,,,,,,
harvest,132,447386,0.0-42.0-1.0,"""event"",""trial"",""time""
""fullscreenenter"",""1"",""2166""
","
","
","""event"",""trial"",""time""
""fullscreenenter"",""1"",""2166""
","
",,null,run_exp/static/images/task_images/gems/6.jpg,null,,,,,,,2,,,5,,,,,6,0.401337088,0.333333333,,,,,,,
decision,133,447670,0.0-42.0-2.0,"""event"",""trial"",""time""
""fullscreenenter"",""1"",""2166""
","
","
","""event"",""trial"",""time""
""fullscreenenter"",""1"",""2166""
","
",,282.7,run_exp/static/images/task_images/land.jpg,76,,,,,,,2,,,5,,,,,,,,143077,1,4,TRUE,,,
travel,134,457390,0.0-43.0-0.0,"""event"",""trial"",""time""
""fullscreenenter"",""1"",""2166""
","
","
","""event"",""trial"",""time""
""fullscreenenter"",""1"",""2166""
","
",,,,,,,,,,,,"[{""stimulus"":""run_exp/static/images/task_images/rocket-01.jpg"",""time"":0.19999992847442627},{""stimulus"":""run_exp/static/images/task_images/rocket-02.jpg"",""time"":1081.5},{""stimulus"":""run_exp/static/images/task_images/rocket-03.jpg"",""time"":2162.899999976158},{""stimulus"":""run_exp/static/images/task_images/rocket-04.jpg"",""time"":3241.600000023842},{""stimulus"":""run_exp/static/images/task_images/rocket-05.jpg"",""time"":4318.899999976158},{""stimulus"":""run_exp/static/images/task_images/rocket-06.jpg"",""time"":5396.299999952316},{""stimulus"":""run_exp/static/images/task_images/rocket-07.jpg"",""time"":6476.799999952316},{""stimulus"":""run_exp/static/images/task_images/rocket-08.jpg"",""time"":7554.600000023842},{""stimulus"":""run_exp/static/images/task_images/rocket-09.jpg"",""time"":8636.699999928474}]",[],5,,,,,,,,,,,,,,
alien_welcome,135,462395,0.0-43.0-1.0,"""event"",""trial"",""time""
""fullscreenenter"",""1"",""2166""
","
","
","""event"",""trial"",""time""
""fullscreenenter"",""1"",""2166""
","
",,null,run_exp/static/images/task_images/aliens/old_aliens/planet/alien_planet-10.jpg,null,,,,,,,,,,,,,10,"21,5,1,77,25,10,30,42,72,67,52,50,6,58,28,16,68,66,47,40,53,8,45,35,29,44,23,7,18,57,48,13,74,59,12,33",,,,,,,,,,
land,136,462898,0.0-43.0-2.0,"""event"",""trial"",""time""
""fullscreenenter"",""1"",""2166""
","
","
","""event"",""trial"",""time""
""fullscreenenter"",""1"",""2166""
","
",,null,run_exp/static/images/task_images/land.jpg,null,,,,,,,100,,,6,,,,,,,,,,,,,,
dig,137,464903,0.0-43.0-3.0,"""event"",""trial"",""time""
""fullscreenenter"",""1"",""2166""
","
","
","""event"",""trial"",""time""
""fullscreenenter"",""1"",""2166""
","
",,,,,,,,,,,,"[{""stimulus"":""run_exp/static/images/task_images/dig.jpg"",""time"":0.30000007152557373},{""stimulus"":""run_exp/static/images/task_images/land.jpg"",""time"":671},{""stimulus"":""run_exp/static/images/task_images/dig.jpg"",""time"":1336.2000000476837}]",[],6,,,,,,,,,,,,,,
harvest,138,465909,0.0-43.0-4.0,"""event"",""trial"",""time""
""fullscreenenter"",""1"",""2166""
","
","
","""event"",""trial"",""time""
""fullscreenenter"",""1"",""2166""
","
",,null,run_exp/static/images/task_images/gems/100.jpg,null,,,,,,,89,,,6,,,,,100,0.886826789,0.89,,,,,,,
decision,139,467761,0.0-43.0-5.0,"""event"",""trial"",""time""
""fullscreenenter"",""1"",""2166""
","
","
","""event"",""trial"",""time""
""fullscreenenter"",""1"",""2166""
","
",,1850.2,run_exp/static/images/task_images/land.jpg,65,,,,,,,89,,,6,,,,,,,,163169,1,0,FALSE,,,
dig,140,468921,0.0-44.0-0.0,"""event"",""trial"",""time""
""fullscreenenter"",""1"",""2166""
","
","
","""event"",""trial"",""time""
""fullscreenenter"",""1"",""2166""
","
",,,,,,,,,,,,"[{""stimulus"":""run_exp/static/images/task_images/dig.jpg"",""time"":0.20000004768371582},{""stimulus"":""run_exp/static/images/task_images/land.jpg"",""time"":386},{""stimulus"":""run_exp/static/images/task_images/dig.jpg"",""time"":767.2000000476837}]",[],6,,,,,,,,,,,,,,
harvest,141,469923,0.0-44.0-1.0,"""event"",""trial"",""time""
""fullscreenenter"",""1"",""2166""
","
","
","""event"",""trial"",""time""
""fullscreenenter"",""1"",""2166""
","
",,null,run_exp/static/images/task_images/gems/89.jpg,null,,,,,,,66,,,6,,,,,89,0.746981141,0.741573034,,,,,,,
decision,142,470358,0.0-44.0-2.0,"""event"",""trial"",""time""
""fullscreenenter"",""1"",""2166""
","
","
","""event"",""trial"",""time""
""fullscreenenter"",""1"",""2166""
","
",,433.0999999,run_exp/static/images/task_images/land.jpg,65,,,,,,,66,,,6,,,,,,,,165765,1,1,FALSE,,,
dig,143,472930,0.0-45.0-0.0,"""event"",""trial"",""time""
""fullscreenenter"",""1"",""2166""
","
","
","""event"",""trial"",""time""
""fullscreenenter"",""1"",""2166""
","
",,,,,,,,,,,,"[{""stimulus"":""run_exp/static/images/task_images/dig.jpg"",""time"":0.2999999523162842},{""stimulus"":""run_exp/static/images/task_images/land.jpg"",""time"":860.1999999284744},{""stimulus"":""run_exp/static/images/task_images/dig.jpg"",""time"":1712.5}]",[],6,,,,,,,,,,,,,,
harvest,144,473933,0.0-45.0-1.0,"""event"",""trial"",""time""
""fullscreenenter"",""1"",""2166""
","
","
","""event"",""trial"",""time""
""fullscreenenter"",""1"",""2166""
","
",,null,run_exp/static/images/task_images/gems/66.jpg,null,,,,,,,58,,,6,,,,,66,0.873225957,0.878787879,,,,,,,
decision,145,474068,0.0-45.0-2.0,"""event"",""trial"",""time""
""fullscreenenter"",""1"",""2166""
","
","
","""event"",""trial"",""time""
""fullscreenenter"",""1"",""2166""
","
",,133.6,run_exp/static/images/task_images/land.jpg,65,,,,,,,58,,,6,,,,,,,,169475,1,2,FALSE,,,
dig,146,476942,0.0-46.0-0.0,"""event"",""trial"",""time""
""fullscreenenter"",""1"",""2166""
","
","
","""event"",""trial"",""time""
""fullscreenenter"",""1"",""2166""
","
",,,,,,,,,,,,"[{""stimulus"":""run_exp/static/images/task_images/dig.jpg"",""time"":0.2999999523162842},{""stimulus"":""run_exp/static/images/task_images/land.jpg"",""time"":959.2999999523163},{""stimulus"":""run_exp/static/images/task_images/dig.jpg"",""time"":1911.3999999761581}]",[],6,,,,,,,,,,,,,,
harvest,147,477944,0.0-46.0-1.0,"""event"",""trial"",""time""
""fullscreenenter"",""1"",""2166""
","
","
","""event"",""trial"",""time""
""fullscreenenter"",""1"",""2166""
","
",,null,run_exp/static/images/task_images/gems/58.jpg,null,,,,,,,50,,,6,,,,,58,0.869795439,0.862068966,,,,,,,
decision,148,477953,0.0-46.0-2.0,"""event"",""trial"",""time""
""fullscreenenter"",""1"",""2166""
","
","
","""event"",""trial"",""time""
""fullscreenenter"",""1"",""2166""
","
",,6.399999976,run_exp/static/images/task_images/land.jpg,65,,,,,,,50,,,6,,,,,,,,173360,1,3,FALSE,,,
dig,149,480953,0.0-47.0-0.0,"""event"",""trial"",""time""
""fullscreenenter"",""1"",""2166""
","
","
","""event"",""trial"",""time""
""fullscreenenter"",""1"",""2166""
","
",,,,,,,,,,,,"[{""stimulus"":""run_exp/static/images/task_images/dig.jpg"",""time"":0.30000007152557373},{""stimulus"":""run_exp/static/images/task_images/land.jpg"",""time"":1001},{""stimulus"":""run_exp/static/images/task_images/dig.jpg"",""time"":1996}]",[],6,,,,,,,,,,,,,,
harvest,150,481960,0.0-47.0-1.0,"""event"",""trial"",""time""
""fullscreenenter"",""1"",""2166""
","
","
","""event"",""trial"",""time""
""fullscreenenter"",""1"",""2166""
","
",,null,run_exp/static/images/task_images/gems/50.jpg,null,,,,,,,39,,,6,,,,,50,0.785814864,0.78,,,,,,,
decision,151,482119,0.0-47.0-2.0,"""event"",""trial"",""time""
""fullscreenenter"",""1"",""2166""
","
","
","""event"",""trial"",""time""
""fullscreenenter"",""1"",""2166""
","
",,158,run_exp/static/images/task_images/land.jpg,65,,,,,,,39,,,6,,,,,,,,177527,1,4,FALSE,,,
dig,152,484966,0.0-48.0-0.0,"""event"",""trial"",""time""
""fullscreenenter"",""1"",""2166""
","
","
","""event"",""trial"",""time""
""fullscreenenter"",""1"",""2166""
","
",,,,,,,,,,,,"[{""stimulus"":""run_exp/static/images/task_images/dig.jpg"",""time"":0.2999999523162842},{""stimulus"":""run_exp/static/images/task_images/land.jpg"",""time"":950},{""stimulus"":""run_exp/static/images/task_images/dig.jpg"",""time"":1896.2999999523163}]",[],6,,,,,,,,,,,,,,
harvest,153,485969,0.0-48.0-1.0,"""event"",""trial"",""time""
""fullscreenenter"",""1"",""2166""
","
","
","""event"",""trial"",""time""
""fullscreenenter"",""1"",""2166""
","
",,null,run_exp/static/images/task_images/gems/39.jpg,null,,,,,,,30,,,6,,,,,39,0.766419843,0.769230769,,,,,,,
decision,154,486276,0.0-48.0-2.0,"""event"",""trial"",""time""
""fullscreenenter"",""1"",""2166""
","
","
","""event"",""trial"",""time""
""fullscreenenter"",""1"",""2166""
","
",,305.7,run_exp/static/images/task_images/land.jpg,65,,,,,,,30,,,6,,,,,,,,181684,1,5,FALSE,,,
dig,155,488976,0.0-49.0-0.0,"""event"",""trial"",""time""
""fullscreenenter"",""1"",""2166""
","
","
","""event"",""trial"",""time""
""fullscreenenter"",""1"",""2166""
","
",,,,,,,,,,,,"[{""stimulus"":""run_exp/static/images/task_images/dig.jpg"",""time"":0.20000004768371582},{""stimulus"":""run_exp/static/images/task_images/land.jpg"",""time"":902},{""stimulus"":""run_exp/static/images/task_images/dig.jpg"",""time"":1798.1000000238419}]",[],6,,,,,,,,,,,,,,
harvest,156,489982,0.0-49.0-1.0,"""event"",""trial"",""time""
""fullscreenenter"",""1"",""2166""
","
","
","""event"",""trial"",""time""
""fullscreenenter"",""1"",""2166""
","
",,null,run_exp/static/images/task_images/gems/30.jpg,null,,,,,,,28,,,6,,,,,30,0.917154764,0.933333333,,,,,,,
decision,157,490359,0.0-49.0-2.0,"""event"",""trial"",""time""
""fullscreenenter"",""1"",""2166""
","
","
","""event"",""trial"",""time""
""fullscreenenter"",""1"",""2166""
","
",,375.9,run_exp/static/images/task_images/land.jpg,65,,,,,,,28,,,6,,,,,,,,185766,1,6,FALSE,,,
dig,158,492987,0.0-50.0-0.0,"""event"",""trial"",""time""
""fullscreenenter"",""1"",""2166""
","
","
","""event"",""trial"",""time""
""fullscreenenter"",""1"",""2166""
","
",,,,,,,,,,,,"[{""stimulus"":""run_exp/static/images/task_images/dig.jpg"",""time"":0.2999999523162842},{""stimulus"":""run_exp/static/images/task_images/land.jpg"",""time"":876.7999999523163},{""stimulus"":""run_exp/static/images/task_images/dig.jpg"",""time"":1752.3999999761581}]",[],6,,,,,,,,,,,,,,
harvest,159,493992,0.0-50.0-1.0,"""event"",""trial"",""time""
""fullscreenenter"",""1"",""2166""
","
","
","""event"",""trial"",""time""
""fullscreenenter"",""1"",""2166""
","
",,null,run_exp/static/images/task_images/gems/28.jpg,null,,,,,,,20,,,6,,,,,28,0.722521924,0.714285714,,,,,,,
decision,160,494236,0.0-50.0-2.0,"""event"",""trial"",""time""
""fullscreenenter"",""1"",""2166""
","
","
","""event"",""trial"",""time""
""fullscreenenter"",""1"",""2166""
","
",,242.3000001,run_exp/static/images/task_images/land.jpg,65,,,,,,,20,,,6,,,,,,,,189643,1,7,FALSE,,,
dig,161,497003,0.0-51.0-0.0,"""event"",""trial"",""time""
""fullscreenenter"",""1"",""2166""
","
","
","""event"",""trial"",""time""
""fullscreenenter"",""1"",""2166""
","
",,,,,,,,,,,,"[{""stimulus"":""run_exp/static/images/task_images/dig.jpg"",""time"":0.2999999523162842},{""stimulus"":""run_exp/static/images/task_images/land.jpg"",""time"":923.5},{""stimulus"":""run_exp/static/images/task_images/dig.jpg"",""time"":1840.7999999523163}]",[],6,,,,,,,,,,,,,,
harvest,162,498006,0.0-51.0-1.0,"""event"",""trial"",""time""
""fullscreenenter"",""1"",""2166""
","
","
","""event"",""trial"",""time""
""fullscreenenter"",""1"",""2166""
","
",,null,run_exp/static/images/task_images/gems/20.jpg,null,,,,,,,16,,,6,,,,,20,0.780155361,0.8,,,,,,,
decision,163,498257,0.0-51.0-2.0,"""event"",""trial"",""time""
""fullscreenenter"",""1"",""2166""
","
","
","""event"",""trial"",""time""
""fullscreenenter"",""1"",""2166""
","
",,250,run_exp/static/images/task_images/land.jpg,65,,,,,,,16,,,6,,,,,,,,193664,1,8,FALSE,,,
dig,164,501012,0.0-52.0-0.0,"""event"",""trial"",""time""
""fullscreenenter"",""1"",""2166""
","
","
","""event"",""trial"",""time""
""fullscreenenter"",""1"",""2166""
","
",,,,,,,,,,,,"[{""stimulus"":""run_exp/static/images/task_images/dig.jpg"",""time"":0.09999990463256836},{""stimulus"":""run_exp/static/images/task_images/land.jpg"",""time"":921.1999999284744},{""stimulus"":""run_exp/static/images/task_images/dig.jpg"",""time"":1835.1999999284744}]",[],6,,,,,,,,,,,,,,
harvest,165,502015,0.0-52.0-1.0,"""event"",""trial"",""time""
""fullscreenenter"",""1"",""2166""
","
","
","""event"",""trial"",""time""
""fullscreenenter"",""1"",""2166""
","
",,null,run_exp/static/images/task_images/gems/16.jpg,null,,,,,,,14,,,6,,,,,16,0.884505387,0.875,,,,,,,
decision,166,502169,0.0-52.0-2.0,"""event"",""trial"",""time""
""fullscreenenter"",""1"",""2166""
","
","
","""event"",""trial"",""time""
""fullscreenenter"",""1"",""2166""
","
",,151.8000001,run_exp/static/images/task_images/land.jpg,65,,,,,,,14,,,6,,,,,,,,197577,1,9,FALSE,,,
dig,167,505022,0.0-53.0-0.0,"""event"",""trial"",""time""
""fullscreenenter"",""1"",""2166""
","
","
","""event"",""trial"",""time""
""fullscreenenter"",""1"",""2166""
","
",,,,,,,,,,,,"[{""stimulus"":""run_exp/static/images/task_images/dig.jpg"",""time"":0.19999992847442627},{""stimulus"":""run_exp/static/images/task_images/land.jpg"",""time"":951.7999999523163},{""stimulus"":""run_exp/static/images/task_images/dig.jpg"",""time"":1899.1999999284744}]",[],6,,,,,,,,,,,,,,
harvest,168,506028,0.0-53.0-1.0,"""event"",""trial"",""time""
""fullscreenenter"",""1"",""2166""
","
","
","""event"",""trial"",""time""
""fullscreenenter"",""1"",""2166""
","
",,null,run_exp/static/images/task_images/gems/14.jpg,null,,,,,,,11,,,6,,,,,14,0.813617281,0.785714286,,,,,,,
decision,169,506616,0.0-53.0-2.0,"""event"",""trial"",""time""
""fullscreenenter"",""1"",""2166""
","
","
","""event"",""trial"",""time""
""fullscreenenter"",""1"",""2166""
","
",,586.9,run_exp/static/images/task_images/land.jpg,76,,,,,,,11,,,6,,,,,,,,202023,1,10,TRUE,,,
travel,170,516032,0.0-54.0-0.0,"""event"",""trial"",""time""
""fullscreenenter"",""1"",""2166""
","
","
","""event"",""trial"",""time""
""fullscreenenter"",""1"",""2166""
","
",,,,,,,,,,,,"[{""stimulus"":""run_exp/static/images/task_images/rocket-01.jpg"",""time"":0.2999999523162842},{""stimulus"":""run_exp/static/images/task_images/rocket-02.jpg"",""time"":1048.7999999523163},{""stimulus"":""run_exp/static/images/task_images/rocket-03.jpg"",""time"":2091.600000023842},{""stimulus"":""run_exp/static/images/task_images/rocket-04.jpg"",""time"":3139.2999999523163},{""stimulus"":""run_exp/static/images/task_images/rocket-05.jpg"",""time"":4184.5},{""stimulus"":""run_exp/static/images/task_images/rocket-06.jpg"",""time"":5231.299999952316},{""stimulus"":""run_exp/static/images/task_images/rocket-07.jpg"",""time"":6276.200000047684},{""stimulus"":""run_exp/static/images/task_images/rocket-08.jpg"",""time"":7317.399999976158},{""stimulus"":""run_exp/static/images/task_images/rocket-09.jpg"",""time"":8364.600000023842}]",[],6,,,,,,,,,,,,,,
alien_welcome,171,521035,0.0-54.0-1.0,"""event"",""trial"",""time""
""fullscreenenter"",""1"",""2166""
","
","
","""event"",""trial"",""time""
""fullscreenenter"",""1"",""2166""
","
",,null,run_exp/static/images/task_images/aliens/old_aliens/planet/alien_planet-30.jpg,null,,,,,,,,,,,,,30,"21,5,1,77,25,10,30,42,72,67,52,50,6,58,28,16,68,66,47,40,53,8,45,35,29,44,23,7,18,57,48,13,74,59,12,33",,,,,,,,,,
land,172,521540,0.0-54.0-2.0,"""event"",""trial"",""time""
""fullscreenenter"",""1"",""2166""
","
","
","""event"",""trial"",""time""
""fullscreenenter"",""1"",""2166""
","
",,null,run_exp/static/images/task_images/land.jpg,null,,,,,,,99,,,7,,,,,,,,,,,,,,
dig,173,523547,0.0-54.0-3.0,"""event"",""trial"",""time""
""fullscreenenter"",""1"",""2166""
","
","
","""event"",""trial"",""time""
""fullscreenenter"",""1"",""2166""
","
",,,,,,,,,,,,"[{""stimulus"":""run_exp/static/images/task_images/dig.jpg"",""time"":0.30000007152557373},{""stimulus"":""run_exp/static/images/task_images/land.jpg"",""time"":670.7000000476837},{""stimulus"":""run_exp/static/images/task_images/dig.jpg"",""time"":1336}]",[],7,,,,,,,,,,,,,,
harvest,174,524553,0.0-54.0-4.0,"""event"",""trial"",""time""
""fullscreenenter"",""1"",""2166""
","
","
","""event"",""trial"",""time""
""fullscreenenter"",""1"",""2166""
","
",,null,run_exp/static/images/task_images/gems/99.jpg,null,,,,,,,66,,,7,,,,,99,0.664236732,0.666666667,,,,,,,
decision,175,524874,0.0-54.0-5.0,"""event"",""trial"",""time""
""fullscreenenter"",""1"",""2166""
","
","
","""event"",""trial"",""time""
""fullscreenenter"",""1"",""2166""
","
",,318.9,run_exp/static/images/task_images/land.jpg,65,,,,,,,66,,,7,,,,,,,,220281,1,0,FALSE,,,
dig,176,527559,0.0-55.0-0.0,"""event"",""trial"",""time""
""fullscreenenter"",""1"",""2166""
","
","
","""event"",""trial"",""time""
""fullscreenenter"",""1"",""2166""
","
",,,,,,,,,,,,"[{""stimulus"":""run_exp/static/images/task_images/dig.jpg"",""time"":0.20000004768371582},{""stimulus"":""run_exp/static/images/task_images/land.jpg"",""time"":899},{""stimulus"":""run_exp/static/images/task_images/dig.jpg"",""time"":1788.2000000476837}]",[],7,,,,,,,,,,,,,,
harvest,177,528565,0.0-55.0-1.0,"""event"",""trial"",""time""
""fullscreenenter"",""1"",""2166""
","
","
","""event"",""trial"",""time""
""fullscreenenter"",""1"",""2166""
","
",,null,run_exp/static/images/task_images/gems/66.jpg,null,,,,,,,54,,,7,,,,,66,0.823260026,0.818181818,,,,,,,
decision,178,528612,0.0-55.0-2.0,"""event"",""trial"",""time""
""fullscreenenter"",""1"",""2166""
","
","
","""event"",""trial"",""time""
""fullscreenenter"",""1"",""2166""
","
",,46.60000002,run_exp/static/images/task_images/land.jpg,65,,,,,,,54,,,7,,,,,,,,224020,1,1,FALSE,,,
dig,179,531573,0.0-56.0-0.0,"""event"",""trial"",""time""
""fullscreenenter"",""1"",""2166""
","
","
","""event"",""trial"",""time""
""fullscreenenter"",""1"",""2166""
","
",,,,,,,,,,,,"[{""stimulus"":""run_exp/static/images/task_images/dig.jpg"",""time"":0.20000004768371582},{""stimulus"":""run_exp/static/images/task_images/land.jpg"",""time"":989.7000000476837},{""stimulus"":""run_exp/static/images/task_images/dig.jpg"",""time"":1971.4000000953674}]",[],7,,,,,,,,,,,,,,
harvest,180,532576,0.0-56.0-1.0,"""event"",""trial"",""time""
""fullscreenenter"",""1"",""2166""
","
","
","""event"",""trial"",""time""
""fullscreenenter"",""1"",""2166""
","
",,null,run_exp/static/images/task_images/gems/54.jpg,null,,,,,,,43,,,7,,,,,54,0.803976932,0.796296296,,,,,,,
decision,181,532699,0.0-56.0-2.0,"""event"",""trial"",""time""
""fullscreenenter"",""1"",""2166""
","
","
","""event"",""trial"",""time""
""fullscreenenter"",""1"",""2166""
","
",,121,run_exp/static/images/task_images/land.jpg,65,,,,,,,43,,,7,,,,,,,,228106,1,2,FALSE,,,
dig,182,535584,0.0-57.0-0.0,"""event"",""trial"",""time""
""fullscreenenter"",""1"",""2166""
","
","
","""event"",""trial"",""time""
""fullscreenenter"",""1"",""2166""
","
",,,,,,,,,,,,"[{""stimulus"":""run_exp/static/images/task_images/dig.jpg"",""time"":0.20000004768371582},{""stimulus"":""run_exp/static/images/task_images/land.jpg"",""time"":964.6000000238419},{""stimulus"":""run_exp/static/images/task_images/dig.jpg"",""time"":1922.7999999523163}]",[],7,,,,,,,,,,,,,,
harvest,183,536588,0.0-57.0-1.0,"""event"",""trial"",""time""
""fullscreenenter"",""1"",""2166""
","
","
","""event"",""trial"",""time""
""fullscreenenter"",""1"",""2166""
","
",,null,run_exp/static/images/task_images/gems/43.jpg,null,,,,,,,37,,,7,,,,,43,0.870906872,0.860465116,,,,,,,
decision,184,536628,0.0-57.0-2.0,"""event"",""trial"",""time""
""fullscreenenter"",""1"",""2166""
","
","
","""event"",""trial"",""time""
""fullscreenenter"",""1"",""2166""
","
",,37.79999995,run_exp/static/images/task_images/land.jpg,65,,,,,,,37,,,7,,,,,,,,232035,1,3,FALSE,,,
dig,185,539597,0.0-58.0-0.0,"""event"",""trial"",""time""
""fullscreenenter"",""1"",""2166""
","
","
","""event"",""trial"",""time""
""fullscreenenter"",""1"",""2166""
","
",,,,,,,,,,,,"[{""stimulus"":""run_exp/static/images/task_images/dig.jpg"",""time"":0.20000004768371582},{""stimulus"":""run_exp/static/images/task_images/land.jpg"",""time"":990.1000000238419},{""stimulus"":""run_exp/static/images/task_images/dig.jpg"",""time"":1978.1000000238419}]",[],7,,,,,,,,,,,,,,
harvest,186,540602,0.0-58.0-1.0,"""event"",""trial"",""time""
""fullscreenenter"",""1"",""2166""
","
","
","""event"",""trial"",""time""
""fullscreenenter"",""1"",""2166""
","
",,null,run_exp/static/images/task_images/gems/37.jpg,null,,,,,,,31,,,7,,,,,37,0.845889894,0.837837838,,,,,,,
decision,187,540988,0.0-58.0-2.0,"""event"",""trial"",""time""
""fullscreenenter"",""1"",""2166""
","
","
","""event"",""trial"",""time""
""fullscreenenter"",""1"",""2166""
","
",,383.7,run_exp/static/images/task_images/land.jpg,65,,,,,,,31,,,7,,,,,,,,236395,1,4,FALSE,,,
dig,188,543610,0.0-59.0-0.0,"""event"",""trial"",""time""
""fullscreenenter"",""1"",""2166""
","
","
","""event"",""trial"",""time""
""fullscreenenter"",""1"",""2166""
","
",,,,,,,,,,,,"[{""stimulus"":""run_exp/static/images/task_images/dig.jpg"",""time"":0.2999999523162842},{""stimulus"":""run_exp/static/images/task_images/land.jpg"",""time"":875.6999999284744},{""stimulus"":""run_exp/static/images/task_images/dig.jpg"",""time"":1746}]",[],7,,,,,,,,,,,,,,
harvest,189,544615,0.0-59.0-1.0,"""event"",""trial"",""time""
""fullscreenenter"",""1"",""2166""
","
","
","""event"",""trial"",""time""
""fullscreenenter"",""1"",""2166""
","
",,null,run_exp/static/images/task_images/gems/31.jpg,null,,,,,,,25,,,7,,,,,31,0.81959031,0.806451613,,,,,,,
decision,190,544723,0.0-59.0-2.0,"""event"",""trial"",""time""
""fullscreenenter"",""1"",""2166""
","
","
","""event"",""trial"",""time""
""fullscreenenter"",""1"",""2166""
","
",,105.8000001,run_exp/static/images/task_images/land.jpg,65,,,,,,,25,,,7,,,,,,,,240130,1,5,FALSE,,,
dig,191,547619,0.0-60.0-0.0,"""event"",""trial"",""time""
""fullscreenenter"",""1"",""2166""
","
","
","""event"",""trial"",""time""
""fullscreenenter"",""1"",""2166""
","
",,,,,,,,,,,,"[{""stimulus"":""run_exp/static/images/task_images/dig.jpg"",""time"":0.30000007152557373},{""stimulus"":""run_exp/static/images/task_images/land.jpg"",""time"":965.1000000238419},{""stimulus"":""run_exp/static/images/task_images/dig.jpg"",""time"":1932.4000000953674}]",[],7,,,,,,,,,,,,,,
harvest,192,548626,0.0-60.0-1.0,"""event"",""trial"",""time""
""fullscreenenter"",""1"",""2166""
","
","
","""event"",""trial"",""time""
""fullscreenenter"",""1"",""2166""
","
",,null,run_exp/static/images/task_images/gems/25.jpg,null,,,,,,,20,,,7,,,,,25,0.789003293,0.8,,,,,,,
decision,193,548866,0.0-60.0-2.0,"""event"",""trial"",""time""
""fullscreenenter"",""1"",""2166""
","
","
","""event"",""trial"",""time""
""fullscreenenter"",""1"",""2166""
","
",,238.1,run_exp/static/images/task_images/land.jpg,65,,,,,,,20,,,7,,,,,,,,244273,1,6,FALSE,,,
dig,194,551636,0.0-61.0-0.0,"""event"",""trial"",""time""
""fullscreenenter"",""1"",""2166""
","
","
","""event"",""trial"",""time""
""fullscreenenter"",""1"",""2166""
","
",,,,,,,,,,,,"[{""stimulus"":""run_exp/static/images/task_images/dig.jpg"",""time"":0.10000002384185791},{""stimulus"":""run_exp/static/images/task_images/land.jpg"",""time"":925.5},{""stimulus"":""run_exp/static/images/task_images/dig.jpg"",""time"":1845.1000000238419}]",[],7,,,,,,,,,,,,,,
harvest,195,552640,0.0-61.0-1.0,"""event"",""trial"",""time""
""fullscreenenter"",""1"",""2166""
","
","
","""event"",""trial"",""time""
""fullscreenenter"",""1"",""2166""
","
",,null,run_exp/static/images/task_images/gems/20.jpg,null,,,,,,,15,,,7,,,,,20,0.764246843,0.75,,,,,,,
decision,196,552891,0.0-61.0-2.0,"""event"",""trial"",""time""
""fullscreenenter"",""1"",""2166""
","
","
","""event"",""trial"",""time""
""fullscreenenter"",""1"",""2166""
","
",,248.6999999,run_exp/static/images/task_images/land.jpg,65,,,,,,,15,,,7,,,,,,,,248298,1,7,FALSE,,,
dig,197,555650,0.0-62.0-0.0,"""event"",""trial"",""time""
""fullscreenenter"",""1"",""2166""
","
","
","""event"",""trial"",""time""
""fullscreenenter"",""1"",""2166""
","
",,,,,,,,,,,,"[{""stimulus"":""run_exp/static/images/task_images/dig.jpg"",""time"":0.10000002384185791},{""stimulus"":""run_exp/static/images/task_images/land.jpg"",""time"":919.8999999761581},{""stimulus"":""run_exp/static/images/task_images/dig.jpg"",""time"":1837.6000000238419}]",[],7,,,,,,,,,,,,,,
harvest,198,556654,0.0-62.0-1.0,"""event"",""trial"",""time""
""fullscreenenter"",""1"",""2166""
","
","
","""event"",""trial"",""time""
""fullscreenenter"",""1"",""2166""
","
",,null,run_exp/static/images/task_images/gems/15.jpg,null,,,,,,,13,,,7,,,,,15,0.859839815,0.866666667,,,,,,,
decision,199,556926,0.0-62.0-2.0,"""event"",""trial"",""time""
""fullscreenenter"",""1"",""2166""
","
","
","""event"",""trial"",""time""
""fullscreenenter"",""1"",""2166""
","
",,269.1,run_exp/static/images/task_images/land.jpg,76,,,,,,,13,,,7,,,,,,,,252333,1,8,TRUE,,,
travel,200,566663,0.0-63.0-0.0,"""event"",""trial"",""time""
""fullscreenenter"",""1"",""2166""
","
","
","""event"",""trial"",""time""
""fullscreenenter"",""1"",""2166""
","
",,,,,,,,,,,,"[{""stimulus"":""run_exp/static/images/task_images/rocket-01.jpg"",""time"":0.19999992847442627},{""stimulus"":""run_exp/static/images/task_images/rocket-02.jpg"",""time"":1084},{""stimulus"":""run_exp/static/images/task_images/rocket-03.jpg"",""time"":2170},{""stimulus"":""run_exp/static/images/task_images/rocket-04.jpg"",""time"":3246.1999999284744},{""stimulus"":""run_exp/static/images/task_images/rocket-05.jpg"",""time"":4328.899999976158},{""stimulus"":""run_exp/static/images/task_images/rocket-06.jpg"",""time"":5408.899999976158},{""stimulus"":""run_exp/static/images/task_images/rocket-07.jpg"",""time"":6491.199999928474},{""stimulus"":""run_exp/static/images/task_images/rocket-08.jpg"",""time"":7569.099999904633},{""stimulus"":""run_exp/static/images/task_images/rocket-09.jpg"",""time"":8654.099999904633}]",[],7,,,,,,,,,,,,,,
alien_welcome,201,571676,0.0-63.0-1.0,"""event"",""trial"",""time""
""fullscreenenter"",""1"",""2166""
","
","
","""event"",""trial"",""time""
""fullscreenenter"",""1"",""2166""
","
",,null,run_exp/static/images/task_images/aliens/old_aliens/planet/alien_planet-42.jpg,null,,,,,,,,,,,,,42,"21,5,1,77,25,10,30,42,72,67,52,50,6,58,28,16,68,66,47,40,53,8,45,35,29,44,23,7,18,57,48,13,74,59,12,33",,,,,,,,,,
land,202,572179,0.0-63.0-2.0,"""event"",""trial"",""time""
""fullscreenenter"",""1"",""2166""
","
","
","""event"",""trial"",""time""
""fullscreenenter"",""1"",""2166""
","
",,null,run_exp/static/images/task_images/land.jpg,null,,,,,,,99,,,8,,,,,,,,,,,,,,
dig,203,574193,0.0-63.0-3.0,"""event"",""trial"",""time""
""fullscreenenter"",""1"",""2166""
","
","
","""event"",""trial"",""time""
""fullscreenenter"",""1"",""2166""
","
",,,,,,,,,,,,"[{""stimulus"":""run_exp/static/images/task_images/dig.jpg"",""time"":0.3999999761581421},{""stimulus"":""run_exp/static/images/task_images/land.jpg"",""time"":671.8999999761581},{""stimulus"":""run_exp/static/images/task_images/dig.jpg"",""time"":1343.5}]",[],8,,,,,,,,,,,,,,
harvest,204,575199,0.0-63.0-4.0,"""event"",""trial"",""time""
""fullscreenenter"",""1"",""2166""
","
","
","""event"",""trial"",""time""
""fullscreenenter"",""1"",""2166""
","
",,null,run_exp/static/images/task_images/gems/99.jpg,null,,,,,,,78,,,8,,,,,99,0.78617215,0.787878788,,,,,,,
decision,205,575598,0.0-63.0-5.0,"""event"",""trial"",""time""
""fullscreenenter"",""1"",""2166""
","
","
","""event"",""trial"",""time""
""fullscreenenter"",""1"",""2166""
","
",,397.5,run_exp/static/images/task_images/land.jpg,65,,,,,,,78,,,8,,,,,,,,271005,1,0,FALSE,,,
dig,206,578209,0.0-64.0-0.0,"""event"",""trial"",""time""
""fullscreenenter"",""1"",""2166""
","
","
","""event"",""trial"",""time""
""fullscreenenter"",""1"",""2166""
","
",,,,,,,,,,,,"[{""stimulus"":""run_exp/static/images/task_images/dig.jpg"",""time"":0.19999992847442627},{""stimulus"":""run_exp/static/images/task_images/land.jpg"",""time"":868.5},{""stimulus"":""run_exp/static/images/task_images/dig.jpg"",""time"":1738.8999999761581}]",[],8,,,,,,,,,,,,,,
harvest,207,579216,0.0-64.0-1.0,"""event"",""trial"",""time""
""fullscreenenter"",""1"",""2166""
","
","
","""event"",""trial"",""time""
""fullscreenenter"",""1"",""2166""
","
",,null,run_exp/static/images/task_images/gems/78.jpg,null,,,,,,,60,,,8,,,,,78,0.765027268,0.769230769,,,,,,,
decision,208,579501,0.0-64.0-2.0,"""event"",""trial"",""time""
""fullscreenenter"",""1"",""2166""
","
","
","""event"",""trial"",""time""
""fullscreenenter"",""1"",""2166""
","
",,283.9,run_exp/static/images/task_images/land.jpg,65,,,,,,,60,,,8,,,,,,,,274908,1,1,FALSE,,,
dig,209,582224,0.0-65.0-0.0,"""event"",""trial"",""time""
""fullscreenenter"",""1"",""2166""
","
","
","""event"",""trial"",""time""
""fullscreenenter"",""1"",""2166""
","
",,,,,,,,,,,,"[{""stimulus"":""run_exp/static/images/task_images/dig.jpg"",""time"":0.20000004768371582},{""stimulus"":""run_exp/static/images/task_images/land.jpg"",""time"":910.3999999761581},{""stimulus"":""run_exp/static/images/task_images/dig.jpg"",""time"":1816.1000000238419}]",[],8,,,,,,,,,,,,,,
harvest,210,583228,0.0-65.0-1.0,"""event"",""trial"",""time""
""fullscreenenter"",""1"",""2166""
","
","
","""event"",""trial"",""time""
""fullscreenenter"",""1"",""2166""
","
",,null,run_exp/static/images/task_images/gems/60.jpg,null,,,,,,,48,,,8,,,,,60,0.792854625,0.8,,,,,,,
decision,211,583488,0.0-65.0-2.0,"""event"",""trial"",""time""
""fullscreenenter"",""1"",""2166""
","
","
","""event"",""trial"",""time""
""fullscreenenter"",""1"",""2166""
","
",,258.3000001,run_exp/static/images/task_images/land.jpg,65,,,,,,,48,,,8,,,,,,,,278895,1,2,FALSE,,,
dig,212,586236,0.0-66.0-0.0,"""event"",""trial"",""time""
""fullscreenenter"",""1"",""2166""
","
","
","""event"",""trial"",""time""
""fullscreenenter"",""1"",""2166""
","
",,,,,,,,,,,,"[{""stimulus"":""run_exp/static/images/task_images/dig.jpg"",""time"":0.2999999523162842},{""stimulus"":""run_exp/static/images/task_images/land.jpg"",""time"":918.1000000238419},{""stimulus"":""run_exp/static/images/task_images/dig.jpg"",""time"":1832.2000000476837}]",[],8,,,,,,,,,,,,,,
harvest,213,587242,0.0-66.0-1.0,"""event"",""trial"",""time""
""fullscreenenter"",""1"",""2166""
","
","
","""event"",""trial"",""time""
""fullscreenenter"",""1"",""2166""
","
",,null,run_exp/static/images/task_images/gems/48.jpg,null,,,,,,,42,,,8,,,,,48,0.885057614,0.875,,,,,,,
decision,214,587317,0.0-66.0-2.0,"""event"",""trial"",""time""
""fullscreenenter"",""1"",""2166""
","
","
","""event"",""trial"",""time""
""fullscreenenter"",""1"",""2166""
","
",,73.39999998,run_exp/static/images/task_images/land.jpg,65,,,,,,,42,,,8,,,,,,,,282724,1,3,FALSE,,,
dig,215,590251,0.0-67.0-0.0,"""event"",""trial"",""time""
""fullscreenenter"",""1"",""2166""
","
","
","""event"",""trial"",""time""
""fullscreenenter"",""1"",""2166""
","
",,,,,,,,,,,,"[{""stimulus"":""run_exp/static/images/task_images/dig.jpg"",""time"":0.10000002384185791},{""stimulus"":""run_exp/static/images/task_images/land.jpg"",""time"":980.2000000476837},{""stimulus"":""run_exp/static/images/task_images/dig.jpg"",""time"":1953.5}]",[],8,,,,,,,,,,,,,,
harvest,216,591257,0.0-67.0-1.0,"""event"",""trial"",""time""
""fullscreenenter"",""1"",""2166""
","
","
","""event"",""trial"",""time""
""fullscreenenter"",""1"",""2166""
","
",,null,run_exp/static/images/task_images/gems/42.jpg,null,,,,,,,36,,,8,,,,,42,0.86570248,0.857142857,,,,,,,
decision,217,591646,0.0-67.0-2.0,"""event"",""trial"",""time""
""fullscreenenter"",""1"",""2166""
","
","
","""event"",""trial"",""time""
""fullscreenenter"",""1"",""2166""
","
",,387.4,run_exp/static/images/task_images/land.jpg,65,,,,,,,36,,,8,,,,,,,,287054,1,4,FALSE,,,
dig,218,594265,0.0-68.0-0.0,"""event"",""trial"",""time""
""fullscreenenter"",""1"",""2166""
","
","
","""event"",""trial"",""time""
""fullscreenenter"",""1"",""2166""
","
",,,,,,,,,,,,"[{""stimulus"":""run_exp/static/images/task_images/dig.jpg"",""time"":0.19999992847442627},{""stimulus"":""run_exp/static/images/task_images/land.jpg"",""time"":875},{""stimulus"":""run_exp/static/images/task_images/dig.jpg"",""time"":1745.7999999523163}]",[],8,,,,,,,,,,,,,,
harvest,219,595270,0.0-68.0-1.0,"""event"",""trial"",""time""
""fullscreenenter"",""1"",""2166""
","
","
","""event"",""trial"",""time""
""fullscreenenter"",""1"",""2166""
","
",,null,run_exp/static/images/task_images/gems/36.jpg,null,,,,,,,28,,,8,,,,,36,0.775603166,0.777777778,,,,,,,
decision,220,595588,0.0-68.0-2.0,"""event"",""trial"",""time""
""fullscreenenter"",""1"",""2166""
","
","
","""event"",""trial"",""time""
""fullscreenenter"",""1"",""2166""
","
",,316.0999999,run_exp/static/images/task_images/land.jpg,65,,,,,,,28,,,8,,,,,,,,290995,1,5,FALSE,,,
dig,221,598278,0.0-69.0-0.0,"""event"",""trial"",""time""
""fullscreenenter"",""1"",""2166""
","
","
","""event"",""trial"",""time""
""fullscreenenter"",""1"",""2166""
","
",,,,,,,,,,,,"[{""stimulus"":""run_exp/static/images/task_images/dig.jpg"",""time"":0.2999999523162842},{""stimulus"":""run_exp/static/images/task_images/land.jpg"",""time"":897},{""stimulus"":""run_exp/static/images/task_images/dig.jpg"",""time"":1796.6999999284744}]",[],8,,,,,,,,,,,,,,
harvest,222,599281,0.0-69.0-1.0,"""event"",""trial"",""time""
""fullscreenenter"",""1"",""2166""
","
","
","""event"",""trial"",""time""
""fullscreenenter"",""1"",""2166""
","
",,null,run_exp/static/images/task_images/gems/28.jpg,null,,,,,,,23,,,8,,,,,28,0.823298399,0.821428571,,,,,,,
decision,223,599759,0.0-69.0-2.0,"""event"",""trial"",""time""
""fullscreenenter"",""1"",""2166""
","
","
","""event"",""trial"",""time""
""fullscreenenter"",""1"",""2166""
","
",,476.9,run_exp/static/images/task_images/land.jpg,65,,,,,,,23,,,8,,,,,,,,295166,1,6,FALSE,,,
dig,224,602291,0.0-70.0-0.0,"""event"",""trial"",""time""
""fullscreenenter"",""1"",""2166""
","
","
","""event"",""trial"",""time""
""fullscreenenter"",""1"",""2166""
","
",,,,,,,,,,,,"[{""stimulus"":""run_exp/static/images/task_images/dig.jpg"",""time"":0.2999999523162842},{""stimulus"":""run_exp/static/images/task_images/land.jpg"",""time"":844.8999999761581},{""stimulus"":""run_exp/static/images/task_images/dig.jpg"",""time"":1683.3999999761581}]",[],8,,,,,,,,,,,,,,
harvest,225,603295,0.0-70.0-1.0,"""event"",""trial"",""time""
""fullscreenenter"",""1"",""2166""
","
","
","""event"",""trial"",""time""
""fullscreenenter"",""1"",""2166""
","
",,null,run_exp/static/images/task_images/gems/23.jpg,null,,,,,,,18,,,8,,,,,23,0.802524651,0.782608696,,,,,,,
decision,226,603466,0.0-70.0-2.0,"""event"",""trial"",""time""
""fullscreenenter"",""1"",""2166""
","
","
","""event"",""trial"",""time""
""fullscreenenter"",""1"",""2166""
","
",,169.6,run_exp/static/images/task_images/land.jpg,65,,,,,,,18,,,8,,,,,,,,298873,1,7,FALSE,,,
dig,227,606303,0.0-71.0-0.0,"""event"",""trial"",""time""
""fullscreenenter"",""1"",""2166""
","
","
","""event"",""trial"",""time""
""fullscreenenter"",""1"",""2166""
","
",,,,,,,,,,,,"[{""stimulus"":""run_exp/static/images/task_images/dig.jpg"",""time"":0.30000007152557373},{""stimulus"":""run_exp/static/images/task_images/land.jpg"",""time"":946.2000000476837},{""stimulus"":""run_exp/static/images/task_images/dig.jpg"",""time"":1890.7000000476837}]",[],8,,,,,,,,,,,,,,
harvest,228,607304,0.0-71.0-1.0,"""event"",""trial"",""time""
""fullscreenenter"",""1"",""2166""
","
","
","""event"",""trial"",""time""
""fullscreenenter"",""1"",""2166""
","
",,null,run_exp/static/images/task_images/gems/18.jpg,null,,,,,,,15,,,8,,,,,18,0.812755992,0.833333333,,,,,,,
decision,229,607604,0.0-71.0-2.0,"""event"",""trial"",""time""
""fullscreenenter"",""1"",""2166""
","
","
","""event"",""trial"",""time""
""fullscreenenter"",""1"",""2166""
","
",,297.9,run_exp/static/images/task_images/land.jpg,65,,,,,,,15,,,8,,,,,,,,303011,1,8,TRUE,,,
end_of_block_continue,230,611117,0.0-72.0-0.0,"""event"",""trial"",""time""
""fullscreenenter"",""1"",""2166""
","
","
","""event"",""trial"",""time""
""fullscreenenter"",""1"",""2166""
","
",,3506.3,run_exp/static/audio/clip_32_block_end.m4a,,,,,,,0,,,,,,,,,,,,,,,,,,
alien_welcome,231,616124,0.0-73.0-0.0,"""event"",""trial"",""time""
""fullscreenenter"",""1"",""2166""
","
","
","""event"",""trial"",""time""
""fullscreenenter"",""1"",""2166""
","
",,null,run_exp/static/images/task_images/aliens/old_aliens/planet/alien_planet-72.jpg,null,,,,,,,,,,,,,72,"21,5,1,77,25,10,30,42,72,67,52,50,6,58,28,16,68,66,47,40,53,8,45,35,29,44,23,7,18,57,48,13,74,59,12,33",,,,,,,,,,
land,232,616626,0.0-73.0-1.0,"""event"",""trial"",""time""
""fullscreenenter"",""1"",""2166""
","
","
","""event"",""trial"",""time""
""fullscreenenter"",""1"",""2166""
","
",,null,run_exp/static/images/task_images/land.jpg,null,,,,,,,110,,,9,,,,,,,,,,,,,,
dig,233,618634,0.0-73.0-2.0,"""event"",""trial"",""time""
""fullscreenenter"",""1"",""2166""
","
","
","""event"",""trial"",""time""
""fullscreenenter"",""1"",""2166""
","
",,,,,,,,,,,,"[{""stimulus"":""run_exp/static/images/task_images/dig.jpg"",""time"":0.2999999523162842},{""stimulus"":""run_exp/static/images/task_images/land.jpg"",""time"":669.6000000238419},{""stimulus"":""run_exp/static/images/task_images/dig.jpg"",""time"":1340}]",[],9,,,,,,,,,,,,,,
harvest,234,619639,0.0-73.0-3.0,"""event"",""trial"",""time""
""fullscreenenter"",""1"",""2166""
","
","
","""event"",""trial"",""time""
""fullscreenenter"",""1"",""2166""
","
",,null,run_exp/static/images/task_images/gems/110.jpg,null,,,,,,,24,,,9,,,,,110,0.21911767,0.218181818,,,,,,,
decision,235,619951,0.0-73.0-4.0,"""event"",""trial"",""time""
""fullscreenenter"",""1"",""2166""
","
","
","""event"",""trial"",""time""
""fullscreenenter"",""1"",""2166""
","
",,309.6,run_exp/static/images/task_images/land.jpg,65,,,,,,,24,,,9,,,,,,,,8830,2,0,FALSE,,,
dig,236,622647,0.0-74.0-0.0,"""event"",""trial"",""time""
""fullscreenenter"",""1"",""2166""
","
","
","""event"",""trial"",""time""
""fullscreenenter"",""1"",""2166""
","
",,,,,,,,,,,,"[{""stimulus"":""run_exp/static/images/task_images/dig.jpg"",""time"":0.20000004768371582},{""stimulus"":""run_exp/static/images/task_images/land.jpg"",""time"":897.5},{""stimulus"":""run_exp/static/images/task_images/dig.jpg"",""time"":1794}]",[],9,,,,,,,,,,,,,,
harvest,237,623653,0.0-74.0-1.0,"""event"",""trial"",""time""
""fullscreenenter"",""1"",""2166""
","
","
","""event"",""trial"",""time""
""fullscreenenter"",""1"",""2166""
","
",,null,run_exp/static/images/task_images/gems/24.jpg,null,,,,,,,5,,,9,,,,,24,0.214919525,0.208333333,,,,,,,
decision,238,624005,0.0-74.0-2.0,"""event"",""trial"",""time""
""fullscreenenter"",""1"",""2166""
","
","
","""event"",""trial"",""time""
""fullscreenenter"",""1"",""2166""
","
",,351.2,run_exp/static/images/task_images/land.jpg,76,,,,,,,5,,,9,,,,,,,,12884,2,1,TRUE,,,
travel,239,633661,0.0-75.0-0.0,"""event"",""trial"",""time""
""fullscreenenter"",""1"",""2166""
","
","
","""event"",""trial"",""time""
""fullscreenenter"",""1"",""2166""
","
",,,,,,,,,,,,"[{""stimulus"":""run_exp/static/images/task_images/rocket-01.jpg"",""time"":0.20000004768371582},{""stimulus"":""run_exp/static/images/task_images/rocket-02.jpg"",""time"":1074.3999999761581},{""stimulus"":""run_exp/static/images/task_images/rocket-03.jpg"",""time"":2146},{""stimulus"":""run_exp/static/images/task_images/rocket-04.jpg"",""time"":3217.899999976158},{""stimulus"":""run_exp/static/images/task_images/rocket-05.jpg"",""time"":4290.100000023842},{""stimulus"":""run_exp/static/images/task_images/rocket-06.jpg"",""time"":5361.300000071526},{""stimulus"":""run_exp/static/images/task_images/rocket-07.jpg"",""time"":6435.100000023842},{""stimulus"":""run_exp/static/images/task_images/rocket-08.jpg"",""time"":7507},{""stimulus"":""run_exp/static/images/task_images/rocket-09.jpg"",""time"":8579.399999976158}]",[],9,,,,,,,,,,,,,,
alien_welcome,240,638663,0.0-75.0-1.0,"""event"",""trial"",""time""
""fullscreenenter"",""1"",""2166""
","
","
","""event"",""trial"",""time""
""fullscreenenter"",""1"",""2166""
","
",,null,run_exp/static/images/task_images/aliens/old_aliens/planet/alien_planet-67.jpg,null,,,,,,,,,,,,,67,"21,5,1,77,25,10,30,42,72,67,52,50,6,58,28,16,68,66,47,40,53,8,45,35,29,44,23,7,18,57,48,13,74,59,12,33",,,,,,,,,,
land,241,639170,0.0-75.0-2.0,"""event"",""trial"",""time""
""fullscreenenter"",""1"",""2166""
","
","
","""event"",""trial"",""time""
""fullscreenenter"",""1"",""2166""
","
",,null,run_exp/static/images/task_images/land.jpg,null,,,,,,,102,,,10,,,,,,,,,,,,,,
dig,242,641175,0.0-75.0-3.0,"""event"",""trial"",""time""
""fullscreenenter"",""1"",""2166""
","
","
","""event"",""trial"",""time""
""fullscreenenter"",""1"",""2166""
","
",,,,,,,,,,,,"[{""stimulus"":""run_exp/static/images/task_images/dig.jpg"",""time"":0.30000007152557373},{""stimulus"":""run_exp/static/images/task_images/land.jpg"",""time"":673.1000000238419},{""stimulus"":""run_exp/static/images/task_images/dig.jpg"",""time"":1336.2000000476837}]",[],10,,,,,,,,,,,,,,
harvest,243,642178,0.0-75.0-4.0,"""event"",""trial"",""time""
""fullscreenenter"",""1"",""2166""
","
","
","""event"",""trial"",""time""
""fullscreenenter"",""1"",""2166""
","
",,null,run_exp/static/images/task_images/gems/102.jpg,null,,,,,,,16,,,10,,,,,102,0.154651165,0.156862745,,,,,,,
decision,244,642776,0.0-75.0-5.0,"""event"",""trial"",""time""
""fullscreenenter"",""1"",""2166""
","
","
","""event"",""trial"",""time""
""fullscreenenter"",""1"",""2166""
","
",,596.6,run_exp/static/images/task_images/land.jpg,65,,,,,,,16,,,10,,,,,,,,31655,2,0,FALSE,,,
dig,245,645186,0.0-76.0-0.0,"""event"",""trial"",""time""
""fullscreenenter"",""1"",""2166""
","
","
","""event"",""trial"",""time""
""fullscreenenter"",""1"",""2166""
","
",,,,,,,,,,,,"[{""stimulus"":""run_exp/static/images/task_images/dig.jpg"",""time"":0.19999992847442627},{""stimulus"":""run_exp/static/images/task_images/land.jpg"",""time"":802.2999999523163},{""stimulus"":""run_exp/static/images/task_images/dig.jpg"",""time"":1607.0999999046326}]",[],10,,,,,,,,,,,,,,
harvest,246,646193,0.0-76.0-1.0,"""event"",""trial"",""time""
""fullscreenenter"",""1"",""2166""
","
","
","""event"",""trial"",""time""
""fullscreenenter"",""1"",""2166""
","
",,null,run_exp/static/images/task_images/gems/16.jpg,null,,,,,,,4,,,10,,,,,16,0.263666223,0.25,,,,,,,
decision,247,646777,0.0-76.0-2.0,"""event"",""trial"",""time""
""fullscreenenter"",""1"",""2166""
","
","
","""event"",""trial"",""time""
""fullscreenenter"",""1"",""2166""
","
",,582.4,run_exp/static/images/task_images/land.jpg,76,,,,,,,4,,,10,,,,,,,,35656,2,1,TRUE,,,
travel,248,656200,0.0-77.0-0.0,"""event"",""trial"",""time""
""fullscreenenter"",""1"",""2166""
","
","
","""event"",""trial"",""time""
""fullscreenenter"",""1"",""2166""
","
",,,,,,,,,,,,"[{""stimulus"":""run_exp/static/images/task_images/rocket-01.jpg"",""time"":0.20000004768371582},{""stimulus"":""run_exp/static/images/task_images/rocket-02.jpg"",""time"":1047.7000000476837},{""stimulus"":""run_exp/static/images/task_images/rocket-03.jpg"",""time"":2094},{""stimulus"":""run_exp/static/images/task_images/rocket-04.jpg"",""time"":3143.2000000476837},{""stimulus"":""run_exp/static/images/task_images/rocket-05.jpg"",""time"":4187.600000023842},{""stimulus"":""run_exp/static/images/task_images/rocket-06.jpg"",""time"":5234.800000071526},{""stimulus"":""run_exp/static/images/task_images/rocket-07.jpg"",""time"":6281.300000071526},{""stimulus"":""run_exp/static/images/task_images/rocket-08.jpg"",""time"":7325.400000095367},{""stimulus"":""run_exp/static/images/task_images/rocket-09.jpg"",""time"":8373.400000095367}]",[],10,,,,,,,,,,,,,,
alien_welcome,249,661203,0.0-77.0-1.0,"""event"",""trial"",""time""
""fullscreenenter"",""1"",""2166""
","
","
","""event"",""trial"",""time""
""fullscreenenter"",""1"",""2166""
","
