trial_type,trial_index,time_elapsed,internal_node_id,interactions,blur_events,focus_events,fullscreenenter_events,fullscreenexit_events,success,rt,stimulus,key_press,prompt,subject_id,participant_id,age,gender,button_pressed,next_reward,animation_sequence,responses,planet,curr_prac_trial,n_prac_rounds,alien,aliens,reward_received,decay_rate_actual,decay_rate_exp,time_in_block,block_num,prt,last_trial_on_planet,button_html,bonus,num_failures
pavlovia,0,7,0.0-0.0,"""event"",""trial"",""time""
""fullscreenenter"",""1"",""2449""
","
","
","""event"",""trial"",""time""
""fullscreenenter"",""1"",""2449""
","
",,,,,,,,,,,,,,,,,,,,,,,,,,,,
fullscreen,1,3403,0.0-1.0,"""event"",""trial"",""time""
""fullscreenenter"",""1"",""2449""
""fullscreenexit"",""2"",""7461""
""blur"",""2"",""13997""
","""event"",""trial"",""time""
""blur"",""2"",""13997""
","
","""event"",""trial"",""time""
""fullscreenenter"",""1"",""2449""
","""event"",""trial"",""time""
""fullscreenexit"",""2"",""7461""
",TRUE,,,,,,,,,,,,,,,,,,,,,,,,,,,
instruc_welcome,2,14331,0.0-2.0,"""event"",""trial"",""time""
""fullscreenenter"",""1"",""2449""
""fullscreenexit"",""2"",""7461""
""blur"",""2"",""13997""
","""event"",""trial"",""time""
""blur"",""2"",""13997""
","
","""event"",""trial"",""time""
""fullscreenenter"",""1"",""2449""
","""event"",""trial"",""time""
""fullscreenexit"",""2"",""7461""
",,null,run_exp/static/audio/clip_1_welcome.m4a,null,"<p>Howdy! In this experiment, you’ll be an explorer traveling through space to collect space treasure.</p><p>Your mission is to collect as much treasure as possible.</p><br><br><p><img src='run_exp/static/images/task_images/opening_img-01.jpg' height='300' width='auto'></p>",9361,3681,11.78,Female,,,,,,,,,,,,,,,,,,,
audio-keyboard-response,3,30962,0.0-3.0,"""event"",""trial"",""time""
""fullscreenenter"",""1"",""2449""
""fullscreenexit"",""2"",""7461""
""blur"",""2"",""13997""
""focus"",""4"",""37084""
","""event"",""trial"",""time""
""blur"",""2"",""13997""
","""event"",""trial"",""time""
""focus"",""4"",""37084""
","""event"",""trial"",""time""
""fullscreenenter"",""1"",""2449""
","""event"",""trial"",""time""
""fullscreenexit"",""2"",""7461""
",,null,run_exp/static/audio/clip_2_move.m4a,null,,,,,,,,,,,,,,,,,,,,,,,,
welcome_dec,4,37156,0.0-4.0,"""event"",""trial"",""time""
""fullscreenenter"",""1"",""2449""
""fullscreenexit"",""2"",""7461""
""blur"",""2"",""13997""
""focus"",""4"",""37084""
","""event"",""trial"",""time""
""blur"",""2"",""13997""
","""event"",""trial"",""time""
""focus"",""4"",""37084""
","""event"",""trial"",""time""
""fullscreenenter"",""1"",""2449""
","""event"",""trial"",""time""
""fullscreenexit"",""2"",""7461""
",,6182,"<p>Howdy! In this experiment, you’ll be an explorer traveling through space to collect space treasure.</p><p>Your mission is to collect as much treasure as possible.</p><br><br><p><img src='run_exp/static/images/task_images/opening_img-01.jpg' height='300' width='auto'></p>",,,,,,,1,,,,,,,,,,,,,,,,,,
html-keyboard-response,5,39474,0.0-5.0,"""event"",""trial"",""time""
""fullscreenenter"",""1"",""2449""
""fullscreenexit"",""2"",""7461""
""blur"",""2"",""13997""
""focus"",""4"",""37084""
","""event"",""trial"",""time""
""blur"",""2"",""13997""
","""event"",""trial"",""time""
""focus"",""4"",""37084""
","""event"",""trial"",""time""
""fullscreenenter"",""1"",""2449""
","""event"",""trial"",""time""
""fullscreenexit"",""2"",""7461""
",,2314,"<p>Howdy! In this experiment, you’ll be an explorer traveling through space to collect space treasure.</p><p>Your mission is to collect as much treasure as possible.</p><br><br><p><img src='run_exp/static/images/task_images/opening_img-01.jpg' height='300' width='auto'></p><button class=""jspsych-html-btn-unchosen""><img src=""run_exp/static/images/task_images/planet-01.jpg"" height=""50""></button><button class=""jspsych-html-btn-chosen""><img src=""run_exp/static/images/task_images/planet-02.jpg"" height=""50""></button><p><b>[press the space bar to lock in your answer]<b><br></p>",32,,,,,,,,,,,,,,,,,,,,,,,,
instruc_goal,6,49535,0.0-6.0-0.0,"""event"",""trial"",""time""
""fullscreenenter"",""1"",""2449""
""fullscreenexit"",""2"",""7461""
""blur"",""2"",""13997""
""focus"",""4"",""37084""
","""event"",""trial"",""time""
""blur"",""2"",""13997""
","""event"",""trial"",""time""
""focus"",""4"",""37084""
","""event"",""trial"",""time""
""fullscreenenter"",""1"",""2449""
","""event"",""trial"",""time""
""fullscreenexit"",""2"",""7461""
",,null,run_exp/static/audio/clip_3_goal.m4a,null,"<p> As a space explorer, you’ll visit different planets to dig for space treasure, these pink gems.</p> <p> The more treasure you dig up, the more bonus money you’ll win! </p><br><br><p><img src='run_exp/static/images/task_images/pink_gem.jpg' height='300' width='auto'></p>",,,,,,,,,,,,,,,,,,,,,,,
instruc_goal,7,53598,0.0-6.0-1.0,"""event"",""trial"",""time""
""fullscreenenter"",""1"",""2449""
""fullscreenexit"",""2"",""7461""
""blur"",""2"",""13997""
""focus"",""4"",""37084""
","""event"",""trial"",""time""
""blur"",""2"",""13997""
","""event"",""trial"",""time""
""focus"",""4"",""37084""
","""event"",""trial"",""time""
""fullscreenenter"",""1"",""2449""
","""event"",""trial"",""time""
""fullscreenexit"",""2"",""7461""
",,4058.3,"<p> As a space explorer, you’ll visit different planets to dig for space treasure, these pink gems.</p> <p> The more treasure you dig up, the more bonus money you’ll win! </p><br><br><p><img src='run_exp/static/images/task_images/pink_gem.jpg' height='300' width='auto'></p>",,,,,,,1,,,,,,,,,,,,,,,,,,
html-keyboard-response,8,53902,0.0-6.0-2.0,"""event"",""trial"",""time""
""fullscreenenter"",""1"",""2449""
""fullscreenexit"",""2"",""7461""
""blur"",""2"",""13997""
""focus"",""4"",""37084""
","""event"",""trial"",""time""
""blur"",""2"",""13997""
","""event"",""trial"",""time""
""focus"",""4"",""37084""
","""event"",""trial"",""time""
""fullscreenenter"",""1"",""2449""
","""event"",""trial"",""time""
""fullscreenexit"",""2"",""7461""
",,301,"<p> As a space explorer, you’ll visit different planets to dig for space treasure, these pink gems.</p> <p> The more treasure you dig up, the more bonus money you’ll win! </p><br><br><p><img src='run_exp/static/images/task_images/pink_gem.jpg' height='300' width='auto'></p><button class=""jspsych-html-btn-unchosen""><img src=""run_exp/static/images/task_images/planet-01.jpg"" height=""50""></button><button class=""jspsych-html-btn-chosen""><img src=""run_exp/static/images/task_images/planet-02.jpg"" height=""50""></button><p><b>[press the space bar to lock in your answer]<b><br></p>",32,,,,,,,,,,,,,,,,,,,,,,,,
instruc_dig,9,69911,0.0-7.0-0.0,"""event"",""trial"",""time""
""fullscreenenter"",""1"",""2449""
""fullscreenexit"",""2"",""7461""
""blur"",""2"",""13997""
""focus"",""4"",""37084""
","""event"",""trial"",""time""
""blur"",""2"",""13997""
","""event"",""trial"",""time""
""focus"",""4"",""37084""
","""event"",""trial"",""time""
""fullscreenenter"",""1"",""2449""
","""event"",""trial"",""time""
""fullscreenexit"",""2"",""7461""
",,null,run_exp/static/audio/clip_4_dig.m4a,null,,,,,,,100,,,,,,,,,,,,,,,,,
instruc_dig_try,10,71967,0.0-7.0-1.0,"""event"",""trial"",""time""
""fullscreenenter"",""1"",""2449""
""fullscreenexit"",""2"",""7461""
""blur"",""2"",""13997""
""focus"",""4"",""37084""
","""event"",""trial"",""time""
""blur"",""2"",""13997""
","""event"",""trial"",""time""
""focus"",""4"",""37084""
","""event"",""trial"",""time""
""fullscreenenter"",""1"",""2449""
","""event"",""trial"",""time""
""fullscreenexit"",""2"",""7461""
",,2051.3,"<p> When you’ve arrived at a new planet, you will dig once. </p> <p>Then, you get to decide if you want to stay on the planet and dig again or travel to a new planet and dig there.</p> <p> To stay and dig, press the letter <strong>‘A’</strong> on your keyboard. Try pressing it now! </p><p><img src='run_exp/static/images/task_images/land.jpg'  height='700' width='auto'></p>",65,"<p> When you’ve arrived at a new planet, you will dig once. </p> <p>Then, you get to decide if you want to stay on the planet and dig again or travel to a new planet and dig there.</p> <p> To stay and dig, press the letter <strong>‘A’</strong> on your keyboard. Try pressing it now! </p><p><img src='run_exp/static/images/task_images/land.jpg'  height='700' width='auto'></p>",,,,,,100,,,,,,,,,,,,,,,,,
dig_prac,11,74047,0.0-7.0-2.0,"""event"",""trial"",""time""
""fullscreenenter"",""1"",""2449""
""fullscreenexit"",""2"",""7461""
""blur"",""2"",""13997""
""focus"",""4"",""37084""
","""event"",""trial"",""time""
""blur"",""2"",""13997""
","""event"",""trial"",""time""
""focus"",""4"",""37084""
","""event"",""trial"",""time""
""fullscreenenter"",""1"",""2449""
","""event"",""trial"",""time""
""fullscreenexit"",""2"",""7461""
",,,,,,,,,,,,"[{""stimulus"":""run_exp/static/images/task_images/dig.jpg"",""time"":0.5999999046325684},{""stimulus"":""run_exp/static/images/task_images/land.jpg"",""time"":675.5},{""stimulus"":""run_exp/static/images/task_images/dig.jpg"",""time"":1341.2999999523163}]",[],,,,,,,,,,,,,,,
instruc_travel,12,110262,0.0-7.0-3.0,"""event"",""trial"",""time""
""fullscreenenter"",""1"",""2449""
""fullscreenexit"",""2"",""7461""
""blur"",""2"",""13997""
""focus"",""4"",""37084""
","""event"",""trial"",""time""
""blur"",""2"",""13997""
","""event"",""trial"",""time""
""focus"",""4"",""37084""
","""event"",""trial"",""time""
""fullscreenenter"",""1"",""2449""
","""event"",""trial"",""time""
""fullscreenexit"",""2"",""7461""
",,null,run_exp/static/audio/clip_5_travel.m4a,null,"<p>Every time you dig up gems, there are less gems on the planet, so the more you dig on a planet the fewer gems you’ll get with each dig.</p><p>When gems are running low, you may want to travel to a new planet. </p> <p>  Planets are very far apart in this galaxy, so it will take some time to travel between them. </p> <br><p>There are lots and lots of planets for you to visit, so you won’t be able to return to any planets you’ve seen before. </p><br><p>To leave this planet and travel to a new one, press the letter <strong>‘L’</strong> on your keyboard. Try pressing it now! </p><p><img src='run_exp/static/images/task_images/rocket-01.jpg'  height='600' width='auto'></p>",,,,,,,,,,,,,,,,,,,,,,,
instruc_travel_try,13,112086,0.0-7.0-4.0,"""event"",""trial"",""time""
""fullscreenenter"",""1"",""2449""
""fullscreenexit"",""2"",""7461""
""blur"",""2"",""13997""
""focus"",""4"",""37084""
""blur"",""14"",""114342""
","""event"",""trial"",""time""
""blur"",""2"",""13997""
""blur"",""14"",""114342""
","""event"",""trial"",""time""
""focus"",""4"",""37084""
","""event"",""trial"",""time""
""fullscreenenter"",""1"",""2449""
","""event"",""trial"",""time""
""fullscreenexit"",""2"",""7461""
",,1816.5,"<p>Every time you dig up gems, there are less gems on the planet, so the more you dig on a planet the fewer gems you’ll get with each dig.</p><p>When gems are running low, you may want to travel to a new planet. </p> <p>  Planets are very far apart in this galaxy, so it will take some time to travel between them. </p> <br><p>There are lots and lots of planets for you to visit, so you won’t be able to return to any planets you’ve seen before. </p><br><p>To leave this planet and travel to a new one, press the letter <strong>‘L’</strong> on your keyboard. Try pressing it now! </p><p><img src='run_exp/static/images/task_images/rocket-01.jpg'  height='600' width='auto'></p>",76,"<p>Every time you dig up gems, there are less gems on the planet, so the more you dig on a planet the fewer gems you’ll get with each dig.</p><p>When gems are running low, you may want to travel to a new planet. </p> <p>  Planets are very far apart in this galaxy, so it will take some time to travel between them. </p> <br><p>There are lots and lots of planets for you to visit, so you won’t be able to return to any planets you’ve seen before. </p><br><p>To leave this planet and travel to a new one, press the letter <strong>‘L’</strong> on your keyboard. Try pressing it now! </p><p><img src='run_exp/static/images/task_images/rocket-01.jpg'  height='600' width='auto'></p>",,,,,,,,,,,,,,,,,,,,,,,
travel_prac,14,122096,0.0-7.0-5.0,"""event"",""trial"",""time""
""fullscreenenter"",""1"",""2449""
""fullscreenexit"",""2"",""7461""
""blur"",""2"",""13997""
""focus"",""4"",""37084""
""blur"",""14"",""114342""
","""event"",""trial"",""time""
""blur"",""2"",""13997""
""blur"",""14"",""114342""
","""event"",""trial"",""time""
""focus"",""4"",""37084""
","""event"",""trial"",""time""
""fullscreenenter"",""1"",""2449""
","""event"",""trial"",""time""
""fullscreenexit"",""2"",""7461""
",,,,,,,,,,,,"[{""stimulus"":""run_exp/static/images/task_images/rocket-01.jpg"",""time"":0.5},{""stimulus"":""run_exp/static/images/task_images/rocket-02.jpg"",""time"":1117.7999999523163},{""stimulus"":""run_exp/static/images/task_images/rocket-03.jpg"",""time"":2240.899999856949},{""stimulus"":""run_exp/static/images/task_images/rocket-04.jpg"",""time"":3341.7000000476837},{""stimulus"":""run_exp/static/images/task_images/rocket-05.jpg"",""time"":4458.099999904633},{""stimulus"":""run_exp/static/images/task_images/rocket-06.jpg"",""time"":5576.399999856949},{""stimulus"":""run_exp/static/images/task_images/rocket-07.jpg"",""time"":6669.700000047684},{""stimulus"":""run_exp/static/images/task_images/rocket-08.jpg"",""time"":7780.5},{""stimulus"":""run_exp/static/images/task_images/rocket-09.jpg"",""time"":8892.299999952316}]",[],0,,,,,,,,,,,,,,
instruc_alien_greet,15,149272,0.0-7.0-6.0,"""event"",""trial"",""time""
""fullscreenenter"",""1"",""2449""
""fullscreenexit"",""2"",""7461""
""blur"",""2"",""13997""
""focus"",""4"",""37084""
""blur"",""14"",""114342""
""focus"",""16"",""152264""
","""event"",""trial"",""time""
""blur"",""2"",""13997""
""blur"",""14"",""114342""
","""event"",""trial"",""time""
""focus"",""4"",""37084""
""focus"",""16"",""152264""
","""event"",""trial"",""time""
""fullscreenenter"",""1"",""2449""
","""event"",""trial"",""time""
""fullscreenexit"",""2"",""7461""
",,null,run_exp/static/audio/clip_6_alien.m4a,null,"<p>When you arrive at a new planet, the alien who owns the treasure mine on that planet will greet you!</p><p>The better an alien takes care of their mine the easier it is to dig for gems. Some aliens take better care of their mine than others. So, you won’t get exactly the same amount of gems on each planet.</p><p>What the alien looks like does not tell you anything about how many gems there are on the planet.</p><br><p><img src=""run_exp/static/images/task_images/aliens/instructions_aliens/planet/alien_planet-1.jpg""  height=""600"" width=""auto""></p>",,,,,,,,,,,,,,,,,,,,,,,
instruc_alien_greet,16,156330,0.0-7.0-7.0,"""event"",""trial"",""time""
""fullscreenenter"",""1"",""2449""
""fullscreenexit"",""2"",""7461""
""blur"",""2"",""13997""
""focus"",""4"",""37084""
""blur"",""14"",""114342""
""focus"",""16"",""152264""
","""event"",""trial"",""time""
""blur"",""2"",""13997""
""blur"",""14"",""114342""
","""event"",""trial"",""time""
""focus"",""4"",""37084""
""focus"",""16"",""152264""
","""event"",""trial"",""time""
""fullscreenenter"",""1"",""2449""
","""event"",""trial"",""time""
""fullscreenexit"",""2"",""7461""
",,7052.6,"<p>When you arrive at a new planet, the alien who owns the treasure mine on that planet will greet you!</p><p>The better an alien takes care of their mine the easier it is to dig for gems. Some aliens take better care of their mine than others. So, you won’t get exactly the same amount of gems on each planet.</p><p>What the alien looks like does not tell you anything about how many gems there are on the planet.</p><br><p><img src=""run_exp/static/images/task_images/aliens/instructions_aliens/planet/alien_planet-1.jpg""  height=""600"" width=""auto""></p>",,,,,,,1,,,,,,,,,,,,,,,,,,
html-keyboard-response,17,157532,0.0-7.0-8.0,"""event"",""trial"",""time""
""fullscreenenter"",""1"",""2449""
""fullscreenexit"",""2"",""7461""
""blur"",""2"",""13997""
""focus"",""4"",""37084""
""blur"",""14"",""114342""
""focus"",""16"",""152264""
""blur"",""18"",""165486""
","""event"",""trial"",""time""
""blur"",""2"",""13997""
""blur"",""14"",""114342""
""blur"",""18"",""165486""
","""event"",""trial"",""time""
""focus"",""4"",""37084""
""focus"",""16"",""152264""
","""event"",""trial"",""time""
""fullscreenenter"",""1"",""2449""
","""event"",""trial"",""time""
""fullscreenexit"",""2"",""7461""
",,1199.1,"<p>When you arrive at a new planet, the alien who owns the treasure mine on that planet will greet you!</p><p>The better an alien takes care of their mine the easier it is to dig for gems. Some aliens take better care of their mine than others. So, you won’t get exactly the same amount of gems on each planet.</p><p>What the alien looks like does not tell you anything about how many gems there are on the planet.</p><br><p><img src=""run_exp/static/images/task_images/aliens/instructions_aliens/planet/alien_planet-1.jpg""  height=""600"" width=""auto""></p><button class=""jspsych-html-btn-unchosen""><img src=""run_exp/static/images/task_images/planet-01.jpg"" height=""50""></button><button class=""jspsych-html-btn-chosen""><img src=""run_exp/static/images/task_images/planet-02.jpg"" height=""50""></button><p><b>[press the space bar to lock in your answer]<b><br></p>",32,,,,,,,,,,,,,,,,,,,,,,,,
time_out,18,168613,0.0-8.0-0.0,"""event"",""trial"",""time""
""fullscreenenter"",""1"",""2449""
""fullscreenexit"",""2"",""7461""
""blur"",""2"",""13997""
""focus"",""4"",""37084""
""blur"",""14"",""114342""
""focus"",""16"",""152264""
""blur"",""18"",""165486""
""focus"",""19"",""170420""
","""event"",""trial"",""time""
""blur"",""2"",""13997""
""blur"",""14"",""114342""
""blur"",""18"",""165486""
","""event"",""trial"",""time""
""focus"",""4"",""37084""
""focus"",""16"",""152264""
""focus"",""19"",""170420""
","""event"",""trial"",""time""
""fullscreenenter"",""1"",""2449""
","""event"",""trial"",""time""
""fullscreenexit"",""2"",""7461""
",,null,run_exp/static/audio/clip_7_timeout.m4a,null,"<p>If you don't make your choice fast enough, you’ll have to wait a few seconds before you can make another one.</p><p>You can’t dig for more gems or travel to new planets. You just have to sit and wait.</p><br><p><img src='run_exp/static/images/task_images/time_out.jpg'  height='600' width='auto'></p>",,,,,,,,,,,,,,,,,,,,,,,
time_out,19,171601,0.0-8.0-1.0,"""event"",""trial"",""time""
""fullscreenenter"",""1"",""2449""
""fullscreenexit"",""2"",""7461""
""blur"",""2"",""13997""
""focus"",""4"",""37084""
""blur"",""14"",""114342""
""focus"",""16"",""152264""
""blur"",""18"",""165486""
""focus"",""19"",""170420""
","""event"",""trial"",""time""
""blur"",""2"",""13997""
""blur"",""14"",""114342""
""blur"",""18"",""165486""
","""event"",""trial"",""time""
""focus"",""4"",""37084""
""focus"",""16"",""152264""
""focus"",""19"",""170420""
","""event"",""trial"",""time""
""fullscreenenter"",""1"",""2449""
","""event"",""trial"",""time""
""fullscreenexit"",""2"",""7461""
",,2984.3,"<p>If you don't make your choice fast enough, you’ll have to wait a few seconds before you can make another one.</p><p>You can’t dig for more gems or travel to new planets. You just have to sit and wait.</p><br><p><img src='run_exp/static/images/task_images/time_out.jpg'  height='600' width='auto'></p>",,,,,,,1,,,,,,,,,,,,,,,,,,
html-keyboard-response,20,171638,0.0-8.0-2.0,"""event"",""trial"",""time""
""fullscreenenter"",""1"",""2449""
""fullscreenexit"",""2"",""7461""
""blur"",""2"",""13997""
""focus"",""4"",""37084""
""blur"",""14"",""114342""
""focus"",""16"",""152264""
""blur"",""18"",""165486""
""focus"",""19"",""170420""
","""event"",""trial"",""time""
""blur"",""2"",""13997""
""blur"",""14"",""114342""
""blur"",""18"",""165486""
","""event"",""trial"",""time""
""focus"",""4"",""37084""
""focus"",""16"",""152264""
""focus"",""19"",""170420""
","""event"",""trial"",""time""
""fullscreenenter"",""1"",""2449""
","""event"",""trial"",""time""
""fullscreenexit"",""2"",""7461""
",,35.39999986,"<p>If you don't make your choice fast enough, you’ll have to wait a few seconds before you can make another one.</p><p>You can’t dig for more gems or travel to new planets. You just have to sit and wait.</p><br><p><img src='run_exp/static/images/task_images/time_out.jpg'  height='600' width='auto'></p><button class=""jspsych-html-btn-unchosen""><img src=""run_exp/static/images/task_images/planet-01.jpg"" height=""50""></button><button class=""jspsych-html-btn-chosen""><img src=""run_exp/static/images/task_images/planet-02.jpg"" height=""50""></button><p><b>[press the space bar to lock in your answer]<b><br></p>",32,,,,,,,,,,,,,,,,,,,,,,,,
instruc_break,21,187306,0.0-9.0-0.0,"""event"",""trial"",""time""
""fullscreenenter"",""1"",""2449""
""fullscreenexit"",""2"",""7461""
""blur"",""2"",""13997""
""focus"",""4"",""37084""
""blur"",""14"",""114342""
""focus"",""16"",""152264""
""blur"",""18"",""165486""
""focus"",""19"",""170420""
","""event"",""trial"",""time""
""blur"",""2"",""13997""
""blur"",""14"",""114342""
""blur"",""18"",""165486""
","""event"",""trial"",""time""
""focus"",""4"",""37084""
""focus"",""16"",""152264""
""focus"",""19"",""170420""
","""event"",""trial"",""time""
""fullscreenenter"",""1"",""2449""
","""event"",""trial"",""time""
""fullscreenexit"",""2"",""7461""
",,null,run_exp/static/audio/clip_8_break.m4a,null,"<p> After digging and traveling for a while, you’ll be able to take a break at home base. </p><p>The game will last 20 minutes no matter what.</p><p>You will visit home base every 5 minutes, so, you will visit home base three times during the game.</p><br><p><img src='run_exp/static/images/task_images/home_base.jpg' height='600' width='auto'></p>",,,,,,,,,,,,,,,,,,,,,,,
instruc_break,22,188744,0.0-9.0-1.0,"""event"",""trial"",""time""
""fullscreenenter"",""1"",""2449""
""fullscreenexit"",""2"",""7461""
""blur"",""2"",""13997""
""focus"",""4"",""37084""
""blur"",""14"",""114342""
""focus"",""16"",""152264""
""blur"",""18"",""165486""
""focus"",""19"",""170420""
","""event"",""trial"",""time""
""blur"",""2"",""13997""
""blur"",""14"",""114342""
""blur"",""18"",""165486""
","""event"",""trial"",""time""
""focus"",""4"",""37084""
""focus"",""16"",""152264""
""focus"",""19"",""170420""
","""event"",""trial"",""time""
""fullscreenenter"",""1"",""2449""
","""event"",""trial"",""time""
""fullscreenexit"",""2"",""7461""
",,1433.6,"<p> After digging and traveling for a while, you’ll be able to take a break at home base. </p><p>The game will last 20 minutes no matter what.</p><p>You will visit home base every 5 minutes, so, you will visit home base three times during the game.</p><br><p><img src='run_exp/static/images/task_images/home_base.jpg' height='600' width='auto'></p>",,,,,,,1,,,,,,,,,,,,,,,,,,
html-keyboard-response,23,188972,0.0-9.0-2.0,"""event"",""trial"",""time""
""fullscreenenter"",""1"",""2449""
""fullscreenexit"",""2"",""7461""
""blur"",""2"",""13997""
""focus"",""4"",""37084""
""blur"",""14"",""114342""
""focus"",""16"",""152264""
""blur"",""18"",""165486""
""focus"",""19"",""170420""
","""event"",""trial"",""time""
""blur"",""2"",""13997""
""blur"",""14"",""114342""
""blur"",""18"",""165486""
","""event"",""trial"",""time""
""focus"",""4"",""37084""
""focus"",""16"",""152264""
""focus"",""19"",""170420""
","""event"",""trial"",""time""
""fullscreenenter"",""1"",""2449""
","""event"",""trial"",""time""
""fullscreenexit"",""2"",""7461""
",,224.8999999,"<p> After digging and traveling for a while, you’ll be able to take a break at home base. </p><p>The game will last 20 minutes no matter what.</p><p>You will visit home base every 5 minutes, so, you will visit home base three times during the game.</p><br><p><img src='run_exp/static/images/task_images/home_base.jpg' height='600' width='auto'></p><button class=""jspsych-html-btn-unchosen""><img src=""run_exp/static/images/task_images/planet-01.jpg"" height=""50""></button><button class=""jspsych-html-btn-chosen""><img src=""run_exp/static/images/task_images/planet-02.jpg"" height=""50""></button><p><b>[press the space bar to lock in your answer]<b><br></p>",32,,,,,,,,,,,,,,,,,,,,,,,,
instruc_prac_game,24,199089,0.0-10.0-0.0,"""event"",""trial"",""time""
""fullscreenenter"",""1"",""2449""
""fullscreenexit"",""2"",""7461""
""blur"",""2"",""13997""
""focus"",""4"",""37084""
""blur"",""14"",""114342""
""focus"",""16"",""152264""
""blur"",""18"",""165486""
""focus"",""19"",""170420""
","""event"",""trial"",""time""
""blur"",""2"",""13997""
""blur"",""14"",""114342""
""blur"",""18"",""165486""
","""event"",""trial"",""time""
""focus"",""4"",""37084""
""focus"",""16"",""152264""
""focus"",""19"",""170420""
","""event"",""trial"",""time""
""fullscreenenter"",""1"",""2449""
","""event"",""trial"",""time""
""fullscreenexit"",""2"",""7461""
",,null,run_exp/static/audio/clip_9_practice.m4a,null,"<p> Are you ready to play a practice game? </p> <p>In this practice game, you'll be digging up barrels of gems. But, in the real game, you'll be digging up the gems themselves. </p>",,,,,,,,,,,,,,,,,,,,,,,
html-button-response,25,200245,0.0-10.0-1.0,"""event"",""trial"",""time""
""fullscreenenter"",""1"",""2449""
""fullscreenexit"",""2"",""7461""
""blur"",""2"",""13997""
""focus"",""4"",""37084""
""blur"",""14"",""114342""
""focus"",""16"",""152264""
""blur"",""18"",""165486""
""focus"",""19"",""170420""
","""event"",""trial"",""time""
""blur"",""2"",""13997""
""blur"",""14"",""114342""
""blur"",""18"",""165486""
","""event"",""trial"",""time""
""focus"",""4"",""37084""
""focus"",""16"",""152264""
""focus"",""19"",""170420""
","""event"",""trial"",""time""
""fullscreenenter"",""1"",""2449""
","""event"",""trial"",""time""
""fullscreenexit"",""2"",""7461""
",,1152.6,"<p> Are you ready to play a practice game? </p> <p>In this practice game, you'll be digging up barrels of gems. But, in the real game, you'll be digging up the gems themselves. </p>",,,,,,,0,,,,,,,,,,,,,,,,,,
alien_welcome_prac,26,205266,0.0-11.0-0.0,"""event"",""trial"",""time""
""fullscreenenter"",""1"",""2449""
""fullscreenexit"",""2"",""7461""
""blur"",""2"",""13997""
""focus"",""4"",""37084""
""blur"",""14"",""114342""
""focus"",""16"",""152264""
""blur"",""18"",""165486""
""focus"",""19"",""170420""
","""event"",""trial"",""time""
""blur"",""2"",""13997""
""blur"",""14"",""114342""
""blur"",""18"",""165486""
","""event"",""trial"",""time""
""focus"",""4"",""37084""
""focus"",""16"",""152264""
""focus"",""19"",""170420""
","""event"",""trial"",""time""
""fullscreenenter"",""1"",""2449""
","""event"",""trial"",""time""
""fullscreenexit"",""2"",""7461""
",,null,run_exp/static/images/task_images/aliens/practice_aliens/planet/alien_planet-5.jpg,null,,,,,,,,,,,,,,,,,,,,,,,,
land_prac,27,205781,0.0-11.0-1.0,"""event"",""trial"",""time""
""fullscreenenter"",""1"",""2449""
""fullscreenexit"",""2"",""7461""
""blur"",""2"",""13997""
""focus"",""4"",""37084""
""blur"",""14"",""114342""
""focus"",""16"",""152264""
""blur"",""18"",""165486""
""focus"",""19"",""170420""
","""event"",""trial"",""time""
""blur"",""2"",""13997""
""blur"",""14"",""114342""
""blur"",""18"",""165486""
","""event"",""trial"",""time""
""focus"",""4"",""37084""
""focus"",""16"",""152264""
""focus"",""19"",""170420""
","""event"",""trial"",""time""
""fullscreenenter"",""1"",""2449""
","""event"",""trial"",""time""
""fullscreenexit"",""2"",""7461""
",,null,run_exp/static/images/task_images/land.jpg,null,,,,,,,92,,,0,,,,,,,,,,,,,,
dig_prac,28,207807,0.0-11.0-2.0,"""event"",""trial"",""time""
""fullscreenenter"",""1"",""2449""
""fullscreenexit"",""2"",""7461""
""blur"",""2"",""13997""
""focus"",""4"",""37084""
""blur"",""14"",""114342""
""focus"",""16"",""152264""
""blur"",""18"",""165486""
""focus"",""19"",""170420""
","""event"",""trial"",""time""
""blur"",""2"",""13997""
""blur"",""14"",""114342""
""blur"",""18"",""165486""
","""event"",""trial"",""time""
""focus"",""4"",""37084""
""focus"",""16"",""152264""
""focus"",""19"",""170420""
","""event"",""trial"",""time""
""fullscreenenter"",""1"",""2449""
","""event"",""trial"",""time""
""fullscreenexit"",""2"",""7461""
",,,,,,,,,,,,"[{""stimulus"":""run_exp/static/images/task_images/dig.jpg"",""time"":0.7999999523162842},{""stimulus"":""run_exp/static/images/task_images/land.jpg"",""time"":672.7000000476837},{""stimulus"":""run_exp/static/images/task_images/dig.jpg"",""time"":1339}]",[],,,,,,,,,,,,,,,
harvest_prac,29,208831,0.0-11.0-3.0,"""event"",""trial"",""time""
""fullscreenenter"",""1"",""2449""
""fullscreenexit"",""2"",""7461""
""blur"",""2"",""13997""
""focus"",""4"",""37084""
""blur"",""14"",""114342""
""focus"",""16"",""152264""
""blur"",""18"",""165486""
""focus"",""19"",""170420""
","""event"",""trial"",""time""
""blur"",""2"",""13997""
""blur"",""14"",""114342""
""blur"",""18"",""165486""
","""event"",""trial"",""time""
""focus"",""4"",""37084""
""focus"",""16"",""152264""
""focus"",""19"",""170420""
","""event"",""trial"",""time""
""fullscreenenter"",""1"",""2449""
","""event"",""trial"",""time""
""fullscreenexit"",""2"",""7461""
",,null,run_exp/static/images/task_images/barrel_text.jpg,null,,,,,,,,,,,,,,,,,,,,,,,,
decision_prac,30,211697,0.0-11.0-4.0,"""event"",""trial"",""time""
""fullscreenenter"",""1"",""2449""
""fullscreenexit"",""2"",""7461""
""blur"",""2"",""13997""
""focus"",""4"",""37084""
""blur"",""14"",""114342""
""focus"",""16"",""152264""
""blur"",""18"",""165486""
""focus"",""19"",""170420""
","""event"",""trial"",""time""
""blur"",""2"",""13997""
""blur"",""14"",""114342""
""blur"",""18"",""165486""
","""event"",""trial"",""time""
""focus"",""4"",""37084""
""focus"",""16"",""152264""
""focus"",""19"",""170420""
","""event"",""trial"",""time""
""fullscreenenter"",""1"",""2449""
","""event"",""trial"",""time""
""fullscreenexit"",""2"",""7461""
",,2863.5,run_exp/static/images/task_images/land.jpg,65,,,,,,,,,,,1,,,,,,,,,,,,,
dig_prac,31,213732,0.0-12.0-0.0,"""event"",""trial"",""time""
""fullscreenenter"",""1"",""2449""
""fullscreenexit"",""2"",""7461""
""blur"",""2"",""13997""
""focus"",""4"",""37084""
""blur"",""14"",""114342""
""focus"",""16"",""152264""
""blur"",""18"",""165486""
""focus"",""19"",""170420""
","""event"",""trial"",""time""
""blur"",""2"",""13997""
""blur"",""14"",""114342""
""blur"",""18"",""165486""
","""event"",""trial"",""time""
""focus"",""4"",""37084""
""focus"",""16"",""152264""
""focus"",""19"",""170420""
","""event"",""trial"",""time""
""fullscreenenter"",""1"",""2449""
","""event"",""trial"",""time""
""fullscreenexit"",""2"",""7461""
",,,,,,,,,,,,"[{""stimulus"":""run_exp/static/images/task_images/dig.jpg"",""time"":0.7999999523162842},{""stimulus"":""run_exp/static/images/task_images/land.jpg"",""time"":674.2999999523163},{""stimulus"":""run_exp/static/images/task_images/dig.jpg"",""time"":1338.7999999523163}]",[],,,,,,,,,,,,,,,
harvest_prac,32,214738,0.0-12.0-1.0,"""event"",""trial"",""time""
""fullscreenenter"",""1"",""2449""
""fullscreenexit"",""2"",""7461""
""blur"",""2"",""13997""
""focus"",""4"",""37084""
""blur"",""14"",""114342""
""focus"",""16"",""152264""
""blur"",""18"",""165486""
""focus"",""19"",""170420""
","""event"",""trial"",""time""
""blur"",""2"",""13997""
""blur"",""14"",""114342""
""blur"",""18"",""165486""
","""event"",""trial"",""time""
""focus"",""4"",""37084""
""focus"",""16"",""152264""
""focus"",""19"",""170420""
","""event"",""trial"",""time""
""fullscreenenter"",""1"",""2449""
","""event"",""trial"",""time""
""fullscreenexit"",""2"",""7461""
",,null,run_exp/static/images/task_images/barrel_text.jpg,null,,,,,,,,,,,,,,,,,,,,,,,,
decision_prac,33,216647,0.0-12.0-2.0,"""event"",""trial"",""time""
""fullscreenenter"",""1"",""2449""
""fullscreenexit"",""2"",""7461""
""blur"",""2"",""13997""
""focus"",""4"",""37084""
""blur"",""14"",""114342""
""focus"",""16"",""152264""
""blur"",""18"",""165486""
""focus"",""19"",""170420""
","""event"",""trial"",""time""
""blur"",""2"",""13997""
""blur"",""14"",""114342""
""blur"",""18"",""165486""
","""event"",""trial"",""time""
""focus"",""4"",""37084""
""focus"",""16"",""152264""
""focus"",""19"",""170420""
","""event"",""trial"",""time""
""fullscreenenter"",""1"",""2449""
","""event"",""trial"",""time""
""fullscreenexit"",""2"",""7461""
",,1906.8,run_exp/static/images/task_images/land.jpg,65,,,,,,,,,,,2,,,,,,,,,,,,,
dig_prac,34,218669,0.0-13.0-0.0,"""event"",""trial"",""time""
""fullscreenenter"",""1"",""2449""
""fullscreenexit"",""2"",""7461""
""blur"",""2"",""13997""
""focus"",""4"",""37084""
""blur"",""14"",""114342""
""focus"",""16"",""152264""
""blur"",""18"",""165486""
""focus"",""19"",""170420""
","""event"",""trial"",""time""
""blur"",""2"",""13997""
""blur"",""14"",""114342""
""blur"",""18"",""165486""
","""event"",""trial"",""time""
""focus"",""4"",""37084""
""focus"",""16"",""152264""
""focus"",""19"",""170420""
","""event"",""trial"",""time""
""fullscreenenter"",""1"",""2449""
","""event"",""trial"",""time""
""fullscreenexit"",""2"",""7461""
",,,,,,,,,,,,"[{""stimulus"":""run_exp/static/images/task_images/dig.jpg"",""time"":0.2999999523162842},{""stimulus"":""run_exp/static/images/task_images/land.jpg"",""time"":682},{""stimulus"":""run_exp/static/images/task_images/dig.jpg"",""time"":1340.2000000476837}]",[],,,,,,,,,,,,,,,
harvest_prac,35,219680,0.0-13.0-1.0,"""event"",""trial"",""time""
""fullscreenenter"",""1"",""2449""
""fullscreenexit"",""2"",""7461""
""blur"",""2"",""13997""
""focus"",""4"",""37084""
""blur"",""14"",""114342""
""focus"",""16"",""152264""
""blur"",""18"",""165486""
""focus"",""19"",""170420""
","""event"",""trial"",""time""
""blur"",""2"",""13997""
""blur"",""14"",""114342""
""blur"",""18"",""165486""
","""event"",""trial"",""time""
""focus"",""4"",""37084""
""focus"",""16"",""152264""
""focus"",""19"",""170420""
","""event"",""trial"",""time""
""fullscreenenter"",""1"",""2449""
","""event"",""trial"",""time""
""fullscreenexit"",""2"",""7461""
",,null,run_exp/static/images/task_images/barrel_text.jpg,null,,,,,,,,,,,,,,,,,,,,,,,,
decision_prac,36,220652,0.0-13.0-2.0,"""event"",""trial"",""time""
""fullscreenenter"",""1"",""2449""
""fullscreenexit"",""2"",""7461""
""blur"",""2"",""13997""
""focus"",""4"",""37084""
""blur"",""14"",""114342""
""focus"",""16"",""152264""
""blur"",""18"",""165486""
""focus"",""19"",""170420""
","""event"",""trial"",""time""
""blur"",""2"",""13997""
""blur"",""14"",""114342""
""blur"",""18"",""165486""
","""event"",""trial"",""time""
""focus"",""4"",""37084""
""focus"",""16"",""152264""
""focus"",""19"",""170420""
","""event"",""trial"",""time""
""fullscreenenter"",""1"",""2449""
","""event"",""trial"",""time""
""fullscreenexit"",""2"",""7461""
",,968.9000001,run_exp/static/images/task_images/land.jpg,65,,,,,,,,,,,3,,,,,,,,,,,,,
dig_prac,37,222670,0.0-14.0-0.0,"""event"",""trial"",""time""
""fullscreenenter"",""1"",""2449""
""fullscreenexit"",""2"",""7461""
""blur"",""2"",""13997""
""focus"",""4"",""37084""
""blur"",""14"",""114342""
""focus"",""16"",""152264""
""blur"",""18"",""165486""
""focus"",""19"",""170420""
","""event"",""trial"",""time""
""blur"",""2"",""13997""
""blur"",""14"",""114342""
""blur"",""18"",""165486""
","""event"",""trial"",""time""
""focus"",""4"",""37084""
""focus"",""16"",""152264""
""focus"",""19"",""170420""
","""event"",""trial"",""time""
""fullscreenenter"",""1"",""2449""
","""event"",""trial"",""time""
""fullscreenexit"",""2"",""7461""
",,,,,,,,,,,,"[{""stimulus"":""run_exp/static/images/task_images/dig.jpg"",""time"":0.5},{""stimulus"":""run_exp/static/images/task_images/land.jpg"",""time"":684.6999998092651},{""stimulus"":""run_exp/static/images/task_images/dig.jpg"",""time"":1345.2999999523163}]",[],,,,,,,,,,,,,,,
harvest_prac,38,223696,0.0-14.0-1.0,"""event"",""trial"",""time""
""fullscreenenter"",""1"",""2449""
""fullscreenexit"",""2"",""7461""
""blur"",""2"",""13997""
""focus"",""4"",""37084""
""blur"",""14"",""114342""
""focus"",""16"",""152264""
""blur"",""18"",""165486""
""focus"",""19"",""170420""
","""event"",""trial"",""time""
""blur"",""2"",""13997""
""blur"",""14"",""114342""
""blur"",""18"",""165486""
","""event"",""trial"",""time""
""focus"",""4"",""37084""
""focus"",""16"",""152264""
""focus"",""19"",""170420""
","""event"",""trial"",""time""
""fullscreenenter"",""1"",""2449""
","""event"",""trial"",""time""
""fullscreenexit"",""2"",""7461""
",,null,run_exp/static/images/task_images/barrel_text.jpg,null,,,,,,,,,,,,,,,,,,,,,,,,
decision_prac,39,224606,0.0-14.0-2.0,"""event"",""trial"",""time""
""fullscreenenter"",""1"",""2449""
""fullscreenexit"",""2"",""7461""
""blur"",""2"",""13997""
""focus"",""4"",""37084""
""blur"",""14"",""114342""
""focus"",""16"",""152264""
""blur"",""18"",""165486""
""focus"",""19"",""170420""
","""event"",""trial"",""time""
""blur"",""2"",""13997""
""blur"",""14"",""114342""
""blur"",""18"",""165486""
","""event"",""trial"",""time""
""focus"",""4"",""37084""
""focus"",""16"",""152264""
""focus"",""19"",""170420""
","""event"",""trial"",""time""
""fullscreenenter"",""1"",""2449""
","""event"",""trial"",""time""
""fullscreenexit"",""2"",""7461""
",,908.3999999,run_exp/static/images/task_images/land.jpg,76,,,,,,,,,,,4,,,,,,,,,,,,,
travel,40,233718,0.0-15.0-0.0,"""event"",""trial"",""time""
""fullscreenenter"",""1"",""2449""
""fullscreenexit"",""2"",""7461""
""blur"",""2"",""13997""
""focus"",""4"",""37084""
""blur"",""14"",""114342""
""focus"",""16"",""152264""
""blur"",""18"",""165486""
""focus"",""19"",""170420""
","""event"",""trial"",""time""
""blur"",""2"",""13997""
""blur"",""14"",""114342""
""blur"",""18"",""165486""
","""event"",""trial"",""time""
""focus"",""4"",""37084""
""focus"",""16"",""152264""
""focus"",""19"",""170420""
","""event"",""trial"",""time""
""fullscreenenter"",""1"",""2449""
","""event"",""trial"",""time""
""fullscreenexit"",""2"",""7461""
",,,,,,,,,,,,"[{""stimulus"":""run_exp/static/images/task_images/rocket-01.jpg"",""time"":0.5},{""stimulus"":""run_exp/static/images/task_images/rocket-02.jpg"",""time"":1013.2999999523163},{""stimulus"":""run_exp/static/images/task_images/rocket-03.jpg"",""time"":2031.3999998569489},{""stimulus"":""run_exp/static/images/task_images/rocket-04.jpg"",""time"":3049.0999999046326},{""stimulus"":""run_exp/static/images/task_images/rocket-05.jpg"",""time"":4049.899999856949},{""stimulus"":""run_exp/static/images/task_images/rocket-06.jpg"",""time"":5064.5},{""stimulus"":""run_exp/static/images/task_images/rocket-07.jpg"",""time"":6069.5},{""stimulus"":""run_exp/static/images/task_images/rocket-08.jpg"",""time"":7080.699999809265},{""stimulus"":""run_exp/static/images/task_images/rocket-09.jpg"",""time"":8098}]",[],0,,,,,,,,,,,,,,
alien_welcome_prac,41,238726,0.0-15.0-1.0,"""event"",""trial"",""time""
""fullscreenenter"",""1"",""2449""
""fullscreenexit"",""2"",""7461""
""blur"",""2"",""13997""
""focus"",""4"",""37084""
""blur"",""14"",""114342""
""focus"",""16"",""152264""
""blur"",""18"",""165486""
""focus"",""19"",""170420""
","""event"",""trial"",""time""
""blur"",""2"",""13997""
""blur"",""14"",""114342""
""blur"",""18"",""165486""
","""event"",""trial"",""time""
""focus"",""4"",""37084""
""focus"",""16"",""152264""
""focus"",""19"",""170420""
","""event"",""trial"",""time""
""fullscreenenter"",""1"",""2449""
","""event"",""trial"",""time""
""fullscreenexit"",""2"",""7461""
",,null,run_exp/static/images/task_images/aliens/practice_aliens/planet/alien_planet-4.jpg,null,,,,,,,,,,,,,,,,,,,,,,,,
land_prac,42,239231,0.0-15.0-2.0,"""event"",""trial"",""time""
""fullscreenenter"",""1"",""2449""
""fullscreenexit"",""2"",""7461""
""blur"",""2"",""13997""
""focus"",""4"",""37084""
""blur"",""14"",""114342""
""focus"",""16"",""152264""
""blur"",""18"",""165486""
""focus"",""19"",""170420""
","""event"",""trial"",""time""
""blur"",""2"",""13997""
""blur"",""14"",""114342""
""blur"",""18"",""165486""
","""event"",""trial"",""time""
""focus"",""4"",""37084""
""focus"",""16"",""152264""
""focus"",""19"",""170420""
","""event"",""trial"",""time""
""fullscreenenter"",""1"",""2449""
","""event"",""trial"",""time""
""fullscreenexit"",""2"",""7461""
",,null,run_exp/static/images/task_images/land.jpg,null,,,,,,,102,,,0,,,,,,,,,,,,,,
dig_prac,43,241239,0.0-15.0-3.0,"""event"",""trial"",""time""
""fullscreenenter"",""1"",""2449""
""fullscreenexit"",""2"",""7461""
""blur"",""2"",""13997""
""focus"",""4"",""37084""
""blur"",""14"",""114342""
""focus"",""16"",""152264""
""blur"",""18"",""165486""
""focus"",""19"",""170420""
","""event"",""trial"",""time""
""blur"",""2"",""13997""
""blur"",""14"",""114342""
""blur"",""18"",""165486""
","""event"",""trial"",""time""
""focus"",""4"",""37084""
""focus"",""16"",""152264""
""focus"",""19"",""170420""
","""event"",""trial"",""time""
""fullscreenenter"",""1"",""2449""
","""event"",""trial"",""time""
""fullscreenexit"",""2"",""7461""
",,,,,,,,,,,,"[{""stimulus"":""run_exp/static/images/task_images/dig.jpg"",""time"":0.7000000476837158},{""stimulus"":""run_exp/static/images/task_images/land.jpg"",""time"":682.8000001907349},{""stimulus"":""run_exp/static/images/task_images/dig.jpg"",""time"":1341.9000000953674}]",[],,,,,,,,,,,,,,,
harvest_prac,44,242243,0.0-15.0-4.0,"""event"",""trial"",""time""
""fullscreenenter"",""1"",""2449""
""fullscreenexit"",""2"",""7461""
""blur"",""2"",""13997""
""focus"",""4"",""37084""
""blur"",""14"",""114342""
""focus"",""16"",""152264""
""blur"",""18"",""165486""
""focus"",""19"",""170420""
","""event"",""trial"",""time""
""blur"",""2"",""13997""
""blur"",""14"",""114342""
""blur"",""18"",""165486""
","""event"",""trial"",""time""
""focus"",""4"",""37084""
""focus"",""16"",""152264""
""focus"",""19"",""170420""
","""event"",""trial"",""time""
""fullscreenenter"",""1"",""2449""
","""event"",""trial"",""time""
""fullscreenexit"",""2"",""7461""
",,null,run_exp/static/images/task_images/barrel_text.jpg,null,,,,,,,,,,,,,,,,,,,,,,,,
decision_prac,45,242391,0.0-15.0-5.0,"""event"",""trial"",""time""
""fullscreenenter"",""1"",""2449""
""fullscreenexit"",""2"",""7461""
""blur"",""2"",""13997""
""focus"",""4"",""37084""
""blur"",""14"",""114342""
""focus"",""16"",""152264""
""blur"",""18"",""165486""
""focus"",""19"",""170420""
","""event"",""trial"",""time""
""blur"",""2"",""13997""
""blur"",""14"",""114342""
""blur"",""18"",""165486""
","""event"",""trial"",""time""
""focus"",""4"",""37084""
""focus"",""16"",""152264""
""focus"",""19"",""170420""
","""event"",""trial"",""time""
""fullscreenenter"",""1"",""2449""
","""event"",""trial"",""time""
""fullscreenexit"",""2"",""7461""
",,145.9000001,run_exp/static/images/task_images/land.jpg,65,,,,,,,,,,,,1,,,,,,,,,,,,
quiz_instruc,46,245909,0.0-16.0-0.0,"""event"",""trial"",""time""
""fullscreenenter"",""1"",""2449""
""fullscreenexit"",""2"",""7461""
""blur"",""2"",""13997""
""focus"",""4"",""37084""
""blur"",""14"",""114342""
""focus"",""16"",""152264""
""blur"",""18"",""165486""
""focus"",""19"",""170420""
","""event"",""trial"",""time""
""blur"",""2"",""13997""
""blur"",""14"",""114342""
""blur"",""18"",""165486""
","""event"",""trial"",""time""
""focus"",""4"",""37084""
""focus"",""16"",""152264""
""focus"",""19"",""170420""
","""event"",""trial"",""time""
""fullscreenenter"",""1"",""2449""
","""event"",""trial"",""time""
""fullscreenexit"",""2"",""7461""
",,3513.7,run_exp/static/audio/clip_10_quiz.m4a,,,,,,,0,,,,,,,,,,,,,,,,,,
instruc_repeat,47,288672,0.0-16.0-1.0,"""event"",""trial"",""time""
""fullscreenenter"",""1"",""2449""
""fullscreenexit"",""2"",""7461""
""blur"",""2"",""13997""
""focus"",""4"",""37084""
""blur"",""14"",""114342""
""focus"",""16"",""152264""
""blur"",""18"",""165486""
""focus"",""19"",""170420""
","""event"",""trial"",""time""
""blur"",""2"",""13997""
""blur"",""14"",""114342""
""blur"",""18"",""165486""
","""event"",""trial"",""time""
""focus"",""4"",""37084""
""focus"",""16"",""152264""
""focus"",""19"",""170420""
","""event"",""trial"",""time""
""fullscreenenter"",""1"",""2449""
","""event"",""trial"",""time""
""fullscreenexit"",""2"",""7461""
",,null,"<p> Are you ready to play a practice game? </p> <p>In this practice game, you'll be digging up barrels of gems. But, in the real game, you'll be digging up the gems themselves. </p>",null,"<p>In this game, your goal is to collect as many gems as you can. That’s how you will win bonus money. </p> <p>The entire game will last 20 minutes no matter how many gems you collect or how many planets you visit. </p><p>To stay on a planet and dig again, press the letter A on your keyboard. To leave for a new planet, press the letter L.</p><p>The more you dig on a planet, the fewer gems you’ll get with each dig which is why you might consider leaving for a new planet. </p><p>When you arrive at a new planet, you’ll be greeted by an alien. What the alien looks like does not tell you anything about how much treasure is on the planet. </p>",,,,,,,,,,,,,,,,,,,,,,,
instruc_repeat_continue,48,289814,0.0-16.0-2.0,"""event"",""trial"",""time""
""fullscreenenter"",""1"",""2449""
""fullscreenexit"",""2"",""7461""
""blur"",""2"",""13997""
""focus"",""4"",""37084""
""blur"",""14"",""114342""
""focus"",""16"",""152264""
""blur"",""18"",""165486""
""focus"",""19"",""170420""
","""event"",""trial"",""time""
""blur"",""2"",""13997""
""blur"",""14"",""114342""
""blur"",""18"",""165486""
","""event"",""trial"",""time""
""focus"",""4"",""37084""
""focus"",""16"",""152264""
""focus"",""19"",""170420""
","""event"",""trial"",""time""
""fullscreenenter"",""1"",""2449""
","""event"",""trial"",""time""
""fullscreenexit"",""2"",""7461""
",,1138.9,"<p> Are you ready to play a practice game? </p> <p>In this practice game, you'll be digging up barrels of gems. But, in the real game, you'll be digging up the gems themselves. </p>",,,,,,,0,,,,,,,,,,,,,,,,,,
quiz_q_1_ask,49,331462,0.0-16.0-3.0,"""event"",""trial"",""time""
""fullscreenenter"",""1"",""2449""
""fullscreenexit"",""2"",""7461""
""blur"",""2"",""13997""
""focus"",""4"",""37084""
""blur"",""14"",""114342""
""focus"",""16"",""152264""
""blur"",""18"",""165486""
""focus"",""19"",""170420""
","""event"",""trial"",""time""
""blur"",""2"",""13997""
""blur"",""14"",""114342""
""blur"",""18"",""165486""
","""event"",""trial"",""time""
""focus"",""4"",""37084""
""focus"",""16"",""152264""
""focus"",""19"",""170420""
","""event"",""trial"",""time""
""fullscreenenter"",""1"",""2449""
","""event"",""trial"",""time""
""fullscreenexit"",""2"",""7461""
",,41646.2,run_exp/static/audio/clip_11_q1_ask.m4a,,,,,,,2,,,,,,,,,,,,,,,,,,
quiz_q_1_fb_correct,50,335294,0.0-17.0-0.0,"""event"",""trial"",""time""
""fullscreenenter"",""1"",""2449""
""fullscreenexit"",""2"",""7461""
""blur"",""2"",""13997""
""focus"",""4"",""37084""
""blur"",""14"",""114342""
""focus"",""16"",""152264""
""blur"",""18"",""165486""
""focus"",""19"",""170420""
","""event"",""trial"",""time""
""blur"",""2"",""13997""
""blur"",""14"",""114342""
""blur"",""18"",""165486""
","""event"",""trial"",""time""
""focus"",""4"",""37084""
""focus"",""16"",""152264""
""focus"",""19"",""170420""
","""event"",""trial"",""time""
""fullscreenenter"",""1"",""2449""
","""event"",""trial"",""time""
""fullscreenexit"",""2"",""7461""
",,null,run_exp/static/audio/clip_12_q1_correct.m4a,null,<p>That’s correct. You win extra money by collecting more gems.</p>,,,,,,,,,,,,,,,,,,,,,,,
quiz_q_2_ask,51,337742,0.0-17.0-1.0,"""event"",""trial"",""time""
""fullscreenenter"",""1"",""2449""
""fullscreenexit"",""2"",""7461""
""blur"",""2"",""13997""
""focus"",""4"",""37084""
""blur"",""14"",""114342""
""focus"",""16"",""152264""
""blur"",""18"",""165486""
""focus"",""19"",""170420""
","""event"",""trial"",""time""
""blur"",""2"",""13997""
""blur"",""14"",""114342""
""blur"",""18"",""165486""
","""event"",""trial"",""time""
""focus"",""4"",""37084""
""focus"",""16"",""152264""
""focus"",""19"",""170420""
","""event"",""trial"",""time""
""fullscreenenter"",""1"",""2449""
","""event"",""trial"",""time""
""fullscreenexit"",""2"",""7461""
",,2444.9,run_exp/static/audio/clip_14_q2_ask.m4a,,,,,,,1,,,,,,,,,,,,,,,,,,
quiz_q_2_fb_correct,52,341736,0.0-18.0-0.0,"""event"",""trial"",""time""
""fullscreenenter"",""1"",""2449""
""fullscreenexit"",""2"",""7461""
""blur"",""2"",""13997""
""focus"",""4"",""37084""
""blur"",""14"",""114342""
""focus"",""16"",""152264""
""blur"",""18"",""165486""
""focus"",""19"",""170420""
","""event"",""trial"",""time""
""blur"",""2"",""13997""
""blur"",""14"",""114342""
""blur"",""18"",""165486""
","""event"",""trial"",""time""
""focus"",""4"",""37084""
""focus"",""16"",""152264""
""focus"",""19"",""170420""
","""event"",""trial"",""time""
""fullscreenenter"",""1"",""2449""
","""event"",""trial"",""time""
""fullscreenexit"",""2"",""7461""
",,null,run_exp/static/audio/clip_15_q2_correct.m4a,null,<p>That’s correct. The experiment is 20 minutes no matter what.</p>,,,,,,,,,,,,,,,,,,,,,,,
quiz_q_3_ask,53,344643,0.0-18.0-1.0,"""event"",""trial"",""time""
""fullscreenenter"",""1"",""2449""
""fullscreenexit"",""2"",""7461""
""blur"",""2"",""13997""
""focus"",""4"",""37084""
""blur"",""14"",""114342""
""focus"",""16"",""152264""
""blur"",""18"",""165486""
""focus"",""19"",""170420""
","""event"",""trial"",""time""
""blur"",""2"",""13997""
""blur"",""14"",""114342""
""blur"",""18"",""165486""
","""event"",""trial"",""time""
""focus"",""4"",""37084""
""focus"",""16"",""152264""
""focus"",""19"",""170420""
","""event"",""trial"",""time""
""fullscreenenter"",""1"",""2449""
","""event"",""trial"",""time""
""fullscreenexit"",""2"",""7461""
",,2903.2,run_exp/static/audio/clip_17_q3_ask.m4a,,,,,,,1,,,,,,,,,,,,,,,,,,
quiz_q_3_fb_correct,54,348622,0.0-19.0-0.0,"""event"",""trial"",""time""
""fullscreenenter"",""1"",""2449""
""fullscreenexit"",""2"",""7461""
""blur"",""2"",""13997""
""focus"",""4"",""37084""
""blur"",""14"",""114342""
""focus"",""16"",""152264""
""blur"",""18"",""165486""
""focus"",""19"",""170420""
","""event"",""trial"",""time""
""blur"",""2"",""13997""
""blur"",""14"",""114342""
""blur"",""18"",""165486""
","""event"",""trial"",""time""
""focus"",""4"",""37084""
""focus"",""16"",""152264""
""focus"",""19"",""170420""
","""event"",""trial"",""time""
""fullscreenenter"",""1"",""2449""
","""event"",""trial"",""time""
""fullscreenexit"",""2"",""7461""
",,null,run_exp/static/audio/clip_18_q3_correct.m4a,null,<p> That’s correct. You press the letter L to travel to a new planet.</p>,,,,,,,,,,,,,,,,,,,,,,,
quiz_q_4_ask,55,352489,0.0-19.0-1.0,"""event"",""trial"",""time""
""fullscreenenter"",""1"",""2449""
""fullscreenexit"",""2"",""7461""
""blur"",""2"",""13997""
""focus"",""4"",""37084""
""blur"",""14"",""114342""
""focus"",""16"",""152264""
""blur"",""18"",""165486""
""focus"",""19"",""170420""
","""event"",""trial"",""time""
""blur"",""2"",""13997""
""blur"",""14"",""114342""
""blur"",""18"",""165486""
","""event"",""trial"",""time""
""focus"",""4"",""37084""
""focus"",""16"",""152264""
""focus"",""19"",""170420""
","""event"",""trial"",""time""
""fullscreenenter"",""1"",""2449""
","""event"",""trial"",""time""
""fullscreenexit"",""2"",""7461""
",,3864.1,run_exp/static/audio/clip_20_q4_ask.m4a,,,,,,,0,,,,,,,,,,,,,,,,,,
quiz_q_4_fb_correct,56,357814,0.0-20.0-0.0,"""event"",""trial"",""time""
""fullscreenenter"",""1"",""2449""
""fullscreenexit"",""2"",""7461""
""blur"",""2"",""13997""
""focus"",""4"",""37084""
""blur"",""14"",""114342""
""focus"",""16"",""152264""
""blur"",""18"",""165486""
""focus"",""19"",""170420""
","""event"",""trial"",""time""
""blur"",""2"",""13997""
""blur"",""14"",""114342""
""blur"",""18"",""165486""
","""event"",""trial"",""time""
""focus"",""4"",""37084""
""focus"",""16"",""152264""
""focus"",""19"",""170420""
","""event"",""trial"",""time""
""fullscreenenter"",""1"",""2449""
","""event"",""trial"",""time""
""fullscreenexit"",""2"",""7461""
",,null,run_exp/static/audio/clip_21_q4_correct.m4a,null,<p> That’s correct. The more you dig on a planet the fewer gems you’ll get with each dig. </p>,,,,,,,,,,,,,,,,,,,,,,,
quiz_q_5_ask,57,360393,0.0-20.0-1.0,"""event"",""trial"",""time""
""fullscreenenter"",""1"",""2449""
""fullscreenexit"",""2"",""7461""
""blur"",""2"",""13997""
""focus"",""4"",""37084""
""blur"",""14"",""114342""
""focus"",""16"",""152264""
""blur"",""18"",""165486""
""focus"",""19"",""170420""
","""event"",""trial"",""time""
""blur"",""2"",""13997""
""blur"",""14"",""114342""
""blur"",""18"",""165486""
","""event"",""trial"",""time""
""focus"",""4"",""37084""
""focus"",""16"",""152264""
""focus"",""19"",""170420""
","""event"",""trial"",""time""
""fullscreenenter"",""1"",""2449""
","""event"",""trial"",""time""
""fullscreenexit"",""2"",""7461""
",,2574,run_exp/static/audio/clip_23_q5_ask.m4a,,,,,,,1,,,,,,,,,,,,,,,,,,
quiz_q_5_fb_correct,58,365385,0.0-21.0-0.0,"""event"",""trial"",""time""
""fullscreenenter"",""1"",""2449""
""fullscreenexit"",""2"",""7461""
""blur"",""2"",""13997""
""focus"",""4"",""37084""
""blur"",""14"",""114342""
""focus"",""16"",""152264""
""blur"",""18"",""165486""
""focus"",""19"",""170420""
","""event"",""trial"",""time""
""blur"",""2"",""13997""
""blur"",""14"",""114342""
""blur"",""18"",""165486""
","""event"",""trial"",""time""
""focus"",""4"",""37084""
""focus"",""16"",""152264""
""focus"",""19"",""170420""
","""event"",""trial"",""time""
""fullscreenenter"",""1"",""2449""
","""event"",""trial"",""time""
""fullscreenexit"",""2"",""7461""
",,null,run_exp/static/audio/clip_24_q5_correct.m4a,null,<p> That’s correct. The alien tells you nothing about how much treasure is on the planet.</p>,,,,,,,,,,,,,,,,,,,,,,,
quiz_correct,59,368858,0.0-22.0-0.0,"""event"",""trial"",""time""
""fullscreenenter"",""1"",""2449""
""fullscreenexit"",""2"",""7461""
""blur"",""2"",""13997""
""focus"",""4"",""37084""
""blur"",""14"",""114342""
""focus"",""16"",""152264""
""blur"",""18"",""165486""
""focus"",""19"",""170420""
","""event"",""trial"",""time""
""blur"",""2"",""13997""
""blur"",""14"",""114342""
""blur"",""18"",""165486""
","""event"",""trial"",""time""
""focus"",""4"",""37084""
""focus"",""16"",""152264""
""focus"",""19"",""170420""
","""event"",""trial"",""time""
""fullscreenenter"",""1"",""2449""
","""event"",""trial"",""time""
""fullscreenexit"",""2"",""7461""
",,null,run_exp/static/audio/clip_26_correct_quiz.m4a,null,,,,,,,,,,,,,,,,,,,,,,,,
quiz_correct_continue,60,369780,0.0-22.0-1.0,"""event"",""trial"",""time""
""fullscreenenter"",""1"",""2449""
""fullscreenexit"",""2"",""7461""
""blur"",""2"",""13997""
""focus"",""4"",""37084""
""blur"",""14"",""114342""
""focus"",""16"",""152264""
""blur"",""18"",""165486""
""focus"",""19"",""170420""
","""event"",""trial"",""time""
""blur"",""2"",""13997""
""blur"",""14"",""114342""
""blur"",""18"",""165486""
","""event"",""trial"",""time""
""focus"",""4"",""37084""
""focus"",""16"",""152264""
""focus"",""19"",""170420""
","""event"",""trial"",""time""
""fullscreenenter"",""1"",""2449""
","""event"",""trial"",""time""
""fullscreenexit"",""2"",""7461""
",,919.3,<p>Good job! You're now ready to move on to the real game!</p>,,,,,,,0,,,,,,,,,,,,,,,,,,
audio-keyboard-response,61,379891,0.0-22.0-2.0,"""event"",""trial"",""time""
""fullscreenenter"",""1"",""2449""
""fullscreenexit"",""2"",""7461""
""blur"",""2"",""13997""
""focus"",""4"",""37084""
""blur"",""14"",""114342""
""focus"",""16"",""152264""
""blur"",""18"",""165486""
""focus"",""19"",""170420""
","""event"",""trial"",""time""
""blur"",""2"",""13997""
""blur"",""14"",""114342""
""blur"",""18"",""165486""
","""event"",""trial"",""time""
""focus"",""4"",""37084""
""focus"",""16"",""152264""
""focus"",""19"",""170420""
","""event"",""trial"",""time""
""fullscreenenter"",""1"",""2449""
","""event"",""trial"",""time""
""fullscreenexit"",""2"",""7461""
",,null,run_exp/static/audio/clip_28_real_game.m4a,null,,,,,,,,,,,,,,,,,,,,,,,,
instruc_begin_exp_contine,62,381105,0.0-22.0-3.0,"""event"",""trial"",""time""
""fullscreenenter"",""1"",""2449""
""fullscreenexit"",""2"",""7461""
""blur"",""2"",""13997""
""focus"",""4"",""37084""
""blur"",""14"",""114342""
""focus"",""16"",""152264""
""blur"",""18"",""165486""
""focus"",""19"",""170420""
","""event"",""trial"",""time""
""blur"",""2"",""13997""
""blur"",""14"",""114342""
""blur"",""18"",""165486""
","""event"",""trial"",""time""
""focus"",""4"",""37084""
""focus"",""16"",""152264""
""focus"",""19"",""170420""
","""event"",""trial"",""time""
""fullscreenenter"",""1"",""2449""
","""event"",""trial"",""time""
""fullscreenexit"",""2"",""7461""
",,1210,"<p>Now that you know how  to dig for space treasure and travel to new planets,you can start exploring! </p><p>Do you want to go over the instructions again or get started with the real game?</p>",,,,,,,1,,,,,,1,,,,,,,,,,,,
alien_welcome,63,386136,0.0-23.0-0.0,"""event"",""trial"",""time""
""fullscreenenter"",""1"",""2449""
""fullscreenexit"",""2"",""7461""
""blur"",""2"",""13997""
""focus"",""4"",""37084""
""blur"",""14"",""114342""
""focus"",""16"",""152264""
""blur"",""18"",""165486""
""focus"",""19"",""170420""
","""event"",""trial"",""time""
""blur"",""2"",""13997""
""blur"",""14"",""114342""
""blur"",""18"",""165486""
","""event"",""trial"",""time""
""focus"",""4"",""37084""
""focus"",""16"",""152264""
""focus"",""19"",""170420""
","""event"",""trial"",""time""
""fullscreenenter"",""1"",""2449""
","""event"",""trial"",""time""
""fullscreenexit"",""2"",""7461""
",,null,run_exp/static/images/task_images/aliens/old_aliens/planet/alien_planet-32.jpg,null,,,,,,,,,,,,,32,"32,72,24,62,27,36,10,69,52,70,63,66,42,65,61,11,39,16,29,73,23,54,20,59,74,3,50,55,22,6,9,15,21,80,45,28,79,60,76,13,30,26,5,47,4,33,44,46,1,77,58",,,,,,,,,,
land,64,386654,0.0-23.0-1.0,"""event"",""trial"",""time""
""fullscreenenter"",""1"",""2449""
""fullscreenexit"",""2"",""7461""
""blur"",""2"",""13997""
""focus"",""4"",""37084""
""blur"",""14"",""114342""
""focus"",""16"",""152264""
""blur"",""18"",""165486""
""focus"",""19"",""170420""
","""event"",""trial"",""time""
""blur"",""2"",""13997""
""blur"",""14"",""114342""
""blur"",""18"",""165486""
","""event"",""trial"",""time""
""focus"",""4"",""37084""
""focus"",""16"",""152264""
""focus"",""19"",""170420""
","""event"",""trial"",""time""
""fullscreenenter"",""1"",""2449""
","""event"",""trial"",""time""
""fullscreenexit"",""2"",""7461""
",,null,run_exp/static/images/task_images/land.jpg,null,,,,,,,99,,,1,,,,,,,,,,,,,,
dig,65,388683,0.0-23.0-2.0,"""event"",""trial"",""time""
""fullscreenenter"",""1"",""2449""
""fullscreenexit"",""2"",""7461""
""blur"",""2"",""13997""
""focus"",""4"",""37084""
""blur"",""14"",""114342""
""focus"",""16"",""152264""
""blur"",""18"",""165486""
""focus"",""19"",""170420""
","""event"",""trial"",""time""
""blur"",""2"",""13997""
""blur"",""14"",""114342""
""blur"",""18"",""165486""
","""event"",""trial"",""time""
""focus"",""4"",""37084""
""focus"",""16"",""152264""
""focus"",""19"",""170420""
","""event"",""trial"",""time""
""fullscreenenter"",""1"",""2449""
","""event"",""trial"",""time""
""fullscreenexit"",""2"",""7461""
",,,,,,,,,,,,"[{""stimulus"":""run_exp/static/images/task_images/dig.jpg"",""time"":1},{""stimulus"":""run_exp/static/images/task_images/land.jpg"",""time"":686.2000000476837},{""stimulus"":""run_exp/static/images/task_images/dig.jpg"",""time"":1344.9000000953674}]",[],1,,,,,,,,,,,,,,
harvest,66,389695,0.0-23.0-3.0,"""event"",""trial"",""time""
""fullscreenenter"",""1"",""2449""
""fullscreenexit"",""2"",""7461""
""blur"",""2"",""13997""
""focus"",""4"",""37084""
""blur"",""14"",""114342""
""focus"",""16"",""152264""
""blur"",""18"",""165486""
""focus"",""19"",""170420""
","""event"",""trial"",""time""
""blur"",""2"",""13997""
""blur"",""14"",""114342""
""blur"",""18"",""165486""
","""event"",""trial"",""time""
""focus"",""4"",""37084""
""focus"",""16"",""152264""
""focus"",""19"",""170420""
","""event"",""trial"",""time""
""fullscreenenter"",""1"",""2449""
","""event"",""trial"",""time""
""fullscreenexit"",""2"",""7461""
",,null,run_exp/static/images/task_images/gems/99.jpg,null,,,,,,,13,,,1,,,,,99,0.129797201,0.131313131,,,,,,,
decision,67,391116,0.0-23.0-4.0,"""event"",""trial"",""time""
""fullscreenenter"",""1"",""2449""
""fullscreenexit"",""2"",""7461""
""blur"",""2"",""13997""
""focus"",""4"",""37084""
""blur"",""14"",""114342""
""focus"",""16"",""152264""
""blur"",""18"",""165486""
""focus"",""19"",""170420""
","""event"",""trial"",""time""
""blur"",""2"",""13997""
""blur"",""14"",""114342""
""blur"",""18"",""165486""
","""event"",""trial"",""time""
""focus"",""4"",""37084""
""focus"",""16"",""152264""
""focus"",""19"",""170420""
","""event"",""trial"",""time""
""fullscreenenter"",""1"",""2449""
","""event"",""trial"",""time""
""fullscreenexit"",""2"",""7461""
",,1415.3,run_exp/static/images/task_images/land.jpg,65,,,,,,,13,,,1,,,,,,,,10010,1,0,FALSE,,,
dig,68,392742,0.0-24.0-0.0,"""event"",""trial"",""time""
""fullscreenenter"",""1"",""2449""
""fullscreenexit"",""2"",""7461""
""blur"",""2"",""13997""
""focus"",""4"",""37084""
""blur"",""14"",""114342""
""focus"",""16"",""152264""
""blur"",""18"",""165486""
""focus"",""19"",""170420""
","""event"",""trial"",""time""
""blur"",""2"",""13997""
""blur"",""14"",""114342""
""blur"",""18"",""165486""
","""event"",""trial"",""time""
""focus"",""4"",""37084""
""focus"",""16"",""152264""
""focus"",""19"",""170420""
","""event"",""trial"",""time""
""fullscreenenter"",""1"",""2449""
","""event"",""trial"",""time""
""fullscreenexit"",""2"",""7461""
",,,,,,,,,,,,"[{""stimulus"":""run_exp/static/images/task_images/dig.jpg"",""time"":1},{""stimulus"":""run_exp/static/images/task_images/land.jpg"",""time"":552.5},{""stimulus"":""run_exp/static/images/task_images/dig.jpg"",""time"":1068}]",[],1,,,,,,,,,,,,,,
harvest,69,393768,0.0-24.0-1.0,"""event"",""trial"",""time""
""fullscreenenter"",""1"",""2449""
""fullscreenexit"",""2"",""7461""
""blur"",""2"",""13997""
""focus"",""4"",""37084""
""blur"",""14"",""114342""
""focus"",""16"",""152264""
""blur"",""18"",""165486""
""focus"",""19"",""170420""
","""event"",""trial"",""time""
""blur"",""2"",""13997""
""blur"",""14"",""114342""
""blur"",""18"",""165486""
","""event"",""trial"",""time""
""focus"",""4"",""37084""
""focus"",""16"",""152264""
""focus"",""19"",""170420""
","""event"",""trial"",""time""
""fullscreenenter"",""1"",""2449""
","""event"",""trial"",""time""
""fullscreenexit"",""2"",""7461""
",,null,run_exp/static/images/task_images/gems/13.jpg,null,,,,,,,2,,,1,,,,,13,0.16559582,0.153846154,,,,,,,
decision,70,394808,0.0-24.0-2.0,"""event"",""trial"",""time""
""fullscreenenter"",""1"",""2449""
""fullscreenexit"",""2"",""7461""
""blur"",""2"",""13997""
""focus"",""4"",""37084""
""blur"",""14"",""114342""
""focus"",""16"",""152264""
""blur"",""18"",""165486""
""focus"",""19"",""170420""
","""event"",""trial"",""time""
""blur"",""2"",""13997""
""blur"",""14"",""114342""
""blur"",""18"",""165486""
","""event"",""trial"",""time""
""focus"",""4"",""37084""
""focus"",""16"",""152264""
""focus"",""19"",""170420""
","""event"",""trial"",""time""
""fullscreenenter"",""1"",""2449""
","""event"",""trial"",""time""
""fullscreenexit"",""2"",""7461""
",,1033.7,run_exp/static/images/task_images/land.jpg,76,,,,,,,2,,,1,,,,,,,,13701,1,1,TRUE,,,
travel,71,403802,0.0-25.0-0.0,"""event"",""trial"",""time""
""fullscreenenter"",""1"",""2449""
""fullscreenexit"",""2"",""7461""
""blur"",""2"",""13997""
""focus"",""4"",""37084""
""blur"",""14"",""114342""
""focus"",""16"",""152264""
""blur"",""18"",""165486""
""focus"",""19"",""170420""
","""event"",""trial"",""time""
""blur"",""2"",""13997""
""blur"",""14"",""114342""
""blur"",""18"",""165486""
","""event"",""trial"",""time""
""focus"",""4"",""37084""
""focus"",""16"",""152264""
""focus"",""19"",""170420""
","""event"",""trial"",""time""
""fullscreenenter"",""1"",""2449""
","""event"",""trial"",""time""
""fullscreenexit"",""2"",""7461""
",,,,,,,,,,,,"[{""stimulus"":""run_exp/static/images/task_images/rocket-01.jpg"",""time"":0.7999999523162842},{""stimulus"":""run_exp/static/images/task_images/rocket-02.jpg"",""time"":1014.6000001430511},{""stimulus"":""run_exp/static/images/task_images/rocket-03.jpg"",""time"":2013.6000001430511},{""stimulus"":""run_exp/static/images/task_images/rocket-04.jpg"",""time"":2997.100000143051},{""stimulus"":""run_exp/static/images/task_images/rocket-05.jpg"",""time"":3998},{""stimulus"":""run_exp/static/images/task_images/rocket-06.jpg"",""time"":4996.100000143051},{""stimulus"":""run_exp/static/images/task_images/rocket-07.jpg"",""time"":5998.200000047684},{""stimulus"":""run_exp/static/images/task_images/rocket-08.jpg"",""time"":6982},{""stimulus"":""run_exp/static/images/task_images/rocket-09.jpg"",""time"":7980.100000143051}]",[],1,,,,,,,,,,,,,,
alien_welcome,72,408809,0.0-25.0-1.0,"""event"",""trial"",""time""
""fullscreenenter"",""1"",""2449""
""fullscreenexit"",""2"",""7461""
""blur"",""2"",""13997""
""focus"",""4"",""37084""
""blur"",""14"",""114342""
""focus"",""16"",""152264""
""blur"",""18"",""165486""
""focus"",""19"",""170420""
","""event"",""trial"",""time""
""blur"",""2"",""13997""
""blur"",""14"",""114342""
""blur"",""18"",""165486""
","""event"",""trial"",""time""
""focus"",""4"",""37084""
""focus"",""16"",""152264""
""focus"",""19"",""170420""
","""event"",""trial"",""time""
""fullscreenenter"",""1"",""2449""
","""event"",""trial"",""time""
""fullscreenexit"",""2"",""7461""
",,null,run_exp/static/images/task_images/aliens/old_aliens/planet/alien_planet-72.jpg,null,,,,,,,,,,,,,72,"32,72,24,62,27,36,10,69,52,70,63,66,42,65,61,11,39,16,29,73,23,54,20,59,74,3,50,55,22,6,9,15,21,80,45,28,79,60,76,13,30,26,5,47,4,33,44,46,1,77,58",,,,,,,,,,
land,73,409320,0.0-25.0-2.0,"""event"",""trial"",""time""
""fullscreenenter"",""1"",""2449""
""fullscreenexit"",""2"",""7461""
""blur"",""2"",""13997""
""focus"",""4"",""37084""
""blur"",""14"",""114342""
""focus"",""16"",""152264""
""blur"",""18"",""165486""
""focus"",""19"",""170420""
","""event"",""trial"",""time""
""blur"",""2"",""13997""
""blur"",""14"",""114342""
""blur"",""18"",""165486""
","""event"",""trial"",""time""
""focus"",""4"",""37084""
""focus"",""16"",""152264""
""focus"",""19"",""170420""
","""event"",""trial"",""time""
""fullscreenenter"",""1"",""2449""
","""event"",""trial"",""time""
""fullscreenexit"",""2"",""7461""
",,null,run_exp/static/images/task_images/land.jpg,null,,,,,,,101,,,2,,,,,,,,,,,,,,
dig,74,411339,0.0-25.0-3.0,"""event"",""trial"",""time""
""fullscreenenter"",""1"",""2449""
""fullscreenexit"",""2"",""7461""
""blur"",""2"",""13997""
""focus"",""4"",""37084""
""blur"",""14"",""114342""
""focus"",""16"",""152264""
""blur"",""18"",""165486""
""focus"",""19"",""170420""
","""event"",""trial"",""time""
""blur"",""2"",""13997""
""blur"",""14"",""114342""
""blur"",""18"",""165486""
","""event"",""trial"",""time""
""focus"",""4"",""37084""
""focus"",""16"",""152264""
""focus"",""19"",""170420""
","""event"",""trial"",""time""
""fullscreenenter"",""1"",""2449""
","""event"",""trial"",""time""
""fullscreenexit"",""2"",""7461""
",,,,,,,,,,,,"[{""stimulus"":""run_exp/static/images/task_images/dig.jpg"",""time"":0.7999999523162842},{""stimulus"":""run_exp/static/images/task_images/land.jpg"",""time"":693.6999998092651},{""stimulus"":""run_exp/static/images/task_images/dig.jpg"",""time"":1347.0999999046326}]",[],2,,,,,,,,,,,,,,
harvest,75,412359,0.0-25.0-4.0,"""event"",""trial"",""time""
""fullscreenenter"",""1"",""2449""
""fullscreenexit"",""2"",""7461""
""blur"",""2"",""13997""
""focus"",""4"",""37084""
""blur"",""14"",""114342""
""focus"",""16"",""152264""
""blur"",""18"",""165486""
""focus"",""19"",""170420""
","""event"",""trial"",""time""
""blur"",""2"",""13997""
""blur"",""14"",""114342""
""blur"",""18"",""165486""
","""event"",""trial"",""time""
""focus"",""4"",""37084""
""focus"",""16"",""152264""
""focus"",""19"",""170420""
","""event"",""trial"",""time""
""fullscreenenter"",""1"",""2449""
","""event"",""trial"",""time""
""fullscreenexit"",""2"",""7461""
",,null,run_exp/static/images/task_images/gems/101.jpg,null,,,,,,,14,,,2,,,,,101,0.143422693,0.138613861,,,,,,,
decision,76,412686,0.0-25.0-5.0,"""event"",""trial"",""time""
""fullscreenenter"",""1"",""2449""
""fullscreenexit"",""2"",""7461""
""blur"",""2"",""13997""
""focus"",""4"",""37084""
""blur"",""14"",""114342""
""focus"",""16"",""152264""
""blur"",""18"",""165486""
""focus"",""19"",""170420""
","""event"",""trial"",""time""
""blur"",""2"",""13997""
""blur"",""14"",""114342""
""blur"",""18"",""165486""
","""event"",""trial"",""time""
""focus"",""4"",""37084""
""focus"",""16"",""152264""
""focus"",""19"",""170420""
","""event"",""trial"",""time""
""fullscreenenter"",""1"",""2449""
","""event"",""trial"",""time""
""fullscreenexit"",""2"",""7461""
",,323.2,run_exp/static/images/task_images/land.jpg,65,,,,,,,14,,,2,,,,,,,,31579,1,0,FALSE,,,
dig,77,415392,0.0-26.0-0.0,"""event"",""trial"",""time""
""fullscreenenter"",""1"",""2449""
""fullscreenexit"",""2"",""7461""
""blur"",""2"",""13997""
""focus"",""4"",""37084""
""blur"",""14"",""114342""
""focus"",""16"",""152264""
""blur"",""18"",""165486""
""focus"",""19"",""170420""
","""event"",""trial"",""time""
""blur"",""2"",""13997""
""blur"",""14"",""114342""
""blur"",""18"",""165486""
","""event"",""trial"",""time""
""focus"",""4"",""37084""
""focus"",""16"",""152264""
""focus"",""19"",""170420""
","""event"",""trial"",""time""
""fullscreenenter"",""1"",""2449""
","""event"",""trial"",""time""
""fullscreenexit"",""2"",""7461""
",,,,,,,,,,,,"[{""stimulus"":""run_exp/static/images/task_images/dig.jpg"",""time"":0.7999999523162842},{""stimulus"":""run_exp/static/images/task_images/land.jpg"",""time"":908.8999998569489},{""stimulus"":""run_exp/static/images/task_images/dig.jpg"",""time"":1801.3999998569489}]",[],2,,,,,,,,,,,,,,
harvest,78,416404,0.0-26.0-1.0,"""event"",""trial"",""time""
""fullscreenenter"",""1"",""2449""
""fullscreenexit"",""2"",""7461""
""blur"",""2"",""13997""
""focus"",""4"",""37084""
""blur"",""14"",""114342""
""focus"",""16"",""152264""
""blur"",""18"",""165486""
""focus"",""19"",""170420""
","""event"",""trial"",""time""
""blur"",""2"",""13997""
""blur"",""14"",""114342""
""blur"",""18"",""165486""
","""event"",""trial"",""time""
""focus"",""4"",""37084""
""focus"",""16"",""152264""
""focus"",""19"",""170420""
","""event"",""trial"",""time""
""fullscreenenter"",""1"",""2449""
","""event"",""trial"",""time""
""fullscreenexit"",""2"",""7461""
",,null,run_exp/static/images/task_images/gems/14.jpg,null,,,,,,,3,,,2,,,,,14,0.222052064,0.214285714,,,,,,,
decision,79,416960,0.0-26.0-2.0,"""event"",""trial"",""time""
""fullscreenenter"",""1"",""2449""
""fullscreenexit"",""2"",""7461""
""blur"",""2"",""13997""
""focus"",""4"",""37084""
""blur"",""14"",""114342""
""focus"",""16"",""152264""
""blur"",""18"",""165486""
""focus"",""19"",""170420""
""blur"",""80"",""420651""
","""event"",""trial"",""time""
""blur"",""2"",""13997""
""blur"",""14"",""114342""
""blur"",""18"",""165486""
""blur"",""80"",""420651""
","""event"",""trial"",""time""
""focus"",""4"",""37084""
""focus"",""16"",""152264""
""focus"",""19"",""170420""
","""event"",""trial"",""time""
""fullscreenenter"",""1"",""2449""
","""event"",""trial"",""time""
""fullscreenexit"",""2"",""7461""
",,553.3,run_exp/static/images/task_images/land.jpg,76,,,,,,,3,,,2,,,,,,,,35853,1,1,TRUE,,,
travel,80,426420,0.0-27.0-0.0,"""event"",""trial"",""time""
""fullscreenenter"",""1"",""2449""
""fullscreenexit"",""2"",""7461""
""blur"",""2"",""13997""
""focus"",""4"",""37084""
""blur"",""14"",""114342""
""focus"",""16"",""152264""
""blur"",""18"",""165486""
""focus"",""19"",""170420""
""blur"",""80"",""420651""
","""event"",""trial"",""time""
""blur"",""2"",""13997""
""blur"",""14"",""114342""
""blur"",""18"",""165486""
""blur"",""80"",""420651""
","""event"",""trial"",""time""
""focus"",""4"",""37084""
""focus"",""16"",""152264""
""focus"",""19"",""170420""
","""event"",""trial"",""time""
""fullscreenenter"",""1"",""2449""
","""event"",""trial"",""time""
""fullscreenexit"",""2"",""7461""
",,,,,,,,,,,,"[{""stimulus"":""run_exp/static/images/task_images/rocket-01.jpg"",""time"":0.40000009536743164},{""stimulus"":""run_exp/static/images/task_images/rocket-02.jpg"",""time"":1059.5},{""stimulus"":""run_exp/static/images/task_images/rocket-03.jpg"",""time"":2113.600000143051},{""stimulus"":""run_exp/static/images/task_images/rocket-04.jpg"",""time"":3162.7999999523163},{""stimulus"":""run_exp/static/images/task_images/rocket-05.jpg"",""time"":4202.799999952316},{""stimulus"":""run_exp/static/images/task_images/rocket-06.jpg"",""time"":5247.700000047684},{""stimulus"":""run_exp/static/images/task_images/rocket-07.jpg"",""time"":6314.100000143051},{""stimulus"":""run_exp/static/images/task_images/rocket-08.jpg"",""time"":7347.600000143051},{""stimulus"":""run_exp/static/images/task_images/rocket-09.jpg"",""time"":8399.799999952316}]",[],2,,,,,,,,,,,,,,
alien_welcome,81,431439,0.0-27.0-1.0,"""event"",""trial"",""time""
""fullscreenenter"",""1"",""2449""
""fullscreenexit"",""2"",""7461""
""blur"",""2"",""13997""
""focus"",""4"",""37084""
""blur"",""14"",""114342""
""focus"",""16"",""152264""
""blur"",""18"",""165486""
""focus"",""19"",""170420""
""blur"",""80"",""420651""
","""event"",""trial"",""time""
""blur"",""2"",""13997""
""blur"",""14"",""114342""
""blur"",""18"",""165486""
""blur"",""80"",""420651""
","""event"",""trial"",""time""
""focus"",""4"",""37084""
""focus"",""16"",""152264""
""focus"",""19"",""170420""
","""event"",""trial"",""time""
""fullscreenenter"",""1"",""2449""
","""event"",""trial"",""time""
""fullscreenexit"",""2"",""7461""
",,null,run_exp/static/images/task_images/aliens/old_aliens/planet/alien_planet-24.jpg,null,,,,,,,,,,,,,24,"32,72,24,62,27,36,10,69,52,70,63,66,42,65,61,11,39,16,29,73,23,54,20,59,74,3,50,55,22,6,9,15,21,80,45,28,79,60,76,13,30,26,5,47,4,33,44,46,1,77,58",,,,,,,,,,
land,82,431952,0.0-27.0-2.0,"""event"",""trial"",""time""
""fullscreenenter"",""1"",""2449""
""fullscreenexit"",""2"",""7461""
""blur"",""2"",""13997""
""focus"",""4"",""37084""
""blur"",""14"",""114342""
""focus"",""16"",""152264""
""blur"",""18"",""165486""
""focus"",""19"",""170420""
""blur"",""80"",""420651""
","""event"",""trial"",""time""
""blur"",""2"",""13997""
""blur"",""14"",""114342""
""blur"",""18"",""165486""
""blur"",""80"",""420651""
","""event"",""trial"",""time""
""focus"",""4"",""37084""
""focus"",""16"",""152264""
""focus"",""19"",""170420""
","""event"",""trial"",""time""
""fullscreenenter"",""1"",""2449""
","""event"",""trial"",""time""
""fullscreenexit"",""2"",""7461""
",,null,run_exp/static/images/task_images/land.jpg,null,,,,,,,100,,,3,,,,,,,,,,,,,,
dig,83,433970,0.0-27.0-3.0,"""event"",""trial"",""time""
""fullscreenenter"",""1"",""2449""
""fullscreenexit"",""2"",""7461""
""blur"",""2"",""13997""
""focus"",""4"",""37084""
""blur"",""14"",""114342""
""focus"",""16"",""152264""
""blur"",""18"",""165486""
""focus"",""19"",""170420""
""blur"",""80"",""420651""
","""event"",""trial"",""time""
""blur"",""2"",""13997""
""blur"",""14"",""114342""
""blur"",""18"",""165486""
""blur"",""80"",""420651""
","""event"",""trial"",""time""
""focus"",""4"",""37084""
""focus"",""16"",""152264""
""focus"",""19"",""170420""
","""event"",""trial"",""time""
""fullscreenenter"",""1"",""2449""
","""event"",""trial"",""time""
""fullscreenexit"",""2"",""7461""
",,,,,,,,,,,,"[{""stimulus"":""run_exp/static/images/task_images/dig.jpg"",""time"":0.2999999523162842},{""stimulus"":""run_exp/static/images/task_images/land.jpg"",""time"":682.7000000476837},{""stimulus"":""run_exp/static/images/task_images/dig.jpg"",""time"":1340.2000000476837}]",[],3,,,,,,,,,,,,,,
harvest,84,434989,0.0-27.0-4.0,"""event"",""trial"",""time""
""fullscreenenter"",""1"",""2449""
""fullscreenexit"",""2"",""7461""
""blur"",""2"",""13997""
""focus"",""4"",""37084""
""blur"",""14"",""114342""
""focus"",""16"",""152264""
""blur"",""18"",""165486""
""focus"",""19"",""170420""
""blur"",""80"",""420651""
","""event"",""trial"",""time""
""blur"",""2"",""13997""
""blur"",""14"",""114342""
""blur"",""18"",""165486""
""blur"",""80"",""420651""
","""event"",""trial"",""time""
""focus"",""4"",""37084""
""focus"",""16"",""152264""
""focus"",""19"",""170420""
","""event"",""trial"",""time""
""fullscreenenter"",""1"",""2449""
","""event"",""trial"",""time""
""fullscreenexit"",""2"",""7461""
",,null,run_exp/static/images/task_images/gems/100.jpg,null,,,,,,,43,,,3,,,,,100,0.432003587,0.43,,,,,,,
decision,85,438007,0.0-27.0-5.0,"""event"",""trial"",""time""
""fullscreenenter"",""1"",""2449""
""fullscreenexit"",""2"",""7461""
""blur"",""2"",""13997""
""focus"",""4"",""37084""
""blur"",""14"",""114342""
""focus"",""16"",""152264""
""blur"",""18"",""165486""
""focus"",""19"",""170420""
""blur"",""80"",""420651""
","""event"",""trial"",""time""
""blur"",""2"",""13997""
""blur"",""14"",""114342""
""blur"",""18"",""165486""
""blur"",""80"",""420651""
","""event"",""trial"",""time""
""focus"",""4"",""37084""
""focus"",""16"",""152264""
""focus"",""19"",""170420""
","""event"",""trial"",""time""
""fullscreenenter"",""1"",""2449""
","""event"",""trial"",""time""
""fullscreenexit"",""2"",""7461""
",,null,run_exp/static/images/task_images/land.jpg,null,,,,,,,43,,,3,,,,,,,,56901,1,0,FALSE,,,
time_out,86,440036,0.0-28.0-0.0,"""event"",""trial"",""time""
""fullscreenenter"",""1"",""2449""
""fullscreenexit"",""2"",""7461""
""blur"",""2"",""13997""
""focus"",""4"",""37084""
""blur"",""14"",""114342""
""focus"",""16"",""152264""
""blur"",""18"",""165486""
""focus"",""19"",""170420""
""blur"",""80"",""420651""
""focus"",""87"",""442074""
","""event"",""trial"",""time""
""blur"",""2"",""13997""
""blur"",""14"",""114342""
""blur"",""18"",""165486""
""blur"",""80"",""420651""
","""event"",""trial"",""time""
""focus"",""4"",""37084""
""focus"",""16"",""152264""
""focus"",""19"",""170420""
""focus"",""87"",""442074""
","""event"",""trial"",""time""
""fullscreenenter"",""1"",""2449""
","""event"",""trial"",""time""
""fullscreenexit"",""2"",""7461""
",,null,run_exp/static/images/task_images/time_out.jpg,null,,,,,,,43,,,,,,,,,,,,,,,,,
decision,87,442441,0.0-28.0-1.0,"""event"",""trial"",""time""
""fullscreenenter"",""1"",""2449""
""fullscreenexit"",""2"",""7461""
""blur"",""2"",""13997""
""focus"",""4"",""37084""
""blur"",""14"",""114342""
""focus"",""16"",""152264""
""blur"",""18"",""165486""
""focus"",""19"",""170420""
""blur"",""80"",""420651""
""focus"",""87"",""442074""
","""event"",""trial"",""time""
""blur"",""2"",""13997""
""blur"",""14"",""114342""
""blur"",""18"",""165486""
""blur"",""80"",""420651""
","""event"",""trial"",""time""
""focus"",""4"",""37084""
""focus"",""16"",""152264""
""focus"",""19"",""170420""
""focus"",""87"",""442074""
","""event"",""trial"",""time""
""fullscreenenter"",""1"",""2449""
","""event"",""trial"",""time""
""fullscreenexit"",""2"",""7461""
",,2400.7,run_exp/static/images/task_images/land.jpg,65,,,,,,,43,,,3,,,,,,,,61334,1,0,FALSE,,,
dig,88,443054,0.0-29.0-0.0,"""event"",""trial"",""time""
""fullscreenenter"",""1"",""2449""
""fullscreenexit"",""2"",""7461""
""blur"",""2"",""13997""
""focus"",""4"",""37084""
""blur"",""14"",""114342""
""focus"",""16"",""152264""
""blur"",""18"",""165486""
""focus"",""19"",""170420""
""blur"",""80"",""420651""
""focus"",""87"",""442074""
","""event"",""trial"",""time""
""blur"",""2"",""13997""
""blur"",""14"",""114342""
""blur"",""18"",""165486""
""blur"",""80"",""420651""
","""event"",""trial"",""time""
""focus"",""4"",""37084""
""focus"",""16"",""152264""
""focus"",""19"",""170420""
""focus"",""87"",""442074""
","""event"",""trial"",""time""
""fullscreenenter"",""1"",""2449""
","""event"",""trial"",""time""
""fullscreenexit"",""2"",""7461""
",,,,,,,,,,,,"[{""stimulus"":""run_exp/static/images/task_images/dig.jpg"",""time"":0.5},{""stimulus"":""run_exp/static/images/task_images/land.jpg"",""time"":220},{""stimulus"":""run_exp/static/images/task_images/dig.jpg"",""time"":421.2000000476837}]",[],3,,,,,,,,,,,,,,
harvest,89,444064,0.0-29.0-1.0,"""event"",""trial"",""time""
""fullscreenenter"",""1"",""2449""
""fullscreenexit"",""2"",""7461""
""blur"",""2"",""13997""
""focus"",""4"",""37084""
""blur"",""14"",""114342""
""focus"",""16"",""152264""
""blur"",""18"",""165486""
""focus"",""19"",""170420""
""blur"",""80"",""420651""
""focus"",""87"",""442074""
","""event"",""trial"",""time""
""blur"",""2"",""13997""
""blur"",""14"",""114342""
""blur"",""18"",""165486""
""blur"",""80"",""420651""
","""event"",""trial"",""time""
""focus"",""4"",""37084""
""focus"",""16"",""152264""
""focus"",""19"",""170420""
""focus"",""87"",""442074""
","""event"",""trial"",""time""
""fullscreenenter"",""1"",""2449""
","""event"",""trial"",""time""
""fullscreenexit"",""2"",""7461""
",,null,run_exp/static/images/task_images/gems/43.jpg,null,,,,,,,18,,,3,,,,,43,0.427545516,0.418604651,,,,,,,
decision,90,444738,0.0-29.0-2.0,"""event"",""trial"",""time""
""fullscreenenter"",""1"",""2449""
""fullscreenexit"",""2"",""7461""
""blur"",""2"",""13997""
""focus"",""4"",""37084""
""blur"",""14"",""114342""
""focus"",""16"",""152264""
""blur"",""18"",""165486""
""focus"",""19"",""170420""
""blur"",""80"",""420651""
""focus"",""87"",""442074""
","""event"",""trial"",""time""
""blur"",""2"",""13997""
""blur"",""14"",""114342""
""blur"",""18"",""165486""
""blur"",""80"",""420651""
","""event"",""trial"",""time""
""focus"",""4"",""37084""
""focus"",""16"",""152264""
""focus"",""19"",""170420""
""focus"",""87"",""442074""
","""event"",""trial"",""time""
""fullscreenenter"",""1"",""2449""
","""event"",""trial"",""time""
""fullscreenexit"",""2"",""7461""
",,670.2,run_exp/static/images/task_images/land.jpg,65,,,,,,,18,,,3,,,,,,,,63631,1,1,FALSE,,,
dig,91,447082,0.0-30.0-0.0,"""event"",""trial"",""time""
""fullscreenenter"",""1"",""2449""
""fullscreenexit"",""2"",""7461""
""blur"",""2"",""13997""
""focus"",""4"",""37084""
""blur"",""14"",""114342""
""focus"",""16"",""152264""
""blur"",""18"",""165486""
""focus"",""19"",""170420""
""blur"",""80"",""420651""
""focus"",""87"",""442074""
","""event"",""trial"",""time""
""blur"",""2"",""13997""
""blur"",""14"",""114342""
""blur"",""18"",""165486""
""blur"",""80"",""420651""
","""event"",""trial"",""time""
""focus"",""4"",""37084""
""focus"",""16"",""152264""
""focus"",""19"",""170420""
""focus"",""87"",""442074""
","""event"",""trial"",""time""
""fullscreenenter"",""1"",""2449""
","""event"",""trial"",""time""
""fullscreenexit"",""2"",""7461""
",,,,,,,,,,,,"[{""stimulus"":""run_exp/static/images/task_images/dig.jpg"",""time"":0.39999985694885254},{""stimulus"":""run_exp/static/images/task_images/land.jpg"",""time"":787.5},{""stimulus"":""run_exp/static/images/task_images/dig.jpg"",""time"":1570.8999998569489}]",[],3,,,,,,,,,,,,,,
harvest,92,448092,0.0-30.0-1.0,"""event"",""trial"",""time""
""fullscreenenter"",""1"",""2449""
""fullscreenexit"",""2"",""7461""
""blur"",""2"",""13997""
""focus"",""4"",""37084""
""blur"",""14"",""114342""
""focus"",""16"",""152264""
""blur"",""18"",""165486""
""focus"",""19"",""170420""
""blur"",""80"",""420651""
""focus"",""87"",""442074""
","""event"",""trial"",""time""
""blur"",""2"",""13997""
""blur"",""14"",""114342""
""blur"",""18"",""165486""
""blur"",""80"",""420651""
","""event"",""trial"",""time""
""focus"",""4"",""37084""
""focus"",""16"",""152264""
""focus"",""19"",""170420""
""focus"",""87"",""442074""
","""event"",""trial"",""time""
""fullscreenenter"",""1"",""2449""
","""event"",""trial"",""time""
""fullscreenexit"",""2"",""7461""
",,null,run_exp/static/images/task_images/gems/18.jpg,null,,,,,,,10,,,3,,,,,18,0.56311761,0.555555556,,,,,,,
decision,93,448264,0.0-30.0-2.0,"""event"",""trial"",""time""
""fullscreenenter"",""1"",""2449""
""fullscreenexit"",""2"",""7461""
""blur"",""2"",""13997""
""focus"",""4"",""37084""
""blur"",""14"",""114342""
""focus"",""16"",""152264""
""blur"",""18"",""165486""
""focus"",""19"",""170420""
""blur"",""80"",""420651""
""focus"",""87"",""442074""
","""event"",""trial"",""time""
""blur"",""2"",""13997""
""blur"",""14"",""114342""
""blur"",""18"",""165486""
""blur"",""80"",""420651""
","""event"",""trial"",""time""
""focus"",""4"",""37084""
""focus"",""16"",""152264""
""focus"",""19"",""170420""
""focus"",""87"",""442074""
","""event"",""trial"",""time""
""fullscreenenter"",""1"",""2449""
","""event"",""trial"",""time""
""fullscreenexit"",""2"",""7461""
",,170.1000001,run_exp/static/images/task_images/land.jpg,76,,,,,,,10,,,3,,,,,,,,67157,1,2,TRUE,,,
travel,94,458104,0.0-31.0-0.0,"""event"",""trial"",""time""
""fullscreenenter"",""1"",""2449""
""fullscreenexit"",""2"",""7461""
""blur"",""2"",""13997""
""focus"",""4"",""37084""
""blur"",""14"",""114342""
""focus"",""16"",""152264""
""blur"",""18"",""165486""
""focus"",""19"",""170420""
""blur"",""80"",""420651""
""focus"",""87"",""442074""
","""event"",""trial"",""time""
""blur"",""2"",""13997""
""blur"",""14"",""114342""
""blur"",""18"",""165486""
""blur"",""80"",""420651""
","""event"",""trial"",""time""
""focus"",""4"",""37084""
""focus"",""16"",""152264""
""focus"",""19"",""170420""
""focus"",""87"",""442074""
","""event"",""trial"",""time""
""fullscreenenter"",""1"",""2449""
","""event"",""trial"",""time""
""fullscreenexit"",""2"",""7461""
",,,,,,,,,,,,"[{""stimulus"":""run_exp/static/images/task_images/rocket-01.jpg"",""time"":0.3000001907348633},{""stimulus"":""run_exp/static/images/task_images/rocket-02.jpg"",""time"":1108.3000001907349},{""stimulus"":""run_exp/static/images/task_images/rocket-03.jpg"",""time"":2191.300000190735},{""stimulus"":""run_exp/static/images/task_images/rocket-04.jpg"",""time"":3283.4000000953674},{""stimulus"":""run_exp/static/images/task_images/rocket-05.jpg"",""time"":4372.900000095367},{""stimulus"":""run_exp/static/images/task_images/rocket-06.jpg"",""time"":5469.100000143051},{""stimulus"":""run_exp/static/images/task_images/rocket-07.jpg"",""time"":6559.100000143051},{""stimulus"":""run_exp/static/images/task_images/rocket-08.jpg"",""time"":7658.5},{""stimulus"":""run_exp/static/images/task_images/rocket-09.jpg"",""time"":8742.700000047684}]",[],3,,,,,,,,,,,,,,
alien_welcome,95,463124,0.0-31.0-1.0,"""event"",""trial"",""time""
""fullscreenenter"",""1"",""2449""
""fullscreenexit"",""2"",""7461""
""blur"",""2"",""13997""
""focus"",""4"",""37084""
""blur"",""14"",""114342""
""focus"",""16"",""152264""
""blur"",""18"",""165486""
""focus"",""19"",""170420""
""blur"",""80"",""420651""
""focus"",""87"",""442074""
","""event"",""trial"",""time""
""blur"",""2"",""13997""
""blur"",""14"",""114342""
""blur"",""18"",""165486""
""blur"",""80"",""420651""
","""event"",""trial"",""time""
""focus"",""4"",""37084""
""focus"",""16"",""152264""
""focus"",""19"",""170420""
""focus"",""87"",""442074""
","""event"",""trial"",""time""
""fullscreenenter"",""1"",""2449""
","""event"",""trial"",""time""
""fullscreenexit"",""2"",""7461""
",,null,run_exp/static/images/task_images/aliens/old_aliens/planet/alien_planet-62.jpg,null,,,,,,,,,,,,,62,"32,72,24,62,27,36,10,69,52,70,63,66,42,65,61,11,39,16,29,73,23,54,20,59,74,3,50,55,22,6,9,15,21,80,45,28,79,60,76,13,30,26,5,47,4,33,44,46,1,77,58",,,,,,,,,,
land,96,463632,0.0-31.0-2.0,"""event"",""trial"",""time""
""fullscreenenter"",""1"",""2449""
""fullscreenexit"",""2"",""7461""
""blur"",""2"",""13997""
""focus"",""4"",""37084""
""blur"",""14"",""114342""
""focus"",""16"",""152264""
""blur"",""18"",""165486""
""focus"",""19"",""170420""
""blur"",""80"",""420651""
""focus"",""87"",""442074""
","""event"",""trial"",""time""
""blur"",""2"",""13997""
""blur"",""14"",""114342""
""blur"",""18"",""165486""
""blur"",""80"",""420651""
","""event"",""trial"",""time""
""focus"",""4"",""37084""
""focus"",""16"",""152264""
""focus"",""19"",""170420""
""focus"",""87"",""442074""
","""event"",""trial"",""time""
""fullscreenenter"",""1"",""2449""
","""event"",""trial"",""time""
""fullscreenexit"",""2"",""7461""
",,null,run_exp/static/images/task_images/land.jpg,null,,,,,,,104,,,4,,,,,,,,,,,,,,
dig,97,465653,0.0-31.0-3.0,"""event"",""trial"",""time""
""fullscreenenter"",""1"",""2449""
""fullscreenexit"",""2"",""7461""
""blur"",""2"",""13997""
""focus"",""4"",""37084""
""blur"",""14"",""114342""
""focus"",""16"",""152264""
""blur"",""18"",""165486""
""focus"",""19"",""170420""
""blur"",""80"",""420651""
""focus"",""87"",""442074""
","""event"",""trial"",""time""
""blur"",""2"",""13997""
""blur"",""14"",""114342""
""blur"",""18"",""165486""
""blur"",""80"",""420651""
","""event"",""trial"",""time""
""focus"",""4"",""37084""
""focus"",""16"",""152264""
""focus"",""19"",""170420""
""focus"",""87"",""442074""
","""event"",""trial"",""time""
""fullscreenenter"",""1"",""2449""
","""event"",""trial"",""time""
""fullscreenexit"",""2"",""7461""
",,,,,,,,,,,,"[{""stimulus"":""run_exp/static/images/task_images/dig.jpg"",""time"":0.2999999523162842},{""stimulus"":""run_exp/static/images/task_images/land.jpg"",""time"":684.5},{""stimulus"":""run_exp/static/images/task_images/dig.jpg"",""time"":1337.7000000476837}]",[],4,,,,,,,,,,,,,,
harvest,98,466670,0.0-31.0-4.0,"""event"",""trial"",""time""
""fullscreenenter"",""1"",""2449""
""fullscreenexit"",""2"",""7461""
""blur"",""2"",""13997""
""focus"",""4"",""37084""
""blur"",""14"",""114342""
""focus"",""16"",""152264""
""blur"",""18"",""165486""
""focus"",""19"",""170420""
""blur"",""80"",""420651""
""focus"",""87"",""442074""
","""event"",""trial"",""time""
""blur"",""2"",""13997""
""blur"",""14"",""114342""
""blur"",""18"",""165486""
""blur"",""80"",""420651""
","""event"",""trial"",""time""
""focus"",""4"",""37084""
""focus"",""16"",""152264""
""focus"",""19"",""170420""
""focus"",""87"",""442074""
","""event"",""trial"",""time""
""fullscreenenter"",""1"",""2449""
","""event"",""trial"",""time""
""fullscreenexit"",""2"",""7461""
",,null,run_exp/static/images/task_images/gems/104.jpg,null,,,,,,,57,,,4,,,,,104,0.547370001,0.548076923,,,,,,,
decision,99,466722,0.0-31.0-5.0,"""event"",""trial"",""time""
""fullscreenenter"",""1"",""2449""
""fullscreenexit"",""2"",""7461""
""blur"",""2"",""13997""
""focus"",""4"",""37084""
""blur"",""14"",""114342""
""focus"",""16"",""152264""
""blur"",""18"",""165486""
""focus"",""19"",""170420""
""blur"",""80"",""420651""
""focus"",""87"",""442074""
","""event"",""trial"",""time""
""blur"",""2"",""13997""
""blur"",""14"",""114342""
""blur"",""18"",""165486""
""blur"",""80"",""420651""
","""event"",""trial"",""time""
""focus"",""4"",""37084""
""focus"",""16"",""152264""
""focus"",""19"",""170420""
""focus"",""87"",""442074""
","""event"",""trial"",""time""
""fullscreenenter"",""1"",""2449""
","""event"",""trial"",""time""
""fullscreenexit"",""2"",""7461""
",,50.5,run_exp/static/images/task_images/land.jpg,65,,,,,,,57,,,4,,,,,,,,85615,1,0,FALSE,,,
dig,100,469681,0.0-32.0-0.0,"""event"",""trial"",""time""
""fullscreenenter"",""1"",""2449""
""fullscreenexit"",""2"",""7461""
""blur"",""2"",""13997""
""focus"",""4"",""37084""
""blur"",""14"",""114342""
""focus"",""16"",""152264""
""blur"",""18"",""165486""
""focus"",""19"",""170420""
""blur"",""80"",""420651""
""focus"",""87"",""442074""
","""event"",""trial"",""time""
""blur"",""2"",""13997""
""blur"",""14"",""114342""
""blur"",""18"",""165486""
""blur"",""80"",""420651""
","""event"",""trial"",""time""
""focus"",""4"",""37084""
""focus"",""16"",""152264""
""focus"",""19"",""170420""
""focus"",""87"",""442074""
","""event"",""trial"",""time""
""fullscreenenter"",""1"",""2449""
","""event"",""trial"",""time""
""fullscreenexit"",""2"",""7461""
",,,,,,,,,,,,"[{""stimulus"":""run_exp/static/images/task_images/dig.jpg"",""time"":0.40000009536743164},{""stimulus"":""run_exp/static/images/task_images/land.jpg"",""time"":993.5},{""stimulus"":""run_exp/static/images/task_images/dig.jpg"",""time"":1979.9000000953674}]",[],4,,,,,,,,,,,,,,
harvest,101,470687,0.0-32.0-1.0,"""event"",""trial"",""time""
""fullscreenenter"",""1"",""2449""
""fullscreenexit"",""2"",""7461""
""blur"",""2"",""13997""
""focus"",""4"",""37084""
""blur"",""14"",""114342""
""focus"",""16"",""152264""
""blur"",""18"",""165486""
""focus"",""19"",""170420""
""blur"",""80"",""420651""
""focus"",""87"",""442074""
","""event"",""trial"",""time""
""blur"",""2"",""13997""
""blur"",""14"",""114342""
""blur"",""18"",""165486""
""blur"",""80"",""420651""
","""event"",""trial"",""time""
""focus"",""4"",""37084""
""focus"",""16"",""152264""
""focus"",""19"",""170420""
""focus"",""87"",""442074""
","""event"",""trial"",""time""
""fullscreenenter"",""1"",""2449""
","""event"",""trial"",""time""
""fullscreenexit"",""2"",""7461""
",,null,run_exp/static/images/task_images/gems/57.jpg,null,,,,,,,29,,,4,,,,,57,0.506865877,0.50877193,,,,,,,
decision,102,470809,0.0-32.0-2.0,"""event"",""trial"",""time""
""fullscreenenter"",""1"",""2449""
""fullscreenexit"",""2"",""7461""
""blur"",""2"",""13997""
""focus"",""4"",""37084""
""blur"",""14"",""114342""
""focus"",""16"",""152264""
""blur"",""18"",""165486""
""focus"",""19"",""170420""
""blur"",""80"",""420651""
""focus"",""87"",""442074""
","""event"",""trial"",""time""
""blur"",""2"",""13997""
""blur"",""14"",""114342""
""blur"",""18"",""165486""
""blur"",""80"",""420651""
","""event"",""trial"",""time""
""focus"",""4"",""37084""
""focus"",""16"",""152264""
""focus"",""19"",""170420""
""focus"",""87"",""442074""
","""event"",""trial"",""time""
""fullscreenenter"",""1"",""2449""
","""event"",""trial"",""time""
""fullscreenexit"",""2"",""7461""
",,120.5,run_exp/static/images/task_images/land.jpg,65,,,,,,,29,,,4,,,,,,,,89702,1,1,FALSE,,,
dig,103,473701,0.0-33.0-0.0,"""event"",""trial"",""time""
""fullscreenenter"",""1"",""2449""
""fullscreenexit"",""2"",""7461""
""blur"",""2"",""13997""
""focus"",""4"",""37084""
""blur"",""14"",""114342""
""focus"",""16"",""152264""
""blur"",""18"",""165486""
""focus"",""19"",""170420""
""blur"",""80"",""420651""
""focus"",""87"",""442074""
","""event"",""trial"",""time""
""blur"",""2"",""13997""
""blur"",""14"",""114342""
""blur"",""18"",""165486""
""blur"",""80"",""420651""
","""event"",""trial"",""time""
""focus"",""4"",""37084""
""focus"",""16"",""152264""
""focus"",""19"",""170420""
""focus"",""87"",""442074""
","""event"",""trial"",""time""
""fullscreenenter"",""1"",""2449""
","""event"",""trial"",""time""
""fullscreenexit"",""2"",""7461""
",,,,,,,,,,,,"[{""stimulus"":""run_exp/static/images/task_images/dig.jpg"",""time"":0.2999999523162842},{""stimulus"":""run_exp/static/images/task_images/land.jpg"",""time"":976.7000000476837},{""stimulus"":""run_exp/static/images/task_images/dig.jpg"",""time"":1929.0999999046326}]",[],4,,,,,,,,,,,,,,
harvest,104,474712,0.0-33.0-1.0,"""event"",""trial"",""time""
""fullscreenenter"",""1"",""2449""
""fullscreenexit"",""2"",""7461""
""blur"",""2"",""13997""
""focus"",""4"",""37084""
""blur"",""14"",""114342""
""focus"",""16"",""152264""
""blur"",""18"",""165486""
""focus"",""19"",""170420""
""blur"",""80"",""420651""
""focus"",""87"",""442074""
","""event"",""trial"",""time""
""blur"",""2"",""13997""
""blur"",""14"",""114342""
""blur"",""18"",""165486""
""blur"",""80"",""420651""
","""event"",""trial"",""time""
""focus"",""4"",""37084""
""focus"",""16"",""152264""
""focus"",""19"",""170420""
""focus"",""87"",""442074""
","""event"",""trial"",""time""
""fullscreenenter"",""1"",""2449""
","""event"",""trial"",""time""
""fullscreenexit"",""2"",""7461""
",,null,run_exp/static/images/task_images/gems/29.jpg,null,,,,,,,15,,,4,,,,,29,0.526761855,0.517241379,,,,,,,
decision,105,477100,0.0-33.0-2.0,"""event"",""trial"",""time""
""fullscreenenter"",""1"",""2449""
""fullscreenexit"",""2"",""7461""
""blur"",""2"",""13997""
""focus"",""4"",""37084""
""blur"",""14"",""114342""
""focus"",""16"",""152264""
""blur"",""18"",""165486""
""focus"",""19"",""170420""
""blur"",""80"",""420651""
""focus"",""87"",""442074""
","""event"",""trial"",""time""
""blur"",""2"",""13997""
""blur"",""14"",""114342""
""blur"",""18"",""165486""
""blur"",""80"",""420651""
","""event"",""trial"",""time""
""focus"",""4"",""37084""
""focus"",""16"",""152264""
""focus"",""19"",""170420""
""focus"",""87"",""442074""
","""event"",""trial"",""time""
""fullscreenenter"",""1"",""2449""
","""event"",""trial"",""time""
""fullscreenexit"",""2"",""7461""
",,2386.1,run_exp/static/images/task_images/land.jpg,65,,,,,,,15,,,4,,,,,,,,95993,1,2,FALSE,,,
dig,106,477734,0.0-34.0-0.0,"""event"",""trial"",""time""
""fullscreenenter"",""1"",""2449""
""fullscreenexit"",""2"",""7461""
""blur"",""2"",""13997""
""focus"",""4"",""37084""
""blur"",""14"",""114342""
""focus"",""16"",""152264""
""blur"",""18"",""165486""
""focus"",""19"",""170420""
""blur"",""80"",""420651""
""focus"",""87"",""442074""
","""event"",""trial"",""time""
""blur"",""2"",""13997""
""blur"",""14"",""114342""
""blur"",""18"",""165486""
""blur"",""80"",""420651""
","""event"",""trial"",""time""
""focus"",""4"",""37084""
""focus"",""16"",""152264""
""focus"",""19"",""170420""
""focus"",""87"",""442074""
","""event"",""trial"",""time""
""fullscreenenter"",""1"",""2449""
","""event"",""trial"",""time""
""fullscreenexit"",""2"",""7461""
",,,,,,,,,,,,"[{""stimulus"":""run_exp/static/images/task_images/dig.jpg"",""time"":0.5},{""stimulus"":""run_exp/static/images/task_images/land.jpg"",""time"":225.39999985694885},{""stimulus"":""run_exp/static/images/task_images/dig.jpg"",""time"":411.5}]",[],4,,,,,,,,,,,,,,
harvest,107,478744,0.0-34.0-1.0,"""event"",""trial"",""time""
""fullscreenenter"",""1"",""2449""
""fullscreenexit"",""2"",""7461""
""blur"",""2"",""13997""
""focus"",""4"",""37084""
""blur"",""14"",""114342""
""focus"",""16"",""152264""
""blur"",""18"",""165486""
""focus"",""19"",""170420""
""blur"",""80"",""420651""
""focus"",""87"",""442074""
","""event"",""trial"",""time""
""blur"",""2"",""13997""
""blur"",""14"",""114342""
""blur"",""18"",""165486""
""blur"",""80"",""420651""
","""event"",""trial"",""time""
""focus"",""4"",""37084""
""focus"",""16"",""152264""
""focus"",""19"",""170420""
""focus"",""87"",""442074""
","""event"",""trial"",""time""
""fullscreenenter"",""1"",""2449""
","""event"",""trial"",""time""
""fullscreenexit"",""2"",""7461""
",,null,run_exp/static/images/task_images/gems/15.jpg,null,,,,,,,7,,,4,,,,,15,0.461295804,0.466666667,,,,,,,
decision,108,479406,0.0-34.0-2.0,"""event"",""trial"",""time""
""fullscreenenter"",""1"",""2449""
""fullscreenexit"",""2"",""7461""
""blur"",""2"",""13997""
""focus"",""4"",""37084""
""blur"",""14"",""114342""
""focus"",""16"",""152264""
""blur"",""18"",""165486""
""focus"",""19"",""170420""
""blur"",""80"",""420651""
""focus"",""87"",""442074""
","""event"",""trial"",""time""
""blur"",""2"",""13997""
""blur"",""14"",""114342""
""blur"",""18"",""165486""
""blur"",""80"",""420651""
","""event"",""trial"",""time""
""focus"",""4"",""37084""
""focus"",""16"",""152264""
""focus"",""19"",""170420""
""focus"",""87"",""442074""
","""event"",""trial"",""time""
""fullscreenenter"",""1"",""2449""
","""event"",""trial"",""time""
""fullscreenexit"",""2"",""7461""
",,658.7,run_exp/static/images/task_images/land.jpg,76,,,,,,,7,,,4,,,,,,,,98299,1,3,TRUE,,,
travel,109,488759,0.0-35.0-0.0,"""event"",""trial"",""time""
""fullscreenenter"",""1"",""2449""
""fullscreenexit"",""2"",""7461""
""blur"",""2"",""13997""
""focus"",""4"",""37084""
""blur"",""14"",""114342""
""focus"",""16"",""152264""
""blur"",""18"",""165486""
""focus"",""19"",""170420""
""blur"",""80"",""420651""
""focus"",""87"",""442074""
","""event"",""trial"",""time""
""blur"",""2"",""13997""
""blur"",""14"",""114342""
""blur"",""18"",""165486""
""blur"",""80"",""420651""
","""event"",""trial"",""time""
""focus"",""4"",""37084""
""focus"",""16"",""152264""
""focus"",""19"",""170420""
""focus"",""87"",""442074""
","""event"",""trial"",""time""
""fullscreenenter"",""1"",""2449""
","""event"",""trial"",""time""
""fullscreenexit"",""2"",""7461""
