trial_type,trial_index,time_elapsed,internal_node_id,interactions,blur_events,focus_events,fullscreenenter_events,fullscreenexit_events,success,rt,stimulus,key_press,prompt,subject_id,participant_id,age,gender,button_pressed,next_reward,animation_sequence,responses,planet,curr_prac_trial,n_prac_rounds,alien,aliens,reward_received,decay_rate_actual,decay_rate_exp,time_in_block,block_num,prt,last_trial_on_planet,button_html,bonus,num_failures
pavlovia,0,7,0.0-0.0,"""event"",""trial"",""time""
""focus"",""0"",""0""
""focus"",""0"",""0""
""fullscreenenter"",""1"",""6580""
","
","""event"",""trial"",""time""
""focus"",""0"",""0""
""focus"",""0"",""0""
","""event"",""trial"",""time""
""fullscreenenter"",""1"",""6580""
","
",,,,,,,,,,,,,,,,,,,,,,,,,,,,
fullscreen,1,7551,0.0-1.0,"""event"",""trial"",""time""
""focus"",""0"",""0""
""focus"",""0"",""0""
""fullscreenenter"",""1"",""6580""
","
","""event"",""trial"",""time""
""focus"",""0"",""0""
""focus"",""0"",""0""
","""event"",""trial"",""time""
""fullscreenenter"",""1"",""6580""
","
",TRUE,,,,,,,,,,,,,,,,,,,,,,,,,,,
instruc_welcome,2,17550,0.0-2.0,"""event"",""trial"",""time""
""focus"",""0"",""0""
""focus"",""0"",""0""
""fullscreenenter"",""1"",""6580""
","
","""event"",""trial"",""time""
""focus"",""0"",""0""
""focus"",""0"",""0""
","""event"",""trial"",""time""
""fullscreenenter"",""1"",""6580""
","
",,null,run_exp/static/audio/clip_1_welcome.m4a,null,"<p>Howdy! In this experiment, you’ll be an explorer traveling through space to collect space treasure.</p><p>Your mission is to collect as much treasure as possible.</p><br><br><p><img src='run_exp/static/images/task_images/opening_img-01.jpg' height='300' width='auto'></p>",9357,1402,11.69,Female,,,,,,,,,,,,,,,,,,,
audio-keyboard-response,3,34189,0.0-3.0,"""event"",""trial"",""time""
""focus"",""0"",""0""
""focus"",""0"",""0""
""fullscreenenter"",""1"",""6580""
","
","""event"",""trial"",""time""
""focus"",""0"",""0""
""focus"",""0"",""0""
","""event"",""trial"",""time""
""fullscreenenter"",""1"",""6580""
","
",,null,run_exp/static/audio/clip_2_move.m4a,null,,,,,,,,,,,,,,,,,,,,,,,,
welcome_dec,4,46055,0.0-4.0,"""event"",""trial"",""time""
""focus"",""0"",""0""
""focus"",""0"",""0""
""fullscreenenter"",""1"",""6580""
","
","""event"",""trial"",""time""
""focus"",""0"",""0""
""focus"",""0"",""0""
","""event"",""trial"",""time""
""fullscreenenter"",""1"",""6580""
","
",,11862.7,"<p>Howdy! In this experiment, you’ll be an explorer traveling through space to collect space treasure.</p><p>Your mission is to collect as much treasure as possible.</p><br><br><p><img src='run_exp/static/images/task_images/opening_img-01.jpg' height='300' width='auto'></p>",,,,,,,0,,,,,,,,,,,,,,,,,,
html-keyboard-response,5,48691,0.0-5.0,"""event"",""trial"",""time""
""focus"",""0"",""0""
""focus"",""0"",""0""
""fullscreenenter"",""1"",""6580""
","
","""event"",""trial"",""time""
""focus"",""0"",""0""
""focus"",""0"",""0""
","""event"",""trial"",""time""
""fullscreenenter"",""1"",""6580""
","
",,2633.5,"<p>Howdy! In this experiment, you’ll be an explorer traveling through space to collect space treasure.</p><p>Your mission is to collect as much treasure as possible.</p><br><br><p><img src='run_exp/static/images/task_images/opening_img-01.jpg' height='300' width='auto'></p><button class=""jspsych-html-btn-chosen""><img src=""run_exp/static/images/task_images/planet-01.jpg"" height=""50""></button><button class=""jspsych-html-btn-unchosen""><img src=""run_exp/static/images/task_images/planet-02.jpg"" height=""50""></button><p><b>[press the space bar to lock in your answer]<b><br></p>",32,,,,,,,,,,,,,,,,,,,,,,,,
instruc_welcome,6,58435,0.0-6.0-0.0,"""event"",""trial"",""time""
""focus"",""0"",""0""
""focus"",""0"",""0""
""fullscreenenter"",""1"",""6580""
","
","""event"",""trial"",""time""
""focus"",""0"",""0""
""focus"",""0"",""0""
","""event"",""trial"",""time""
""fullscreenenter"",""1"",""6580""
","
",,null,run_exp/static/audio/clip_1_welcome.m4a,null,"<p>Howdy! In this experiment, you’ll be an explorer traveling through space to collect space treasure.</p><p>Your mission is to collect as much treasure as possible.</p><br><br><p><img src='run_exp/static/images/task_images/opening_img-01.jpg' height='300' width='auto'></p>",9357,1402,11,Female,,,,,,,,,,,,,,,,,,,
audio-keyboard-response,7,75075,0.0-6.0-1.0,"""event"",""trial"",""time""
""focus"",""0"",""0""
""focus"",""0"",""0""
""fullscreenenter"",""1"",""6580""
","
","""event"",""trial"",""time""
""focus"",""0"",""0""
""focus"",""0"",""0""
","""event"",""trial"",""time""
""fullscreenenter"",""1"",""6580""
","
",,null,run_exp/static/audio/clip_2_move.m4a,null,,,,,,,,,,,,,,,,,,,,,,,,
welcome_dec,8,76028,0.0-6.0-2.0,"""event"",""trial"",""time""
""focus"",""0"",""0""
""focus"",""0"",""0""
""fullscreenenter"",""1"",""6580""
","
","""event"",""trial"",""time""
""focus"",""0"",""0""
""focus"",""0"",""0""
","""event"",""trial"",""time""
""fullscreenenter"",""1"",""6580""
","
",,948.2,"<p>Howdy! In this experiment, you’ll be an explorer traveling through space to collect space treasure.</p><p>Your mission is to collect as much treasure as possible.</p><br><br><p><img src='run_exp/static/images/task_images/opening_img-01.jpg' height='300' width='auto'></p>",,,,,,,1,,,,,,,,,,,,,,,,,,
html-keyboard-response,9,76294,0.0-6.0-3.0,"""event"",""trial"",""time""
""focus"",""0"",""0""
""focus"",""0"",""0""
""fullscreenenter"",""1"",""6580""
","
","""event"",""trial"",""time""
""focus"",""0"",""0""
""focus"",""0"",""0""
","""event"",""trial"",""time""
""fullscreenenter"",""1"",""6580""
","
",,264.2,"<p>Howdy! In this experiment, you’ll be an explorer traveling through space to collect space treasure.</p><p>Your mission is to collect as much treasure as possible.</p><br><br><p><img src='run_exp/static/images/task_images/opening_img-01.jpg' height='300' width='auto'></p><button class=""jspsych-html-btn-unchosen""><img src=""run_exp/static/images/task_images/planet-01.jpg"" height=""50""></button><button class=""jspsych-html-btn-chosen""><img src=""run_exp/static/images/task_images/planet-02.jpg"" height=""50""></button><p><b>[press the space bar to lock in your answer]<b><br></p>",32,,,,,,,,,,,,,,,,,,,,,,,,
instruc_goal,10,86395,0.0-7.0-0.0,"""event"",""trial"",""time""
""focus"",""0"",""0""
""focus"",""0"",""0""
""fullscreenenter"",""1"",""6580""
","
","""event"",""trial"",""time""
""focus"",""0"",""0""
""focus"",""0"",""0""
","""event"",""trial"",""time""
""fullscreenenter"",""1"",""6580""
","
",,null,run_exp/static/audio/clip_3_goal.m4a,null,"<p> As a space explorer, you’ll visit different planets to dig for space treasure, these pink gems.</p> <p> The more treasure you dig up, the more bonus money you’ll win! </p><br><br><p><img src='run_exp/static/images/task_images/pink_gem.jpg' height='300' width='auto'></p>",,,,,,,,,,,,,,,,,,,,,,,
instruc_goal,11,88407,0.0-7.0-1.0,"""event"",""trial"",""time""
""focus"",""0"",""0""
""focus"",""0"",""0""
""fullscreenenter"",""1"",""6580""
","
","""event"",""trial"",""time""
""focus"",""0"",""0""
""focus"",""0"",""0""
","""event"",""trial"",""time""
""fullscreenenter"",""1"",""6580""
","
",,2002.6,"<p> As a space explorer, you’ll visit different planets to dig for space treasure, these pink gems.</p> <p> The more treasure you dig up, the more bonus money you’ll win! </p><br><br><p><img src='run_exp/static/images/task_images/pink_gem.jpg' height='300' width='auto'></p>",,,,,,,1,,,,,,,,,,,,,,,,,,
html-keyboard-response,12,88482,0.0-7.0-2.0,"""event"",""trial"",""time""
""focus"",""0"",""0""
""focus"",""0"",""0""
""fullscreenenter"",""1"",""6580""
","
","""event"",""trial"",""time""
""focus"",""0"",""0""
""focus"",""0"",""0""
","""event"",""trial"",""time""
""fullscreenenter"",""1"",""6580""
","
",,72.4,"<p> As a space explorer, you’ll visit different planets to dig for space treasure, these pink gems.</p> <p> The more treasure you dig up, the more bonus money you’ll win! </p><br><br><p><img src='run_exp/static/images/task_images/pink_gem.jpg' height='300' width='auto'></p><button class=""jspsych-html-btn-unchosen""><img src=""run_exp/static/images/task_images/planet-01.jpg"" height=""50""></button><button class=""jspsych-html-btn-chosen""><img src=""run_exp/static/images/task_images/planet-02.jpg"" height=""50""></button><p><b>[press the space bar to lock in your answer]<b><br></p>",32,,,,,,,,,,,,,,,,,,,,,,,,
instruc_dig,13,104494,0.0-8.0-0.0,"""event"",""trial"",""time""
""focus"",""0"",""0""
""focus"",""0"",""0""
""fullscreenenter"",""1"",""6580""
","
","""event"",""trial"",""time""
""focus"",""0"",""0""
""focus"",""0"",""0""
","""event"",""trial"",""time""
""fullscreenenter"",""1"",""6580""
","
",,null,run_exp/static/audio/clip_4_dig.m4a,null,,,,,,,100,,,,,,,,,,,,,,,,,
instruc_dig_try,14,105384,0.0-8.0-1.0,"""event"",""trial"",""time""
""focus"",""0"",""0""
""focus"",""0"",""0""
""fullscreenenter"",""1"",""6580""
","
","""event"",""trial"",""time""
""focus"",""0"",""0""
""focus"",""0"",""0""
","""event"",""trial"",""time""
""fullscreenenter"",""1"",""6580""
","
",,886.9,"<p> When you’ve arrived at a new planet, you will dig once. </p> <p>Then, you get to decide if you want to stay on the planet and dig again or travel to a new planet and dig there.</p> <p> To stay and dig, press the letter <strong>‘A’</strong> on your keyboard. Try pressing it now! </p><p><img src='run_exp/static/images/task_images/land.jpg'  height='700' width='auto'></p>",65,"<p> When you’ve arrived at a new planet, you will dig once. </p> <p>Then, you get to decide if you want to stay on the planet and dig again or travel to a new planet and dig there.</p> <p> To stay and dig, press the letter <strong>‘A’</strong> on your keyboard. Try pressing it now! </p><p><img src='run_exp/static/images/task_images/land.jpg'  height='700' width='auto'></p>",,,,,,100,,,,,,,,,,,,,,,,,
dig_prac,15,107413,0.0-8.0-2.0,"""event"",""trial"",""time""
""focus"",""0"",""0""
""focus"",""0"",""0""
""fullscreenenter"",""1"",""6580""
","
","""event"",""trial"",""time""
""focus"",""0"",""0""
""focus"",""0"",""0""
","""event"",""trial"",""time""
""fullscreenenter"",""1"",""6580""
","
",,,,,,,,,,,,"[{""stimulus"":""run_exp/static/images/task_images/dig.jpg"",""time"":0.5},{""stimulus"":""run_exp/static/images/task_images/land.jpg"",""time"":671.3000000000466},{""stimulus"":""run_exp/static/images/task_images/dig.jpg"",""time"":1352.3000000000466}]",[],,,,,,,,,,,,,,,
instruc_travel,16,143674,0.0-8.0-3.0,"""event"",""trial"",""time""
""focus"",""0"",""0""
""focus"",""0"",""0""
""fullscreenenter"",""1"",""6580""
","
","""event"",""trial"",""time""
""focus"",""0"",""0""
""focus"",""0"",""0""
","""event"",""trial"",""time""
""fullscreenenter"",""1"",""6580""
","
",,null,run_exp/static/audio/clip_5_travel.m4a,null,"<p>Every time you dig up gems, there are less gems on the planet, so the more you dig on a planet the fewer gems you’ll get with each dig.</p><p>When gems are running low, you may want to travel to a new planet. </p> <p>  Planets are very far apart in this galaxy, so it will take some time to travel between them. </p> <br><p>There are lots and lots of planets for you to visit, so you won’t be able to return to any planets you’ve seen before. </p><br><p>To leave this planet and travel to a new one, press the letter <strong>‘L’</strong> on your keyboard. Try pressing it now! </p><p><img src='run_exp/static/images/task_images/rocket-01.jpg'  height='600' width='auto'></p>",,,,,,,,,,,,,,,,,,,,,,,
instruc_travel_try,17,147563,0.0-8.0-4.0,"""event"",""trial"",""time""
""focus"",""0"",""0""
""focus"",""0"",""0""
""fullscreenenter"",""1"",""6580""
","
","""event"",""trial"",""time""
""focus"",""0"",""0""
""focus"",""0"",""0""
","""event"",""trial"",""time""
""fullscreenenter"",""1"",""6580""
","
",,3885.8,"<p>Every time you dig up gems, there are less gems on the planet, so the more you dig on a planet the fewer gems you’ll get with each dig.</p><p>When gems are running low, you may want to travel to a new planet. </p> <p>  Planets are very far apart in this galaxy, so it will take some time to travel between them. </p> <br><p>There are lots and lots of planets for you to visit, so you won’t be able to return to any planets you’ve seen before. </p><br><p>To leave this planet and travel to a new one, press the letter <strong>‘L’</strong> on your keyboard. Try pressing it now! </p><p><img src='run_exp/static/images/task_images/rocket-01.jpg'  height='600' width='auto'></p>",76,"<p>Every time you dig up gems, there are less gems on the planet, so the more you dig on a planet the fewer gems you’ll get with each dig.</p><p>When gems are running low, you may want to travel to a new planet. </p> <p>  Planets are very far apart in this galaxy, so it will take some time to travel between them. </p> <br><p>There are lots and lots of planets for you to visit, so you won’t be able to return to any planets you’ve seen before. </p><br><p>To leave this planet and travel to a new one, press the letter <strong>‘L’</strong> on your keyboard. Try pressing it now! </p><p><img src='run_exp/static/images/task_images/rocket-01.jpg'  height='600' width='auto'></p>",,,,,,,,,,,,,,,,,,,,,,,
travel_prac,18,157572,0.0-8.0-5.0,"""event"",""trial"",""time""
""focus"",""0"",""0""
""focus"",""0"",""0""
""fullscreenenter"",""1"",""6580""
","
","""event"",""trial"",""time""
""focus"",""0"",""0""
""focus"",""0"",""0""
","""event"",""trial"",""time""
""fullscreenenter"",""1"",""6580""
","
",,,,,,,,,,,,"[{""stimulus"":""run_exp/static/images/task_images/rocket-01.jpg"",""time"":0.5},{""stimulus"":""run_exp/static/images/task_images/rocket-02.jpg"",""time"":1134.2999999999302},{""stimulus"":""run_exp/static/images/task_images/rocket-03.jpg"",""time"":2224.5999999999767},{""stimulus"":""run_exp/static/images/task_images/rocket-04.jpg"",""time"":3341},{""stimulus"":""run_exp/static/images/task_images/rocket-05.jpg"",""time"":4446.699999999953},{""stimulus"":""run_exp/static/images/task_images/rocket-06.jpg"",""time"":5558.199999999953},{""stimulus"":""run_exp/static/images/task_images/rocket-07.jpg"",""time"":6676},{""stimulus"":""run_exp/static/images/task_images/rocket-08.jpg"",""time"":7786.79999999993},{""stimulus"":""run_exp/static/images/task_images/rocket-09.jpg"",""time"":8897.79999999993}]",[],0,,,,,,,,,,,,,,
instruc_alien_greet,19,184775,0.0-8.0-6.0,"""event"",""trial"",""time""
""focus"",""0"",""0""
""focus"",""0"",""0""
""fullscreenenter"",""1"",""6580""
","
","""event"",""trial"",""time""
""focus"",""0"",""0""
""focus"",""0"",""0""
","""event"",""trial"",""time""
""fullscreenenter"",""1"",""6580""
","
",,null,run_exp/static/audio/clip_6_alien.m4a,null,"<p>When you arrive at a new planet, the alien who owns the treasure mine on that planet will greet you!</p><p>The better an alien takes care of their mine the easier it is to dig for gems. Some aliens take better care of their mine than others. So, you won’t get exactly the same amount of gems on each planet.</p><p>What the alien looks like does not tell you anything about how many gems there are on the planet.</p><br><p><img src=""run_exp/static/images/task_images/aliens/instructions_aliens/planet/alien_planet-1.jpg""  height=""600"" width=""auto""></p>",,,,,,,,,,,,,,,,,,,,,,,
instruc_alien_greet,20,192860,0.0-8.0-7.0,"""event"",""trial"",""time""
""focus"",""0"",""0""
""focus"",""0"",""0""
""fullscreenenter"",""1"",""6580""
","
","""event"",""trial"",""time""
""focus"",""0"",""0""
""focus"",""0"",""0""
","""event"",""trial"",""time""
""fullscreenenter"",""1"",""6580""
","
",,8080.4,"<p>When you arrive at a new planet, the alien who owns the treasure mine on that planet will greet you!</p><p>The better an alien takes care of their mine the easier it is to dig for gems. Some aliens take better care of their mine than others. So, you won’t get exactly the same amount of gems on each planet.</p><p>What the alien looks like does not tell you anything about how many gems there are on the planet.</p><br><p><img src=""run_exp/static/images/task_images/aliens/instructions_aliens/planet/alien_planet-1.jpg""  height=""600"" width=""auto""></p>",,,,,,,1,,,,,,,,,,,,,,,,,,
html-keyboard-response,21,195035,0.0-8.0-8.0,"""event"",""trial"",""time""
""focus"",""0"",""0""
""focus"",""0"",""0""
""fullscreenenter"",""1"",""6580""
","
","""event"",""trial"",""time""
""focus"",""0"",""0""
""focus"",""0"",""0""
","""event"",""trial"",""time""
""fullscreenenter"",""1"",""6580""
","
",,2171.8,"<p>When you arrive at a new planet, the alien who owns the treasure mine on that planet will greet you!</p><p>The better an alien takes care of their mine the easier it is to dig for gems. Some aliens take better care of their mine than others. So, you won’t get exactly the same amount of gems on each planet.</p><p>What the alien looks like does not tell you anything about how many gems there are on the planet.</p><br><p><img src=""run_exp/static/images/task_images/aliens/instructions_aliens/planet/alien_planet-1.jpg""  height=""600"" width=""auto""></p><button class=""jspsych-html-btn-unchosen""><img src=""run_exp/static/images/task_images/planet-01.jpg"" height=""50""></button><button class=""jspsych-html-btn-chosen""><img src=""run_exp/static/images/task_images/planet-02.jpg"" height=""50""></button><p><b>[press the space bar to lock in your answer]<b><br></p>",32,,,,,,,,,,,,,,,,,,,,,,,,
time_out,22,206154,0.0-9.0-0.0,"""event"",""trial"",""time""
""focus"",""0"",""0""
""focus"",""0"",""0""
""fullscreenenter"",""1"",""6580""
","
","""event"",""trial"",""time""
""focus"",""0"",""0""
""focus"",""0"",""0""
","""event"",""trial"",""time""
""fullscreenenter"",""1"",""6580""
","
",,null,run_exp/static/audio/clip_7_timeout.m4a,null,"<p>If you don't make your choice fast enough, you’ll have to wait a few seconds before you can make another one.</p><p>You can’t dig for more gems or travel to new planets. You just have to sit and wait.</p><br><p><img src='run_exp/static/images/task_images/time_out.jpg'  height='600' width='auto'></p>",,,,,,,,,,,,,,,,,,,,,,,
time_out,23,208855,0.0-9.0-1.0,"""event"",""trial"",""time""
""focus"",""0"",""0""
""focus"",""0"",""0""
""fullscreenenter"",""1"",""6580""
","
","""event"",""trial"",""time""
""focus"",""0"",""0""
""focus"",""0"",""0""
","""event"",""trial"",""time""
""fullscreenenter"",""1"",""6580""
","
",,2697.8,"<p>If you don't make your choice fast enough, you’ll have to wait a few seconds before you can make another one.</p><p>You can’t dig for more gems or travel to new planets. You just have to sit and wait.</p><br><p><img src='run_exp/static/images/task_images/time_out.jpg'  height='600' width='auto'></p>",,,,,,,1,,,,,,,,,,,,,,,,,,
html-keyboard-response,24,208948,0.0-9.0-2.0,"""event"",""trial"",""time""
""focus"",""0"",""0""
""focus"",""0"",""0""
""fullscreenenter"",""1"",""6580""
","
","""event"",""trial"",""time""
""focus"",""0"",""0""
""focus"",""0"",""0""
","""event"",""trial"",""time""
""fullscreenenter"",""1"",""6580""
","
",,91.2,"<p>If you don't make your choice fast enough, you’ll have to wait a few seconds before you can make another one.</p><p>You can’t dig for more gems or travel to new planets. You just have to sit and wait.</p><br><p><img src='run_exp/static/images/task_images/time_out.jpg'  height='600' width='auto'></p><button class=""jspsych-html-btn-unchosen""><img src=""run_exp/static/images/task_images/planet-01.jpg"" height=""50""></button><button class=""jspsych-html-btn-chosen""><img src=""run_exp/static/images/task_images/planet-02.jpg"" height=""50""></button><p><b>[press the space bar to lock in your answer]<b><br></p>",32,,,,,,,,,,,,,,,,,,,,,,,,
instruc_break,25,224614,0.0-10.0-0.0,"""event"",""trial"",""time""
""focus"",""0"",""0""
""focus"",""0"",""0""
""fullscreenenter"",""1"",""6580""
","
","""event"",""trial"",""time""
""focus"",""0"",""0""
""focus"",""0"",""0""
","""event"",""trial"",""time""
""fullscreenenter"",""1"",""6580""
","
",,null,run_exp/static/audio/clip_8_break.m4a,null,"<p> After digging and traveling for a while, you’ll be able to take a break at home base. </p><p>The game will last 20 minutes no matter what.</p><p>You will visit home base every 5 minutes, so, you will visit home base three times during the game.</p><br><p><img src='run_exp/static/images/task_images/home_base.jpg' height='600' width='auto'></p>",,,,,,,,,,,,,,,,,,,,,,,
instruc_break,26,226149,0.0-10.0-1.0,"""event"",""trial"",""time""
""focus"",""0"",""0""
""focus"",""0"",""0""
""fullscreenenter"",""1"",""6580""
","
","""event"",""trial"",""time""
""focus"",""0"",""0""
""focus"",""0"",""0""
","""event"",""trial"",""time""
""fullscreenenter"",""1"",""6580""
","
",,1531.6,"<p> After digging and traveling for a while, you’ll be able to take a break at home base. </p><p>The game will last 20 minutes no matter what.</p><p>You will visit home base every 5 minutes, so, you will visit home base three times during the game.</p><br><p><img src='run_exp/static/images/task_images/home_base.jpg' height='600' width='auto'></p>",,,,,,,1,,,,,,,,,,,,,,,,,,
html-keyboard-response,27,226327,0.0-10.0-2.0,"""event"",""trial"",""time""
""focus"",""0"",""0""
""focus"",""0"",""0""
""fullscreenenter"",""1"",""6580""
","
","""event"",""trial"",""time""
""focus"",""0"",""0""
""focus"",""0"",""0""
","""event"",""trial"",""time""
""fullscreenenter"",""1"",""6580""
","
",,175.7,"<p> After digging and traveling for a while, you’ll be able to take a break at home base. </p><p>The game will last 20 minutes no matter what.</p><p>You will visit home base every 5 minutes, so, you will visit home base three times during the game.</p><br><p><img src='run_exp/static/images/task_images/home_base.jpg' height='600' width='auto'></p><button class=""jspsych-html-btn-unchosen""><img src=""run_exp/static/images/task_images/planet-01.jpg"" height=""50""></button><button class=""jspsych-html-btn-chosen""><img src=""run_exp/static/images/task_images/planet-02.jpg"" height=""50""></button><p><b>[press the space bar to lock in your answer]<b><br></p>",32,,,,,,,,,,,,,,,,,,,,,,,,
instruc_prac_game,28,236477,0.0-11.0-0.0,"""event"",""trial"",""time""
""focus"",""0"",""0""
""focus"",""0"",""0""
""fullscreenenter"",""1"",""6580""
","
","""event"",""trial"",""time""
""focus"",""0"",""0""
""focus"",""0"",""0""
","""event"",""trial"",""time""
""fullscreenenter"",""1"",""6580""
","
",,null,run_exp/static/audio/clip_9_practice.m4a,null,"<p> Are you ready to play a practice game? </p> <p>In this practice game, you'll be digging up barrels of gems. But, in the real game, you'll be digging up the gems themselves. </p>",,,,,,,,,,,,,,,,,,,,,,,
html-button-response,29,238958,0.0-11.0-1.0,"""event"",""trial"",""time""
""focus"",""0"",""0""
""focus"",""0"",""0""
""fullscreenenter"",""1"",""6580""
","
","""event"",""trial"",""time""
""focus"",""0"",""0""
""focus"",""0"",""0""
","""event"",""trial"",""time""
""fullscreenenter"",""1"",""6580""
","
",,2474.6,"<p> Are you ready to play a practice game? </p> <p>In this practice game, you'll be digging up barrels of gems. But, in the real game, you'll be digging up the gems themselves. </p>",,,,,,,0,,,,,,,,,,,,,,,,,,
alien_welcome_prac,30,243974,0.0-12.0-0.0,"""event"",""trial"",""time""
""focus"",""0"",""0""
""focus"",""0"",""0""
""fullscreenenter"",""1"",""6580""
","
","""event"",""trial"",""time""
""focus"",""0"",""0""
""focus"",""0"",""0""
","""event"",""trial"",""time""
""fullscreenenter"",""1"",""6580""
","
",,null,run_exp/static/images/task_images/aliens/practice_aliens/planet/alien_planet-5.jpg,null,,,,,,,,,,,,,,,,,,,,,,,,
land_prac,31,244487,0.0-12.0-1.0,"""event"",""trial"",""time""
""focus"",""0"",""0""
""focus"",""0"",""0""
""fullscreenenter"",""1"",""6580""
","
","""event"",""trial"",""time""
""focus"",""0"",""0""
""focus"",""0"",""0""
","""event"",""trial"",""time""
""fullscreenenter"",""1"",""6580""
","
",,null,run_exp/static/images/task_images/land.jpg,null,,,,,,,105,,,0,,,,,,,,,,,,,,
dig_prac,32,246504,0.0-12.0-2.0,"""event"",""trial"",""time""
""focus"",""0"",""0""
""focus"",""0"",""0""
""fullscreenenter"",""1"",""6580""
","
","""event"",""trial"",""time""
""focus"",""0"",""0""
""focus"",""0"",""0""
","""event"",""trial"",""time""
""fullscreenenter"",""1"",""6580""
","
",,,,,,,,,,,,"[{""stimulus"":""run_exp/static/images/task_images/dig.jpg"",""time"":0.30000000004656613},{""stimulus"":""run_exp/static/images/task_images/land.jpg"",""time"":684.8000000000466},{""stimulus"":""run_exp/static/images/task_images/dig.jpg"",""time"":1353.7000000000698}]",[],,,,,,,,,,,,,,,
harvest_prac,33,247522,0.0-12.0-3.0,"""event"",""trial"",""time""
""focus"",""0"",""0""
""focus"",""0"",""0""
""fullscreenenter"",""1"",""6580""
","
","""event"",""trial"",""time""
""focus"",""0"",""0""
""focus"",""0"",""0""
","""event"",""trial"",""time""
""fullscreenenter"",""1"",""6580""
","
",,null,run_exp/static/images/task_images/barrel_text.jpg,null,,,,,,,,,,,,,,,,,,,,,,,,
decision_prac,34,248734,0.0-12.0-4.0,"""event"",""trial"",""time""
""focus"",""0"",""0""
""focus"",""0"",""0""
""fullscreenenter"",""1"",""6580""
","
","""event"",""trial"",""time""
""focus"",""0"",""0""
""focus"",""0"",""0""
","""event"",""trial"",""time""
""fullscreenenter"",""1"",""6580""
","
",,1209.4,run_exp/static/images/task_images/land.jpg,65,,,,,,,,,,,1,,,,,,,,,,,,,
dig_prac,35,250743,0.0-13.0-0.0,"""event"",""trial"",""time""
""focus"",""0"",""0""
""focus"",""0"",""0""
""fullscreenenter"",""1"",""6580""
","
","""event"",""trial"",""time""
""focus"",""0"",""0""
""focus"",""0"",""0""
","""event"",""trial"",""time""
""fullscreenenter"",""1"",""6580""
","
",,,,,,,,,,,,"[{""stimulus"":""run_exp/static/images/task_images/dig.jpg"",""time"":0.40000000002328306},{""stimulus"":""run_exp/static/images/task_images/land.jpg"",""time"":671.0999999999767},{""stimulus"":""run_exp/static/images/task_images/dig.jpg"",""time"":1339}]",[],,,,,,,,,,,,,,,
harvest_prac,36,251764,0.0-13.0-1.0,"""event"",""trial"",""time""
""focus"",""0"",""0""
""focus"",""0"",""0""
""fullscreenenter"",""1"",""6580""
","
","""event"",""trial"",""time""
""focus"",""0"",""0""
""focus"",""0"",""0""
","""event"",""trial"",""time""
""fullscreenenter"",""1"",""6580""
","
",,null,run_exp/static/images/task_images/barrel_text.jpg,null,,,,,,,,,,,,,,,,,,,,,,,,
decision_prac,37,252187,0.0-13.0-2.0,"""event"",""trial"",""time""
""focus"",""0"",""0""
""focus"",""0"",""0""
""fullscreenenter"",""1"",""6580""
","
","""event"",""trial"",""time""
""focus"",""0"",""0""
""focus"",""0"",""0""
","""event"",""trial"",""time""
""fullscreenenter"",""1"",""6580""
","
",,421.1,run_exp/static/images/task_images/land.jpg,65,,,,,,,,,,,2,,,,,,,,,,,,,
dig_prac,38,254198,0.0-14.0-0.0,"""event"",""trial"",""time""
""focus"",""0"",""0""
""focus"",""0"",""0""
""fullscreenenter"",""1"",""6580""
","
","""event"",""trial"",""time""
""focus"",""0"",""0""
""focus"",""0"",""0""
","""event"",""trial"",""time""
""fullscreenenter"",""1"",""6580""
","
",,,,,,,,,,,,"[{""stimulus"":""run_exp/static/images/task_images/dig.jpg"",""time"":0.09999999997671694},{""stimulus"":""run_exp/static/images/task_images/land.jpg"",""time"":683.1999999999534},{""stimulus"":""run_exp/static/images/task_images/dig.jpg"",""time"":1337.7999999999302}]",[],,,,,,,,,,,,,,,
harvest_prac,39,255202,0.0-14.0-1.0,"""event"",""trial"",""time""
""focus"",""0"",""0""
""focus"",""0"",""0""
""fullscreenenter"",""1"",""6580""
","
","""event"",""trial"",""time""
""focus"",""0"",""0""
""focus"",""0"",""0""
","""event"",""trial"",""time""
""fullscreenenter"",""1"",""6580""
","
",,null,run_exp/static/images/task_images/barrel_text.jpg,null,,,,,,,,,,,,,,,,,,,,,,,,
decision_prac,40,257083,0.0-14.0-2.0,"""event"",""trial"",""time""
""focus"",""0"",""0""
""focus"",""0"",""0""
""fullscreenenter"",""1"",""6580""
","
","""event"",""trial"",""time""
""focus"",""0"",""0""
""focus"",""0"",""0""
","""event"",""trial"",""time""
""fullscreenenter"",""1"",""6580""
","
",,1879.3,run_exp/static/images/task_images/land.jpg,65,,,,,,,,,,,3,,,,,,,,,,,,,
dig_prac,41,259099,0.0-15.0-0.0,"""event"",""trial"",""time""
""focus"",""0"",""0""
""focus"",""0"",""0""
""fullscreenenter"",""1"",""6580""
","
","""event"",""trial"",""time""
""focus"",""0"",""0""
""focus"",""0"",""0""
","""event"",""trial"",""time""
""fullscreenenter"",""1"",""6580""
","
",,,,,,,,,,,,"[{""stimulus"":""run_exp/static/images/task_images/dig.jpg"",""time"":0.40000000002328306},{""stimulus"":""run_exp/static/images/task_images/land.jpg"",""time"":678.7999999999302},{""stimulus"":""run_exp/static/images/task_images/dig.jpg"",""time"":1339.5999999999767}]",[],,,,,,,,,,,,,,,
harvest_prac,42,260106,0.0-15.0-1.0,"""event"",""trial"",""time""
""focus"",""0"",""0""
""focus"",""0"",""0""
""fullscreenenter"",""1"",""6580""
","
","""event"",""trial"",""time""
""focus"",""0"",""0""
""focus"",""0"",""0""
","""event"",""trial"",""time""
""fullscreenenter"",""1"",""6580""
","
",,null,run_exp/static/images/task_images/barrel_text.jpg,null,,,,,,,,,,,,,,,,,,,,,,,,
decision_prac,43,262686,0.0-15.0-2.0,"""event"",""trial"",""time""
""focus"",""0"",""0""
""focus"",""0"",""0""
""fullscreenenter"",""1"",""6580""
","
","""event"",""trial"",""time""
""focus"",""0"",""0""
""focus"",""0"",""0""
","""event"",""trial"",""time""
""fullscreenenter"",""1"",""6580""
","
",,2577.4,run_exp/static/images/task_images/land.jpg,65,,,,,,,,,,,4,,,,,,,,,,,,,
dig_prac,44,264703,0.0-16.0-0.0,"""event"",""trial"",""time""
""focus"",""0"",""0""
""focus"",""0"",""0""
""fullscreenenter"",""1"",""6580""
","
","""event"",""trial"",""time""
""focus"",""0"",""0""
""focus"",""0"",""0""
","""event"",""trial"",""time""
""fullscreenenter"",""1"",""6580""
","
",,,,,,,,,,,,"[{""stimulus"":""run_exp/static/images/task_images/dig.jpg"",""time"":0.7000000000698492},{""stimulus"":""run_exp/static/images/task_images/land.jpg"",""time"":675.9000000000233},{""stimulus"":""run_exp/static/images/task_images/dig.jpg"",""time"":1348.9000000000233}]",[],,,,,,,,,,,,,,,
harvest_prac,45,265712,0.0-16.0-1.0,"""event"",""trial"",""time""
""focus"",""0"",""0""
""focus"",""0"",""0""
""fullscreenenter"",""1"",""6580""
","
","""event"",""trial"",""time""
""focus"",""0"",""0""
""focus"",""0"",""0""
","""event"",""trial"",""time""
""fullscreenenter"",""1"",""6580""
","
",,null,run_exp/static/images/task_images/barrel_text.jpg,null,,,,,,,,,,,,,,,,,,,,,,,,
decision_prac,46,267088,0.0-16.0-2.0,"""event"",""trial"",""time""
""focus"",""0"",""0""
""focus"",""0"",""0""
""fullscreenenter"",""1"",""6580""
","
","""event"",""trial"",""time""
""focus"",""0"",""0""
""focus"",""0"",""0""
","""event"",""trial"",""time""
""fullscreenenter"",""1"",""6580""
","
",,1373.2,run_exp/static/images/task_images/land.jpg,65,,,,,,,,,,,,1,,,,,,,,,,,,
quiz_instruc,47,269946,0.0-17.0-0.0,"""event"",""trial"",""time""
""focus"",""0"",""0""
""focus"",""0"",""0""
""fullscreenenter"",""1"",""6580""
","
","""event"",""trial"",""time""
""focus"",""0"",""0""
""focus"",""0"",""0""
","""event"",""trial"",""time""
""fullscreenenter"",""1"",""6580""
","
",,2849.6,run_exp/static/audio/clip_10_quiz.m4a,,,,,,,0,,,,,,,,,,,,,,,,,,
instruc_repeat,48,312707,0.0-17.0-1.0,"""event"",""trial"",""time""
""focus"",""0"",""0""
""focus"",""0"",""0""
""fullscreenenter"",""1"",""6580""
","
","""event"",""trial"",""time""
""focus"",""0"",""0""
""focus"",""0"",""0""
","""event"",""trial"",""time""
""fullscreenenter"",""1"",""6580""
","
",,null,"<p> Are you ready to play a practice game? </p> <p>In this practice game, you'll be digging up barrels of gems. But, in the real game, you'll be digging up the gems themselves. </p>",null,"<p>In this game, your goal is to collect as many gems as you can. That’s how you will win bonus money. </p> <p>The entire game will last 20 minutes no matter how many gems you collect or how many planets you visit. </p><p>To stay on a planet and dig again, press the letter A on your keyboard. To leave for a new planet, press the letter L.</p><p>The more you dig on a planet, the fewer gems you’ll get with each dig which is why you might consider leaving for a new planet. </p><p>When you arrive at a new planet, you’ll be greeted by an alien. What the alien looks like does not tell you anything about how much treasure is on the planet. </p>",,,,,,,,,,,,,,,,,,,,,,,
instruc_repeat_continue,49,327607,0.0-17.0-2.0,"""event"",""trial"",""time""
""focus"",""0"",""0""
""focus"",""0"",""0""
""fullscreenenter"",""1"",""6580""
","
","""event"",""trial"",""time""
""focus"",""0"",""0""
""focus"",""0"",""0""
","""event"",""trial"",""time""
""fullscreenenter"",""1"",""6580""
","
",,14895.4,"<p> Are you ready to play a practice game? </p> <p>In this practice game, you'll be digging up barrels of gems. But, in the real game, you'll be digging up the gems themselves. </p>",,,,,,,0,,,,,,,,,,,,,,,,,,
quiz_q_1_ask,50,332881,0.0-17.0-3.0,"""event"",""trial"",""time""
""focus"",""0"",""0""
""focus"",""0"",""0""
""fullscreenenter"",""1"",""6580""
","
","""event"",""trial"",""time""
""focus"",""0"",""0""
""focus"",""0"",""0""
","""event"",""trial"",""time""
""fullscreenenter"",""1"",""6580""
","
",,5271.5,run_exp/static/audio/clip_11_q1_ask.m4a,,,,,,,2,,,,,,,,,,,,,,,,,,
quiz_q_1_fb_correct,51,336743,0.0-18.0-0.0,"""event"",""trial"",""time""
""focus"",""0"",""0""
""focus"",""0"",""0""
""fullscreenenter"",""1"",""6580""
","
","""event"",""trial"",""time""
""focus"",""0"",""0""
""focus"",""0"",""0""
","""event"",""trial"",""time""
""fullscreenenter"",""1"",""6580""
","
",,null,run_exp/static/audio/clip_12_q1_correct.m4a,null,<p>That’s correct. You win extra money by collecting more gems.</p>,,,,,,,,,,,,,,,,,,,,,,,
quiz_q_2_ask,52,341019,0.0-18.0-1.0,"""event"",""trial"",""time""
""focus"",""0"",""0""
""focus"",""0"",""0""
""fullscreenenter"",""1"",""6580""
","
","""event"",""trial"",""time""
""focus"",""0"",""0""
""focus"",""0"",""0""
","""event"",""trial"",""time""
""fullscreenenter"",""1"",""6580""
","
",,4272.7,run_exp/static/audio/clip_14_q2_ask.m4a,,,,,,,1,,,,,,,,,,,,,,,,,,
quiz_q_2_fb_correct,53,345039,0.0-19.0-0.0,"""event"",""trial"",""time""
""focus"",""0"",""0""
""focus"",""0"",""0""
""fullscreenenter"",""1"",""6580""
","
","""event"",""trial"",""time""
""focus"",""0"",""0""
""focus"",""0"",""0""
","""event"",""trial"",""time""
""fullscreenenter"",""1"",""6580""
","
",,null,run_exp/static/audio/clip_15_q2_correct.m4a,null,<p>That’s correct. The experiment is 20 minutes no matter what.</p>,,,,,,,,,,,,,,,,,,,,,,,
quiz_q_3_ask,54,350660,0.0-19.0-1.0,"""event"",""trial"",""time""
""focus"",""0"",""0""
""focus"",""0"",""0""
""fullscreenenter"",""1"",""6580""
","
","""event"",""trial"",""time""
""focus"",""0"",""0""
""focus"",""0"",""0""
","""event"",""trial"",""time""
""fullscreenenter"",""1"",""6580""
","
",,5617.6,run_exp/static/audio/clip_17_q3_ask.m4a,,,,,,,1,,,,,,,,,,,,,,,,,,
quiz_q_3_fb_correct,55,354658,0.0-20.0-0.0,"""event"",""trial"",""time""
""focus"",""0"",""0""
""focus"",""0"",""0""
""fullscreenenter"",""1"",""6580""
","
","""event"",""trial"",""time""
""focus"",""0"",""0""
""focus"",""0"",""0""
","""event"",""trial"",""time""
""fullscreenenter"",""1"",""6580""
","
",,null,run_exp/static/audio/clip_18_q3_correct.m4a,null,<p> That’s correct. You press the letter L to travel to a new planet.</p>,,,,,,,,,,,,,,,,,,,,,,,
quiz_q_4_ask,56,357985,0.0-20.0-1.0,"""event"",""trial"",""time""
""focus"",""0"",""0""
""focus"",""0"",""0""
""fullscreenenter"",""1"",""6580""
","
","""event"",""trial"",""time""
""focus"",""0"",""0""
""focus"",""0"",""0""
","""event"",""trial"",""time""
""fullscreenenter"",""1"",""6580""
","
",,3324.7,run_exp/static/audio/clip_20_q4_ask.m4a,,,,,,,0,,,,,,,,,,,,,,,,,,
quiz_q_4_fb_correct,57,363319,0.0-21.0-0.0,"""event"",""trial"",""time""
""focus"",""0"",""0""
""focus"",""0"",""0""
""fullscreenenter"",""1"",""6580""
","
","""event"",""trial"",""time""
""focus"",""0"",""0""
""focus"",""0"",""0""
","""event"",""trial"",""time""
""fullscreenenter"",""1"",""6580""
","
",,null,run_exp/static/audio/clip_21_q4_correct.m4a,null,<p> That’s correct. The more you dig on a planet the fewer gems you’ll get with each dig. </p>,,,,,,,,,,,,,,,,,,,,,,,
quiz_q_5_ask,58,372438,0.0-21.0-1.0,"""event"",""trial"",""time""
""focus"",""0"",""0""
""focus"",""0"",""0""
""fullscreenenter"",""1"",""6580""
","
","""event"",""trial"",""time""
""focus"",""0"",""0""
""focus"",""0"",""0""
","""event"",""trial"",""time""
""fullscreenenter"",""1"",""6580""
","
",,9110.8,run_exp/static/audio/clip_23_q5_ask.m4a,,,,,,,1,,,,,,,,,,,,,,,,,,
quiz_q_5_fb_correct,59,377479,0.0-22.0-0.0,"""event"",""trial"",""time""
""focus"",""0"",""0""
""focus"",""0"",""0""
""fullscreenenter"",""1"",""6580""
","
","""event"",""trial"",""time""
""focus"",""0"",""0""
""focus"",""0"",""0""
","""event"",""trial"",""time""
""fullscreenenter"",""1"",""6580""
","
",,null,run_exp/static/audio/clip_24_q5_correct.m4a,null,<p> That’s correct. The alien tells you nothing about how much treasure is on the planet.</p>,,,,,,,,,,,,,,,,,,,,,,,
quiz_correct,60,380960,0.0-23.0-0.0,"""event"",""trial"",""time""
""focus"",""0"",""0""
""focus"",""0"",""0""
""fullscreenenter"",""1"",""6580""
","
","""event"",""trial"",""time""
""focus"",""0"",""0""
""focus"",""0"",""0""
","""event"",""trial"",""time""
""fullscreenenter"",""1"",""6580""
","
",,null,run_exp/static/audio/clip_26_correct_quiz.m4a,null,,,,,,,,,,,,,,,,,,,,,,,,
quiz_correct_continue,61,382948,0.0-23.0-1.0,"""event"",""trial"",""time""
""focus"",""0"",""0""
""focus"",""0"",""0""
""fullscreenenter"",""1"",""6580""
","
","""event"",""trial"",""time""
""focus"",""0"",""0""
""focus"",""0"",""0""
","""event"",""trial"",""time""
""fullscreenenter"",""1"",""6580""
","
",,1986.7,<p>Good job! You're now ready to move on to the real game!</p>,,,,,,,0,,,,,,,,,,,,,,,,,,
audio-keyboard-response,62,393083,0.0-23.0-2.0,"""event"",""trial"",""time""
""focus"",""0"",""0""
""focus"",""0"",""0""
""fullscreenenter"",""1"",""6580""
","
","""event"",""trial"",""time""
""focus"",""0"",""0""
""focus"",""0"",""0""
","""event"",""trial"",""time""
""fullscreenenter"",""1"",""6580""
","
",,null,run_exp/static/audio/clip_28_real_game.m4a,null,,,,,,,,,,,,,,,,,,,,,,,,
instruc_begin_exp_contine,63,394362,0.0-23.0-3.0,"""event"",""trial"",""time""
""focus"",""0"",""0""
""focus"",""0"",""0""
""fullscreenenter"",""1"",""6580""
","
","""event"",""trial"",""time""
""focus"",""0"",""0""
""focus"",""0"",""0""
","""event"",""trial"",""time""
""fullscreenenter"",""1"",""6580""
","
",,1272.1,"<p>Now that you know how  to dig for space treasure and travel to new planets,you can start exploring! </p><p>Do you want to go over the instructions again or get started with the real game?</p>",,,,,,,1,,,,,,1,,,,,,,,,,,,
alien_welcome,64,399369,0.0-24.0-0.0,"""event"",""trial"",""time""
""focus"",""0"",""0""
""focus"",""0"",""0""
""fullscreenenter"",""1"",""6580""
","
","""event"",""trial"",""time""
""focus"",""0"",""0""
""focus"",""0"",""0""
","""event"",""trial"",""time""
""fullscreenenter"",""1"",""6580""
","
",,null,run_exp/static/images/task_images/aliens/old_aliens/planet/alien_planet-41.jpg,null,,,,,,,,,,,,,41,"41,79,20,69,14,6,21,7,9,59,34,16,63,53,65,31,25,55,17,46,50,57,80,76,77,61,47,51,36,73,48,18,39",,,,,,,,,,
land,65,399879,0.0-24.0-1.0,"""event"",""trial"",""time""
""focus"",""0"",""0""
""focus"",""0"",""0""
""fullscreenenter"",""1"",""6580""
","
","""event"",""trial"",""time""
""focus"",""0"",""0""
""focus"",""0"",""0""
","""event"",""trial"",""time""
""fullscreenenter"",""1"",""6580""
","
",,null,run_exp/static/images/task_images/land.jpg,null,,,,,,,106,,,1,,,,,,,,,,,,,,
dig,66,401899,0.0-24.0-2.0,"""event"",""trial"",""time""
""focus"",""0"",""0""
""focus"",""0"",""0""
""fullscreenenter"",""1"",""6580""
","
","""event"",""trial"",""time""
""focus"",""0"",""0""
""focus"",""0"",""0""
","""event"",""trial"",""time""
""fullscreenenter"",""1"",""6580""
","
",,,,,,,,,,,,"[{""stimulus"":""run_exp/static/images/task_images/dig.jpg"",""time"":0.6999999999534339},{""stimulus"":""run_exp/static/images/task_images/land.jpg"",""time"":684},{""stimulus"":""run_exp/static/images/task_images/dig.jpg"",""time"":1349.5}]",[],1,,,,,,,,,,,,,,
harvest,67,402918,0.0-24.0-3.0,"""event"",""trial"",""time""
""focus"",""0"",""0""
""focus"",""0"",""0""
""fullscreenenter"",""1"",""6580""
","
","""event"",""trial"",""time""
""focus"",""0"",""0""
""focus"",""0"",""0""
","""event"",""trial"",""time""
""fullscreenenter"",""1"",""6580""
","
",,null,run_exp/static/images/task_images/gems/106.jpg,null,,,,,,,15,,,1,,,,,106,0.139825815,0.141509434,,,,,,,
decision,68,403540,0.0-24.0-4.0,"""event"",""trial"",""time""
""focus"",""0"",""0""
""focus"",""0"",""0""
""fullscreenenter"",""1"",""6580""
","
","""event"",""trial"",""time""
""focus"",""0"",""0""
""focus"",""0"",""0""
","""event"",""trial"",""time""
""fullscreenenter"",""1"",""6580""
","
",,618.1,run_exp/static/images/task_images/land.jpg,65,,,,,,,15,,,1,,,,,,,,9177,1,0,FALSE,,,
dig,69,405949,0.0-25.0-0.0,"""event"",""trial"",""time""
""focus"",""0"",""0""
""focus"",""0"",""0""
""fullscreenenter"",""1"",""6580""
","
","""event"",""trial"",""time""
""focus"",""0"",""0""
""focus"",""0"",""0""
","""event"",""trial"",""time""
""fullscreenenter"",""1"",""6580""
","
",,,,,,,,,,,,"[{""stimulus"":""run_exp/static/images/task_images/dig.jpg"",""time"":0.5},{""stimulus"":""run_exp/static/images/task_images/land.jpg"",""time"":803},{""stimulus"":""run_exp/static/images/task_images/dig.jpg"",""time"":1599.7000000000698}]",[],1,,,,,,,,,,,,,,
harvest,70,406970,0.0-25.0-1.0,"""event"",""trial"",""time""
""focus"",""0"",""0""
""focus"",""0"",""0""
""fullscreenenter"",""1"",""6580""
","
","""event"",""trial"",""time""
""focus"",""0"",""0""
""focus"",""0"",""0""
","""event"",""trial"",""time""
""fullscreenenter"",""1"",""6580""
","
",,null,run_exp/static/images/task_images/gems/15.jpg,null,,,,,,,2,,,1,,,,,15,0.146319453,0.133333333,,,,,,,
decision,71,408396,0.0-25.0-2.0,"""event"",""trial"",""time""
""focus"",""0"",""0""
""focus"",""0"",""0""
""fullscreenenter"",""1"",""6580""
","
","""event"",""trial"",""time""
""focus"",""0"",""0""
""focus"",""0"",""0""
","""event"",""trial"",""time""
""fullscreenenter"",""1"",""6580""
","
",,1422.1,run_exp/static/images/task_images/land.jpg,65,,,,,,,2,,,1,,,,,,,,14031,1,1,FALSE,,,
dig,72,409988,0.0-26.0-0.0,"""event"",""trial"",""time""
""focus"",""0"",""0""
""focus"",""0"",""0""
""fullscreenenter"",""1"",""6580""
","
","""event"",""trial"",""time""
""focus"",""0"",""0""
""focus"",""0"",""0""
","""event"",""trial"",""time""
""fullscreenenter"",""1"",""6580""
","
",,,,,,,,,,,,"[{""stimulus"":""run_exp/static/images/task_images/dig.jpg"",""time"":0.30000000004656613},{""stimulus"":""run_exp/static/images/task_images/land.jpg"",""time"":529.3000000000466},{""stimulus"":""run_exp/static/images/task_images/dig.jpg"",""time"":1065.3000000000466}]",[],1,,,,,,,,,,,,,,
harvest,73,410994,0.0-26.0-1.0,"""event"",""trial"",""time""
""focus"",""0"",""0""
""focus"",""0"",""0""
""fullscreenenter"",""1"",""6580""
","
","""event"",""trial"",""time""
""focus"",""0"",""0""
""focus"",""0"",""0""
","""event"",""trial"",""time""
""fullscreenenter"",""1"",""6580""
","
",,null,run_exp/static/images/task_images/gems/2.jpg,null,,,,,,,0,,,1,,,,,2,0.201157436,0,,,,,,,
decision,74,411424,0.0-26.0-2.0,"""event"",""trial"",""time""
""focus"",""0"",""0""
""focus"",""0"",""0""
""fullscreenenter"",""1"",""6580""
","
","""event"",""trial"",""time""
""focus"",""0"",""0""
""focus"",""0"",""0""
","""event"",""trial"",""time""
""fullscreenenter"",""1"",""6580""
","
",,427.3,run_exp/static/images/task_images/land.jpg,76,,,,,,,0,,,1,,,,,,,,17059,1,2,TRUE,,,
travel,75,421003,0.0-27.0-0.0,"""event"",""trial"",""time""
""focus"",""0"",""0""
""focus"",""0"",""0""
""fullscreenenter"",""1"",""6580""
","
","""event"",""trial"",""time""
""focus"",""0"",""0""
""focus"",""0"",""0""
","""event"",""trial"",""time""
""fullscreenenter"",""1"",""6580""
","
",,,,,,,,,,,,"[{""stimulus"":""run_exp/static/images/task_images/rocket-01.jpg"",""time"":0.19999999995343387},{""stimulus"":""run_exp/static/images/task_images/rocket-02.jpg"",""time"":1070.7999999999302},{""stimulus"":""run_exp/static/images/task_images/rocket-03.jpg"",""time"":2140},{""stimulus"":""run_exp/static/images/task_images/rocket-04.jpg"",""time"":3209},{""stimulus"":""run_exp/static/images/task_images/rocket-05.jpg"",""time"":4258.79999999993},{""stimulus"":""run_exp/static/images/task_images/rocket-06.jpg"",""time"":5320},{""stimulus"":""run_exp/static/images/task_images/rocket-07.jpg"",""time"":6400.29999999993},{""stimulus"":""run_exp/static/images/task_images/rocket-08.jpg"",""time"":7444.699999999953},{""stimulus"":""run_exp/static/images/task_images/rocket-09.jpg"",""time"":8524.5}]",[],1,,,,,,,,,,,,,,
alien_welcome,76,426008,0.0-27.0-1.0,"""event"",""trial"",""time""
""focus"",""0"",""0""
""focus"",""0"",""0""
""fullscreenenter"",""1"",""6580""
","
","""event"",""trial"",""time""
""focus"",""0"",""0""
""focus"",""0"",""0""
","""event"",""trial"",""time""
""fullscreenenter"",""1"",""6580""
","
",,null,run_exp/static/images/task_images/aliens/old_aliens/planet/alien_planet-79.jpg,null,,,,,,,,,,,,,79,"41,79,20,69,14,6,21,7,9,59,34,16,63,53,65,31,25,55,17,46,50,57,80,76,77,61,47,51,36,73,48,18,39",,,,,,,,,,
land,77,426518,0.0-27.0-2.0,"""event"",""trial"",""time""
""focus"",""0"",""0""
""focus"",""0"",""0""
""fullscreenenter"",""1"",""6580""
","
","""event"",""trial"",""time""
""focus"",""0"",""0""
""focus"",""0"",""0""
","""event"",""trial"",""time""
""fullscreenenter"",""1"",""6580""
","
",,null,run_exp/static/images/task_images/land.jpg,null,,,,,,,101,,,2,,,,,,,,,,,,,,
dig,78,428524,0.0-27.0-3.0,"""event"",""trial"",""time""
""focus"",""0"",""0""
""focus"",""0"",""0""
""fullscreenenter"",""1"",""6580""
","
","""event"",""trial"",""time""
""focus"",""0"",""0""
""focus"",""0"",""0""
","""event"",""trial"",""time""
""fullscreenenter"",""1"",""6580""
","
",,,,,,,,,,,,"[{""stimulus"":""run_exp/static/images/task_images/dig.jpg"",""time"":0.19999999995343387},{""stimulus"":""run_exp/static/images/task_images/land.jpg"",""time"":684},{""stimulus"":""run_exp/static/images/task_images/dig.jpg"",""time"":1340.3999999999069}]",[],2,,,,,,,,,,,,,,
harvest,79,429542,0.0-27.0-4.0,"""event"",""trial"",""time""
""focus"",""0"",""0""
""focus"",""0"",""0""
""fullscreenenter"",""1"",""6580""
","
","""event"",""trial"",""time""
""focus"",""0"",""0""
""focus"",""0"",""0""
","""event"",""trial"",""time""
""fullscreenenter"",""1"",""6580""
","
",,null,run_exp/static/images/task_images/gems/101.jpg,null,,,,,,,15,,,2,,,,,101,0.145010557,0.148514851,,,,,,,
decision,80,430274,0.0-27.0-5.0,"""event"",""trial"",""time""
""focus"",""0"",""0""
""focus"",""0"",""0""
""fullscreenenter"",""1"",""6580""
","
","""event"",""trial"",""time""
""focus"",""0"",""0""
""focus"",""0"",""0""
","""event"",""trial"",""time""
""fullscreenenter"",""1"",""6580""
","
",,730.2,run_exp/static/images/task_images/land.jpg,65,,,,,,,15,,,2,,,,,,,,35910,1,0,FALSE,,,
dig,81,432568,0.0-28.0-0.0,"""event"",""trial"",""time""
""focus"",""0"",""0""
""focus"",""0"",""0""
""fullscreenenter"",""1"",""6580""
","
","""event"",""trial"",""time""
""focus"",""0"",""0""
""focus"",""0"",""0""
","""event"",""trial"",""time""
""fullscreenenter"",""1"",""6580""
","
",,,,,,,,,,,,"[{""stimulus"":""run_exp/static/images/task_images/dig.jpg"",""time"":0.6000000000931323},{""stimulus"":""run_exp/static/images/task_images/land.jpg"",""time"":776.6000000000931},{""stimulus"":""run_exp/static/images/task_images/dig.jpg"",""time"":1524.7000000000698}]",[],2,,,,,,,,,,,,,,
harvest,82,433588,0.0-28.0-1.0,"""event"",""trial"",""time""
""focus"",""0"",""0""
""focus"",""0"",""0""
""fullscreenenter"",""1"",""6580""
","
","""event"",""trial"",""time""
""focus"",""0"",""0""
""focus"",""0"",""0""
","""event"",""trial"",""time""
""fullscreenenter"",""1"",""6580""
","
",,null,run_exp/static/images/task_images/gems/15.jpg,null,,,,,,,2,,,2,,,,,15,0.160491222,0.133333333,,,,,,,
decision,83,434283,0.0-28.0-2.0,"""event"",""trial"",""time""
""focus"",""0"",""0""
""focus"",""0"",""0""
""fullscreenenter"",""1"",""6580""
","
","""event"",""trial"",""time""
""focus"",""0"",""0""
""focus"",""0"",""0""
","""event"",""trial"",""time""
""fullscreenenter"",""1"",""6580""
","
",,692.2,run_exp/static/images/task_images/land.jpg,76,,,,,,,2,,,2,,,,,,,,39918,1,1,TRUE,,,
travel,84,443608,0.0-29.0-0.0,"""event"",""trial"",""time""
""focus"",""0"",""0""
""focus"",""0"",""0""
""fullscreenenter"",""1"",""6580""
","
","""event"",""trial"",""time""
""focus"",""0"",""0""
""focus"",""0"",""0""
","""event"",""trial"",""time""
""fullscreenenter"",""1"",""6580""
","
",,,,,,,,,,,,"[{""stimulus"":""run_exp/static/images/task_images/rocket-01.jpg"",""time"":0.5},{""stimulus"":""run_exp/static/images/task_images/rocket-02.jpg"",""time"":1050.1000000000931},{""stimulus"":""run_exp/static/images/task_images/rocket-03.jpg"",""time"":2089.20000000007},{""stimulus"":""run_exp/static/images/task_images/rocket-04.jpg"",""time"":3119},{""stimulus"":""run_exp/static/images/task_images/rocket-05.jpg"",""time"":4139.600000000093},{""stimulus"":""run_exp/static/images/task_images/rocket-06.jpg"",""time"":5172.5},{""stimulus"":""run_exp/static/images/task_images/rocket-07.jpg"",""time"":6209.800000000047},{""stimulus"":""run_exp/static/images/task_images/rocket-08.jpg"",""time"":7249.900000000023},{""stimulus"":""run_exp/static/images/task_images/rocket-09.jpg"",""time"":8290}]",[],2,,,,,,,,,,,,,,
alien_welcome,85,448623,0.0-29.0-1.0,"""event"",""trial"",""time""
""focus"",""0"",""0""
""focus"",""0"",""0""
""fullscreenenter"",""1"",""6580""
","
","""event"",""trial"",""time""
""focus"",""0"",""0""
""focus"",""0"",""0""
","""event"",""trial"",""time""
""fullscreenenter"",""1"",""6580""
","
",,null,run_exp/static/images/task_images/aliens/old_aliens/planet/alien_planet-20.jpg,null,,,,,,,,,,,,,20,"41,79,20,69,14,6,21,7,9,59,34,16,63,53,65,31,25,55,17,46,50,57,80,76,77,61,47,51,36,73,48,18,39",,,,,,,,,,
land,86,449140,0.0-29.0-2.0,"""event"",""trial"",""time""
""focus"",""0"",""0""
""focus"",""0"",""0""
""fullscreenenter"",""1"",""6580""
","
","""event"",""trial"",""time""
""focus"",""0"",""0""
""focus"",""0"",""0""
","""event"",""trial"",""time""
""fullscreenenter"",""1"",""6580""
","
",,null,run_exp/static/images/task_images/land.jpg,null,,,,,,,109,,,3,,,,,,,,,,,,,,
dig,87,451158,0.0-29.0-3.0,"""event"",""trial"",""time""
""focus"",""0"",""0""
""focus"",""0"",""0""
""fullscreenenter"",""1"",""6580""
","
","""event"",""trial"",""time""
""focus"",""0"",""0""
""focus"",""0"",""0""
","""event"",""trial"",""time""
""fullscreenenter"",""1"",""6580""
","
",,,,,,,,,,,,"[{""stimulus"":""run_exp/static/images/task_images/dig.jpg"",""time"":0.5},{""stimulus"":""run_exp/static/images/task_images/land.jpg"",""time"":686.5},{""stimulus"":""run_exp/static/images/task_images/dig.jpg"",""time"":1339.0999999999767}]",[],3,,,,,,,,,,,,,,
harvest,88,452179,0.0-29.0-4.0,"""event"",""trial"",""time""
""focus"",""0"",""0""
""focus"",""0"",""0""
""fullscreenenter"",""1"",""6580""
","
","""event"",""trial"",""time""
""focus"",""0"",""0""
""focus"",""0"",""0""
","""event"",""trial"",""time""
""fullscreenenter"",""1"",""6580""
","
",,null,run_exp/static/images/task_images/gems/109.jpg,null,,,,,,,49,,,3,,,,,109,0.449459412,0.449541284,,,,,,,
decision,89,452626,0.0-29.0-5.0,"""event"",""trial"",""time""
""focus"",""0"",""0""
""focus"",""0"",""0""
""fullscreenenter"",""1"",""6580""
","
","""event"",""trial"",""time""
""focus"",""0"",""0""
""focus"",""0"",""0""
","""event"",""trial"",""time""
""fullscreenenter"",""1"",""6580""
","
",,443.9,run_exp/static/images/task_images/land.jpg,65,,,,,,,49,,,3,,,,,,,,58261,1,0,FALSE,,,
dig,90,455208,0.0-30.0-0.0,"""event"",""trial"",""time""
""focus"",""0"",""0""
""focus"",""0"",""0""
""fullscreenenter"",""1"",""6580""
","
","""event"",""trial"",""time""
""focus"",""0"",""0""
""focus"",""0"",""0""
","""event"",""trial"",""time""
""fullscreenenter"",""1"",""6580""
","
",,,,,,,,,,,,"[{""stimulus"":""run_exp/static/images/task_images/dig.jpg"",""time"":0.5},{""stimulus"":""run_exp/static/images/task_images/land.jpg"",""time"":875.5},{""stimulus"":""run_exp/static/images/task_images/dig.jpg"",""time"":1714.4000000000233}]",[],3,,,,,,,,,,,,,,
harvest,91,456216,0.0-30.0-1.0,"""event"",""trial"",""time""
""focus"",""0"",""0""
""focus"",""0"",""0""
""fullscreenenter"",""1"",""6580""
","
","""event"",""trial"",""time""
""focus"",""0"",""0""
""focus"",""0"",""0""
","""event"",""trial"",""time""
""fullscreenenter"",""1"",""6580""
","
",,null,run_exp/static/images/task_images/gems/49.jpg,null,,,,,,,25,,,3,,,,,49,0.515541624,0.510204082,,,,,,,
decision,92,456382,0.0-30.0-2.0,"""event"",""trial"",""time""
""focus"",""0"",""0""
""focus"",""0"",""0""
""fullscreenenter"",""1"",""6580""
","
","""event"",""trial"",""time""
""focus"",""0"",""0""
""focus"",""0"",""0""
","""event"",""trial"",""time""
""fullscreenenter"",""1"",""6580""
","
",,163.3,run_exp/static/images/task_images/land.jpg,65,,,,,,,25,,,3,,,,,,,,62017,1,1,FALSE,,,
dig,93,459227,0.0-31.0-0.0,"""event"",""trial"",""time""
""focus"",""0"",""0""
""focus"",""0"",""0""
""fullscreenenter"",""1"",""6580""
","
","""event"",""trial"",""time""
""focus"",""0"",""0""
""focus"",""0"",""0""
","""event"",""trial"",""time""
""fullscreenenter"",""1"",""6580""
","
",,,,,,,,,,,,"[{""stimulus"":""run_exp/static/images/task_images/dig.jpg"",""time"":0.40000000002328306},{""stimulus"":""run_exp/static/images/task_images/land.jpg"",""time"":961.7999999999302},{""stimulus"":""run_exp/static/images/task_images/dig.jpg"",""time"":1892}]",[],3,,,,,,,,,,,,,,
harvest,94,460233,0.0-31.0-1.0,"""event"",""trial"",""time""
""focus"",""0"",""0""
""focus"",""0"",""0""
""fullscreenenter"",""1"",""6580""
","
","""event"",""trial"",""time""
""focus"",""0"",""0""
""focus"",""0"",""0""
","""event"",""trial"",""time""
""fullscreenenter"",""1"",""6580""
","
",,null,run_exp/static/images/task_images/gems/25.jpg,null,,,,,,,15,,,3,,,,,25,0.588594665,0.6,,,,,,,
decision,95,460305,0.0-31.0-2.0,"""event"",""trial"",""time""
""focus"",""0"",""0""
""focus"",""0"",""0""
""fullscreenenter"",""1"",""6580""
","
","""event"",""trial"",""time""
""focus"",""0"",""0""
""focus"",""0"",""0""
","""event"",""trial"",""time""
""fullscreenenter"",""1"",""6580""
","
",,69,run_exp/static/images/task_images/land.jpg,65,,,,,,,15,,,3,,,,,,,,65940,1,2,FALSE,,,
dig,96,463258,0.0-32.0-0.0,"""event"",""trial"",""time""
""focus"",""0"",""0""
""focus"",""0"",""0""
""fullscreenenter"",""1"",""6580""
","
","""event"",""trial"",""time""
""focus"",""0"",""0""
""focus"",""0"",""0""
","""event"",""trial"",""time""
""fullscreenenter"",""1"",""6580""
","
",,,,,,,,,,,,"[{""stimulus"":""run_exp/static/images/task_images/dig.jpg"",""time"":0.5},{""stimulus"":""run_exp/static/images/task_images/land.jpg"",""time"":986.7999999999302},{""stimulus"":""run_exp/static/images/task_images/dig.jpg"",""time"":1967}]",[],3,,,,,,,,,,,,,,
harvest,97,464265,0.0-32.0-1.0,"""event"",""trial"",""time""
""focus"",""0"",""0""
""focus"",""0"",""0""
""fullscreenenter"",""1"",""6580""
","
","""event"",""trial"",""time""
""focus"",""0"",""0""
""focus"",""0"",""0""
","""event"",""trial"",""time""
""fullscreenenter"",""1"",""6580""
","
",,null,run_exp/static/images/task_images/gems/15.jpg,null,,,,,,,7,,,3,,,,,15,0.471114384,0.466666667,,,,,,,
decision,98,465260,0.0-32.0-2.0,"""event"",""trial"",""time""
""focus"",""0"",""0""
""focus"",""0"",""0""
""fullscreenenter"",""1"",""6580""
","
","""event"",""trial"",""time""
""focus"",""0"",""0""
""focus"",""0"",""0""
","""event"",""trial"",""time""
""fullscreenenter"",""1"",""6580""
","
",,992.9,run_exp/static/images/task_images/land.jpg,76,,,,,,,7,,,3,,,,,,,,70896,1,3,TRUE,,,
travel,99,474267,0.0-33.0-0.0,"""event"",""trial"",""time""
""focus"",""0"",""0""
""focus"",""0"",""0""
""fullscreenenter"",""1"",""6580""
","
","""event"",""trial"",""time""
""focus"",""0"",""0""
""focus"",""0"",""0""
","""event"",""trial"",""time""
""fullscreenenter"",""1"",""6580""
","
",,,,,,,,,,,,"[{""stimulus"":""run_exp/static/images/task_images/rocket-01.jpg"",""time"":0.30000000004656613},{""stimulus"":""run_exp/static/images/task_images/rocket-02.jpg"",""time"":1013.6000000000931},{""stimulus"":""run_exp/static/images/task_images/rocket-03.jpg"",""time"":2014.6000000000931},{""stimulus"":""run_exp/static/images/task_images/rocket-04.jpg"",""time"":3014.100000000093},{""stimulus"":""run_exp/static/images/task_images/rocket-05.jpg"",""time"":4014.5},{""stimulus"":""run_exp/static/images/task_images/rocket-06.jpg"",""time"":5014},{""stimulus"":""run_exp/static/images/task_images/rocket-07.jpg"",""time"":6013.300000000047},{""stimulus"":""run_exp/static/images/task_images/rocket-08.jpg"",""time"":7013.900000000023},{""stimulus"":""run_exp/static/images/task_images/rocket-09.jpg"",""time"":8004}]",[],3,,,,,,,,,,,,,,
alien_welcome,100,479284,0.0-33.0-1.0,"""event"",""trial"",""time""
""focus"",""0"",""0""
""focus"",""0"",""0""
""fullscreenenter"",""1"",""6580""
","
","""event"",""trial"",""time""
""focus"",""0"",""0""
""focus"",""0"",""0""
","""event"",""trial"",""time""
""fullscreenenter"",""1"",""6580""
","
",,null,run_exp/static/images/task_images/aliens/old_aliens/planet/alien_planet-69.jpg,null,,,,,,,,,,,,,69,"41,79,20,69,14,6,21,7,9,59,34,16,63,53,65,31,25,55,17,46,50,57,80,76,77,61,47,51,36,73,48,18,39",,,,,,,,,,
land,101,479807,0.0-33.0-2.0,"""event"",""trial"",""time""
""focus"",""0"",""0""
""focus"",""0"",""0""
""fullscreenenter"",""1"",""6580""
","
","""event"",""trial"",""time""
""focus"",""0"",""0""
""focus"",""0"",""0""
","""event"",""trial"",""time""
""fullscreenenter"",""1"",""6580""
","
",,null,run_exp/static/images/task_images/land.jpg,null,,,,,,,95,,,4,,,,,,,,,,,,,,
dig,102,481828,0.0-33.0-3.0,"""event"",""trial"",""time""
""focus"",""0"",""0""
""focus"",""0"",""0""
""fullscreenenter"",""1"",""6580""
","
","""event"",""trial"",""time""
""focus"",""0"",""0""
""focus"",""0"",""0""
","""event"",""trial"",""time""
""fullscreenenter"",""1"",""6580""
","
",,,,,,,,,,,,"[{""stimulus"":""run_exp/static/images/task_images/dig.jpg"",""time"":0.19999999995343387},{""stimulus"":""run_exp/static/images/task_images/land.jpg"",""time"":679.1999999999534},{""stimulus"":""run_exp/static/images/task_images/dig.jpg"",""time"":1339.3000000000466}]",[],4,,,,,,,,,,,,,,
harvest,103,482846,0.0-33.0-4.0,"""event"",""trial"",""time""
""focus"",""0"",""0""
""focus"",""0"",""0""
""fullscreenenter"",""1"",""6580""
","
","""event"",""trial"",""time""
""focus"",""0"",""0""
""focus"",""0"",""0""
","""event"",""trial"",""time""
""fullscreenenter"",""1"",""6580""
","
",,null,run_exp/static/images/task_images/gems/95.jpg,null,,,,,,,40,,,4,,,,,95,0.416129782,0.421052632,,,,,,,
decision,104,483104,0.0-33.0-5.0,"""event"",""trial"",""time""
""focus"",""0"",""0""
""focus"",""0"",""0""
""fullscreenenter"",""1"",""6580""
","
","""event"",""trial"",""time""
""focus"",""0"",""0""
""focus"",""0"",""0""
","""event"",""trial"",""time""
""fullscreenenter"",""1"",""6580""
","
",,255.8,run_exp/static/images/task_images/land.jpg,65,,,,,,,40,,,4,,,,,,,,88739,1,0,FALSE,,,
dig,105,485863,0.0-34.0-0.0,"""event"",""trial"",""time""
""focus"",""0"",""0""
""focus"",""0"",""0""
""fullscreenenter"",""1"",""6580""
","
","""event"",""trial"",""time""
""focus"",""0"",""0""
""focus"",""0"",""0""
","""event"",""trial"",""time""
""fullscreenenter"",""1"",""6580""
","
",,,,,,,,,,,,"[{""stimulus"":""run_exp/static/images/task_images/dig.jpg"",""time"":0.30000000004656613},{""stimulus"":""run_exp/static/images/task_images/land.jpg"",""time"":915.8000000000466},{""stimulus"":""run_exp/static/images/task_images/dig.jpg"",""time"":1841.2000000000698}]",[],4,,,,,,,,,,,,,,
harvest,106,486874,0.0-34.0-1.0,"""event"",""trial"",""time""
""focus"",""0"",""0""
""focus"",""0"",""0""
""fullscreenenter"",""1"",""6580""
","
","""event"",""trial"",""time""
""focus"",""0"",""0""
""focus"",""0"",""0""
","""event"",""trial"",""time""
""fullscreenenter"",""1"",""6580""
","
",,null,run_exp/static/images/task_images/gems/40.jpg,null,,,,,,,18,,,4,,,,,40,0.444322131,0.45,,,,,,,
decision,107,486899,0.0-34.0-2.0,"""event"",""trial"",""time""
""focus"",""0"",""0""
""focus"",""0"",""0""
""fullscreenenter"",""1"",""6580""
","
","""event"",""trial"",""time""
""focus"",""0"",""0""
""focus"",""0"",""0""
","""event"",""trial"",""time""
""fullscreenenter"",""1"",""6580""
","
",,22.8,run_exp/static/images/task_images/land.jpg,65,,,,,,,18,,,4,,,,,,,,92535,1,1,FALSE,,,
dig,108,489887,0.0-35.0-0.0,"""event"",""trial"",""time""
""focus"",""0"",""0""
""focus"",""0"",""0""
""fullscreenenter"",""1"",""6580""
","
","""event"",""trial"",""time""
""focus"",""0"",""0""
""focus"",""0"",""0""
","""event"",""trial"",""time""
""fullscreenenter"",""1"",""6580""
","
",,,,,,,,,,,,"[{""stimulus"":""run_exp/static/images/task_images/dig.jpg"",""time"":0.5},{""stimulus"":""run_exp/static/images/task_images/land.jpg"",""time"":996.5},{""stimulus"":""run_exp/static/images/task_images/dig.jpg"",""time"":2000.4000000000233}]",[],4,,,,,,,,,,,,,,
harvest,109,490893,0.0-35.0-1.0,"""event"",""trial"",""time""
""focus"",""0"",""0""
""focus"",""0"",""0""
""fullscreenenter"",""1"",""6580""
","
","""event"",""trial"",""time""
""focus"",""0"",""0""
""focus"",""0"",""0""
","""event"",""trial"",""time""
""fullscreenenter"",""1"",""6580""
","
",,null,run_exp/static/images/task_images/gems/18.jpg,null,,,,,,,10,,,4,,,,,18,0.548648191,0.555555556,,,,,,,
decision,110,491920,0.0-35.0-2.0,"""event"",""trial"",""time""
""focus"",""0"",""0""
""focus"",""0"",""0""
""fullscreenenter"",""1"",""6580""
","
","""event"",""trial"",""time""
""focus"",""0"",""0""
""focus"",""0"",""0""
","""event"",""trial"",""time""
""fullscreenenter"",""1"",""6580""
","
",,1022.8,run_exp/static/images/task_images/land.jpg,76,,,,,,,10,,,4,,,,,,,,97555,1,2,TRUE,,,
travel,111,500912,0.0-36.0-0.0,"""event"",""trial"",""time""
""focus"",""0"",""0""
""focus"",""0"",""0""
""fullscreenenter"",""1"",""6580""
","
","""event"",""trial"",""time""
""focus"",""0"",""0""
""focus"",""0"",""0""
","""event"",""trial"",""time""
""fullscreenenter"",""1"",""6580""
","
",,,,,,,,,,,,"[{""stimulus"":""run_exp/static/images/task_images/rocket-01.jpg"",""time"":0.19999999995343387},{""stimulus"":""run_exp/static/images/task_images/rocket-02.jpg"",""time"":1011.0999999999767},{""stimulus"":""run_exp/static/images/task_images/rocket-03.jpg"",""time"":2003.8000000000466},{""stimulus"":""run_exp/static/images/task_images/rocket-04.jpg"",""time"":2998.6999999999534},{""stimulus"":""run_exp/static/images/task_images/rocket-05.jpg"",""time"":4004.1999999999534},{""stimulus"":""run_exp/static/images/task_images/rocket-06.jpg"",""time"":5004.300000000047},{""stimulus"":""run_exp/static/images/task_images/rocket-07.jpg"",""time"":5994.800000000047},{""stimulus"":""run_exp/static/images/task_images/rocket-08.jpg"",""time"":6984.099999999977},{""stimulus"":""run_exp/static/images/task_images/rocket-09.jpg"",""time"":7983.599999999977}]",[],4,,,,,,,,,,,,,,
alien_welcome,112,505928,0.0-36.0-1.0,"""event"",""trial"",""time""
""focus"",""0"",""0""
""focus"",""0"",""0""
""fullscreenenter"",""1"",""6580""
","
","""event"",""trial"",""time""
""focus"",""0"",""0""
""focus"",""0"",""0""
","""event"",""trial"",""time""
""fullscreenenter"",""1"",""6580""
","
",,null,run_exp/static/images/task_images/aliens/old_aliens/planet/alien_planet-14.jpg,null,,,,,,,,,,,,,14,"41,79,20,69,14,6,21,7,9,59,34,16,63,53,65,31,25,55,17,46,50,57,80,76,77,61,47,51,36,73,48,18,39",,,,,,,,,,
land,113,506447,0.0-36.0-2.0,"""event"",""trial"",""time""
""focus"",""0"",""0""
""focus"",""0"",""0""
""fullscreenenter"",""1"",""6580""
","
","""event"",""trial"",""time""
""focus"",""0"",""0""
""focus"",""0"",""0""
","""event"",""trial"",""time""
""fullscreenenter"",""1"",""6580""
","
",,null,run_exp/static/images/task_images/land.jpg,null,,,,,,,96,,,5,,,,,,,,,,,,,,
dig,114,508465,0.0-36.0-3.0,"""event"",""trial"",""time""
""focus"",""0"",""0""
""focus"",""0"",""0""
""fullscreenenter"",""1"",""6580""
","
","""event"",""trial"",""time""
""focus"",""0"",""0""
""focus"",""0"",""0""
","""event"",""trial"",""time""
""fullscreenenter"",""1"",""6580""
","
",,,,,,,,,,,,"[{""stimulus"":""run_exp/static/images/task_images/dig.jpg"",""time"":0.2999999999301508},{""stimulus"":""run_exp/static/images/task_images/land.jpg"",""time"":678.2999999999302},{""stimulus"":""run_exp/static/images/task_images/dig.jpg"",""time"":1343.5999999999767}]",[],5,,,,,,,,,,,,,,
harvest,115,509488,0.0-36.0-4.0,"""event"",""trial"",""time""
""focus"",""0"",""0""
""focus"",""0"",""0""
""fullscreenenter"",""1"",""6580""
","
","""event"",""trial"",""time""
""focus"",""0"",""0""
""focus"",""0"",""0""
","""event"",""trial"",""time""
""fullscreenenter"",""1"",""6580""
","
",,null,run_exp/static/images/task_images/gems/96.jpg,null,,,,,,,57,,,5,,,,,96,0.589927642,0.59375,,,,,,,
decision,116,510036,0.0-36.0-5.0,"""event"",""trial"",""time""
""focus"",""0"",""0""
""focus"",""0"",""0""
""fullscreenenter"",""1"",""6580""
","
","""event"",""trial"",""time""
""focus"",""0"",""0""
""focus"",""0"",""0""
","""event"",""trial"",""time""
""fullscreenenter"",""1"",""6580""
","
",,545.6,run_exp/static/images/task_images/land.jpg,65,,,,,,,57,,,5,,,,,,,,115671,1,0,FALSE,,,
dig,117,512508,0.0-37.0-0.0,"""event"",""trial"",""time""
""focus"",""0"",""0""
""focus"",""0"",""0""
""fullscreenenter"",""1"",""6580""
","
","""event"",""trial"",""time""
""focus"",""0"",""0""
""focus"",""0"",""0""
","""event"",""trial"",""time""
""fullscreenenter"",""1"",""6580""
","
",,,,,,,,,,,,"[{""stimulus"":""run_exp/static/images/task_images/dig.jpg"",""time"":0.5999999999767169},{""stimulus"":""run_exp/static/images/task_images/land.jpg"",""time"":832.3000000000466},{""stimulus"":""run_exp/static/images/task_images/dig.jpg"",""time"":1645.8000000000466}]",[],5,,,,,,,,,,,,,,
harvest,118,513512,0.0-37.0-1.0,"""event"",""trial"",""time""
""focus"",""0"",""0""
""focus"",""0"",""0""
""fullscreenenter"",""1"",""6580""
","
","""event"",""trial"",""time""
""focus"",""0"",""0""
""focus"",""0"",""0""
","""event"",""trial"",""time""
""fullscreenenter"",""1"",""6580""
","
",,null,run_exp/static/images/task_images/gems/57.jpg,null,,,,,,,29,,,5,,,,,57,0.500842245,0.50877193,,,,,,,
decision,119,513616,0.0-37.0-2.0,"""event"",""trial"",""time""
""focus"",""0"",""0""
""focus"",""0"",""0""
""fullscreenenter"",""1"",""6580""
","
","""event"",""trial"",""time""
""focus"",""0"",""0""
""focus"",""0"",""0""
","""event"",""trial"",""time""
""fullscreenenter"",""1"",""6580""
","
",,99.8,run_exp/static/images/task_images/land.jpg,65,,,,,,,29,,,5,,,,,,,,119251,1,1,FALSE,,,
dig,120,516533,0.0-38.0-0.0,"""event"",""trial"",""time""
""focus"",""0"",""0""
""focus"",""0"",""0""
""fullscreenenter"",""1"",""6580""
","
","""event"",""trial"",""time""
""focus"",""0"",""0""
""focus"",""0"",""0""
","""event"",""trial"",""time""
""fullscreenenter"",""1"",""6580""
","
",,,,,,,,,,,,"[{""stimulus"":""run_exp/static/images/task_images/dig.jpg"",""time"":0.40000000002328306},{""stimulus"":""run_exp/static/images/task_images/land.jpg"",""time"":968.2999999999302},{""stimulus"":""run_exp/static/images/task_images/dig.jpg"",""time"":1945}]",[],5,,,,,,,,,,,,,,
harvest,121,517548,0.0-38.0-1.0,"""event"",""trial"",""time""
""focus"",""0"",""0""
""focus"",""0"",""0""
""fullscreenenter"",""1"",""6580""
","
","""event"",""trial"",""time""
""focus"",""0"",""0""
""focus"",""0"",""0""
","""event"",""trial"",""time""
""fullscreenenter"",""1"",""6580""
","
",,null,run_exp/static/images/task_images/gems/29.jpg,null,,,,,,,15,,,5,,,,,29,0.503506506,0.517241379,,,,,,,
decision,122,517624,0.0-38.0-2.0,"""event"",""trial"",""time""
""focus"",""0"",""0""
""focus"",""0"",""0""
""fullscreenenter"",""1"",""6580""
","
","""event"",""trial"",""time""
""focus"",""0"",""0""
""focus"",""0"",""0""
","""event"",""trial"",""time""
""fullscreenenter"",""1"",""6580""
","
",,73.7,run_exp/static/images/task_images/land.jpg,65,,,,,,,15,,,5,,,,,,,,123259,1,2,FALSE,,,
dig,123,520555,0.0-39.0-0.0,"""event"",""trial"",""time""
""focus"",""0"",""0""
""focus"",""0"",""0""
""fullscreenenter"",""1"",""6580""
","
","""event"",""trial"",""time""
""focus"",""0"",""0""
""focus"",""0"",""0""
","""event"",""trial"",""time""
""fullscreenenter"",""1"",""6580""
","
",,,,,,,,,,,,"[{""stimulus"":""run_exp/static/images/task_images/dig.jpg"",""time"":0.30000000004656613},{""stimulus"":""run_exp/static/images/task_images/land.jpg"",""time"":988.5},{""stimulus"":""run_exp/static/images/task_images/dig.jpg"",""time"":1960}]",[],5,,,,,,,,,,,,,,
harvest,124,521560,0.0-39.0-1.0,"""event"",""trial"",""time""
""focus"",""0"",""0""
""focus"",""0"",""0""
""fullscreenenter"",""1"",""6580""
","
","""event"",""trial"",""time""
""focus"",""0"",""0""
""focus"",""0"",""0""
","""event"",""trial"",""time""
""fullscreenenter"",""1"",""6580""
","
",,null,run_exp/static/images/task_images/gems/15.jpg,null,,,,,,,7,,,5,,,,,15,0.481670384,0.466666667,,,,,,,
decision,125,522091,0.0-39.0-2.0,"""event"",""trial"",""time""
""focus"",""0"",""0""
""focus"",""0"",""0""
""fullscreenenter"",""1"",""6580""
","
","""event"",""trial"",""time""
""focus"",""0"",""0""
""focus"",""0"",""0""
","""event"",""trial"",""time""
""fullscreenenter"",""1"",""6580""
","
",,529.8,run_exp/static/images/task_images/land.jpg,76,,,,,,,7,,,5,,,,,,,,127726,1,3,TRUE,,,
travel,126,531568,0.0-40.0-0.0,"""event"",""trial"",""time""
""focus"",""0"",""0""
""focus"",""0"",""0""
""fullscreenenter"",""1"",""6580""
","
","""event"",""trial"",""time""
""focus"",""0"",""0""
""focus"",""0"",""0""
","""event"",""trial"",""time""
""fullscreenenter"",""1"",""6580""
","
",,,,,,,,,,,,"[{""stimulus"":""run_exp/static/images/task_images/rocket-01.jpg"",""time"":0.2000000000698492},{""stimulus"":""run_exp/static/images/task_images/rocket-02.jpg"",""time"":1063.7000000000698},{""stimulus"":""run_exp/static/images/task_images/rocket-03.jpg"",""time"":2112.5},{""stimulus"":""run_exp/static/images/task_images/rocket-04.jpg"",""time"":3173.5},{""stimulus"":""run_exp/static/images/task_images/rocket-05.jpg"",""time"":4221.099999999977},{""stimulus"":""run_exp/static/images/task_images/rocket-06.jpg"",""time"":5284.900000000023},{""stimulus"":""run_exp/static/images/task_images/rocket-07.jpg"",""time"":6323.70000000007},{""stimulus"":""run_exp/static/images/task_images/rocket-08.jpg"",""time"":7375.300000000047},{""stimulus"":""run_exp/static/images/task_images/rocket-09.jpg"",""time"":8434.5}]",[],5,,,,,,,,,,,,,,
alien_welcome,127,536576,0.0-40.0-1.0,"""event"",""trial"",""time""
""focus"",""0"",""0""
""focus"",""0"",""0""
""fullscreenenter"",""1"",""6580""
","
","""event"",""trial"",""time""
""focus"",""0"",""0""
""focus"",""0"",""0""
","""event"",""trial"",""time""
""fullscreenenter"",""1"",""6580""
","
",,null,run_exp/static/images/task_images/aliens/old_aliens/planet/alien_planet-6.jpg,null,,,,,,,,,,,,,6,"41,79,20,69,14,6,21,7,9,59,34,16,63,53,65,31,25,55,17,46,50,57,80,76,77,61,47,51,36,73,48,18,39",,,,,,,,,,
land,128,537093,0.0-40.0-2.0,"""event"",""trial"",""time""
""focus"",""0"",""0""
""focus"",""0"",""0""
""fullscreenenter"",""1"",""6580""
","
","""event"",""trial"",""time""
""focus"",""0"",""0""
""focus"",""0"",""0""
","""event"",""trial"",""time""
""fullscreenenter"",""1"",""6580""
","
",,null,run_exp/static/images/task_images/land.jpg,null,,,,,,,104,,,6,,,,,,,,,,,,,,
dig,129,539109,0.0-40.0-3.0,"""event"",""trial"",""time""
""focus"",""0"",""0""
""focus"",""0"",""0""
""fullscreenenter"",""1"",""6580""
","
","""event"",""trial"",""time""
""focus"",""0"",""0""
""focus"",""0"",""0""
","""event"",""trial"",""time""
""fullscreenenter"",""1"",""6580""
","
",,,,,,,,,,,,"[{""stimulus"":""run_exp/static/images/task_images/dig.jpg"",""time"":0.19999999995343387},{""stimulus"":""run_exp/static/images/task_images/land.jpg"",""time"":683.8999999999069},{""stimulus"":""run_exp/static/images/task_images/dig.jpg"",""time"":1343.5}]",[],6,,,,,,,,,,,,,,
harvest,130,540128,0.0-40.0-4.0,"""event"",""trial"",""time""
""focus"",""0"",""0""
""focus"",""0"",""0""
""fullscreenenter"",""1"",""6580""
","
","""event"",""trial"",""time""
""focus"",""0"",""0""
""focus"",""0"",""0""
","""event"",""trial"",""time""
""fullscreenenter"",""1"",""6580""
","
",,null,run_exp/static/images/task_images/gems/104.jpg,null,,,,,,,84,,,6,,,,,104,0.80416513,0.807692308,,,,,,,
decision,131,540197,0.0-40.0-5.0,"""event"",""trial"",""time""
""focus"",""0"",""0""
""focus"",""0"",""0""
""fullscreenenter"",""1"",""6580""
","
","""event"",""trial"",""time""
""focus"",""0"",""0""
""focus"",""0"",""0""
","""event"",""trial"",""time""
""fullscreenenter"",""1"",""6580""
","
",,65.4,run_exp/static/images/task_images/land.jpg,65,,,,,,,84,,,6,,,,,,,,145832,1,0,FALSE,,,
dig,132,543148,0.0-41.0-0.0,"""event"",""trial"",""time""
""focus"",""0"",""0""
""focus"",""0"",""0""
""fullscreenenter"",""1"",""6580""
","
","""event"",""trial"",""time""
""focus"",""0"",""0""
""focus"",""0"",""0""
","""event"",""trial"",""time""
""fullscreenenter"",""1"",""6580""
","
",,,,,,,,,,,,"[{""stimulus"":""run_exp/static/images/task_images/dig.jpg"",""time"":0.40000000002328306},{""stimulus"":""run_exp/static/images/task_images/land.jpg"",""time"":980.9000000000233},{""stimulus"":""run_exp/static/images/task_images/dig.jpg"",""time"":1960.3000000000466}]",[],6,,,,,,,,,,,,,,
harvest,133,544162,0.0-41.0-1.0,"""event"",""trial"",""time""
""focus"",""0"",""0""
""focus"",""0"",""0""
""fullscreenenter"",""1"",""6580""
","
","""event"",""trial"",""time""
""focus"",""0"",""0""
""focus"",""0"",""0""
","""event"",""trial"",""time""
""fullscreenenter"",""1"",""6580""
","
",,null,run_exp/static/images/task_images/gems/84.jpg,null,,,,,,,66,,,6,,,,,84,0.780404999,0.785714286,,,,,,,
decision,134,544629,0.0-41.0-2.0,"""event"",""trial"",""time""
""focus"",""0"",""0""
""focus"",""0"",""0""
""fullscreenenter"",""1"",""6580""
","
","""event"",""trial"",""time""
""focus"",""0"",""0""
""focus"",""0"",""0""
","""event"",""trial"",""time""
""fullscreenenter"",""1"",""6580""
","
",,462.9,run_exp/static/images/task_images/land.jpg,65,,,,,,,66,,,6,,,,,,,,150264,1,1,FALSE,,,
dig,135,547188,0.0-42.0-0.0,"""event"",""trial"",""time""
""focus"",""0"",""0""
""focus"",""0"",""0""
""fullscreenenter"",""1"",""6580""
","
","""event"",""trial"",""time""
""focus"",""0"",""0""
""focus"",""0"",""0""
","""event"",""trial"",""time""
""fullscreenenter"",""1"",""6580""
","
",,,,,,,,,,,,"[{""stimulus"":""run_exp/static/images/task_images/dig.jpg"",""time"":0.2000000000698492},{""stimulus"":""run_exp/static/images/task_images/land.jpg"",""time"":856.3000000000466},{""stimulus"":""run_exp/static/images/task_images/dig.jpg"",""time"":1696.1000000000931}]",[],6,,,,,,,,,,,,,,
harvest,136,548208,0.0-42.0-1.0,"""event"",""trial"",""time""
""focus"",""0"",""0""
""focus"",""0"",""0""
""fullscreenenter"",""1"",""6580""
","
","""event"",""trial"",""time""
""focus"",""0"",""0""
""focus"",""0"",""0""
","""event"",""trial"",""time""
""fullscreenenter"",""1"",""6580""
","
",,null,run_exp/static/images/task_images/gems/66.jpg,null,,,,,,,58,,,6,,,,,66,0.874014029,0.878787879,,,,,,,
decision,137,548432,0.0-42.0-2.0,"""event"",""trial"",""time""
""focus"",""0"",""0""
""focus"",""0"",""0""
""fullscreenenter"",""1"",""6580""
","
","""event"",""trial"",""time""
""focus"",""0"",""0""
""focus"",""0"",""0""
","""event"",""trial"",""time""
""fullscreenenter"",""1"",""6580""
","
",,221.7,run_exp/static/images/task_images/land.jpg,65,,,,,,,58,,,6,,,,,,,,154068,1,2,FALSE,,,
dig,138,551229,0.0-43.0-0.0,"""event"",""trial"",""time""
""focus"",""0"",""0""
""focus"",""0"",""0""
""fullscreenenter"",""1"",""6580""
","
","""event"",""trial"",""time""
""focus"",""0"",""0""
""focus"",""0"",""0""
","""event"",""trial"",""time""
""fullscreenenter"",""1"",""6580""
","
",,,,,,,,,,,,"[{""stimulus"":""run_exp/static/images/task_images/dig.jpg"",""time"":0.9000000000232831},{""stimulus"":""run_exp/static/images/task_images/land.jpg"",""time"":933.0999999999767},{""stimulus"":""run_exp/static/images/task_images/dig.jpg"",""time"":1862.6999999999534}]",[],6,,,,,,,,,,,,,,
harvest,139,552242,0.0-43.0-1.0,"""event"",""trial"",""time""
""focus"",""0"",""0""
""focus"",""0"",""0""
""fullscreenenter"",""1"",""6580""
","
","""event"",""trial"",""time""
""focus"",""0"",""0""
""focus"",""0"",""0""
","""event"",""trial"",""time""
""fullscreenenter"",""1"",""6580""
","
",,null,run_exp/static/images/task_images/gems/58.jpg,null,,,,,,,48,,,6,,,,,58,0.82587092,0.827586207,,,,,,,
decision,140,552312,0.0-43.0-2.0,"""event"",""trial"",""time""
""focus"",""0"",""0""
""focus"",""0"",""0""
""fullscreenenter"",""1"",""6580""
","
","""event"",""trial"",""time""
""focus"",""0"",""0""
""focus"",""0"",""0""
","""event"",""trial"",""time""
""fullscreenenter"",""1"",""6580""
","
",,67.5,run_exp/static/images/task_images/land.jpg,65,,,,,,,48,,,6,,,,,,,,157947,1,3,FALSE,,,
dig,141,555258,0.0-44.0-0.0,"""event"",""trial"",""time""
""focus"",""0"",""0""
""focus"",""0"",""0""
""fullscreenenter"",""1"",""6580""
","
","""event"",""trial"",""time""
""focus"",""0"",""0""
""focus"",""0"",""0""
","""event"",""trial"",""time""
""fullscreenenter"",""1"",""6580""
","
",,,,,,,,,,,,"[{""stimulus"":""run_exp/static/images/task_images/dig.jpg"",""time"":0.5},{""stimulus"":""run_exp/static/images/task_images/land.jpg"",""time"":990.3000000000466},{""stimulus"":""run_exp/static/images/task_images/dig.jpg"",""time"":1969.9000000000233}]",[],6,,,,,,,,,,,,,,
harvest,142,556280,0.0-44.0-1.0,"""event"",""trial"",""time""
""focus"",""0"",""0""
""focus"",""0"",""0""
""fullscreenenter"",""1"",""6580""
","
","""event"",""trial"",""time""
""focus"",""0"",""0""
""focus"",""0"",""0""
","""event"",""trial"",""time""
""fullscreenenter"",""1"",""6580""
","
",,null,run_exp/static/images/task_images/gems/48.jpg,null,,,,,,,39,,,6,,,,,48,0.803076082,0.8125,,,,,,,
decision,143,559293,0.0-44.0-2.0,"""event"",""trial"",""time""
""focus"",""0"",""0""
""focus"",""0"",""0""
""fullscreenenter"",""1"",""6580""
","
","""event"",""trial"",""time""
""focus"",""0"",""0""
""focus"",""0"",""0""
","""event"",""trial"",""time""
""fullscreenenter"",""1"",""6580""
","
",,null,run_exp/static/images/task_images/land.jpg,null,,,,,,,39,,,6,,,,,,,,164929,1,4,FALSE,,,
time_out,144,561309,0.0-45.0-0.0,"""event"",""trial"",""time""
""focus"",""0"",""0""
""focus"",""0"",""0""
""fullscreenenter"",""1"",""6580""
","
","""event"",""trial"",""time""
""focus"",""0"",""0""
""focus"",""0"",""0""
","""event"",""trial"",""time""
""fullscreenenter"",""1"",""6580""
","
",,null,run_exp/static/images/task_images/time_out.jpg,null,,,,,,,39,,,,,,,,,,,,,,,,,
decision,145,561542,0.0-45.0-1.0,"""event"",""trial"",""time""
""focus"",""0"",""0""
""focus"",""0"",""0""
""fullscreenenter"",""1"",""6580""
","
","""event"",""trial"",""time""
""focus"",""0"",""0""
""focus"",""0"",""0""
","""event"",""trial"",""time""
""fullscreenenter"",""1"",""6580""
","
",,229.1,run_exp/static/images/task_images/land.jpg,65,,,,,,,39,,,6,,,,,,,,167177,1,4,FALSE,,,
dig,146,564333,0.0-46.0-0.0,"""event"",""trial"",""time""
""focus"",""0"",""0""
""focus"",""0"",""0""
""fullscreenenter"",""1"",""6580""
","
","""event"",""trial"",""time""
""focus"",""0"",""0""
""focus"",""0"",""0""
","""event"",""trial"",""time""
""fullscreenenter"",""1"",""6580""
","
",,,,,,,,,,,,"[{""stimulus"":""run_exp/static/images/task_images/dig.jpg"",""time"":0.40000000002328306},{""stimulus"":""run_exp/static/images/task_images/land.jpg"",""time"":940.6000000000931},{""stimulus"":""run_exp/static/images/task_images/dig.jpg"",""time"":1850.2000000000698}]",[],6,,,,,,,,,,,,,,
harvest,147,565343,0.0-46.0-1.0,"""event"",""trial"",""time""
""focus"",""0"",""0""
""focus"",""0"",""0""
""fullscreenenter"",""1"",""6580""
","
","""event"",""trial"",""time""
""focus"",""0"",""0""
""focus"",""0"",""0""
","""event"",""trial"",""time""
""fullscreenenter"",""1"",""6580""
","
",,null,run_exp/static/images/task_images/gems/39.jpg,null,,,,,,,29,,,6,,,,,39,0.739882888,0.743589744,,,,,,,
decision,148,565356,0.0-46.0-2.0,"""event"",""trial"",""time""
""focus"",""0"",""0""
""focus"",""0"",""0""
""fullscreenenter"",""1"",""6580""
","
","""event"",""trial"",""time""
""focus"",""0"",""0""
""focus"",""0"",""0""
","""event"",""trial"",""time""
""fullscreenenter"",""1"",""6580""
","
",,12.7,run_exp/static/images/task_images/land.jpg,65,,,,,,,29,,,6,,,,,,,,170991,1,5,FALSE,,,
dig,149,568348,0.0-47.0-0.0,"""event"",""trial"",""time""
""focus"",""0"",""0""
""focus"",""0"",""0""
""fullscreenenter"",""1"",""6580""
","
","""event"",""trial"",""time""
""focus"",""0"",""0""
""focus"",""0"",""0""
","""event"",""trial"",""time""
""fullscreenenter"",""1"",""6580""
","
",,,,,,,,,,,,"[{""stimulus"":""run_exp/static/images/task_images/dig.jpg"",""time"":0.30000000004656613},{""stimulus"":""run_exp/static/images/task_images/land.jpg"",""time"":1000},{""stimulus"":""run_exp/static/images/task_images/dig.jpg"",""time"":1993.0999999999767}]",[],6,,,,,,,,,,,,,,
harvest,150,569361,0.0-47.0-1.0,"""event"",""trial"",""time""
""focus"",""0"",""0""
""focus"",""0"",""0""
""fullscreenenter"",""1"",""6580""
","
","""event"",""trial"",""time""
""focus"",""0"",""0""
""focus"",""0"",""0""
","""event"",""trial"",""time""
""fullscreenenter"",""1"",""6580""
","
",,null,run_exp/static/images/task_images/gems/29.jpg,null,,,,,,,22,,,6,,,,,29,0.742140678,0.75862069,,,,,,,
decision,151,569872,0.0-47.0-2.0,"""event"",""trial"",""time""
""focus"",""0"",""0""
""focus"",""0"",""0""
""fullscreenenter"",""1"",""6580""
","
","""event"",""trial"",""time""
""focus"",""0"",""0""
""focus"",""0"",""0""
","""event"",""trial"",""time""
""fullscreenenter"",""1"",""6580""
","
",,506.3,run_exp/static/images/task_images/land.jpg,65,,,,,,,22,,,6,,,,,,,,175507,1,6,FALSE,,,
dig,152,572378,0.0-48.0-0.0,"""event"",""trial"",""time""
""focus"",""0"",""0""
""focus"",""0"",""0""
""fullscreenenter"",""1"",""6580""
","
","""event"",""trial"",""time""
""focus"",""0"",""0""
""focus"",""0"",""0""
","""event"",""trial"",""time""
""fullscreenenter"",""1"",""6580""
","
",,,,,,,,,,,,"[{""stimulus"":""run_exp/static/images/task_images/dig.jpg"",""time"":0.40000000002328306},{""stimulus"":""run_exp/static/images/task_images/land.jpg"",""time"":851.7999999999302},{""stimulus"":""run_exp/static/images/task_images/dig.jpg"",""time"":1671.5999999999767}]",[],6,,,,,,,,,,,,,,
harvest,153,573398,0.0-48.0-1.0,"""event"",""trial"",""time""
""focus"",""0"",""0""
""focus"",""0"",""0""
""fullscreenenter"",""1"",""6580""
","
","""event"",""trial"",""time""
""focus"",""0"",""0""
""focus"",""0"",""0""
","""event"",""trial"",""time""
""fullscreenenter"",""1"",""6580""
","
",,null,run_exp/static/images/task_images/gems/22.jpg,null,,,,,,,19,,,6,,,,,22,0.884447897,0.863636364,,,,,,,
decision,154,574014,0.0-48.0-2.0,"""event"",""trial"",""time""
""focus"",""0"",""0""
""focus"",""0"",""0""
""fullscreenenter"",""1"",""6580""
","
","""event"",""trial"",""time""
""focus"",""0"",""0""
""focus"",""0"",""0""
","""event"",""trial"",""time""
""fullscreenenter"",""1"",""6580""
","
",,611.1,run_exp/static/images/task_images/land.jpg,76,,,,,,,19,,,6,,,,,,,,179649,1,7,TRUE,,,
travel,155,583427,0.0-49.0-0.0,"""event"",""trial"",""time""
""focus"",""0"",""0""
""focus"",""0"",""0""
""fullscreenenter"",""1"",""6580""
","
","""event"",""trial"",""time""
""focus"",""0"",""0""
""focus"",""0"",""0""
","""event"",""trial"",""time""
""fullscreenenter"",""1"",""6580""
","
",,,,,,,,,,,,"[{""stimulus"":""run_exp/static/images/task_images/rocket-01.jpg"",""time"":0.5999999999767169},{""stimulus"":""run_exp/static/images/task_images/rocket-02.jpg"",""time"":1057.3000000000466},{""stimulus"":""run_exp/static/images/task_images/rocket-03.jpg"",""time"":2107},{""stimulus"":""run_exp/static/images/task_images/rocket-04.jpg"",""time"":3144.5},{""stimulus"":""run_exp/static/images/task_images/rocket-05.jpg"",""time"":4185.099999999977},{""stimulus"":""run_exp/static/images/task_images/rocket-06.jpg"",""time"":5237},{""stimulus"":""run_exp/static/images/task_images/rocket-07.jpg"",""time"":6277.099999999977},{""stimulus"":""run_exp/static/images/task_images/rocket-08.jpg"",""time"":7307.199999999953},{""stimulus"":""run_exp/static/images/task_images/rocket-09.jpg"",""time"":8347.5}]",[],6,,,,,,,,,,,,,,
alien_welcome,156,588448,0.0-49.0-1.0,"""event"",""trial"",""time""
""focus"",""0"",""0""
""focus"",""0"",""0""
""fullscreenenter"",""1"",""6580""
","
","""event"",""trial"",""time""
""focus"",""0"",""0""
""focus"",""0"",""0""
","""event"",""trial"",""time""
""fullscreenenter"",""1"",""6580""
","
",,null,run_exp/static/images/task_images/aliens/old_aliens/planet/alien_planet-21.jpg,null,,,,,,,,,,,,,21,"41,79,20,69,14,6,21,7,9,59,34,16,63,53,65,31,25,55,17,46,50,57,80,76,77,61,47,51,36,73,48,18,39",,,,,,,,,,
land,157,588958,0.0-49.0-2.0,"""event"",""trial"",""time""
""focus"",""0"",""0""
""focus"",""0"",""0""
""fullscreenenter"",""1"",""6580""
","
","""event"",""trial"",""time""
""focus"",""0"",""0""
""focus"",""0"",""0""
","""event"",""trial"",""time""
""fullscreenenter"",""1"",""6580""
","
",,null,run_exp/static/images/task_images/land.jpg,null,,,,,,,98,,,7,,,,,,,,,,,,,,
dig,158,590978,0.0-49.0-3.0,"""event"",""trial"",""time""
""focus"",""0"",""0""
""focus"",""0"",""0""
""fullscreenenter"",""1"",""6580""
","
","""event"",""trial"",""time""
""focus"",""0"",""0""
""focus"",""0"",""0""
","""event"",""trial"",""time""
""fullscreenenter"",""1"",""6580""
","
",,,,,,,,,,,,"[{""stimulus"":""run_exp/static/images/task_images/dig.jpg"",""time"":0.2999999999301508},{""stimulus"":""run_exp/static/images/task_images/land.jpg"",""time"":678.5999999999767},{""stimulus"":""run_exp/static/images/task_images/dig.jpg"",""time"":1342}]",[],7,,,,,,,,,,,,,,
harvest,159,591993,0.0-49.0-4.0,"""event"",""trial"",""time""
""focus"",""0"",""0""
""focus"",""0"",""0""
""fullscreenenter"",""1"",""6580""
","
","""event"",""trial"",""time""
""focus"",""0"",""0""
""focus"",""0"",""0""
","""event"",""trial"",""time""
""fullscreenenter"",""1"",""6580""
","
",,null,run_exp/static/images/task_images/gems/98.jpg,null,,,,,,,79,,,7,,,,,98,0.809580154,0.806122449,,,,,,,
decision,160,592369,0.0-49.0-5.0,"""event"",""trial"",""time""
""focus"",""0"",""0""
""focus"",""0"",""0""
""fullscreenenter"",""1"",""6580""
","
","""event"",""trial"",""time""
""focus"",""0"",""0""
""focus"",""0"",""0""
","""event"",""trial"",""time""
""fullscreenenter"",""1"",""6580""
","
",,373.8,run_exp/static/images/task_images/land.jpg,65,,,,,,,79,,,7,,,,,,,,198005,1,0,FALSE,,,
dig,161,595017,0.0-50.0-0.0,"""event"",""trial"",""time""
""focus"",""0"",""0""
""focus"",""0"",""0""
""fullscreenenter"",""1"",""6580""
","
","""event"",""trial"",""time""
""focus"",""0"",""0""
""focus"",""0"",""0""
","""event"",""trial"",""time""
""fullscreenenter"",""1"",""6580""
","
",,,,,,,,,,,,"[{""stimulus"":""run_exp/static/images/task_images/dig.jpg"",""time"":0.30000000004656613},{""stimulus"":""run_exp/static/images/task_images/land.jpg"",""time"":877.4000000000233},{""stimulus"":""run_exp/static/images/task_images/dig.jpg"",""time"":1753.5999999999767}]",[],7,,,,,,,,,,,,,,
harvest,162,596022,0.0-50.0-1.0,"""event"",""trial"",""time""
""focus"",""0"",""0""
""focus"",""0"",""0""
""fullscreenenter"",""1"",""6580""
","
","""event"",""trial"",""time""
""focus"",""0"",""0""
""focus"",""0"",""0""
","""event"",""trial"",""time""
""fullscreenenter"",""1"",""6580""
","
",,null,run_exp/static/images/task_images/gems/79.jpg,null,,,,,,,66,,,7,,,,,79,0.839191852,0.835443038,,,,,,,
decision,163,598600,0.0-50.0-2.0,"""event"",""trial"",""time""
""focus"",""0"",""0""
""focus"",""0"",""0""
""fullscreenenter"",""1"",""6580""
","
","""event"",""trial"",""time""
""focus"",""0"",""0""
""focus"",""0"",""0""
","""event"",""trial"",""time""
""fullscreenenter"",""1"",""6580""
","
",,2575.5,run_exp/static/images/task_images/land.jpg,65,,,,,,,66,,,7,,,,,,,,204235,1,1,FALSE,,,
dig,164,599038,0.0-51.0-0.0,"""event"",""trial"",""time""
""focus"",""0"",""0""
""focus"",""0"",""0""
""fullscreenenter"",""1"",""6580""
","
","""event"",""trial"",""time""
""focus"",""0"",""0""
""focus"",""0"",""0""
","""event"",""trial"",""time""
""fullscreenenter"",""1"",""6580""
","
",,,,,,,,,,,,"[{""stimulus"":""run_exp/static/images/task_images/dig.jpg"",""time"":0.09999999997671694},{""stimulus"":""run_exp/static/images/task_images/land.jpg"",""time"":155},{""stimulus"":""run_exp/static/images/task_images/dig.jpg"",""time"":300.0999999999767}]",[],7,,,,,,,,,,,,,,
harvest,165,600060,0.0-51.0-1.0,"""event"",""trial"",""time""
""focus"",""0"",""0""
""focus"",""0"",""0""
""fullscreenenter"",""1"",""6580""
","
","""event"",""trial"",""time""
""focus"",""0"",""0""
""focus"",""0"",""0""
","""event"",""trial"",""time""
""fullscreenenter"",""1"",""6580""
","
",,null,run_exp/static/images/task_images/gems/66.jpg,null,,,,,,,55,,,7,,,,,66,0.828506917,0.833333333,,,,,,,
decision,166,600202,0.0-51.0-2.0,"""event"",""trial"",""time""
""focus"",""0"",""0""
""focus"",""0"",""0""
""fullscreenenter"",""1"",""6580""
","
","""event"",""trial"",""time""
""focus"",""0"",""0""
""focus"",""0"",""0""
","""event"",""trial"",""time""
""fullscreenenter"",""1"",""6580""
","
",,137.4,run_exp/static/images/task_images/land.jpg,65,,,,,,,55,,,7,,,,,,,,205838,1,2,FALSE,,,
dig,167,603098,0.0-52.0-0.0,"""event"",""trial"",""time""
""focus"",""0"",""0""
""focus"",""0"",""0""
""fullscreenenter"",""1"",""6580""
","
","""event"",""trial"",""time""
""focus"",""0"",""0""
""focus"",""0"",""0""
","""event"",""trial"",""time""
""fullscreenenter"",""1"",""6580""
","
",,,,,,,,,,,,"[{""stimulus"":""run_exp/static/images/task_images/dig.jpg"",""time"":0.5999999999767169},{""stimulus"":""run_exp/static/images/task_images/land.jpg"",""time"":968.7999999999302},{""stimulus"":""run_exp/static/images/task_images/dig.jpg"",""time"":1914.9000000000233}]",[],7,,,,,,,,,,,,,,
harvest,168,604105,0.0-52.0-1.0,"""event"",""trial"",""time""
""focus"",""0"",""0""
""focus"",""0"",""0""
""fullscreenenter"",""1"",""6580""
","
","""event"",""trial"",""time""
""focus"",""0"",""0""
""focus"",""0"",""0""
","""event"",""trial"",""time""
""fullscreenenter"",""1"",""6580""
","
",,null,run_exp/static/images/task_images/gems/55.jpg,null,,,,,,,47,,,7,,,,,55,0.859570645,0.854545455,,,,,,,
decision,169,604355,0.0-52.0-2.0,"""event"",""trial"",""time""
""focus"",""0"",""0""
""focus"",""0"",""0""
""fullscreenenter"",""1"",""6580""
","
","""event"",""trial"",""time""
""focus"",""0"",""0""
""focus"",""0"",""0""
","""event"",""trial"",""time""
""fullscreenenter"",""1"",""6580""
","
",,246.6,run_exp/static/images/task_images/land.jpg,65,,,,,,,47,,,7,,,,,,,,209990,1,3,FALSE,,,
dig,170,607128,0.0-53.0-0.0,"""event"",""trial"",""time""
""focus"",""0"",""0""
""focus"",""0"",""0""
""fullscreenenter"",""1"",""6580""
","
","""event"",""trial"",""time""
""focus"",""0"",""0""
""focus"",""0"",""0""
","""event"",""trial"",""time""
""fullscreenenter"",""1"",""6580""
","
",,,,,,,,,,,,"[{""stimulus"":""run_exp/static/images/task_images/dig.jpg"",""time"":0.8000000000465661},{""stimulus"":""run_exp/static/images/task_images/land.jpg"",""time"":932},{""stimulus"":""run_exp/static/images/task_images/dig.jpg"",""time"":1851.4000000000233}]",[],7,,,,,,,,,,,,,,
harvest,171,608140,0.0-53.0-1.0,"""event"",""trial"",""time""
""focus"",""0"",""0""
""focus"",""0"",""0""
""fullscreenenter"",""1"",""6580""
","
","""event"",""trial"",""time""
""focus"",""0"",""0""
""focus"",""0"",""0""
","""event"",""trial"",""time""
""fullscreenenter"",""1"",""6580""
","
",,null,run_exp/static/images/task_images/gems/47.jpg,null,,,,,,,41,,,7,,,,,47,0.876481406,0.872340426,,,,,,,
decision,172,608211,0.0-53.0-2.0,"""event"",""trial"",""time""
""focus"",""0"",""0""
""focus"",""0"",""0""
""fullscreenenter"",""1"",""6580""
","
","""event"",""trial"",""time""
""focus"",""0"",""0""
""focus"",""0"",""0""
","""event"",""trial"",""time""
""fullscreenenter"",""1"",""6580""
","
",,68.8,run_exp/static/images/task_images/land.jpg,65,,,,,,,41,,,7,,,,,,,,213846,1,4,FALSE,,,
dig,173,611161,0.0-54.0-0.0,"""event"",""trial"",""time""
""focus"",""0"",""0""
""focus"",""0"",""0""
""fullscreenenter"",""1"",""6580""
","
","""event"",""trial"",""time""
""focus"",""0"",""0""
""focus"",""0"",""0""
","""event"",""trial"",""time""
""fullscreenenter"",""1"",""6580""
","
",,,,,,,,,,,,"[{""stimulus"":""run_exp/static/images/task_images/dig.jpg"",""time"":0.5},{""stimulus"":""run_exp/static/images/task_images/land.jpg"",""time"":1000.0999999999767},{""stimulus"":""run_exp/static/images/task_images/dig.jpg"",""time"":1969.5999999999767}]",[],7,,,,,,,,,,,,,,
harvest,174,612174,0.0-54.0-1.0,"""event"",""trial"",""time""
""focus"",""0"",""0""
""focus"",""0"",""0""
""fullscreenenter"",""1"",""6580""
","
","""event"",""trial"",""time""
""focus"",""0"",""0""
""focus"",""0"",""0""
","""event"",""trial"",""time""
""fullscreenenter"",""1"",""6580""
","
",,null,run_exp/static/images/task_images/gems/41.jpg,null,,,,,,,33,,,7,,,,,41,0.803244101,0.804878049,,,,,,,
decision,175,612292,0.0-54.0-2.0,"""event"",""trial"",""time""
""focus"",""0"",""0""
""focus"",""0"",""0""
""fullscreenenter"",""1"",""6580""
","
","""event"",""trial"",""time""
""focus"",""0"",""0""
""focus"",""0"",""0""
","""event"",""trial"",""time""
""fullscreenenter"",""1"",""6580""
","
",,114.1,run_exp/static/images/task_images/land.jpg,65,,,,,,,33,,,7,,,,,,,,217927,1,5,FALSE,,,
dig,176,615198,0.0-55.0-0.0,"""event"",""trial"",""time""
""focus"",""0"",""0""
""focus"",""0"",""0""
""fullscreenenter"",""1"",""6580""
","
","""event"",""trial"",""time""
""focus"",""0"",""0""
""focus"",""0"",""0""
","""event"",""trial"",""time""
""fullscreenenter"",""1"",""6580""
","
",,,,,,,,,,,,"[{""stimulus"":""run_exp/static/images/task_images/dig.jpg"",""time"":0.6999999999534339},{""stimulus"":""run_exp/static/images/task_images/land.jpg"",""time"":971.4000000000233},{""stimulus"":""run_exp/static/images/task_images/dig.jpg"",""time"":1934.3000000000466}]",[],7,,,,,,,,,,,,,,
harvest,177,616208,0.0-55.0-1.0,"""event"",""trial"",""time""
""focus"",""0"",""0""
""focus"",""0"",""0""
""fullscreenenter"",""1"",""6580""
","
","""event"",""trial"",""time""
""focus"",""0"",""0""
""focus"",""0"",""0""
","""event"",""trial"",""time""
""fullscreenenter"",""1"",""6580""
","
",,null,run_exp/static/images/task_images/gems/33.jpg,null,,,,,,,27,,,7,,,,,33,0.808494187,0.818181818,,,,,,,
decision,178,616398,0.0-55.0-2.0,"""event"",""trial"",""time""
""focus"",""0"",""0""
""focus"",""0"",""0""
""fullscreenenter"",""1"",""6580""
","
","""event"",""trial"",""time""
""focus"",""0"",""0""
""focus"",""0"",""0""
","""event"",""trial"",""time""
""fullscreenenter"",""1"",""6580""
","
",,186.7,run_exp/static/images/task_images/land.jpg,65,,,,,,,27,,,7,,,,,,,,222033,1,6,FALSE,,,
dig,179,619238,0.0-56.0-0.0,"""event"",""trial"",""time""
""focus"",""0"",""0""
""focus"",""0"",""0""
""fullscreenenter"",""1"",""6580""
","
","""event"",""trial"",""time""
""focus"",""0"",""0""
""focus"",""0"",""0""
","""event"",""trial"",""time""
""fullscreenenter"",""1"",""6580""
","
",,,,,,,,,,,,"[{""stimulus"":""run_exp/static/images/task_images/dig.jpg"",""time"":0.5},{""stimulus"":""run_exp/static/images/task_images/land.jpg"",""time"":963},{""stimulus"":""run_exp/static/images/task_images/dig.jpg"",""time"":1892.5}]",[],7,,,,,,,,,,,,,,
harvest,180,620239,0.0-56.0-1.0,"""event"",""trial"",""time""
""focus"",""0"",""0""
""focus"",""0"",""0""
""fullscreenenter"",""1"",""6580""
","
","""event"",""trial"",""time""
""focus"",""0"",""0""
""focus"",""0"",""0""
","""event"",""trial"",""time""
""fullscreenenter"",""1"",""6580""
","
",,null,run_exp/static/images/task_images/gems/27.jpg,null,,,,,,,20,,,7,,,,,27,0.750975083,0.740740741,,,,,,,
decision,181,620371,0.0-56.0-2.0,"""event"",""trial"",""time""
""focus"",""0"",""0""
""focus"",""0"",""0""
""fullscreenenter"",""1"",""6580""
","
","""event"",""trial"",""time""
""focus"",""0"",""0""
""focus"",""0"",""0""
","""event"",""trial"",""time""
""fullscreenenter"",""1"",""6580""
","
",,129.8,run_exp/static/images/task_images/land.jpg,65,,,,,,,20,,,7,,,,,,,,226007,1,7,FALSE,,,
dig,182,623254,0.0-57.0-0.0,"""event"",""trial"",""time""
""focus"",""0"",""0""
""focus"",""0"",""0""
""fullscreenenter"",""1"",""6580""
","
","""event"",""trial"",""time""
""focus"",""0"",""0""
""focus"",""0"",""0""
","""event"",""trial"",""time""
""fullscreenenter"",""1"",""6580""
","
",,,,,,,,,,,,"[{""stimulus"":""run_exp/static/images/task_images/dig.jpg"",""time"":0.5999999999767169},{""stimulus"":""run_exp/static/images/task_images/land.jpg"",""time"":974.9000000000233},{""stimulus"":""run_exp/static/images/task_images/dig.jpg"",""time"":1917.9000000000233}]",[],7,,,,,,,,,,,,,,
harvest,183,624260,0.0-57.0-1.0,"""event"",""trial"",""time""
""focus"",""0"",""0""
""focus"",""0"",""0""
""fullscreenenter"",""1"",""6580""
","
","""event"",""trial"",""time""
""focus"",""0"",""0""
""focus"",""0"",""0""
","""event"",""trial"",""time""
""fullscreenenter"",""1"",""6580""
","
",,null,run_exp/static/images/task_images/gems/20.jpg,null,,,,,,,15,,,7,,,,,20,0.769389476,0.75,,,,,,,
decision,184,624819,0.0-57.0-2.0,"""event"",""trial"",""time""
""focus"",""0"",""0""
""focus"",""0"",""0""
""fullscreenenter"",""1"",""6580""
","
","""event"",""trial"",""time""
""focus"",""0"",""0""
""focus"",""0"",""0""
","""event"",""trial"",""time""
""fullscreenenter"",""1"",""6580""
","
",,556,run_exp/static/images/task_images/land.jpg,65,,,,,,,15,,,7,,,,,,,,230454,1,8,FALSE,,,
dig,185,627277,0.0-58.0-0.0,"""event"",""trial"",""time""
""focus"",""0"",""0""
""focus"",""0"",""0""
""fullscreenenter"",""1"",""6580""
","
","""event"",""trial"",""time""
""focus"",""0"",""0""
""focus"",""0"",""0""
","""event"",""trial"",""time""
""fullscreenenter"",""1"",""6580""
","
",,,,,,,,,,,,"[{""stimulus"":""run_exp/static/images/task_images/dig.jpg"",""time"":0.5},{""stimulus"":""run_exp/static/images/task_images/land.jpg"",""time"":828.3000000000466},{""stimulus"":""run_exp/static/images/task_images/dig.jpg"",""time"":1642.3000000000466}]",[],7,,,,,,,,,,,,,,
harvest,186,628288,0.0-58.0-1.0,"""event"",""trial"",""time""
""focus"",""0"",""0""
""focus"",""0"",""0""
""fullscreenenter"",""1"",""6580""
","
","""event"",""trial"",""time""
""focus"",""0"",""0""
""focus"",""0"",""0""
","""event"",""trial"",""time""
""fullscreenenter"",""1"",""6580""
","
",,null,run_exp/static/images/task_images/gems/15.jpg,null,,,,,,,12,,,7,,,,,15,0.767645852,0.8,,,,,,,
decision,187,629327,0.0-58.0-2.0,"""event"",""trial"",""time""
""focus"",""0"",""0""
""focus"",""0"",""0""
""fullscreenenter"",""1"",""6580""
","
","""event"",""trial"",""time""
""focus"",""0"",""0""
""focus"",""0"",""0""
","""event"",""trial"",""time""
""fullscreenenter"",""1"",""6580""
","
",,1035.7,run_exp/static/images/task_images/land.jpg,76,,,,,,,12,,,7,,,,,,,,234962,1,9,TRUE,,,
travel,188,638319,0.0-59.0-0.0,"""event"",""trial"",""time""
""focus"",""0"",""0""
""focus"",""0"",""0""
""fullscreenenter"",""1"",""6580""
","
","""event"",""trial"",""time""
""focus"",""0"",""0""
""focus"",""0"",""0""
","""event"",""trial"",""time""
""fullscreenenter"",""1"",""6580""
","
