trial_type,trial_index,time_elapsed,internal_node_id,interactions,blur_events,focus_events,fullscreenenter_events,fullscreenexit_events,success,rt,stimulus,key_press,prompt,subject_id,participant_id,age,gender,button_pressed,next_reward,animation_sequence,responses,planet,curr_prac_trial,n_prac_rounds,alien,aliens,reward_received,decay_rate_actual,decay_rate_exp,time_in_block,block_num,prt,last_trial_on_planet,button_html,bonus,num_failures
pavlovia,0,9,0.0-0.0,"""event"",""trial"",""time""
""fullscreenenter"",""1"",""5633""
","
","
","""event"",""trial"",""time""
""fullscreenenter"",""1"",""5633""
","
",,,,,,,,,,,,,,,,,,,,,,,,,,,,
fullscreen,1,6448,0.0-1.0,"""event"",""trial"",""time""
""fullscreenenter"",""1"",""5633""
","
","
","""event"",""trial"",""time""
""fullscreenenter"",""1"",""5633""
","
",TRUE,,,,,,,,,,,,,,,,,,,,,,,,,,,
instruc_welcome,2,16356,0.0-2.0,"""event"",""trial"",""time""
""fullscreenenter"",""1"",""5633""
","
","
","""event"",""trial"",""time""
""fullscreenenter"",""1"",""5633""
","
",,null,run_exp/static/audio/clip_1_welcome.m4a,null,"<p>Howdy! In this experiment, you’ll be an explorer traveling through space to collect space treasure.</p><p>Your mission is to collect as much treasure as possible.</p><br><br><p><img src='run_exp/static/images/task_images/opening_img-01.jpg' height='300' width='auto'></p>",9351,1032,12.33,Female,,,,,,,,,,,,,,,,,,,
audio-keyboard-response,3,32975,0.0-3.0,"""event"",""trial"",""time""
""fullscreenenter"",""1"",""5633""
","
","
","""event"",""trial"",""time""
""fullscreenenter"",""1"",""5633""
","
",,null,run_exp/static/audio/clip_2_move.m4a,null,,,,,,,,,,,,,,,,,,,,,,,,
welcome_dec,4,46470,0.0-4.0,"""event"",""trial"",""time""
""fullscreenenter"",""1"",""5633""
","
","
","""event"",""trial"",""time""
""fullscreenenter"",""1"",""5633""
","
",,13488.4,"<p>Howdy! In this experiment, you’ll be an explorer traveling through space to collect space treasure.</p><p>Your mission is to collect as much treasure as possible.</p><br><br><p><img src='run_exp/static/images/task_images/opening_img-01.jpg' height='300' width='auto'></p>",,,,,,,1,,,,,,,,,,,,,,,,,,
html-keyboard-response,5,51134,0.0-5.0,"""event"",""trial"",""time""
""fullscreenenter"",""1"",""5633""
","
","
","""event"",""trial"",""time""
""fullscreenenter"",""1"",""5633""
","
",,4660,"<p>Howdy! In this experiment, you’ll be an explorer traveling through space to collect space treasure.</p><p>Your mission is to collect as much treasure as possible.</p><br><br><p><img src='run_exp/static/images/task_images/opening_img-01.jpg' height='300' width='auto'></p><button class=""jspsych-html-btn-unchosen""><img src=""run_exp/static/images/task_images/planet-01.jpg"" height=""50""></button><button class=""jspsych-html-btn-chosen""><img src=""run_exp/static/images/task_images/planet-02.jpg"" height=""50""></button><p><b>[press the space bar to lock in your answer]<b><br></p>",32,,,,,,,,,,,,,,,,,,,,,,,,
instruc_goal,6,61317,0.0-6.0-0.0,"""event"",""trial"",""time""
""fullscreenenter"",""1"",""5633""
","
","
","""event"",""trial"",""time""
""fullscreenenter"",""1"",""5633""
","
",,null,run_exp/static/audio/clip_3_goal.m4a,null,"<p> As a space explorer, you’ll visit different planets to dig for space treasure, these pink gems.</p> <p> The more treasure you dig up, the more bonus money you’ll win! </p><br><br><p><img src='run_exp/static/images/task_images/pink_gem.jpg' height='300' width='auto'></p>",,,,,,,,,,,,,,,,,,,,,,,
instruc_goal,7,65728,0.0-6.0-1.0,"""event"",""trial"",""time""
""fullscreenenter"",""1"",""5633""
","
","
","""event"",""trial"",""time""
""fullscreenenter"",""1"",""5633""
","
",,4406.9,"<p> As a space explorer, you’ll visit different planets to dig for space treasure, these pink gems.</p> <p> The more treasure you dig up, the more bonus money you’ll win! </p><br><br><p><img src='run_exp/static/images/task_images/pink_gem.jpg' height='300' width='auto'></p>",,,,,,,1,,,,,,,,,,,,,,,,,,
html-keyboard-response,8,69139,0.0-6.0-2.0,"""event"",""trial"",""time""
""fullscreenenter"",""1"",""5633""
","
","
","""event"",""trial"",""time""
""fullscreenenter"",""1"",""5633""
","
",,3407,"<p> As a space explorer, you’ll visit different planets to dig for space treasure, these pink gems.</p> <p> The more treasure you dig up, the more bonus money you’ll win! </p><br><br><p><img src='run_exp/static/images/task_images/pink_gem.jpg' height='300' width='auto'></p><button class=""jspsych-html-btn-unchosen""><img src=""run_exp/static/images/task_images/planet-01.jpg"" height=""50""></button><button class=""jspsych-html-btn-chosen""><img src=""run_exp/static/images/task_images/planet-02.jpg"" height=""50""></button><p><b>[press the space bar to lock in your answer]<b><br></p>",32,,,,,,,,,,,,,,,,,,,,,,,,
instruc_dig,9,85196,0.0-7.0-0.0,"""event"",""trial"",""time""
""fullscreenenter"",""1"",""5633""
","
","
","""event"",""trial"",""time""
""fullscreenenter"",""1"",""5633""
","
",,null,run_exp/static/audio/clip_4_dig.m4a,null,,,,,,,100,,,,,,,,,,,,,,,,,
instruc_dig_try,10,86592,0.0-7.0-1.0,"""event"",""trial"",""time""
""fullscreenenter"",""1"",""5633""
","
","
","""event"",""trial"",""time""
""fullscreenenter"",""1"",""5633""
","
",,1392.3,"<p> When you’ve arrived at a new planet, you will dig once. </p> <p>Then, you get to decide if you want to stay on the planet and dig again or travel to a new planet and dig there.</p> <p> To stay and dig, press the letter <strong>‘A’</strong> on your keyboard. Try pressing it now! </p><p><img src='run_exp/static/images/task_images/land.jpg'  height='700' width='auto'></p>",65,"<p> When you’ve arrived at a new planet, you will dig once. </p> <p>Then, you get to decide if you want to stay on the planet and dig again or travel to a new planet and dig there.</p> <p> To stay and dig, press the letter <strong>‘A’</strong> on your keyboard. Try pressing it now! </p><p><img src='run_exp/static/images/task_images/land.jpg'  height='700' width='auto'></p>",,,,,,100,,,,,,,,,,,,,,,,,
dig_prac,11,88602,0.0-7.0-2.0,"""event"",""trial"",""time""
""fullscreenenter"",""1"",""5633""
","
","
","""event"",""trial"",""time""
""fullscreenenter"",""1"",""5633""
","
",,,,,,,,,,,,"[{""stimulus"":""run_exp/static/images/task_images/dig.jpg"",""time"":0.5},{""stimulus"":""run_exp/static/images/task_images/land.jpg"",""time"":668.9000000953674},{""stimulus"":""run_exp/static/images/task_images/dig.jpg"",""time"":1336.9000000953674}]",[],,,,,,,,,,,,,,,
instruc_travel,12,124898,0.0-7.0-3.0,"""event"",""trial"",""time""
""fullscreenenter"",""1"",""5633""
","
","
","""event"",""trial"",""time""
""fullscreenenter"",""1"",""5633""
","
",,null,run_exp/static/audio/clip_5_travel.m4a,null,"<p>Every time you dig up gems, there are less gems on the planet, so the more you dig on a planet the fewer gems you’ll get with each dig.</p><p>When gems are running low, you may want to travel to a new planet. </p> <p>  Planets are very far apart in this galaxy, so it will take some time to travel between them. </p> <br><p>There are lots and lots of planets for you to visit, so you won’t be able to return to any planets you’ve seen before. </p><br><p>To leave this planet and travel to a new one, press the letter <strong>‘L’</strong> on your keyboard. Try pressing it now! </p><p><img src='run_exp/static/images/task_images/rocket-01.jpg'  height='600' width='auto'></p>",,,,,,,,,,,,,,,,,,,,,,,
instruc_travel_try,13,125981,0.0-7.0-4.0,"""event"",""trial"",""time""
""fullscreenenter"",""1"",""5633""
","
","
","""event"",""trial"",""time""
""fullscreenenter"",""1"",""5633""
","
",,1079.7,"<p>Every time you dig up gems, there are less gems on the planet, so the more you dig on a planet the fewer gems you’ll get with each dig.</p><p>When gems are running low, you may want to travel to a new planet. </p> <p>  Planets are very far apart in this galaxy, so it will take some time to travel between them. </p> <br><p>There are lots and lots of planets for you to visit, so you won’t be able to return to any planets you’ve seen before. </p><br><p>To leave this planet and travel to a new one, press the letter <strong>‘L’</strong> on your keyboard. Try pressing it now! </p><p><img src='run_exp/static/images/task_images/rocket-01.jpg'  height='600' width='auto'></p>",76,"<p>Every time you dig up gems, there are less gems on the planet, so the more you dig on a planet the fewer gems you’ll get with each dig.</p><p>When gems are running low, you may want to travel to a new planet. </p> <p>  Planets are very far apart in this galaxy, so it will take some time to travel between them. </p> <br><p>There are lots and lots of planets for you to visit, so you won’t be able to return to any planets you’ve seen before. </p><br><p>To leave this planet and travel to a new one, press the letter <strong>‘L’</strong> on your keyboard. Try pressing it now! </p><p><img src='run_exp/static/images/task_images/rocket-01.jpg'  height='600' width='auto'></p>",,,,,,,,,,,,,,,,,,,,,,,
travel_prac,14,135984,0.0-7.0-5.0,"""event"",""trial"",""time""
""fullscreenenter"",""1"",""5633""
","
","
","""event"",""trial"",""time""
""fullscreenenter"",""1"",""5633""
","
",,,,,,,,,,,,"[{""stimulus"":""run_exp/static/images/task_images/rocket-01.jpg"",""time"":1},{""stimulus"":""run_exp/static/images/task_images/rocket-02.jpg"",""time"":1115.2000000476837},{""stimulus"":""run_exp/static/images/task_images/rocket-03.jpg"",""time"":2225.5999999046326},{""stimulus"":""run_exp/static/images/task_images/rocket-04.jpg"",""time"":3336.2000000476837},{""stimulus"":""run_exp/static/images/task_images/rocket-05.jpg"",""time"":4447.5},{""stimulus"":""run_exp/static/images/task_images/rocket-06.jpg"",""time"":5558.5},{""stimulus"":""run_exp/static/images/task_images/rocket-07.jpg"",""time"":6669.200000047684},{""stimulus"":""run_exp/static/images/task_images/rocket-08.jpg"",""time"":7780.200000047684},{""stimulus"":""run_exp/static/images/task_images/rocket-09.jpg"",""time"":8892}]",[],0,,,,,,,,,,,,,,
instruc_alien_greet,15,163198,0.0-7.0-6.0,"""event"",""trial"",""time""
""fullscreenenter"",""1"",""5633""
","
","
","""event"",""trial"",""time""
""fullscreenenter"",""1"",""5633""
","
",,null,run_exp/static/audio/clip_6_alien.m4a,null,"<p>When you arrive at a new planet, the alien who owns the treasure mine on that planet will greet you!</p><p>The better an alien takes care of their mine the easier it is to dig for gems. Some aliens take better care of their mine than others. So, you won’t get exactly the same amount of gems on each planet.</p><p>What the alien looks like does not tell you anything about how many gems there are on the planet.</p><br><p><img src=""run_exp/static/images/task_images/aliens/instructions_aliens/planet/alien_planet-1.jpg""  height=""600"" width=""auto""></p>",,,,,,,,,,,,,,,,,,,,,,,
instruc_alien_greet,16,165642,0.0-7.0-7.0,"""event"",""trial"",""time""
""fullscreenenter"",""1"",""5633""
","
","
","""event"",""trial"",""time""
""fullscreenenter"",""1"",""5633""
","
",,2439.9,"<p>When you arrive at a new planet, the alien who owns the treasure mine on that planet will greet you!</p><p>The better an alien takes care of their mine the easier it is to dig for gems. Some aliens take better care of their mine than others. So, you won’t get exactly the same amount of gems on each planet.</p><p>What the alien looks like does not tell you anything about how many gems there are on the planet.</p><br><p><img src=""run_exp/static/images/task_images/aliens/instructions_aliens/planet/alien_planet-1.jpg""  height=""600"" width=""auto""></p>",,,,,,,1,,,,,,,,,,,,,,,,,,
html-keyboard-response,17,167757,0.0-7.0-8.0,"""event"",""trial"",""time""
""fullscreenenter"",""1"",""5633""
","
","
","""event"",""trial"",""time""
""fullscreenenter"",""1"",""5633""
","
",,2112.4,"<p>When you arrive at a new planet, the alien who owns the treasure mine on that planet will greet you!</p><p>The better an alien takes care of their mine the easier it is to dig for gems. Some aliens take better care of their mine than others. So, you won’t get exactly the same amount of gems on each planet.</p><p>What the alien looks like does not tell you anything about how many gems there are on the planet.</p><br><p><img src=""run_exp/static/images/task_images/aliens/instructions_aliens/planet/alien_planet-1.jpg""  height=""600"" width=""auto""></p><button class=""jspsych-html-btn-unchosen""><img src=""run_exp/static/images/task_images/planet-01.jpg"" height=""50""></button><button class=""jspsych-html-btn-chosen""><img src=""run_exp/static/images/task_images/planet-02.jpg"" height=""50""></button><p><b>[press the space bar to lock in your answer]<b><br></p>",32,,,,,,,,,,,,,,,,,,,,,,,,
time_out,18,178877,0.0-8.0-0.0,"""event"",""trial"",""time""
""fullscreenenter"",""1"",""5633""
","
","
","""event"",""trial"",""time""
""fullscreenenter"",""1"",""5633""
","
",,null,run_exp/static/audio/clip_7_timeout.m4a,null,"<p>If you don't make your choice fast enough, you’ll have to wait a few seconds before you can make another one.</p><p>You can’t dig for more gems or travel to new planets. You just have to sit and wait.</p><br><p><img src='run_exp/static/images/task_images/time_out.jpg'  height='600' width='auto'></p>",,,,,,,,,,,,,,,,,,,,,,,
time_out,19,181627,0.0-8.0-1.0,"""event"",""trial"",""time""
""fullscreenenter"",""1"",""5633""
","
","
","""event"",""trial"",""time""
""fullscreenenter"",""1"",""5633""
","
",,2744.1,"<p>If you don't make your choice fast enough, you’ll have to wait a few seconds before you can make another one.</p><p>You can’t dig for more gems or travel to new planets. You just have to sit and wait.</p><br><p><img src='run_exp/static/images/task_images/time_out.jpg'  height='600' width='auto'></p>",,,,,,,1,,,,,,,,,,,,,,,,,,
html-keyboard-response,20,188710,0.0-8.0-2.0,"""event"",""trial"",""time""
""fullscreenenter"",""1"",""5633""
","
","
","""event"",""trial"",""time""
""fullscreenenter"",""1"",""5633""
","
",,7079.7,"<p>If you don't make your choice fast enough, you’ll have to wait a few seconds before you can make another one.</p><p>You can’t dig for more gems or travel to new planets. You just have to sit and wait.</p><br><p><img src='run_exp/static/images/task_images/time_out.jpg'  height='600' width='auto'></p><button class=""jspsych-html-btn-unchosen""><img src=""run_exp/static/images/task_images/planet-01.jpg"" height=""50""></button><button class=""jspsych-html-btn-chosen""><img src=""run_exp/static/images/task_images/planet-02.jpg"" height=""50""></button><p><b>[press the space bar to lock in your answer]<b><br></p>",32,,,,,,,,,,,,,,,,,,,,,,,,
instruc_break,21,204439,0.0-9.0-0.0,"""event"",""trial"",""time""
""fullscreenenter"",""1"",""5633""
","
","
","""event"",""trial"",""time""
""fullscreenenter"",""1"",""5633""
","
",,null,run_exp/static/audio/clip_8_break.m4a,null,"<p> After digging and traveling for a while, you’ll be able to take a break at home base. </p><p>The game will last 20 minutes no matter what.</p><p>You will visit home base every 5 minutes, so, you will visit home base three times during the game.</p><br><p><img src='run_exp/static/images/task_images/home_base.jpg' height='600' width='auto'></p>",,,,,,,,,,,,,,,,,,,,,,,
instruc_break,22,210228,0.0-9.0-1.0,"""event"",""trial"",""time""
""fullscreenenter"",""1"",""5633""
","
","
","""event"",""trial"",""time""
""fullscreenenter"",""1"",""5633""
","
",,5786.3,"<p> After digging and traveling for a while, you’ll be able to take a break at home base. </p><p>The game will last 20 minutes no matter what.</p><p>You will visit home base every 5 minutes, so, you will visit home base three times during the game.</p><br><p><img src='run_exp/static/images/task_images/home_base.jpg' height='600' width='auto'></p>",,,,,,,1,,,,,,,,,,,,,,,,,,
html-keyboard-response,23,218938,0.0-9.0-2.0,"""event"",""trial"",""time""
""fullscreenenter"",""1"",""5633""
","
","
","""event"",""trial"",""time""
""fullscreenenter"",""1"",""5633""
","
",,8708.1,"<p> After digging and traveling for a while, you’ll be able to take a break at home base. </p><p>The game will last 20 minutes no matter what.</p><p>You will visit home base every 5 minutes, so, you will visit home base three times during the game.</p><br><p><img src='run_exp/static/images/task_images/home_base.jpg' height='600' width='auto'></p><button class=""jspsych-html-btn-unchosen""><img src=""run_exp/static/images/task_images/planet-01.jpg"" height=""50""></button><button class=""jspsych-html-btn-chosen""><img src=""run_exp/static/images/task_images/planet-02.jpg"" height=""50""></button><p><b>[press the space bar to lock in your answer]<b><br></p>",32,,,,,,,,,,,,,,,,,,,,,,,,
instruc_prac_game,24,229157,0.0-10.0-0.0,"""event"",""trial"",""time""
""fullscreenenter"",""1"",""5633""
","
","
","""event"",""trial"",""time""
""fullscreenenter"",""1"",""5633""
","
",,null,run_exp/static/audio/clip_9_practice.m4a,null,"<p> Are you ready to play a practice game? </p> <p>In this practice game, you'll be digging up barrels of gems. But, in the real game, you'll be digging up the gems themselves. </p>",,,,,,,,,,,,,,,,,,,,,,,
html-button-response,25,235088,0.0-10.0-1.0,"""event"",""trial"",""time""
""fullscreenenter"",""1"",""5633""
","
","
","""event"",""trial"",""time""
""fullscreenenter"",""1"",""5633""
","
",,5928.2,"<p> Are you ready to play a practice game? </p> <p>In this practice game, you'll be digging up barrels of gems. But, in the real game, you'll be digging up the gems themselves. </p>",,,,,,,0,,,,,,,,,,,,,,,,,,
alien_welcome_prac,26,240093,0.0-11.0-0.0,"""event"",""trial"",""time""
""fullscreenenter"",""1"",""5633""
","
","
","""event"",""trial"",""time""
""fullscreenenter"",""1"",""5633""
","
",,null,run_exp/static/images/task_images/aliens/practice_aliens/planet/alien_planet-5.jpg,null,,,,,,,,,,,,,,,,,,,,,,,,
land_prac,27,240595,0.0-11.0-1.0,"""event"",""trial"",""time""
""fullscreenenter"",""1"",""5633""
","
","
","""event"",""trial"",""time""
""fullscreenenter"",""1"",""5633""
","
",,null,run_exp/static/images/task_images/land.jpg,null,,,,,,,102,,,0,,,,,,,,,,,,,,
dig_prac,28,242601,0.0-11.0-2.0,"""event"",""trial"",""time""
""fullscreenenter"",""1"",""5633""
","
","
","""event"",""trial"",""time""
""fullscreenenter"",""1"",""5633""
","
",,,,,,,,,,,,"[{""stimulus"":""run_exp/static/images/task_images/dig.jpg"",""time"":0.39999985694885254},{""stimulus"":""run_exp/static/images/task_images/land.jpg"",""time"":669.5},{""stimulus"":""run_exp/static/images/task_images/dig.jpg"",""time"":1336.8999998569489}]",[],,,,,,,,,,,,,,,
harvest_prac,29,243604,0.0-11.0-3.0,"""event"",""trial"",""time""
""fullscreenenter"",""1"",""5633""
","
","
","""event"",""trial"",""time""
""fullscreenenter"",""1"",""5633""
","
",,null,run_exp/static/images/task_images/barrel_text.jpg,null,,,,,,,,,,,,,,,,,,,,,,,,
decision_prac,30,246332,0.0-11.0-4.0,"""event"",""trial"",""time""
""fullscreenenter"",""1"",""5633""
","
","
","""event"",""trial"",""time""
""fullscreenenter"",""1"",""5633""
","
",,2727.2,run_exp/static/images/task_images/land.jpg,65,,,,,,,,,,,1,,,,,,,,,,,,,
dig_prac,31,248340,0.0-12.0-0.0,"""event"",""trial"",""time""
""fullscreenenter"",""1"",""5633""
","
","
","""event"",""trial"",""time""
""fullscreenenter"",""1"",""5633""
","
",,,,,,,,,,,,"[{""stimulus"":""run_exp/static/images/task_images/dig.jpg"",""time"":0.3000001907348633},{""stimulus"":""run_exp/static/images/task_images/land.jpg"",""time"":669.2000000476837},{""stimulus"":""run_exp/static/images/task_images/dig.jpg"",""time"":1336.7000000476837}]",[],,,,,,,,,,,,,,,
harvest_prac,32,249343,0.0-12.0-1.0,"""event"",""trial"",""time""
""fullscreenenter"",""1"",""5633""
","
","
","""event"",""trial"",""time""
""fullscreenenter"",""1"",""5633""
","
",,null,run_exp/static/images/task_images/barrel_text.jpg,null,,,,,,,,,,,,,,,,,,,,,,,,
decision_prac,33,250307,0.0-12.0-2.0,"""event"",""trial"",""time""
""fullscreenenter"",""1"",""5633""
","
","
","""event"",""trial"",""time""
""fullscreenenter"",""1"",""5633""
","
",,962.8999999,run_exp/static/images/task_images/land.jpg,76,,,,,,,,,,,2,,,,,,,,,,,,,
travel,34,259348,0.0-13.0-0.0,"""event"",""trial"",""time""
""fullscreenenter"",""1"",""5633""
","
","
","""event"",""trial"",""time""
""fullscreenenter"",""1"",""5633""
","
",,,,,,,,,,,,"[{""stimulus"":""run_exp/static/images/task_images/rocket-01.jpg"",""time"":0.40000009536743164},{""stimulus"":""run_exp/static/images/task_images/rocket-02.jpg"",""time"":1006.4000000953674},{""stimulus"":""run_exp/static/images/task_images/rocket-03.jpg"",""time"":2010.1000001430511},{""stimulus"":""run_exp/static/images/task_images/rocket-04.jpg"",""time"":3014.100000143051},{""stimulus"":""run_exp/static/images/task_images/rocket-05.jpg"",""time"":4020.2000000476837},{""stimulus"":""run_exp/static/images/task_images/rocket-06.jpg"",""time"":5022.600000143051},{""stimulus"":""run_exp/static/images/task_images/rocket-07.jpg"",""time"":6026.799999952316},{""stimulus"":""run_exp/static/images/task_images/rocket-08.jpg"",""time"":7030.700000047684},{""stimulus"":""run_exp/static/images/task_images/rocket-09.jpg"",""time"":8034.600000143051}]",[],0,,,,,,,,,,,,,,
alien_welcome_prac,35,264354,0.0-13.0-1.0,"""event"",""trial"",""time""
""fullscreenenter"",""1"",""5633""
","
","
","""event"",""trial"",""time""
""fullscreenenter"",""1"",""5633""
","
",,null,run_exp/static/images/task_images/aliens/practice_aliens/planet/alien_planet-4.jpg,null,,,,,,,,,,,,,,,,,,,,,,,,
land_prac,36,264859,0.0-13.0-2.0,"""event"",""trial"",""time""
""fullscreenenter"",""1"",""5633""
","
","
","""event"",""trial"",""time""
""fullscreenenter"",""1"",""5633""
","
",,null,run_exp/static/images/task_images/land.jpg,null,,,,,,,101,,,0,,,,,,,,,,,,,,
dig_prac,37,266864,0.0-13.0-3.0,"""event"",""trial"",""time""
""fullscreenenter"",""1"",""5633""
","
","
","""event"",""trial"",""time""
""fullscreenenter"",""1"",""5633""
","
",,,,,,,,,,,,"[{""stimulus"":""run_exp/static/images/task_images/dig.jpg"",""time"":0.5},{""stimulus"":""run_exp/static/images/task_images/land.jpg"",""time"":669.7000000476837},{""stimulus"":""run_exp/static/images/task_images/dig.jpg"",""time"":1337.2999999523163}]",[],,,,,,,,,,,,,,,
harvest_prac,38,267867,0.0-13.0-4.0,"""event"",""trial"",""time""
""fullscreenenter"",""1"",""5633""
","
","
","""event"",""trial"",""time""
""fullscreenenter"",""1"",""5633""
","
",,null,run_exp/static/images/task_images/barrel_text.jpg,null,,,,,,,,,,,,,,,,,,,,,,,,
decision_prac,39,269096,0.0-13.0-5.0,"""event"",""trial"",""time""
""fullscreenenter"",""1"",""5633""
","
","
","""event"",""trial"",""time""
""fullscreenenter"",""1"",""5633""
","
",,1228,run_exp/static/images/task_images/land.jpg,65,,,,,,,,,,,3,,,,,,,,,,,,,
dig_prac,40,271103,0.0-14.0-0.0,"""event"",""trial"",""time""
""fullscreenenter"",""1"",""5633""
","
","
","""event"",""trial"",""time""
""fullscreenenter"",""1"",""5633""
","
",,,,,,,,,,,,"[{""stimulus"":""run_exp/static/images/task_images/dig.jpg"",""time"":0.2999999523162842},{""stimulus"":""run_exp/static/images/task_images/land.jpg"",""time"":668.7999999523163},{""stimulus"":""run_exp/static/images/task_images/dig.jpg"",""time"":1337.7999999523163}]",[],,,,,,,,,,,,,,,
harvest_prac,41,272104,0.0-14.0-1.0,"""event"",""trial"",""time""
""fullscreenenter"",""1"",""5633""
","
","
","""event"",""trial"",""time""
""fullscreenenter"",""1"",""5633""
","
",,null,run_exp/static/images/task_images/barrel_text.jpg,null,,,,,,,,,,,,,,,,,,,,,,,,
decision_prac,42,272513,0.0-14.0-2.0,"""event"",""trial"",""time""
""fullscreenenter"",""1"",""5633""
","
","
","""event"",""trial"",""time""
""fullscreenenter"",""1"",""5633""
","
",,407.2,run_exp/static/images/task_images/land.jpg,65,,,,,,,,,,,4,,,,,,,,,,,,,
dig_prac,43,274520,0.0-15.0-0.0,"""event"",""trial"",""time""
""fullscreenenter"",""1"",""5633""
","
","
","""event"",""trial"",""time""
""fullscreenenter"",""1"",""5633""
","
",,,,,,,,,,,,"[{""stimulus"":""run_exp/static/images/task_images/dig.jpg"",""time"":0.2999999523162842},{""stimulus"":""run_exp/static/images/task_images/land.jpg"",""time"":670.2000000476837},{""stimulus"":""run_exp/static/images/task_images/dig.jpg"",""time"":1337.5}]",[],,,,,,,,,,,,,,,
harvest_prac,44,275523,0.0-15.0-1.0,"""event"",""trial"",""time""
""fullscreenenter"",""1"",""5633""
","
","
","""event"",""trial"",""time""
""fullscreenenter"",""1"",""5633""
","
",,null,run_exp/static/images/task_images/barrel_text.jpg,null,,,,,,,,,,,,,,,,,,,,,,,,
decision_prac,45,275957,0.0-15.0-2.0,"""event"",""trial"",""time""
""fullscreenenter"",""1"",""5633""
","
","
","""event"",""trial"",""time""
""fullscreenenter"",""1"",""5633""
","
",,432.3,run_exp/static/images/task_images/land.jpg,65,,,,,,,,,,,,1,,,,,,,,,,,,
quiz_instruc,46,277386,0.0-16.0-0.0,"""event"",""trial"",""time""
""fullscreenenter"",""1"",""5633""
","
","
","""event"",""trial"",""time""
""fullscreenenter"",""1"",""5633""
","
",,1422.2,run_exp/static/audio/clip_10_quiz.m4a,,,,,,,0,,,,,,,,,,,,,,,,,,
instruc_repeat,47,320197,0.0-16.0-1.0,"""event"",""trial"",""time""
""fullscreenenter"",""1"",""5633""
","
","
","""event"",""trial"",""time""
""fullscreenenter"",""1"",""5633""
","
",,null,"<p> Are you ready to play a practice game? </p> <p>In this practice game, you'll be digging up barrels of gems. But, in the real game, you'll be digging up the gems themselves. </p>",null,"<p>In this game, your goal is to collect as many gems as you can. That’s how you will win bonus money. </p> <p>The entire game will last 20 minutes no matter how many gems you collect or how many planets you visit. </p><p>To stay on a planet and dig again, press the letter A on your keyboard. To leave for a new planet, press the letter L.</p><p>The more you dig on a planet, the fewer gems you’ll get with each dig which is why you might consider leaving for a new planet. </p><p>When you arrive at a new planet, you’ll be greeted by an alien. What the alien looks like does not tell you anything about how much treasure is on the planet. </p>",,,,,,,,,,,,,,,,,,,,,,,
instruc_repeat_continue,48,324712,0.0-16.0-2.0,"""event"",""trial"",""time""
""fullscreenenter"",""1"",""5633""
","
","
","""event"",""trial"",""time""
""fullscreenenter"",""1"",""5633""
","
",,4512.3,"<p> Are you ready to play a practice game? </p> <p>In this practice game, you'll be digging up barrels of gems. But, in the real game, you'll be digging up the gems themselves. </p>",,,,,,,0,,,,,,,,,,,,,,,,,,
quiz_q_1_ask,49,332438,0.0-16.0-3.0,"""event"",""trial"",""time""
""fullscreenenter"",""1"",""5633""
","
","
","""event"",""trial"",""time""
""fullscreenenter"",""1"",""5633""
","
",,7722.5,run_exp/static/audio/clip_11_q1_ask.m4a,,,,,,,2,,,,,,,,,,,,,,,,,,
quiz_q_1_fb_correct,50,336374,0.0-17.0-0.0,"""event"",""trial"",""time""
""fullscreenenter"",""1"",""5633""
","
","
","""event"",""trial"",""time""
""fullscreenenter"",""1"",""5633""
","
",,null,run_exp/static/audio/clip_12_q1_correct.m4a,null,<p>That’s correct. You win extra money by collecting more gems.</p>,,,,,,,,,,,,,,,,,,,,,,,
quiz_q_2_ask,51,343868,0.0-17.0-1.0,"""event"",""trial"",""time""
""fullscreenenter"",""1"",""5633""
","
","
","""event"",""trial"",""time""
""fullscreenenter"",""1"",""5633""
","
",,7489.8,run_exp/static/audio/clip_14_q2_ask.m4a,,,,,,,1,,,,,,,,,,,,,,,,,,
quiz_q_2_fb_correct,52,347914,0.0-18.0-0.0,"""event"",""trial"",""time""
""fullscreenenter"",""1"",""5633""
","
","
","""event"",""trial"",""time""
""fullscreenenter"",""1"",""5633""
","
",,null,run_exp/static/audio/clip_15_q2_correct.m4a,null,<p>That’s correct. The experiment is 20 minutes no matter what.</p>,,,,,,,,,,,,,,,,,,,,,,,
quiz_q_3_ask,53,354188,0.0-18.0-1.0,"""event"",""trial"",""time""
""fullscreenenter"",""1"",""5633""
","
","
","""event"",""trial"",""time""
""fullscreenenter"",""1"",""5633""
","
",,6267,run_exp/static/audio/clip_17_q3_ask.m4a,,,,,,,1,,,,,,,,,,,,,,,,,,
quiz_q_3_fb_correct,54,358234,0.0-19.0-0.0,"""event"",""trial"",""time""
""fullscreenenter"",""1"",""5633""
","
","
","""event"",""trial"",""time""
""fullscreenenter"",""1"",""5633""
","
",,null,run_exp/static/audio/clip_18_q3_correct.m4a,null,<p> That’s correct. You press the letter L to travel to a new planet.</p>,,,,,,,,,,,,,,,,,,,,,,,
quiz_q_4_ask,55,364650,0.0-19.0-1.0,"""event"",""trial"",""time""
""fullscreenenter"",""1"",""5633""
","
","
","""event"",""trial"",""time""
""fullscreenenter"",""1"",""5633""
","
",,6411.2,run_exp/static/audio/clip_20_q4_ask.m4a,,,,,,,0,,,,,,,,,,,,,,,,,,
quiz_q_4_fb_correct,56,370017,0.0-20.0-0.0,"""event"",""trial"",""time""
""fullscreenenter"",""1"",""5633""
","
","
","""event"",""trial"",""time""
""fullscreenenter"",""1"",""5633""
","
",,null,run_exp/static/audio/clip_21_q4_correct.m4a,null,<p> That’s correct. The more you dig on a planet the fewer gems you’ll get with each dig. </p>,,,,,,,,,,,,,,,,,,,,,,,
quiz_q_5_ask,57,382040,0.0-20.0-1.0,"""event"",""trial"",""time""
""fullscreenenter"",""1"",""5633""
","
","
","""event"",""trial"",""time""
""fullscreenenter"",""1"",""5633""
","
",,12019.1,run_exp/static/audio/clip_23_q5_ask.m4a,,,,,,,1,,,,,,,,,,,,,,,,,,
quiz_q_5_fb_correct,58,387095,0.0-21.0-0.0,"""event"",""trial"",""time""
""fullscreenenter"",""1"",""5633""
","
","
","""event"",""trial"",""time""
""fullscreenenter"",""1"",""5633""
","
",,null,run_exp/static/audio/clip_24_q5_correct.m4a,null,<p> That’s correct. The alien tells you nothing about how much treasure is on the planet.</p>,,,,,,,,,,,,,,,,,,,,,,,
quiz_correct,59,390594,0.0-22.0-0.0,"""event"",""trial"",""time""
""fullscreenenter"",""1"",""5633""
","
","
","""event"",""trial"",""time""
""fullscreenenter"",""1"",""5633""
","
",,null,run_exp/static/audio/clip_26_correct_quiz.m4a,null,,,,,,,,,,,,,,,,,,,,,,,,
quiz_correct_continue,60,394927,0.0-22.0-1.0,"""event"",""trial"",""time""
""fullscreenenter"",""1"",""5633""
","
","
","""event"",""trial"",""time""
""fullscreenenter"",""1"",""5633""
","
",,4330.2,<p>Good job! You're now ready to move on to the real game!</p>,,,,,,,0,,,,,,,,,,,,,,,,,,
audio-keyboard-response,61,405098,0.0-22.0-2.0,"""event"",""trial"",""time""
""fullscreenenter"",""1"",""5633""
","
","
","""event"",""trial"",""time""
""fullscreenenter"",""1"",""5633""
","
",,null,run_exp/static/audio/clip_28_real_game.m4a,null,,,,,,,,,,,,,,,,,,,,,,,,
instruc_begin_exp_contine,62,407425,0.0-22.0-3.0,"""event"",""trial"",""time""
""fullscreenenter"",""1"",""5633""
","
","
","""event"",""trial"",""time""
""fullscreenenter"",""1"",""5633""
","
",,2324.3,"<p>Now that you know how  to dig for space treasure and travel to new planets,you can start exploring! </p><p>Do you want to go over the instructions again or get started with the real game?</p>",,,,,,,1,,,,,,1,,,,,,,,,,,,
alien_welcome,63,412435,0.0-23.0-0.0,"""event"",""trial"",""time""
""fullscreenenter"",""1"",""5633""
","
","
","""event"",""trial"",""time""
""fullscreenenter"",""1"",""5633""
","
",,null,run_exp/static/images/task_images/aliens/old_aliens/planet/alien_planet-62.jpg,null,,,,,,,,,,,,,62,"62,19,6,21,59,80,10,32,55,43,61,49,28,76,13,4,27,20,56,67,66,54,44,58,72,46,7,31,34,68,79,42,53,24,41,65,3,47,52,9,14,48,26,30,29,45,8,57,11,50,15",,,,,,,,,,
land,64,412941,0.0-23.0-1.0,"""event"",""trial"",""time""
""fullscreenenter"",""1"",""5633""
","
","
","""event"",""trial"",""time""
""fullscreenenter"",""1"",""5633""
","
",,null,run_exp/static/images/task_images/land.jpg,null,,,,,,,101,,,1,,,,,,,,,,,,,,
dig,65,414948,0.0-23.0-2.0,"""event"",""trial"",""time""
""fullscreenenter"",""1"",""5633""
","
","
","""event"",""trial"",""time""
""fullscreenenter"",""1"",""5633""
","
",,,,,,,,,,,,"[{""stimulus"":""run_exp/static/images/task_images/dig.jpg"",""time"":0.2999999523162842},{""stimulus"":""run_exp/static/images/task_images/land.jpg"",""time"":670.0999999046326},{""stimulus"":""run_exp/static/images/task_images/dig.jpg"",""time"":1335.8999998569489}]",[],1,,,,,,,,,,,,,,
harvest,66,415954,0.0-23.0-3.0,"""event"",""trial"",""time""
""fullscreenenter"",""1"",""5633""
","
","
","""event"",""trial"",""time""
""fullscreenenter"",""1"",""5633""
","
",,null,run_exp/static/images/task_images/gems/101.jpg,null,,,,,,,21,,,1,,,,,101,0.203274183,0.207920792,,,,,,,
decision,67,416404,0.0-23.0-4.0,"""event"",""trial"",""time""
""fullscreenenter"",""1"",""5633""
","
","
","""event"",""trial"",""time""
""fullscreenenter"",""1"",""5633""
","
",,446.5,run_exp/static/images/task_images/land.jpg,65,,,,,,,21,,,1,,,,,,,,8975,1,0,FALSE,,,
dig,68,418964,0.0-24.0-0.0,"""event"",""trial"",""time""
""fullscreenenter"",""1"",""5633""
","
","
","""event"",""trial"",""time""
""fullscreenenter"",""1"",""5633""
","
",,,,,,,,,,,,"[{""stimulus"":""run_exp/static/images/task_images/dig.jpg"",""time"":0.2999999523162842},{""stimulus"":""run_exp/static/images/task_images/land.jpg"",""time"":853.7999999523163},{""stimulus"":""run_exp/static/images/task_images/dig.jpg"",""time"":1705.0999999046326}]",[],1,,,,,,,,,,,,,,
harvest,69,419968,0.0-24.0-1.0,"""event"",""trial"",""time""
""fullscreenenter"",""1"",""5633""
","
","
","""event"",""trial"",""time""
""fullscreenenter"",""1"",""5633""
","
",,null,run_exp/static/images/task_images/gems/21.jpg,null,,,,,,,4,,,1,,,,,21,0.178844184,0.19047619,,,,,,,
decision,70,422971,0.0-24.0-2.0,"""event"",""trial"",""time""
""fullscreenenter"",""1"",""5633""
","
","
","""event"",""trial"",""time""
""fullscreenenter"",""1"",""5633""
","
",,null,run_exp/static/images/task_images/land.jpg,null,,,,,,,4,,,1,,,,,,,,15541,1,1,FALSE,,,
time_out,71,424976,0.0-25.0-0.0,"""event"",""trial"",""time""
""fullscreenenter"",""1"",""5633""
","
","
","""event"",""trial"",""time""
""fullscreenenter"",""1"",""5633""
","
",,null,run_exp/static/images/task_images/time_out.jpg,null,,,,,,,4,,,,,,,,,,,,,,,,,
decision,72,425463,0.0-25.0-1.0,"""event"",""trial"",""time""
""fullscreenenter"",""1"",""5633""
","
","
","""event"",""trial"",""time""
""fullscreenenter"",""1"",""5633""
","
",,483.9000001,run_exp/static/images/task_images/land.jpg,76,,,,,,,4,,,1,,,,,,,,18033,1,1,TRUE,,,
travel,73,434982,0.0-26.0-0.0,"""event"",""trial"",""time""
""fullscreenenter"",""1"",""5633""
","
","
","""event"",""trial"",""time""
""fullscreenenter"",""1"",""5633""
","
",,,,,,,,,,,,"[{""stimulus"":""run_exp/static/images/task_images/rocket-01.jpg"",""time"":0.40000009536743164},{""stimulus"":""run_exp/static/images/task_images/rocket-02.jpg"",""time"":1059},{""stimulus"":""run_exp/static/images/task_images/rocket-03.jpg"",""time"":2116.800000190735},{""stimulus"":""run_exp/static/images/task_images/rocket-04.jpg"",""time"":3173.100000143051},{""stimulus"":""run_exp/static/images/task_images/rocket-05.jpg"",""time"":4229.800000190735},{""stimulus"":""run_exp/static/images/task_images/rocket-06.jpg"",""time"":5287.300000190735},{""stimulus"":""run_exp/static/images/task_images/rocket-07.jpg"",""time"":6344.600000143051},{""stimulus"":""run_exp/static/images/task_images/rocket-08.jpg"",""time"":7402.300000190735},{""stimulus"":""run_exp/static/images/task_images/rocket-09.jpg"",""time"":8459}]",[],1,,,,,,,,,,,,,,
alien_welcome,74,439985,0.0-26.0-1.0,"""event"",""trial"",""time""
""fullscreenenter"",""1"",""5633""
","
","
","""event"",""trial"",""time""
""fullscreenenter"",""1"",""5633""
","
",,null,run_exp/static/images/task_images/aliens/old_aliens/planet/alien_planet-19.jpg,null,,,,,,,,,,,,,19,"62,19,6,21,59,80,10,32,55,43,61,49,28,76,13,4,27,20,56,67,66,54,44,58,72,46,7,31,34,68,79,42,53,24,41,65,3,47,52,9,14,48,26,30,29,45,8,57,11,50,15",,,,,,,,,,
land,75,440488,0.0-26.0-2.0,"""event"",""trial"",""time""
""fullscreenenter"",""1"",""5633""
","
","
","""event"",""trial"",""time""
""fullscreenenter"",""1"",""5633""
","
",,null,run_exp/static/images/task_images/land.jpg,null,,,,,,,89,,,2,,,,,,,,,,,,,,
dig,76,442493,0.0-26.0-3.0,"""event"",""trial"",""time""
""fullscreenenter"",""1"",""5633""
","
","
","""event"",""trial"",""time""
""fullscreenenter"",""1"",""5633""
","
",,,,,,,,,,,,"[{""stimulus"":""run_exp/static/images/task_images/dig.jpg"",""time"":0.2999999523162842},{""stimulus"":""run_exp/static/images/task_images/land.jpg"",""time"":670.4000000953674},{""stimulus"":""run_exp/static/images/task_images/dig.jpg"",""time"":1336.2999999523163}]",[],2,,,,,,,,,,,,,,
harvest,77,443495,0.0-26.0-4.0,"""event"",""trial"",""time""
""fullscreenenter"",""1"",""5633""
","
","
","""event"",""trial"",""time""
""fullscreenenter"",""1"",""5633""
","
",,null,run_exp/static/images/task_images/gems/89.jpg,null,,,,,,,20,,,2,,,,,89,0.225409964,0.224719101,,,,,,,
decision,78,443868,0.0-26.0-5.0,"""event"",""trial"",""time""
""fullscreenenter"",""1"",""5633""
","
","
","""event"",""trial"",""time""
""fullscreenenter"",""1"",""5633""
","
",,371,run_exp/static/images/task_images/land.jpg,76,,,,,,,20,,,2,,,,,,,,36438,1,0,TRUE,,,
travel,79,453497,0.0-27.0-0.0,"""event"",""trial"",""time""
""fullscreenenter"",""1"",""5633""
","
","
","""event"",""trial"",""time""
""fullscreenenter"",""1"",""5633""
","
",,,,,,,,,,,,"[{""stimulus"":""run_exp/static/images/task_images/rocket-01.jpg"",""time"":0.3000001907348633},{""stimulus"":""run_exp/static/images/task_images/rocket-02.jpg"",""time"":1071},{""stimulus"":""run_exp/static/images/task_images/rocket-03.jpg"",""time"":2140.800000190735},{""stimulus"":""run_exp/static/images/task_images/rocket-04.jpg"",""time"":3209.7000000476837},{""stimulus"":""run_exp/static/images/task_images/rocket-05.jpg"",""time"":4279.200000047684},{""stimulus"":""run_exp/static/images/task_images/rocket-06.jpg"",""time"":5347},{""stimulus"":""run_exp/static/images/task_images/rocket-07.jpg"",""time"":6416},{""stimulus"":""run_exp/static/images/task_images/rocket-08.jpg"",""time"":7485.5},{""stimulus"":""run_exp/static/images/task_images/rocket-09.jpg"",""time"":8553.900000095367}]",[],2,,,,,,,,,,,,,,
alien_welcome,80,458519,0.0-27.0-1.0,"""event"",""trial"",""time""
""fullscreenenter"",""1"",""5633""
","
","
","""event"",""trial"",""time""
""fullscreenenter"",""1"",""5633""
","
",,null,run_exp/static/images/task_images/aliens/old_aliens/planet/alien_planet-6.jpg,null,,,,,,,,,,,,,6,"62,19,6,21,59,80,10,32,55,43,61,49,28,76,13,4,27,20,56,67,66,54,44,58,72,46,7,31,34,68,79,42,53,24,41,65,3,47,52,9,14,48,26,30,29,45,8,57,11,50,15",,,,,,,,,,
land,81,459022,0.0-27.0-2.0,"""event"",""trial"",""time""
""fullscreenenter"",""1"",""5633""
","
","
","""event"",""trial"",""time""
""fullscreenenter"",""1"",""5633""
","
",,null,run_exp/static/images/task_images/land.jpg,null,,,,,,,106,,,3,,,,,,,,,,,,,,
dig,82,461029,0.0-27.0-3.0,"""event"",""trial"",""time""
""fullscreenenter"",""1"",""5633""
","
","
","""event"",""trial"",""time""
""fullscreenenter"",""1"",""5633""
","
",,,,,,,,,,,,"[{""stimulus"":""run_exp/static/images/task_images/dig.jpg"",""time"":1.0999999046325684},{""stimulus"":""run_exp/static/images/task_images/land.jpg"",""time"":669.7999999523163},{""stimulus"":""run_exp/static/images/task_images/dig.jpg"",""time"":1337.3999998569489}]",[],3,,,,,,,,,,,,,,
harvest,83,462031,0.0-27.0-4.0,"""event"",""trial"",""time""
""fullscreenenter"",""1"",""5633""
","
","
","""event"",""trial"",""time""
""fullscreenenter"",""1"",""5633""
","
",,null,run_exp/static/images/task_images/gems/106.jpg,null,,,,,,,43,,,3,,,,,106,0.407212148,0.405660377,,,,,,,
decision,84,462566,0.0-27.0-5.0,"""event"",""trial"",""time""
""fullscreenenter"",""1"",""5633""
","
","
","""event"",""trial"",""time""
""fullscreenenter"",""1"",""5633""
","
",,532.7,run_exp/static/images/task_images/land.jpg,65,,,,,,,43,,,3,,,,,,,,55136,1,0,FALSE,,,
dig,85,465038,0.0-28.0-0.0,"""event"",""trial"",""time""
""fullscreenenter"",""1"",""5633""
","
","
","""event"",""trial"",""time""
""fullscreenenter"",""1"",""5633""
","
",,,,,,,,,,,,"[{""stimulus"":""run_exp/static/images/task_images/dig.jpg"",""time"":0.39999985694885254},{""stimulus"":""run_exp/static/images/task_images/land.jpg"",""time"":825},{""stimulus"":""run_exp/static/images/task_images/dig.jpg"",""time"":1646.5}]",[],3,,,,,,,,,,,,,,
harvest,86,466039,0.0-28.0-1.0,"""event"",""trial"",""time""
""fullscreenenter"",""1"",""5633""
","
","
","""event"",""trial"",""time""
""fullscreenenter"",""1"",""5633""
","
",,null,run_exp/static/images/task_images/gems/43.jpg,null,,,,,,,18,,,3,,,,,43,0.4246772,0.418604651,,,,,,,
decision,87,466729,0.0-28.0-2.0,"""event"",""trial"",""time""
""fullscreenenter"",""1"",""5633""
","
","
","""event"",""trial"",""time""
""fullscreenenter"",""1"",""5633""
","
",,687.6000001,run_exp/static/images/task_images/land.jpg,65,,,,,,,18,,,3,,,,,,,,59299,1,1,FALSE,,,
dig,88,469045,0.0-29.0-0.0,"""event"",""trial"",""time""
""fullscreenenter"",""1"",""5633""
","
","
","""event"",""trial"",""time""
""fullscreenenter"",""1"",""5633""
","
",,,,,,,,,,,,"[{""stimulus"":""run_exp/static/images/task_images/dig.jpg"",""time"":0.5},{""stimulus"":""run_exp/static/images/task_images/land.jpg"",""time"":772.0999999046326},{""stimulus"":""run_exp/static/images/task_images/dig.jpg"",""time"":1543.8999998569489}]",[],3,,,,,,,,,,,,,,
harvest,89,470047,0.0-29.0-1.0,"""event"",""trial"",""time""
""fullscreenenter"",""1"",""5633""
","
","
","""event"",""trial"",""time""
""fullscreenenter"",""1"",""5633""
","
",,null,run_exp/static/images/task_images/gems/18.jpg,null,,,,,,,10,,,3,,,,,18,0.543234766,0.555555556,,,,,,,
decision,90,471056,0.0-29.0-2.0,"""event"",""trial"",""time""
""fullscreenenter"",""1"",""5633""
","
","
","""event"",""trial"",""time""
""fullscreenenter"",""1"",""5633""
","
",,1006.4,run_exp/static/images/task_images/land.jpg,76,,,,,,,10,,,3,,,,,,,,63626,1,2,TRUE,,,
travel,91,480052,0.0-30.0-0.0,"""event"",""trial"",""time""
""fullscreenenter"",""1"",""5633""
","
","
","""event"",""trial"",""time""
""fullscreenenter"",""1"",""5633""
","
",,,,,,,,,,,,"[{""stimulus"":""run_exp/static/images/task_images/rocket-01.jpg"",""time"":0.2999999523162842},{""stimulus"":""run_exp/static/images/task_images/rocket-02.jpg"",""time"":1001},{""stimulus"":""run_exp/static/images/task_images/rocket-03.jpg"",""time"":1999.6999998092651},{""stimulus"":""run_exp/static/images/task_images/rocket-04.jpg"",""time"":2999},{""stimulus"":""run_exp/static/images/task_images/rocket-05.jpg"",""time"":3998.699999809265},{""stimulus"":""run_exp/static/images/task_images/rocket-06.jpg"",""time"":4997.899999856949},{""stimulus"":""run_exp/static/images/task_images/rocket-07.jpg"",""time"":5996.099999904633},{""stimulus"":""run_exp/static/images/task_images/rocket-08.jpg"",""time"":6995.299999952316},{""stimulus"":""run_exp/static/images/task_images/rocket-09.jpg"",""time"":7995.299999952316}]",[],3,,,,,,,,,,,,,,
alien_welcome,92,485057,0.0-30.0-1.0,"""event"",""trial"",""time""
""fullscreenenter"",""1"",""5633""
","
","
","""event"",""trial"",""time""
""fullscreenenter"",""1"",""5633""
","
",,null,run_exp/static/images/task_images/aliens/old_aliens/planet/alien_planet-21.jpg,null,,,,,,,,,,,,,21,"62,19,6,21,59,80,10,32,55,43,61,49,28,76,13,4,27,20,56,67,66,54,44,58,72,46,7,31,34,68,79,42,53,24,41,65,3,47,52,9,14,48,26,30,29,45,8,57,11,50,15",,,,,,,,,,
land,93,485559,0.0-30.0-2.0,"""event"",""trial"",""time""
""fullscreenenter"",""1"",""5633""
","
","
","""event"",""trial"",""time""
""fullscreenenter"",""1"",""5633""
","
",,null,run_exp/static/images/task_images/land.jpg,null,,,,,,,107,,,4,,,,,,,,,,,,,,
dig,94,487564,0.0-30.0-3.0,"""event"",""trial"",""time""
""fullscreenenter"",""1"",""5633""
","
","
","""event"",""trial"",""time""
""fullscreenenter"",""1"",""5633""
","
",,,,,,,,,,,,"[{""stimulus"":""run_exp/static/images/task_images/dig.jpg"",""time"":0.5},{""stimulus"":""run_exp/static/images/task_images/land.jpg"",""time"":669.2999999523163},{""stimulus"":""run_exp/static/images/task_images/dig.jpg"",""time"":1336.5999999046326}]",[],4,,,,,,,,,,,,,,
harvest,95,488567,0.0-30.0-4.0,"""event"",""trial"",""time""
""fullscreenenter"",""1"",""5633""
","
","
","""event"",""trial"",""time""
""fullscreenenter"",""1"",""5633""
","
",,null,run_exp/static/images/task_images/gems/107.jpg,null,,,,,,,55,,,4,,,,,107,0.51300558,0.514018692,,,,,,,
decision,96,489504,0.0-30.0-5.0,"""event"",""trial"",""time""
""fullscreenenter"",""1"",""5633""
","
","
","""event"",""trial"",""time""
""fullscreenenter"",""1"",""5633""
","
",,934.8000002,run_exp/static/images/task_images/land.jpg,65,,,,,,,55,,,4,,,,,,,,82074,1,0,FALSE,,,
dig,97,491574,0.0-31.0-0.0,"""event"",""trial"",""time""
""fullscreenenter"",""1"",""5633""
","
","
","""event"",""trial"",""time""
""fullscreenenter"",""1"",""5633""
","
",,,,,,,,,,,,"[{""stimulus"":""run_exp/static/images/task_images/dig.jpg"",""time"":0.39999985694885254},{""stimulus"":""run_exp/static/images/task_images/land.jpg"",""time"":690.3999998569489},{""stimulus"":""run_exp/static/images/task_images/dig.jpg"",""time"":1377.8999998569489}]",[],4,,,,,,,,,,,,,,
harvest,98,492577,0.0-31.0-1.0,"""event"",""trial"",""time""
""fullscreenenter"",""1"",""5633""
","
","
","""event"",""trial"",""time""
""fullscreenenter"",""1"",""5633""
","
",,null,run_exp/static/images/task_images/gems/55.jpg,null,,,,,,,28,,,4,,,,,55,0.502945415,0.509090909,,,,,,,
decision,99,493220,0.0-31.0-2.0,"""event"",""trial"",""time""
""fullscreenenter"",""1"",""5633""
","
","
","""event"",""trial"",""time""
""fullscreenenter"",""1"",""5633""
","
",,641,run_exp/static/images/task_images/land.jpg,65,,,,,,,28,,,4,,,,,,,,85790,1,1,FALSE,,,
dig,100,495585,0.0-32.0-0.0,"""event"",""trial"",""time""
""fullscreenenter"",""1"",""5633""
","
","
","""event"",""trial"",""time""
""fullscreenenter"",""1"",""5633""
","
",,,,,,,,,,,,"[{""stimulus"":""run_exp/static/images/task_images/dig.jpg"",""time"":0.2999999523162842},{""stimulus"":""run_exp/static/images/task_images/land.jpg"",""time"":788.2000000476837},{""stimulus"":""run_exp/static/images/task_images/dig.jpg"",""time"":1574.0999999046326}]",[],4,,,,,,,,,,,,,,
harvest,101,496596,0.0-32.0-1.0,"""event"",""trial"",""time""
""fullscreenenter"",""1"",""5633""
","
","
","""event"",""trial"",""time""
""fullscreenenter"",""1"",""5633""
","
",,null,run_exp/static/images/task_images/gems/28.jpg,null,,,,,,,13,,,4,,,,,28,0.46847867,0.464285714,,,,,,,
decision,102,496929,0.0-32.0-2.0,"""event"",""trial"",""time""
""fullscreenenter"",""1"",""5633""
","
","
","""event"",""trial"",""time""
""fullscreenenter"",""1"",""5633""
","
",,331.3,run_exp/static/images/task_images/land.jpg,76,,,,,,,13,,,4,,,,,,,,89499,1,2,TRUE,,,
travel,103,506601,0.0-33.0-0.0,"""event"",""trial"",""time""
""fullscreenenter"",""1"",""5633""
","
","
","""event"",""trial"",""time""
""fullscreenenter"",""1"",""5633""
","
",,,,,,,,,,,,"[{""stimulus"":""run_exp/static/images/task_images/rocket-01.jpg"",""time"":0.39999985694885254},{""stimulus"":""run_exp/static/images/task_images/rocket-02.jpg"",""time"":1076.6999998092651},{""stimulus"":""run_exp/static/images/task_images/rocket-03.jpg"",""time"":2150.399999856949},{""stimulus"":""run_exp/static/images/task_images/rocket-04.jpg"",""time"":3225},{""stimulus"":""run_exp/static/images/task_images/rocket-05.jpg"",""time"":4298.399999856949},{""stimulus"":""run_exp/static/images/task_images/rocket-06.jpg"",""time"":5372.699999809265},{""stimulus"":""run_exp/static/images/task_images/rocket-07.jpg"",""time"":6446.899999856949},{""stimulus"":""run_exp/static/images/task_images/rocket-08.jpg"",""time"":7521.899999856949},{""stimulus"":""run_exp/static/images/task_images/rocket-09.jpg"",""time"":8594.099999904633}]",[],4,,,,,,,,,,,,,,
alien_welcome,104,511605,0.0-33.0-1.0,"""event"",""trial"",""time""
""fullscreenenter"",""1"",""5633""
","
","
","""event"",""trial"",""time""
""fullscreenenter"",""1"",""5633""
","
",,null,run_exp/static/images/task_images/aliens/old_aliens/planet/alien_planet-59.jpg,null,,,,,,,,,,,,,59,"62,19,6,21,59,80,10,32,55,43,61,49,28,76,13,4,27,20,56,67,66,54,44,58,72,46,7,31,34,68,79,42,53,24,41,65,3,47,52,9,14,48,26,30,29,45,8,57,11,50,15",,,,,,,,,,
land,105,512108,0.0-33.0-2.0,"""event"",""trial"",""time""
""fullscreenenter"",""1"",""5633""
","
","
","""event"",""trial"",""time""
""fullscreenenter"",""1"",""5633""
","
",,null,run_exp/static/images/task_images/land.jpg,null,,,,,,,109,,,5,,,,,,,,,,,,,,
dig,106,514113,0.0-33.0-3.0,"""event"",""trial"",""time""
""fullscreenenter"",""1"",""5633""
","
","
","""event"",""trial"",""time""
""fullscreenenter"",""1"",""5633""
","
",,,,,,,,,,,,"[{""stimulus"":""run_exp/static/images/task_images/dig.jpg"",""time"":0.40000009536743164},{""stimulus"":""run_exp/static/images/task_images/land.jpg"",""time"":669.2000000476837},{""stimulus"":""run_exp/static/images/task_images/dig.jpg"",""time"":1336}]",[],5,,,,,,,,,,,,,,
harvest,107,515115,0.0-33.0-4.0,"""event"",""trial"",""time""
""fullscreenenter"",""1"",""5633""
","
","
","""event"",""trial"",""time""
""fullscreenenter"",""1"",""5633""
","
",,null,run_exp/static/images/task_images/gems/109.jpg,null,,,,,,,51,,,5,,,,,109,0.46527293,0.467889908,,,,,,,
decision,108,515647,0.0-33.0-5.0,"""event"",""trial"",""time""
""fullscreenenter"",""1"",""5633""
","
","
","""event"",""trial"",""time""
""fullscreenenter"",""1"",""5633""
","
",,529.5999999,run_exp/static/images/task_images/land.jpg,65,,,,,,,51,,,5,,,,,,,,108217,1,0,FALSE,,,
dig,109,518120,0.0-34.0-0.0,"""event"",""trial"",""time""
""fullscreenenter"",""1"",""5633""
","
","
","""event"",""trial"",""time""
""fullscreenenter"",""1"",""5633""
","
",,,,,,,,,,,,"[{""stimulus"":""run_exp/static/images/task_images/dig.jpg"",""time"":0.2999999523162842},{""stimulus"":""run_exp/static/images/task_images/land.jpg"",""time"":825.0999999046326},{""stimulus"":""run_exp/static/images/task_images/dig.jpg"",""time"":1649.1999998092651}]",[],5,,,,,,,,,,,,,,
harvest,110,519124,0.0-34.0-1.0,"""event"",""trial"",""time""
""fullscreenenter"",""1"",""5633""
","
","
","""event"",""trial"",""time""
""fullscreenenter"",""1"",""5633""
","
",,null,run_exp/static/images/task_images/gems/51.jpg,null,,,,,,,26,,,5,,,,,51,0.506445004,0.509803922,,,,,,,
decision,111,519203,0.0-34.0-2.0,"""event"",""trial"",""time""
""fullscreenenter"",""1"",""5633""
","
","
","""event"",""trial"",""time""
""fullscreenenter"",""1"",""5633""
","
",,77,run_exp/static/images/task_images/land.jpg,65,,,,,,,26,,,5,,,,,,,,111773,1,1,FALSE,,,
dig,112,522130,0.0-35.0-0.0,"""event"",""trial"",""time""
""fullscreenenter"",""1"",""5633""
","
","
","""event"",""trial"",""time""
""fullscreenenter"",""1"",""5633""
","
",,,,,,,,,,,,"[{""stimulus"":""run_exp/static/images/task_images/dig.jpg"",""time"":0.40000009536743164},{""stimulus"":""run_exp/static/images/task_images/land.jpg"",""time"":976.4000000953674},{""stimulus"":""run_exp/static/images/task_images/dig.jpg"",""time"":1951.1000001430511}]",[],5,,,,,,,,,,,,,,
harvest,113,523133,0.0-35.0-1.0,"""event"",""trial"",""time""
""fullscreenenter"",""1"",""5633""
","
","
","""event"",""trial"",""time""
""fullscreenenter"",""1"",""5633""
","
",,null,run_exp/static/images/task_images/gems/26.jpg,null,,,,,,,15,,,5,,,,,26,0.574108208,0.576923077,,,,,,,
decision,114,523674,0.0-35.0-2.0,"""event"",""trial"",""time""
""fullscreenenter"",""1"",""5633""
","
","
","""event"",""trial"",""time""
""fullscreenenter"",""1"",""5633""
","
",,539.2,run_exp/static/images/task_images/land.jpg,76,,,,,,,15,,,5,,,,,,,,116244,1,2,TRUE,,,
travel,115,533139,0.0-36.0-0.0,"""event"",""trial"",""time""
""fullscreenenter"",""1"",""5633""
","
","
","""event"",""trial"",""time""
""fullscreenenter"",""1"",""5633""
","
",,,,,,,,,,,,"[{""stimulus"":""run_exp/static/images/task_images/rocket-01.jpg"",""time"":0.39999985694885254},{""stimulus"":""run_exp/static/images/task_images/rocket-02.jpg"",""time"":1053},{""stimulus"":""run_exp/static/images/task_images/rocket-03.jpg"",""time"":2105.2999999523163},{""stimulus"":""run_exp/static/images/task_images/rocket-04.jpg"",""time"":3155.399999856949},{""stimulus"":""run_exp/static/images/task_images/rocket-05.jpg"",""time"":4206.200000047684},{""stimulus"":""run_exp/static/images/task_images/rocket-06.jpg"",""time"":5256.700000047684},{""stimulus"":""run_exp/static/images/task_images/rocket-07.jpg"",""time"":6308.399999856949},{""stimulus"":""run_exp/static/images/task_images/rocket-08.jpg"",""time"":7359.599999904633},{""stimulus"":""run_exp/static/images/task_images/rocket-09.jpg"",""time"":8410.899999856949}]",[],5,,,,,,,,,,,,,,
alien_welcome,116,538143,0.0-36.0-1.0,"""event"",""trial"",""time""
""fullscreenenter"",""1"",""5633""
","
","
","""event"",""trial"",""time""
""fullscreenenter"",""1"",""5633""
","
",,null,run_exp/static/images/task_images/aliens/old_aliens/planet/alien_planet-80.jpg,null,,,,,,,,,,,,,80,"62,19,6,21,59,80,10,32,55,43,61,49,28,76,13,4,27,20,56,67,66,54,44,58,72,46,7,31,34,68,79,42,53,24,41,65,3,47,52,9,14,48,26,30,29,45,8,57,11,50,15",,,,,,,,,,
land,117,538645,0.0-36.0-2.0,"""event"",""trial"",""time""
""fullscreenenter"",""1"",""5633""
","
","
","""event"",""trial"",""time""
""fullscreenenter"",""1"",""5633""
","
",,null,run_exp/static/images/task_images/land.jpg,null,,,,,,,106,,,6,,,,,,,,,,,,,,
dig,118,540651,0.0-36.0-3.0,"""event"",""trial"",""time""
""fullscreenenter"",""1"",""5633""
","
","
","""event"",""trial"",""time""
""fullscreenenter"",""1"",""5633""
","
",,,,,,,,,,,,"[{""stimulus"":""run_exp/static/images/task_images/dig.jpg"",""time"":0.5999999046325684},{""stimulus"":""run_exp/static/images/task_images/land.jpg"",""time"":670.5},{""stimulus"":""run_exp/static/images/task_images/dig.jpg"",""time"":1337.5}]",[],6,,,,,,,,,,,,,,
harvest,119,541653,0.0-36.0-4.0,"""event"",""trial"",""time""
""fullscreenenter"",""1"",""5633""
","
","
","""event"",""trial"",""time""
""fullscreenenter"",""1"",""5633""
","
",,null,run_exp/static/images/task_images/gems/106.jpg,null,,,,,,,88,,,6,,,,,106,0.834457561,0.830188679,,,,,,,
decision,120,541960,0.0-36.0-5.0,"""event"",""trial"",""time""
""fullscreenenter"",""1"",""5633""
","
","
","""event"",""trial"",""time""
""fullscreenenter"",""1"",""5633""
","
",,304.7,run_exp/static/images/task_images/land.jpg,65,,,,,,,88,,,6,,,,,,,,134530,1,0,FALSE,,,
dig,121,544661,0.0-37.0-0.0,"""event"",""trial"",""time""
""fullscreenenter"",""1"",""5633""
","
","
","""event"",""trial"",""time""
""fullscreenenter"",""1"",""5633""
","
",,,,,,,,,,,,"[{""stimulus"":""run_exp/static/images/task_images/dig.jpg"",""time"":0.40000009536743164},{""stimulus"":""run_exp/static/images/task_images/land.jpg"",""time"":900.5},{""stimulus"":""run_exp/static/images/task_images/dig.jpg"",""time"":1798.2999999523163}]",[],6,,,,,,,,,,,,,,
harvest,122,545663,0.0-37.0-1.0,"""event"",""trial"",""time""
""fullscreenenter"",""1"",""5633""
","
","
","""event"",""trial"",""time""
""fullscreenenter"",""1"",""5633""
","
",,null,run_exp/static/images/task_images/gems/88.jpg,null,,,,,,,77,,,6,,,,,88,0.879902258,0.875,,,,,,,
decision,123,546579,0.0-37.0-2.0,"""event"",""trial"",""time""
""fullscreenenter"",""1"",""5633""
","
","
","""event"",""trial"",""time""
""fullscreenenter"",""1"",""5633""
","
",,913.7,run_exp/static/images/task_images/land.jpg,65,,,,,,,77,,,6,,,,,,,,139149,1,1,FALSE,,,
dig,124,548669,0.0-38.0-0.0,"""event"",""trial"",""time""
""fullscreenenter"",""1"",""5633""
","
","
","""event"",""trial"",""time""
""fullscreenenter"",""1"",""5633""
","
",,,,,,,,,,,,"[{""stimulus"":""run_exp/static/images/task_images/dig.jpg"",""time"":0.40000009536743164},{""stimulus"":""run_exp/static/images/task_images/land.jpg"",""time"":702},{""stimulus"":""run_exp/static/images/task_images/dig.jpg"",""time"":1393.2000000476837}]",[],6,,,,,,,,,,,,,,
harvest,125,549673,0.0-38.0-1.0,"""event"",""trial"",""time""
""fullscreenenter"",""1"",""5633""
","
","
","""event"",""trial"",""time""
""fullscreenenter"",""1"",""5633""
","
",,null,run_exp/static/images/task_images/gems/77.jpg,null,,,,,,,63,,,6,,,,,77,0.812826718,0.818181818,,,,,,,
decision,126,550075,0.0-38.0-2.0,"""event"",""trial"",""time""
""fullscreenenter"",""1"",""5633""
","
","
","""event"",""trial"",""time""
""fullscreenenter"",""1"",""5633""
","
",,400.8,run_exp/static/images/task_images/land.jpg,65,,,,,,,63,,,6,,,,,,,,142645,1,2,FALSE,,,
dig,127,552679,0.0-39.0-0.0,"""event"",""trial"",""time""
""fullscreenenter"",""1"",""5633""
","
","
","""event"",""trial"",""time""
""fullscreenenter"",""1"",""5633""
","
",,,,,,,,,,,,"[{""stimulus"":""run_exp/static/images/task_images/dig.jpg"",""time"":0.39999985694885254},{""stimulus"":""run_exp/static/images/task_images/land.jpg"",""time"":868.2999999523163},{""stimulus"":""run_exp/static/images/task_images/dig.jpg"",""time"":1734.8999998569489}]",[],6,,,,,,,,,,,,,,
harvest,128,553685,0.0-39.0-1.0,"""event"",""trial"",""time""
""fullscreenenter"",""1"",""5633""
","
","
","""event"",""trial"",""time""
""fullscreenenter"",""1"",""5633""
","
",,null,run_exp/static/images/task_images/gems/63.jpg,null,,,,,,,52,,,6,,,,,63,0.831498996,0.825396825,,,,,,,
decision,129,553757,0.0-39.0-2.0,"""event"",""trial"",""time""
""fullscreenenter"",""1"",""5633""
","
","
","""event"",""trial"",""time""
""fullscreenenter"",""1"",""5633""
","
",,68.30000019,run_exp/static/images/task_images/land.jpg,65,,,,,,,52,,,6,,,,,,,,146327,1,3,FALSE,,,
dig,130,556693,0.0-40.0-0.0,"""event"",""trial"",""time""
""fullscreenenter"",""1"",""5633""
","
","
","""event"",""trial"",""time""
""fullscreenenter"",""1"",""5633""
","
",,,,,,,,,,,,"[{""stimulus"":""run_exp/static/images/task_images/dig.jpg"",""time"":0.2999999523162842},{""stimulus"":""run_exp/static/images/task_images/land.jpg"",""time"":978.7999999523163},{""stimulus"":""run_exp/static/images/task_images/dig.jpg"",""time"":1955.6999998092651}]",[],6,,,,,,,,,,,,,,
harvest,131,557696,0.0-40.0-1.0,"""event"",""trial"",""time""
""fullscreenenter"",""1"",""5633""
","
","
","""event"",""trial"",""time""
""fullscreenenter"",""1"",""5633""
","
",,null,run_exp/static/images/task_images/gems/52.jpg,null,,,,,,,45,,,6,,,,,52,0.861875476,0.865384615,,,,,,,
decision,132,560023,0.0-40.0-2.0,"""event"",""trial"",""time""
""fullscreenenter"",""1"",""5633""
","
","
","""event"",""trial"",""time""
""fullscreenenter"",""1"",""5633""
","
",,2325.1,run_exp/static/images/task_images/land.jpg,65,,,,,,,45,,,6,,,,,,,,152593,1,4,FALSE,,,
dig,133,560702,0.0-41.0-0.0,"""event"",""trial"",""time""
""fullscreenenter"",""1"",""5633""
","
","
","""event"",""trial"",""time""
""fullscreenenter"",""1"",""5633""
","
",,,,,,,,,,,,"[{""stimulus"":""run_exp/static/images/task_images/dig.jpg"",""time"":0.40000009536743164},{""stimulus"":""run_exp/static/images/task_images/land.jpg"",""time"":227.20000004768372},{""stimulus"":""run_exp/static/images/task_images/dig.jpg"",""time"":450.5}]",[],6,,,,,,,,,,,,,,
harvest,134,561704,0.0-41.0-1.0,"""event"",""trial"",""time""
""fullscreenenter"",""1"",""5633""
","
","
","""event"",""trial"",""time""
""fullscreenenter"",""1"",""5633""
","
",,null,run_exp/static/images/task_images/gems/45.jpg,null,,,,,,,32,,,6,,,,,45,0.712787293,0.711111111,,,,,,,
decision,135,562494,0.0-41.0-2.0,"""event"",""trial"",""time""
""fullscreenenter"",""1"",""5633""
","
","
","""event"",""trial"",""time""
""fullscreenenter"",""1"",""5633""
","
",,787.3,run_exp/static/images/task_images/land.jpg,65,,,,,,,32,,,6,,,,,,,,155064,1,5,FALSE,,,
dig,136,564711,0.0-42.0-0.0,"""event"",""trial"",""time""
""fullscreenenter"",""1"",""5633""
","
","
","""event"",""trial"",""time""
""fullscreenenter"",""1"",""5633""
","
",,,,,,,,,,,,"[{""stimulus"":""run_exp/static/images/task_images/dig.jpg"",""time"":0.40000009536743164},{""stimulus"":""run_exp/static/images/task_images/land.jpg"",""time"":739.7000000476837},{""stimulus"":""run_exp/static/images/task_images/dig.jpg"",""time"":1476.5}]",[],6,,,,,,,,,,,,,,
harvest,137,565714,0.0-42.0-1.0,"""event"",""trial"",""time""
""fullscreenenter"",""1"",""5633""
","
","
","""event"",""trial"",""time""
""fullscreenenter"",""1"",""5633""
","
",,null,run_exp/static/images/task_images/gems/32.jpg,null,,,,,,,25,,,6,,,,,32,0.789137715,0.78125,,,,,,,
decision,138,568335,0.0-42.0-2.0,"""event"",""trial"",""time""
""fullscreenenter"",""1"",""5633""
","
","
","""event"",""trial"",""time""
""fullscreenenter"",""1"",""5633""
","
",,2618.4,run_exp/static/images/task_images/land.jpg,76,,,,,,,25,,,6,,,,,,,,160905,1,6,TRUE,,,
travel,139,575720,0.0-43.0-0.0,"""event"",""trial"",""time""
""fullscreenenter"",""1"",""5633""
","
","
","""event"",""trial"",""time""
""fullscreenenter"",""1"",""5633""
","
",,,,,,,,,,,,"[{""stimulus"":""run_exp/static/images/task_images/rocket-01.jpg"",""time"":0.5},{""stimulus"":""run_exp/static/images/task_images/rocket-02.jpg"",""time"":822.6999998092651},{""stimulus"":""run_exp/static/images/task_images/rocket-03.jpg"",""time"":1642.2999999523163},{""stimulus"":""run_exp/static/images/task_images/rocket-04.jpg"",""time"":2462.5999999046326},{""stimulus"":""run_exp/static/images/task_images/rocket-05.jpg"",""time"":3282.0999999046326},{""stimulus"":""run_exp/static/images/task_images/rocket-06.jpg"",""time"":4101.899999856949},{""stimulus"":""run_exp/static/images/task_images/rocket-07.jpg"",""time"":4922.5},{""stimulus"":""run_exp/static/images/task_images/rocket-08.jpg"",""time"":5742},{""stimulus"":""run_exp/static/images/task_images/rocket-09.jpg"",""time"":6562.599999904633}]",[],6,,,,,,,,,,,,,,
alien_welcome,140,580723,0.0-43.0-1.0,"""event"",""trial"",""time""
""fullscreenenter"",""1"",""5633""
","
","
","""event"",""trial"",""time""
""fullscreenenter"",""1"",""5633""
","
",,null,run_exp/static/images/task_images/aliens/old_aliens/planet/alien_planet-10.jpg,null,,,,,,,,,,,,,10,"62,19,6,21,59,80,10,32,55,43,61,49,28,76,13,4,27,20,56,67,66,54,44,58,72,46,7,31,34,68,79,42,53,24,41,65,3,47,52,9,14,48,26,30,29,45,8,57,11,50,15",,,,,,,,,,
land,141,581226,0.0-43.0-2.0,"""event"",""trial"",""time""
""fullscreenenter"",""1"",""5633""
","
","
","""event"",""trial"",""time""
""fullscreenenter"",""1"",""5633""
","
",,null,run_exp/static/images/task_images/land.jpg,null,,,,,,,105,,,7,,,,,,,,,,,,,,
dig,142,583230,0.0-43.0-3.0,"""event"",""trial"",""time""
""fullscreenenter"",""1"",""5633""
","
","
","""event"",""trial"",""time""
""fullscreenenter"",""1"",""5633""
","
",,,,,,,,,,,,"[{""stimulus"":""run_exp/static/images/task_images/dig.jpg"",""time"":0.5},{""stimulus"":""run_exp/static/images/task_images/land.jpg"",""time"":670.2999999523163},{""stimulus"":""run_exp/static/images/task_images/dig.jpg"",""time"":1337.0999999046326}]",[],7,,,,,,,,,,,,,,
harvest,143,584232,0.0-43.0-4.0,"""event"",""trial"",""time""
""fullscreenenter"",""1"",""5633""
","
","
","""event"",""trial"",""time""
""fullscreenenter"",""1"",""5633""
","
",,null,run_exp/static/images/task_images/gems/105.jpg,null,,,,,,,81,,,7,,,,,105,0.773707689,0.771428571,,,,,,,
decision,144,584793,0.0-43.0-5.0,"""event"",""trial"",""time""
""fullscreenenter"",""1"",""5633""
","
","
","""event"",""trial"",""time""
""fullscreenenter"",""1"",""5633""
","
",,558.7,run_exp/static/images/task_images/land.jpg,65,,,,,,,81,,,7,,,,,,,,177363,1,0,FALSE,,,
dig,145,587237,0.0-44.0-0.0,"""event"",""trial"",""time""
""fullscreenenter"",""1"",""5633""
","
","
","""event"",""trial"",""time""
""fullscreenenter"",""1"",""5633""
","
",,,,,,,,,,,,"[{""stimulus"":""run_exp/static/images/task_images/dig.jpg"",""time"":0.39999985694885254},{""stimulus"":""run_exp/static/images/task_images/land.jpg"",""time"":816.5},{""stimulus"":""run_exp/static/images/task_images/dig.jpg"",""time"":1628.6999998092651}]",[],7,,,,,,,,,,,,,,
harvest,146,588240,0.0-44.0-1.0,"""event"",""trial"",""time""
""fullscreenenter"",""1"",""5633""
","
","
","""event"",""trial"",""time""
""fullscreenenter"",""1"",""5633""
","
",,null,run_exp/static/images/task_images/gems/81.jpg,null,,,,,,,63,,,7,,,,,81,0.776295249,0.777777778,,,,,,,
decision,147,588655,0.0-44.0-2.0,"""event"",""trial"",""time""
""fullscreenenter"",""1"",""5633""
","
","
","""event"",""trial"",""time""
""fullscreenenter"",""1"",""5633""
","
",,413,run_exp/static/images/task_images/land.jpg,65,,,,,,,63,,,7,,,,,,,,181225,1,1,FALSE,,,
dig,148,591248,0.0-45.0-0.0,"""event"",""trial"",""time""
""fullscreenenter"",""1"",""5633""
","
","
","""event"",""trial"",""time""
""fullscreenenter"",""1"",""5633""
","
",,,,,,,,,,,,"[{""stimulus"":""run_exp/static/images/task_images/dig.jpg"",""time"":0.39999985694885254},{""stimulus"":""run_exp/static/images/task_images/land.jpg"",""time"":864},{""stimulus"":""run_exp/static/images/task_images/dig.jpg"",""time"":1735}]",[],7,,,,,,,,,,,,,,
harvest,149,592251,0.0-45.0-1.0,"""event"",""trial"",""time""
""fullscreenenter"",""1"",""5633""
","
","
","""event"",""trial"",""time""
""fullscreenenter"",""1"",""5633""
","
",,null,run_exp/static/images/task_images/gems/63.jpg,null,,,,,,,53,,,7,,,,,63,0.835229197,0.841269841,,,,,,,
decision,150,592664,0.0-45.0-2.0,"""event"",""trial"",""time""
""fullscreenenter"",""1"",""5633""
","
","
","""event"",""trial"",""time""
""fullscreenenter"",""1"",""5633""
","
",,411,run_exp/static/images/task_images/land.jpg,65,,,,,,,53,,,7,,,,,,,,185234,1,2,FALSE,,,
dig,151,595258,0.0-46.0-0.0,"""event"",""trial"",""time""
""fullscreenenter"",""1"",""5633""
","
","
","""event"",""trial"",""time""
""fullscreenenter"",""1"",""5633""
","
",,,,,,,,,,,,"[{""stimulus"":""run_exp/static/images/task_images/dig.jpg"",""time"":0.3000001907348633},{""stimulus"":""run_exp/static/images/task_images/land.jpg"",""time"":865.6000001430511},{""stimulus"":""run_exp/static/images/task_images/dig.jpg"",""time"":1727.8000001907349}]",[],7,,,,,,,,,,,,,,
harvest,152,596261,0.0-46.0-1.0,"""event"",""trial"",""time""
""fullscreenenter"",""1"",""5633""
","
","
","""event"",""trial"",""time""
""fullscreenenter"",""1"",""5633""
","
",,null,run_exp/static/images/task_images/gems/53.jpg,null,,,,,,,44,,,7,,,,,53,0.829173119,0.830188679,,,,,,,
decision,153,597199,0.0-46.0-2.0,"""event"",""trial"",""time""
""fullscreenenter"",""1"",""5633""
","
","
","""event"",""trial"",""time""
""fullscreenenter"",""1"",""5633""
","
",,936.5,run_exp/static/images/task_images/land.jpg,65,,,,,,,44,,,7,,,,,,,,189769,1,3,FALSE,,,
dig,154,599266,0.0-47.0-0.0,"""event"",""trial"",""time""
""fullscreenenter"",""1"",""5633""
","
","
","""event"",""trial"",""time""
""fullscreenenter"",""1"",""5633""
","
",,,,,,,,,,,,"[{""stimulus"":""run_exp/static/images/task_images/dig.jpg"",""time"":0.40000009536743164},{""stimulus"":""run_exp/static/images/task_images/land.jpg"",""time"":690},{""stimulus"":""run_exp/static/images/task_images/dig.jpg"",""time"":1375.7000000476837}]",[],7,,,,,,,,,,,,,,
harvest,155,600269,0.0-47.0-1.0,"""event"",""trial"",""time""
""fullscreenenter"",""1"",""5633""
","
","
","""event"",""trial"",""time""
""fullscreenenter"",""1"",""5633""
","
",,null,run_exp/static/images/task_images/gems/44.jpg,null,,,,,,,37,,,7,,,,,44,0.83605657,0.840909091,,,,,,,
decision,156,601236,0.0-47.0-2.0,"""event"",""trial"",""time""
""fullscreenenter"",""1"",""5633""
","
","
","""event"",""trial"",""time""
""fullscreenenter"",""1"",""5633""
","
",,965.4000001,run_exp/static/images/task_images/land.jpg,65,,,,,,,37,,,7,,,,,,,,193806,1,4,FALSE,,,
dig,157,603275,0.0-48.0-0.0,"""event"",""trial"",""time""
""fullscreenenter"",""1"",""5633""
","
","
","""event"",""trial"",""time""
""fullscreenenter"",""1"",""5633""
","
",,,,,,,,,,,,"[{""stimulus"":""run_exp/static/images/task_images/dig.jpg"",""time"":0.2999999523162842},{""stimulus"":""run_exp/static/images/task_images/land.jpg"",""time"":679.7000000476837},{""stimulus"":""run_exp/static/images/task_images/dig.jpg"",""time"":1358}]",[],7,,,,,,,,,,,,,,
harvest,158,604278,0.0-48.0-1.0,"""event"",""trial"",""time""
""fullscreenenter"",""1"",""5633""
","
","
","""event"",""trial"",""time""
""fullscreenenter"",""1"",""5633""
","
",,null,run_exp/static/images/task_images/gems/37.jpg,null,,,,,,,27,,,7,,,,,37,0.728091313,0.72972973,,,,,,,
decision,159,604323,0.0-48.0-2.0,"""event"",""trial"",""time""
""fullscreenenter"",""1"",""5633""
","
","
","""event"",""trial"",""time""
""fullscreenenter"",""1"",""5633""
","
",,42.89999986,run_exp/static/images/task_images/land.jpg,76,,,,,,,27,,,7,,,,,,,,196893,1,5,TRUE,,,
travel,160,614282,0.0-49.0-0.0,"""event"",""trial"",""time""
""fullscreenenter"",""1"",""5633""
","
","
","""event"",""trial"",""time""
""fullscreenenter"",""1"",""5633""
","
",,,,,,,,,,,,"[{""stimulus"":""run_exp/static/images/task_images/rocket-01.jpg"",""time"":0.40000009536743164},{""stimulus"":""run_exp/static/images/task_images/rocket-02.jpg"",""time"":1108.2000000476837},{""stimulus"":""run_exp/static/images/task_images/rocket-03.jpg"",""time"":2214.2999999523163},{""stimulus"":""run_exp/static/images/task_images/rocket-04.jpg"",""time"":3320.7999999523163},{""stimulus"":""run_exp/static/images/task_images/rocket-05.jpg"",""time"":4426.400000095367},{""stimulus"":""run_exp/static/images/task_images/rocket-06.jpg"",""time"":5531.900000095367},{""stimulus"":""run_exp/static/images/task_images/rocket-07.jpg"",""time"":6638.200000047684},{""stimulus"":""run_exp/static/images/task_images/rocket-08.jpg"",""time"":7744.400000095367},{""stimulus"":""run_exp/static/images/task_images/rocket-09.jpg"",""time"":8851}]",[],7,,,,,,,,,,,,,,
alien_welcome,161,619285,0.0-49.0-1.0,"""event"",""trial"",""time""
""fullscreenenter"",""1"",""5633""
","
","
","""event"",""trial"",""time""
""fullscreenenter"",""1"",""5633""
","
",,null,run_exp/static/images/task_images/aliens/old_aliens/planet/alien_planet-32.jpg,null,,,,,,,,,,,,,32,"62,19,6,21,59,80,10,32,55,43,61,49,28,76,13,4,27,20,56,67,66,54,44,58,72,46,7,31,34,68,79,42,53,24,41,65,3,47,52,9,14,48,26,30,29,45,8,57,11,50,15",,,,,,,,,,
land,162,619790,0.0-49.0-2.0,"""event"",""trial"",""time""
""fullscreenenter"",""1"",""5633""
","
","
","""event"",""trial"",""time""
""fullscreenenter"",""1"",""5633""
","
",,null,run_exp/static/images/task_images/land.jpg,null,,,,,,,104,,,8,,,,,,,,,,,,,,
dig,163,621799,0.0-49.0-3.0,"""event"",""trial"",""time""
""fullscreenenter"",""1"",""5633""
","
","
","""event"",""trial"",""time""
""fullscreenenter"",""1"",""5633""
","
",,,,,,,,,,,,"[{""stimulus"":""run_exp/static/images/task_images/dig.jpg"",""time"":0.40000009536743164},{""stimulus"":""run_exp/static/images/task_images/land.jpg"",""time"":669.4000000953674},{""stimulus"":""run_exp/static/images/task_images/dig.jpg"",""time"":1338}]",[],8,,,,,,,,,,,,,,
harvest,164,622801,0.0-49.0-4.0,"""event"",""trial"",""time""
""fullscreenenter"",""1"",""5633""
","
","
","""event"",""trial"",""time""
""fullscreenenter"",""1"",""5633""
","
",,null,run_exp/static/images/task_images/gems/104.jpg,null,,,,,,,91,,,8,,,,,104,0.876300133,0.875,,,,,,,
decision,165,623936,0.0-49.0-5.0,"""event"",""trial"",""time""
""fullscreenenter"",""1"",""5633""
","
","
","""event"",""trial"",""time""
""fullscreenenter"",""1"",""5633""
","
",,1131.8,run_exp/static/images/task_images/land.jpg,65,,,,,,,91,,,8,,,,,,,,216506,1,0,FALSE,,,
dig,166,625807,0.0-50.0-0.0,"""event"",""trial"",""time""
""fullscreenenter"",""1"",""5633""
","
","
","""event"",""trial"",""time""
""fullscreenenter"",""1"",""5633""
","
",,,,,,,,,,,,"[{""stimulus"":""run_exp/static/images/task_images/dig.jpg"",""time"":0.2999999523162842},{""stimulus"":""run_exp/static/images/task_images/land.jpg"",""time"":625.7999999523163},{""stimulus"":""run_exp/static/images/task_images/dig.jpg"",""time"":1249.1999998092651}]",[],8,,,,,,,,,,,,,,
harvest,167,626817,0.0-50.0-1.0,"""event"",""trial"",""time""
""fullscreenenter"",""1"",""5633""
","
","
","""event"",""trial"",""time""
""fullscreenenter"",""1"",""5633""
","
",,null,run_exp/static/images/task_images/gems/91.jpg,null,,,,,,,78,,,8,,,,,91,0.854082528,0.857142857,,,,,,,
decision,168,628211,0.0-50.0-2.0,"""event"",""trial"",""time""
""fullscreenenter"",""1"",""5633""
","
","
","""event"",""trial"",""time""
""fullscreenenter"",""1"",""5633""
","
",,1391.5,run_exp/static/images/task_images/land.jpg,65,,,,,,,78,,,8,,,,,,,,220781,1,1,FALSE,,,
dig,169,629828,0.0-51.0-0.0,"""event"",""trial"",""time""
""fullscreenenter"",""1"",""5633""
","
","
","""event"",""trial"",""time""
""fullscreenenter"",""1"",""5633""
","
",,,,,,,,,,,,"[{""stimulus"":""run_exp/static/images/task_images/dig.jpg"",""time"":0.2999999523162842},{""stimulus"":""run_exp/static/images/task_images/land.jpg"",""time"":549},{""stimulus"":""run_exp/static/images/task_images/dig.jpg"",""time"":1074.2999999523163}]",[],8,,,,,,,,,,,,,,
harvest,170,630832,0.0-51.0-1.0,"""event"",""trial"",""time""
""fullscreenenter"",""1"",""5633""
","
","
","""event"",""trial"",""time""
""fullscreenenter"",""1"",""5633""
","
",,null,run_exp/static/images/task_images/gems/78.jpg,null,,,,,,,67,,,8,,,,,78,0.857409602,0.858974359,,,,,,,
decision,171,631465,0.0-51.0-2.0,"""event"",""trial"",""time""
""fullscreenenter"",""1"",""5633""
","
","
","""event"",""trial"",""time""
""fullscreenenter"",""1"",""5633""
","
",,629.6000001,run_exp/static/images/task_images/land.jpg,65,,,,,,,67,,,8,,,,,,,,224036,1,2,FALSE,,,
dig,172,633842,0.0-52.0-0.0,"""event"",""trial"",""time""
""fullscreenenter"",""1"",""5633""
","
","
","""event"",""trial"",""time""
""fullscreenenter"",""1"",""5633""
","
",,,,,,,,,,,,"[{""stimulus"":""run_exp/static/images/task_images/dig.jpg"",""time"":0.40000009536743164},{""stimulus"":""run_exp/static/images/task_images/land.jpg"",""time"":792.2999999523163},{""stimulus"":""run_exp/static/images/task_images/dig.jpg"",""time"":1582.2000000476837}]",[],8,,,,,,,,,,,,,,
harvest,173,634850,0.0-52.0-1.0,"""event"",""trial"",""time""
""fullscreenenter"",""1"",""5633""
","
","
","""event"",""trial"",""time""
""fullscreenenter"",""1"",""5633""
","
",,null,run_exp/static/images/task_images/gems/67.jpg,null,,,,,,,57,,,8,,,,,67,0.85655369,0.850746269,,,,,,,
decision,174,635307,0.0-52.0-2.0,"""event"",""trial"",""time""
""fullscreenenter"",""1"",""5633""
","
","
","""event"",""trial"",""time""
""fullscreenenter"",""1"",""5633""
","
",,453.4000001,run_exp/static/images/task_images/land.jpg,65,,,,,,,57,,,8,,,,,,,,227877,1,3,FALSE,,,
dig,175,637859,0.0-53.0-0.0,"""event"",""trial"",""time""
""fullscreenenter"",""1"",""5633""
","
","
","""event"",""trial"",""time""
""fullscreenenter"",""1"",""5633""
","
",,,,,,,,,,,,"[{""stimulus"":""run_exp/static/images/task_images/dig.jpg"",""time"":0.2999999523162842},{""stimulus"":""run_exp/static/images/task_images/land.jpg"",""time"":850.5},{""stimulus"":""run_exp/static/images/task_images/dig.jpg"",""time"":1698.6999998092651}]",[],8,,,,,,,,,,,,,,
harvest,176,638862,0.0-53.0-1.0,"""event"",""trial"",""time""
""fullscreenenter"",""1"",""5633""
","
","
","""event"",""trial"",""time""
""fullscreenenter"",""1"",""5633""
","
",,null,run_exp/static/images/task_images/gems/57.jpg,null,,,,,,,41,,,8,,,,,57,0.727440362,0.719298246,,,,,,,
decision,177,639984,0.0-53.0-2.0,"""event"",""trial"",""time""
""fullscreenenter"",""1"",""5633""
","
","
","""event"",""trial"",""time""
""fullscreenenter"",""1"",""5633""
","
",,1120.3,run_exp/static/images/task_images/land.jpg,76,,,,,,,41,,,8,,,,,,,,232554,1,4,TRUE,,,
travel,178,648864,0.0-54.0-0.0,"""event"",""trial"",""time""
""fullscreenenter"",""1"",""5633""
","
","
","""event"",""trial"",""time""
""fullscreenenter"",""1"",""5633""
","
",,,,,,,,,,,,"[{""stimulus"":""run_exp/static/images/task_images/rocket-01.jpg"",""time"":0.3000001907348633},{""stimulus"":""run_exp/static/images/task_images/rocket-02.jpg"",""time"":988.2000000476837},{""stimulus"":""run_exp/static/images/task_images/rocket-03.jpg"",""time"":1975.8000001907349},{""stimulus"":""run_exp/static/images/task_images/rocket-04.jpg"",""time"":2960.800000190735},{""stimulus"":""run_exp/static/images/task_images/rocket-05.jpg"",""time"":3946.600000143051},{""stimulus"":""run_exp/static/images/task_images/rocket-06.jpg"",""time"":4931.800000190735},{""stimulus"":""run_exp/static/images/task_images/rocket-07.jpg"",""time"":5917.800000190735},{""stimulus"":""run_exp/static/images/task_images/rocket-08.jpg"",""time"":6904.5},{""stimulus"":""run_exp/static/images/task_images/rocket-09.jpg"",""time"":7890.5}]",[],8,,,,,,,,,,,,,,
alien_welcome,179,653868,0.0-54.0-1.0,"""event"",""trial"",""time""
""fullscreenenter"",""1"",""5633""
","
","
","""event"",""trial"",""time""
""fullscreenenter"",""1"",""5633""
","
",,null,run_exp/static/images/task_images/aliens/old_aliens/planet/alien_planet-55.jpg,null,,,,,,,,,,,,,55,"62,19,6,21,59,80,10,32,55,43,61,49,28,76,13,4,27,20,56,67,66,54,44,58,72,46,7,31,34,68,79,42,53,24,41,65,3,47,52,9,14,48,26,30,29,45,8,57,11,50,15",,,,,,,,,,
land,180,654371,0.0-54.0-2.0,"""event"",""trial"",""time""
""fullscreenenter"",""1"",""5633""
","
","
","""event"",""trial"",""time""
""fullscreenenter"",""1"",""5633""
","
",,null,run_exp/static/images/task_images/land.jpg,null,,,,,,,103,,,9,,,,,,,,,,,,,,
dig,181,656377,0.0-54.0-3.0,"""event"",""trial"",""time""
""fullscreenenter"",""1"",""5633""
","
","
","""event"",""trial"",""time""
""fullscreenenter"",""1"",""5633""
","
",,,,,,,,,,,,"[{""stimulus"":""run_exp/static/images/task_images/dig.jpg"",""time"":0.5},{""stimulus"":""run_exp/static/images/task_images/land.jpg"",""time"":670},{""stimulus"":""run_exp/static/images/task_images/dig.jpg"",""time"":1336.5}]",[],9,,,,,,,,,,,,,,
harvest,182,657380,0.0-54.0-4.0,"""event"",""trial"",""time""
""fullscreenenter"",""1"",""5633""
","
","
","""event"",""trial"",""time""
""fullscreenenter"",""1"",""5633""
","
",,null,run_exp/static/images/task_images/gems/103.jpg,null,,,,,,,15,,,9,,,,,103,0.147416702,0.145631068,,,,,,,
decision,183,657953,0.0-54.0-5.0,"""event"",""trial"",""time""
""fullscreenenter"",""1"",""5633""
","
","
","""event"",""trial"",""time""
""fullscreenenter"",""1"",""5633""
","
",,571,run_exp/static/images/task_images/land.jpg,65,,,,,,,15,,,9,,,,,,,,250523,1,0,FALSE,,,
dig,184,660386,0.0-55.0-0.0,"""event"",""trial"",""time""
""fullscreenenter"",""1"",""5633""
","
","
","""event"",""trial"",""time""
""fullscreenenter"",""1"",""5633""
","
",,,,,,,,,,,,"[{""stimulus"":""run_exp/static/images/task_images/dig.jpg"",""time"":0.40000009536743164},{""stimulus"":""run_exp/static/images/task_images/land.jpg"",""time"":811.5},{""stimulus"":""run_exp/static/images/task_images/dig.jpg"",""time"":1620.8000001907349}]",[],9,,,,,,,,,,,,,,
harvest,185,661389,0.0-55.0-1.0,"""event"",""trial"",""time""
""fullscreenenter"",""1"",""5633""
","
","
","""event"",""trial"",""time""
""fullscreenenter"",""1"",""5633""
","
",,null,run_exp/static/images/task_images/gems/15.jpg,null,,,,,,,2,,,9,,,,,15,0.161269192,0.133333333,,,,,,,
decision,186,661440,0.0-55.0-2.0,"""event"",""trial"",""time""
""fullscreenenter"",""1"",""5633""
","
","
","""event"",""trial"",""time""
""fullscreenenter"",""1"",""5633""
","
",,49.19999981,run_exp/static/images/task_images/land.jpg,76,,,,,,,2,,,9,,,,,,,,254010,1,1,TRUE,,,
travel,187,671393,0.0-56.0-0.0,"""event"",""trial"",""time""
""fullscreenenter"",""1"",""5633""
","
","
","""event"",""trial"",""time""
""fullscreenenter"",""1"",""5633""
","
",,,,,,,,,,,,"[{""stimulus"":""run_exp/static/images/task_images/rocket-01.jpg"",""time"":0.40000009536743164},{""stimulus"":""run_exp/static/images/task_images/rocket-02.jpg"",""time"":1108.2000000476837},{""stimulus"":""run_exp/static/images/task_images/rocket-03.jpg"",""time"":2212.7000000476837},{""stimulus"":""run_exp/static/images/task_images/rocket-04.jpg"",""time"":3318.2000000476837},{""stimulus"":""run_exp/static/images/task_images/rocket-05.jpg"",""time"":4422.900000095367},{""stimulus"":""run_exp/static/images/task_images/rocket-06.jpg"",""time"":5526.900000095367},{""stimulus"":""run_exp/static/images/task_images/rocket-07.jpg"",""time"":6632.900000095367},{""stimulus"":""run_exp/static/images/task_images/rocket-08.jpg"",""time"":7738.100000143051},{""stimulus"":""run_exp/static/images/task_images/rocket-09.jpg"",""time"":8842}]",[],9,,,,,,,,,,,,,,
alien_welcome,188,676396,0.0-56.0-1.0,"""event"",""trial"",""time""
""fullscreenenter"",""1"",""5633""
","
","
","""event"",""trial"",""time""
""fullscreenenter"",""1"",""5633""
","
",,null,run_exp/static/images/task_images/aliens/old_aliens/planet/alien_planet-43.jpg,null,,,,,,,,,,,,,43,"62,19,6,21,59,80,10,32,55,43,61,49,28,76,13,4,27,20,56,67,66,54,44,58,72,46,7,31,34,68,79,42,53,24,41,65,3,47,52,9,14,48,26,30,29,45,8,57,11,50,15",,,,,,,,,,
land,189,676898,0.0-56.0-2.0,"""event"",""trial"",""time""
""fullscreenenter"",""1"",""5633""
","
","
","""event"",""trial"",""time""
""fullscreenenter"",""1"",""5633""
","
",,null,run_exp/static/images/task_images/land.jpg,null,,,,,,,96,,,10,,,,,,,,,,,,,,
dig,190,678904,0.0-56.0-3.0,"""event"",""trial"",""time""
""fullscreenenter"",""1"",""5633""
","
","
","""event"",""trial"",""time""
""fullscreenenter"",""1"",""5633""
","
",,,,,,,,,,,,"[{""stimulus"":""run_exp/static/images/task_images/dig.jpg"",""time"":0.6000001430511475},{""stimulus"":""run_exp/static/images/task_images/land.jpg"",""time"":669.4000000953674},{""stimulus"":""run_exp/static/images/task_images/dig.jpg"",""time"":1336.7999999523163}]",[],10,,,,,,,,,,,,,,
harvest,191,679907,0.0-56.0-4.0,"""event"",""trial"",""time""
""fullscreenenter"",""1"",""5633""
","
","
","""event"",""trial"",""time""
""fullscreenenter"",""1"",""5633""
","
",,null,run_exp/static/images/task_images/gems/96.jpg,null,,,,,,,17,,,10,,,,,96,0.17687228,0.177083333,,,,,,,
decision,192,679949,0.0-56.0-5.0,"""event"",""trial"",""time""
""fullscreenenter"",""1"",""5633""
","
","
","""event"",""trial"",""time""
""fullscreenenter"",""1"",""5633""
","
",,40.20000005,run_exp/static/images/task_images/land.jpg,65,,,,,,,17,,,10,,,,,,,,272519,1,0,FALSE,,,
dig,193,682914,0.0-57.0-0.0,"""event"",""trial"",""time""
""fullscreenenter"",""1"",""5633""
","
","
","""event"",""trial"",""time""
""fullscreenenter"",""1"",""5633""
","
",,,,,,,,,,,,"[{""stimulus"":""run_exp/static/images/task_images/dig.jpg"",""time"":0.40000009536743164},{""stimulus"":""run_exp/static/images/task_images/land.jpg"",""time"":988.8000001907349},{""stimulus"":""run_exp/static/images/task_images/dig.jpg"",""time"":1974}]",[],10,,,,,,,,,,,,,,
harvest,194,683917,0.0-57.0-1.0,"""event"",""trial"",""time""
""fullscreenenter"",""1"",""5633""
","
","
","""event"",""trial"",""time""
""fullscreenenter"",""1"",""5633""
","
",,null,run_exp/static/images/task_images/gems/17.jpg,null,,,,,,,3,,,10,,,,,17,0.196609751,0.176470588,,,,,,,
decision,195,684583,0.0-57.0-2.0,"""event"",""trial"",""time""
""fullscreenenter"",""1"",""5633""
","
","
","""event"",""trial"",""time""
""fullscreenenter"",""1"",""5633""
","
",,664.7,run_exp/static/images/task_images/land.jpg,76,,,,,,,3,,,10,,,,,,,,277153,1,1,TRUE,,,
travel,196,693923,0.0-58.0-0.0,"""event"",""trial"",""time""
""fullscreenenter"",""1"",""5633""
","
","
","""event"",""trial"",""time""
""fullscreenenter"",""1"",""5633""
","
",,,,,,,,,,,,"[{""stimulus"":""run_exp/static/images/task_images/rocket-01.jpg"",""time"":0.40000009536743164},{""stimulus"":""run_exp/static/images/task_images/rocket-02.jpg"",""time"":1040},{""stimulus"":""run_exp/static/images/task_images/rocket-03.jpg"",""time"":2076},{""stimulus"":""run_exp/static/images/task_images/rocket-04.jpg"",""time"":3113.100000143051},{""stimulus"":""run_exp/static/images/task_images/rocket-05.jpg"",""time"":4150.900000095367},{""stimulus"":""run_exp/static/images/task_images/rocket-06.jpg"",""time"":5187.200000047684},{""stimulus"":""run_exp/static/images/task_images/rocket-07.jpg"",""time"":6225.400000095367},{""stimulus"":""run_exp/static/images/task_images/rocket-08.jpg"",""time"":7261.400000095367},{""stimulus"":""run_exp/static/images/task_images/rocket-09.jpg"",""time"":8299.200000047684}]",[],10,,,,,,,,,,,,,,
alien_welcome,197,698927,0.0-58.0-1.0,"""event"",""trial"",""time""
""fullscreenenter"",""1"",""5633""
","
","
","""event"",""trial"",""time""
""fullscreenenter"",""1"",""5633""
","
",,null,run_exp/static/images/task_images/aliens/old_aliens/planet/alien_planet-61.jpg,null,,,,,,,,,,,,,61,"62,19,6,21,59,80,10,32,55,43,61,49,28,76,13,4,27,20,56,67,66,54,44,58,72,46,7,31,34,68,79,42,53,24,41,65,3,47,52,9,14,48,26,30,29,45,8,57,11,50,15",,,,,,,,,,
land,198,699429,0.0-58.0-2.0,"""event"",""trial"",""time""
""fullscreenenter"",""1"",""5633""
","
","
","""event"",""trial"",""time""
""fullscreenenter"",""1"",""5633""
","
",,null,run_exp/static/images/task_images/land.jpg,null,,,,,,,95,,,11,,,,,,,,,,,,,,
dig,199,701434,0.0-58.0-3.0,"""event"",""trial"",""time""
""fullscreenenter"",""1"",""5633""
","
","
","""event"",""trial"",""time""
""fullscreenenter"",""1"",""5633""
","
",,,,,,,,,,,,"[{""stimulus"":""run_exp/static/images/task_images/dig.jpg"",""time"":0.39999985694885254},{""stimulus"":""run_exp/static/images/task_images/land.jpg"",""time"":670.5999999046326},{""stimulus"":""run_exp/static/images/task_images/dig.jpg"",""time"":1335.8999998569489}]",[],11,,,,,,,,,,,,,,
harvest,200,702437,0.0-58.0-4.0,"""event"",""trial"",""time""
""fullscreenenter"",""1"",""5633""
","
","
","""event"",""trial"",""time""
""fullscreenenter"",""1"",""5633""
","
",,null,run_exp/static/images/task_images/gems/95.jpg,null,,,,,,,14,,,11,,,,,95,0.143948954,0.147368421,,,,,,,
decision,201,703584,0.0-58.0-5.0,"""event"",""trial"",""time""
""fullscreenenter"",""1"",""5633""
","
","
","""event"",""trial"",""time""
""fullscreenenter"",""1"",""5633""
","
",,1144.9,run_exp/static/images/task_images/land.jpg,65,,,,,,,14,,,11,,,,,,,,296154,1,0,FALSE,,,
dig,202,705444,0.0-59.0-0.0,"""event"",""trial"",""time""
""fullscreenenter"",""1"",""5633""
","
","
","""event"",""trial"",""time""
""fullscreenenter"",""1"",""5633""
","
",,,,,,,,,,,,"[{""stimulus"":""run_exp/static/images/task_images/dig.jpg"",""time"":0.5},{""stimulus"":""run_exp/static/images/task_images/land.jpg"",""time"":620},{""stimulus"":""run_exp/static/images/task_images/dig.jpg"",""time"":1239.2999999523163}]",[],11,,,,,,,,,,,,,,
harvest,203,706446,0.0-59.0-1.0,"""event"",""trial"",""time""
""fullscreenenter"",""1"",""5633""
","
","
","""event"",""trial"",""time""
""fullscreenenter"",""1"",""5633""
","
",,null,run_exp/static/images/task_images/gems/14.jpg,null,,,,,,,3,,,11,,,,,14,0.207845097,0.214285714,,,,,,,
decision,204,708122,0.0-59.0-2.0,"""event"",""trial"",""time""
""fullscreenenter"",""1"",""5633""
","
","
","""event"",""trial"",""time""
""fullscreenenter"",""1"",""5633""
","
",,1674.3,run_exp/static/images/task_images/land.jpg,76,,,,,,,3,,,11,,,,,,,,300692,1,1,TRUE,,,
end_of_block_continue,205,717046,0.0-60.0-0.0,"""event"",""trial"",""time""
""fullscreenenter"",""1"",""5633""
","
","
","""event"",""trial"",""time""
""fullscreenenter"",""1"",""5633""
","
",,null,run_exp/static/audio/clip_32_block_end.m4a,,,,,,,null,,,,,,,,,,,,,,,,,,
alien_welcome,206,722054,0.0-61.0-0.0,"""event"",""trial"",""time""
""fullscreenenter"",""1"",""5633""
","
","
","""event"",""trial"",""time""
""fullscreenenter"",""1"",""5633""
","
",,null,run_exp/static/images/task_images/aliens/old_aliens/planet/alien_planet-49.jpg,null,,,,,,,,,,,,,49,"62,19,6,21,59,80,10,32,55,43,61,49,28,76,13,4,27,20,56,67,66,54,44,58,72,46,7,31,34,68,79,42,53,24,41,65,3,47,52,9,14,48,26,30,29,45,8,57,11,50,15",,,,,,,,,,
land,207,722557,0.0-61.0-1.0,"""event"",""trial"",""time""
""fullscreenenter"",""1"",""5633""
","
","
","""event"",""trial"",""time""
""fullscreenenter"",""1"",""5633""
","
",,null,run_exp/static/images/task_images/land.jpg,null,,,,,,,98,,,12,,,,,,,,,,,,,,
dig,208,724562,0.0-61.0-2.0,"""event"",""trial"",""time""
""fullscreenenter"",""1"",""5633""
","
","
","""event"",""trial"",""time""
""fullscreenenter"",""1"",""5633""
","
",,,,,,,,,,,,"[{""stimulus"":""run_exp/static/images/task_images/dig.jpg"",""time"":0.5},{""stimulus"":""run_exp/static/images/task_images/land.jpg"",""time"":669.5},{""stimulus"":""run_exp/static/images/task_images/dig.jpg"",""time"":1336}]",[],12,,,,,,,,,,,,,,
harvest,209,725565,0.0-61.0-3.0,"""event"",""trial"",""time""
""fullscreenenter"",""1"",""5633""
","
","
","""event"",""trial"",""time""
""fullscreenenter"",""1"",""5633""
","
",,null,run_exp/static/images/task_images/gems/98.jpg,null,,,,,,,22,,,12,,,,,98,0.228615223,0.224489796,,,,,,,
decision,210,726067,0.0-61.0-4.0,"""event"",""trial"",""time""
""fullscreenenter"",""1"",""5633""
","
","
","""event"",""trial"",""time""
""fullscreenenter"",""1"",""5633""
","
",,500.8000002,run_exp/static/images/task_images/land.jpg,65,,,,,,,22,,,12,,,,,,,,9016,2,0,FALSE,,,
dig,211,728575,0.0-62.0-0.0,"""event"",""trial"",""time""
""fullscreenenter"",""1"",""5633""
","
","
","""event"",""trial"",""time""
""fullscreenenter"",""1"",""5633""
","
",,,,,,,,,,,,"[{""stimulus"":""run_exp/static/images/task_images/dig.jpg"",""time"":0.2999999523162842},{""stimulus"":""run_exp/static/images/task_images/land.jpg"",""time"":835.0999999046326},{""stimulus"":""run_exp/static/images/task_images/dig.jpg"",""time"":1668.5}]",[],12,,,,,,,,,,,,,,
harvest,212,729577,0.0-62.0-1.0,"""event"",""trial"",""time""
""fullscreenenter"",""1"",""5633""
","
","
","""event"",""trial"",""time""
""fullscreenenter"",""1"",""5633""
","
",,null,run_exp/static/images/task_images/gems/22.jpg,null,,,,,,,6,,,12,,,,,22,0.256931582,0.272727273,,,,,,,
decision,213,730030,0.0-62.0-2.0,"""event"",""trial"",""time""
""fullscreenenter"",""1"",""5633""
","
","
","""event"",""trial"",""time""
""fullscreenenter"",""1"",""5633""
","
",,450.7,run_exp/static/images/task_images/land.jpg,76,,,,,,,6,,,12,,,,,,,,12979,2,1,TRUE,,,
travel,214,739585,0.0-63.0-0.0,"""event"",""trial"",""time""
""fullscreenenter"",""1"",""5633""
","
","
","""event"",""trial"",""time""
""fullscreenenter"",""1"",""5633""
","
",,,,,,,,,,,,"[{""stimulus"":""run_exp/static/images/task_images/rocket-01.jpg"",""time"":0.2999999523162842},{""stimulus"":""run_exp/static/images/task_images/rocket-02.jpg"",""time"":1063.2000000476837},{""stimulus"":""run_exp/static/images/task_images/rocket-03.jpg"",""time"":2124.5},{""stimulus"":""run_exp/static/images/task_images/rocket-04.jpg"",""time"":3184.7000000476837},{""stimulus"":""run_exp/static/images/task_images/rocket-05.jpg"",""time"":4246.099999904633},{""stimulus"":""run_exp/static/images/task_images/rocket-06.jpg"",""time"":5308.200000047684},{""stimulus"":""run_exp/static/images/task_images/rocket-07.jpg"",""time"":6369.200000047684},{""stimulus"":""run_exp/static/images/task_images/rocket-08.jpg"",""time"":7429.799999952316},{""stimulus"":""run_exp/static/images/task_images/rocket-09.jpg"",""time"":8490.200000047684}]",[],12,,,,,,,,,,,,,,
alien_welcome,215,744589,0.0-63.0-1.0,"""event"",""trial"",""time""
""fullscreenenter"",""1"",""5633""
","
","
","""event"",""trial"",""time""
""fullscreenenter"",""1"",""5633""
","
",,null,run_exp/static/images/task_images/aliens/old_aliens/planet/alien_planet-28.jpg,null,,,,,,,,,,,,,28,"62,19,6,21,59,80,10,32,55,43,61,49,28,76,13,4,27,20,56,67,66,54,44,58,72,46,7,31,34,68,79,42,53,24,41,65,3,47,52,9,14,48,26,30,29,45,8,57,11,50,15",,,,,,,,,,
land,216,745093,0.0-63.0-2.0,"""event"",""trial"",""time""
""fullscreenenter"",""1"",""5633""
","
","
","""event"",""trial"",""time""
""fullscreenenter"",""1"",""5633""
","
",,null,run_exp/static/images/task_images/land.jpg,null,,,,,,,91,,,13,,,,,,,,,,,,,,
dig,217,747098,0.0-63.0-3.0,"""event"",""trial"",""time""
""fullscreenenter"",""1"",""5633""
","
","
","""event"",""trial"",""time""
""fullscreenenter"",""1"",""5633""
","
",,,,,,,,,,,,"[{""stimulus"":""run_exp/static/images/task_images/dig.jpg"",""time"":0.40000009536743164},{""stimulus"":""run_exp/static/images/task_images/land.jpg"",""time"":670},{""stimulus"":""run_exp/static/images/task_images/dig.jpg"",""time"":1336.2999999523163}]",[],13,,,,,,,,,,,,,,
harvest,218,748099,0.0-63.0-4.0,"""event"",""trial"",""time""
""fullscreenenter"",""1"",""5633""
","
","
","""event"",""trial"",""time""
""fullscreenenter"",""1"",""5633""
","
",,null,run_exp/static/images/task_images/gems/91.jpg,null,,,,,,,23,,,13,,,,,91,0.25421876,0.252747253,,,,,,,
decision,219,749095,0.0-63.0-5.0,"""event"",""trial"",""time""
""fullscreenenter"",""1"",""5633""
","
","
","""event"",""trial"",""time""
""fullscreenenter"",""1"",""5633""
","
",,993.3999999,run_exp/static/images/task_images/land.jpg,76,,,,,,,23,,,13,,,,,,,,32044,2,0,TRUE,,,
travel,220,758101,0.0-64.0-0.0,"""event"",""trial"",""time""
""fullscreenenter"",""1"",""5633""
","
","
","""event"",""trial"",""time""
""fullscreenenter"",""1"",""5633""
","
",,,,,,,,,,,,"[{""stimulus"":""run_exp/static/images/task_images/rocket-01.jpg"",""time"":0.2999999523162842},{""stimulus"":""run_exp/static/images/task_images/rocket-02.jpg"",""time"":1004.0999999046326},{""stimulus"":""run_exp/static/images/task_images/rocket-03.jpg"",""time"":2002.3999998569489},{""stimulus"":""run_exp/static/images/task_images/rocket-04.jpg"",""time"":3002.2000000476837},{""stimulus"":""run_exp/static/images/task_images/rocket-05.jpg"",""time"":4002.399999856949},{""stimulus"":""run_exp/static/images/task_images/rocket-06.jpg"",""time"":5002},{""stimulus"":""run_exp/static/images/task_images/rocket-07.jpg"",""time"":6002.5},{""stimulus"":""run_exp/static/images/task_images/rocket-08.jpg"",""time"":7002.200000047684},{""stimulus"":""run_exp/static/images/task_images/rocket-09.jpg"",""time"":8002.399999856949}]",[],13,,,,,,,,,,,,,,
alien_welcome,221,763105,0.0-64.0-1.0,"""event"",""trial"",""time""
""fullscreenenter"",""1"",""5633""
","
","
","""event"",""trial"",""time""
""fullscreenenter"",""1"",""5633""
","
",,null,run_exp/static/images/task_images/aliens/old_aliens/planet/alien_planet-76.jpg,null,,,,,,,,,,,,,76,"62,19,6,21,59,80,10,32,55,43,61,49,28,76,13,4,27,20,56,67,66,54,44,58,72,46,7,31,34,68,79,42,53,24,41,65,3,47,52,9,14,48,26,30,29,45,8,57,11,50,15",,,,,,,,,,
land,222,763608,0.0-64.0-2.0,"""event"",""trial"",""time""
""fullscreenenter"",""1"",""5633""
","
","
","""event"",""trial"",""time""
""fullscreenenter"",""1"",""5633""
","
",,null,run_exp/static/images/task_images/land.jpg,null,,,,,,,93,,,14,,,,,,,,,,,,,,
dig,223,765613,0.0-64.0-3.0,"""event"",""trial"",""time""
""fullscreenenter"",""1"",""5633""
","
","
","""event"",""trial"",""time""
""fullscreenenter"",""1"",""5633""
","
",,,,,,,,,,,,"[{""stimulus"":""run_exp/static/images/task_images/dig.jpg"",""time"":0.40000009536743164},{""stimulus"":""run_exp/static/images/task_images/land.jpg"",""time"":669.5},{""stimulus"":""run_exp/static/images/task_images/dig.jpg"",""time"":1336.2999999523163}]",[],14,,,,,,,,,,,,,,
harvest,224,766624,0.0-64.0-4.0,"""event"",""trial"",""time""
""fullscreenenter"",""1"",""5633""
","
","
","""event"",""trial"",""time""
""fullscreenenter"",""1"",""5633""
","
",,null,run_exp/static/images/task_images/gems/93.jpg,null,,,,,,,19,,,14,,,,,93,0.202105971,0.204301075,,,,,,,
decision,225,767073,0.0-64.0-5.0,"""event"",""trial"",""time""
""fullscreenenter"",""1"",""5633""
","
","
","""event"",""trial"",""time""
""fullscreenenter"",""1"",""5633""
","
",,446.6999998,run_exp/static/images/task_images/land.jpg,65,,,,,,,19,,,14,,,,,,,,50022,2,0,FALSE,,,
dig,226,769632,0.0-65.0-0.0,"""event"",""trial"",""time""
""fullscreenenter"",""1"",""5633""
","
","
","""event"",""trial"",""time""
""fullscreenenter"",""1"",""5633""
","
",,,,,,,,,,,,"[{""stimulus"":""run_exp/static/images/task_images/dig.jpg"",""time"":0.40000009536743164},{""stimulus"":""run_exp/static/images/task_images/land.jpg"",""time"":853.2999999523163},{""stimulus"":""run_exp/static/images/task_images/dig.jpg"",""time"":1704.2000000476837}]",[],14,,,,,,,,,,,,,,
harvest,227,770635,0.0-65.0-1.0,"""event"",""trial"",""time""
""fullscreenenter"",""1"",""5633""
","
","
","""event"",""trial"",""time""
""fullscreenenter"",""1"",""5633""
","
",,null,run_exp/static/images/task_images/gems/19.jpg,null,,,,,,,4,,,14,,,,,19,0.227729193,0.210526316,,,,,,,
decision,228,771578,0.0-65.0-2.0,"""event"",""trial"",""time""
""fullscreenenter"",""1"",""5633""
","
","
","""event"",""trial"",""time""
""fullscreenenter"",""1"",""5633""
","
",,941.1000001,run_exp/static/images/task_images/land.jpg,76,,,,,,,4,,,14,,,,,,,,54528,2,1,TRUE,,,
travel,229,780639,0.0-66.0-0.0,"""event"",""trial"",""time""
""fullscreenenter"",""1"",""5633""
","
","
","""event"",""trial"",""time""
""fullscreenenter"",""1"",""5633""
","
",,,,,,,,,,,,"[{""stimulus"":""run_exp/static/images/task_images/rocket-01.jpg"",""time"":0.39999985694885254},{""stimulus"":""run_exp/static/images/task_images/rocket-02.jpg"",""time"":1007.8999998569489},{""stimulus"":""run_exp/static/images/task_images/rocket-03.jpg"",""time"":2015.2000000476837},{""stimulus"":""run_exp/static/images/task_images/rocket-04.jpg"",""time"":3020.399999856949},{""stimulus"":""run_exp/static/images/task_images/rocket-05.jpg"",""time"":4025.5999999046326},{""stimulus"":""run_exp/static/images/task_images/rocket-06.jpg"",""time"":5032.700000047684},{""stimulus"":""run_exp/static/images/task_images/rocket-07.jpg"",""time"":6037.599999904633},{""stimulus"":""run_exp/static/images/task_images/rocket-08.jpg"",""time"":7045},{""stimulus"":""run_exp/static/images/task_images/rocket-09.jpg"",""time"":8050.700000047684}]",[],14,,,,,,,,,,,,,,
alien_welcome,230,785643,0.0-66.0-1.0,"""event"",""trial"",""time""
""fullscreenenter"",""1"",""5633""
","
","
","""event"",""trial"",""time""
""fullscreenenter"",""1"",""5633""
","
",,null,run_exp/static/images/task_images/aliens/old_aliens/planet/alien_planet-13.jpg,null,,,,,,,,,,,,,13,"62,19,6,21,59,80,10,32,55,43,61,49,28,76,13,4,27,20,56,67,66,54,44,58,72,46,7,31,34,68,79,42,53,24,41,65,3,47,52,9,14,48,26,30,29,45,8,57,11,50,15",,,,,,,,,,
land,231,786146,0.0-66.0-2.0,"""event"",""trial"",""time""
""fullscreenenter"",""1"",""5633""
","
","
","""event"",""trial"",""time""
""fullscreenenter"",""1"",""5633""
","
",,null,run_exp/static/images/task_images/land.jpg,null,,,,,,,95,,,15,,,,,,,,,,,,,,
dig,232,788150,0.0-66.0-3.0,"""event"",""trial"",""time""
""fullscreenenter"",""1"",""5633""
","
","
","""event"",""trial"",""time""
""fullscreenenter"",""1"",""5633""
","
",,,,,,,,,,,,"[{""stimulus"":""run_exp/static/images/task_images/dig.jpg"",""time"":0.39999985694885254},{""stimulus"":""run_exp/static/images/task_images/land.jpg"",""time"":668.7999999523163},{""stimulus"":""run_exp/static/images/task_images/dig.jpg"",""time"":1337.6999998092651}]",[],15,,,,,,,,,,,,,,
harvest,233,789153,0.0-66.0-4.0,"""event"",""trial"",""time""
""fullscreenenter"",""1"",""5633""
","
","
","""event"",""trial"",""time""
""fullscreenenter"",""1"",""5633""
","
",,null,run_exp/static/images/task_images/gems/95.jpg,null,,,,,,,72,,,15,,,,,95,0.753235056,0.757894737,,,,,,,
decision,234,789376,0.0-66.0-5.0,"""event"",""trial"",""time""
""fullscreenenter"",""1"",""5633""
","
","
","""event"",""trial"",""time""
""fullscreenenter"",""1"",""5633""
","
",,221.4000001,run_exp/static/images/task_images/land.jpg,65,,,,,,,72,,,15,,,,,,,,72325,2,0,FALSE,,,
dig,235,792163,0.0-67.0-0.0,"""event"",""trial"",""time""
""fullscreenenter"",""1"",""5633""
","
","
","""event"",""trial"",""time""
""fullscreenenter"",""1"",""5633""
","
",,,,,,,,,,,,"[{""stimulus"":""run_exp/static/images/task_images/dig.jpg"",""time"":0.7999999523162842},{""stimulus"":""run_exp/static/images/task_images/land.jpg"",""time"":928.3999998569489},{""stimulus"":""run_exp/static/images/task_images/dig.jpg"",""time"":1855.5999999046326}]",[],15,,,,,,,,,,,,,,
harvest,236,793166,0.0-67.0-1.0,"""event"",""trial"",""time""
""fullscreenenter"",""1"",""5633""
","
","
","""event"",""trial"",""time""
""fullscreenenter"",""1"",""5633""
","
",,null,run_exp/static/images/task_images/gems/72.jpg,null,,,,,,,61,,,15,,,,,72,0.849726645,0.847222222,,,,,,,
decision,237,794686,0.0-67.0-2.0,"""event"",""trial"",""time""
""fullscreenenter"",""1"",""5633""
","
","
","""event"",""trial"",""time""
""fullscreenenter"",""1"",""5633""
","
",,1518.5,run_exp/static/images/task_images/land.jpg,65,,,,,,,61,,,15,,,,,,,,77635,2,1,FALSE,,,
dig,238,796171,0.0-68.0-0.0,"""event"",""trial"",""time""
""fullscreenenter"",""1"",""5633""
","
","
","""event"",""trial"",""time""
""fullscreenenter"",""1"",""5633""
","
