trial_type,trial_index,time_elapsed,internal_node_id,interactions,blur_events,focus_events,fullscreenenter_events,fullscreenexit_events,success,rt,stimulus,key_press,prompt,subject_id,participant_id,age,gender,button_pressed,next_reward,animation_sequence,responses,planet,curr_prac_trial,n_prac_rounds,alien,aliens,reward_received,decay_rate_actual,decay_rate_exp,time_in_block,block_num,prt,last_trial_on_planet,button_html,bonus,num_failures
pavlovia,0,13,0.0-0.0,"""event"",""trial"",""time""
""focus"",""0"",""0""
""fullscreenenter"",""1"",""5762""
","
","""event"",""trial"",""time""
""focus"",""0"",""0""
","""event"",""trial"",""time""
""fullscreenenter"",""1"",""5762""
","
",,,,,,,,,,,,,,,,,,,,,,,,,,,,
fullscreen,1,6484,0.0-1.0,"""event"",""trial"",""time""
""focus"",""0"",""0""
""fullscreenenter"",""1"",""5762""
","
","""event"",""trial"",""time""
""focus"",""0"",""0""
","""event"",""trial"",""time""
""fullscreenenter"",""1"",""5762""
","
",TRUE,,,,,,,,,,,,,,,,,,,,,,,,,,,
instruc_welcome,2,16279,0.0-2.0,"""event"",""trial"",""time""
""focus"",""0"",""0""
""fullscreenenter"",""1"",""5762""
","
","""event"",""trial"",""time""
""focus"",""0"",""0""
","""event"",""trial"",""time""
""fullscreenenter"",""1"",""5762""
","
",,null,run_exp/static/audio/clip_1_welcome.m4a,null,"<p>Howdy! In this experiment, you’ll be an explorer traveling through space to collect space treasure.</p><p>Your mission is to collect as much treasure as possible.</p><br><br><p><img src='run_exp/static/images/task_images/opening_img-01.jpg' height='300' width='auto'></p>",12496,2338,8.42,Female,,,,,,,,,,,,,,,,,,,
audio-keyboard-response,3,32925,0.0-3.0,"""event"",""trial"",""time""
""focus"",""0"",""0""
""fullscreenenter"",""1"",""5762""
","
","""event"",""trial"",""time""
""focus"",""0"",""0""
","""event"",""trial"",""time""
""fullscreenenter"",""1"",""5762""
","
",,null,run_exp/static/audio/clip_2_move.m4a,null,,,,,,,,,,,,,,,,,,,,,,,,
welcome_dec,4,34693,0.0-4.0,"""event"",""trial"",""time""
""focus"",""0"",""0""
""fullscreenenter"",""1"",""5762""
","
","""event"",""trial"",""time""
""focus"",""0"",""0""
","""event"",""trial"",""time""
""fullscreenenter"",""1"",""5762""
","
",,1764,"<p>Howdy! In this experiment, you’ll be an explorer traveling through space to collect space treasure.</p><p>Your mission is to collect as much treasure as possible.</p><br><br><p><img src='run_exp/static/images/task_images/opening_img-01.jpg' height='300' width='auto'></p>",,,,,,,0,,,,,,,,,,,,,,,,,,
html-keyboard-response,5,35884,0.0-5.0,"""event"",""trial"",""time""
""focus"",""0"",""0""
""fullscreenenter"",""1"",""5762""
","
","""event"",""trial"",""time""
""focus"",""0"",""0""
","""event"",""trial"",""time""
""fullscreenenter"",""1"",""5762""
","
",,1187,"<p>Howdy! In this experiment, you’ll be an explorer traveling through space to collect space treasure.</p><p>Your mission is to collect as much treasure as possible.</p><br><br><p><img src='run_exp/static/images/task_images/opening_img-01.jpg' height='300' width='auto'></p><button class=""jspsych-html-btn-chosen""><img src=""run_exp/static/images/task_images/planet-01.jpg"" height=""50""></button><button class=""jspsych-html-btn-unchosen""><img src=""run_exp/static/images/task_images/planet-02.jpg"" height=""50""></button><p><b>[press the space bar to lock in your answer]<b><br></p>",32,,,,,,,,,,,,,,,,,,,,,,,,
instruc_welcome,6,45681,0.0-6.0-0.0,"""event"",""trial"",""time""
""focus"",""0"",""0""
""fullscreenenter"",""1"",""5762""
","
","""event"",""trial"",""time""
""focus"",""0"",""0""
","""event"",""trial"",""time""
""fullscreenenter"",""1"",""5762""
","
",,null,run_exp/static/audio/clip_1_welcome.m4a,null,"<p>Howdy! In this experiment, you’ll be an explorer traveling through space to collect space treasure.</p><p>Your mission is to collect as much treasure as possible.</p><br><br><p><img src='run_exp/static/images/task_images/opening_img-01.jpg' height='300' width='auto'></p>",12496,2338,8.42,Female,,,,,,,,,,,,,,,,,,,
audio-keyboard-response,7,62322,0.0-6.0-1.0,"""event"",""trial"",""time""
""focus"",""0"",""0""
""fullscreenenter"",""1"",""5762""
","
","""event"",""trial"",""time""
""focus"",""0"",""0""
","""event"",""trial"",""time""
""fullscreenenter"",""1"",""5762""
","
",,null,run_exp/static/audio/clip_2_move.m4a,null,,,,,,,,,,,,,,,,,,,,,,,,
welcome_dec,8,63897,0.0-6.0-2.0,"""event"",""trial"",""time""
""focus"",""0"",""0""
""fullscreenenter"",""1"",""5762""
","
","""event"",""trial"",""time""
""focus"",""0"",""0""
","""event"",""trial"",""time""
""fullscreenenter"",""1"",""5762""
","
",,1570,"<p>Howdy! In this experiment, you’ll be an explorer traveling through space to collect space treasure.</p><p>Your mission is to collect as much treasure as possible.</p><br><br><p><img src='run_exp/static/images/task_images/opening_img-01.jpg' height='300' width='auto'></p>",,,,,,,1,,,,,,,,,,,,,,,,,,
html-keyboard-response,9,65568,0.0-6.0-3.0,"""event"",""trial"",""time""
""focus"",""0"",""0""
""fullscreenenter"",""1"",""5762""
","
","""event"",""trial"",""time""
""focus"",""0"",""0""
","""event"",""trial"",""time""
""fullscreenenter"",""1"",""5762""
","
",,1669,"<p>Howdy! In this experiment, you’ll be an explorer traveling through space to collect space treasure.</p><p>Your mission is to collect as much treasure as possible.</p><br><br><p><img src='run_exp/static/images/task_images/opening_img-01.jpg' height='300' width='auto'></p><button class=""jspsych-html-btn-unchosen""><img src=""run_exp/static/images/task_images/planet-01.jpg"" height=""50""></button><button class=""jspsych-html-btn-chosen""><img src=""run_exp/static/images/task_images/planet-02.jpg"" height=""50""></button><p><b>[press the space bar to lock in your answer]<b><br></p>",32,,,,,,,,,,,,,,,,,,,,,,,,
instruc_goal,10,75689,0.0-7.0-0.0,"""event"",""trial"",""time""
""focus"",""0"",""0""
""fullscreenenter"",""1"",""5762""
","
","""event"",""trial"",""time""
""focus"",""0"",""0""
","""event"",""trial"",""time""
""fullscreenenter"",""1"",""5762""
","
",,null,run_exp/static/audio/clip_3_goal.m4a,null,"<p> As a space explorer, you’ll visit different planets to dig for space treasure, these pink gems.</p> <p> The more treasure you dig up, the more bonus money you’ll win! </p><br><br><p><img src='run_exp/static/images/task_images/pink_gem.jpg' height='300' width='auto'></p>",,,,,,,,,,,,,,,,,,,,,,,
instruc_goal,11,112743,0.0-7.0-1.0,"""event"",""trial"",""time""
""focus"",""0"",""0""
""fullscreenenter"",""1"",""5762""
","
","""event"",""trial"",""time""
""focus"",""0"",""0""
","""event"",""trial"",""time""
""fullscreenenter"",""1"",""5762""
","
",,37049,"<p> As a space explorer, you’ll visit different planets to dig for space treasure, these pink gems.</p> <p> The more treasure you dig up, the more bonus money you’ll win! </p><br><br><p><img src='run_exp/static/images/task_images/pink_gem.jpg' height='300' width='auto'></p>",,,,,,,1,,,,,,,,,,,,,,,,,,
html-keyboard-response,12,114724,0.0-7.0-2.0,"""event"",""trial"",""time""
""focus"",""0"",""0""
""fullscreenenter"",""1"",""5762""
","
","""event"",""trial"",""time""
""focus"",""0"",""0""
","""event"",""trial"",""time""
""fullscreenenter"",""1"",""5762""
","
",,1979,"<p> As a space explorer, you’ll visit different planets to dig for space treasure, these pink gems.</p> <p> The more treasure you dig up, the more bonus money you’ll win! </p><br><br><p><img src='run_exp/static/images/task_images/pink_gem.jpg' height='300' width='auto'></p><button class=""jspsych-html-btn-unchosen""><img src=""run_exp/static/images/task_images/planet-01.jpg"" height=""50""></button><button class=""jspsych-html-btn-chosen""><img src=""run_exp/static/images/task_images/planet-02.jpg"" height=""50""></button><p><b>[press the space bar to lock in your answer]<b><br></p>",32,,,,,,,,,,,,,,,,,,,,,,,,
instruc_dig,13,130868,0.0-8.0-0.0,"""event"",""trial"",""time""
""focus"",""0"",""0""
""fullscreenenter"",""1"",""5762""
","
","""event"",""trial"",""time""
""focus"",""0"",""0""
","""event"",""trial"",""time""
""fullscreenenter"",""1"",""5762""
","
",,null,run_exp/static/audio/clip_4_dig.m4a,null,,,,,,,100,,,,,,,,,,,,,,,,,
instruc_dig_try,14,131048,0.0-8.0-1.0,"""event"",""trial"",""time""
""focus"",""0"",""0""
""fullscreenenter"",""1"",""5762""
","
","""event"",""trial"",""time""
""focus"",""0"",""0""
","""event"",""trial"",""time""
""fullscreenenter"",""1"",""5762""
","
",,176,"<p> When you’ve arrived at a new planet, you will dig once. </p> <p>Then, you get to decide if you want to stay on the planet and dig again or travel to a new planet and dig there.</p> <p> To stay and dig, press the letter <strong>‘A’</strong> on your keyboard. Try pressing it now! </p><p><img src='run_exp/static/images/task_images/land.jpg'  height='700' width='auto'></p>",65,"<p> When you’ve arrived at a new planet, you will dig once. </p> <p>Then, you get to decide if you want to stay on the planet and dig again or travel to a new planet and dig there.</p> <p> To stay and dig, press the letter <strong>‘A’</strong> on your keyboard. Try pressing it now! </p><p><img src='run_exp/static/images/task_images/land.jpg'  height='700' width='auto'></p>",,,,,,100,,,,,,,,,,,,,,,,,
dig_prac,15,133116,0.0-8.0-2.0,"""event"",""trial"",""time""
""focus"",""0"",""0""
""fullscreenenter"",""1"",""5762""
","
","""event"",""trial"",""time""
""focus"",""0"",""0""
","""event"",""trial"",""time""
""fullscreenenter"",""1"",""5762""
","
",,,,,,,,,,,,"[{""stimulus"":""run_exp/static/images/task_images/dig.jpg"",""time"":1},{""stimulus"":""run_exp/static/images/task_images/land.jpg"",""time"":677},{""stimulus"":""run_exp/static/images/task_images/dig.jpg"",""time"":1352}]",[],,,,,,,,,,,,,,,
instruc_travel,16,169450,0.0-8.0-3.0,"""event"",""trial"",""time""
""focus"",""0"",""0""
""fullscreenenter"",""1"",""5762""
","
","""event"",""trial"",""time""
""focus"",""0"",""0""
","""event"",""trial"",""time""
""fullscreenenter"",""1"",""5762""
","
",,null,run_exp/static/audio/clip_5_travel.m4a,null,"<p>Every time you dig up gems, there are less gems on the planet, so the more you dig on a planet the fewer gems you’ll get with each dig.</p><p>When gems are running low, you may want to travel to a new planet. </p> <p>  Planets are very far apart in this galaxy, so it will take some time to travel between them. </p> <br><p>There are lots and lots of planets for you to visit, so you won’t be able to return to any planets you’ve seen before. </p><br><p>To leave this planet and travel to a new one, press the letter <strong>‘L’</strong> on your keyboard. Try pressing it now! </p><p><img src='run_exp/static/images/task_images/rocket-01.jpg'  height='600' width='auto'></p>",,,,,,,,,,,,,,,,,,,,,,,
instruc_travel_try,17,169898,0.0-8.0-4.0,"""event"",""trial"",""time""
""focus"",""0"",""0""
""fullscreenenter"",""1"",""5762""
","
","""event"",""trial"",""time""
""focus"",""0"",""0""
","""event"",""trial"",""time""
""fullscreenenter"",""1"",""5762""
","
",,444,"<p>Every time you dig up gems, there are less gems on the planet, so the more you dig on a planet the fewer gems you’ll get with each dig.</p><p>When gems are running low, you may want to travel to a new planet. </p> <p>  Planets are very far apart in this galaxy, so it will take some time to travel between them. </p> <br><p>There are lots and lots of planets for you to visit, so you won’t be able to return to any planets you’ve seen before. </p><br><p>To leave this planet and travel to a new one, press the letter <strong>‘L’</strong> on your keyboard. Try pressing it now! </p><p><img src='run_exp/static/images/task_images/rocket-01.jpg'  height='600' width='auto'></p>",76,"<p>Every time you dig up gems, there are less gems on the planet, so the more you dig on a planet the fewer gems you’ll get with each dig.</p><p>When gems are running low, you may want to travel to a new planet. </p> <p>  Planets are very far apart in this galaxy, so it will take some time to travel between them. </p> <br><p>There are lots and lots of planets for you to visit, so you won’t be able to return to any planets you’ve seen before. </p><br><p>To leave this planet and travel to a new one, press the letter <strong>‘L’</strong> on your keyboard. Try pressing it now! </p><p><img src='run_exp/static/images/task_images/rocket-01.jpg'  height='600' width='auto'></p>",,,,,,,,,,,,,,,,,,,,,,,
travel_prac,18,180042,0.0-8.0-5.0,"""event"",""trial"",""time""
""focus"",""0"",""0""
""fullscreenenter"",""1"",""5762""
","
","""event"",""trial"",""time""
""focus"",""0"",""0""
","""event"",""trial"",""time""
""fullscreenenter"",""1"",""5762""
","
",,,,,,,,,,,,"[{""stimulus"":""run_exp/static/images/task_images/rocket-01.jpg"",""time"":0},{""stimulus"":""run_exp/static/images/task_images/rocket-02.jpg"",""time"":1113},{""stimulus"":""run_exp/static/images/task_images/rocket-03.jpg"",""time"":2227},{""stimulus"":""run_exp/static/images/task_images/rocket-04.jpg"",""time"":3347},{""stimulus"":""run_exp/static/images/task_images/rocket-05.jpg"",""time"":4496},{""stimulus"":""run_exp/static/images/task_images/rocket-06.jpg"",""time"":5647},{""stimulus"":""run_exp/static/images/task_images/rocket-07.jpg"",""time"":6768},{""stimulus"":""run_exp/static/images/task_images/rocket-08.jpg"",""time"":7885},{""stimulus"":""run_exp/static/images/task_images/rocket-09.jpg"",""time"":9003}]",[],0,,,,,,,,,,,,,,
instruc_alien_greet,19,207363,0.0-8.0-6.0,"""event"",""trial"",""time""
""focus"",""0"",""0""
""fullscreenenter"",""1"",""5762""
","
","""event"",""trial"",""time""
""focus"",""0"",""0""
","""event"",""trial"",""time""
""fullscreenenter"",""1"",""5762""
","
",,null,run_exp/static/audio/clip_6_alien.m4a,null,"<p>When you arrive at a new planet, the alien who owns the treasure mine on that planet will greet you!</p><p>The better an alien takes care of their mine the easier it is to dig for gems. Some aliens take better care of their mine than others. So, you won’t get exactly the same amount of gems on each planet.</p><p>What the alien looks like does not tell you anything about how many gems there are on the planet.</p><br><p><img src=""run_exp/static/images/task_images/aliens/instructions_aliens/planet/alien_planet-1.jpg""  height=""600"" width=""auto""></p>",,,,,,,,,,,,,,,,,,,,,,,
instruc_alien_greet,20,223303,0.0-8.0-7.0,"""event"",""trial"",""time""
""focus"",""0"",""0""
""fullscreenenter"",""1"",""5762""
","
","""event"",""trial"",""time""
""focus"",""0"",""0""
","""event"",""trial"",""time""
""fullscreenenter"",""1"",""5762""
","
",,15937,"<p>When you arrive at a new planet, the alien who owns the treasure mine on that planet will greet you!</p><p>The better an alien takes care of their mine the easier it is to dig for gems. Some aliens take better care of their mine than others. So, you won’t get exactly the same amount of gems on each planet.</p><p>What the alien looks like does not tell you anything about how many gems there are on the planet.</p><br><p><img src=""run_exp/static/images/task_images/aliens/instructions_aliens/planet/alien_planet-1.jpg""  height=""600"" width=""auto""></p>",,,,,,,1,,,,,,,,,,,,,,,,,,
html-keyboard-response,21,225970,0.0-8.0-8.0,"""event"",""trial"",""time""
""focus"",""0"",""0""
""fullscreenenter"",""1"",""5762""
","
","""event"",""trial"",""time""
""focus"",""0"",""0""
","""event"",""trial"",""time""
""fullscreenenter"",""1"",""5762""
","
",,2665,"<p>When you arrive at a new planet, the alien who owns the treasure mine on that planet will greet you!</p><p>The better an alien takes care of their mine the easier it is to dig for gems. Some aliens take better care of their mine than others. So, you won’t get exactly the same amount of gems on each planet.</p><p>What the alien looks like does not tell you anything about how many gems there are on the planet.</p><br><p><img src=""run_exp/static/images/task_images/aliens/instructions_aliens/planet/alien_planet-1.jpg""  height=""600"" width=""auto""></p><button class=""jspsych-html-btn-unchosen""><img src=""run_exp/static/images/task_images/planet-01.jpg"" height=""50""></button><button class=""jspsych-html-btn-chosen""><img src=""run_exp/static/images/task_images/planet-02.jpg"" height=""50""></button><p><b>[press the space bar to lock in your answer]<b><br></p>",32,,,,,,,,,,,,,,,,,,,,,,,,
time_out,22,237279,0.0-9.0-0.0,"""event"",""trial"",""time""
""focus"",""0"",""0""
""fullscreenenter"",""1"",""5762""
","
","""event"",""trial"",""time""
""focus"",""0"",""0""
","""event"",""trial"",""time""
""fullscreenenter"",""1"",""5762""
","
",,null,run_exp/static/audio/clip_7_timeout.m4a,null,"<p>If you don't make your choice fast enough, you’ll have to wait a few seconds before you can make another one.</p><p>You can’t dig for more gems or travel to new planets. You just have to sit and wait.</p><br><p><img src='run_exp/static/images/task_images/time_out.jpg'  height='600' width='auto'></p>",,,,,,,,,,,,,,,,,,,,,,,
time_out,23,239867,0.0-9.0-1.0,"""event"",""trial"",""time""
""focus"",""0"",""0""
""fullscreenenter"",""1"",""5762""
","
","""event"",""trial"",""time""
""focus"",""0"",""0""
","""event"",""trial"",""time""
""fullscreenenter"",""1"",""5762""
","
",,2584,"<p>If you don't make your choice fast enough, you’ll have to wait a few seconds before you can make another one.</p><p>You can’t dig for more gems or travel to new planets. You just have to sit and wait.</p><br><p><img src='run_exp/static/images/task_images/time_out.jpg'  height='600' width='auto'></p>",,,,,,,1,,,,,,,,,,,,,,,,,,
html-keyboard-response,24,242251,0.0-9.0-2.0,"""event"",""trial"",""time""
""focus"",""0"",""0""
""fullscreenenter"",""1"",""5762""
","
","""event"",""trial"",""time""
""focus"",""0"",""0""
","""event"",""trial"",""time""
""fullscreenenter"",""1"",""5762""
","
",,2382,"<p>If you don't make your choice fast enough, you’ll have to wait a few seconds before you can make another one.</p><p>You can’t dig for more gems or travel to new planets. You just have to sit and wait.</p><br><p><img src='run_exp/static/images/task_images/time_out.jpg'  height='600' width='auto'></p><button class=""jspsych-html-btn-unchosen""><img src=""run_exp/static/images/task_images/planet-01.jpg"" height=""50""></button><button class=""jspsych-html-btn-chosen""><img src=""run_exp/static/images/task_images/planet-02.jpg"" height=""50""></button><p><b>[press the space bar to lock in your answer]<b><br></p>",32,,,,,,,,,,,,,,,,,,,,,,,,
instruc_break,25,257985,0.0-10.0-0.0,"""event"",""trial"",""time""
""focus"",""0"",""0""
""fullscreenenter"",""1"",""5762""
","
","""event"",""trial"",""time""
""focus"",""0"",""0""
","""event"",""trial"",""time""
""fullscreenenter"",""1"",""5762""
","
",,null,run_exp/static/audio/clip_8_break.m4a,null,"<p> After digging and traveling for a while, you’ll be able to take a break at home base. </p><p>The game will last 20 minutes no matter what.</p><p>You will visit home base every 5 minutes, so, you will visit home base three times during the game.</p><br><p><img src='run_exp/static/images/task_images/home_base.jpg' height='600' width='auto'></p>",,,,,,,,,,,,,,,,,,,,,,,
instruc_break,26,264222,0.0-10.0-1.0,"""event"",""trial"",""time""
""focus"",""0"",""0""
""fullscreenenter"",""1"",""5762""
","
","""event"",""trial"",""time""
""focus"",""0"",""0""
","""event"",""trial"",""time""
""fullscreenenter"",""1"",""5762""
","
",,6235,"<p> After digging and traveling for a while, you’ll be able to take a break at home base. </p><p>The game will last 20 minutes no matter what.</p><p>You will visit home base every 5 minutes, so, you will visit home base three times during the game.</p><br><p><img src='run_exp/static/images/task_images/home_base.jpg' height='600' width='auto'></p>",,,,,,,1,,,,,,,,,,,,,,,,,,
html-keyboard-response,27,269265,0.0-10.0-2.0,"""event"",""trial"",""time""
""focus"",""0"",""0""
""fullscreenenter"",""1"",""5762""
","
","""event"",""trial"",""time""
""focus"",""0"",""0""
","""event"",""trial"",""time""
""fullscreenenter"",""1"",""5762""
","
",,5041,"<p> After digging and traveling for a while, you’ll be able to take a break at home base. </p><p>The game will last 20 minutes no matter what.</p><p>You will visit home base every 5 minutes, so, you will visit home base three times during the game.</p><br><p><img src='run_exp/static/images/task_images/home_base.jpg' height='600' width='auto'></p><button class=""jspsych-html-btn-unchosen""><img src=""run_exp/static/images/task_images/planet-01.jpg"" height=""50""></button><button class=""jspsych-html-btn-chosen""><img src=""run_exp/static/images/task_images/planet-02.jpg"" height=""50""></button><p><b>[press the space bar to lock in your answer]<b><br></p>",32,,,,,,,,,,,,,,,,,,,,,,,,
instruc_prac_game,28,279437,0.0-11.0-0.0,"""event"",""trial"",""time""
""focus"",""0"",""0""
""fullscreenenter"",""1"",""5762""
","
","""event"",""trial"",""time""
""focus"",""0"",""0""
","""event"",""trial"",""time""
""fullscreenenter"",""1"",""5762""
","
",,null,run_exp/static/audio/clip_9_practice.m4a,null,"<p> Are you ready to play a practice game? </p> <p>In this practice game, you'll be digging up barrels of gems. But, in the real game, you'll be digging up the gems themselves. </p>",,,,,,,,,,,,,,,,,,,,,,,
html-button-response,29,291326,0.0-11.0-1.0,"""event"",""trial"",""time""
""focus"",""0"",""0""
""fullscreenenter"",""1"",""5762""
","
","""event"",""trial"",""time""
""focus"",""0"",""0""
","""event"",""trial"",""time""
""fullscreenenter"",""1"",""5762""
","
",,11888,"<p> Are you ready to play a practice game? </p> <p>In this practice game, you'll be digging up barrels of gems. But, in the real game, you'll be digging up the gems themselves. </p>",,,,,,,0,,,,,,,,,,,,,,,,,,
alien_welcome_prac,30,296344,0.0-12.0-0.0,"""event"",""trial"",""time""
""focus"",""0"",""0""
""fullscreenenter"",""1"",""5762""
","
","""event"",""trial"",""time""
""focus"",""0"",""0""
","""event"",""trial"",""time""
""fullscreenenter"",""1"",""5762""
","
",,null,run_exp/static/images/task_images/aliens/practice_aliens/planet/alien_planet-5.jpg,null,,,,,,,,,,,,,,,,,,,,,,,,
land_prac,31,296848,0.0-12.0-1.0,"""event"",""trial"",""time""
""focus"",""0"",""0""
""fullscreenenter"",""1"",""5762""
","
","""event"",""trial"",""time""
""focus"",""0"",""0""
","""event"",""trial"",""time""
""fullscreenenter"",""1"",""5762""
","
",,null,run_exp/static/images/task_images/land.jpg,null,,,,,,,107,,,0,,,,,,,,,,,,,,
dig_prac,32,298888,0.0-12.0-2.0,"""event"",""trial"",""time""
""focus"",""0"",""0""
""fullscreenenter"",""1"",""5762""
","
","""event"",""trial"",""time""
""focus"",""0"",""0""
","""event"",""trial"",""time""
""fullscreenenter"",""1"",""5762""
","
",,,,,,,,,,,,"[{""stimulus"":""run_exp/static/images/task_images/dig.jpg"",""time"":0},{""stimulus"":""run_exp/static/images/task_images/land.jpg"",""time"":670},{""stimulus"":""run_exp/static/images/task_images/dig.jpg"",""time"":1348}]",[],,,,,,,,,,,,,,,
harvest_prac,33,299892,0.0-12.0-3.0,"""event"",""trial"",""time""
""focus"",""0"",""0""
""fullscreenenter"",""1"",""5762""
","
","""event"",""trial"",""time""
""focus"",""0"",""0""
","""event"",""trial"",""time""
""fullscreenenter"",""1"",""5762""
","
",,null,run_exp/static/images/task_images/barrel_text.jpg,null,,,,,,,,,,,,,,,,,,,,,,,,
decision_prac,34,302908,0.0-12.0-4.0,"""event"",""trial"",""time""
""focus"",""0"",""0""
""fullscreenenter"",""1"",""5762""
","
","""event"",""trial"",""time""
""focus"",""0"",""0""
","""event"",""trial"",""time""
""fullscreenenter"",""1"",""5762""
","
",,null,run_exp/static/images/task_images/land.jpg,null,,,,,,,,,,,1,,,,,,,,,,,,,
time_out,35,304925,0.0-13.0-0.0,"""event"",""trial"",""time""
""focus"",""0"",""0""
""fullscreenenter"",""1"",""5762""
","
","""event"",""trial"",""time""
""focus"",""0"",""0""
","""event"",""trial"",""time""
""fullscreenenter"",""1"",""5762""
","
",,null,run_exp/static/images/task_images/time_out.jpg,null,,,,,,,,,,,,,,,,,,,,,,,,
decision_prac,36,306290,0.0-13.0-1.0,"""event"",""trial"",""time""
""focus"",""0"",""0""
""fullscreenenter"",""1"",""5762""
","
","""event"",""trial"",""time""
""focus"",""0"",""0""
","""event"",""trial"",""time""
""fullscreenenter"",""1"",""5762""
","
",,1361,run_exp/static/images/task_images/land.jpg,65,,,,,,,,,,,2,,,,,,,,,,,,,
dig_prac,37,308317,0.0-14.0-0.0,"""event"",""trial"",""time""
""focus"",""0"",""0""
""fullscreenenter"",""1"",""5762""
","
","""event"",""trial"",""time""
""focus"",""0"",""0""
","""event"",""trial"",""time""
""fullscreenenter"",""1"",""5762""
","
",,,,,,,,,,,,"[{""stimulus"":""run_exp/static/images/task_images/dig.jpg"",""time"":2},{""stimulus"":""run_exp/static/images/task_images/land.jpg"",""time"":671},{""stimulus"":""run_exp/static/images/task_images/dig.jpg"",""time"":1342}]",[],,,,,,,,,,,,,,,
harvest_prac,38,309321,0.0-14.0-1.0,"""event"",""trial"",""time""
""focus"",""0"",""0""
""fullscreenenter"",""1"",""5762""
","
","""event"",""trial"",""time""
""focus"",""0"",""0""
","""event"",""trial"",""time""
""fullscreenenter"",""1"",""5762""
","
",,null,run_exp/static/images/task_images/barrel_text.jpg,null,,,,,,,,,,,,,,,,,,,,,,,,
decision_prac,39,311058,0.0-14.0-2.0,"""event"",""trial"",""time""
""focus"",""0"",""0""
""fullscreenenter"",""1"",""5762""
","
","""event"",""trial"",""time""
""focus"",""0"",""0""
","""event"",""trial"",""time""
""fullscreenenter"",""1"",""5762""
","
",,1736,run_exp/static/images/task_images/land.jpg,65,,,,,,,,,,,3,,,,,,,,,,,,,
dig_prac,40,313096,0.0-15.0-0.0,"""event"",""trial"",""time""
""focus"",""0"",""0""
""fullscreenenter"",""1"",""5762""
","
","""event"",""trial"",""time""
""focus"",""0"",""0""
","""event"",""trial"",""time""
""fullscreenenter"",""1"",""5762""
","
",,,,,,,,,,,,"[{""stimulus"":""run_exp/static/images/task_images/dig.jpg"",""time"":0},{""stimulus"":""run_exp/static/images/task_images/land.jpg"",""time"":681},{""stimulus"":""run_exp/static/images/task_images/dig.jpg"",""time"":1354}]",[],,,,,,,,,,,,,,,
harvest_prac,41,314100,0.0-15.0-1.0,"""event"",""trial"",""time""
""focus"",""0"",""0""
""fullscreenenter"",""1"",""5762""
","
","""event"",""trial"",""time""
""focus"",""0"",""0""
","""event"",""trial"",""time""
""fullscreenenter"",""1"",""5762""
","
",,null,run_exp/static/images/task_images/barrel_text.jpg,null,,,,,,,,,,,,,,,,,,,,,,,,
decision_prac,42,315218,0.0-15.0-2.0,"""event"",""trial"",""time""
""focus"",""0"",""0""
""fullscreenenter"",""1"",""5762""
","
","""event"",""trial"",""time""
""focus"",""0"",""0""
","""event"",""trial"",""time""
""fullscreenenter"",""1"",""5762""
","
",,1116,run_exp/static/images/task_images/land.jpg,65,,,,,,,,,,,4,,,,,,,,,,,,,
dig_prac,43,317252,0.0-16.0-0.0,"""event"",""trial"",""time""
""focus"",""0"",""0""
""fullscreenenter"",""1"",""5762""
","
","""event"",""trial"",""time""
""focus"",""0"",""0""
","""event"",""trial"",""time""
""fullscreenenter"",""1"",""5762""
","
",,,,,,,,,,,,"[{""stimulus"":""run_exp/static/images/task_images/dig.jpg"",""time"":0},{""stimulus"":""run_exp/static/images/task_images/land.jpg"",""time"":673},{""stimulus"":""run_exp/static/images/task_images/dig.jpg"",""time"":1341}]",[],,,,,,,,,,,,,,,
harvest_prac,44,318257,0.0-16.0-1.0,"""event"",""trial"",""time""
""focus"",""0"",""0""
""fullscreenenter"",""1"",""5762""
","
","""event"",""trial"",""time""
""focus"",""0"",""0""
","""event"",""trial"",""time""
""fullscreenenter"",""1"",""5762""
","
",,null,run_exp/static/images/task_images/barrel_text.jpg,null,,,,,,,,,,,,,,,,,,,,,,,,
decision_prac,45,319386,0.0-16.0-2.0,"""event"",""trial"",""time""
""focus"",""0"",""0""
""fullscreenenter"",""1"",""5762""
","
","""event"",""trial"",""time""
""focus"",""0"",""0""
","""event"",""trial"",""time""
""fullscreenenter"",""1"",""5762""
","
",,1127,run_exp/static/images/task_images/land.jpg,76,,,,,,,,,,,,1,,,,,,,,,,,,
quiz_instruc,46,321396,0.0-17.0-0.0,"""event"",""trial"",""time""
""focus"",""0"",""0""
""fullscreenenter"",""1"",""5762""
","
","""event"",""trial"",""time""
""focus"",""0"",""0""
","""event"",""trial"",""time""
""fullscreenenter"",""1"",""5762""
","
",,2007,run_exp/static/audio/clip_10_quiz.m4a,,,,,,,0,,,,,,,,,,,,,,,,,,
instruc_repeat,47,364140,0.0-17.0-1.0,"""event"",""trial"",""time""
""focus"",""0"",""0""
""fullscreenenter"",""1"",""5762""
","
","""event"",""trial"",""time""
""focus"",""0"",""0""
","""event"",""trial"",""time""
""fullscreenenter"",""1"",""5762""
","
",,null,"<p> Are you ready to play a practice game? </p> <p>In this practice game, you'll be digging up barrels of gems. But, in the real game, you'll be digging up the gems themselves. </p>",null,"<p>In this game, your goal is to collect as many gems as you can. That’s how you will win bonus money. </p> <p>The entire game will last 20 minutes no matter how many gems you collect or how many planets you visit. </p><p>To stay on a planet and dig again, press the letter A on your keyboard. To leave for a new planet, press the letter L.</p><p>The more you dig on a planet, the fewer gems you’ll get with each dig which is why you might consider leaving for a new planet. </p><p>When you arrive at a new planet, you’ll be greeted by an alien. What the alien looks like does not tell you anything about how much treasure is on the planet. </p>",,,,,,,,,,,,,,,,,,,,,,,
instruc_repeat_continue,48,366414,0.0-17.0-2.0,"""event"",""trial"",""time""
""focus"",""0"",""0""
""fullscreenenter"",""1"",""5762""
","
","""event"",""trial"",""time""
""focus"",""0"",""0""
","""event"",""trial"",""time""
""fullscreenenter"",""1"",""5762""
","
",,2272,"<p> Are you ready to play a practice game? </p> <p>In this practice game, you'll be digging up barrels of gems. But, in the real game, you'll be digging up the gems themselves. </p>",,,,,,,0,,,,,,,,,,,,,,,,,,
quiz_q_1_ask,49,369674,0.0-17.0-3.0,"""event"",""trial"",""time""
""focus"",""0"",""0""
""fullscreenenter"",""1"",""5762""
","
","""event"",""trial"",""time""
""focus"",""0"",""0""
","""event"",""trial"",""time""
""fullscreenenter"",""1"",""5762""
","
",,3259,run_exp/static/audio/clip_11_q1_ask.m4a,,,,,,,2,,,,,,,,,,,,,,,,,,
quiz_q_1_fb_correct,50,373494,0.0-18.0-0.0,"""event"",""trial"",""time""
""focus"",""0"",""0""
""fullscreenenter"",""1"",""5762""
","
","""event"",""trial"",""time""
""focus"",""0"",""0""
","""event"",""trial"",""time""
""fullscreenenter"",""1"",""5762""
","
",,null,run_exp/static/audio/clip_12_q1_correct.m4a,null,<p>That’s correct. You win extra money by collecting more gems.</p>,,,,,,,,,,,,,,,,,,,,,,,
quiz_q_2_ask,51,375322,0.0-18.0-1.0,"""event"",""trial"",""time""
""focus"",""0"",""0""
""fullscreenenter"",""1"",""5762""
","
","""event"",""trial"",""time""
""focus"",""0"",""0""
","""event"",""trial"",""time""
""fullscreenenter"",""1"",""5762""
","
",,1827,run_exp/static/audio/clip_14_q2_ask.m4a,,,,,,,1,,,,,,,,,,,,,,,,,,
quiz_q_2_fb_correct,52,379303,0.0-19.0-0.0,"""event"",""trial"",""time""
""focus"",""0"",""0""
""fullscreenenter"",""1"",""5762""
","
","""event"",""trial"",""time""
""focus"",""0"",""0""
","""event"",""trial"",""time""
""fullscreenenter"",""1"",""5762""
","
",,null,run_exp/static/audio/clip_15_q2_correct.m4a,null,<p>That’s correct. The experiment is 20 minutes no matter what.</p>,,,,,,,,,,,,,,,,,,,,,,,
quiz_q_3_ask,53,382282,0.0-19.0-1.0,"""event"",""trial"",""time""
""focus"",""0"",""0""
""fullscreenenter"",""1"",""5762""
","
","""event"",""trial"",""time""
""focus"",""0"",""0""
","""event"",""trial"",""time""
""fullscreenenter"",""1"",""5762""
","
",,2978,run_exp/static/audio/clip_17_q3_ask.m4a,,,,,,,1,,,,,,,,,,,,,,,,,,
quiz_q_3_fb_correct,54,386223,0.0-20.0-0.0,"""event"",""trial"",""time""
""focus"",""0"",""0""
""fullscreenenter"",""1"",""5762""
","
","""event"",""trial"",""time""
""focus"",""0"",""0""
","""event"",""trial"",""time""
""fullscreenenter"",""1"",""5762""
","
",,null,run_exp/static/audio/clip_18_q3_correct.m4a,null,<p> That’s correct. You press the letter L to travel to a new planet.</p>,,,,,,,,,,,,,,,,,,,,,,,
quiz_q_4_ask,55,396251,0.0-20.0-1.0,"""event"",""trial"",""time""
""focus"",""0"",""0""
""fullscreenenter"",""1"",""5762""
","
","""event"",""trial"",""time""
""focus"",""0"",""0""
","""event"",""trial"",""time""
""fullscreenenter"",""1"",""5762""
","
",,10028,run_exp/static/audio/clip_20_q4_ask.m4a,,,,,,,1,,,,,,,,,,,,,,,,,,
quiz_q_4_fb_incorrect,56,402031,0.0-21.0-0.0,"""event"",""trial"",""time""
""focus"",""0"",""0""
""fullscreenenter"",""1"",""5762""
","
","""event"",""trial"",""time""
""focus"",""0"",""0""
","""event"",""trial"",""time""
""fullscreenenter"",""1"",""5762""
","
",,null,run_exp/static/audio/clip_22_q4_incorrect.m4a,null,<p>That’s incorrect.  The more you dig on a planet the fewer gems you’ll get with each dig.</p>,,,,,,,,,,,,,,,,,,,,,,,
quiz_q_5_ask,57,404569,0.0-21.0-1.0,"""event"",""trial"",""time""
""focus"",""0"",""0""
""fullscreenenter"",""1"",""5762""
","
","""event"",""trial"",""time""
""focus"",""0"",""0""
","""event"",""trial"",""time""
""fullscreenenter"",""1"",""5762""
","
",,2538,run_exp/static/audio/clip_23_q5_ask.m4a,,,,,,,1,,,,,,,,,,,,,,,,,,
quiz_q_5_fb_correct,58,409541,0.0-22.0-0.0,"""event"",""trial"",""time""
""focus"",""0"",""0""
""fullscreenenter"",""1"",""5762""
","
","""event"",""trial"",""time""
""focus"",""0"",""0""
","""event"",""trial"",""time""
""fullscreenenter"",""1"",""5762""
","
",,null,run_exp/static/audio/clip_24_q5_correct.m4a,null,<p> That’s correct. The alien tells you nothing about how much treasure is on the planet.</p>,,,,,,,,,,,,,,,,,,,,,,,
quiz_incorrect,59,415090,0.0-23.0-0.0,"""event"",""trial"",""time""
""focus"",""0"",""0""
""fullscreenenter"",""1"",""5762""
","
","""event"",""trial"",""time""
""focus"",""0"",""0""
","""event"",""trial"",""time""
""fullscreenenter"",""1"",""5762""
","
",,null,run_exp/static/audio/clip_27_incorrect_quiz.m4a,null,,,,,,,,,,,,,,,,,,,,,,,,
quiz_incorrect_continue,60,416241,0.0-23.0-1.0,"""event"",""trial"",""time""
""focus"",""0"",""0""
""fullscreenenter"",""1"",""5762""
","
","""event"",""trial"",""time""
""focus"",""0"",""0""
","""event"",""trial"",""time""
""fullscreenenter"",""1"",""5762""
","
",,1151,"<p>Oops, you missed some questions.</p><p>Now that you’ve heard the correct answers. Try the quiz again!</p>",,,,,,,0,,,,,,,,,,,,,,,,,,
quiz_q_1_ask,61,417753,0.0-23.0-2.0,"""event"",""trial"",""time""
""focus"",""0"",""0""
""fullscreenenter"",""1"",""5762""
","
","""event"",""trial"",""time""
""focus"",""0"",""0""
","""event"",""trial"",""time""
""fullscreenenter"",""1"",""5762""
","
",,1511,run_exp/static/audio/clip_11_q1_ask.m4a,,,,,,,2,,,,,,,,,,,,,,,,,,
quiz_q_1_fb_correct,62,421577,0.0-24.0-0.0,"""event"",""trial"",""time""
""focus"",""0"",""0""
""fullscreenenter"",""1"",""5762""
","
","""event"",""trial"",""time""
""focus"",""0"",""0""
","""event"",""trial"",""time""
""fullscreenenter"",""1"",""5762""
","
",,null,run_exp/static/audio/clip_12_q1_correct.m4a,null,<p>That’s correct. You win extra money by collecting more gems.</p>,,,,,,,,,,,,,,,,,,,,,,,
quiz_q_2_ask,63,422620,0.0-24.0-1.0,"""event"",""trial"",""time""
""focus"",""0"",""0""
""fullscreenenter"",""1"",""5762""
","
","""event"",""trial"",""time""
""focus"",""0"",""0""
","""event"",""trial"",""time""
""fullscreenenter"",""1"",""5762""
","
",,1042,run_exp/static/audio/clip_14_q2_ask.m4a,,,,,,,1,,,,,,,,,,,,,,,,,,
quiz_q_2_fb_correct,64,426605,0.0-25.0-0.0,"""event"",""trial"",""time""
""focus"",""0"",""0""
""fullscreenenter"",""1"",""5762""
","
","""event"",""trial"",""time""
""focus"",""0"",""0""
","""event"",""trial"",""time""
""fullscreenenter"",""1"",""5762""
","
",,null,run_exp/static/audio/clip_15_q2_correct.m4a,null,<p>That’s correct. The experiment is 20 minutes no matter what.</p>,,,,,,,,,,,,,,,,,,,,,,,
quiz_q_3_ask,65,429436,0.0-25.0-1.0,"""event"",""trial"",""time""
""focus"",""0"",""0""
""fullscreenenter"",""1"",""5762""
","
","""event"",""trial"",""time""
""focus"",""0"",""0""
","""event"",""trial"",""time""
""fullscreenenter"",""1"",""5762""
","
",,2829,run_exp/static/audio/clip_17_q3_ask.m4a,,,,,,,1,,,,,,,,,,,,,,,,,,
quiz_q_3_fb_correct,66,433373,0.0-26.0-0.0,"""event"",""trial"",""time""
""focus"",""0"",""0""
""fullscreenenter"",""1"",""5762""
","
","""event"",""trial"",""time""
""focus"",""0"",""0""
","""event"",""trial"",""time""
""fullscreenenter"",""1"",""5762""
","
",,null,run_exp/static/audio/clip_18_q3_correct.m4a,null,<p> That’s correct. You press the letter L to travel to a new planet.</p>,,,,,,,,,,,,,,,,,,,,,,,
quiz_q_4_ask,67,436705,0.0-26.0-1.0,"""event"",""trial"",""time""
""focus"",""0"",""0""
""fullscreenenter"",""1"",""5762""
","
","""event"",""trial"",""time""
""focus"",""0"",""0""
","""event"",""trial"",""time""
""fullscreenenter"",""1"",""5762""
","
",,3330,run_exp/static/audio/clip_20_q4_ask.m4a,,,,,,,0,,,,,,,,,,,,,,,,,,
quiz_q_4_fb_correct,68,441994,0.0-27.0-0.0,"""event"",""trial"",""time""
""focus"",""0"",""0""
""fullscreenenter"",""1"",""5762""
","
","""event"",""trial"",""time""
""focus"",""0"",""0""
","""event"",""trial"",""time""
""fullscreenenter"",""1"",""5762""
","
",,null,run_exp/static/audio/clip_21_q4_correct.m4a,null,<p> That’s correct. The more you dig on a planet the fewer gems you’ll get with each dig. </p>,,,,,,,,,,,,,,,,,,,,,,,
quiz_q_5_ask,69,447793,0.0-27.0-1.0,"""event"",""trial"",""time""
""focus"",""0"",""0""
""fullscreenenter"",""1"",""5762""
","
","""event"",""trial"",""time""
""focus"",""0"",""0""
","""event"",""trial"",""time""
""fullscreenenter"",""1"",""5762""
","
",,5800,run_exp/static/audio/clip_23_q5_ask.m4a,,,,,,,1,,,,,,,,,,,,,,,,,,
quiz_q_5_fb_correct,70,452764,0.0-28.0-0.0,"""event"",""trial"",""time""
""focus"",""0"",""0""
""fullscreenenter"",""1"",""5762""
","
","""event"",""trial"",""time""
""focus"",""0"",""0""
","""event"",""trial"",""time""
""fullscreenenter"",""1"",""5762""
","
",,null,run_exp/static/audio/clip_24_q5_correct.m4a,null,<p> That’s correct. The alien tells you nothing about how much treasure is on the planet.</p>,,,,,,,,,,,,,,,,,,,,,,,
quiz_correct,71,456213,0.0-29.0-0.0,"""event"",""trial"",""time""
""focus"",""0"",""0""
""fullscreenenter"",""1"",""5762""
","
","""event"",""trial"",""time""
""focus"",""0"",""0""
","""event"",""trial"",""time""
""fullscreenenter"",""1"",""5762""
","
",,null,run_exp/static/audio/clip_26_correct_quiz.m4a,null,,,,,,,,,,,,,,,,,,,,,,,,
quiz_correct_continue,72,460100,0.0-29.0-1.0,"""event"",""trial"",""time""
""focus"",""0"",""0""
""fullscreenenter"",""1"",""5762""
","
","""event"",""trial"",""time""
""focus"",""0"",""0""
","""event"",""trial"",""time""
""fullscreenenter"",""1"",""5762""
","
",,3887,<p>Good job! You're now ready to move on to the real game!</p>,,,,,,,0,,,,,,,,,,,,,,,,,,
audio-keyboard-response,73,470178,0.0-29.0-2.0,"""event"",""trial"",""time""
""focus"",""0"",""0""
""fullscreenenter"",""1"",""5762""
","
","""event"",""trial"",""time""
""focus"",""0"",""0""
","""event"",""trial"",""time""
""fullscreenenter"",""1"",""5762""
","
",,null,run_exp/static/audio/clip_28_real_game.m4a,null,,,,,,,,,,,,,,,,,,,,,,,,
instruc_begin_exp_contine,74,471226,0.0-29.0-3.0,"""event"",""trial"",""time""
""focus"",""0"",""0""
""fullscreenenter"",""1"",""5762""
","
","""event"",""trial"",""time""
""focus"",""0"",""0""
","""event"",""trial"",""time""
""fullscreenenter"",""1"",""5762""
","
",,1047,"<p>Now that you know how  to dig for space treasure and travel to new planets,you can start exploring! </p><p>Do you want to go over the instructions again or get started with the real game?</p>",,,,,,,1,,,,,,1,,,,,,,,,,,,
alien_welcome,75,476228,0.0-30.0-0.0,"""event"",""trial"",""time""
""focus"",""0"",""0""
""fullscreenenter"",""1"",""5762""
","
","""event"",""trial"",""time""
""focus"",""0"",""0""
","""event"",""trial"",""time""
""fullscreenenter"",""1"",""5762""
","
",,null,run_exp/static/images/task_images/aliens/old_aliens/planet/alien_planet-2.jpg,null,,,,,,,,,,,,,2,"2,43,53,25,19,62,22,55,11,40,44,75,74,21,34,17,38,8,35,41,28,36,71,5,58,3,39,51",,,,,,,,,,
land,76,476736,0.0-30.0-1.0,"""event"",""trial"",""time""
""focus"",""0"",""0""
""fullscreenenter"",""1"",""5762""
","
","""event"",""trial"",""time""
""focus"",""0"",""0""
","""event"",""trial"",""time""
""fullscreenenter"",""1"",""5762""
","
",,null,run_exp/static/images/task_images/land.jpg,null,,,,,,,93,,,1,,,,,,,,,,,,,,
dig,77,478764,0.0-30.0-2.0,"""event"",""trial"",""time""
""focus"",""0"",""0""
""fullscreenenter"",""1"",""5762""
","
","""event"",""trial"",""time""
""focus"",""0"",""0""
","""event"",""trial"",""time""
""fullscreenenter"",""1"",""5762""
","
",,,,,,,,,,,,"[{""stimulus"":""run_exp/static/images/task_images/dig.jpg"",""time"":0},{""stimulus"":""run_exp/static/images/task_images/land.jpg"",""time"":681},{""stimulus"":""run_exp/static/images/task_images/dig.jpg"",""time"":1348}]",[],1,,,,,,,,,,,,,,
harvest,78,479768,0.0-30.0-3.0,"""event"",""trial"",""time""
""focus"",""0"",""0""
""fullscreenenter"",""1"",""5762""
","
","""event"",""trial"",""time""
""focus"",""0"",""0""
","""event"",""trial"",""time""
""fullscreenenter"",""1"",""5762""
","
",,null,run_exp/static/images/task_images/gems/93.jpg,null,,,,,,,22,,,1,,,,,93,0.232781525,0.23655914,,,,,,,
decision,79,480457,0.0-30.0-4.0,"""event"",""trial"",""time""
""focus"",""0"",""0""
""fullscreenenter"",""1"",""5762""
","
","""event"",""trial"",""time""
""focus"",""0"",""0""
","""event"",""trial"",""time""
""fullscreenenter"",""1"",""5762""
","
",,687,run_exp/static/images/task_images/land.jpg,65,,,,,,,22,,,1,,,,,,,,9231,1,0,FALSE,,,
dig,80,482812,0.0-31.0-0.0,"""event"",""trial"",""time""
""focus"",""0"",""0""
""fullscreenenter"",""1"",""5762""
","
","""event"",""trial"",""time""
""focus"",""0"",""0""
","""event"",""trial"",""time""
""fullscreenenter"",""1"",""5762""
","
",,,,,,,,,,,,"[{""stimulus"":""run_exp/static/images/task_images/dig.jpg"",""time"":0},{""stimulus"":""run_exp/static/images/task_images/land.jpg"",""time"":783},{""stimulus"":""run_exp/static/images/task_images/dig.jpg"",""time"":1566}]",[],1,,,,,,,,,,,,,,
harvest,81,483816,0.0-31.0-1.0,"""event"",""trial"",""time""
""focus"",""0"",""0""
""fullscreenenter"",""1"",""5762""
","
","""event"",""trial"",""time""
""focus"",""0"",""0""
","""event"",""trial"",""time""
""fullscreenenter"",""1"",""5762""
","
",,null,run_exp/static/images/task_images/gems/22.jpg,null,,,,,,,6,,,1,,,,,22,0.267419552,0.272727273,,,,,,,
decision,82,483929,0.0-31.0-2.0,"""event"",""trial"",""time""
""focus"",""0"",""0""
""fullscreenenter"",""1"",""5762""
","
","""event"",""trial"",""time""
""focus"",""0"",""0""
","""event"",""trial"",""time""
""fullscreenenter"",""1"",""5762""
","
",,112,run_exp/static/images/task_images/land.jpg,65,,,,,,,6,,,1,,,,,,,,12703,1,1,FALSE,,,
dig,83,486921,0.0-32.0-0.0,"""event"",""trial"",""time""
""focus"",""0"",""0""
""fullscreenenter"",""1"",""5762""
","
","""event"",""trial"",""time""
""focus"",""0"",""0""
","""event"",""trial"",""time""
""fullscreenenter"",""1"",""5762""
","
",,,,,,,,,,,,"[{""stimulus"":""run_exp/static/images/task_images/dig.jpg"",""time"":0},{""stimulus"":""run_exp/static/images/task_images/land.jpg"",""time"":966},{""stimulus"":""run_exp/static/images/task_images/dig.jpg"",""time"":1934}]",[],1,,,,,,,,,,,,,,
harvest,84,487927,0.0-32.0-1.0,"""event"",""trial"",""time""
""focus"",""0"",""0""
""fullscreenenter"",""1"",""5762""
","
","""event"",""trial"",""time""
""focus"",""0"",""0""
","""event"",""trial"",""time""
""fullscreenenter"",""1"",""5762""
","
",,null,run_exp/static/images/task_images/gems/6.jpg,null,,,,,,,2,,,1,,,,,6,0.251682288,0.333333333,,,,,,,
decision,85,488505,0.0-32.0-2.0,"""event"",""trial"",""time""
""focus"",""0"",""0""
""fullscreenenter"",""1"",""5762""
","
","""event"",""trial"",""time""
""focus"",""0"",""0""
","""event"",""trial"",""time""
""fullscreenenter"",""1"",""5762""
","
",,575,run_exp/static/images/task_images/land.jpg,76,,,,,,,2,,,1,,,,,,,,17279,1,2,TRUE,,,
travel,86,498066,0.0-33.0-0.0,"""event"",""trial"",""time""
""focus"",""0"",""0""
""fullscreenenter"",""1"",""5762""
","
","""event"",""trial"",""time""
""focus"",""0"",""0""
","""event"",""trial"",""time""
""fullscreenenter"",""1"",""5762""
","
",,,,,,,,,,,,"[{""stimulus"":""run_exp/static/images/task_images/rocket-01.jpg"",""time"":0},{""stimulus"":""run_exp/static/images/task_images/rocket-02.jpg"",""time"":1058},{""stimulus"":""run_exp/static/images/task_images/rocket-03.jpg"",""time"":2114},{""stimulus"":""run_exp/static/images/task_images/rocket-04.jpg"",""time"":3168},{""stimulus"":""run_exp/static/images/task_images/rocket-05.jpg"",""time"":4220},{""stimulus"":""run_exp/static/images/task_images/rocket-06.jpg"",""time"":5275},{""stimulus"":""run_exp/static/images/task_images/rocket-07.jpg"",""time"":6362},{""stimulus"":""run_exp/static/images/task_images/rocket-08.jpg"",""time"":7432},{""stimulus"":""run_exp/static/images/task_images/rocket-09.jpg"",""time"":8491}]",[],1,,,,,,,,,,,,,,
alien_welcome,87,503069,0.0-33.0-1.0,"""event"",""trial"",""time""
""focus"",""0"",""0""
""fullscreenenter"",""1"",""5762""
","
","""event"",""trial"",""time""
""focus"",""0"",""0""
","""event"",""trial"",""time""
""fullscreenenter"",""1"",""5762""
","
",,null,run_exp/static/images/task_images/aliens/old_aliens/planet/alien_planet-43.jpg,null,,,,,,,,,,,,,43,"2,43,53,25,19,62,22,55,11,40,44,75,74,21,34,17,38,8,35,41,28,36,71,5,58,3,39,51",,,,,,,,,,
land,88,503578,0.0-33.0-2.0,"""event"",""trial"",""time""
""focus"",""0"",""0""
""fullscreenenter"",""1"",""5762""
","
","""event"",""trial"",""time""
""focus"",""0"",""0""
","""event"",""trial"",""time""
""fullscreenenter"",""1"",""5762""
","
",,null,run_exp/static/images/task_images/land.jpg,null,,,,,,,111,,,2,,,,,,,,,,,,,,
dig,89,505646,0.0-33.0-3.0,"""event"",""trial"",""time""
""focus"",""0"",""0""
""fullscreenenter"",""1"",""5762""
","
","""event"",""trial"",""time""
""focus"",""0"",""0""
","""event"",""trial"",""time""
""fullscreenenter"",""1"",""5762""
","
",,,,,,,,,,,,"[{""stimulus"":""run_exp/static/images/task_images/dig.jpg"",""time"":0},{""stimulus"":""run_exp/static/images/task_images/land.jpg"",""time"":674},{""stimulus"":""run_exp/static/images/task_images/dig.jpg"",""time"":1350}]",[],2,,,,,,,,,,,,,,
harvest,90,506649,0.0-33.0-4.0,"""event"",""trial"",""time""
""focus"",""0"",""0""
""fullscreenenter"",""1"",""5762""
","
","""event"",""trial"",""time""
""focus"",""0"",""0""
","""event"",""trial"",""time""
""fullscreenenter"",""1"",""5762""
","
",,null,run_exp/static/images/task_images/gems/111.jpg,null,,,,,,,24,,,2,,,,,111,0.216373704,0.216216216,,,,,,,
decision,91,507841,0.0-33.0-5.0,"""event"",""trial"",""time""
""focus"",""0"",""0""
""fullscreenenter"",""1"",""5762""
","
","""event"",""trial"",""time""
""focus"",""0"",""0""
","""event"",""trial"",""time""
""fullscreenenter"",""1"",""5762""
","
",,1190,run_exp/static/images/task_images/land.jpg,65,,,,,,,24,,,2,,,,,,,,36615,1,0,FALSE,,,
dig,92,509678,0.0-34.0-0.0,"""event"",""trial"",""time""
""focus"",""0"",""0""
""fullscreenenter"",""1"",""5762""
","
","""event"",""trial"",""time""
""focus"",""0"",""0""
","""event"",""trial"",""time""
""fullscreenenter"",""1"",""5762""
","
",,,,,,,,,,,,"[{""stimulus"":""run_exp/static/images/task_images/dig.jpg"",""time"":1},{""stimulus"":""run_exp/static/images/task_images/land.jpg"",""time"":617},{""stimulus"":""run_exp/static/images/task_images/dig.jpg"",""time"":1220}]",[],2,,,,,,,,,,,,,,
harvest,93,510683,0.0-34.0-1.0,"""event"",""trial"",""time""
""focus"",""0"",""0""
""fullscreenenter"",""1"",""5762""
","
","""event"",""trial"",""time""
""focus"",""0"",""0""
","""event"",""trial"",""time""
""fullscreenenter"",""1"",""5762""
","
",,null,run_exp/static/images/task_images/gems/24.jpg,null,,,,,,,3,,,2,,,,,24,0.110043543,0.125,,,,,,,
decision,94,511998,0.0-34.0-2.0,"""event"",""trial"",""time""
""focus"",""0"",""0""
""fullscreenenter"",""1"",""5762""
","
","""event"",""trial"",""time""
""focus"",""0"",""0""
","""event"",""trial"",""time""
""fullscreenenter"",""1"",""5762""
","
",,1314,run_exp/static/images/task_images/land.jpg,65,,,,,,,3,,,2,,,,,,,,40772,1,1,FALSE,,,
dig,95,513732,0.0-35.0-0.0,"""event"",""trial"",""time""
""focus"",""0"",""0""
""fullscreenenter"",""1"",""5762""
","
","""event"",""trial"",""time""
""focus"",""0"",""0""
","""event"",""trial"",""time""
""fullscreenenter"",""1"",""5762""
","
",,,,,,,,,,,,"[{""stimulus"":""run_exp/static/images/task_images/dig.jpg"",""time"":0},{""stimulus"":""run_exp/static/images/task_images/land.jpg"",""time"":584},{""stimulus"":""run_exp/static/images/task_images/dig.jpg"",""time"":1147}]",[],2,,,,,,,,,,,,,,
harvest,96,514771,0.0-35.0-1.0,"""event"",""trial"",""time""
""focus"",""0"",""0""
""fullscreenenter"",""1"",""5762""
","
","""event"",""trial"",""time""
""focus"",""0"",""0""
","""event"",""trial"",""time""
""fullscreenenter"",""1"",""5762""
","
",,null,run_exp/static/images/task_images/gems/3.jpg,null,,,,,,,1,,,2,,,,,3,0.243376301,0.333333333,,,,,,,
decision,97,515033,0.0-35.0-2.0,"""event"",""trial"",""time""
""focus"",""0"",""0""
""fullscreenenter"",""1"",""5762""
","
","""event"",""trial"",""time""
""focus"",""0"",""0""
","""event"",""trial"",""time""
""fullscreenenter"",""1"",""5762""
","
",,260,run_exp/static/images/task_images/land.jpg,76,,,,,,,1,,,2,,,,,,,,43807,1,2,TRUE,,,
travel,98,524819,0.0-36.0-0.0,"""event"",""trial"",""time""
""focus"",""0"",""0""
""fullscreenenter"",""1"",""5762""
","
","""event"",""trial"",""time""
""focus"",""0"",""0""
","""event"",""trial"",""time""
""fullscreenenter"",""1"",""5762""
","
",,,,,,,,,,,,"[{""stimulus"":""run_exp/static/images/task_images/rocket-01.jpg"",""time"":0},{""stimulus"":""run_exp/static/images/task_images/rocket-02.jpg"",""time"":1085},{""stimulus"":""run_exp/static/images/task_images/rocket-03.jpg"",""time"":2173},{""stimulus"":""run_exp/static/images/task_images/rocket-04.jpg"",""time"":3262},{""stimulus"":""run_exp/static/images/task_images/rocket-05.jpg"",""time"":4345},{""stimulus"":""run_exp/static/images/task_images/rocket-06.jpg"",""time"":5438},{""stimulus"":""run_exp/static/images/task_images/rocket-07.jpg"",""time"":6521},{""stimulus"":""run_exp/static/images/task_images/rocket-08.jpg"",""time"":7605},{""stimulus"":""run_exp/static/images/task_images/rocket-09.jpg"",""time"":8689}]",[],2,,,,,,,,,,,,,,
alien_welcome,99,529823,0.0-36.0-1.0,"""event"",""trial"",""time""
""focus"",""0"",""0""
""fullscreenenter"",""1"",""5762""
","
","""event"",""trial"",""time""
""focus"",""0"",""0""
","""event"",""trial"",""time""
""fullscreenenter"",""1"",""5762""
","
",,null,run_exp/static/images/task_images/aliens/old_aliens/planet/alien_planet-53.jpg,null,,,,,,,,,,,,,53,"2,43,53,25,19,62,22,55,11,40,44,75,74,21,34,17,38,8,35,41,28,36,71,5,58,3,39,51",,,,,,,,,,
land,100,530327,0.0-36.0-2.0,"""event"",""trial"",""time""
""focus"",""0"",""0""
""fullscreenenter"",""1"",""5762""
","
","""event"",""trial"",""time""
""focus"",""0"",""0""
","""event"",""trial"",""time""
""fullscreenenter"",""1"",""5762""
","
",,null,run_exp/static/images/task_images/land.jpg,null,,,,,,,100,,,3,,,,,,,,,,,,,,
dig,101,532367,0.0-36.0-3.0,"""event"",""trial"",""time""
""focus"",""0"",""0""
""fullscreenenter"",""1"",""5762""
","
","""event"",""trial"",""time""
""focus"",""0"",""0""
","""event"",""trial"",""time""
""fullscreenenter"",""1"",""5762""
","
",,,,,,,,,,,,"[{""stimulus"":""run_exp/static/images/task_images/dig.jpg"",""time"":0},{""stimulus"":""run_exp/static/images/task_images/land.jpg"",""time"":679},{""stimulus"":""run_exp/static/images/task_images/dig.jpg"",""time"":1356}]",[],3,,,,,,,,,,,,,,
harvest,102,533371,0.0-36.0-4.0,"""event"",""trial"",""time""
""focus"",""0"",""0""
""fullscreenenter"",""1"",""5762""
","
","""event"",""trial"",""time""
""focus"",""0"",""0""
","""event"",""trial"",""time""
""fullscreenenter"",""1"",""5762""
","
",,null,run_exp/static/images/task_images/gems/100.jpg,null,,,,,,,45,,,3,,,,,100,0.450090387,0.45,,,,,,,
decision,103,533480,0.0-36.0-5.0,"""event"",""trial"",""time""
""focus"",""0"",""0""
""fullscreenenter"",""1"",""5762""
","
","""event"",""trial"",""time""
""focus"",""0"",""0""
","""event"",""trial"",""time""
""fullscreenenter"",""1"",""5762""
","
",,108,run_exp/static/images/task_images/land.jpg,65,,,,,,,45,,,3,,,,,,,,62254,1,0,FALSE,,,
dig,104,536516,0.0-37.0-0.0,"""event"",""trial"",""time""
""focus"",""0"",""0""
""fullscreenenter"",""1"",""5762""
","
","""event"",""trial"",""time""
""focus"",""0"",""0""
","""event"",""trial"",""time""
""fullscreenenter"",""1"",""5762""
","
",,,,,,,,,,,,"[{""stimulus"":""run_exp/static/images/task_images/dig.jpg"",""time"":0},{""stimulus"":""run_exp/static/images/task_images/land.jpg"",""time"":993},{""stimulus"":""run_exp/static/images/task_images/dig.jpg"",""time"":2053}]",[],3,,,,,,,,,,,,,,
harvest,105,537524,0.0-37.0-1.0,"""event"",""trial"",""time""
""focus"",""0"",""0""
""fullscreenenter"",""1"",""5762""
","
","""event"",""trial"",""time""
""focus"",""0"",""0""
","""event"",""trial"",""time""
""fullscreenenter"",""1"",""5762""
","
",,null,run_exp/static/images/task_images/gems/45.jpg,null,,,,,,,20,,,3,,,,,45,0.453336125,0.444444444,,,,,,,
decision,106,538497,0.0-37.0-2.0,"""event"",""trial"",""time""
""focus"",""0"",""0""
""fullscreenenter"",""1"",""5762""
","
","""event"",""trial"",""time""
""focus"",""0"",""0""
","""event"",""trial"",""time""
""fullscreenenter"",""1"",""5762""
","
",,972,run_exp/static/images/task_images/land.jpg,65,,,,,,,20,,,3,,,,,,,,67271,1,1,FALSE,,,
dig,107,540569,0.0-38.0-0.0,"""event"",""trial"",""time""
""focus"",""0"",""0""
""fullscreenenter"",""1"",""5762""
","
","""event"",""trial"",""time""
""focus"",""0"",""0""
","""event"",""trial"",""time""
""fullscreenenter"",""1"",""5762""
","
",,,,,,,,,,,,"[{""stimulus"":""run_exp/static/images/task_images/dig.jpg"",""time"":0},{""stimulus"":""run_exp/static/images/task_images/land.jpg"",""time"":688},{""stimulus"":""run_exp/static/images/task_images/dig.jpg"",""time"":1376}]",[],3,,,,,,,,,,,,,,
harvest,108,541577,0.0-38.0-1.0,"""event"",""trial"",""time""
""focus"",""0"",""0""
""fullscreenenter"",""1"",""5762""
","
","""event"",""trial"",""time""
""focus"",""0"",""0""
","""event"",""trial"",""time""
""fullscreenenter"",""1"",""5762""
","
",,null,run_exp/static/images/task_images/gems/20.jpg,null,,,,,,,11,,,3,,,,,20,0.550365708,0.55,,,,,,,
decision,109,542417,0.0-38.0-2.0,"""event"",""trial"",""time""
""focus"",""0"",""0""
""fullscreenenter"",""1"",""5762""
","
","""event"",""trial"",""time""
""focus"",""0"",""0""
","""event"",""trial"",""time""
""fullscreenenter"",""1"",""5762""
","
",,839,run_exp/static/images/task_images/land.jpg,76,,,,,,,11,,,3,,,,,,,,71191,1,2,TRUE,,,
travel,110,551681,0.0-39.0-0.0,"""event"",""trial"",""time""
""focus"",""0"",""0""
""fullscreenenter"",""1"",""5762""
","
","""event"",""trial"",""time""
""focus"",""0"",""0""
","""event"",""trial"",""time""
""fullscreenenter"",""1"",""5762""
","
",,,,,,,,,,,,"[{""stimulus"":""run_exp/static/images/task_images/rocket-01.jpg"",""time"":1},{""stimulus"":""run_exp/static/images/task_images/rocket-02.jpg"",""time"":1040},{""stimulus"":""run_exp/static/images/task_images/rocket-03.jpg"",""time"":2069},{""stimulus"":""run_exp/static/images/task_images/rocket-04.jpg"",""time"":3092},{""stimulus"":""run_exp/static/images/task_images/rocket-05.jpg"",""time"":4111},{""stimulus"":""run_exp/static/images/task_images/rocket-06.jpg"",""time"":5132},{""stimulus"":""run_exp/static/images/task_images/rocket-07.jpg"",""time"":6160},{""stimulus"":""run_exp/static/images/task_images/rocket-08.jpg"",""time"":7183},{""stimulus"":""run_exp/static/images/task_images/rocket-09.jpg"",""time"":8224}]",[],3,,,,,,,,,,,,,,
alien_welcome,111,556689,0.0-39.0-1.0,"""event"",""trial"",""time""
""focus"",""0"",""0""
""fullscreenenter"",""1"",""5762""
","
","""event"",""trial"",""time""
""focus"",""0"",""0""
","""event"",""trial"",""time""
""fullscreenenter"",""1"",""5762""
","
",,null,run_exp/static/images/task_images/aliens/old_aliens/planet/alien_planet-25.jpg,null,,,,,,,,,,,,,25,"2,43,53,25,19,62,22,55,11,40,44,75,74,21,34,17,38,8,35,41,28,36,71,5,58,3,39,51",,,,,,,,,,
land,112,557201,0.0-39.0-2.0,"""event"",""trial"",""time""
""focus"",""0"",""0""
""fullscreenenter"",""1"",""5762""
","
","""event"",""trial"",""time""
""focus"",""0"",""0""
","""event"",""trial"",""time""
""fullscreenenter"",""1"",""5762""
","
",,null,run_exp/static/images/task_images/land.jpg,null,,,,,,,96,,,4,,,,,,,,,,,,,,
dig,113,559272,0.0-39.0-3.0,"""event"",""trial"",""time""
""focus"",""0"",""0""
""fullscreenenter"",""1"",""5762""
","
","""event"",""trial"",""time""
""focus"",""0"",""0""
","""event"",""trial"",""time""
""fullscreenenter"",""1"",""5762""
","
",,,,,,,,,,,,"[{""stimulus"":""run_exp/static/images/task_images/dig.jpg"",""time"":0},{""stimulus"":""run_exp/static/images/task_images/land.jpg"",""time"":673},{""stimulus"":""run_exp/static/images/task_images/dig.jpg"",""time"":1356}]",[],4,,,,,,,,,,,,,,
harvest,114,560275,0.0-39.0-4.0,"""event"",""trial"",""time""
""focus"",""0"",""0""
""fullscreenenter"",""1"",""5762""
","
","""event"",""trial"",""time""
""focus"",""0"",""0""
","""event"",""trial"",""time""
""fullscreenenter"",""1"",""5762""
","
",,null,run_exp/static/images/task_images/gems/96.jpg,null,,,,,,,62,,,4,,,,,96,0.641031254,0.645833333,,,,,,,
decision,115,560473,0.0-39.0-5.0,"""event"",""trial"",""time""
""focus"",""0"",""0""
""fullscreenenter"",""1"",""5762""
","
","""event"",""trial"",""time""
""focus"",""0"",""0""
","""event"",""trial"",""time""
""fullscreenenter"",""1"",""5762""
","
",,197,run_exp/static/images/task_images/land.jpg,65,,,,,,,62,,,4,,,,,,,,89247,1,0,FALSE,,,
dig,116,563426,0.0-40.0-0.0,"""event"",""trial"",""time""
""focus"",""0"",""0""
""fullscreenenter"",""1"",""5762""
","
","""event"",""trial"",""time""
""focus"",""0"",""0""
","""event"",""trial"",""time""
""fullscreenenter"",""1"",""5762""
","
",,,,,,,,,,,,"[{""stimulus"":""run_exp/static/images/task_images/dig.jpg"",""time"":1},{""stimulus"":""run_exp/static/images/task_images/land.jpg"",""time"":942},{""stimulus"":""run_exp/static/images/task_images/dig.jpg"",""time"":2000}]",[],4,,,,,,,,,,,,,,
harvest,117,564512,0.0-40.0-1.0,"""event"",""trial"",""time""
""focus"",""0"",""0""
""fullscreenenter"",""1"",""5762""
","
","""event"",""trial"",""time""
""focus"",""0"",""0""
","""event"",""trial"",""time""
""fullscreenenter"",""1"",""5762""
","
",,null,run_exp/static/images/task_images/gems/62.jpg,null,,,,,,,28,,,4,,,,,62,0.446980263,0.451612903,,,,,,,
decision,118,564841,0.0-40.0-2.0,"""event"",""trial"",""time""
""focus"",""0"",""0""
""fullscreenenter"",""1"",""5762""
","
","""event"",""trial"",""time""
""focus"",""0"",""0""
","""event"",""trial"",""time""
""fullscreenenter"",""1"",""5762""
","
",,326,run_exp/static/images/task_images/land.jpg,65,,,,,,,28,,,4,,,,,,,,93615,1,1,FALSE,,,
dig,119,567557,0.0-41.0-0.0,"""event"",""trial"",""time""
""focus"",""0"",""0""
""fullscreenenter"",""1"",""5762""
","
","""event"",""trial"",""time""
""focus"",""0"",""0""
","""event"",""trial"",""time""
""fullscreenenter"",""1"",""5762""
","
",,,,,,,,,,,,"[{""stimulus"":""run_exp/static/images/task_images/dig.jpg"",""time"":1},{""stimulus"":""run_exp/static/images/task_images/land.jpg"",""time"":897},{""stimulus"":""run_exp/static/images/task_images/dig.jpg"",""time"":1803}]",[],4,,,,,,,,,,,,,,
harvest,120,568660,0.0-41.0-1.0,"""event"",""trial"",""time""
""focus"",""0"",""0""
""fullscreenenter"",""1"",""5762""
","
","""event"",""trial"",""time""
""focus"",""0"",""0""
","""event"",""trial"",""time""
""fullscreenenter"",""1"",""5762""
","
",,null,run_exp/static/images/task_images/gems/28.jpg,null,,,,,,,15,,,4,,,,,28,0.520446698,0.535714286,,,,,,,
decision,121,569905,0.0-41.0-2.0,"""event"",""trial"",""time""
""focus"",""0"",""0""
""fullscreenenter"",""1"",""5762""
","
","""event"",""trial"",""time""
""focus"",""0"",""0""
","""event"",""trial"",""time""
""fullscreenenter"",""1"",""5762""
","
",,1243,run_exp/static/images/task_images/land.jpg,65,,,,,,,15,,,4,,,,,,,,98679,1,2,FALSE,,,
dig,122,571697,0.0-42.0-0.0,"""event"",""trial"",""time""
""focus"",""0"",""0""
""fullscreenenter"",""1"",""5762""
","
","""event"",""trial"",""time""
""focus"",""0"",""0""
","""event"",""trial"",""time""
""fullscreenenter"",""1"",""5762""
","
",,,,,,,,,,,,"[{""stimulus"":""run_exp/static/images/task_images/dig.jpg"",""time"":0},{""stimulus"":""run_exp/static/images/task_images/land.jpg"",""time"":585},{""stimulus"":""run_exp/static/images/task_images/dig.jpg"",""time"":1180}]",[],4,,,,,,,,,,,,,,
harvest,123,572699,0.0-42.0-1.0,"""event"",""trial"",""time""
""focus"",""0"",""0""
""fullscreenenter"",""1"",""5762""
","
","""event"",""trial"",""time""
""focus"",""0"",""0""
","""event"",""trial"",""time""
""fullscreenenter"",""1"",""5762""
","
",,null,run_exp/static/images/task_images/gems/15.jpg,null,,,,,,,8,,,4,,,,,15,0.559842665,0.533333333,,,,,,,
decision,124,573153,0.0-42.0-2.0,"""event"",""trial"",""time""
""focus"",""0"",""0""
""fullscreenenter"",""1"",""5762""
","
","""event"",""trial"",""time""
""focus"",""0"",""0""
","""event"",""trial"",""time""
""fullscreenenter"",""1"",""5762""
","
",,452,run_exp/static/images/task_images/land.jpg,76,,,,,,,8,,,4,,,,,,,,101927,1,3,TRUE,,,
travel,125,582779,0.0-43.0-0.0,"""event"",""trial"",""time""
""focus"",""0"",""0""
""fullscreenenter"",""1"",""5762""
","
","""event"",""trial"",""time""
""focus"",""0"",""0""
","""event"",""trial"",""time""
""fullscreenenter"",""1"",""5762""
","
",,,,,,,,,,,,"[{""stimulus"":""run_exp/static/images/task_images/rocket-01.jpg"",""time"":0},{""stimulus"":""run_exp/static/images/task_images/rocket-02.jpg"",""time"":1072},{""stimulus"":""run_exp/static/images/task_images/rocket-03.jpg"",""time"":2135},{""stimulus"":""run_exp/static/images/task_images/rocket-04.jpg"",""time"":3208},{""stimulus"":""run_exp/static/images/task_images/rocket-05.jpg"",""time"":4272},{""stimulus"":""run_exp/static/images/task_images/rocket-06.jpg"",""time"":5346},{""stimulus"":""run_exp/static/images/task_images/rocket-07.jpg"",""time"":6416},{""stimulus"":""run_exp/static/images/task_images/rocket-08.jpg"",""time"":7480},{""stimulus"":""run_exp/static/images/task_images/rocket-09.jpg"",""time"":8549}]",[],4,,,,,,,,,,,,,,
alien_welcome,126,587796,0.0-43.0-1.0,"""event"",""trial"",""time""
""focus"",""0"",""0""
""fullscreenenter"",""1"",""5762""
","
","""event"",""trial"",""time""
""focus"",""0"",""0""
","""event"",""trial"",""time""
""fullscreenenter"",""1"",""5762""
","
",,null,run_exp/static/images/task_images/aliens/old_aliens/planet/alien_planet-19.jpg,null,,,,,,,,,,,,,19,"2,43,53,25,19,62,22,55,11,40,44,75,74,21,34,17,38,8,35,41,28,36,71,5,58,3,39,51",,,,,,,,,,
land,127,588304,0.0-43.0-2.0,"""event"",""trial"",""time""
""focus"",""0"",""0""
""fullscreenenter"",""1"",""5762""
","
","""event"",""trial"",""time""
""focus"",""0"",""0""
","""event"",""trial"",""time""
""fullscreenenter"",""1"",""5762""
","
",,null,run_exp/static/images/task_images/land.jpg,null,,,,,,,102,,,5,,,,,,,,,,,,,,
dig,128,590403,0.0-43.0-3.0,"""event"",""trial"",""time""
""focus"",""0"",""0""
""fullscreenenter"",""1"",""5762""
","
","""event"",""trial"",""time""
""focus"",""0"",""0""
","""event"",""trial"",""time""
""fullscreenenter"",""1"",""5762""
","
",,,,,,,,,,,,"[{""stimulus"":""run_exp/static/images/task_images/dig.jpg"",""time"":0},{""stimulus"":""run_exp/static/images/task_images/land.jpg"",""time"":677},{""stimulus"":""run_exp/static/images/task_images/dig.jpg"",""time"":1344}]",[],5,,,,,,,,,,,,,,
harvest,129,591418,0.0-43.0-4.0,"""event"",""trial"",""time""
""focus"",""0"",""0""
""fullscreenenter"",""1"",""5762""
","
","""event"",""trial"",""time""
""focus"",""0"",""0""
","""event"",""trial"",""time""
""fullscreenenter"",""1"",""5762""
","
",,null,run_exp/static/images/task_images/gems/102.jpg,null,,,,,,,50,,,5,,,,,102,0.486041628,0.490196078,,,,,,,
decision,130,591664,0.0-43.0-5.0,"""event"",""trial"",""time""
""focus"",""0"",""0""
""fullscreenenter"",""1"",""5762""
","
","""event"",""trial"",""time""
""focus"",""0"",""0""
","""event"",""trial"",""time""
""fullscreenenter"",""1"",""5762""
","
",,245,run_exp/static/images/task_images/land.jpg,65,,,,,,,50,,,5,,,,,,,,120438,1,0,FALSE,,,
dig,131,594493,0.0-44.0-0.0,"""event"",""trial"",""time""
""focus"",""0"",""0""
""fullscreenenter"",""1"",""5762""
","
","""event"",""trial"",""time""
""focus"",""0"",""0""
","""event"",""trial"",""time""
""fullscreenenter"",""1"",""5762""
","
",,,,,,,,,,,,"[{""stimulus"":""run_exp/static/images/task_images/dig.jpg"",""time"":0},{""stimulus"":""run_exp/static/images/task_images/land.jpg"",""time"":963},{""stimulus"":""run_exp/static/images/task_images/dig.jpg"",""time"":1892}]",[],5,,,,,,,,,,,,,,
harvest,132,595500,0.0-44.0-1.0,"""event"",""trial"",""time""
""focus"",""0"",""0""
""fullscreenenter"",""1"",""5762""
","
","""event"",""trial"",""time""
""focus"",""0"",""0""
","""event"",""trial"",""time""
""fullscreenenter"",""1"",""5762""
","
",,null,run_exp/static/images/task_images/gems/50.jpg,null,,,,,,,24,,,5,,,,,50,0.474011428,0.48,,,,,,,
decision,133,596289,0.0-44.0-2.0,"""event"",""trial"",""time""
""focus"",""0"",""0""
""fullscreenenter"",""1"",""5762""
","
","""event"",""trial"",""time""
""focus"",""0"",""0""
","""event"",""trial"",""time""
""fullscreenenter"",""1"",""5762""
","
",,787,run_exp/static/images/task_images/land.jpg,65,,,,,,,24,,,5,,,,,,,,125063,1,1,FALSE,,,
dig,134,598546,0.0-45.0-0.0,"""event"",""trial"",""time""
""focus"",""0"",""0""
""fullscreenenter"",""1"",""5762""
","
","""event"",""trial"",""time""
""focus"",""0"",""0""
","""event"",""trial"",""time""
""fullscreenenter"",""1"",""5762""
","
",,,,,,,,,,,,"[{""stimulus"":""run_exp/static/images/task_images/dig.jpg"",""time"":0},{""stimulus"":""run_exp/static/images/task_images/land.jpg"",""time"":747},{""stimulus"":""run_exp/static/images/task_images/dig.jpg"",""time"":1498}]",[],5,,,,,,,,,,,,,,
harvest,135,599554,0.0-45.0-1.0,"""event"",""trial"",""time""
""focus"",""0"",""0""
""fullscreenenter"",""1"",""5762""
","
","""event"",""trial"",""time""
""focus"",""0"",""0""
","""event"",""trial"",""time""
""fullscreenenter"",""1"",""5762""
","
",,null,run_exp/static/images/task_images/gems/24.jpg,null,,,,,,,12,,,5,,,,,24,0.488861496,0.5,,,,,,,
decision,136,600360,0.0-45.0-2.0,"""event"",""trial"",""time""
""focus"",""0"",""0""
""fullscreenenter"",""1"",""5762""
","
","""event"",""trial"",""time""
""focus"",""0"",""0""
","""event"",""trial"",""time""
""fullscreenenter"",""1"",""5762""
","
",,805,run_exp/static/images/task_images/land.jpg,65,,,,,,,12,,,5,,,,,,,,129134,1,2,FALSE,,,
dig,137,602590,0.0-46.0-0.0,"""event"",""trial"",""time""
""focus"",""0"",""0""
""fullscreenenter"",""1"",""5762""
","
","""event"",""trial"",""time""
""focus"",""0"",""0""
","""event"",""trial"",""time""
""fullscreenenter"",""1"",""5762""
","
",,,,,,,,,,,,"[{""stimulus"":""run_exp/static/images/task_images/dig.jpg"",""time"":1},{""stimulus"":""run_exp/static/images/task_images/land.jpg"",""time"":745},{""stimulus"":""run_exp/static/images/task_images/dig.jpg"",""time"":1485}]",[],5,,,,,,,,,,,,,,
harvest,138,603602,0.0-46.0-1.0,"""event"",""trial"",""time""
""focus"",""0"",""0""
""fullscreenenter"",""1"",""5762""
","
","""event"",""trial"",""time""
""focus"",""0"",""0""
","""event"",""trial"",""time""
""fullscreenenter"",""1"",""5762""
","
",,null,run_exp/static/images/task_images/gems/12.jpg,null,,,,,,,6,,,5,,,,,12,0.474920075,0.5,,,,,,,
decision,139,605001,0.0-46.0-2.0,"""event"",""trial"",""time""
""focus"",""0"",""0""
""fullscreenenter"",""1"",""5762""
""blur"",""140"",""605630""
","""event"",""trial"",""time""
""blur"",""140"",""605630""
","""event"",""trial"",""time""
""focus"",""0"",""0""
","""event"",""trial"",""time""
""fullscreenenter"",""1"",""5762""
","
",,1396,run_exp/static/images/task_images/land.jpg,65,,,,,,,6,,,5,,,,,,,,133775,1,3,FALSE,,,
dig,140,606652,0.0-47.0-0.0,"""event"",""trial"",""time""
""focus"",""0"",""0""
""fullscreenenter"",""1"",""5762""
""blur"",""140"",""605630""
","""event"",""trial"",""time""
""blur"",""140"",""605630""
","""event"",""trial"",""time""
""focus"",""0"",""0""
","""event"",""trial"",""time""
""fullscreenenter"",""1"",""5762""
","
",,,,,,,,,,,,"[{""stimulus"":""run_exp/static/images/task_images/dig.jpg"",""time"":0},{""stimulus"":""run_exp/static/images/task_images/land.jpg"",""time"":551},{""stimulus"":""run_exp/static/images/task_images/dig.jpg"",""time"":1093}]",[],5,,,,,,,,,,,,,,
harvest,141,607655,0.0-47.0-1.0,"""event"",""trial"",""time""
""focus"",""0"",""0""
""fullscreenenter"",""1"",""5762""
""blur"",""140"",""605630""
","""event"",""trial"",""time""
""blur"",""140"",""605630""
","""event"",""trial"",""time""
""focus"",""0"",""0""
","""event"",""trial"",""time""
""fullscreenenter"",""1"",""5762""
","
",,null,run_exp/static/images/task_images/gems/6.jpg,null,,,,,,,3,,,5,,,,,6,0.500349652,0.5,,,,,,,
decision,142,610660,0.0-47.0-2.0,"""event"",""trial"",""time""
""focus"",""0"",""0""
""fullscreenenter"",""1"",""5762""
""blur"",""140"",""605630""
""focus"",""143"",""611576""
","""event"",""trial"",""time""
""blur"",""140"",""605630""
","""event"",""trial"",""time""
""focus"",""0"",""0""
""focus"",""143"",""611576""
","""event"",""trial"",""time""
""fullscreenenter"",""1"",""5762""
","
",,null,run_exp/static/images/task_images/land.jpg,null,,,,,,,3,,,5,,,,,,,,139434,1,4,FALSE,,,
time_out,143,612665,0.0-48.0-0.0,"""event"",""trial"",""time""
""focus"",""0"",""0""
""fullscreenenter"",""1"",""5762""
""blur"",""140"",""605630""
""focus"",""143"",""611576""
","""event"",""trial"",""time""
""blur"",""140"",""605630""
","""event"",""trial"",""time""
""focus"",""0"",""0""
""focus"",""143"",""611576""
","""event"",""trial"",""time""
""fullscreenenter"",""1"",""5762""
","
",,null,run_exp/static/images/task_images/time_out.jpg,null,,,,,,,3,,,,,,,,,,,,,,,,,
decision,144,613321,0.0-48.0-1.0,"""event"",""trial"",""time""
""focus"",""0"",""0""
""fullscreenenter"",""1"",""5762""
""blur"",""140"",""605630""
""focus"",""143"",""611576""
","""event"",""trial"",""time""
""blur"",""140"",""605630""
","""event"",""trial"",""time""
""focus"",""0"",""0""
""focus"",""143"",""611576""
","""event"",""trial"",""time""
""fullscreenenter"",""1"",""5762""
","
",,654,run_exp/static/images/task_images/land.jpg,76,,,,,,,3,,,5,,,,,,,,142096,1,4,TRUE,,,
travel,145,622791,0.0-49.0-0.0,"""event"",""trial"",""time""
""focus"",""0"",""0""
""fullscreenenter"",""1"",""5762""
""blur"",""140"",""605630""
""focus"",""143"",""611576""
","""event"",""trial"",""time""
""blur"",""140"",""605630""
","""event"",""trial"",""time""
""focus"",""0"",""0""
""focus"",""143"",""611576""
","""event"",""trial"",""time""
""fullscreenenter"",""1"",""5762""
","
",,,,,,,,,,,,"[{""stimulus"":""run_exp/static/images/task_images/rocket-01.jpg"",""time"":0},{""stimulus"":""run_exp/static/images/task_images/rocket-02.jpg"",""time"":1057},{""stimulus"":""run_exp/static/images/task_images/rocket-03.jpg"",""time"":2112},{""stimulus"":""run_exp/static/images/task_images/rocket-04.jpg"",""time"":3152},{""stimulus"":""run_exp/static/images/task_images/rocket-05.jpg"",""time"":4192},{""stimulus"":""run_exp/static/images/task_images/rocket-06.jpg"",""time"":5232},{""stimulus"":""run_exp/static/images/task_images/rocket-07.jpg"",""time"":6287},{""stimulus"":""run_exp/static/images/task_images/rocket-08.jpg"",""time"":7366},{""stimulus"":""run_exp/static/images/task_images/rocket-09.jpg"",""time"":8407}]",[],5,,,,,,,,,,,,,,
alien_welcome,146,627805,0.0-49.0-1.0,"""event"",""trial"",""time""
""focus"",""0"",""0""
""fullscreenenter"",""1"",""5762""
""blur"",""140"",""605630""
""focus"",""143"",""611576""
","""event"",""trial"",""time""
""blur"",""140"",""605630""
","""event"",""trial"",""time""
""focus"",""0"",""0""
""focus"",""143"",""611576""
","""event"",""trial"",""time""
""fullscreenenter"",""1"",""5762""
","
",,null,run_exp/static/images/task_images/aliens/old_aliens/planet/alien_planet-62.jpg,null,,,,,,,,,,,,,62,"2,43,53,25,19,62,22,55,11,40,44,75,74,21,34,17,38,8,35,41,28,36,71,5,58,3,39,51",,,,,,,,,,
land,147,628321,0.0-49.0-2.0,"""event"",""trial"",""time""
""focus"",""0"",""0""
""fullscreenenter"",""1"",""5762""
""blur"",""140"",""605630""
""focus"",""143"",""611576""
","""event"",""trial"",""time""
""blur"",""140"",""605630""
","""event"",""trial"",""time""
""focus"",""0"",""0""
""focus"",""143"",""611576""
","""event"",""trial"",""time""
""fullscreenenter"",""1"",""5762""
","
",,null,run_exp/static/images/task_images/land.jpg,null,,,,,,,100,,,6,,,,,,,,,,,,,,
dig,148,630368,0.0-49.0-3.0,"""event"",""trial"",""time""
""focus"",""0"",""0""
""fullscreenenter"",""1"",""5762""
""blur"",""140"",""605630""
""focus"",""143"",""611576""
","""event"",""trial"",""time""
""blur"",""140"",""605630""
","""event"",""trial"",""time""
""focus"",""0"",""0""
""focus"",""143"",""611576""
","""event"",""trial"",""time""
""fullscreenenter"",""1"",""5762""
","
",,,,,,,,,,,,"[{""stimulus"":""run_exp/static/images/task_images/dig.jpg"",""time"":0},{""stimulus"":""run_exp/static/images/task_images/land.jpg"",""time"":689},{""stimulus"":""run_exp/static/images/task_images/dig.jpg"",""time"":1364}]",[],6,,,,,,,,,,,,,,
harvest,149,631370,0.0-49.0-4.0,"""event"",""trial"",""time""
""focus"",""0"",""0""
""fullscreenenter"",""1"",""5762""
""blur"",""140"",""605630""
""focus"",""143"",""611576""
","""event"",""trial"",""time""
""blur"",""140"",""605630""
","""event"",""trial"",""time""
""focus"",""0"",""0""
""focus"",""143"",""611576""
","""event"",""trial"",""time""
""fullscreenenter"",""1"",""5762""
","
",,null,run_exp/static/images/task_images/gems/100.jpg,null,,,,,,,81,,,6,,,,,100,0.807331644,0.81,,,,,,,
decision,150,631536,0.0-49.0-5.0,"""event"",""trial"",""time""
""focus"",""0"",""0""
""fullscreenenter"",""1"",""5762""
""blur"",""140"",""605630""
""focus"",""143"",""611576""
","""event"",""trial"",""time""
""blur"",""140"",""605630""
","""event"",""trial"",""time""
""focus"",""0"",""0""
""focus"",""143"",""611576""
","""event"",""trial"",""time""
""fullscreenenter"",""1"",""5762""
","
",,165,run_exp/static/images/task_images/land.jpg,65,,,,,,,81,,,6,,,,,,,,160310,1,0,FALSE,,,
dig,151,634542,0.0-50.0-0.0,"""event"",""trial"",""time""
""focus"",""0"",""0""
""fullscreenenter"",""1"",""5762""
""blur"",""140"",""605630""
""focus"",""143"",""611576""
","""event"",""trial"",""time""
""blur"",""140"",""605630""
","""event"",""trial"",""time""
""focus"",""0"",""0""
""focus"",""143"",""611576""
","""event"",""trial"",""time""
""fullscreenenter"",""1"",""5762""
","
",,,,,,,,,,,,"[{""stimulus"":""run_exp/static/images/task_images/dig.jpg"",""time"":1},{""stimulus"":""run_exp/static/images/task_images/land.jpg"",""time"":980},{""stimulus"":""run_exp/static/images/task_images/dig.jpg"",""time"":2037}]",[],6,,,,,,,,,,,,,,
harvest,152,635549,0.0-50.0-1.0,"""event"",""trial"",""time""
""focus"",""0"",""0""
""fullscreenenter"",""1"",""5762""
""blur"",""140"",""605630""
""focus"",""143"",""611576""
","""event"",""trial"",""time""
""blur"",""140"",""605630""
","""event"",""trial"",""time""
""focus"",""0"",""0""
""focus"",""143"",""611576""
","""event"",""trial"",""time""
""fullscreenenter"",""1"",""5762""
","
",,null,run_exp/static/images/task_images/gems/81.jpg,null,,,,,,,73,,,6,,,,,81,0.897906296,0.901234568,,,,,,,
decision,153,636361,0.0-50.0-2.0,"""event"",""trial"",""time""
""focus"",""0"",""0""
""fullscreenenter"",""1"",""5762""
""blur"",""140"",""605630""
""focus"",""143"",""611576""
","""event"",""trial"",""time""
""blur"",""140"",""605630""
","""event"",""trial"",""time""
""focus"",""0"",""0""
""focus"",""143"",""611576""
","""event"",""trial"",""time""
""fullscreenenter"",""1"",""5762""
","
",,810,run_exp/static/images/task_images/land.jpg,65,,,,,,,73,,,6,,,,,,,,165135,1,1,FALSE,,,
dig,154,638577,0.0-51.0-0.0,"""event"",""trial"",""time""
""focus"",""0"",""0""
""fullscreenenter"",""1"",""5762""
""blur"",""140"",""605630""
""focus"",""143"",""611576""
","""event"",""trial"",""time""
""blur"",""140"",""605630""
","""event"",""trial"",""time""
""focus"",""0"",""0""
""focus"",""143"",""611576""
","""event"",""trial"",""time""
""fullscreenenter"",""1"",""5762""
","
",,,,,,,,,,,,"[{""stimulus"":""run_exp/static/images/task_images/dig.jpg"",""time"":0},{""stimulus"":""run_exp/static/images/task_images/land.jpg"",""time"":738},{""stimulus"":""run_exp/static/images/task_images/dig.jpg"",""time"":1470}]",[],6,,,,,,,,,,,,,,
harvest,155,639585,0.0-51.0-1.0,"""event"",""trial"",""time""
""focus"",""0"",""0""
""fullscreenenter"",""1"",""5762""
""blur"",""140"",""605630""
""focus"",""143"",""611576""
","""event"",""trial"",""time""
""blur"",""140"",""605630""
","""event"",""trial"",""time""
""focus"",""0"",""0""
""focus"",""143"",""611576""
","""event"",""trial"",""time""
""fullscreenenter"",""1"",""5762""
","
",,null,run_exp/static/images/task_images/gems/73.jpg,null,,,,,,,57,,,6,,,,,73,0.774688235,0.780821918,,,,,,,
decision,156,640174,0.0-51.0-2.0,"""event"",""trial"",""time""
""focus"",""0"",""0""
""fullscreenenter"",""1"",""5762""
""blur"",""140"",""605630""
""focus"",""143"",""611576""
","""event"",""trial"",""time""
""blur"",""140"",""605630""
","""event"",""trial"",""time""
""focus"",""0"",""0""
""focus"",""143"",""611576""
","""event"",""trial"",""time""
""fullscreenenter"",""1"",""5762""
","
",,589,run_exp/static/images/task_images/land.jpg,65,,,,,,,57,,,6,,,,,,,,168948,1,2,FALSE,,,
dig,157,642617,0.0-52.0-0.0,"""event"",""trial"",""time""
""focus"",""0"",""0""
""fullscreenenter"",""1"",""5762""
""blur"",""140"",""605630""
""focus"",""143"",""611576""
","""event"",""trial"",""time""
""blur"",""140"",""605630""
","""event"",""trial"",""time""
""focus"",""0"",""0""
""focus"",""143"",""611576""
","""event"",""trial"",""time""
""fullscreenenter"",""1"",""5762""
","
",,,,,,,,,,,,"[{""stimulus"":""run_exp/static/images/task_images/dig.jpg"",""time"":0},{""stimulus"":""run_exp/static/images/task_images/land.jpg"",""time"":807},{""stimulus"":""run_exp/static/images/task_images/dig.jpg"",""time"":1623}]",[],6,,,,,,,,,,,,,,
harvest,158,643625,0.0-52.0-1.0,"""event"",""trial"",""time""
""focus"",""0"",""0""
""fullscreenenter"",""1"",""5762""
""blur"",""140"",""605630""
""focus"",""143"",""611576""
","""event"",""trial"",""time""
""blur"",""140"",""605630""
","""event"",""trial"",""time""
""focus"",""0"",""0""
""focus"",""143"",""611576""
","""event"",""trial"",""time""
""fullscreenenter"",""1"",""5762""
","
",,null,run_exp/static/images/task_images/gems/57.jpg,null,,,,,,,48,,,6,,,,,57,0.839534909,0.842105263,,,,,,,
decision,159,644104,0.0-52.0-2.0,"""event"",""trial"",""time""
""focus"",""0"",""0""
""fullscreenenter"",""1"",""5762""
""blur"",""140"",""605630""
""focus"",""143"",""611576""
","""event"",""trial"",""time""
""blur"",""140"",""605630""
","""event"",""trial"",""time""
""focus"",""0"",""0""
""focus"",""143"",""611576""
","""event"",""trial"",""time""
""fullscreenenter"",""1"",""5762""
","
",,477,run_exp/static/images/task_images/land.jpg,65,,,,,,,48,,,6,,,,,,,,172878,1,3,FALSE,,,
dig,160,646650,0.0-53.0-0.0,"""event"",""trial"",""time""
""focus"",""0"",""0""
""fullscreenenter"",""1"",""5762""
""blur"",""140"",""605630""
""focus"",""143"",""611576""
","""event"",""trial"",""time""
""blur"",""140"",""605630""
","""event"",""trial"",""time""
""focus"",""0"",""0""
""focus"",""143"",""611576""
","""event"",""trial"",""time""
""fullscreenenter"",""1"",""5762""
","
",,,,,,,,,,,,"[{""stimulus"":""run_exp/static/images/task_images/dig.jpg"",""time"":0},{""stimulus"":""run_exp/static/images/task_images/land.jpg"",""time"":845},{""stimulus"":""run_exp/static/images/task_images/dig.jpg"",""time"":1688}]",[],6,,,,,,,,,,,,,,
harvest,161,647653,0.0-53.0-1.0,"""event"",""trial"",""time""
""focus"",""0"",""0""
""fullscreenenter"",""1"",""5762""
""blur"",""140"",""605630""
""focus"",""143"",""611576""
","""event"",""trial"",""time""
""blur"",""140"",""605630""
","""event"",""trial"",""time""
""focus"",""0"",""0""
""focus"",""143"",""611576""
","""event"",""trial"",""time""
""fullscreenenter"",""1"",""5762""
","
",,null,run_exp/static/images/task_images/gems/48.jpg,null,,,,,,,41,,,6,,,,,48,0.855244678,0.854166667,,,,,,,
decision,162,650658,0.0-53.0-2.0,"""event"",""trial"",""time""
""focus"",""0"",""0""
""fullscreenenter"",""1"",""5762""
""blur"",""140"",""605630""
""focus"",""143"",""611576""
","""event"",""trial"",""time""
""blur"",""140"",""605630""
","""event"",""trial"",""time""
""focus"",""0"",""0""
""focus"",""143"",""611576""
","""event"",""trial"",""time""
""fullscreenenter"",""1"",""5762""
","
",,null,run_exp/static/images/task_images/land.jpg,null,,,,,,,41,,,6,,,,,,,,179432,1,4,FALSE,,,
time_out,163,652670,0.0-54.0-0.0,"""event"",""trial"",""time""
""focus"",""0"",""0""
""fullscreenenter"",""1"",""5762""
""blur"",""140"",""605630""
""focus"",""143"",""611576""
","""event"",""trial"",""time""
""blur"",""140"",""605630""
","""event"",""trial"",""time""
""focus"",""0"",""0""
""focus"",""143"",""611576""
","""event"",""trial"",""time""
""fullscreenenter"",""1"",""5762""
","
",,null,run_exp/static/images/task_images/time_out.jpg,null,,,,,,,41,,,,,,,,,,,,,,,,,
decision,164,655217,0.0-54.0-1.0,"""event"",""trial"",""time""
""focus"",""0"",""0""
""fullscreenenter"",""1"",""5762""
""blur"",""140"",""605630""
""focus"",""143"",""611576""
","""event"",""trial"",""time""
""blur"",""140"",""605630""
","""event"",""trial"",""time""
""focus"",""0"",""0""
""focus"",""143"",""611576""
","""event"",""trial"",""time""
""fullscreenenter"",""1"",""5762""
","
",,2544,run_exp/static/images/task_images/land.jpg,76,,,,,,,41,,,6,,,,,,,,183991,1,4,TRUE,,,
travel,165,662810,0.0-55.0-0.0,"""event"",""trial"",""time""
""focus"",""0"",""0""
""fullscreenenter"",""1"",""5762""
""blur"",""140"",""605630""
""focus"",""143"",""611576""
","""event"",""trial"",""time""
""blur"",""140"",""605630""
","""event"",""trial"",""time""
""focus"",""0"",""0""
""focus"",""143"",""611576""
","""event"",""trial"",""time""
""fullscreenenter"",""1"",""5762""
","
",,,,,,,,,,,,"[{""stimulus"":""run_exp/static/images/task_images/rocket-01.jpg"",""time"":0},{""stimulus"":""run_exp/static/images/task_images/rocket-02.jpg"",""time"":836},{""stimulus"":""run_exp/static/images/task_images/rocket-03.jpg"",""time"":1680},{""stimulus"":""run_exp/static/images/task_images/rocket-04.jpg"",""time"":2508},{""stimulus"":""run_exp/static/images/task_images/rocket-05.jpg"",""time"":3341},{""stimulus"":""run_exp/static/images/task_images/rocket-06.jpg"",""time"":4172},{""stimulus"":""run_exp/static/images/task_images/rocket-07.jpg"",""time"":5036},{""stimulus"":""run_exp/static/images/task_images/rocket-08.jpg"",""time"":5872},{""stimulus"":""run_exp/static/images/task_images/rocket-09.jpg"",""time"":6740}]",[],6,,,,,,,,,,,,,,
alien_welcome,166,667822,0.0-55.0-1.0,"""event"",""trial"",""time""
""focus"",""0"",""0""
""fullscreenenter"",""1"",""5762""
""blur"",""140"",""605630""
""focus"",""143"",""611576""
","""event"",""trial"",""time""
""blur"",""140"",""605630""
","""event"",""trial"",""time""
""focus"",""0"",""0""
""focus"",""143"",""611576""
","""event"",""trial"",""time""
""fullscreenenter"",""1"",""5762""
","
",,null,run_exp/static/images/task_images/aliens/old_aliens/planet/alien_planet-22.jpg,null,,,,,,,,,,,,,22,"2,43,53,25,19,62,22,55,11,40,44,75,74,21,34,17,38,8,35,41,28,36,71,5,58,3,39,51",,,,,,,,,,
land,167,668330,0.0-55.0-2.0,"""event"",""trial"",""time""
""focus"",""0"",""0""
""fullscreenenter"",""1"",""5762""
""blur"",""140"",""605630""
""focus"",""143"",""611576""
","""event"",""trial"",""time""
""blur"",""140"",""605630""
","""event"",""trial"",""time""
""focus"",""0"",""0""
""focus"",""143"",""611576""
","""event"",""trial"",""time""
""fullscreenenter"",""1"",""5762""
","
",,null,run_exp/static/images/task_images/land.jpg,null,,,,,,,84,,,7,,,,,,,,,,,,,,
dig,168,670370,0.0-55.0-3.0,"""event"",""trial"",""time""
""focus"",""0"",""0""
""fullscreenenter"",""1"",""5762""
""blur"",""140"",""605630""
""focus"",""143"",""611576""
","""event"",""trial"",""time""
""blur"",""140"",""605630""
","""event"",""trial"",""time""
""focus"",""0"",""0""
""focus"",""143"",""611576""
","""event"",""trial"",""time""
""fullscreenenter"",""1"",""5762""
","
",,,,,,,,,,,,"[{""stimulus"":""run_exp/static/images/task_images/dig.jpg"",""time"":1},{""stimulus"":""run_exp/static/images/task_images/land.jpg"",""time"":686},{""stimulus"":""run_exp/static/images/task_images/dig.jpg"",""time"":1362}]",[],7,,,,,,,,,,,,,,
harvest,169,671382,0.0-55.0-4.0,"""event"",""trial"",""time""
""focus"",""0"",""0""
""fullscreenenter"",""1"",""5762""
""blur"",""140"",""605630""
""focus"",""143"",""611576""
","""event"",""trial"",""time""
""blur"",""140"",""605630""
","""event"",""trial"",""time""
""focus"",""0"",""0""
""focus"",""143"",""611576""
","""event"",""trial"",""time""
""fullscreenenter"",""1"",""5762""
","
",,null,run_exp/static/images/task_images/gems/84.jpg,null,,,,,,,66,,,7,,,,,84,0.780976308,0.785714286,,,,,,,
decision,170,673033,0.0-55.0-5.0,"""event"",""trial"",""time""
""focus"",""0"",""0""
""fullscreenenter"",""1"",""5762""
""blur"",""140"",""605630""
""focus"",""143"",""611576""
","""event"",""trial"",""time""
""blur"",""140"",""605630""
","""event"",""trial"",""time""
""focus"",""0"",""0""
""focus"",""143"",""611576""
","""event"",""trial"",""time""
""fullscreenenter"",""1"",""5762""
","
",,1648,run_exp/static/images/task_images/land.jpg,65,,,,,,,66,,,7,,,,,,,,201807,1,0,FALSE,,,
dig,171,674422,0.0-56.0-0.0,"""event"",""trial"",""time""
""focus"",""0"",""0""
""fullscreenenter"",""1"",""5762""
""blur"",""140"",""605630""
""focus"",""143"",""611576""
","""event"",""trial"",""time""
""blur"",""140"",""605630""
","""event"",""trial"",""time""
""focus"",""0"",""0""
""focus"",""143"",""611576""
","""event"",""trial"",""time""
""fullscreenenter"",""1"",""5762""
","
",,,,,,,,,,,,"[{""stimulus"":""run_exp/static/images/task_images/dig.jpg"",""time"":0},{""stimulus"":""run_exp/static/images/task_images/land.jpg"",""time"":459},{""stimulus"":""run_exp/static/images/task_images/dig.jpg"",""time"":912}]",[],7,,,,,,,,,,,,,,
harvest,172,675426,0.0-56.0-1.0,"""event"",""trial"",""time""
""focus"",""0"",""0""
""fullscreenenter"",""1"",""5762""
""blur"",""140"",""605630""
""focus"",""143"",""611576""
","""event"",""trial"",""time""
""blur"",""140"",""605630""
","""event"",""trial"",""time""
""focus"",""0"",""0""
""focus"",""143"",""611576""
","""event"",""trial"",""time""
""fullscreenenter"",""1"",""5762""
","
",,null,run_exp/static/images/task_images/gems/66.jpg,null,,,,,,,56,,,7,,,,,66,0.845597086,0.848484848,,,,,,,
decision,173,676288,0.0-56.0-2.0,"""event"",""trial"",""time""
""focus"",""0"",""0""
""fullscreenenter"",""1"",""5762""
""blur"",""140"",""605630""
""focus"",""143"",""611576""
","""event"",""trial"",""time""
""blur"",""140"",""605630""
","""event"",""trial"",""time""
""focus"",""0"",""0""
""focus"",""143"",""611576""
","""event"",""trial"",""time""
""fullscreenenter"",""1"",""5762""
","
",,860,run_exp/static/images/task_images/land.jpg,65,,,,,,,56,,,7,,,,,,,,205062,1,1,FALSE,,,
dig,174,678462,0.0-57.0-0.0,"""event"",""trial"",""time""
""focus"",""0"",""0""
""fullscreenenter"",""1"",""5762""
""blur"",""140"",""605630""
""focus"",""143"",""611576""
","""event"",""trial"",""time""
""blur"",""140"",""605630""
","""event"",""trial"",""time""
""focus"",""0"",""0""
""focus"",""143"",""611576""
","""event"",""trial"",""time""
""fullscreenenter"",""1"",""5762""
","
",,,,,,,,,,,,"[{""stimulus"":""run_exp/static/images/task_images/dig.jpg"",""time"":0},{""stimulus"":""run_exp/static/images/task_images/land.jpg"",""time"":721},{""stimulus"":""run_exp/static/images/task_images/dig.jpg"",""time"":1444}]",[],7,,,,,,,,,,,,,,
harvest,175,679464,0.0-57.0-1.0,"""event"",""trial"",""time""
""focus"",""0"",""0""
""fullscreenenter"",""1"",""5762""
""blur"",""140"",""605630""
""focus"",""143"",""611576""
","""event"",""trial"",""time""
""blur"",""140"",""605630""
","""event"",""trial"",""time""
""focus"",""0"",""0""
""focus"",""143"",""611576""
","""event"",""trial"",""time""
""fullscreenenter"",""1"",""5762""
","
",,null,run_exp/static/images/task_images/gems/56.jpg,null,,,,,,,43,,,7,,,,,56,0.772785746,0.767857143,,,,,,,
decision,176,680008,0.0-57.0-2.0,"""event"",""trial"",""time""
""focus"",""0"",""0""
""fullscreenenter"",""1"",""5762""
""blur"",""140"",""605630""
""focus"",""143"",""611576""
","""event"",""trial"",""time""
""blur"",""140"",""605630""
","""event"",""trial"",""time""
""focus"",""0"",""0""
""focus"",""143"",""611576""
","""event"",""trial"",""time""
""fullscreenenter"",""1"",""5762""
","
",,543,run_exp/static/images/task_images/land.jpg,65,,,,,,,43,,,7,,,,,,,,208782,1,2,FALSE,,,
dig,177,682527,0.0-58.0-0.0,"""event"",""trial"",""time""
""focus"",""0"",""0""
""fullscreenenter"",""1"",""5762""
""blur"",""140"",""605630""
""focus"",""143"",""611576""
","""event"",""trial"",""time""
""blur"",""140"",""605630""
","""event"",""trial"",""time""
""focus"",""0"",""0""
""focus"",""143"",""611576""
","""event"",""trial"",""time""
""fullscreenenter"",""1"",""5762""
","
",,,,,,,,,,,,"[{""stimulus"":""run_exp/static/images/task_images/dig.jpg"",""time"":1},{""stimulus"":""run_exp/static/images/task_images/land.jpg"",""time"":835},{""stimulus"":""run_exp/static/images/task_images/dig.jpg"",""time"":1667}]",[],7,,,,,,,,,,,,,,
harvest,178,683529,0.0-58.0-1.0,"""event"",""trial"",""time""
""focus"",""0"",""0""
""fullscreenenter"",""1"",""5762""
""blur"",""140"",""605630""
""focus"",""143"",""611576""
","""event"",""trial"",""time""
""blur"",""140"",""605630""
","""event"",""trial"",""time""
""focus"",""0"",""0""
""focus"",""143"",""611576""
","""event"",""trial"",""time""
""fullscreenenter"",""1"",""5762""
","
",,null,run_exp/static/images/task_images/gems/43.jpg,null,,,,,,,35,,,7,,,,,43,0.821581958,0.813953488,,,,,,,
decision,179,686536,0.0-58.0-2.0,"""event"",""trial"",""time""
""focus"",""0"",""0""
""fullscreenenter"",""1"",""5762""
""blur"",""140"",""605630""
""focus"",""143"",""611576""
","""event"",""trial"",""time""
""blur"",""140"",""605630""
","""event"",""trial"",""time""
""focus"",""0"",""0""
""focus"",""143"",""611576""
","""event"",""trial"",""time""
""fullscreenenter"",""1"",""5762""
","
",,null,run_exp/static/images/task_images/land.jpg,null,,,,,,,35,,,7,,,,,,,,215311,1,3,FALSE,,,
time_out,180,688542,0.0-59.0-0.0,"""event"",""trial"",""time""
""focus"",""0"",""0""
""fullscreenenter"",""1"",""5762""
""blur"",""140"",""605630""
""focus"",""143"",""611576""
","""event"",""trial"",""time""
""blur"",""140"",""605630""
","""event"",""trial"",""time""
""focus"",""0"",""0""
""focus"",""143"",""611576""
","""event"",""trial"",""time""
""fullscreenenter"",""1"",""5762""
","
",,null,run_exp/static/images/task_images/time_out.jpg,null,,,,,,,35,,,,,,,,,,,,,,,,,
decision,181,690856,0.0-59.0-1.0,"""event"",""trial"",""time""
""focus"",""0"",""0""
""fullscreenenter"",""1"",""5762""
""blur"",""140"",""605630""
""focus"",""143"",""611576""
","""event"",""trial"",""time""
""blur"",""140"",""605630""
","""event"",""trial"",""time""
""focus"",""0"",""0""
""focus"",""143"",""611576""
","""event"",""trial"",""time""
""fullscreenenter"",""1"",""5762""
","
",,2313,run_exp/static/images/task_images/land.jpg,76,,,,,,,35,,,7,,,,,,,,219631,1,3,TRUE,,,
travel,182,698673,0.0-60.0-0.0,"""event"",""trial"",""time""
""focus"",""0"",""0""
""fullscreenenter"",""1"",""5762""
""blur"",""140"",""605630""
""focus"",""143"",""611576""
","""event"",""trial"",""time""
""blur"",""140"",""605630""
","""event"",""trial"",""time""
""focus"",""0"",""0""
""focus"",""143"",""611576""
","""event"",""trial"",""time""
""fullscreenenter"",""1"",""5762""
","
",,,,,,,,,,,,"[{""stimulus"":""run_exp/static/images/task_images/rocket-01.jpg"",""time"":1},{""stimulus"":""run_exp/static/images/task_images/rocket-02.jpg"",""time"":876},{""stimulus"":""run_exp/static/images/task_images/rocket-03.jpg"",""time"":1736},{""stimulus"":""run_exp/static/images/task_images/rocket-04.jpg"",""time"":2596},{""stimulus"":""run_exp/static/images/task_images/rocket-05.jpg"",""time"":3456},{""stimulus"":""run_exp/static/images/task_images/rocket-06.jpg"",""time"":4315},{""stimulus"":""run_exp/static/images/task_images/rocket-07.jpg"",""time"":5199},{""stimulus"":""run_exp/static/images/task_images/rocket-08.jpg"",""time"":6078},{""stimulus"":""run_exp/static/images/task_images/rocket-09.jpg"",""time"":6941}]",[],7,,,,,,,,,,,,,,
alien_welcome,183,703675,0.0-60.0-1.0,"""event"",""trial"",""time""
""focus"",""0"",""0""
""fullscreenenter"",""1"",""5762""
""blur"",""140"",""605630""
""focus"",""143"",""611576""
","""event"",""trial"",""time""
""blur"",""140"",""605630""
","""event"",""trial"",""time""
""focus"",""0"",""0""
""focus"",""143"",""611576""
","""event"",""trial"",""time""
""fullscreenenter"",""1"",""5762""
","
",,null,run_exp/static/images/task_images/aliens/old_aliens/planet/alien_planet-55.jpg,null,,,,,,,,,,,,,55,"2,43,53,25,19,62,22,55,11,40,44,75,74,21,34,17,38,8,35,41,28,36,71,5,58,3,39,51",,,,,,,,,,
land,184,704186,0.0-60.0-2.0,"""event"",""trial"",""time""
""focus"",""0"",""0""
""fullscreenenter"",""1"",""5762""
""blur"",""140"",""605630""
""focus"",""143"",""611576""
","""event"",""trial"",""time""
""blur"",""140"",""605630""
","""event"",""trial"",""time""
""focus"",""0"",""0""
""focus"",""143"",""611576""
","""event"",""trial"",""time""
""fullscreenenter"",""1"",""5762""
","
",,null,run_exp/static/images/task_images/land.jpg,null,,,,,,,105,,,8,,,,,,,,,,,,,,
dig,185,706296,0.0-60.0-3.0,"""event"",""trial"",""time""
""focus"",""0"",""0""
""fullscreenenter"",""1"",""5762""
""blur"",""140"",""605630""
""focus"",""143"",""611576""
","""event"",""trial"",""time""
""blur"",""140"",""605630""
","""event"",""trial"",""time""
""focus"",""0"",""0""
""focus"",""143"",""611576""
","""event"",""trial"",""time""
""fullscreenenter"",""1"",""5762""
","
",,,,,,,,,,,,"[{""stimulus"":""run_exp/static/images/task_images/dig.jpg"",""time"":1},{""stimulus"":""run_exp/static/images/task_images/land.jpg"",""time"":676},{""stimulus"":""run_exp/static/images/task_images/dig.jpg"",""time"":1348}]",[],8,,,,,,,,,,,,,,
harvest,186,707333,0.0-60.0-4.0,"""event"",""trial"",""time""
""focus"",""0"",""0""
""fullscreenenter"",""1"",""5762""
""blur"",""140"",""605630""
""focus"",""143"",""611576""
","""event"",""trial"",""time""
""blur"",""140"",""605630""
","""event"",""trial"",""time""
""focus"",""0"",""0""
""focus"",""143"",""611576""
","""event"",""trial"",""time""
""fullscreenenter"",""1"",""5762""
","
",,null,run_exp/static/images/task_images/gems/105.jpg,null,,,,,,,84,,,8,,,,,105,0.80391005,0.8,,,,,,,
decision,187,707920,0.0-60.0-5.0,"""event"",""trial"",""time""
""focus"",""0"",""0""
""fullscreenenter"",""1"",""5762""
""blur"",""140"",""605630""
""focus"",""143"",""611576""
","""event"",""trial"",""time""
""blur"",""140"",""605630""
","""event"",""trial"",""time""
""focus"",""0"",""0""
""focus"",""143"",""611576""
","""event"",""trial"",""time""
""fullscreenenter"",""1"",""5762""
","
",,585,run_exp/static/images/task_images/land.jpg,65,,,,,,,84,,,8,,,,,,,,236695,1,0,FALSE,,,
dig,188,710385,0.0-61.0-0.0,"""event"",""trial"",""time""
""focus"",""0"",""0""
""fullscreenenter"",""1"",""5762""
""blur"",""140"",""605630""
""focus"",""143"",""611576""
","""event"",""trial"",""time""
""blur"",""140"",""605630""
","""event"",""trial"",""time""
""focus"",""0"",""0""
""focus"",""143"",""611576""
","""event"",""trial"",""time""
""fullscreenenter"",""1"",""5762""
","
",,,,,,,,,,,,"[{""stimulus"":""run_exp/static/images/task_images/dig.jpg"",""time"":1},{""stimulus"":""run_exp/static/images/task_images/land.jpg"",""time"":821},{""stimulus"":""run_exp/static/images/task_images/dig.jpg"",""time"":1637}]",[],8,,,,,,,,,,,,,,
harvest,189,711393,0.0-61.0-1.0,"""event"",""trial"",""time""
""focus"",""0"",""0""
""fullscreenenter"",""1"",""5762""
""blur"",""140"",""605630""
""focus"",""143"",""611576""
","""event"",""trial"",""time""
""blur"",""140"",""605630""
","""event"",""trial"",""time""
""focus"",""0"",""0""
""focus"",""143"",""611576""
","""event"",""trial"",""time""
""fullscreenenter"",""1"",""5762""
","
",,null,run_exp/static/images/task_images/gems/84.jpg,null,,,,,,,74,,,8,,,,,84,0.885579158,0.880952381,,,,,,,
decision,190,714400,0.0-61.0-2.0,"""event"",""trial"",""time""
""focus"",""0"",""0""
""fullscreenenter"",""1"",""5762""
""blur"",""140"",""605630""
""focus"",""143"",""611576""
","""event"",""trial"",""time""
""blur"",""140"",""605630""
","""event"",""trial"",""time""
""focus"",""0"",""0""
""focus"",""143"",""611576""
","""event"",""trial"",""time""
""fullscreenenter"",""1"",""5762""
","
",,null,run_exp/static/images/task_images/land.jpg,null,,,,,,,74,,,8,,,,,,,,243174,1,1,FALSE,,,
time_out,191,716410,0.0-62.0-0.0,"""event"",""trial"",""time""
""focus"",""0"",""0""
""fullscreenenter"",""1"",""5762""
""blur"",""140"",""605630""
""focus"",""143"",""611576""
","""event"",""trial"",""time""
""blur"",""140"",""605630""
","""event"",""trial"",""time""
""focus"",""0"",""0""
""focus"",""143"",""611576""
","""event"",""trial"",""time""
""fullscreenenter"",""1"",""5762""
","
",,null,run_exp/static/images/task_images/time_out.jpg,null,,,,,,,74,,,,,,,,,,,,,,,,,
decision,192,718256,0.0-62.0-1.0,"""event"",""trial"",""time""
""focus"",""0"",""0""
""fullscreenenter"",""1"",""5762""
""blur"",""140"",""605630""
""focus"",""143"",""611576""
","""event"",""trial"",""time""
""blur"",""140"",""605630""
","""event"",""trial"",""time""
""focus"",""0"",""0""
""focus"",""143"",""611576""
","""event"",""trial"",""time""
""fullscreenenter"",""1"",""5762""
","
",,1844,run_exp/static/images/task_images/land.jpg,65,,,,,,,74,,,8,,,,,,,,247030,1,1,FALSE,,,
dig,193,719467,0.0-63.0-0.0,"""event"",""trial"",""time""
""focus"",""0"",""0""
""fullscreenenter"",""1"",""5762""
""blur"",""140"",""605630""
""focus"",""143"",""611576""
","""event"",""trial"",""time""
""blur"",""140"",""605630""
","""event"",""trial"",""time""
""focus"",""0"",""0""
""focus"",""143"",""611576""
","""event"",""trial"",""time""
""fullscreenenter"",""1"",""5762""
","
",,,,,,,,,,,,"[{""stimulus"":""run_exp/static/images/task_images/dig.jpg"",""time"":0},{""stimulus"":""run_exp/static/images/task_images/land.jpg"",""time"":398},{""stimulus"":""run_exp/static/images/task_images/dig.jpg"",""time"":797}]",[],8,,,,,,,,,,,,,,
harvest,194,720483,0.0-63.0-1.0,"""event"",""trial"",""time""
""focus"",""0"",""0""
""fullscreenenter"",""1"",""5762""
""blur"",""140"",""605630""
""focus"",""143"",""611576""
","""event"",""trial"",""time""
""blur"",""140"",""605630""
","""event"",""trial"",""time""
""focus"",""0"",""0""
""focus"",""143"",""611576""
","""event"",""trial"",""time""
""fullscreenenter"",""1"",""5762""
","
",,null,run_exp/static/images/task_images/gems/74.jpg,null,,,,,,,59,,,8,,,,,74,0.804013383,0.797297297,,,,,,,
decision,195,720704,0.0-63.0-2.0,"""event"",""trial"",""time""
""focus"",""0"",""0""
""fullscreenenter"",""1"",""5762""
""blur"",""140"",""605630""
""focus"",""143"",""611576""
","""event"",""trial"",""time""
""blur"",""140"",""605630""
","""event"",""trial"",""time""
""focus"",""0"",""0""
""focus"",""143"",""611576""
","""event"",""trial"",""time""
""fullscreenenter"",""1"",""5762""
","
",,219,run_exp/static/images/task_images/land.jpg,65,,,,,,,59,,,8,,,,,,,,249478,1,2,FALSE,,,
dig,196,723519,0.0-64.0-0.0,"""event"",""trial"",""time""
""focus"",""0"",""0""
""fullscreenenter"",""1"",""5762""
""blur"",""140"",""605630""
""focus"",""143"",""611576""
","""event"",""trial"",""time""
""blur"",""140"",""605630""
","""event"",""trial"",""time""
""focus"",""0"",""0""
""focus"",""143"",""611576""
","""event"",""trial"",""time""
""fullscreenenter"",""1"",""5762""
","
",,,,,,,,,,,,"[{""stimulus"":""run_exp/static/images/task_images/dig.jpg"",""time"":0},{""stimulus"":""run_exp/static/images/task_images/land.jpg"",""time"":938},{""stimulus"":""run_exp/static/images/task_images/dig.jpg"",""time"":1867}]",[],8,,,,,,,,,,,,,,
