trial_type,trial_index,time_elapsed,internal_node_id,interactions,blur_events,focus_events,fullscreenenter_events,fullscreenexit_events,success,rt,stimulus,key_press,prompt,subject_id,participant_id,age,gender,button_pressed,next_reward,animation_sequence,responses,planet,curr_prac_trial,n_prac_rounds,alien,aliens,reward_received,decay_rate_actual,decay_rate_exp,time_in_block,block_num,prt,last_trial_on_planet,button_html,bonus,num_failures
pavlovia,0,5,0.0-0.0,"""event"",""trial"",""time""
""fullscreenenter"",""1"",""4467""
","
","
","""event"",""trial"",""time""
""fullscreenenter"",""1"",""4467""
","
",,,,,,,,,,,,,,,,,,,,,,,,,,,,
fullscreen,1,5441,0.0-1.0,"""event"",""trial"",""time""
""fullscreenenter"",""1"",""4467""
","
","
","""event"",""trial"",""time""
""fullscreenenter"",""1"",""4467""
","
",TRUE,,,,,,,,,,,,,,,,,,,,,,,,,,,
instruc_welcome,2,15325,0.0-2.0,"""event"",""trial"",""time""
""fullscreenenter"",""1"",""4467""
""blur"",""3"",""27215""
","""event"",""trial"",""time""
""blur"",""3"",""27215""
","
","""event"",""trial"",""time""
""fullscreenenter"",""1"",""4467""
","
",,null,run_exp/static/audio/clip_1_welcome.m4a,null,"<p>Howdy! In this experiment, you’ll be an explorer traveling through space to collect space treasure.</p><p>Your mission is to collect as much treasure as possible.</p><br><br><p><img src='run_exp/static/images/task_images/opening_img-01.jpg' height='300' width='auto'></p>",9523,606,12.81,Female,,,,,,,,,,,,,,,,,,,
audio-keyboard-response,3,32093,0.0-3.0,"""event"",""trial"",""time""
""fullscreenenter"",""1"",""4467""
""blur"",""3"",""27215""
""focus"",""4"",""33633""
","""event"",""trial"",""time""
""blur"",""3"",""27215""
","""event"",""trial"",""time""
""focus"",""4"",""33633""
","""event"",""trial"",""time""
""fullscreenenter"",""1"",""4467""
","
",,null,run_exp/static/audio/clip_2_move.m4a,null,,,,,,,,,,,,,,,,,,,,,,,,
welcome_dec,4,46153,0.0-4.0,"""event"",""trial"",""time""
""fullscreenenter"",""1"",""4467""
""blur"",""3"",""27215""
""focus"",""4"",""33633""
","""event"",""trial"",""time""
""blur"",""3"",""27215""
","""event"",""trial"",""time""
""focus"",""4"",""33633""
","""event"",""trial"",""time""
""fullscreenenter"",""1"",""4467""
","
",,14057.6,"<p>Howdy! In this experiment, you’ll be an explorer traveling through space to collect space treasure.</p><p>Your mission is to collect as much treasure as possible.</p><br><br><p><img src='run_exp/static/images/task_images/opening_img-01.jpg' height='300' width='auto'></p>",,,,,,,1,,,,,,,,,,,,,,,,,,
html-keyboard-response,5,50479,0.0-5.0,"""event"",""trial"",""time""
""fullscreenenter"",""1"",""4467""
""blur"",""3"",""27215""
""focus"",""4"",""33633""
","""event"",""trial"",""time""
""blur"",""3"",""27215""
","""event"",""trial"",""time""
""focus"",""4"",""33633""
","""event"",""trial"",""time""
""fullscreenenter"",""1"",""4467""
","
",,4324.1,"<p>Howdy! In this experiment, you’ll be an explorer traveling through space to collect space treasure.</p><p>Your mission is to collect as much treasure as possible.</p><br><br><p><img src='run_exp/static/images/task_images/opening_img-01.jpg' height='300' width='auto'></p><button class=""jspsych-html-btn-unchosen""><img src=""run_exp/static/images/task_images/planet-01.jpg"" height=""50""></button><button class=""jspsych-html-btn-chosen""><img src=""run_exp/static/images/task_images/planet-02.jpg"" height=""50""></button><p><b>[press the space bar to lock in your answer]<b><br></p>",32,,,,,,,,,,,,,,,,,,,,,,,,
instruc_goal,6,60734,0.0-6.0-0.0,"""event"",""trial"",""time""
""fullscreenenter"",""1"",""4467""
""blur"",""3"",""27215""
""focus"",""4"",""33633""
","""event"",""trial"",""time""
""blur"",""3"",""27215""
","""event"",""trial"",""time""
""focus"",""4"",""33633""
","""event"",""trial"",""time""
""fullscreenenter"",""1"",""4467""
","
",,null,run_exp/static/audio/clip_3_goal.m4a,null,"<p> As a space explorer, you’ll visit different planets to dig for space treasure, these pink gems.</p> <p> The more treasure you dig up, the more bonus money you’ll win! </p><br><br><p><img src='run_exp/static/images/task_images/pink_gem.jpg' height='300' width='auto'></p>",,,,,,,,,,,,,,,,,,,,,,,
instruc_goal,7,62390,0.0-6.0-1.0,"""event"",""trial"",""time""
""fullscreenenter"",""1"",""4467""
""blur"",""3"",""27215""
""focus"",""4"",""33633""
","""event"",""trial"",""time""
""blur"",""3"",""27215""
","""event"",""trial"",""time""
""focus"",""4"",""33633""
","""event"",""trial"",""time""
""fullscreenenter"",""1"",""4467""
","
",,1654.2,"<p> As a space explorer, you’ll visit different planets to dig for space treasure, these pink gems.</p> <p> The more treasure you dig up, the more bonus money you’ll win! </p><br><br><p><img src='run_exp/static/images/task_images/pink_gem.jpg' height='300' width='auto'></p>",,,,,,,1,,,,,,,,,,,,,,,,,,
html-keyboard-response,8,63308,0.0-6.0-2.0,"""event"",""trial"",""time""
""fullscreenenter"",""1"",""4467""
""blur"",""3"",""27215""
""focus"",""4"",""33633""
","""event"",""trial"",""time""
""blur"",""3"",""27215""
","""event"",""trial"",""time""
""focus"",""4"",""33633""
","""event"",""trial"",""time""
""fullscreenenter"",""1"",""4467""
","
",,916.8,"<p> As a space explorer, you’ll visit different planets to dig for space treasure, these pink gems.</p> <p> The more treasure you dig up, the more bonus money you’ll win! </p><br><br><p><img src='run_exp/static/images/task_images/pink_gem.jpg' height='300' width='auto'></p><button class=""jspsych-html-btn-unchosen""><img src=""run_exp/static/images/task_images/planet-01.jpg"" height=""50""></button><button class=""jspsych-html-btn-chosen""><img src=""run_exp/static/images/task_images/planet-02.jpg"" height=""50""></button><p><b>[press the space bar to lock in your answer]<b><br></p>",32,,,,,,,,,,,,,,,,,,,,,,,,
instruc_dig,9,79514,0.0-7.0-0.0,"""event"",""trial"",""time""
""fullscreenenter"",""1"",""4467""
""blur"",""3"",""27215""
""focus"",""4"",""33633""
","""event"",""trial"",""time""
""blur"",""3"",""27215""
","""event"",""trial"",""time""
""focus"",""4"",""33633""
","""event"",""trial"",""time""
""fullscreenenter"",""1"",""4467""
","
",,null,run_exp/static/audio/clip_4_dig.m4a,null,,,,,,,100,,,,,,,,,,,,,,,,,
instruc_dig_try,10,79568,0.0-7.0-1.0,"""event"",""trial"",""time""
""fullscreenenter"",""1"",""4467""
""blur"",""3"",""27215""
""focus"",""4"",""33633""
","""event"",""trial"",""time""
""blur"",""3"",""27215""
","""event"",""trial"",""time""
""focus"",""4"",""33633""
","""event"",""trial"",""time""
""fullscreenenter"",""1"",""4467""
","
",,49.59999999,"<p> When you’ve arrived at a new planet, you will dig once. </p> <p>Then, you get to decide if you want to stay on the planet and dig again or travel to a new planet and dig there.</p> <p> To stay and dig, press the letter <strong>‘A’</strong> on your keyboard. Try pressing it now! </p><p><img src='run_exp/static/images/task_images/land.jpg'  height='700' width='auto'></p>",65,"<p> When you’ve arrived at a new planet, you will dig once. </p> <p>Then, you get to decide if you want to stay on the planet and dig again or travel to a new planet and dig there.</p> <p> To stay and dig, press the letter <strong>‘A’</strong> on your keyboard. Try pressing it now! </p><p><img src='run_exp/static/images/task_images/land.jpg'  height='700' width='auto'></p>",,,,,,100,,,,,,,,,,,,,,,,,
dig_prac,11,81579,0.0-7.0-2.0,"""event"",""trial"",""time""
""fullscreenenter"",""1"",""4467""
""blur"",""3"",""27215""
""focus"",""4"",""33633""
","""event"",""trial"",""time""
""blur"",""3"",""27215""
","""event"",""trial"",""time""
""focus"",""4"",""33633""
","""event"",""trial"",""time""
""fullscreenenter"",""1"",""4467""
","
",,,,,,,,,,,,"[{""stimulus"":""run_exp/static/images/task_images/dig.jpg"",""time"":0.19999999552965164},{""stimulus"":""run_exp/static/images/task_images/land.jpg"",""time"":678.0999999940395},{""stimulus"":""run_exp/static/images/task_images/dig.jpg"",""time"":1339.5}]",[],,,,,,,,,,,,,,,
instruc_travel,12,118016,0.0-7.0-3.0,"""event"",""trial"",""time""
""fullscreenenter"",""1"",""4467""
""blur"",""3"",""27215""
""focus"",""4"",""33633""
","""event"",""trial"",""time""
""blur"",""3"",""27215""
","""event"",""trial"",""time""
""focus"",""4"",""33633""
","""event"",""trial"",""time""
""fullscreenenter"",""1"",""4467""
","
",,null,run_exp/static/audio/clip_5_travel.m4a,null,"<p>Every time you dig up gems, there are less gems on the planet, so the more you dig on a planet the fewer gems you’ll get with each dig.</p><p>When gems are running low, you may want to travel to a new planet. </p> <p>  Planets are very far apart in this galaxy, so it will take some time to travel between them. </p> <br><p>There are lots and lots of planets for you to visit, so you won’t be able to return to any planets you’ve seen before. </p><br><p>To leave this planet and travel to a new one, press the letter <strong>‘L’</strong> on your keyboard. Try pressing it now! </p><p><img src='run_exp/static/images/task_images/rocket-01.jpg'  height='600' width='auto'></p>",,,,,,,,,,,,,,,,,,,,,,,
instruc_travel_try,13,120572,0.0-7.0-4.0,"""event"",""trial"",""time""
""fullscreenenter"",""1"",""4467""
""blur"",""3"",""27215""
""focus"",""4"",""33633""
","""event"",""trial"",""time""
""blur"",""3"",""27215""
","""event"",""trial"",""time""
""focus"",""4"",""33633""
","""event"",""trial"",""time""
""fullscreenenter"",""1"",""4467""
","
",,2555.2,"<p>Every time you dig up gems, there are less gems on the planet, so the more you dig on a planet the fewer gems you’ll get with each dig.</p><p>When gems are running low, you may want to travel to a new planet. </p> <p>  Planets are very far apart in this galaxy, so it will take some time to travel between them. </p> <br><p>There are lots and lots of planets for you to visit, so you won’t be able to return to any planets you’ve seen before. </p><br><p>To leave this planet and travel to a new one, press the letter <strong>‘L’</strong> on your keyboard. Try pressing it now! </p><p><img src='run_exp/static/images/task_images/rocket-01.jpg'  height='600' width='auto'></p>",76,"<p>Every time you dig up gems, there are less gems on the planet, so the more you dig on a planet the fewer gems you’ll get with each dig.</p><p>When gems are running low, you may want to travel to a new planet. </p> <p>  Planets are very far apart in this galaxy, so it will take some time to travel between them. </p> <br><p>There are lots and lots of planets for you to visit, so you won’t be able to return to any planets you’ve seen before. </p><br><p>To leave this planet and travel to a new one, press the letter <strong>‘L’</strong> on your keyboard. Try pressing it now! </p><p><img src='run_exp/static/images/task_images/rocket-01.jpg'  height='600' width='auto'></p>",,,,,,,,,,,,,,,,,,,,,,,
travel_prac,14,130580,0.0-7.0-5.0,"""event"",""trial"",""time""
""fullscreenenter"",""1"",""4467""
""blur"",""3"",""27215""
""focus"",""4"",""33633""
","""event"",""trial"",""time""
""blur"",""3"",""27215""
","""event"",""trial"",""time""
""focus"",""4"",""33633""
","""event"",""trial"",""time""
""fullscreenenter"",""1"",""4467""
","
",,,,,,,,,,,,"[{""stimulus"":""run_exp/static/images/task_images/rocket-01.jpg"",""time"":0.10000000149011612},{""stimulus"":""run_exp/static/images/task_images/rocket-02.jpg"",""time"":1119.3000000044703},{""stimulus"":""run_exp/static/images/task_images/rocket-03.jpg"",""time"":2231},{""stimulus"":""run_exp/static/images/task_images/rocket-04.jpg"",""time"":3342.5},{""stimulus"":""run_exp/static/images/task_images/rocket-05.jpg"",""time"":4452.20000000298},{""stimulus"":""run_exp/static/images/task_images/rocket-06.jpg"",""time"":5567.10000000149},{""stimulus"":""run_exp/static/images/task_images/rocket-07.jpg"",""time"":6670.9000000059605},{""stimulus"":""run_exp/static/images/task_images/rocket-08.jpg"",""time"":7781.80000000447},{""stimulus"":""run_exp/static/images/task_images/rocket-09.jpg"",""time"":8894.20000000298}]",[],0,,,,,,,,,,,,,,
instruc_alien_greet,15,157937,0.0-7.0-6.0,"""event"",""trial"",""time""
""fullscreenenter"",""1"",""4467""
""blur"",""3"",""27215""
""focus"",""4"",""33633""
","""event"",""trial"",""time""
""blur"",""3"",""27215""
","""event"",""trial"",""time""
""focus"",""4"",""33633""
","""event"",""trial"",""time""
""fullscreenenter"",""1"",""4467""
","
",,null,run_exp/static/audio/clip_6_alien.m4a,null,"<p>When you arrive at a new planet, the alien who owns the treasure mine on that planet will greet you!</p><p>The better an alien takes care of their mine the easier it is to dig for gems. Some aliens take better care of their mine than others. So, you won’t get exactly the same amount of gems on each planet.</p><p>What the alien looks like does not tell you anything about how many gems there are on the planet.</p><br><p><img src=""run_exp/static/images/task_images/aliens/instructions_aliens/planet/alien_planet-1.jpg""  height=""600"" width=""auto""></p>",,,,,,,,,,,,,,,,,,,,,,,
instruc_alien_greet,16,160335,0.0-7.0-7.0,"""event"",""trial"",""time""
""fullscreenenter"",""1"",""4467""
""blur"",""3"",""27215""
""focus"",""4"",""33633""
","""event"",""trial"",""time""
""blur"",""3"",""27215""
","""event"",""trial"",""time""
""focus"",""4"",""33633""
","""event"",""trial"",""time""
""fullscreenenter"",""1"",""4467""
","
",,2396.7,"<p>When you arrive at a new planet, the alien who owns the treasure mine on that planet will greet you!</p><p>The better an alien takes care of their mine the easier it is to dig for gems. Some aliens take better care of their mine than others. So, you won’t get exactly the same amount of gems on each planet.</p><p>What the alien looks like does not tell you anything about how many gems there are on the planet.</p><br><p><img src=""run_exp/static/images/task_images/aliens/instructions_aliens/planet/alien_planet-1.jpg""  height=""600"" width=""auto""></p>",,,,,,,1,,,,,,,,,,,,,,,,,,
html-keyboard-response,17,161052,0.0-7.0-8.0,"""event"",""trial"",""time""
""fullscreenenter"",""1"",""4467""
""blur"",""3"",""27215""
""focus"",""4"",""33633""
","""event"",""trial"",""time""
""blur"",""3"",""27215""
","""event"",""trial"",""time""
""focus"",""4"",""33633""
","""event"",""trial"",""time""
""fullscreenenter"",""1"",""4467""
","
",,715.5,"<p>When you arrive at a new planet, the alien who owns the treasure mine on that planet will greet you!</p><p>The better an alien takes care of their mine the easier it is to dig for gems. Some aliens take better care of their mine than others. So, you won’t get exactly the same amount of gems on each planet.</p><p>What the alien looks like does not tell you anything about how many gems there are on the planet.</p><br><p><img src=""run_exp/static/images/task_images/aliens/instructions_aliens/planet/alien_planet-1.jpg""  height=""600"" width=""auto""></p><button class=""jspsych-html-btn-unchosen""><img src=""run_exp/static/images/task_images/planet-01.jpg"" height=""50""></button><button class=""jspsych-html-btn-chosen""><img src=""run_exp/static/images/task_images/planet-02.jpg"" height=""50""></button><p><b>[press the space bar to lock in your answer]<b><br></p>",32,,,,,,,,,,,,,,,,,,,,,,,,
time_out,18,172337,0.0-8.0-0.0,"""event"",""trial"",""time""
""fullscreenenter"",""1"",""4467""
""blur"",""3"",""27215""
""focus"",""4"",""33633""
","""event"",""trial"",""time""
""blur"",""3"",""27215""
","""event"",""trial"",""time""
""focus"",""4"",""33633""
","""event"",""trial"",""time""
""fullscreenenter"",""1"",""4467""
","
",,null,run_exp/static/audio/clip_7_timeout.m4a,null,"<p>If you don't make your choice fast enough, you’ll have to wait a few seconds before you can make another one.</p><p>You can’t dig for more gems or travel to new planets. You just have to sit and wait.</p><br><p><img src='run_exp/static/images/task_images/time_out.jpg'  height='600' width='auto'></p>",,,,,,,,,,,,,,,,,,,,,,,
time_out,19,173971,0.0-8.0-1.0,"""event"",""trial"",""time""
""fullscreenenter"",""1"",""4467""
""blur"",""3"",""27215""
""focus"",""4"",""33633""
","""event"",""trial"",""time""
""blur"",""3"",""27215""
","""event"",""trial"",""time""
""focus"",""4"",""33633""
","""event"",""trial"",""time""
""fullscreenenter"",""1"",""4467""
","
",,1631.9,"<p>If you don't make your choice fast enough, you’ll have to wait a few seconds before you can make another one.</p><p>You can’t dig for more gems or travel to new planets. You just have to sit and wait.</p><br><p><img src='run_exp/static/images/task_images/time_out.jpg'  height='600' width='auto'></p>",,,,,,,1,,,,,,,,,,,,,,,,,,
html-keyboard-response,20,176689,0.0-8.0-2.0,"""event"",""trial"",""time""
""fullscreenenter"",""1"",""4467""
""blur"",""3"",""27215""
""focus"",""4"",""33633""
","""event"",""trial"",""time""
""blur"",""3"",""27215""
","""event"",""trial"",""time""
""focus"",""4"",""33633""
","""event"",""trial"",""time""
""fullscreenenter"",""1"",""4467""
","
",,2717.2,"<p>If you don't make your choice fast enough, you’ll have to wait a few seconds before you can make another one.</p><p>You can’t dig for more gems or travel to new planets. You just have to sit and wait.</p><br><p><img src='run_exp/static/images/task_images/time_out.jpg'  height='600' width='auto'></p><button class=""jspsych-html-btn-unchosen""><img src=""run_exp/static/images/task_images/planet-01.jpg"" height=""50""></button><button class=""jspsych-html-btn-chosen""><img src=""run_exp/static/images/task_images/planet-02.jpg"" height=""50""></button><p><b>[press the space bar to lock in your answer]<b><br></p>",32,,,,,,,,,,,,,,,,,,,,,,,,
instruc_break,21,192568,0.0-9.0-0.0,"""event"",""trial"",""time""
""fullscreenenter"",""1"",""4467""
""blur"",""3"",""27215""
""focus"",""4"",""33633""
","""event"",""trial"",""time""
""blur"",""3"",""27215""
","""event"",""trial"",""time""
""focus"",""4"",""33633""
","""event"",""trial"",""time""
""fullscreenenter"",""1"",""4467""
","
",,null,run_exp/static/audio/clip_8_break.m4a,null,"<p> After digging and traveling for a while, you’ll be able to take a break at home base. </p><p>The game will last 20 minutes no matter what.</p><p>You will visit home base every 5 minutes, so, you will visit home base three times during the game.</p><br><p><img src='run_exp/static/images/task_images/home_base.jpg' height='600' width='auto'></p>",,,,,,,,,,,,,,,,,,,,,,,
instruc_break,22,194397,0.0-9.0-1.0,"""event"",""trial"",""time""
""fullscreenenter"",""1"",""4467""
""blur"",""3"",""27215""
""focus"",""4"",""33633""
","""event"",""trial"",""time""
""blur"",""3"",""27215""
","""event"",""trial"",""time""
""focus"",""4"",""33633""
","""event"",""trial"",""time""
""fullscreenenter"",""1"",""4467""
","
",,1826.2,"<p> After digging and traveling for a while, you’ll be able to take a break at home base. </p><p>The game will last 20 minutes no matter what.</p><p>You will visit home base every 5 minutes, so, you will visit home base three times during the game.</p><br><p><img src='run_exp/static/images/task_images/home_base.jpg' height='600' width='auto'></p>",,,,,,,1,,,,,,,,,,,,,,,,,,
html-keyboard-response,23,194986,0.0-9.0-2.0,"""event"",""trial"",""time""
""fullscreenenter"",""1"",""4467""
""blur"",""3"",""27215""
""focus"",""4"",""33633""
","""event"",""trial"",""time""
""blur"",""3"",""27215""
","""event"",""trial"",""time""
""focus"",""4"",""33633""
","""event"",""trial"",""time""
""fullscreenenter"",""1"",""4467""
","
",,588,"<p> After digging and traveling for a while, you’ll be able to take a break at home base. </p><p>The game will last 20 minutes no matter what.</p><p>You will visit home base every 5 minutes, so, you will visit home base three times during the game.</p><br><p><img src='run_exp/static/images/task_images/home_base.jpg' height='600' width='auto'></p><button class=""jspsych-html-btn-unchosen""><img src=""run_exp/static/images/task_images/planet-01.jpg"" height=""50""></button><button class=""jspsych-html-btn-chosen""><img src=""run_exp/static/images/task_images/planet-02.jpg"" height=""50""></button><p><b>[press the space bar to lock in your answer]<b><br></p>",32,,,,,,,,,,,,,,,,,,,,,,,,
instruc_prac_game,24,205298,0.0-10.0-0.0,"""event"",""trial"",""time""
""fullscreenenter"",""1"",""4467""
""blur"",""3"",""27215""
""focus"",""4"",""33633""
","""event"",""trial"",""time""
""blur"",""3"",""27215""
","""event"",""trial"",""time""
""focus"",""4"",""33633""
","""event"",""trial"",""time""
""fullscreenenter"",""1"",""4467""
","
",,null,run_exp/static/audio/clip_9_practice.m4a,null,"<p> Are you ready to play a practice game? </p> <p>In this practice game, you'll be digging up barrels of gems. But, in the real game, you'll be digging up the gems themselves. </p>",,,,,,,,,,,,,,,,,,,,,,,
html-button-response,25,207635,0.0-10.0-1.0,"""event"",""trial"",""time""
""fullscreenenter"",""1"",""4467""
""blur"",""3"",""27215""
""focus"",""4"",""33633""
","""event"",""trial"",""time""
""blur"",""3"",""27215""
","""event"",""trial"",""time""
""focus"",""4"",""33633""
","""event"",""trial"",""time""
""fullscreenenter"",""1"",""4467""
","
",,2335.4,"<p> Are you ready to play a practice game? </p> <p>In this practice game, you'll be digging up barrels of gems. But, in the real game, you'll be digging up the gems themselves. </p>",,,,,,,0,,,,,,,,,,,,,,,,,,
alien_welcome_prac,26,212648,0.0-11.0-0.0,"""event"",""trial"",""time""
""fullscreenenter"",""1"",""4467""
""blur"",""3"",""27215""
""focus"",""4"",""33633""
","""event"",""trial"",""time""
""blur"",""3"",""27215""
","""event"",""trial"",""time""
""focus"",""4"",""33633""
","""event"",""trial"",""time""
""fullscreenenter"",""1"",""4467""
","
",,null,run_exp/static/images/task_images/aliens/practice_aliens/planet/alien_planet-5.jpg,null,,,,,,,,,,,,,,,,,,,,,,,,
land_prac,27,213156,0.0-11.0-1.0,"""event"",""trial"",""time""
""fullscreenenter"",""1"",""4467""
""blur"",""3"",""27215""
""focus"",""4"",""33633""
","""event"",""trial"",""time""
""blur"",""3"",""27215""
","""event"",""trial"",""time""
""focus"",""4"",""33633""
","""event"",""trial"",""time""
""fullscreenenter"",""1"",""4467""
","
",,null,run_exp/static/images/task_images/land.jpg,null,,,,,,,100,,,0,,,,,,,,,,,,,,
dig_prac,28,215167,0.0-11.0-2.0,"""event"",""trial"",""time""
""fullscreenenter"",""1"",""4467""
""blur"",""3"",""27215""
""focus"",""4"",""33633""
","""event"",""trial"",""time""
""blur"",""3"",""27215""
","""event"",""trial"",""time""
""focus"",""4"",""33633""
","""event"",""trial"",""time""
""fullscreenenter"",""1"",""4467""
","
",,,,,,,,,,,,"[{""stimulus"":""run_exp/static/images/task_images/dig.jpg"",""time"":0.20000000298023224},{""stimulus"":""run_exp/static/images/task_images/land.jpg"",""time"":670.4000000059605},{""stimulus"":""run_exp/static/images/task_images/dig.jpg"",""time"":1342.5}]",[],,,,,,,,,,,,,,,
harvest_prac,29,216175,0.0-11.0-3.0,"""event"",""trial"",""time""
""fullscreenenter"",""1"",""4467""
""blur"",""3"",""27215""
""focus"",""4"",""33633""
","""event"",""trial"",""time""
""blur"",""3"",""27215""
","""event"",""trial"",""time""
""focus"",""4"",""33633""
","""event"",""trial"",""time""
""fullscreenenter"",""1"",""4467""
","
",,null,run_exp/static/images/task_images/barrel_text.jpg,null,,,,,,,,,,,,,,,,,,,,,,,,
decision_prac,30,217656,0.0-11.0-4.0,"""event"",""trial"",""time""
""fullscreenenter"",""1"",""4467""
""blur"",""3"",""27215""
""focus"",""4"",""33633""
","""event"",""trial"",""time""
""blur"",""3"",""27215""
","""event"",""trial"",""time""
""focus"",""4"",""33633""
","""event"",""trial"",""time""
""fullscreenenter"",""1"",""4467""
","
",,1480.3,run_exp/static/images/task_images/land.jpg,65,,,,,,,,,,,1,,,,,,,,,,,,,
dig_prac,31,219662,0.0-12.0-0.0,"""event"",""trial"",""time""
""fullscreenenter"",""1"",""4467""
""blur"",""3"",""27215""
""focus"",""4"",""33633""
","""event"",""trial"",""time""
""blur"",""3"",""27215""
","""event"",""trial"",""time""
""focus"",""4"",""33633""
","""event"",""trial"",""time""
""fullscreenenter"",""1"",""4467""
","
",,,,,,,,,,,,"[{""stimulus"":""run_exp/static/images/task_images/dig.jpg"",""time"":0.19999999552965164},{""stimulus"":""run_exp/static/images/task_images/land.jpg"",""time"":676.1999999955297},{""stimulus"":""run_exp/static/images/task_images/dig.jpg"",""time"":1339.2999999970198}]",[],,,,,,,,,,,,,,,
harvest_prac,32,220670,0.0-12.0-1.0,"""event"",""trial"",""time""
""fullscreenenter"",""1"",""4467""
""blur"",""3"",""27215""
""focus"",""4"",""33633""
","""event"",""trial"",""time""
""blur"",""3"",""27215""
","""event"",""trial"",""time""
""focus"",""4"",""33633""
","""event"",""trial"",""time""
""fullscreenenter"",""1"",""4467""
","
",,null,run_exp/static/images/task_images/barrel_text.jpg,null,,,,,,,,,,,,,,,,,,,,,,,,
decision_prac,33,221149,0.0-12.0-2.0,"""event"",""trial"",""time""
""fullscreenenter"",""1"",""4467""
""blur"",""3"",""27215""
""focus"",""4"",""33633""
","""event"",""trial"",""time""
""blur"",""3"",""27215""
","""event"",""trial"",""time""
""focus"",""4"",""33633""
","""event"",""trial"",""time""
""fullscreenenter"",""1"",""4467""
","
",,477.7,run_exp/static/images/task_images/land.jpg,65,,,,,,,,,,,2,,,,,,,,,,,,,
dig_prac,34,223156,0.0-13.0-0.0,"""event"",""trial"",""time""
""fullscreenenter"",""1"",""4467""
""blur"",""3"",""27215""
""focus"",""4"",""33633""
","""event"",""trial"",""time""
""blur"",""3"",""27215""
","""event"",""trial"",""time""
""focus"",""4"",""33633""
","""event"",""trial"",""time""
""fullscreenenter"",""1"",""4467""
","
",,,,,,,,,,,,"[{""stimulus"":""run_exp/static/images/task_images/dig.jpg"",""time"":0.20000000298023224},{""stimulus"":""run_exp/static/images/task_images/land.jpg"",""time"":672.1000000014901},{""stimulus"":""run_exp/static/images/task_images/dig.jpg"",""time"":1337.7999999970198}]",[],,,,,,,,,,,,,,,
harvest_prac,35,224165,0.0-13.0-1.0,"""event"",""trial"",""time""
""fullscreenenter"",""1"",""4467""
""blur"",""3"",""27215""
""focus"",""4"",""33633""
","""event"",""trial"",""time""
""blur"",""3"",""27215""
","""event"",""trial"",""time""
""focus"",""4"",""33633""
","""event"",""trial"",""time""
""fullscreenenter"",""1"",""4467""
","
",,null,run_exp/static/images/task_images/barrel_text.jpg,null,,,,,,,,,,,,,,,,,,,,,,,,
decision_prac,36,224727,0.0-13.0-2.0,"""event"",""trial"",""time""
""fullscreenenter"",""1"",""4467""
""blur"",""3"",""27215""
""focus"",""4"",""33633""
","""event"",""trial"",""time""
""blur"",""3"",""27215""
","""event"",""trial"",""time""
""focus"",""4"",""33633""
","""event"",""trial"",""time""
""fullscreenenter"",""1"",""4467""
","
",,560.3,run_exp/static/images/task_images/land.jpg,65,,,,,,,,,,,3,,,,,,,,,,,,,
dig_prac,37,226735,0.0-14.0-0.0,"""event"",""trial"",""time""
""fullscreenenter"",""1"",""4467""
""blur"",""3"",""27215""
""focus"",""4"",""33633""
","""event"",""trial"",""time""
""blur"",""3"",""27215""
","""event"",""trial"",""time""
""focus"",""4"",""33633""
","""event"",""trial"",""time""
""fullscreenenter"",""1"",""4467""
","
",,,,,,,,,,,,"[{""stimulus"":""run_exp/static/images/task_images/dig.jpg"",""time"":0.10000000149011612},{""stimulus"":""run_exp/static/images/task_images/land.jpg"",""time"":677.2000000029802},{""stimulus"":""run_exp/static/images/task_images/dig.jpg"",""time"":1339.1000000014901}]",[],,,,,,,,,,,,,,,
harvest_prac,38,227741,0.0-14.0-1.0,"""event"",""trial"",""time""
""fullscreenenter"",""1"",""4467""
""blur"",""3"",""27215""
""focus"",""4"",""33633""
","""event"",""trial"",""time""
""blur"",""3"",""27215""
","""event"",""trial"",""time""
""focus"",""4"",""33633""
","""event"",""trial"",""time""
""fullscreenenter"",""1"",""4467""
","
",,null,run_exp/static/images/task_images/barrel_text.jpg,null,,,,,,,,,,,,,,,,,,,,,,,,
decision_prac,39,228419,0.0-14.0-2.0,"""event"",""trial"",""time""
""fullscreenenter"",""1"",""4467""
""blur"",""3"",""27215""
""focus"",""4"",""33633""
","""event"",""trial"",""time""
""blur"",""3"",""27215""
","""event"",""trial"",""time""
""focus"",""4"",""33633""
","""event"",""trial"",""time""
""fullscreenenter"",""1"",""4467""
","
",,676.8,run_exp/static/images/task_images/land.jpg,65,,,,,,,,,,,4,,,,,,,,,,,,,
dig_prac,40,230432,0.0-15.0-0.0,"""event"",""trial"",""time""
""fullscreenenter"",""1"",""4467""
""blur"",""3"",""27215""
""focus"",""4"",""33633""
","""event"",""trial"",""time""
""blur"",""3"",""27215""
","""event"",""trial"",""time""
""focus"",""4"",""33633""
","""event"",""trial"",""time""
""fullscreenenter"",""1"",""4467""
","
",,,,,,,,,,,,"[{""stimulus"":""run_exp/static/images/task_images/dig.jpg"",""time"":0.10000000149011612},{""stimulus"":""run_exp/static/images/task_images/land.jpg"",""time"":671.3999999985099},{""stimulus"":""run_exp/static/images/task_images/dig.jpg"",""time"":1342.5}]",[],,,,,,,,,,,,,,,
harvest_prac,41,231439,0.0-15.0-1.0,"""event"",""trial"",""time""
""fullscreenenter"",""1"",""4467""
""blur"",""3"",""27215""
""focus"",""4"",""33633""
","""event"",""trial"",""time""
""blur"",""3"",""27215""
","""event"",""trial"",""time""
""focus"",""4"",""33633""
","""event"",""trial"",""time""
""fullscreenenter"",""1"",""4467""
","
",,null,run_exp/static/images/task_images/barrel_text.jpg,null,,,,,,,,,,,,,,,,,,,,,,,,
decision_prac,42,231930,0.0-15.0-2.0,"""event"",""trial"",""time""
""fullscreenenter"",""1"",""4467""
""blur"",""3"",""27215""
""focus"",""4"",""33633""
""blur"",""43"",""241369""
""focus"",""43"",""247173""
","""event"",""trial"",""time""
""blur"",""3"",""27215""
""blur"",""43"",""241369""
","""event"",""trial"",""time""
""focus"",""4"",""33633""
""focus"",""43"",""247173""
","""event"",""trial"",""time""
""fullscreenenter"",""1"",""4467""
","
",,490.1,run_exp/static/images/task_images/land.jpg,65,,,,,,,,,,,,1,,,,,,,,,,,,
quiz_instruc,43,248664,0.0-16.0-0.0,"""event"",""trial"",""time""
""fullscreenenter"",""1"",""4467""
""blur"",""3"",""27215""
""focus"",""4"",""33633""
""blur"",""43"",""241369""
""focus"",""43"",""247173""
","""event"",""trial"",""time""
""blur"",""3"",""27215""
""blur"",""43"",""241369""
","""event"",""trial"",""time""
""focus"",""4"",""33633""
""focus"",""43"",""247173""
","""event"",""trial"",""time""
""fullscreenenter"",""1"",""4467""
","
",,16729.9,run_exp/static/audio/clip_10_quiz.m4a,,,,,,,0,,,,,,,,,,,,,,,,,,
instruc_repeat,44,291631,0.0-16.0-1.0,"""event"",""trial"",""time""
""fullscreenenter"",""1"",""4467""
""blur"",""3"",""27215""
""focus"",""4"",""33633""
""blur"",""43"",""241369""
""focus"",""43"",""247173""
","""event"",""trial"",""time""
""blur"",""3"",""27215""
""blur"",""43"",""241369""
","""event"",""trial"",""time""
""focus"",""4"",""33633""
""focus"",""43"",""247173""
","""event"",""trial"",""time""
""fullscreenenter"",""1"",""4467""
","
",,null,"<p> Are you ready to play a practice game? </p> <p>In this practice game, you'll be digging up barrels of gems. But, in the real game, you'll be digging up the gems themselves. </p>",null,"<p>In this game, your goal is to collect as many gems as you can. That’s how you will win bonus money. </p> <p>The entire game will last 20 minutes no matter how many gems you collect or how many planets you visit. </p><p>To stay on a planet and dig again, press the letter A on your keyboard. To leave for a new planet, press the letter L.</p><p>The more you dig on a planet, the fewer gems you’ll get with each dig which is why you might consider leaving for a new planet. </p><p>When you arrive at a new planet, you’ll be greeted by an alien. What the alien looks like does not tell you anything about how much treasure is on the planet. </p>",,,,,,,,,,,,,,,,,,,,,,,
instruc_repeat_continue,45,292722,0.0-16.0-2.0,"""event"",""trial"",""time""
""fullscreenenter"",""1"",""4467""
""blur"",""3"",""27215""
""focus"",""4"",""33633""
""blur"",""43"",""241369""
""focus"",""43"",""247173""
","""event"",""trial"",""time""
""blur"",""3"",""27215""
""blur"",""43"",""241369""
","""event"",""trial"",""time""
""focus"",""4"",""33633""
""focus"",""43"",""247173""
","""event"",""trial"",""time""
""fullscreenenter"",""1"",""4467""
","
",,1089.7,"<p> Are you ready to play a practice game? </p> <p>In this practice game, you'll be digging up barrels of gems. But, in the real game, you'll be digging up the gems themselves. </p>",,,,,,,0,,,,,,,,,,,,,,,,,,
quiz_q_1_ask,46,295926,0.0-16.0-3.0,"""event"",""trial"",""time""
""fullscreenenter"",""1"",""4467""
""blur"",""3"",""27215""
""focus"",""4"",""33633""
""blur"",""43"",""241369""
""focus"",""43"",""247173""
","""event"",""trial"",""time""
""blur"",""3"",""27215""
""blur"",""43"",""241369""
","""event"",""trial"",""time""
""focus"",""4"",""33633""
""focus"",""43"",""247173""
","""event"",""trial"",""time""
""fullscreenenter"",""1"",""4467""
","
",,3202,run_exp/static/audio/clip_11_q1_ask.m4a,,,,,,,2,,,,,,,,,,,,,,,,,,
quiz_q_1_fb_correct,47,299950,0.0-17.0-0.0,"""event"",""trial"",""time""
""fullscreenenter"",""1"",""4467""
""blur"",""3"",""27215""
""focus"",""4"",""33633""
""blur"",""43"",""241369""
""focus"",""43"",""247173""
","""event"",""trial"",""time""
""blur"",""3"",""27215""
""blur"",""43"",""241369""
","""event"",""trial"",""time""
""focus"",""4"",""33633""
""focus"",""43"",""247173""
","""event"",""trial"",""time""
""fullscreenenter"",""1"",""4467""
","
",,null,run_exp/static/audio/clip_12_q1_correct.m4a,null,<p>That’s correct. You win extra money by collecting more gems.</p>,,,,,,,,,,,,,,,,,,,,,,,
quiz_q_2_ask,48,304900,0.0-17.0-1.0,"""event"",""trial"",""time""
""fullscreenenter"",""1"",""4467""
""blur"",""3"",""27215""
""focus"",""4"",""33633""
""blur"",""43"",""241369""
""focus"",""43"",""247173""
","""event"",""trial"",""time""
""blur"",""3"",""27215""
""blur"",""43"",""241369""
","""event"",""trial"",""time""
""focus"",""4"",""33633""
""focus"",""43"",""247173""
","""event"",""trial"",""time""
""fullscreenenter"",""1"",""4467""
","
",,4947.4,run_exp/static/audio/clip_14_q2_ask.m4a,,,,,,,1,,,,,,,,,,,,,,,,,,
quiz_q_2_fb_correct,49,309092,0.0-18.0-0.0,"""event"",""trial"",""time""
""fullscreenenter"",""1"",""4467""
""blur"",""3"",""27215""
""focus"",""4"",""33633""
""blur"",""43"",""241369""
""focus"",""43"",""247173""
","""event"",""trial"",""time""
""blur"",""3"",""27215""
""blur"",""43"",""241369""
","""event"",""trial"",""time""
""focus"",""4"",""33633""
""focus"",""43"",""247173""
","""event"",""trial"",""time""
""fullscreenenter"",""1"",""4467""
","
",,null,run_exp/static/audio/clip_15_q2_correct.m4a,null,<p>That’s correct. The experiment is 20 minutes no matter what.</p>,,,,,,,,,,,,,,,,,,,,,,,
quiz_q_3_ask,50,312008,0.0-18.0-1.0,"""event"",""trial"",""time""
""fullscreenenter"",""1"",""4467""
""blur"",""3"",""27215""
""focus"",""4"",""33633""
""blur"",""43"",""241369""
""focus"",""43"",""247173""
","""event"",""trial"",""time""
""blur"",""3"",""27215""
""blur"",""43"",""241369""
","""event"",""trial"",""time""
""focus"",""4"",""33633""
""focus"",""43"",""247173""
","""event"",""trial"",""time""
""fullscreenenter"",""1"",""4467""
","
",,2914.6,run_exp/static/audio/clip_17_q3_ask.m4a,,,,,,,1,,,,,,,,,,,,,,,,,,
quiz_q_3_fb_correct,51,316172,0.0-19.0-0.0,"""event"",""trial"",""time""
""fullscreenenter"",""1"",""4467""
""blur"",""3"",""27215""
""focus"",""4"",""33633""
""blur"",""43"",""241369""
""focus"",""43"",""247173""
","""event"",""trial"",""time""
""blur"",""3"",""27215""
""blur"",""43"",""241369""
","""event"",""trial"",""time""
""focus"",""4"",""33633""
""focus"",""43"",""247173""
","""event"",""trial"",""time""
""fullscreenenter"",""1"",""4467""
","
",,null,run_exp/static/audio/clip_18_q3_correct.m4a,null,<p> That’s correct. You press the letter L to travel to a new planet.</p>,,,,,,,,,,,,,,,,,,,,,,,
quiz_q_4_ask,52,320806,0.0-19.0-1.0,"""event"",""trial"",""time""
""fullscreenenter"",""1"",""4467""
""blur"",""3"",""27215""
""focus"",""4"",""33633""
""blur"",""43"",""241369""
""focus"",""43"",""247173""
","""event"",""trial"",""time""
""blur"",""3"",""27215""
""blur"",""43"",""241369""
","""event"",""trial"",""time""
""focus"",""4"",""33633""
""focus"",""43"",""247173""
","""event"",""trial"",""time""
""fullscreenenter"",""1"",""4467""
","
",,4631.8,run_exp/static/audio/clip_20_q4_ask.m4a,,,,,,,0,,,,,,,,,,,,,,,,,,
quiz_q_4_fb_correct,53,326282,0.0-20.0-0.0,"""event"",""trial"",""time""
""fullscreenenter"",""1"",""4467""
""blur"",""3"",""27215""
""focus"",""4"",""33633""
""blur"",""43"",""241369""
""focus"",""43"",""247173""
","""event"",""trial"",""time""
""blur"",""3"",""27215""
""blur"",""43"",""241369""
","""event"",""trial"",""time""
""focus"",""4"",""33633""
""focus"",""43"",""247173""
","""event"",""trial"",""time""
""fullscreenenter"",""1"",""4467""
","
",,null,run_exp/static/audio/clip_21_q4_correct.m4a,null,<p> That’s correct. The more you dig on a planet the fewer gems you’ll get with each dig. </p>,,,,,,,,,,,,,,,,,,,,,,,
quiz_q_5_ask,54,329492,0.0-20.0-1.0,"""event"",""trial"",""time""
""fullscreenenter"",""1"",""4467""
""blur"",""3"",""27215""
""focus"",""4"",""33633""
""blur"",""43"",""241369""
""focus"",""43"",""247173""
","""event"",""trial"",""time""
""blur"",""3"",""27215""
""blur"",""43"",""241369""
","""event"",""trial"",""time""
""focus"",""4"",""33633""
""focus"",""43"",""247173""
","""event"",""trial"",""time""
""fullscreenenter"",""1"",""4467""
","
",,3207.4,run_exp/static/audio/clip_23_q5_ask.m4a,,,,,,,1,,,,,,,,,,,,,,,,,,
quiz_q_5_fb_correct,55,334663,0.0-21.0-0.0,"""event"",""trial"",""time""
""fullscreenenter"",""1"",""4467""
""blur"",""3"",""27215""
""focus"",""4"",""33633""
""blur"",""43"",""241369""
""focus"",""43"",""247173""
","""event"",""trial"",""time""
""blur"",""3"",""27215""
""blur"",""43"",""241369""
","""event"",""trial"",""time""
""focus"",""4"",""33633""
""focus"",""43"",""247173""
","""event"",""trial"",""time""
""fullscreenenter"",""1"",""4467""
","
",,null,run_exp/static/audio/clip_24_q5_correct.m4a,null,<p> That’s correct. The alien tells you nothing about how much treasure is on the planet.</p>,,,,,,,,,,,,,,,,,,,,,,,
quiz_correct,56,338292,0.0-22.0-0.0,"""event"",""trial"",""time""
""fullscreenenter"",""1"",""4467""
""blur"",""3"",""27215""
""focus"",""4"",""33633""
""blur"",""43"",""241369""
""focus"",""43"",""247173""
","""event"",""trial"",""time""
""blur"",""3"",""27215""
""blur"",""43"",""241369""
","""event"",""trial"",""time""
""focus"",""4"",""33633""
""focus"",""43"",""247173""
","""event"",""trial"",""time""
""fullscreenenter"",""1"",""4467""
","
",,null,run_exp/static/audio/clip_26_correct_quiz.m4a,null,,,,,,,,,,,,,,,,,,,,,,,,
quiz_correct_continue,57,340036,0.0-22.0-1.0,"""event"",""trial"",""time""
""fullscreenenter"",""1"",""4467""
""blur"",""3"",""27215""
""focus"",""4"",""33633""
""blur"",""43"",""241369""
""focus"",""43"",""247173""
","""event"",""trial"",""time""
""blur"",""3"",""27215""
""blur"",""43"",""241369""
","""event"",""trial"",""time""
""focus"",""4"",""33633""
""focus"",""43"",""247173""
","""event"",""trial"",""time""
""fullscreenenter"",""1"",""4467""
","
",,1741.7,<p>Good job! You're now ready to move on to the real game!</p>,,,,,,,0,,,,,,,,,,,,,,,,,,
audio-keyboard-response,58,350323,0.0-22.0-2.0,"""event"",""trial"",""time""
""fullscreenenter"",""1"",""4467""
""blur"",""3"",""27215""
""focus"",""4"",""33633""
""blur"",""43"",""241369""
""focus"",""43"",""247173""
","""event"",""trial"",""time""
""blur"",""3"",""27215""
""blur"",""43"",""241369""
","""event"",""trial"",""time""
""focus"",""4"",""33633""
""focus"",""43"",""247173""
","""event"",""trial"",""time""
""fullscreenenter"",""1"",""4467""
","
",,null,run_exp/static/audio/clip_28_real_game.m4a,null,,,,,,,,,,,,,,,,,,,,,,,,
instruc_begin_exp_contine,59,351731,0.0-22.0-3.0,"""event"",""trial"",""time""
""fullscreenenter"",""1"",""4467""
""blur"",""3"",""27215""
""focus"",""4"",""33633""
""blur"",""43"",""241369""
""focus"",""43"",""247173""
","""event"",""trial"",""time""
""blur"",""3"",""27215""
""blur"",""43"",""241369""
","""event"",""trial"",""time""
""focus"",""4"",""33633""
""focus"",""43"",""247173""
","""event"",""trial"",""time""
""fullscreenenter"",""1"",""4467""
","
",,1406.7,"<p>Now that you know how  to dig for space treasure and travel to new planets,you can start exploring! </p><p>Do you want to go over the instructions again or get started with the real game?</p>",,,,,,,1,,,,,,1,,,,,,,,,,,,
alien_welcome,60,356747,0.0-23.0-0.0,"""event"",""trial"",""time""
""fullscreenenter"",""1"",""4467""
""blur"",""3"",""27215""
""focus"",""4"",""33633""
""blur"",""43"",""241369""
""focus"",""43"",""247173""
","""event"",""trial"",""time""
""blur"",""3"",""27215""
""blur"",""43"",""241369""
","""event"",""trial"",""time""
""focus"",""4"",""33633""
""focus"",""43"",""247173""
","""event"",""trial"",""time""
""fullscreenenter"",""1"",""4467""
","
",,null,run_exp/static/images/task_images/aliens/old_aliens/planet/alien_planet-15.jpg,null,,,,,,,,,,,,,15,"15,14,67,40,7,31,51,64,16,43,55,73,23,62,80,21,45,76,53,27,32,28,41,18,3,49,5,20,70,46,12,24,17,58,2,42,68,47,36,79,37,63,35,25,1,4,6,29",,,,,,,,,,
land,61,357257,0.0-23.0-1.0,"""event"",""trial"",""time""
""fullscreenenter"",""1"",""4467""
""blur"",""3"",""27215""
""focus"",""4"",""33633""
""blur"",""43"",""241369""
""focus"",""43"",""247173""
","""event"",""trial"",""time""
""blur"",""3"",""27215""
""blur"",""43"",""241369""
","""event"",""trial"",""time""
""focus"",""4"",""33633""
""focus"",""43"",""247173""
","""event"",""trial"",""time""
""fullscreenenter"",""1"",""4467""
","
",,null,run_exp/static/images/task_images/land.jpg,null,,,,,,,99,,,1,,,,,,,,,,,,,,
dig,62,359268,0.0-23.0-2.0,"""event"",""trial"",""time""
""fullscreenenter"",""1"",""4467""
""blur"",""3"",""27215""
""focus"",""4"",""33633""
""blur"",""43"",""241369""
""focus"",""43"",""247173""
","""event"",""trial"",""time""
""blur"",""3"",""27215""
""blur"",""43"",""241369""
","""event"",""trial"",""time""
""focus"",""4"",""33633""
""focus"",""43"",""247173""
","""event"",""trial"",""time""
""fullscreenenter"",""1"",""4467""
","
",,,,,,,,,,,,"[{""stimulus"":""run_exp/static/images/task_images/dig.jpg"",""time"":0.19999999552965164},{""stimulus"":""run_exp/static/images/task_images/land.jpg"",""time"":670.5999999940395},{""stimulus"":""run_exp/static/images/task_images/dig.jpg"",""time"":1342.7999999970198}]",[],1,,,,,,,,,,,,,,
harvest,63,360276,0.0-23.0-3.0,"""event"",""trial"",""time""
""fullscreenenter"",""1"",""4467""
""blur"",""3"",""27215""
""focus"",""4"",""33633""
""blur"",""43"",""241369""
""focus"",""43"",""247173""
","""event"",""trial"",""time""
""blur"",""3"",""27215""
""blur"",""43"",""241369""
","""event"",""trial"",""time""
""focus"",""4"",""33633""
""focus"",""43"",""247173""
","""event"",""trial"",""time""
""fullscreenenter"",""1"",""4467""
","
",,null,run_exp/static/images/task_images/gems/99.jpg,null,,,,,,,14,,,1,,,,,99,0.141368952,0.141414141,,,,,,,
decision,64,361638,0.0-23.0-4.0,"""event"",""trial"",""time""
""fullscreenenter"",""1"",""4467""
""blur"",""3"",""27215""
""focus"",""4"",""33633""
""blur"",""43"",""241369""
""focus"",""43"",""247173""
","""event"",""trial"",""time""
""blur"",""3"",""27215""
""blur"",""43"",""241369""
","""event"",""trial"",""time""
""focus"",""4"",""33633""
""focus"",""43"",""247173""
","""event"",""trial"",""time""
""fullscreenenter"",""1"",""4467""
","
",,1359.6,run_exp/static/images/task_images/land.jpg,65,,,,,,,14,,,1,,,,,,,,9904,1,0,FALSE,,,
dig,65,363283,0.0-24.0-0.0,"""event"",""trial"",""time""
""fullscreenenter"",""1"",""4467""
""blur"",""3"",""27215""
""focus"",""4"",""33633""
""blur"",""43"",""241369""
""focus"",""43"",""247173""
","""event"",""trial"",""time""
""blur"",""3"",""27215""
""blur"",""43"",""241369""
","""event"",""trial"",""time""
""focus"",""4"",""33633""
""focus"",""43"",""247173""
","""event"",""trial"",""time""
""fullscreenenter"",""1"",""4467""
","
",,,,,,,,,,,,"[{""stimulus"":""run_exp/static/images/task_images/dig.jpg"",""time"":0.19999999552965164},{""stimulus"":""run_exp/static/images/task_images/land.jpg"",""time"":551.7999999970198},{""stimulus"":""run_exp/static/images/task_images/dig.jpg"",""time"":1097.7999999970198}]",[],1,,,,,,,,,,,,,,
harvest,66,364292,0.0-24.0-1.0,"""event"",""trial"",""time""
""fullscreenenter"",""1"",""4467""
""blur"",""3"",""27215""
""focus"",""4"",""33633""
""blur"",""43"",""241369""
""focus"",""43"",""247173""
","""event"",""trial"",""time""
""blur"",""3"",""27215""
""blur"",""43"",""241369""
","""event"",""trial"",""time""
""focus"",""4"",""33633""
""focus"",""43"",""247173""
","""event"",""trial"",""time""
""fullscreenenter"",""1"",""4467""
","
",,null,run_exp/static/images/task_images/gems/14.jpg,null,,,,,,,3,,,1,,,,,14,0.205556051,0.214285714,,,,,,,
decision,67,364876,0.0-24.0-2.0,"""event"",""trial"",""time""
""fullscreenenter"",""1"",""4467""
""blur"",""3"",""27215""
""focus"",""4"",""33633""
""blur"",""43"",""241369""
""focus"",""43"",""247173""
","""event"",""trial"",""time""
""blur"",""3"",""27215""
""blur"",""43"",""241369""
","""event"",""trial"",""time""
""focus"",""4"",""33633""
""focus"",""43"",""247173""
","""event"",""trial"",""time""
""fullscreenenter"",""1"",""4467""
","
",,582.9,run_exp/static/images/task_images/land.jpg,65,,,,,,,3,,,1,,,,,,,,13142,1,1,FALSE,,,
dig,68,367300,0.0-25.0-0.0,"""event"",""trial"",""time""
""fullscreenenter"",""1"",""4467""
""blur"",""3"",""27215""
""focus"",""4"",""33633""
""blur"",""43"",""241369""
""focus"",""43"",""247173""
","""event"",""trial"",""time""
""blur"",""3"",""27215""
""blur"",""43"",""241369""
","""event"",""trial"",""time""
""focus"",""4"",""33633""
""focus"",""43"",""247173""
","""event"",""trial"",""time""
""fullscreenenter"",""1"",""4467""
","
",,,,,,,,,,,,"[{""stimulus"":""run_exp/static/images/task_images/dig.jpg"",""time"":0.19999999552965164},{""stimulus"":""run_exp/static/images/task_images/land.jpg"",""time"":810.1999999955297},{""stimulus"":""run_exp/static/images/task_images/dig.jpg"",""time"":1620.2999999970198}]",[],1,,,,,,,,,,,,,,
harvest,69,368307,0.0-25.0-1.0,"""event"",""trial"",""time""
""fullscreenenter"",""1"",""4467""
""blur"",""3"",""27215""
""focus"",""4"",""33633""
""blur"",""43"",""241369""
""focus"",""43"",""247173""
","""event"",""trial"",""time""
""blur"",""3"",""27215""
""blur"",""43"",""241369""
","""event"",""trial"",""time""
""focus"",""4"",""33633""
""focus"",""43"",""247173""
","""event"",""trial"",""time""
""fullscreenenter"",""1"",""4467""
","
",,null,run_exp/static/images/task_images/gems/3.jpg,null,,,,,,,1,,,1,,,,,3,0.185023805,0.333333333,,,,,,,
decision,70,369658,0.0-25.0-2.0,"""event"",""trial"",""time""
""fullscreenenter"",""1"",""4467""
""blur"",""3"",""27215""
""focus"",""4"",""33633""
""blur"",""43"",""241369""
""focus"",""43"",""247173""
","""event"",""trial"",""time""
""blur"",""3"",""27215""
""blur"",""43"",""241369""
","""event"",""trial"",""time""
""focus"",""4"",""33633""
""focus"",""43"",""247173""
","""event"",""trial"",""time""
""fullscreenenter"",""1"",""4467""
","
",,1349.4,run_exp/static/images/task_images/land.jpg,76,,,,,,,1,,,1,,,,,,,,17924,1,2,TRUE,,,
travel,71,378313,0.0-26.0-0.0,"""event"",""trial"",""time""
""fullscreenenter"",""1"",""4467""
""blur"",""3"",""27215""
""focus"",""4"",""33633""
""blur"",""43"",""241369""
""focus"",""43"",""247173""
","""event"",""trial"",""time""
""blur"",""3"",""27215""
""blur"",""43"",""241369""
","""event"",""trial"",""time""
""focus"",""4"",""33633""
""focus"",""43"",""247173""
","""event"",""trial"",""time""
""fullscreenenter"",""1"",""4467""
","
",,,,,,,,,,,,"[{""stimulus"":""run_exp/static/images/task_images/rocket-01.jpg"",""time"":0.20000000298023224},{""stimulus"":""run_exp/static/images/task_images/rocket-02.jpg"",""time"":968.5},{""stimulus"":""run_exp/static/images/task_images/rocket-03.jpg"",""time"":1928.2000000029802},{""stimulus"":""run_exp/static/images/task_images/rocket-04.jpg"",""time"":2888.60000000149},{""stimulus"":""run_exp/static/images/task_images/rocket-05.jpg"",""time"":3848.60000000149},{""stimulus"":""run_exp/static/images/task_images/rocket-06.jpg"",""time"":4817.60000000149},{""stimulus"":""run_exp/static/images/task_images/rocket-07.jpg"",""time"":5773.39999999851},{""stimulus"":""run_exp/static/images/task_images/rocket-08.jpg"",""time"":6728.89999999851},{""stimulus"":""run_exp/static/images/task_images/rocket-09.jpg"",""time"":7693.39999999851}]",[],1,,,,,,,,,,,,,,
alien_welcome,72,383321,0.0-26.0-1.0,"""event"",""trial"",""time""
""fullscreenenter"",""1"",""4467""
""blur"",""3"",""27215""
""focus"",""4"",""33633""
""blur"",""43"",""241369""
""focus"",""43"",""247173""
","""event"",""trial"",""time""
""blur"",""3"",""27215""
""blur"",""43"",""241369""
","""event"",""trial"",""time""
""focus"",""4"",""33633""
""focus"",""43"",""247173""
","""event"",""trial"",""time""
""fullscreenenter"",""1"",""4467""
","
",,null,run_exp/static/images/task_images/aliens/old_aliens/planet/alien_planet-14.jpg,null,,,,,,,,,,,,,14,"15,14,67,40,7,31,51,64,16,43,55,73,23,62,80,21,45,76,53,27,32,28,41,18,3,49,5,20,70,46,12,24,17,58,2,42,68,47,36,79,37,63,35,25,1,4,6,29",,,,,,,,,,
land,73,383829,0.0-26.0-2.0,"""event"",""trial"",""time""
""fullscreenenter"",""1"",""4467""
""blur"",""3"",""27215""
""focus"",""4"",""33633""
""blur"",""43"",""241369""
""focus"",""43"",""247173""
","""event"",""trial"",""time""
""blur"",""3"",""27215""
""blur"",""43"",""241369""
","""event"",""trial"",""time""
""focus"",""4"",""33633""
""focus"",""43"",""247173""
","""event"",""trial"",""time""
""fullscreenenter"",""1"",""4467""
","
",,null,run_exp/static/images/task_images/land.jpg,null,,,,,,,106,,,2,,,,,,,,,,,,,,
dig,74,385843,0.0-26.0-3.0,"""event"",""trial"",""time""
""fullscreenenter"",""1"",""4467""
""blur"",""3"",""27215""
""focus"",""4"",""33633""
""blur"",""43"",""241369""
""focus"",""43"",""247173""
","""event"",""trial"",""time""
""blur"",""3"",""27215""
""blur"",""43"",""241369""
","""event"",""trial"",""time""
""focus"",""4"",""33633""
""focus"",""43"",""247173""
","""event"",""trial"",""time""
""fullscreenenter"",""1"",""4467""
","
",,,,,,,,,,,,"[{""stimulus"":""run_exp/static/images/task_images/dig.jpg"",""time"":0.29999999701976776},{""stimulus"":""run_exp/static/images/task_images/land.jpg"",""time"":674.6999999955297},{""stimulus"":""run_exp/static/images/task_images/dig.jpg"",""time"":1342.7999999970198}]",[],2,,,,,,,,,,,,,,
harvest,75,386852,0.0-26.0-4.0,"""event"",""trial"",""time""
""fullscreenenter"",""1"",""4467""
""blur"",""3"",""27215""
""focus"",""4"",""33633""
""blur"",""43"",""241369""
""focus"",""43"",""247173""
","""event"",""trial"",""time""
""blur"",""3"",""27215""
""blur"",""43"",""241369""
","""event"",""trial"",""time""
""focus"",""4"",""33633""
""focus"",""43"",""247173""
","""event"",""trial"",""time""
""fullscreenenter"",""1"",""4467""
","
",,null,run_exp/static/images/task_images/gems/106.jpg,null,,,,,,,25,,,2,,,,,106,0.231539619,0.235849057,,,,,,,
decision,76,387170,0.0-26.0-5.0,"""event"",""trial"",""time""
""fullscreenenter"",""1"",""4467""
""blur"",""3"",""27215""
""focus"",""4"",""33633""
""blur"",""43"",""241369""
""focus"",""43"",""247173""
","""event"",""trial"",""time""
""blur"",""3"",""27215""
""blur"",""43"",""241369""
","""event"",""trial"",""time""
""focus"",""4"",""33633""
""focus"",""43"",""247173""
","""event"",""trial"",""time""
""fullscreenenter"",""1"",""4467""
","
",,315.4,run_exp/static/images/task_images/land.jpg,65,,,,,,,25,,,2,,,,,,,,35436,1,0,FALSE,,,
dig,77,389860,0.0-27.0-0.0,"""event"",""trial"",""time""
""fullscreenenter"",""1"",""4467""
""blur"",""3"",""27215""
""focus"",""4"",""33633""
""blur"",""43"",""241369""
""focus"",""43"",""247173""
","""event"",""trial"",""time""
""blur"",""3"",""27215""
""blur"",""43"",""241369""
","""event"",""trial"",""time""
""focus"",""4"",""33633""
""focus"",""43"",""247173""
","""event"",""trial"",""time""
""fullscreenenter"",""1"",""4467""
","
",,,,,,,,,,,,"[{""stimulus"":""run_exp/static/images/task_images/dig.jpg"",""time"":0.19999999552965164},{""stimulus"":""run_exp/static/images/task_images/land.jpg"",""time"":901.3999999985099},{""stimulus"":""run_exp/static/images/task_images/dig.jpg"",""time"":1791.5}]",[],2,,,,,,,,,,,,,,
harvest,78,390867,0.0-27.0-1.0,"""event"",""trial"",""time""
""fullscreenenter"",""1"",""4467""
""blur"",""3"",""27215""
""focus"",""4"",""33633""
""blur"",""43"",""241369""
""focus"",""43"",""247173""
","""event"",""trial"",""time""
""blur"",""3"",""27215""
""blur"",""43"",""241369""
","""event"",""trial"",""time""
""focus"",""4"",""33633""
""focus"",""43"",""247173""
","""event"",""trial"",""time""
""fullscreenenter"",""1"",""4467""
","
",,null,run_exp/static/images/task_images/gems/25.jpg,null,,,,,,,4,,,2,,,,,25,0.153116326,0.16,,,,,,,
decision,79,392121,0.0-27.0-2.0,"""event"",""trial"",""time""
""fullscreenenter"",""1"",""4467""
""blur"",""3"",""27215""
""focus"",""4"",""33633""
""blur"",""43"",""241369""
""focus"",""43"",""247173""
","""event"",""trial"",""time""
""blur"",""3"",""27215""
""blur"",""43"",""241369""
","""event"",""trial"",""time""
""focus"",""4"",""33633""
""focus"",""43"",""247173""
","""event"",""trial"",""time""
""fullscreenenter"",""1"",""4467""
","
",,1251.7,run_exp/static/images/task_images/land.jpg,76,,,,,,,4,,,2,,,,,,,,40387,1,1,TRUE,,,
travel,80,400874,0.0-28.0-0.0,"""event"",""trial"",""time""
""fullscreenenter"",""1"",""4467""
""blur"",""3"",""27215""
""focus"",""4"",""33633""
""blur"",""43"",""241369""
""focus"",""43"",""247173""
","""event"",""trial"",""time""
""blur"",""3"",""27215""
""blur"",""43"",""241369""
","""event"",""trial"",""time""
""focus"",""4"",""33633""
""focus"",""43"",""247173""
","""event"",""trial"",""time""
""fullscreenenter"",""1"",""4467""
","
",,,,,,,,,,,,"[{""stimulus"":""run_exp/static/images/task_images/rocket-01.jpg"",""time"":0.20000000298023224},{""stimulus"":""run_exp/static/images/task_images/rocket-02.jpg"",""time"":974.3999999985099},{""stimulus"":""run_exp/static/images/task_images/rocket-03.jpg"",""time"":1952.5},{""stimulus"":""run_exp/static/images/task_images/rocket-04.jpg"",""time"":2919.89999999851},{""stimulus"":""run_exp/static/images/task_images/rocket-05.jpg"",""time"":3896},{""stimulus"":""run_exp/static/images/task_images/rocket-06.jpg"",""time"":4862.5},{""stimulus"":""run_exp/static/images/task_images/rocket-07.jpg"",""time"":5838.5},{""stimulus"":""run_exp/static/images/task_images/rocket-08.jpg"",""time"":6806.10000000149},{""stimulus"":""run_exp/static/images/task_images/rocket-09.jpg"",""time"":7784}]",[],2,,,,,,,,,,,,,,
alien_welcome,81,405882,0.0-28.0-1.0,"""event"",""trial"",""time""
""fullscreenenter"",""1"",""4467""
""blur"",""3"",""27215""
""focus"",""4"",""33633""
""blur"",""43"",""241369""
""focus"",""43"",""247173""
","""event"",""trial"",""time""
""blur"",""3"",""27215""
""blur"",""43"",""241369""
","""event"",""trial"",""time""
""focus"",""4"",""33633""
""focus"",""43"",""247173""
","""event"",""trial"",""time""
""fullscreenenter"",""1"",""4467""
","
",,null,run_exp/static/images/task_images/aliens/old_aliens/planet/alien_planet-67.jpg,null,,,,,,,,,,,,,67,"15,14,67,40,7,31,51,64,16,43,55,73,23,62,80,21,45,76,53,27,32,28,41,18,3,49,5,20,70,46,12,24,17,58,2,42,68,47,36,79,37,63,35,25,1,4,6,29",,,,,,,,,,
land,82,406388,0.0-28.0-2.0,"""event"",""trial"",""time""
""fullscreenenter"",""1"",""4467""
""blur"",""3"",""27215""
""focus"",""4"",""33633""
""blur"",""43"",""241369""
""focus"",""43"",""247173""
","""event"",""trial"",""time""
""blur"",""3"",""27215""
""blur"",""43"",""241369""
","""event"",""trial"",""time""
""focus"",""4"",""33633""
""focus"",""43"",""247173""
","""event"",""trial"",""time""
""fullscreenenter"",""1"",""4467""
","
",,null,run_exp/static/images/task_images/land.jpg,null,,,,,,,101,,,3,,,,,,,,,,,,,,
dig,83,408394,0.0-28.0-3.0,"""event"",""trial"",""time""
""fullscreenenter"",""1"",""4467""
""blur"",""3"",""27215""
""focus"",""4"",""33633""
""blur"",""43"",""241369""
""focus"",""43"",""247173""
","""event"",""trial"",""time""
""blur"",""3"",""27215""
""blur"",""43"",""241369""
","""event"",""trial"",""time""
""focus"",""4"",""33633""
""focus"",""43"",""247173""
","""event"",""trial"",""time""
""fullscreenenter"",""1"",""4467""
","
",,,,,,,,,,,,"[{""stimulus"":""run_exp/static/images/task_images/dig.jpg"",""time"":0.29999999701976776},{""stimulus"":""run_exp/static/images/task_images/land.jpg"",""time"":679.6999999955297},{""stimulus"":""run_exp/static/images/task_images/dig.jpg"",""time"":1340.1999999955297}]",[],3,,,,,,,,,,,,,,
harvest,84,409402,0.0-28.0-4.0,"""event"",""trial"",""time""
""fullscreenenter"",""1"",""4467""
""blur"",""3"",""27215""
""focus"",""4"",""33633""
""blur"",""43"",""241369""
""focus"",""43"",""247173""
","""event"",""trial"",""time""
""blur"",""3"",""27215""
""blur"",""43"",""241369""
","""event"",""trial"",""time""
""focus"",""4"",""33633""
""focus"",""43"",""247173""
","""event"",""trial"",""time""
""fullscreenenter"",""1"",""4467""
","
",,null,run_exp/static/images/task_images/gems/101.jpg,null,,,,,,,53,,,3,,,,,101,0.520815855,0.524752475,,,,,,,
decision,85,409762,0.0-28.0-5.0,"""event"",""trial"",""time""
""fullscreenenter"",""1"",""4467""
""blur"",""3"",""27215""
""focus"",""4"",""33633""
""blur"",""43"",""241369""
""focus"",""43"",""247173""
","""event"",""trial"",""time""
""blur"",""3"",""27215""
""blur"",""43"",""241369""
","""event"",""trial"",""time""
""focus"",""4"",""33633""
""focus"",""43"",""247173""
","""event"",""trial"",""time""
""fullscreenenter"",""1"",""4467""
","
",,357.5,run_exp/static/images/task_images/land.jpg,65,,,,,,,53,,,3,,,,,,,,58028,1,0,FALSE,,,
dig,86,412414,0.0-29.0-0.0,"""event"",""trial"",""time""
""fullscreenenter"",""1"",""4467""
""blur"",""3"",""27215""
""focus"",""4"",""33633""
""blur"",""43"",""241369""
""focus"",""43"",""247173""
","""event"",""trial"",""time""
""blur"",""3"",""27215""
""blur"",""43"",""241369""
","""event"",""trial"",""time""
""focus"",""4"",""33633""
""focus"",""43"",""247173""
","""event"",""trial"",""time""
""fullscreenenter"",""1"",""4467""
","
",,,,,,,,,,,,"[{""stimulus"":""run_exp/static/images/task_images/dig.jpg"",""time"":0.29999999701976776},{""stimulus"":""run_exp/static/images/task_images/land.jpg"",""time"":889.6000000014901},{""stimulus"":""run_exp/static/images/task_images/dig.jpg"",""time"":1769.6999999955297}]",[],3,,,,,,,,,,,,,,
harvest,87,413422,0.0-29.0-1.0,"""event"",""trial"",""time""
""fullscreenenter"",""1"",""4467""
""blur"",""3"",""27215""
""focus"",""4"",""33633""
""blur"",""43"",""241369""
""focus"",""43"",""247173""
","""event"",""trial"",""time""
""blur"",""3"",""27215""
""blur"",""43"",""241369""
","""event"",""trial"",""time""
""focus"",""4"",""33633""
""focus"",""43"",""247173""
","""event"",""trial"",""time""
""fullscreenenter"",""1"",""4467""
","
",,null,run_exp/static/images/task_images/gems/53.jpg,null,,,,,,,26,,,3,,,,,53,0.493503318,0.490566038,,,,,,,
decision,88,413733,0.0-29.0-2.0,"""event"",""trial"",""time""
""fullscreenenter"",""1"",""4467""
""blur"",""3"",""27215""
""focus"",""4"",""33633""
""blur"",""43"",""241369""
""focus"",""43"",""247173""
","""event"",""trial"",""time""
""blur"",""3"",""27215""
""blur"",""43"",""241369""
","""event"",""trial"",""time""
""focus"",""4"",""33633""
""focus"",""43"",""247173""
","""event"",""trial"",""time""
""fullscreenenter"",""1"",""4467""
","
",,309.3,run_exp/static/images/task_images/land.jpg,65,,,,,,,26,,,3,,,,,,,,61999,1,1,FALSE,,,
dig,89,416429,0.0-30.0-0.0,"""event"",""trial"",""time""
""fullscreenenter"",""1"",""4467""
""blur"",""3"",""27215""
""focus"",""4"",""33633""
""blur"",""43"",""241369""
""focus"",""43"",""247173""
","""event"",""trial"",""time""
""blur"",""3"",""27215""
""blur"",""43"",""241369""
","""event"",""trial"",""time""
""focus"",""4"",""33633""
""focus"",""43"",""247173""
","""event"",""trial"",""time""
""fullscreenenter"",""1"",""4467""
","
",,,,,,,,,,,,"[{""stimulus"":""run_exp/static/images/task_images/dig.jpg"",""time"":0.19999999552965164},{""stimulus"":""run_exp/static/images/task_images/land.jpg"",""time"":898.5},{""stimulus"":""run_exp/static/images/task_images/dig.jpg"",""time"":1795.1000000014901}]",[],3,,,,,,,,,,,,,,
harvest,90,417438,0.0-30.0-1.0,"""event"",""trial"",""time""
""fullscreenenter"",""1"",""4467""
""blur"",""3"",""27215""
""focus"",""4"",""33633""
""blur"",""43"",""241369""
""focus"",""43"",""247173""
","""event"",""trial"",""time""
""blur"",""3"",""27215""
""blur"",""43"",""241369""
","""event"",""trial"",""time""
""focus"",""4"",""33633""
""focus"",""43"",""247173""
","""event"",""trial"",""time""
""fullscreenenter"",""1"",""4467""
","
",,null,run_exp/static/images/task_images/gems/26.jpg,null,,,,,,,12,,,3,,,,,26,0.448874658,0.461538462,,,,,,,
decision,91,418489,0.0-30.0-2.0,"""event"",""trial"",""time""
""fullscreenenter"",""1"",""4467""
""blur"",""3"",""27215""
""focus"",""4"",""33633""
""blur"",""43"",""241369""
""focus"",""43"",""247173""
","""event"",""trial"",""time""
""blur"",""3"",""27215""
""blur"",""43"",""241369""
","""event"",""trial"",""time""
""focus"",""4"",""33633""
""focus"",""43"",""247173""
","""event"",""trial"",""time""
""fullscreenenter"",""1"",""4467""
","
",,1049.1,run_exp/static/images/task_images/land.jpg,76,,,,,,,12,,,3,,,,,,,,66755,1,2,TRUE,,,
travel,92,427445,0.0-31.0-0.0,"""event"",""trial"",""time""
""fullscreenenter"",""1"",""4467""
""blur"",""3"",""27215""
""focus"",""4"",""33633""
""blur"",""43"",""241369""
""focus"",""43"",""247173""
","""event"",""trial"",""time""
""blur"",""3"",""27215""
""blur"",""43"",""241369""
","""event"",""trial"",""time""
""focus"",""4"",""33633""
""focus"",""43"",""247173""
","""event"",""trial"",""time""
""fullscreenenter"",""1"",""4467""
","
",,,,,,,,,,,,"[{""stimulus"":""run_exp/static/images/task_images/rocket-01.jpg"",""time"":0.29999999701976776},{""stimulus"":""run_exp/static/images/task_images/rocket-02.jpg"",""time"":1000.2999999970198},{""stimulus"":""run_exp/static/images/task_images/rocket-03.jpg"",""time"":1992.0999999940395},{""stimulus"":""run_exp/static/images/task_images/rocket-04.jpg"",""time"":2990.5999999940395},{""stimulus"":""run_exp/static/images/task_images/rocket-05.jpg"",""time"":3982.0999999940395},{""stimulus"":""run_exp/static/images/task_images/rocket-06.jpg"",""time"":4974.5999999940395},{""stimulus"":""run_exp/static/images/task_images/rocket-07.jpg"",""time"":5967.69999999553},{""stimulus"":""run_exp/static/images/task_images/rocket-08.jpg"",""time"":6968.0999999940395},{""stimulus"":""run_exp/static/images/task_images/rocket-09.jpg"",""time"":7961.19999999553}]",[],3,,,,,,,,,,,,,,
alien_welcome,93,432453,0.0-31.0-1.0,"""event"",""trial"",""time""
""fullscreenenter"",""1"",""4467""
""blur"",""3"",""27215""
""focus"",""4"",""33633""
""blur"",""43"",""241369""
""focus"",""43"",""247173""
","""event"",""trial"",""time""
""blur"",""3"",""27215""
""blur"",""43"",""241369""
","""event"",""trial"",""time""
""focus"",""4"",""33633""
""focus"",""43"",""247173""
","""event"",""trial"",""time""
""fullscreenenter"",""1"",""4467""
","
",,null,run_exp/static/images/task_images/aliens/old_aliens/planet/alien_planet-40.jpg,null,,,,,,,,,,,,,40,"15,14,67,40,7,31,51,64,16,43,55,73,23,62,80,21,45,76,53,27,32,28,41,18,3,49,5,20,70,46,12,24,17,58,2,42,68,47,36,79,37,63,35,25,1,4,6,29",,,,,,,,,,
land,94,432962,0.0-31.0-2.0,"""event"",""trial"",""time""
""fullscreenenter"",""1"",""4467""
""blur"",""3"",""27215""
""focus"",""4"",""33633""
""blur"",""43"",""241369""
""focus"",""43"",""247173""
","""event"",""trial"",""time""
""blur"",""3"",""27215""
""blur"",""43"",""241369""
","""event"",""trial"",""time""
""focus"",""4"",""33633""
""focus"",""43"",""247173""
","""event"",""trial"",""time""
""fullscreenenter"",""1"",""4467""
","
",,null,run_exp/static/images/task_images/land.jpg,null,,,,,,,95,,,4,,,,,,,,,,,,,,
dig,95,434970,0.0-31.0-3.0,"""event"",""trial"",""time""
""fullscreenenter"",""1"",""4467""
""blur"",""3"",""27215""
""focus"",""4"",""33633""
""blur"",""43"",""241369""
""focus"",""43"",""247173""
","""event"",""trial"",""time""
""blur"",""3"",""27215""
""blur"",""43"",""241369""
","""event"",""trial"",""time""
""focus"",""4"",""33633""
""focus"",""43"",""247173""
","""event"",""trial"",""time""
""fullscreenenter"",""1"",""4467""
","
",,,,,,,,,,,,"[{""stimulus"":""run_exp/static/images/task_images/dig.jpg"",""time"":0.20000000298023224},{""stimulus"":""run_exp/static/images/task_images/land.jpg"",""time"":675.3999999985099},{""stimulus"":""run_exp/static/images/task_images/dig.jpg"",""time"":1336.7999999970198}]",[],4,,,,,,,,,,,,,,
harvest,96,435979,0.0-31.0-4.0,"""event"",""trial"",""time""
""fullscreenenter"",""1"",""4467""
""blur"",""3"",""27215""
""focus"",""4"",""33633""
""blur"",""43"",""241369""
""focus"",""43"",""247173""
","""event"",""trial"",""time""
""blur"",""3"",""27215""
""blur"",""43"",""241369""
","""event"",""trial"",""time""
""focus"",""4"",""33633""
""focus"",""43"",""247173""
","""event"",""trial"",""time""
""fullscreenenter"",""1"",""4467""
","
",,null,run_exp/static/images/task_images/gems/95.jpg,null,,,,,,,42,,,4,,,,,95,0.444073931,0.442105263,,,,,,,
decision,97,436408,0.0-31.0-5.0,"""event"",""trial"",""time""
""fullscreenenter"",""1"",""4467""
""blur"",""3"",""27215""
""focus"",""4"",""33633""
""blur"",""43"",""241369""
""focus"",""43"",""247173""
","""event"",""trial"",""time""
""blur"",""3"",""27215""
""blur"",""43"",""241369""
","""event"",""trial"",""time""
""focus"",""4"",""33633""
""focus"",""43"",""247173""
","""event"",""trial"",""time""
""fullscreenenter"",""1"",""4467""
","
",,427.5,run_exp/static/images/task_images/land.jpg,65,,,,,,,42,,,4,,,,,,,,84674,1,0,FALSE,,,
dig,98,438987,0.0-32.0-0.0,"""event"",""trial"",""time""
""fullscreenenter"",""1"",""4467""
""blur"",""3"",""27215""
""focus"",""4"",""33633""
""blur"",""43"",""241369""
""focus"",""43"",""247173""
","""event"",""trial"",""time""
""blur"",""3"",""27215""
""blur"",""43"",""241369""
","""event"",""trial"",""time""
""focus"",""4"",""33633""
""focus"",""43"",""247173""
","""event"",""trial"",""time""
""fullscreenenter"",""1"",""4467""
","
",,,,,,,,,,,,"[{""stimulus"":""run_exp/static/images/task_images/dig.jpg"",""time"":0.20000000298023224},{""stimulus"":""run_exp/static/images/task_images/land.jpg"",""time"":866},{""stimulus"":""run_exp/static/images/task_images/dig.jpg"",""time"":1724.1000000014901}]",[],4,,,,,,,,,,,,,,
harvest,99,439995,0.0-32.0-1.0,"""event"",""trial"",""time""
""fullscreenenter"",""1"",""4467""
""blur"",""3"",""27215""
""focus"",""4"",""33633""
""blur"",""43"",""241369""
""focus"",""43"",""247173""
","""event"",""trial"",""time""
""blur"",""3"",""27215""
""blur"",""43"",""241369""
","""event"",""trial"",""time""
""focus"",""4"",""33633""
""focus"",""43"",""247173""
","""event"",""trial"",""time""
""fullscreenenter"",""1"",""4467""
","
",,null,run_exp/static/images/task_images/gems/42.jpg,null,,,,,,,21,,,4,,,,,42,0.510743084,0.5,,,,,,,
decision,100,440432,0.0-32.0-2.0,"""event"",""trial"",""time""
""fullscreenenter"",""1"",""4467""
""blur"",""3"",""27215""
""focus"",""4"",""33633""
""blur"",""43"",""241369""
""focus"",""43"",""247173""
","""event"",""trial"",""time""
""blur"",""3"",""27215""
""blur"",""43"",""241369""
","""event"",""trial"",""time""
""focus"",""4"",""33633""
""focus"",""43"",""247173""
","""event"",""trial"",""time""
""fullscreenenter"",""1"",""4467""
","
",,435.3,run_exp/static/images/task_images/land.jpg,65,,,,,,,21,,,4,,,,,,,,88698,1,1,FALSE,,,
dig,101,443003,0.0-33.0-0.0,"""event"",""trial"",""time""
""fullscreenenter"",""1"",""4467""
""blur"",""3"",""27215""
""focus"",""4"",""33633""
""blur"",""43"",""241369""
""focus"",""43"",""247173""
","""event"",""trial"",""time""
""blur"",""3"",""27215""
""blur"",""43"",""241369""
","""event"",""trial"",""time""
""focus"",""4"",""33633""
""focus"",""43"",""247173""
","""event"",""trial"",""time""
""fullscreenenter"",""1"",""4467""
","
",,,,,,,,,,,,"[{""stimulus"":""run_exp/static/images/task_images/dig.jpg"",""time"":0.20000000298023224},{""stimulus"":""run_exp/static/images/task_images/land.jpg"",""time"":856.5},{""stimulus"":""run_exp/static/images/task_images/dig.jpg"",""time"":1715.3000000044703}]",[],4,,,,,,,,,,,,,,
harvest,102,444016,0.0-33.0-1.0,"""event"",""trial"",""time""
""fullscreenenter"",""1"",""4467""
""blur"",""3"",""27215""
""focus"",""4"",""33633""
""blur"",""43"",""241369""
""focus"",""43"",""247173""
","""event"",""trial"",""time""
""blur"",""3"",""27215""
""blur"",""43"",""241369""
","""event"",""trial"",""time""
""focus"",""4"",""33633""
""focus"",""43"",""247173""
","""event"",""trial"",""time""
""fullscreenenter"",""1"",""4467""
","
",,null,run_exp/static/images/task_images/gems/21.jpg,null,,,,,,,11,,,4,,,,,21,0.504038625,0.523809524,,,,,,,
decision,103,444315,0.0-33.0-2.0,"""event"",""trial"",""time""
""fullscreenenter"",""1"",""4467""
""blur"",""3"",""27215""
""focus"",""4"",""33633""
""blur"",""43"",""241369""
""focus"",""43"",""247173""
","""event"",""trial"",""time""
""blur"",""3"",""27215""
""blur"",""43"",""241369""
","""event"",""trial"",""time""
""focus"",""4"",""33633""
""focus"",""43"",""247173""
","""event"",""trial"",""time""
""fullscreenenter"",""1"",""4467""
","
",,298.6,run_exp/static/images/task_images/land.jpg,65,,,,,,,11,,,4,,,,,,,,92581,1,2,FALSE,,,
dig,104,447020,0.0-34.0-0.0,"""event"",""trial"",""time""
""fullscreenenter"",""1"",""4467""
""blur"",""3"",""27215""
""focus"",""4"",""33633""
""blur"",""43"",""241369""
""focus"",""43"",""247173""
","""event"",""trial"",""time""
""blur"",""3"",""27215""
""blur"",""43"",""241369""
","""event"",""trial"",""time""
""focus"",""4"",""33633""
""focus"",""43"",""247173""
","""event"",""trial"",""time""
""fullscreenenter"",""1"",""4467""
","
",,,,,,,,,,,,"[{""stimulus"":""run_exp/static/images/task_images/dig.jpg"",""time"":0.09999999403953552},{""stimulus"":""run_exp/static/images/task_images/land.jpg"",""time"":903.5},{""stimulus"":""run_exp/static/images/task_images/dig.jpg"",""time"":1810.3999999985099}]",[],4,,,,,,,,,,,,,,
harvest,105,448030,0.0-34.0-1.0,"""event"",""trial"",""time""
""fullscreenenter"",""1"",""4467""
""blur"",""3"",""27215""
""focus"",""4"",""33633""
""blur"",""43"",""241369""
""focus"",""43"",""247173""
","""event"",""trial"",""time""
""blur"",""3"",""27215""
""blur"",""43"",""241369""
","""event"",""trial"",""time""
""focus"",""4"",""33633""
""focus"",""43"",""247173""
","""event"",""trial"",""time""
""fullscreenenter"",""1"",""4467""
","
",,null,run_exp/static/images/task_images/gems/11.jpg,null,,,,,,,6,,,4,,,,,11,0.523347746,0.545454545,,,,,,,
decision,106,448294,0.0-34.0-2.0,"""event"",""trial"",""time""
""fullscreenenter"",""1"",""4467""
""blur"",""3"",""27215""
""focus"",""4"",""33633""
""blur"",""43"",""241369""
""focus"",""43"",""247173""
","""event"",""trial"",""time""
""blur"",""3"",""27215""
""blur"",""43"",""241369""
","""event"",""trial"",""time""
""focus"",""4"",""33633""
""focus"",""43"",""247173""
","""event"",""trial"",""time""
""fullscreenenter"",""1"",""4467""
","
",,262.2,run_exp/static/images/task_images/land.jpg,76,,,,,,,6,,,4,,,,,,,,96560,1,3,TRUE,,,
travel,107,458037,0.0-35.0-0.0,"""event"",""trial"",""time""
""fullscreenenter"",""1"",""4467""
""blur"",""3"",""27215""
""focus"",""4"",""33633""
""blur"",""43"",""241369""
""focus"",""43"",""247173""
","""event"",""trial"",""time""
""blur"",""3"",""27215""
""blur"",""43"",""241369""
","""event"",""trial"",""time""
""focus"",""4"",""33633""
""focus"",""43"",""247173""
","""event"",""trial"",""time""
""fullscreenenter"",""1"",""4467""
","
",,,,,,,,,,,,"[{""stimulus"":""run_exp/static/images/task_images/rocket-01.jpg"",""time"":0.10000000149011612},{""stimulus"":""run_exp/static/images/task_images/rocket-02.jpg"",""time"":1090.3999999985099},{""stimulus"":""run_exp/static/images/task_images/rocket-03.jpg"",""time"":2173.10000000149},{""stimulus"":""run_exp/static/images/task_images/rocket-04.jpg"",""time"":3245.10000000149},{""stimulus"":""run_exp/static/images/task_images/rocket-05.jpg"",""time"":4332},{""stimulus"":""run_exp/static/images/task_images/rocket-06.jpg"",""time"":5410.30000000447},{""stimulus"":""run_exp/static/images/task_images/rocket-07.jpg"",""time"":6493.10000000149},{""stimulus"":""run_exp/static/images/task_images/rocket-08.jpg"",""time"":7569.89999999851},{""stimulus"":""run_exp/static/images/task_images/rocket-09.jpg"",""time"":8653.20000000298}]",[],4,,,,,,,,,,,,,,
alien_welcome,108,463045,0.0-35.0-1.0,"""event"",""trial"",""time""
""fullscreenenter"",""1"",""4467""
""blur"",""3"",""27215""
""focus"",""4"",""33633""
""blur"",""43"",""241369""
""focus"",""43"",""247173""
","""event"",""trial"",""time""
""blur"",""3"",""27215""
""blur"",""43"",""241369""
","""event"",""trial"",""time""
""focus"",""4"",""33633""
""focus"",""43"",""247173""
","""event"",""trial"",""time""
""fullscreenenter"",""1"",""4467""
","
",,null,run_exp/static/images/task_images/aliens/old_aliens/planet/alien_planet-7.jpg,null,,,,,,,,,,,,,7,"15,14,67,40,7,31,51,64,16,43,55,73,23,62,80,21,45,76,53,27,32,28,41,18,3,49,5,20,70,46,12,24,17,58,2,42,68,47,36,79,37,63,35,25,1,4,6,29",,,,,,,,,,
land,109,463548,0.0-35.0-2.0,"""event"",""trial"",""time""
""fullscreenenter"",""1"",""4467""
""blur"",""3"",""27215""
""focus"",""4"",""33633""
""blur"",""43"",""241369""
""focus"",""43"",""247173""
","""event"",""trial"",""time""
""blur"",""3"",""27215""
""blur"",""43"",""241369""
","""event"",""trial"",""time""
""focus"",""4"",""33633""
""focus"",""43"",""247173""
","""event"",""trial"",""time""
""fullscreenenter"",""1"",""4467""
","
",,null,run_exp/static/images/task_images/land.jpg,null,,,,,,,103,,,5,,,,,,,,,,,,,,
dig,110,465558,0.0-35.0-3.0,"""event"",""trial"",""time""
""fullscreenenter"",""1"",""4467""
""blur"",""3"",""27215""
""focus"",""4"",""33633""
""blur"",""43"",""241369""
""focus"",""43"",""247173""
","""event"",""trial"",""time""
""blur"",""3"",""27215""
""blur"",""43"",""241369""
","""event"",""trial"",""time""
""focus"",""4"",""33633""
""focus"",""43"",""247173""
","""event"",""trial"",""time""
""fullscreenenter"",""1"",""4467""
","
",,,,,,,,,,,,"[{""stimulus"":""run_exp/static/images/task_images/dig.jpg"",""time"":0.29999999701976776},{""stimulus"":""run_exp/static/images/task_images/land.jpg"",""time"":671.5},{""stimulus"":""run_exp/static/images/task_images/dig.jpg"",""time"":1336.7999999970198}]",[],5,,,,,,,,,,,,,,
harvest,111,466566,0.0-35.0-4.0,"""event"",""trial"",""time""
""fullscreenenter"",""1"",""4467""
""blur"",""3"",""27215""
""focus"",""4"",""33633""
""blur"",""43"",""241369""
""focus"",""43"",""247173""
","""event"",""trial"",""time""
""blur"",""3"",""27215""
""blur"",""43"",""241369""
","""event"",""trial"",""time""
""focus"",""4"",""33633""
""focus"",""43"",""247173""
","""event"",""trial"",""time""
""fullscreenenter"",""1"",""4467""
","
",,null,run_exp/static/images/task_images/gems/103.jpg,null,,,,,,,55,,,5,,,,,103,0.533252475,0.533980583,,,,,,,
decision,112,466890,0.0-35.0-5.0,"""event"",""trial"",""time""
""fullscreenenter"",""1"",""4467""
""blur"",""3"",""27215""
""focus"",""4"",""33633""
""blur"",""43"",""241369""
""focus"",""43"",""247173""
","""event"",""trial"",""time""
""blur"",""3"",""27215""
""blur"",""43"",""241369""
","""event"",""trial"",""time""
""focus"",""4"",""33633""
""focus"",""43"",""247173""
","""event"",""trial"",""time""
""fullscreenenter"",""1"",""4467""
","
",,323.3,run_exp/static/images/task_images/land.jpg,65,,,,,,,55,,,5,,,,,,,,115157,1,0,FALSE,,,
dig,113,469575,0.0-36.0-0.0,"""event"",""trial"",""time""
""fullscreenenter"",""1"",""4467""
""blur"",""3"",""27215""
""focus"",""4"",""33633""
""blur"",""43"",""241369""
""focus"",""43"",""247173""
","""event"",""trial"",""time""
""blur"",""3"",""27215""
""blur"",""43"",""241369""
","""event"",""trial"",""time""
""focus"",""4"",""33633""
""focus"",""43"",""247173""
","""event"",""trial"",""time""
""fullscreenenter"",""1"",""4467""
","
",,,,,,,,,,,,"[{""stimulus"":""run_exp/static/images/task_images/dig.jpg"",""time"":0},{""stimulus"":""run_exp/static/images/task_images/land.jpg"",""time"":894.5},{""stimulus"":""run_exp/static/images/task_images/dig.jpg"",""time"":1790.2000000029802}]",[],5,,,,,,,,,,,,,,
harvest,114,470582,0.0-36.0-1.0,"""event"",""trial"",""time""
""fullscreenenter"",""1"",""4467""
""blur"",""3"",""27215""
""focus"",""4"",""33633""
""blur"",""43"",""241369""
""focus"",""43"",""247173""
","""event"",""trial"",""time""
""blur"",""3"",""27215""
""blur"",""43"",""241369""
","""event"",""trial"",""time""
""focus"",""4"",""33633""
""focus"",""43"",""247173""
","""event"",""trial"",""time""
""fullscreenenter"",""1"",""4467""
","
",,null,run_exp/static/images/task_images/gems/55.jpg,null,,,,,,,34,,,5,,,,,55,0.615199281,0.618181818,,,,,,,
decision,115,470844,0.0-36.0-2.0,"""event"",""trial"",""time""
""fullscreenenter"",""1"",""4467""
""blur"",""3"",""27215""
""focus"",""4"",""33633""
""blur"",""43"",""241369""
""focus"",""43"",""247173""
","""event"",""trial"",""time""
""blur"",""3"",""27215""
""blur"",""43"",""241369""
","""event"",""trial"",""time""
""focus"",""4"",""33633""
""focus"",""43"",""247173""
","""event"",""trial"",""time""
""fullscreenenter"",""1"",""4467""
","
",,261.1,run_exp/static/images/task_images/land.jpg,65,,,,,,,34,,,5,,,,,,,,119111,1,1,FALSE,,,
dig,116,473591,0.0-37.0-0.0,"""event"",""trial"",""time""
""fullscreenenter"",""1"",""4467""
""blur"",""3"",""27215""
""focus"",""4"",""33633""
""blur"",""43"",""241369""
""focus"",""43"",""247173""
","""event"",""trial"",""time""
""blur"",""3"",""27215""
""blur"",""43"",""241369""
","""event"",""trial"",""time""
""focus"",""4"",""33633""
""focus"",""43"",""247173""
","""event"",""trial"",""time""
""fullscreenenter"",""1"",""4467""
","
",,,,,,,,,,,,"[{""stimulus"":""run_exp/static/images/task_images/dig.jpg"",""time"":0.20000000298023224},{""stimulus"":""run_exp/static/images/task_images/land.jpg"",""time"":919.1000000014901},{""stimulus"":""run_exp/static/images/task_images/dig.jpg"",""time"":1831.6000000014901}]",[],5,,,,,,,,,,,,,,
harvest,117,474598,0.0-37.0-1.0,"""event"",""trial"",""time""
""fullscreenenter"",""1"",""4467""
""blur"",""3"",""27215""
""focus"",""4"",""33633""
""blur"",""43"",""241369""
""focus"",""43"",""247173""
","""event"",""trial"",""time""
""blur"",""3"",""27215""
""blur"",""43"",""241369""
","""event"",""trial"",""time""
""focus"",""4"",""33633""
""focus"",""43"",""247173""
","""event"",""trial"",""time""
""fullscreenenter"",""1"",""4467""
","
",,null,run_exp/static/images/task_images/gems/34.jpg,null,,,,,,,18,,,5,,,,,34,0.525941422,0.529411765,,,,,,,
decision,118,475157,0.0-37.0-2.0,"""event"",""trial"",""time""
""fullscreenenter"",""1"",""4467""
""blur"",""3"",""27215""
""focus"",""4"",""33633""
""blur"",""43"",""241369""
""focus"",""43"",""247173""
","""event"",""trial"",""time""
""blur"",""3"",""27215""
""blur"",""43"",""241369""
","""event"",""trial"",""time""
""focus"",""4"",""33633""
""focus"",""43"",""247173""
","""event"",""trial"",""time""
""fullscreenenter"",""1"",""4467""
","
",,557.1,run_exp/static/images/task_images/land.jpg,65,,,,,,,18,,,5,,,,,,,,123423,1,2,FALSE,,,
dig,119,477606,0.0-38.0-0.0,"""event"",""trial"",""time""
""fullscreenenter"",""1"",""4467""
""blur"",""3"",""27215""
""focus"",""4"",""33633""
""blur"",""43"",""241369""
""focus"",""43"",""247173""
","""event"",""trial"",""time""
""blur"",""3"",""27215""
""blur"",""43"",""241369""
","""event"",""trial"",""time""
""focus"",""4"",""33633""
""focus"",""43"",""247173""
","""event"",""trial"",""time""
""fullscreenenter"",""1"",""4467""
","
",,,,,,,,,,,,"[{""stimulus"":""run_exp/static/images/task_images/dig.jpg"",""time"":0.19999999552965164},{""stimulus"":""run_exp/static/images/task_images/land.jpg"",""time"":822.1999999955297},{""stimulus"":""run_exp/static/images/task_images/dig.jpg"",""time"":1636.6999999955297}]",[],5,,,,,,,,,,,,,,
harvest,120,478615,0.0-38.0-1.0,"""event"",""trial"",""time""
""fullscreenenter"",""1"",""4467""
""blur"",""3"",""27215""
""focus"",""4"",""33633""
""blur"",""43"",""241369""
""focus"",""43"",""247173""
","""event"",""trial"",""time""
""blur"",""3"",""27215""
""blur"",""43"",""241369""
","""event"",""trial"",""time""
""focus"",""4"",""33633""
""focus"",""43"",""247173""
","""event"",""trial"",""time""
""fullscreenenter"",""1"",""4467""
","
",,null,run_exp/static/images/task_images/gems/18.jpg,null,,,,,,,10,,,5,,,,,18,0.530973766,0.555555556,,,,,,,
decision,121,478832,0.0-38.0-2.0,"""event"",""trial"",""time""
""fullscreenenter"",""1"",""4467""
""blur"",""3"",""27215""
""focus"",""4"",""33633""
""blur"",""43"",""241369""
""focus"",""43"",""247173""
","""event"",""trial"",""time""
""blur"",""3"",""27215""
""blur"",""43"",""241369""
","""event"",""trial"",""time""
""focus"",""4"",""33633""
""focus"",""43"",""247173""
","""event"",""trial"",""time""
""fullscreenenter"",""1"",""4467""
","
",,214.7,run_exp/static/images/task_images/land.jpg,76,,,,,,,10,,,5,,,,,,,,127098,1,3,TRUE,,,
travel,122,488621,0.0-39.0-0.0,"""event"",""trial"",""time""
""fullscreenenter"",""1"",""4467""
""blur"",""3"",""27215""
""focus"",""4"",""33633""
""blur"",""43"",""241369""
""focus"",""43"",""247173""
","""event"",""trial"",""time""
""blur"",""3"",""27215""
""blur"",""43"",""241369""
","""event"",""trial"",""time""
""focus"",""4"",""33633""
""focus"",""43"",""247173""
","""event"",""trial"",""time""
""fullscreenenter"",""1"",""4467""
","
",,,,,,,,,,,,"[{""stimulus"":""run_exp/static/images/task_images/rocket-01.jpg"",""time"":0.19999999552965164},{""stimulus"":""run_exp/static/images/task_images/rocket-02.jpg"",""time"":1091.1999999955297},{""stimulus"":""run_exp/static/images/task_images/rocket-03.jpg"",""time"":2180.1999999955297},{""stimulus"":""run_exp/static/images/task_images/rocket-04.jpg"",""time"":3267.6999999955297},{""stimulus"":""run_exp/static/images/task_images/rocket-05.jpg"",""time"":4356.29999999702},{""stimulus"":""run_exp/static/images/task_images/rocket-06.jpg"",""time"":5444.19999999553},{""stimulus"":""run_exp/static/images/task_images/rocket-07.jpg"",""time"":6531.89999999851},{""stimulus"":""run_exp/static/images/task_images/rocket-08.jpg"",""time"":7620.39999999851},{""stimulus"":""run_exp/static/images/task_images/rocket-09.jpg"",""time"":8707.29999999702}]",[],5,,,,,,,,,,,,,,
alien_welcome,123,493632,0.0-39.0-1.0,"""event"",""trial"",""time""
""fullscreenenter"",""1"",""4467""
""blur"",""3"",""27215""
""focus"",""4"",""33633""
""blur"",""43"",""241369""
""focus"",""43"",""247173""
","""event"",""trial"",""time""
""blur"",""3"",""27215""
""blur"",""43"",""241369""
","""event"",""trial"",""time""
""focus"",""4"",""33633""
""focus"",""43"",""247173""
","""event"",""trial"",""time""
""fullscreenenter"",""1"",""4467""
","
",,null,run_exp/static/images/task_images/aliens/old_aliens/planet/alien_planet-31.jpg,null,,,,,,,,,,,,,31,"15,14,67,40,7,31,51,64,16,43,55,73,23,62,80,21,45,76,53,27,32,28,41,18,3,49,5,20,70,46,12,24,17,58,2,42,68,47,36,79,37,63,35,25,1,4,6,29",,,,,,,,,,
land,124,494141,0.0-39.0-2.0,"""event"",""trial"",""time""
""fullscreenenter"",""1"",""4467""
""blur"",""3"",""27215""
""focus"",""4"",""33633""
""blur"",""43"",""241369""
""focus"",""43"",""247173""
","""event"",""trial"",""time""
""blur"",""3"",""27215""
""blur"",""43"",""241369""
","""event"",""trial"",""time""
""focus"",""4"",""33633""
""focus"",""43"",""247173""
","""event"",""trial"",""time""
""fullscreenenter"",""1"",""4467""
","
",,null,run_exp/static/images/task_images/land.jpg,null,,,,,,,104,,,6,,,,,,,,,,,,,,
dig,125,496151,0.0-39.0-3.0,"""event"",""trial"",""time""
""fullscreenenter"",""1"",""4467""
""blur"",""3"",""27215""
""focus"",""4"",""33633""
""blur"",""43"",""241369""
""focus"",""43"",""247173""
","""event"",""trial"",""time""
""blur"",""3"",""27215""
""blur"",""43"",""241369""
","""event"",""trial"",""time""
""focus"",""4"",""33633""
""focus"",""43"",""247173""
","""event"",""trial"",""time""
""fullscreenenter"",""1"",""4467""
","
",,,,,,,,,,,,"[{""stimulus"":""run_exp/static/images/task_images/dig.jpg"",""time"":0.30000000447034836},{""stimulus"":""run_exp/static/images/task_images/land.jpg"",""time"":674},{""stimulus"":""run_exp/static/images/task_images/dig.jpg"",""time"":1336.3000000044703}]",[],6,,,,,,,,,,,,,,
harvest,126,497158,0.0-39.0-4.0,"""event"",""trial"",""time""
""fullscreenenter"",""1"",""4467""
""blur"",""3"",""27215""
""focus"",""4"",""33633""
""blur"",""43"",""241369""
""focus"",""43"",""247173""
","""event"",""trial"",""time""
""blur"",""3"",""27215""
""blur"",""43"",""241369""
","""event"",""trial"",""time""
""focus"",""4"",""33633""
""focus"",""43"",""247173""
","""event"",""trial"",""time""
""fullscreenenter"",""1"",""4467""
","
",,null,run_exp/static/images/task_images/gems/104.jpg,null,,,,,,,86,,,6,,,,,104,0.826905613,0.826923077,,,,,,,
decision,127,498259,0.0-39.0-5.0,"""event"",""trial"",""time""
""fullscreenenter"",""1"",""4467""
""blur"",""3"",""27215""
""focus"",""4"",""33633""
""blur"",""43"",""241369""
""focus"",""43"",""247173""
","""event"",""trial"",""time""
""blur"",""3"",""27215""
""blur"",""43"",""241369""
","""event"",""trial"",""time""
""focus"",""4"",""33633""
""focus"",""43"",""247173""
","""event"",""trial"",""time""
""fullscreenenter"",""1"",""4467""
","
",,1098.9,run_exp/static/images/task_images/land.jpg,65,,,,,,,86,,,6,,,,,,,,146525,1,0,FALSE,,,
dig,128,500167,0.0-40.0-0.0,"""event"",""trial"",""time""
""fullscreenenter"",""1"",""4467""
""blur"",""3"",""27215""
""focus"",""4"",""33633""
""blur"",""43"",""241369""
""focus"",""43"",""247173""
","""event"",""trial"",""time""
""blur"",""3"",""27215""
""blur"",""43"",""241369""
","""event"",""trial"",""time""
""focus"",""4"",""33633""
""focus"",""43"",""247173""
","""event"",""trial"",""time""
""fullscreenenter"",""1"",""4467""
","
",,,,,,,,,,,,"[{""stimulus"":""run_exp/static/images/task_images/dig.jpg"",""time"":0.29999999701976776},{""stimulus"":""run_exp/static/images/task_images/land.jpg"",""time"":640.7999999970198},{""stimulus"":""run_exp/static/images/task_images/dig.jpg"",""time"":1270.5}]",[],6,,,,,,,,,,,,,,
harvest,129,501176,0.0-40.0-1.0,"""event"",""trial"",""time""
""fullscreenenter"",""1"",""4467""
""blur"",""3"",""27215""
""focus"",""4"",""33633""
""blur"",""43"",""241369""
""focus"",""43"",""247173""
","""event"",""trial"",""time""
""blur"",""3"",""27215""
""blur"",""43"",""241369""
","""event"",""trial"",""time""
""focus"",""4"",""33633""
""focus"",""43"",""247173""
","""event"",""trial"",""time""
""fullscreenenter"",""1"",""4467""
","
",,null,run_exp/static/images/task_images/gems/86.jpg,null,,,,,,,56,,,6,,,,,86,0.653234671,0.651162791,,,,,,,
decision,130,501772,0.0-40.0-2.0,"""event"",""trial"",""time""
""fullscreenenter"",""1"",""4467""
""blur"",""3"",""27215""
""focus"",""4"",""33633""
""blur"",""43"",""241369""
""focus"",""43"",""247173""
","""event"",""trial"",""time""
""blur"",""3"",""27215""
""blur"",""43"",""241369""
","""event"",""trial"",""time""
""focus"",""4"",""33633""
""focus"",""43"",""247173""
","""event"",""trial"",""time""
""fullscreenenter"",""1"",""4467""
","
",,595,run_exp/static/images/task_images/land.jpg,65,,,,,,,56,,,6,,,,,,,,150038,1,1,FALSE,,,
dig,131,504183,0.0-41.0-0.0,"""event"",""trial"",""time""
""fullscreenenter"",""1"",""4467""
""blur"",""3"",""27215""
""focus"",""4"",""33633""
""blur"",""43"",""241369""
""focus"",""43"",""247173""
","""event"",""trial"",""time""
""blur"",""3"",""27215""
""blur"",""43"",""241369""
","""event"",""trial"",""time""
""focus"",""4"",""33633""
""focus"",""43"",""247173""
","""event"",""trial"",""time""
""fullscreenenter"",""1"",""4467""
","
",,,,,,,,,,,,"[{""stimulus"":""run_exp/static/images/task_images/dig.jpg"",""time"":0.10000000149011612},{""stimulus"":""run_exp/static/images/task_images/land.jpg"",""time"":807.1999999955297},{""stimulus"":""run_exp/static/images/task_images/dig.jpg"",""time"":1608.7999999970198}]",[],6,,,,,,,,,,,,,,
harvest,132,505192,0.0-41.0-1.0,"""event"",""trial"",""time""
""fullscreenenter"",""1"",""4467""
""blur"",""3"",""27215""
""focus"",""4"",""33633""
""blur"",""43"",""241369""
""focus"",""43"",""247173""
","""event"",""trial"",""time""
""blur"",""3"",""27215""
""blur"",""43"",""241369""
","""event"",""trial"",""time""
""focus"",""4"",""33633""
""focus"",""43"",""247173""
","""event"",""trial"",""time""
""fullscreenenter"",""1"",""4467""
","
",,null,run_exp/static/images/task_images/gems/56.jpg,null,,,,,,,49,,,6,,,,,56,0.867719114,0.875,,,,,,,
decision,133,505909,0.0-41.0-2.0,"""event"",""trial"",""time""
""fullscreenenter"",""1"",""4467""
""blur"",""3"",""27215""
""focus"",""4"",""33633""
""blur"",""43"",""241369""
""focus"",""43"",""247173""
","""event"",""trial"",""time""
""blur"",""3"",""27215""
""blur"",""43"",""241369""
","""event"",""trial"",""time""
""focus"",""4"",""33633""
""focus"",""43"",""247173""
","""event"",""trial"",""time""
""fullscreenenter"",""1"",""4467""
","
",,715.4,run_exp/static/images/task_images/land.jpg,76,,,,,,,49,,,6,,,,,,,,154175,1,2,TRUE,,,
travel,134,515197,0.0-42.0-0.0,"""event"",""trial"",""time""
""fullscreenenter"",""1"",""4467""
""blur"",""3"",""27215""
""focus"",""4"",""33633""
""blur"",""43"",""241369""
""focus"",""43"",""247173""
","""event"",""trial"",""time""
""blur"",""3"",""27215""
""blur"",""43"",""241369""
","""event"",""trial"",""time""
""focus"",""4"",""33633""
""focus"",""43"",""247173""
","""event"",""trial"",""time""
""fullscreenenter"",""1"",""4467""
","
",,,,,,,,,,,,"[{""stimulus"":""run_exp/static/images/task_images/rocket-01.jpg"",""time"":0.3999999985098839},{""stimulus"":""run_exp/static/images/task_images/rocket-02.jpg"",""time"":1040.8999999985099},{""stimulus"":""run_exp/static/images/task_images/rocket-03.jpg"",""time"":2070.89999999851},{""stimulus"":""run_exp/static/images/task_images/rocket-04.jpg"",""time"":3105.39999999851},{""stimulus"":""run_exp/static/images/task_images/rocket-05.jpg"",""time"":4129.20000000298},{""stimulus"":""run_exp/static/images/task_images/rocket-06.jpg"",""time"":5156.39999999851},{""stimulus"":""run_exp/static/images/task_images/rocket-07.jpg"",""time"":6193.39999999851},{""stimulus"":""run_exp/static/images/task_images/rocket-08.jpg"",""time"":7226},{""stimulus"":""run_exp/static/images/task_images/rocket-09.jpg"",""time"":8254.70000000298}]",[],6,,,,,,,,,,,,,,
alien_welcome,135,520206,0.0-42.0-1.0,"""event"",""trial"",""time""
""fullscreenenter"",""1"",""4467""
""blur"",""3"",""27215""
""focus"",""4"",""33633""
""blur"",""43"",""241369""
""focus"",""43"",""247173""
","""event"",""trial"",""time""
""blur"",""3"",""27215""
""blur"",""43"",""241369""
","""event"",""trial"",""time""
""focus"",""4"",""33633""
""focus"",""43"",""247173""
","""event"",""trial"",""time""
""fullscreenenter"",""1"",""4467""
","
",,null,run_exp/static/images/task_images/aliens/old_aliens/planet/alien_planet-51.jpg,null,,,,,,,,,,,,,51,"15,14,67,40,7,31,51,64,16,43,55,73,23,62,80,21,45,76,53,27,32,28,41,18,3,49,5,20,70,46,12,24,17,58,2,42,68,47,36,79,37,63,35,25,1,4,6,29",,,,,,,,,,
land,136,520711,0.0-42.0-2.0,"""event"",""trial"",""time""
""fullscreenenter"",""1"",""4467""
""blur"",""3"",""27215""
""focus"",""4"",""33633""
""blur"",""43"",""241369""
""focus"",""43"",""247173""
","""event"",""trial"",""time""
""blur"",""3"",""27215""
""blur"",""43"",""241369""
","""event"",""trial"",""time""
""focus"",""4"",""33633""
""focus"",""43"",""247173""
","""event"",""trial"",""time""
""fullscreenenter"",""1"",""4467""
","
",,null,run_exp/static/images/task_images/land.jpg,null,,,,,,,97,,,7,,,,,,,,,,,,,,
dig,137,522717,0.0-42.0-3.0,"""event"",""trial"",""time""
""fullscreenenter"",""1"",""4467""
""blur"",""3"",""27215""
""focus"",""4"",""33633""
""blur"",""43"",""241369""
""focus"",""43"",""247173""
","""event"",""trial"",""time""
""blur"",""3"",""27215""
""blur"",""43"",""241369""
","""event"",""trial"",""time""
""focus"",""4"",""33633""
""focus"",""43"",""247173""
","""event"",""trial"",""time""
""fullscreenenter"",""1"",""4467""
","
",,,,,,,,,,,,"[{""stimulus"":""run_exp/static/images/task_images/dig.jpg"",""time"":0.29999999701976776},{""stimulus"":""run_exp/static/images/task_images/land.jpg"",""time"":679.3999999985099},{""stimulus"":""run_exp/static/images/task_images/dig.jpg"",""time"":1340}]",[],7,,,,,,,,,,,,,,
harvest,138,523726,0.0-42.0-4.0,"""event"",""trial"",""time""
""fullscreenenter"",""1"",""4467""
""blur"",""3"",""27215""
""focus"",""4"",""33633""
""blur"",""43"",""241369""
""focus"",""43"",""247173""
","""event"",""trial"",""time""
""blur"",""3"",""27215""
""blur"",""43"",""241369""
","""event"",""trial"",""time""
""focus"",""4"",""33633""
""focus"",""43"",""247173""
","""event"",""trial"",""time""
""fullscreenenter"",""1"",""4467""
","
",,null,run_exp/static/images/task_images/gems/97.jpg,null,,,,,,,82,,,7,,,,,97,0.846752101,0.845360825,,,,,,,
decision,139,524468,0.0-42.0-5.0,"""event"",""trial"",""time""
""fullscreenenter"",""1"",""4467""
""blur"",""3"",""27215""
""focus"",""4"",""33633""
""blur"",""43"",""241369""
""focus"",""43"",""247173""
","""event"",""trial"",""time""
""blur"",""3"",""27215""
""blur"",""43"",""241369""
","""event"",""trial"",""time""
""focus"",""4"",""33633""
""focus"",""43"",""247173""
","""event"",""trial"",""time""
""fullscreenenter"",""1"",""4467""
","
",,740.5,run_exp/static/images/task_images/land.jpg,65,,,,,,,82,,,7,,,,,,,,172734,1,0,FALSE,,,
dig,140,526737,0.0-43.0-0.0,"""event"",""trial"",""time""
""fullscreenenter"",""1"",""4467""
""blur"",""3"",""27215""
""focus"",""4"",""33633""
""blur"",""43"",""241369""
""focus"",""43"",""247173""
","""event"",""trial"",""time""
""blur"",""3"",""27215""
""blur"",""43"",""241369""
","""event"",""trial"",""time""
""focus"",""4"",""33633""
""focus"",""43"",""247173""
","""event"",""trial"",""time""
""fullscreenenter"",""1"",""4467""
","
",,,,,,,,,,,,"[{""stimulus"":""run_exp/static/images/task_images/dig.jpg"",""time"":0.10000000149011612},{""stimulus"":""run_exp/static/images/task_images/land.jpg"",""time"":759.1999999955297},{""stimulus"":""run_exp/static/images/task_images/dig.jpg"",""time"":1511.5}]",[],7,,,,,,,,,,,,,,
harvest,141,527742,0.0-43.0-1.0,"""event"",""trial"",""time""
""fullscreenenter"",""1"",""4467""
""blur"",""3"",""27215""
""focus"",""4"",""33633""
""blur"",""43"",""241369""
""focus"",""43"",""247173""
","""event"",""trial"",""time""
""blur"",""3"",""27215""
""blur"",""43"",""241369""
","""event"",""trial"",""time""
""focus"",""4"",""33633""
""focus"",""43"",""247173""
","""event"",""trial"",""time""
""fullscreenenter"",""1"",""4467""
","
",,null,run_exp/static/images/task_images/gems/82.jpg,null,,,,,,,69,,,7,,,,,82,0.836944265,0.841463415,,,,,,,
decision,142,528149,0.0-43.0-2.0,"""event"",""trial"",""time""
""fullscreenenter"",""1"",""4467""
""blur"",""3"",""27215""
""focus"",""4"",""33633""
""blur"",""43"",""241369""
""focus"",""43"",""247173""
","""event"",""trial"",""time""
""blur"",""3"",""27215""
""blur"",""43"",""241369""
","""event"",""trial"",""time""
""focus"",""4"",""33633""
""focus"",""43"",""247173""
","""event"",""trial"",""time""
""fullscreenenter"",""1"",""4467""
","
",,406.1,run_exp/static/images/task_images/land.jpg,65,,,,,,,69,,,7,,,,,,,,176416,1,1,FALSE,,,
dig,143,530750,0.0-44.0-0.0,"""event"",""trial"",""time""
""fullscreenenter"",""1"",""4467""
""blur"",""3"",""27215""
""focus"",""4"",""33633""
""blur"",""43"",""241369""
""focus"",""43"",""247173""
","""event"",""trial"",""time""
""blur"",""3"",""27215""
""blur"",""43"",""241369""
","""event"",""trial"",""time""
""focus"",""4"",""33633""
""focus"",""43"",""247173""
","""event"",""trial"",""time""
""fullscreenenter"",""1"",""4467""
","
",,,,,,,,,,,,"[{""stimulus"":""run_exp/static/images/task_images/dig.jpg"",""time"":0.10000000149011612},{""stimulus"":""run_exp/static/images/task_images/land.jpg"",""time"":870.8999999985099},{""stimulus"":""run_exp/static/images/task_images/dig.jpg"",""time"":1733.2999999970198}]",[],7,,,,,,,,,,,,,,
harvest,144,531758,0.0-44.0-1.0,"""event"",""trial"",""time""
""fullscreenenter"",""1"",""4467""
""blur"",""3"",""27215""
""focus"",""4"",""33633""
""blur"",""43"",""241369""
""focus"",""43"",""247173""
","""event"",""trial"",""time""
""blur"",""3"",""27215""
""blur"",""43"",""241369""
","""event"",""trial"",""time""
""focus"",""4"",""33633""
""focus"",""43"",""247173""
","""event"",""trial"",""time""
""fullscreenenter"",""1"",""4467""
","
",,null,run_exp/static/images/task_images/gems/69.jpg,null,,,,,,,52,,,7,,,,,69,0.750347756,0.753623188,,,,,,,
decision,145,532708,0.0-44.0-2.0,"""event"",""trial"",""time""
""fullscreenenter"",""1"",""4467""
""blur"",""3"",""27215""
""focus"",""4"",""33633""
""blur"",""43"",""241369""
""focus"",""43"",""247173""
","""event"",""trial"",""time""
""blur"",""3"",""27215""
""blur"",""43"",""241369""
","""event"",""trial"",""time""
""focus"",""4"",""33633""
""focus"",""43"",""247173""
","""event"",""trial"",""time""
""fullscreenenter"",""1"",""4467""
","
",,948.2,run_exp/static/images/task_images/land.jpg,76,,,,,,,52,,,7,,,,,,,,180974,1,2,TRUE,,,
travel,146,541758,0.0-45.0-0.0,"""event"",""trial"",""time""
""fullscreenenter"",""1"",""4467""
""blur"",""3"",""27215""
""focus"",""4"",""33633""
""blur"",""43"",""241369""
""focus"",""43"",""247173""
","""event"",""trial"",""time""
""blur"",""3"",""27215""
""blur"",""43"",""241369""
","""event"",""trial"",""time""
""focus"",""4"",""33633""
""focus"",""43"",""247173""
","""event"",""trial"",""time""
""fullscreenenter"",""1"",""4467""
","
",,,,,,,,,,,,"[{""stimulus"":""run_exp/static/images/task_images/rocket-01.jpg"",""time"":0.10000000149011612},{""stimulus"":""run_exp/static/images/task_images/rocket-02.jpg"",""time"":1010.2000000029802},{""stimulus"":""run_exp/static/images/task_images/rocket-03.jpg"",""time"":2016.7000000029802},{""stimulus"":""run_exp/static/images/task_images/rocket-04.jpg"",""time"":3025.60000000149},{""stimulus"":""run_exp/static/images/task_images/rocket-05.jpg"",""time"":4026.2000000029802},{""stimulus"":""run_exp/static/images/task_images/rocket-06.jpg"",""time"":5031.4000000059605},{""stimulus"":""run_exp/static/images/task_images/rocket-07.jpg"",""time"":6032.70000000298},{""stimulus"":""run_exp/static/images/task_images/rocket-08.jpg"",""time"":7039.70000000298},{""stimulus"":""run_exp/static/images/task_images/rocket-09.jpg"",""time"":8046.60000000149}]",[],7,,,,,,,,,,,,,,
alien_welcome,147,546771,0.0-45.0-1.0,"""event"",""trial"",""time""
""fullscreenenter"",""1"",""4467""
""blur"",""3"",""27215""
""focus"",""4"",""33633""
""blur"",""43"",""241369""
""focus"",""43"",""247173""
","""event"",""trial"",""time""
""blur"",""3"",""27215""
""blur"",""43"",""241369""
","""event"",""trial"",""time""
""focus"",""4"",""33633""
""focus"",""43"",""247173""
","""event"",""trial"",""time""
""fullscreenenter"",""1"",""4467""
","
",,null,run_exp/static/images/task_images/aliens/old_aliens/planet/alien_planet-64.jpg,null,,,,,,,,,,,,,64,"15,14,67,40,7,31,51,64,16,43,55,73,23,62,80,21,45,76,53,27,32,28,41,18,3,49,5,20,70,46,12,24,17,58,2,42,68,47,36,79,37,63,35,25,1,4,6,29",,,,,,,,,,
land,148,547278,0.0-45.0-2.0,"""event"",""trial"",""time""
""fullscreenenter"",""1"",""4467""
""blur"",""3"",""27215""
""focus"",""4"",""33633""
""blur"",""43"",""241369""
""focus"",""43"",""247173""
","""event"",""trial"",""time""
""blur"",""3"",""27215""
""blur"",""43"",""241369""
","""event"",""trial"",""time""
""focus"",""4"",""33633""
""focus"",""43"",""247173""
","""event"",""trial"",""time""
""fullscreenenter"",""1"",""4467""
","
",,null,run_exp/static/images/task_images/land.jpg,null,,,,,,,94,,,8,,,,,,,,,,,,,,
dig,149,549289,0.0-45.0-3.0,"""event"",""trial"",""time""
""fullscreenenter"",""1"",""4467""
""blur"",""3"",""27215""
""focus"",""4"",""33633""
""blur"",""43"",""241369""
""focus"",""43"",""247173""
","""event"",""trial"",""time""
""blur"",""3"",""27215""
""blur"",""43"",""241369""
","""event"",""trial"",""time""
""focus"",""4"",""33633""
""focus"",""43"",""247173""
","""event"",""trial"",""time""
""fullscreenenter"",""1"",""4467""
","
