trial_type,trial_index,time_elapsed,internal_node_id,interactions,blur_events,focus_events,fullscreenenter_events,fullscreenexit_events,success,rt,stimulus,key_press,prompt,subject_id,participant_id,age,gender,button_pressed,next_reward,animation_sequence,responses,planet,curr_prac_trial,n_prac_rounds,alien,aliens,reward_received,decay_rate_actual,decay_rate_exp,time_in_block,block_num,prt,last_trial_on_planet,button_html,bonus,num_failures
pavlovia,0,5,0.0-0.0,"""event"",""trial"",""time""
""fullscreenenter"",""1"",""2075""
","
","
","""event"",""trial"",""time""
""fullscreenenter"",""1"",""2075""
","
",,,,,,,,,,,,,,,,,,,,,,,,,,,,
fullscreen,1,3035,0.0-1.0,"""event"",""trial"",""time""
""fullscreenenter"",""1"",""2075""
","
","
","""event"",""trial"",""time""
""fullscreenenter"",""1"",""2075""
","
",TRUE,,,,,,,,,,,,,,,,,,,,,,,,,,,
instruc_welcome,2,12779,0.0-2.0,"""event"",""trial"",""time""
""fullscreenenter"",""1"",""2075""
","
","
","""event"",""trial"",""time""
""fullscreenenter"",""1"",""2075""
","
",,null,run_exp/static/audio/clip_1_welcome.m4a,null,"<p>Howdy! In this experiment, you’ll be an explorer traveling through space to collect space treasure.</p><p>Your mission is to collect as much treasure as possible.</p><br><br><p><img src='run_exp/static/images/task_images/opening_img-01.jpg' height='300' width='auto'></p>",9367,171,9.38,Male,,,,,,,,,,,,,,,,,,,
audio-keyboard-response,3,29378,0.0-3.0,"""event"",""trial"",""time""
""fullscreenenter"",""1"",""2075""
","
","
","""event"",""trial"",""time""
""fullscreenenter"",""1"",""2075""
","
",,null,run_exp/static/audio/clip_2_move.m4a,null,,,,,,,,,,,,,,,,,,,,,,,,
welcome_dec,4,30349,0.0-4.0,"""event"",""trial"",""time""
""fullscreenenter"",""1"",""2075""
","
","
","""event"",""trial"",""time""
""fullscreenenter"",""1"",""2075""
","
",,966.4,"<p>Howdy! In this experiment, you’ll be an explorer traveling through space to collect space treasure.</p><p>Your mission is to collect as much treasure as possible.</p><br><br><p><img src='run_exp/static/images/task_images/opening_img-01.jpg' height='300' width='auto'></p>",,,,,,,0,,,,,,,,,,,,,,,,,,
html-keyboard-response,5,31826,0.0-5.0,"""event"",""trial"",""time""
""fullscreenenter"",""1"",""2075""
","
","
","""event"",""trial"",""time""
""fullscreenenter"",""1"",""2075""
","
",,1474.1,"<p>Howdy! In this experiment, you’ll be an explorer traveling through space to collect space treasure.</p><p>Your mission is to collect as much treasure as possible.</p><br><br><p><img src='run_exp/static/images/task_images/opening_img-01.jpg' height='300' width='auto'></p><button class=""jspsych-html-btn-chosen""><img src=""run_exp/static/images/task_images/planet-01.jpg"" height=""50""></button><button class=""jspsych-html-btn-unchosen""><img src=""run_exp/static/images/task_images/planet-02.jpg"" height=""50""></button><p><b>[press the space bar to lock in your answer]<b><br></p>",32,,,,,,,,,,,,,,,,,,,,,,,,
instruc_welcome,6,41578,0.0-6.0-0.0,"""event"",""trial"",""time""
""fullscreenenter"",""1"",""2075""
","
","
","""event"",""trial"",""time""
""fullscreenenter"",""1"",""2075""
","
",,null,run_exp/static/audio/clip_1_welcome.m4a,null,"<p>Howdy! In this experiment, you’ll be an explorer traveling through space to collect space treasure.</p><p>Your mission is to collect as much treasure as possible.</p><br><br><p><img src='run_exp/static/images/task_images/opening_img-01.jpg' height='300' width='auto'></p>",9367,171,9,Male,,,,,,,,,,,,,,,,,,,
audio-keyboard-response,7,58157,0.0-6.0-1.0,"""event"",""trial"",""time""
""fullscreenenter"",""1"",""2075""
","
","
","""event"",""trial"",""time""
""fullscreenenter"",""1"",""2075""
","
",,null,run_exp/static/audio/clip_2_move.m4a,null,,,,,,,,,,,,,,,,,,,,,,,,
welcome_dec,8,61764,0.0-6.0-2.0,"""event"",""trial"",""time""
""fullscreenenter"",""1"",""2075""
","
","
","""event"",""trial"",""time""
""fullscreenenter"",""1"",""2075""
","
",,3601.3,"<p>Howdy! In this experiment, you’ll be an explorer traveling through space to collect space treasure.</p><p>Your mission is to collect as much treasure as possible.</p><br><br><p><img src='run_exp/static/images/task_images/opening_img-01.jpg' height='300' width='auto'></p>",,,,,,,1,,,,,,,,,,,,,,,,,,
html-keyboard-response,9,62482,0.0-6.0-3.0,"""event"",""trial"",""time""
""fullscreenenter"",""1"",""2075""
","
","
","""event"",""trial"",""time""
""fullscreenenter"",""1"",""2075""
","
",,716.2,"<p>Howdy! In this experiment, you’ll be an explorer traveling through space to collect space treasure.</p><p>Your mission is to collect as much treasure as possible.</p><br><br><p><img src='run_exp/static/images/task_images/opening_img-01.jpg' height='300' width='auto'></p><button class=""jspsych-html-btn-unchosen""><img src=""run_exp/static/images/task_images/planet-01.jpg"" height=""50""></button><button class=""jspsych-html-btn-chosen""><img src=""run_exp/static/images/task_images/planet-02.jpg"" height=""50""></button><p><b>[press the space bar to lock in your answer]<b><br></p>",32,,,,,,,,,,,,,,,,,,,,,,,,
instruc_goal,10,72557,0.0-7.0-0.0,"""event"",""trial"",""time""
""fullscreenenter"",""1"",""2075""
","
","
","""event"",""trial"",""time""
""fullscreenenter"",""1"",""2075""
","
",,null,run_exp/static/audio/clip_3_goal.m4a,null,"<p> As a space explorer, you’ll visit different planets to dig for space treasure, these pink gems.</p> <p> The more treasure you dig up, the more bonus money you’ll win! </p><br><br><p><img src='run_exp/static/images/task_images/pink_gem.jpg' height='300' width='auto'></p>",,,,,,,,,,,,,,,,,,,,,,,
instruc_goal,11,76847,0.0-7.0-1.0,"""event"",""trial"",""time""
""fullscreenenter"",""1"",""2075""
","
","
","""event"",""trial"",""time""
""fullscreenenter"",""1"",""2075""
","
",,4285.5,"<p> As a space explorer, you’ll visit different planets to dig for space treasure, these pink gems.</p> <p> The more treasure you dig up, the more bonus money you’ll win! </p><br><br><p><img src='run_exp/static/images/task_images/pink_gem.jpg' height='300' width='auto'></p>",,,,,,,1,,,,,,,,,,,,,,,,,,
html-keyboard-response,12,77827,0.0-7.0-2.0,"""event"",""trial"",""time""
""fullscreenenter"",""1"",""2075""
","
","
","""event"",""trial"",""time""
""fullscreenenter"",""1"",""2075""
","
",,977.3,"<p> As a space explorer, you’ll visit different planets to dig for space treasure, these pink gems.</p> <p> The more treasure you dig up, the more bonus money you’ll win! </p><br><br><p><img src='run_exp/static/images/task_images/pink_gem.jpg' height='300' width='auto'></p><button class=""jspsych-html-btn-unchosen""><img src=""run_exp/static/images/task_images/planet-01.jpg"" height=""50""></button><button class=""jspsych-html-btn-chosen""><img src=""run_exp/static/images/task_images/planet-02.jpg"" height=""50""></button><p><b>[press the space bar to lock in your answer]<b><br></p>",32,,,,,,,,,,,,,,,,,,,,,,,,
instruc_dig,13,93837,0.0-8.0-0.0,"""event"",""trial"",""time""
""fullscreenenter"",""1"",""2075""
","
","
","""event"",""trial"",""time""
""fullscreenenter"",""1"",""2075""
","
",,null,run_exp/static/audio/clip_4_dig.m4a,null,,,,,,,100,,,,,,,,,,,,,,,,,
instruc_dig_try,14,94813,0.0-8.0-1.0,"""event"",""trial"",""time""
""fullscreenenter"",""1"",""2075""
","
","
","""event"",""trial"",""time""
""fullscreenenter"",""1"",""2075""
","
",,973.6,"<p> When you’ve arrived at a new planet, you will dig once. </p> <p>Then, you get to decide if you want to stay on the planet and dig again or travel to a new planet and dig there.</p> <p> To stay and dig, press the letter <strong>‘A’</strong> on your keyboard. Try pressing it now! </p><p><img src='run_exp/static/images/task_images/land.jpg'  height='700' width='auto'></p>",65,"<p> When you’ve arrived at a new planet, you will dig once. </p> <p>Then, you get to decide if you want to stay on the planet and dig again or travel to a new planet and dig there.</p> <p> To stay and dig, press the letter <strong>‘A’</strong> on your keyboard. Try pressing it now! </p><p><img src='run_exp/static/images/task_images/land.jpg'  height='700' width='auto'></p>",,,,,,100,,,,,,,,,,,,,,,,,
dig_prac,15,96831,0.0-8.0-2.0,"""event"",""trial"",""time""
""fullscreenenter"",""1"",""2075""
","
","
","""event"",""trial"",""time""
""fullscreenenter"",""1"",""2075""
","
",,,,,,,,,,,,"[{""stimulus"":""run_exp/static/images/task_images/dig.jpg"",""time"":0.5},{""stimulus"":""run_exp/static/images/task_images/land.jpg"",""time"":682.3999999761581},{""stimulus"":""run_exp/static/images/task_images/dig.jpg"",""time"":1336.1000000238419}]",[],,,,,,,,,,,,,,,
instruc_travel,16,133078,0.0-8.0-3.0,"""event"",""trial"",""time""
""fullscreenenter"",""1"",""2075""
","
","
","""event"",""trial"",""time""
""fullscreenenter"",""1"",""2075""
","
",,null,run_exp/static/audio/clip_5_travel.m4a,null,"<p>Every time you dig up gems, there are less gems on the planet, so the more you dig on a planet the fewer gems you’ll get with each dig.</p><p>When gems are running low, you may want to travel to a new planet. </p> <p>  Planets are very far apart in this galaxy, so it will take some time to travel between them. </p> <br><p>There are lots and lots of planets for you to visit, so you won’t be able to return to any planets you’ve seen before. </p><br><p>To leave this planet and travel to a new one, press the letter <strong>‘L’</strong> on your keyboard. Try pressing it now! </p><p><img src='run_exp/static/images/task_images/rocket-01.jpg'  height='600' width='auto'></p>",,,,,,,,,,,,,,,,,,,,,,,
instruc_travel_try,17,134603,0.0-8.0-4.0,"""event"",""trial"",""time""
""fullscreenenter"",""1"",""2075""
","
","
","""event"",""trial"",""time""
""fullscreenenter"",""1"",""2075""
","
",,1522.6,"<p>Every time you dig up gems, there are less gems on the planet, so the more you dig on a planet the fewer gems you’ll get with each dig.</p><p>When gems are running low, you may want to travel to a new planet. </p> <p>  Planets are very far apart in this galaxy, so it will take some time to travel between them. </p> <br><p>There are lots and lots of planets for you to visit, so you won’t be able to return to any planets you’ve seen before. </p><br><p>To leave this planet and travel to a new one, press the letter <strong>‘L’</strong> on your keyboard. Try pressing it now! </p><p><img src='run_exp/static/images/task_images/rocket-01.jpg'  height='600' width='auto'></p>",76,"<p>Every time you dig up gems, there are less gems on the planet, so the more you dig on a planet the fewer gems you’ll get with each dig.</p><p>When gems are running low, you may want to travel to a new planet. </p> <p>  Planets are very far apart in this galaxy, so it will take some time to travel between them. </p> <br><p>There are lots and lots of planets for you to visit, so you won’t be able to return to any planets you’ve seen before. </p><br><p>To leave this planet and travel to a new one, press the letter <strong>‘L’</strong> on your keyboard. Try pressing it now! </p><p><img src='run_exp/static/images/task_images/rocket-01.jpg'  height='600' width='auto'></p>",,,,,,,,,,,,,,,,,,,,,,,
travel_prac,18,144618,0.0-8.0-5.0,"""event"",""trial"",""time""
""fullscreenenter"",""1"",""2075""
","
","
","""event"",""trial"",""time""
""fullscreenenter"",""1"",""2075""
","
",,,,,,,,,,,,"[{""stimulus"":""run_exp/static/images/task_images/rocket-01.jpg"",""time"":0.3999999761581421},{""stimulus"":""run_exp/static/images/task_images/rocket-02.jpg"",""time"":1113},{""stimulus"":""run_exp/static/images/task_images/rocket-03.jpg"",""time"":2225.599999964237},{""stimulus"":""run_exp/static/images/task_images/rocket-04.jpg"",""time"":3334.800000011921},{""stimulus"":""run_exp/static/images/task_images/rocket-05.jpg"",""time"":4455.300000011921},{""stimulus"":""run_exp/static/images/task_images/rocket-06.jpg"",""time"":5568.599999964237},{""stimulus"":""run_exp/static/images/task_images/rocket-07.jpg"",""time"":6668.5},{""stimulus"":""run_exp/static/images/task_images/rocket-08.jpg"",""time"":7782.399999976158},{""stimulus"":""run_exp/static/images/task_images/rocket-09.jpg"",""time"":8904.699999988079}]",[],0,,,,,,,,,,,,,,
instruc_alien_greet,19,171807,0.0-8.0-6.0,"""event"",""trial"",""time""
""fullscreenenter"",""1"",""2075""
","
","
","""event"",""trial"",""time""
""fullscreenenter"",""1"",""2075""
","
",,null,run_exp/static/audio/clip_6_alien.m4a,null,"<p>When you arrive at a new planet, the alien who owns the treasure mine on that planet will greet you!</p><p>The better an alien takes care of their mine the easier it is to dig for gems. Some aliens take better care of their mine than others. So, you won’t get exactly the same amount of gems on each planet.</p><p>What the alien looks like does not tell you anything about how many gems there are on the planet.</p><br><p><img src=""run_exp/static/images/task_images/aliens/instructions_aliens/planet/alien_planet-1.jpg""  height=""600"" width=""auto""></p>",,,,,,,,,,,,,,,,,,,,,,,
instruc_alien_greet,20,174157,0.0-8.0-7.0,"""event"",""trial"",""time""
""fullscreenenter"",""1"",""2075""
","
","
","""event"",""trial"",""time""
""fullscreenenter"",""1"",""2075""
","
",,2346.3,"<p>When you arrive at a new planet, the alien who owns the treasure mine on that planet will greet you!</p><p>The better an alien takes care of their mine the easier it is to dig for gems. Some aliens take better care of their mine than others. So, you won’t get exactly the same amount of gems on each planet.</p><p>What the alien looks like does not tell you anything about how many gems there are on the planet.</p><br><p><img src=""run_exp/static/images/task_images/aliens/instructions_aliens/planet/alien_planet-1.jpg""  height=""600"" width=""auto""></p>",,,,,,,1,,,,,,,,,,,,,,,,,,
html-keyboard-response,21,174904,0.0-8.0-8.0,"""event"",""trial"",""time""
""fullscreenenter"",""1"",""2075""
","
","
","""event"",""trial"",""time""
""fullscreenenter"",""1"",""2075""
","
",,744.9,"<p>When you arrive at a new planet, the alien who owns the treasure mine on that planet will greet you!</p><p>The better an alien takes care of their mine the easier it is to dig for gems. Some aliens take better care of their mine than others. So, you won’t get exactly the same amount of gems on each planet.</p><p>What the alien looks like does not tell you anything about how many gems there are on the planet.</p><br><p><img src=""run_exp/static/images/task_images/aliens/instructions_aliens/planet/alien_planet-1.jpg""  height=""600"" width=""auto""></p><button class=""jspsych-html-btn-unchosen""><img src=""run_exp/static/images/task_images/planet-01.jpg"" height=""50""></button><button class=""jspsych-html-btn-chosen""><img src=""run_exp/static/images/task_images/planet-02.jpg"" height=""50""></button><p><b>[press the space bar to lock in your answer]<b><br></p>",32,,,,,,,,,,,,,,,,,,,,,,,,
time_out,22,186008,0.0-9.0-0.0,"""event"",""trial"",""time""
""fullscreenenter"",""1"",""2075""
","
","
","""event"",""trial"",""time""
""fullscreenenter"",""1"",""2075""
","
",,null,run_exp/static/audio/clip_7_timeout.m4a,null,"<p>If you don't make your choice fast enough, you’ll have to wait a few seconds before you can make another one.</p><p>You can’t dig for more gems or travel to new planets. You just have to sit and wait.</p><br><p><img src='run_exp/static/images/task_images/time_out.jpg'  height='600' width='auto'></p>",,,,,,,,,,,,,,,,,,,,,,,
time_out,23,188239,0.0-9.0-1.0,"""event"",""trial"",""time""
""fullscreenenter"",""1"",""2075""
","
","
","""event"",""trial"",""time""
""fullscreenenter"",""1"",""2075""
","
",,2228.2,"<p>If you don't make your choice fast enough, you’ll have to wait a few seconds before you can make another one.</p><p>You can’t dig for more gems or travel to new planets. You just have to sit and wait.</p><br><p><img src='run_exp/static/images/task_images/time_out.jpg'  height='600' width='auto'></p>",,,,,,,1,,,,,,,,,,,,,,,,,,
html-keyboard-response,24,189524,0.0-9.0-2.0,"""event"",""trial"",""time""
""fullscreenenter"",""1"",""2075""
","
","
","""event"",""trial"",""time""
""fullscreenenter"",""1"",""2075""
","
",,1282.4,"<p>If you don't make your choice fast enough, you’ll have to wait a few seconds before you can make another one.</p><p>You can’t dig for more gems or travel to new planets. You just have to sit and wait.</p><br><p><img src='run_exp/static/images/task_images/time_out.jpg'  height='600' width='auto'></p><button class=""jspsych-html-btn-unchosen""><img src=""run_exp/static/images/task_images/planet-01.jpg"" height=""50""></button><button class=""jspsych-html-btn-chosen""><img src=""run_exp/static/images/task_images/planet-02.jpg"" height=""50""></button><p><b>[press the space bar to lock in your answer]<b><br></p>",32,,,,,,,,,,,,,,,,,,,,,,,,
instruc_break,25,205207,0.0-10.0-0.0,"""event"",""trial"",""time""
""fullscreenenter"",""1"",""2075""
","
","
","""event"",""trial"",""time""
""fullscreenenter"",""1"",""2075""
","
",,null,run_exp/static/audio/clip_8_break.m4a,null,"<p> After digging and traveling for a while, you’ll be able to take a break at home base. </p><p>The game will last 20 minutes no matter what.</p><p>You will visit home base every 5 minutes, so, you will visit home base three times during the game.</p><br><p><img src='run_exp/static/images/task_images/home_base.jpg' height='600' width='auto'></p>",,,,,,,,,,,,,,,,,,,,,,,
instruc_break,26,223267,0.0-10.0-1.0,"""event"",""trial"",""time""
""fullscreenenter"",""1"",""2075""
","
","
","""event"",""trial"",""time""
""fullscreenenter"",""1"",""2075""
","
",,18057.8,"<p> After digging and traveling for a while, you’ll be able to take a break at home base. </p><p>The game will last 20 minutes no matter what.</p><p>You will visit home base every 5 minutes, so, you will visit home base three times during the game.</p><br><p><img src='run_exp/static/images/task_images/home_base.jpg' height='600' width='auto'></p>",,,,,,,1,,,,,,,,,,,,,,,,,,
html-keyboard-response,27,224019,0.0-10.0-2.0,"""event"",""trial"",""time""
""fullscreenenter"",""1"",""2075""
","
","
","""event"",""trial"",""time""
""fullscreenenter"",""1"",""2075""
","
",,750.7,"<p> After digging and traveling for a while, you’ll be able to take a break at home base. </p><p>The game will last 20 minutes no matter what.</p><p>You will visit home base every 5 minutes, so, you will visit home base three times during the game.</p><br><p><img src='run_exp/static/images/task_images/home_base.jpg' height='600' width='auto'></p><button class=""jspsych-html-btn-unchosen""><img src=""run_exp/static/images/task_images/planet-01.jpg"" height=""50""></button><button class=""jspsych-html-btn-chosen""><img src=""run_exp/static/images/task_images/planet-02.jpg"" height=""50""></button><p><b>[press the space bar to lock in your answer]<b><br></p>",32,,,,,,,,,,,,,,,,,,,,,,,,
instruc_prac_game,28,234312,0.0-11.0-0.0,"""event"",""trial"",""time""
""fullscreenenter"",""1"",""2075""
","
","
","""event"",""trial"",""time""
""fullscreenenter"",""1"",""2075""
","
",,null,run_exp/static/audio/clip_9_practice.m4a,null,"<p> Are you ready to play a practice game? </p> <p>In this practice game, you'll be digging up barrels of gems. But, in the real game, you'll be digging up the gems themselves. </p>",,,,,,,,,,,,,,,,,,,,,,,
html-button-response,29,236949,0.0-11.0-1.0,"""event"",""trial"",""time""
""fullscreenenter"",""1"",""2075""
","
","
","""event"",""trial"",""time""
""fullscreenenter"",""1"",""2075""
","
",,2634.2,"<p> Are you ready to play a practice game? </p> <p>In this practice game, you'll be digging up barrels of gems. But, in the real game, you'll be digging up the gems themselves. </p>",,,,,,,0,,,,,,,,,,,,,,,,,,
alien_welcome_prac,30,241956,0.0-12.0-0.0,"""event"",""trial"",""time""
""fullscreenenter"",""1"",""2075""
","
","
","""event"",""trial"",""time""
""fullscreenenter"",""1"",""2075""
","
",,null,run_exp/static/images/task_images/aliens/practice_aliens/planet/alien_planet-5.jpg,null,,,,,,,,,,,,,,,,,,,,,,,,
land_prac,31,242467,0.0-12.0-1.0,"""event"",""trial"",""time""
""fullscreenenter"",""1"",""2075""
","
","
","""event"",""trial"",""time""
""fullscreenenter"",""1"",""2075""
","
",,null,run_exp/static/images/task_images/land.jpg,null,,,,,,,107,,,0,,,,,,,,,,,,,,
dig_prac,32,244475,0.0-12.0-2.0,"""event"",""trial"",""time""
""fullscreenenter"",""1"",""2075""
","
","
","""event"",""trial"",""time""
""fullscreenenter"",""1"",""2075""
","
",,,,,,,,,,,,"[{""stimulus"":""run_exp/static/images/task_images/dig.jpg"",""time"":0.40000003576278687},{""stimulus"":""run_exp/static/images/task_images/land.jpg"",""time"":682.1999999880791},{""stimulus"":""run_exp/static/images/task_images/dig.jpg"",""time"":1337.6000000238419}]",[],,,,,,,,,,,,,,,
harvest_prac,33,245490,0.0-12.0-3.0,"""event"",""trial"",""time""
""fullscreenenter"",""1"",""2075""
","
","
","""event"",""trial"",""time""
""fullscreenenter"",""1"",""2075""
","
",,null,run_exp/static/images/task_images/barrel_text.jpg,null,,,,,,,,,,,,,,,,,,,,,,,,
decision_prac,34,247048,0.0-12.0-4.0,"""event"",""trial"",""time""
""fullscreenenter"",""1"",""2075""
","
","
","""event"",""trial"",""time""
""fullscreenenter"",""1"",""2075""
","
",,1556.2,run_exp/static/images/task_images/land.jpg,65,,,,,,,,,,,1,,,,,,,,,,,,,
dig_prac,35,249056,0.0-13.0-0.0,"""event"",""trial"",""time""
""fullscreenenter"",""1"",""2075""
","
","
","""event"",""trial"",""time""
""fullscreenenter"",""1"",""2075""
","
",,,,,,,,,,,,"[{""stimulus"":""run_exp/static/images/task_images/dig.jpg"",""time"":0.19999998807907104},{""stimulus"":""run_exp/static/images/task_images/land.jpg"",""time"":682},{""stimulus"":""run_exp/static/images/task_images/dig.jpg"",""time"":1338}]",[],,,,,,,,,,,,,,,
harvest_prac,36,250058,0.0-13.0-1.0,"""event"",""trial"",""time""
""fullscreenenter"",""1"",""2075""
","
","
","""event"",""trial"",""time""
""fullscreenenter"",""1"",""2075""
","
",,null,run_exp/static/images/task_images/barrel_text.jpg,null,,,,,,,,,,,,,,,,,,,,,,,,
decision_prac,37,250202,0.0-13.0-2.0,"""event"",""trial"",""time""
""fullscreenenter"",""1"",""2075""
","
","
","""event"",""trial"",""time""
""fullscreenenter"",""1"",""2075""
","
",,143.8,run_exp/static/images/task_images/land.jpg,65,,,,,,,,,,,2,,,,,,,,,,,,,
dig_prac,38,252213,0.0-14.0-0.0,"""event"",""trial"",""time""
""fullscreenenter"",""1"",""2075""
","
","
","""event"",""trial"",""time""
""fullscreenenter"",""1"",""2075""
","
",,,,,,,,,,,,"[{""stimulus"":""run_exp/static/images/task_images/dig.jpg"",""time"":0.19999998807907104},{""stimulus"":""run_exp/static/images/task_images/land.jpg"",""time"":679},{""stimulus"":""run_exp/static/images/task_images/dig.jpg"",""time"":1338.3999999761581}]",[],,,,,,,,,,,,,,,
harvest_prac,39,253216,0.0-14.0-1.0,"""event"",""trial"",""time""
""fullscreenenter"",""1"",""2075""
","
","
","""event"",""trial"",""time""
""fullscreenenter"",""1"",""2075""
","
",,null,run_exp/static/images/task_images/barrel_text.jpg,null,,,,,,,,,,,,,,,,,,,,,,,,
decision_prac,40,254477,0.0-14.0-2.0,"""event"",""trial"",""time""
""fullscreenenter"",""1"",""2075""
","
","
","""event"",""trial"",""time""
""fullscreenenter"",""1"",""2075""
","
",,1259.8,run_exp/static/images/task_images/land.jpg,76,,,,,,,,,,,3,,,,,,,,,,,,,
travel,41,263229,0.0-15.0-0.0,"""event"",""trial"",""time""
""fullscreenenter"",""1"",""2075""
","
","
","""event"",""trial"",""time""
""fullscreenenter"",""1"",""2075""
","
",,,,,,,,,,,,"[{""stimulus"":""run_exp/static/images/task_images/rocket-01.jpg"",""time"":0.19999998807907104},{""stimulus"":""run_exp/static/images/task_images/rocket-02.jpg"",""time"":974.3000000119209},{""stimulus"":""run_exp/static/images/task_images/rocket-03.jpg"",""time"":1943.800000011921},{""stimulus"":""run_exp/static/images/task_images/rocket-04.jpg"",""time"":2921.899999976158},{""stimulus"":""run_exp/static/images/task_images/rocket-05.jpg"",""time"":3893.199999988079},{""stimulus"":""run_exp/static/images/task_images/rocket-06.jpg"",""time"":4857.699999988079},{""stimulus"":""run_exp/static/images/task_images/rocket-07.jpg"",""time"":5836.099999964237},{""stimulus"":""run_exp/static/images/task_images/rocket-08.jpg"",""time"":6801.899999976158},{""stimulus"":""run_exp/static/images/task_images/rocket-09.jpg"",""time"":7769.599999964237}]",[],0,,,,,,,,,,,,,,
alien_welcome_prac,42,268232,0.0-15.0-1.0,"""event"",""trial"",""time""
""fullscreenenter"",""1"",""2075""
","
","
","""event"",""trial"",""time""
""fullscreenenter"",""1"",""2075""
","
",,null,run_exp/static/images/task_images/aliens/practice_aliens/planet/alien_planet-4.jpg,null,,,,,,,,,,,,,,,,,,,,,,,,
land_prac,43,268743,0.0-15.0-2.0,"""event"",""trial"",""time""
""fullscreenenter"",""1"",""2075""
","
","
","""event"",""trial"",""time""
""fullscreenenter"",""1"",""2075""
","
",,null,run_exp/static/images/task_images/land.jpg,null,,,,,,,95,,,0,,,,,,,,,,,,,,
dig_prac,44,270760,0.0-15.0-3.0,"""event"",""trial"",""time""
""fullscreenenter"",""1"",""2075""
","
","
","""event"",""trial"",""time""
""fullscreenenter"",""1"",""2075""
","
",,,,,,,,,,,,"[{""stimulus"":""run_exp/static/images/task_images/dig.jpg"",""time"":0.30000001192092896},{""stimulus"":""run_exp/static/images/task_images/land.jpg"",""time"":672.5},{""stimulus"":""run_exp/static/images/task_images/dig.jpg"",""time"":1346.699999988079}]",[],,,,,,,,,,,,,,,
harvest_prac,45,271774,0.0-15.0-4.0,"""event"",""trial"",""time""
""fullscreenenter"",""1"",""2075""
","
","
","""event"",""trial"",""time""
""fullscreenenter"",""1"",""2075""
","
",,null,run_exp/static/images/task_images/barrel_text.jpg,null,,,,,,,,,,,,,,,,,,,,,,,,
decision_prac,46,273709,0.0-15.0-5.0,"""event"",""trial"",""time""
""fullscreenenter"",""1"",""2075""
","
","
","""event"",""trial"",""time""
""fullscreenenter"",""1"",""2075""
","
",,1932.9,run_exp/static/images/task_images/land.jpg,76,,,,,,,,,,,4,,,,,,,,,,,,,
travel,47,281787,0.0-16.0-0.0,"""event"",""trial"",""time""
""fullscreenenter"",""1"",""2075""
","
","
","""event"",""trial"",""time""
""fullscreenenter"",""1"",""2075""
","
",,,,,,,,,,,,"[{""stimulus"":""run_exp/static/images/task_images/rocket-01.jpg"",""time"":0.5},{""stimulus"":""run_exp/static/images/task_images/rocket-02.jpg"",""time"":897.8000000119209},{""stimulus"":""run_exp/static/images/task_images/rocket-03.jpg"",""time"":1794.5},{""stimulus"":""run_exp/static/images/task_images/rocket-04.jpg"",""time"":2690.099999964237},{""stimulus"":""run_exp/static/images/task_images/rocket-05.jpg"",""time"":3595.599999964237},{""stimulus"":""run_exp/static/images/task_images/rocket-06.jpg"",""time"":4496.599999964237},{""stimulus"":""run_exp/static/images/task_images/rocket-07.jpg"",""time"":5386.199999988079},{""stimulus"":""run_exp/static/images/task_images/rocket-08.jpg"",""time"":6274.5},{""stimulus"":""run_exp/static/images/task_images/rocket-09.jpg"",""time"":7178.899999976158}]",[],0,,,,,,,,,,,,,,
alien_welcome_prac,48,286795,0.0-16.0-1.0,"""event"",""trial"",""time""
""fullscreenenter"",""1"",""2075""
","
","
","""event"",""trial"",""time""
""fullscreenenter"",""1"",""2075""
","
",,null,run_exp/static/images/task_images/aliens/practice_aliens/planet/alien_planet-3.jpg,null,,,,,,,,,,,,,,,,,,,,,,,,
land_prac,49,287311,0.0-16.0-2.0,"""event"",""trial"",""time""
""fullscreenenter"",""1"",""2075""
","
","
","""event"",""trial"",""time""
""fullscreenenter"",""1"",""2075""
","
",,null,run_exp/static/images/task_images/land.jpg,null,,,,,,,112,,,0,,,,,,,,,,,,,,
dig_prac,50,289326,0.0-16.0-3.0,"""event"",""trial"",""time""
""fullscreenenter"",""1"",""2075""
","
","
","""event"",""trial"",""time""
""fullscreenenter"",""1"",""2075""
","
",,,,,,,,,,,,"[{""stimulus"":""run_exp/static/images/task_images/dig.jpg"",""time"":0.3999999761581421},{""stimulus"":""run_exp/static/images/task_images/land.jpg"",""time"":669.3000000119209},{""stimulus"":""run_exp/static/images/task_images/dig.jpg"",""time"":1337.699999988079}]",[],,,,,,,,,,,,,,,
harvest_prac,51,290331,0.0-16.0-4.0,"""event"",""trial"",""time""
""fullscreenenter"",""1"",""2075""
","
","
","""event"",""trial"",""time""
""fullscreenenter"",""1"",""2075""
","
",,null,run_exp/static/images/task_images/barrel_text.jpg,null,,,,,,,,,,,,,,,,,,,,,,,,
decision_prac,52,290516,0.0-16.0-5.0,"""event"",""trial"",""time""
""fullscreenenter"",""1"",""2075""
","
","
","""event"",""trial"",""time""
""fullscreenenter"",""1"",""2075""
","
",,183.6,run_exp/static/images/task_images/land.jpg,65,,,,,,,,,,,,1,,,,,,,,,,,,
quiz_instruc,53,293539,0.0-17.0-0.0,"""event"",""trial"",""time""
""fullscreenenter"",""1"",""2075""
","
","
","""event"",""trial"",""time""
""fullscreenenter"",""1"",""2075""
","
",,3016.9,run_exp/static/audio/clip_10_quiz.m4a,,,,,,,0,,,,,,,,,,,,,,,,,,
instruc_repeat,54,336322,0.0-17.0-1.0,"""event"",""trial"",""time""
""fullscreenenter"",""1"",""2075""
","
","
","""event"",""trial"",""time""
""fullscreenenter"",""1"",""2075""
","
",,null,"<p> Are you ready to play a practice game? </p> <p>In this practice game, you'll be digging up barrels of gems. But, in the real game, you'll be digging up the gems themselves. </p>",null,"<p>In this game, your goal is to collect as many gems as you can. That’s how you will win bonus money. </p> <p>The entire game will last 20 minutes no matter how many gems you collect or how many planets you visit. </p><p>To stay on a planet and dig again, press the letter A on your keyboard. To leave for a new planet, press the letter L.</p><p>The more you dig on a planet, the fewer gems you’ll get with each dig which is why you might consider leaving for a new planet. </p><p>When you arrive at a new planet, you’ll be greeted by an alien. What the alien looks like does not tell you anything about how much treasure is on the planet. </p>",,,,,,,,,,,,,,,,,,,,,,,
instruc_repeat_continue,55,337524,0.0-17.0-2.0,"""event"",""trial"",""time""
""fullscreenenter"",""1"",""2075""
","
","
","""event"",""trial"",""time""
""fullscreenenter"",""1"",""2075""
","
",,1200.4,"<p> Are you ready to play a practice game? </p> <p>In this practice game, you'll be digging up barrels of gems. But, in the real game, you'll be digging up the gems themselves. </p>",,,,,,,0,,,,,,,,,,,,,,,,,,
quiz_q_1_ask,56,342875,0.0-17.0-3.0,"""event"",""trial"",""time""
""fullscreenenter"",""1"",""2075""
","
","
","""event"",""trial"",""time""
""fullscreenenter"",""1"",""2075""
","
",,5348.5,run_exp/static/audio/clip_11_q1_ask.m4a,,,,,,,2,,,,,,,,,,,,,,,,,,
quiz_q_1_fb_correct,57,346742,0.0-18.0-0.0,"""event"",""trial"",""time""
""fullscreenenter"",""1"",""2075""
","
","
","""event"",""trial"",""time""
""fullscreenenter"",""1"",""2075""
","
",,null,run_exp/static/audio/clip_12_q1_correct.m4a,null,<p>That’s correct. You win extra money by collecting more gems.</p>,,,,,,,,,,,,,,,,,,,,,,,
quiz_q_2_ask,58,353215,0.0-18.0-1.0,"""event"",""trial"",""time""
""fullscreenenter"",""1"",""2075""
","
","
","""event"",""trial"",""time""
""fullscreenenter"",""1"",""2075""
","
",,6469.9,run_exp/static/audio/clip_14_q2_ask.m4a,,,,,,,1,,,,,,,,,,,,,,,,,,
quiz_q_2_fb_correct,59,357242,0.0-19.0-0.0,"""event"",""trial"",""time""
""fullscreenenter"",""1"",""2075""
","
","
","""event"",""trial"",""time""
""fullscreenenter"",""1"",""2075""
","
",,null,run_exp/static/audio/clip_15_q2_correct.m4a,null,<p>That’s correct. The experiment is 20 minutes no matter what.</p>,,,,,,,,,,,,,,,,,,,,,,,
quiz_q_3_ask,60,361149,0.0-19.0-1.0,"""event"",""trial"",""time""
""fullscreenenter"",""1"",""2075""
","
","
","""event"",""trial"",""time""
""fullscreenenter"",""1"",""2075""
","
",,3905.1,run_exp/static/audio/clip_17_q3_ask.m4a,,,,,,,1,,,,,,,,,,,,,,,,,,
quiz_q_3_fb_correct,61,365143,0.0-20.0-0.0,"""event"",""trial"",""time""
""fullscreenenter"",""1"",""2075""
","
","
","""event"",""trial"",""time""
""fullscreenenter"",""1"",""2075""
","
",,null,run_exp/static/audio/clip_18_q3_correct.m4a,null,<p> That’s correct. You press the letter L to travel to a new planet.</p>,,,,,,,,,,,,,,,,,,,,,,,
quiz_q_4_ask,62,370114,0.0-20.0-1.0,"""event"",""trial"",""time""
""fullscreenenter"",""1"",""2075""
","
","
","""event"",""trial"",""time""
""fullscreenenter"",""1"",""2075""
","
",,4969.2,run_exp/static/audio/clip_20_q4_ask.m4a,,,,,,,0,,,,,,,,,,,,,,,,,,
quiz_q_4_fb_correct,63,375442,0.0-21.0-0.0,"""event"",""trial"",""time""
""fullscreenenter"",""1"",""2075""
","
","
","""event"",""trial"",""time""
""fullscreenenter"",""1"",""2075""
","
",,null,run_exp/static/audio/clip_21_q4_correct.m4a,null,<p> That’s correct. The more you dig on a planet the fewer gems you’ll get with each dig. </p>,,,,,,,,,,,,,,,,,,,,,,,
quiz_q_5_ask,64,379278,0.0-21.0-1.0,"""event"",""trial"",""time""
""fullscreenenter"",""1"",""2075""
","
","
","""event"",""trial"",""time""
""fullscreenenter"",""1"",""2075""
","
",,3832.5,run_exp/static/audio/clip_23_q5_ask.m4a,,,,,,,1,,,,,,,,,,,,,,,,,,
quiz_q_5_fb_correct,65,384303,0.0-22.0-0.0,"""event"",""trial"",""time""
""fullscreenenter"",""1"",""2075""
","
","
","""event"",""trial"",""time""
""fullscreenenter"",""1"",""2075""
","
",,null,run_exp/static/audio/clip_24_q5_correct.m4a,null,<p> That’s correct. The alien tells you nothing about how much treasure is on the planet.</p>,,,,,,,,,,,,,,,,,,,,,,,
quiz_correct,66,387783,0.0-23.0-0.0,"""event"",""trial"",""time""
""fullscreenenter"",""1"",""2075""
","
","
","""event"",""trial"",""time""
""fullscreenenter"",""1"",""2075""
","
",,null,run_exp/static/audio/clip_26_correct_quiz.m4a,null,,,,,,,,,,,,,,,,,,,,,,,,
quiz_correct_continue,67,389080,0.0-23.0-1.0,"""event"",""trial"",""time""
""fullscreenenter"",""1"",""2075""
","
","
","""event"",""trial"",""time""
""fullscreenenter"",""1"",""2075""
","
",,1296.2,<p>Good job! You're now ready to move on to the real game!</p>,,,,,,,0,,,,,,,,,,,,,,,,,,
audio-keyboard-response,68,399223,0.0-23.0-2.0,"""event"",""trial"",""time""
""fullscreenenter"",""1"",""2075""
","
","
","""event"",""trial"",""time""
""fullscreenenter"",""1"",""2075""
","
",,null,run_exp/static/audio/clip_28_real_game.m4a,null,,,,,,,,,,,,,,,,,,,,,,,,
instruc_begin_exp_contine,69,406380,0.0-23.0-3.0,"""event"",""trial"",""time""
""fullscreenenter"",""1"",""2075""
","
","
","""event"",""trial"",""time""
""fullscreenenter"",""1"",""2075""
","
",,7154.9,"<p>Now that you know how  to dig for space treasure and travel to new planets,you can start exploring! </p><p>Do you want to go over the instructions again or get started with the real game?</p>",,,,,,,1,,,,,,1,,,,,,,,,,,,
alien_welcome,70,411400,0.0-24.0-0.0,"""event"",""trial"",""time""
""fullscreenenter"",""1"",""2075""
","
","
","""event"",""trial"",""time""
""fullscreenenter"",""1"",""2075""
","
",,null,run_exp/static/images/task_images/aliens/old_aliens/planet/alien_planet-34.jpg,null,,,,,,,,,,,,,34,"34,37,40,13,49,50,2,3,69,65,56,22,54,76,11,43,21,35,41,15,23,20,9,26,77,19,8,73,75,63,17,78,5,66,38,59,39,16",,,,,,,,,,
land,71,411908,0.0-24.0-1.0,"""event"",""trial"",""time""
""fullscreenenter"",""1"",""2075""
","
","
","""event"",""trial"",""time""
""fullscreenenter"",""1"",""2075""
","
",,null,run_exp/static/images/task_images/land.jpg,null,,,,,,,97,,,1,,,,,,,,,,,,,,
dig,72,413923,0.0-24.0-2.0,"""event"",""trial"",""time""
""fullscreenenter"",""1"",""2075""
","
","
","""event"",""trial"",""time""
""fullscreenenter"",""1"",""2075""
","
",,,,,,,,,,,,"[{""stimulus"":""run_exp/static/images/task_images/dig.jpg"",""time"":0.3999999761581421},{""stimulus"":""run_exp/static/images/task_images/land.jpg"",""time"":683},{""stimulus"":""run_exp/static/images/task_images/dig.jpg"",""time"":1339.8999999761581}]",[],1,,,,,,,,,,,,,,
harvest,73,414941,0.0-24.0-3.0,"""event"",""trial"",""time""
""fullscreenenter"",""1"",""2075""
","
","
","""event"",""trial"",""time""
""fullscreenenter"",""1"",""2075""
","
",,null,run_exp/static/images/task_images/gems/97.jpg,null,,,,,,,15,,,1,,,,,97,0.157831274,0.154639175,,,,,,,
decision,74,416555,0.0-24.0-4.0,"""event"",""trial"",""time""
""fullscreenenter"",""1"",""2075""
","
","
","""event"",""trial"",""time""
""fullscreenenter"",""1"",""2075""
","
",,1611.8,run_exp/static/images/task_images/land.jpg,65,,,,,,,15,,,1,,,,,,,,10171,1,0,FALSE,,,
dig,75,417950,0.0-25.0-0.0,"""event"",""trial"",""time""
""fullscreenenter"",""1"",""2075""
","
","
","""event"",""trial"",""time""
""fullscreenenter"",""1"",""2075""
","
",,,,,,,,,,,,"[{""stimulus"":""run_exp/static/images/task_images/dig.jpg"",""time"":0.3999999761581421},{""stimulus"":""run_exp/static/images/task_images/land.jpg"",""time"":471.60000002384186},{""stimulus"":""run_exp/static/images/task_images/dig.jpg"",""time"":938.3999999761581}]",[],1,,,,,,,,,,,,,,
harvest,76,418959,0.0-25.0-1.0,"""event"",""trial"",""time""
""fullscreenenter"",""1"",""2075""
","
","
","""event"",""trial"",""time""
""fullscreenenter"",""1"",""2075""
","
",,null,run_exp/static/images/task_images/gems/15.jpg,null,,,,,,,2,,,1,,,,,15,0.16530068,0.133333333,,,,,,,
decision,77,419292,0.0-25.0-2.0,"""event"",""trial"",""time""
""fullscreenenter"",""1"",""2075""
","
","
","""event"",""trial"",""time""
""fullscreenenter"",""1"",""2075""
","
",,330.7,run_exp/static/images/task_images/land.jpg,76,,,,,,,2,,,1,,,,,,,,12908,1,1,TRUE,,,
travel,78,428971,0.0-26.0-0.0,"""event"",""trial"",""time""
""fullscreenenter"",""1"",""2075""
","
","
","""event"",""trial"",""time""
""fullscreenenter"",""1"",""2075""
","
",,,,,,,,,,,,"[{""stimulus"":""run_exp/static/images/task_images/rocket-01.jpg"",""time"":0.19999998807907104},{""stimulus"":""run_exp/static/images/task_images/rocket-02.jpg"",""time"":1090.300000011921},{""stimulus"":""run_exp/static/images/task_images/rocket-03.jpg"",""time"":2149.800000011921},{""stimulus"":""run_exp/static/images/task_images/rocket-04.jpg"",""time"":3224.199999988079},{""stimulus"":""run_exp/static/images/task_images/rocket-05.jpg"",""time"":4297.600000023842},{""stimulus"":""run_exp/static/images/task_images/rocket-06.jpg"",""time"":5371.800000011921},{""stimulus"":""run_exp/static/images/task_images/rocket-07.jpg"",""time"":6445.899999976158},{""stimulus"":""run_exp/static/images/task_images/rocket-08.jpg"",""time"":7519.699999988079},{""stimulus"":""run_exp/static/images/task_images/rocket-09.jpg"",""time"":8593.699999988079}]",[],1,,,,,,,,,,,,,,
alien_welcome,79,433985,0.0-26.0-1.0,"""event"",""trial"",""time""
""fullscreenenter"",""1"",""2075""
","
","
","""event"",""trial"",""time""
""fullscreenenter"",""1"",""2075""
","
",,null,run_exp/static/images/task_images/aliens/old_aliens/planet/alien_planet-37.jpg,null,,,,,,,,,,,,,37,"34,37,40,13,49,50,2,3,69,65,56,22,54,76,11,43,21,35,41,15,23,20,9,26,77,19,8,73,75,63,17,78,5,66,38,59,39,16",,,,,,,,,,
land,80,434491,0.0-26.0-2.0,"""event"",""trial"",""time""
""fullscreenenter"",""1"",""2075""
","
","
","""event"",""trial"",""time""
""fullscreenenter"",""1"",""2075""
","
",,null,run_exp/static/images/task_images/land.jpg,null,,,,,,,103,,,2,,,,,,,,,,,,,,
dig,81,436496,0.0-26.0-3.0,"""event"",""trial"",""time""
""fullscreenenter"",""1"",""2075""
","
","
","""event"",""trial"",""time""
""fullscreenenter"",""1"",""2075""
","
",,,,,,,,,,,,"[{""stimulus"":""run_exp/static/images/task_images/dig.jpg"",""time"":0.3999999761581421},{""stimulus"":""run_exp/static/images/task_images/land.jpg"",""time"":677.6999999880791},{""stimulus"":""run_exp/static/images/task_images/dig.jpg"",""time"":1348.3999999761581}]",[],2,,,,,,,,,,,,,,
harvest,82,437501,0.0-26.0-4.0,"""event"",""trial"",""time""
""fullscreenenter"",""1"",""2075""
","
","
","""event"",""trial"",""time""
""fullscreenenter"",""1"",""2075""
","
",,null,run_exp/static/images/task_images/gems/103.jpg,null,,,,,,,21,,,2,,,,,103,0.204380175,0.203883495,,,,,,,
decision,83,438233,0.0-26.0-5.0,"""event"",""trial"",""time""
""fullscreenenter"",""1"",""2075""
","
","
","""event"",""trial"",""time""
""fullscreenenter"",""1"",""2075""
","
",,730.7,run_exp/static/images/task_images/land.jpg,65,,,,,,,21,,,2,,,,,,,,31849,1,0,FALSE,,,
dig,84,440510,0.0-27.0-0.0,"""event"",""trial"",""time""
""fullscreenenter"",""1"",""2075""
","
","
","""event"",""trial"",""time""
""fullscreenenter"",""1"",""2075""
","
",,,,,,,,,,,,"[{""stimulus"":""run_exp/static/images/task_images/dig.jpg"",""time"":0.30000001192092896},{""stimulus"":""run_exp/static/images/task_images/land.jpg"",""time"":765.8000000119209},{""stimulus"":""run_exp/static/images/task_images/dig.jpg"",""time"":1521.6000000238419}]",[],2,,,,,,,,,,,,,,
harvest,85,441526,0.0-27.0-1.0,"""event"",""trial"",""time""
""fullscreenenter"",""1"",""2075""
","
","
","""event"",""trial"",""time""
""fullscreenenter"",""1"",""2075""
","
",,null,run_exp/static/images/task_images/gems/21.jpg,null,,,,,,,4,,,2,,,,,21,0.213289422,0.19047619,,,,,,,
decision,86,442126,0.0-27.0-2.0,"""event"",""trial"",""time""
""fullscreenenter"",""1"",""2075""
","
","
","""event"",""trial"",""time""
""fullscreenenter"",""1"",""2075""
","
",,598.6,run_exp/static/images/task_images/land.jpg,65,,,,,,,4,,,2,,,,,,,,35742,1,1,FALSE,,,
dig,87,444538,0.0-28.0-0.0,"""event"",""trial"",""time""
""fullscreenenter"",""1"",""2075""
","
","
","""event"",""trial"",""time""
""fullscreenenter"",""1"",""2075""
","
",,,,,,,,,,,,"[{""stimulus"":""run_exp/static/images/task_images/dig.jpg"",""time"":0.40000003576278687},{""stimulus"":""run_exp/static/images/task_images/land.jpg"",""time"":809.1000000238419},{""stimulus"":""run_exp/static/images/task_images/dig.jpg"",""time"":1610.9000000357628}]",[],2,,,,,,,,,,,,,,
harvest,88,445542,0.0-28.0-1.0,"""event"",""trial"",""time""
""fullscreenenter"",""1"",""2075""
","
","
","""event"",""trial"",""time""
""fullscreenenter"",""1"",""2075""
","
",,null,run_exp/static/images/task_images/gems/4.jpg,null,,,,,,,1,,,2,,,,,4,0.217490142,0.25,,,,,,,
decision,89,446569,0.0-28.0-2.0,"""event"",""trial"",""time""
""fullscreenenter"",""1"",""2075""
","
","
","""event"",""trial"",""time""
""fullscreenenter"",""1"",""2075""
","
",,1024.6,run_exp/static/images/task_images/land.jpg,76,,,,,,,1,,,2,,,,,,,,40185,1,2,TRUE,,,
travel,90,455553,0.0-29.0-0.0,"""event"",""trial"",""time""
""fullscreenenter"",""1"",""2075""
","
","
","""event"",""trial"",""time""
""fullscreenenter"",""1"",""2075""
","
",,,,,,,,,,,,"[{""stimulus"":""run_exp/static/images/task_images/rocket-01.jpg"",""time"":0.3999999761581421},{""stimulus"":""run_exp/static/images/task_images/rocket-02.jpg"",""time"":1001.6999999880791},{""stimulus"":""run_exp/static/images/task_images/rocket-03.jpg"",""time"":2006.7999999523163},{""stimulus"":""run_exp/static/images/task_images/rocket-04.jpg"",""time"":2992.699999988079},{""stimulus"":""run_exp/static/images/task_images/rocket-05.jpg"",""time"":4001},{""stimulus"":""run_exp/static/images/task_images/rocket-06.jpg"",""time"":4987.199999988079},{""stimulus"":""run_exp/static/images/task_images/rocket-07.jpg"",""time"":5983.899999976158},{""stimulus"":""run_exp/static/images/task_images/rocket-08.jpg"",""time"":6981.699999988079},{""stimulus"":""run_exp/static/images/task_images/rocket-09.jpg"",""time"":7988.899999976158}]",[],2,,,,,,,,,,,,,,
alien_welcome,91,460570,0.0-29.0-1.0,"""event"",""trial"",""time""
""fullscreenenter"",""1"",""2075""
","
","
","""event"",""trial"",""time""
""fullscreenenter"",""1"",""2075""
","
",,null,run_exp/static/images/task_images/aliens/old_aliens/planet/alien_planet-40.jpg,null,,,,,,,,,,,,,40,"34,37,40,13,49,50,2,3,69,65,56,22,54,76,11,43,21,35,41,15,23,20,9,26,77,19,8,73,75,63,17,78,5,66,38,59,39,16",,,,,,,,,,
land,92,461082,0.0-29.0-2.0,"""event"",""trial"",""time""
""fullscreenenter"",""1"",""2075""
","
","
","""event"",""trial"",""time""
""fullscreenenter"",""1"",""2075""
","
",,null,run_exp/static/images/task_images/land.jpg,null,,,,,,,104,,,3,,,,,,,,,,,,,,
dig,93,463096,0.0-29.0-3.0,"""event"",""trial"",""time""
""fullscreenenter"",""1"",""2075""
","
","
","""event"",""trial"",""time""
""fullscreenenter"",""1"",""2075""
","
",,,,,,,,,,,,"[{""stimulus"":""run_exp/static/images/task_images/dig.jpg"",""time"":0.30000001192092896},{""stimulus"":""run_exp/static/images/task_images/land.jpg"",""time"":677.6999999880791},{""stimulus"":""run_exp/static/images/task_images/dig.jpg"",""time"":1344.3999999761581}]",[],3,,,,,,,,,,,,,,
harvest,94,464103,0.0-29.0-4.0,"""event"",""trial"",""time""
""fullscreenenter"",""1"",""2075""
","
","
","""event"",""trial"",""time""
""fullscreenenter"",""1"",""2075""
","
",,null,run_exp/static/images/task_images/gems/104.jpg,null,,,,,,,52,,,3,,,,,104,0.500914599,0.5,,,,,,,
decision,95,464726,0.0-29.0-5.0,"""event"",""trial"",""time""
""fullscreenenter"",""1"",""2075""
","
","
","""event"",""trial"",""time""
""fullscreenenter"",""1"",""2075""
","
",,620.6,run_exp/static/images/task_images/land.jpg,65,,,,,,,52,,,3,,,,,,,,58342,1,0,FALSE,,,
dig,96,467118,0.0-30.0-0.0,"""event"",""trial"",""time""
""fullscreenenter"",""1"",""2075""
","
","
","""event"",""trial"",""time""
""fullscreenenter"",""1"",""2075""
","
",,,,,,,,,,,,"[{""stimulus"":""run_exp/static/images/task_images/dig.jpg"",""time"":0.3999999761581421},{""stimulus"":""run_exp/static/images/task_images/land.jpg"",""time"":802.5999999642372},{""stimulus"":""run_exp/static/images/task_images/dig.jpg"",""time"":1595}]",[],3,,,,,,,,,,,,,,
harvest,97,468122,0.0-30.0-1.0,"""event"",""trial"",""time""
""fullscreenenter"",""1"",""2075""
","
","
","""event"",""trial"",""time""
""fullscreenenter"",""1"",""2075""
","
",,null,run_exp/static/images/task_images/gems/52.jpg,null,,,,,,,28,,,3,,,,,52,0.538543951,0.538461538,,,,,,,
decision,98,468594,0.0-30.0-2.0,"""event"",""trial"",""time""
""fullscreenenter"",""1"",""2075""
","
","
","""event"",""trial"",""time""
""fullscreenenter"",""1"",""2075""
","
",,471.2,run_exp/static/images/task_images/land.jpg,65,,,,,,,28,,,3,,,,,,,,62210,1,1,FALSE,,,
dig,99,471134,0.0-31.0-0.0,"""event"",""trial"",""time""
""fullscreenenter"",""1"",""2075""
","
","
","""event"",""trial"",""time""
""fullscreenenter"",""1"",""2075""
","
",,,,,,,,,,,,"[{""stimulus"":""run_exp/static/images/task_images/dig.jpg"",""time"":0.3999999761581421},{""stimulus"":""run_exp/static/images/task_images/land.jpg"",""time"":844.5},{""stimulus"":""run_exp/static/images/task_images/dig.jpg"",""time"":1686.5}]",[],3,,,,,,,,,,,,,,
harvest,100,472145,0.0-31.0-1.0,"""event"",""trial"",""time""
""fullscreenenter"",""1"",""2075""
","
","
","""event"",""trial"",""time""
""fullscreenenter"",""1"",""2075""
","
",,null,run_exp/static/images/task_images/gems/28.jpg,null,,,,,,,15,,,3,,,,,28,0.533177146,0.535714286,,,,,,,
decision,101,474080,0.0-31.0-2.0,"""event"",""trial"",""time""
""fullscreenenter"",""1"",""2075""
","
","
","""event"",""trial"",""time""
""fullscreenenter"",""1"",""2075""
","
",,1932.3,run_exp/static/images/task_images/land.jpg,65,,,,,,,15,,,3,,,,,,,,67696,1,2,FALSE,,,
dig,102,475152,0.0-32.0-0.0,"""event"",""trial"",""time""
""fullscreenenter"",""1"",""2075""
","
","
","""event"",""trial"",""time""
""fullscreenenter"",""1"",""2075""
","
",,,,,,,,,,,,"[{""stimulus"":""run_exp/static/images/task_images/dig.jpg"",""time"":0.30000001192092896},{""stimulus"":""run_exp/static/images/task_images/land.jpg"",""time"":366.19999998807907},{""stimulus"":""run_exp/static/images/task_images/dig.jpg"",""time"":724.8000000119209}]",[],3,,,,,,,,,,,,,,
harvest,103,476163,0.0-32.0-1.0,"""event"",""trial"",""time""
""fullscreenenter"",""1"",""2075""
","
","
","""event"",""trial"",""time""
""fullscreenenter"",""1"",""2075""
","
",,null,run_exp/static/images/task_images/gems/15.jpg,null,,,,,,,8,,,3,,,,,15,0.501257157,0.533333333,,,,,,,
decision,104,476634,0.0-32.0-2.0,"""event"",""trial"",""time""
""fullscreenenter"",""1"",""2075""
","
","
","""event"",""trial"",""time""
""fullscreenenter"",""1"",""2075""
","
",,469.3,run_exp/static/images/task_images/land.jpg,76,,,,,,,8,,,3,,,,,,,,70251,1,3,TRUE,,,
travel,105,486164,0.0-33.0-0.0,"""event"",""trial"",""time""
""fullscreenenter"",""1"",""2075""
","
","
","""event"",""trial"",""time""
""fullscreenenter"",""1"",""2075""
","
",,,,,,,,,,,,"[{""stimulus"":""run_exp/static/images/task_images/rocket-01.jpg"",""time"":0.2999999523162842},{""stimulus"":""run_exp/static/images/task_images/rocket-02.jpg"",""time"":1069.5},{""stimulus"":""run_exp/static/images/task_images/rocket-03.jpg"",""time"":2119.099999964237},{""stimulus"":""run_exp/static/images/task_images/rocket-04.jpg"",""time"":3175.899999976158},{""stimulus"":""run_exp/static/images/task_images/rocket-05.jpg"",""time"":4240.299999952316},{""stimulus"":""run_exp/static/images/task_images/rocket-06.jpg"",""time"":5304.5},{""stimulus"":""run_exp/static/images/task_images/rocket-07.jpg"",""time"":6354.799999952316},{""stimulus"":""run_exp/static/images/task_images/rocket-08.jpg"",""time"":7417.099999964237},{""stimulus"":""run_exp/static/images/task_images/rocket-09.jpg"",""time"":8473.399999976158}]",[],3,,,,,,,,,,,,,,
alien_welcome,106,491169,0.0-33.0-1.0,"""event"",""trial"",""time""
""fullscreenenter"",""1"",""2075""
","
","
","""event"",""trial"",""time""
""fullscreenenter"",""1"",""2075""
","
",,null,run_exp/static/images/task_images/aliens/old_aliens/planet/alien_planet-13.jpg,null,,,,,,,,,,,,,13,"34,37,40,13,49,50,2,3,69,65,56,22,54,76,11,43,21,35,41,15,23,20,9,26,77,19,8,73,75,63,17,78,5,66,38,59,39,16",,,,,,,,,,
land,107,491674,0.0-33.0-2.0,"""event"",""trial"",""time""
""fullscreenenter"",""1"",""2075""
","
","
","""event"",""trial"",""time""
""fullscreenenter"",""1"",""2075""
","
",,null,run_exp/static/images/task_images/land.jpg,null,,,,,,,101,,,4,,,,,,,,,,,,,,
dig,108,493680,0.0-33.0-3.0,"""event"",""trial"",""time""
""fullscreenenter"",""1"",""2075""
","
","
","""event"",""trial"",""time""
""fullscreenenter"",""1"",""2075""
","
",,,,,,,,,,,,"[{""stimulus"":""run_exp/static/images/task_images/dig.jpg"",""time"":0.40000003576278687},{""stimulus"":""run_exp/static/images/task_images/land.jpg"",""time"":683.9000000357628},{""stimulus"":""run_exp/static/images/task_images/dig.jpg"",""time"":1335.800000011921}]",[],4,,,,,,,,,,,,,,
harvest,109,494690,0.0-33.0-4.0,"""event"",""trial"",""time""
""fullscreenenter"",""1"",""2075""
","
","
","""event"",""trial"",""time""
""fullscreenenter"",""1"",""2075""
","
",,null,run_exp/static/images/task_images/gems/101.jpg,null,,,,,,,48,,,4,,,,,101,0.471618604,0.475247525,,,,,,,
decision,110,495257,0.0-33.0-5.0,"""event"",""trial"",""time""
""fullscreenenter"",""1"",""2075""
","
","
","""event"",""trial"",""time""
""fullscreenenter"",""1"",""2075""
","
",,565,run_exp/static/images/task_images/land.jpg,65,,,,,,,48,,,4,,,,,,,,88873,1,0,FALSE,,,
dig,111,497709,0.0-34.0-0.0,"""event"",""trial"",""time""
""fullscreenenter"",""1"",""2075""
","
","
","""event"",""trial"",""time""
""fullscreenenter"",""1"",""2075""
","
",,,,,,,,,,,,"[{""stimulus"":""run_exp/static/images/task_images/dig.jpg"",""time"":0.30000001192092896},{""stimulus"":""run_exp/static/images/task_images/land.jpg"",""time"":820},{""stimulus"":""run_exp/static/images/task_images/dig.jpg"",""time"":1630.1000000238419}]",[],4,,,,,,,,,,,,,,
harvest,112,498715,0.0-34.0-1.0,"""event"",""trial"",""time""
""fullscreenenter"",""1"",""2075""
","
","
","""event"",""trial"",""time""
""fullscreenenter"",""1"",""2075""
","
",,null,run_exp/static/images/task_images/gems/48.jpg,null,,,,,,,26,,,4,,,,,48,0.5475916,0.541666667,,,,,,,
decision,113,500133,0.0-34.0-2.0,"""event"",""trial"",""time""
""fullscreenenter"",""1"",""2075""
","
","
","""event"",""trial"",""time""
""fullscreenenter"",""1"",""2075""
","
",,1416.5,run_exp/static/images/task_images/land.jpg,65,,,,,,,26,,,4,,,,,,,,93749,1,1,FALSE,,,
dig,114,501730,0.0-35.0-0.0,"""event"",""trial"",""time""
""fullscreenenter"",""1"",""2075""
","
","
","""event"",""trial"",""time""
""fullscreenenter"",""1"",""2075""
","
",,,,,,,,,,,,"[{""stimulus"":""run_exp/static/images/task_images/dig.jpg"",""time"":0.30000001192092896},{""stimulus"":""run_exp/static/images/task_images/land.jpg"",""time"":530.6000000238419},{""stimulus"":""run_exp/static/images/task_images/dig.jpg"",""time"":1061.800000011921}]",[],4,,,,,,,,,,,,,,
harvest,115,502735,0.0-35.0-1.0,"""event"",""trial"",""time""
""fullscreenenter"",""1"",""2075""
","
","
","""event"",""trial"",""time""
""fullscreenenter"",""1"",""2075""
","
",,null,run_exp/static/images/task_images/gems/26.jpg,null,,,,,,,12,,,4,,,,,26,0.452078983,0.461538462,,,,,,,
decision,116,503745,0.0-35.0-2.0,"""event"",""trial"",""time""
""fullscreenenter"",""1"",""2075""
","
","
","""event"",""trial"",""time""
""fullscreenenter"",""1"",""2075""
","
",,1007.9,run_exp/static/images/task_images/land.jpg,65,,,,,,,12,,,4,,,,,,,,97361,1,2,FALSE,,,
dig,117,505744,0.0-36.0-0.0,"""event"",""trial"",""time""
""fullscreenenter"",""1"",""2075""
","
","
","""event"",""trial"",""time""
""fullscreenenter"",""1"",""2075""
","
",,,,,,,,,,,,"[{""stimulus"":""run_exp/static/images/task_images/dig.jpg"",""time"":0.2999999523162842},{""stimulus"":""run_exp/static/images/task_images/land.jpg"",""time"":680.8999999761581},{""stimulus"":""run_exp/static/images/task_images/dig.jpg"",""time"":1339.699999988079}]",[],4,,,,,,,,,,,,,,
harvest,118,506754,0.0-36.0-1.0,"""event"",""trial"",""time""
""fullscreenenter"",""1"",""2075""
","
","
","""event"",""trial"",""time""
""fullscreenenter"",""1"",""2075""
","
",,null,run_exp/static/images/task_images/gems/12.jpg,null,,,,,,,6,,,4,,,,,12,0.483441223,0.5,,,,,,,
decision,119,506776,0.0-36.0-2.0,"""event"",""trial"",""time""
""fullscreenenter"",""1"",""2075""
","
","
","""event"",""trial"",""time""
""fullscreenenter"",""1"",""2075""
","
",,21.09999996,run_exp/static/images/task_images/land.jpg,65,,,,,,,6,,,4,,,,,,,,100393,1,3,FALSE,,,
dig,120,509767,0.0-37.0-0.0,"""event"",""trial"",""time""
""fullscreenenter"",""1"",""2075""
","
","
","""event"",""trial"",""time""
""fullscreenenter"",""1"",""2075""
","
",,,,,,,,,,,,"[{""stimulus"":""run_exp/static/images/task_images/dig.jpg"",""time"":0.3999999761581421},{""stimulus"":""run_exp/static/images/task_images/land.jpg"",""time"":995},{""stimulus"":""run_exp/static/images/task_images/dig.jpg"",""time"":1997.800000011921}]",[],4,,,,,,,,,,,,,,
harvest,121,510783,0.0-37.0-1.0,"""event"",""trial"",""time""
""fullscreenenter"",""1"",""2075""
","
","
","""event"",""trial"",""time""
""fullscreenenter"",""1"",""2075""
","
",,null,run_exp/static/images/task_images/gems/6.jpg,null,,,,,,,3,,,4,,,,,6,0.502861937,0.5,,,,,,,
decision,122,511506,0.0-37.0-2.0,"""event"",""trial"",""time""
""fullscreenenter"",""1"",""2075""
","
","
","""event"",""trial"",""time""
""fullscreenenter"",""1"",""2075""
","
",,720.9,run_exp/static/images/task_images/land.jpg,76,,,,,,,3,,,4,,,,,,,,105122,1,4,TRUE,,,
travel,123,520804,0.0-38.0-0.0,"""event"",""trial"",""time""
""fullscreenenter"",""1"",""2075""
","
","
","""event"",""trial"",""time""
""fullscreenenter"",""1"",""2075""
","
",,,,,,,,,,,,"[{""stimulus"":""run_exp/static/images/task_images/rocket-01.jpg"",""time"":0.19999998807907104},{""stimulus"":""run_exp/static/images/task_images/rocket-02.jpg"",""time"":1044.6000000238419},{""stimulus"":""run_exp/static/images/task_images/rocket-03.jpg"",""time"":2064.300000011921},{""stimulus"":""run_exp/static/images/task_images/rocket-04.jpg"",""time"":3100.5},{""stimulus"":""run_exp/static/images/task_images/rocket-05.jpg"",""time"":4125.900000035763},{""stimulus"":""run_exp/static/images/task_images/rocket-06.jpg"",""time"":5160.199999988079},{""stimulus"":""run_exp/static/images/task_images/rocket-07.jpg"",""time"":6188.100000023842},{""stimulus"":""run_exp/static/images/task_images/rocket-08.jpg"",""time"":7218.900000035763},{""stimulus"":""run_exp/static/images/task_images/rocket-09.jpg"",""time"":8254.699999988079}]",[],4,,,,,,,,,,,,,,
alien_welcome,124,525819,0.0-38.0-1.0,"""event"",""trial"",""time""
""fullscreenenter"",""1"",""2075""
","
","
","""event"",""trial"",""time""
""fullscreenenter"",""1"",""2075""
","
",,null,run_exp/static/images/task_images/aliens/old_aliens/planet/alien_planet-49.jpg,null,,,,,,,,,,,,,49,"34,37,40,13,49,50,2,3,69,65,56,22,54,76,11,43,21,35,41,15,23,20,9,26,77,19,8,73,75,63,17,78,5,66,38,59,39,16",,,,,,,,,,
land,125,526321,0.0-38.0-2.0,"""event"",""trial"",""time""
""fullscreenenter"",""1"",""2075""
","
","
","""event"",""trial"",""time""
""fullscreenenter"",""1"",""2075""
","
",,null,run_exp/static/images/task_images/land.jpg,null,,,,,,,96,,,5,,,,,,,,,,,,,,
dig,126,528330,0.0-38.0-3.0,"""event"",""trial"",""time""
""fullscreenenter"",""1"",""2075""
","
","
","""event"",""trial"",""time""
""fullscreenenter"",""1"",""2075""
","
",,,,,,,,,,,,"[{""stimulus"":""run_exp/static/images/task_images/dig.jpg"",""time"":0.2999999523162842},{""stimulus"":""run_exp/static/images/task_images/land.jpg"",""time"":675.0999999642372},{""stimulus"":""run_exp/static/images/task_images/dig.jpg"",""time"":1348}]",[],5,,,,,,,,,,,,,,
harvest,127,529344,0.0-38.0-4.0,"""event"",""trial"",""time""
""fullscreenenter"",""1"",""2075""
","
","
","""event"",""trial"",""time""
""fullscreenenter"",""1"",""2075""
","
",,null,run_exp/static/images/task_images/gems/96.jpg,null,,,,,,,55,,,5,,,,,96,0.575997603,0.572916667,,,,,,,
decision,128,529865,0.0-38.0-5.0,"""event"",""trial"",""time""
""fullscreenenter"",""1"",""2075""
","
","
","""event"",""trial"",""time""
""fullscreenenter"",""1"",""2075""
","
",,519.6,run_exp/static/images/task_images/land.jpg,65,,,,,,,55,,,5,,,,,,,,123481,1,0,FALSE,,,
dig,129,532363,0.0-39.0-0.0,"""event"",""trial"",""time""
""fullscreenenter"",""1"",""2075""
","
","
","""event"",""trial"",""time""
""fullscreenenter"",""1"",""2075""
","
",,,,,,,,,,,,"[{""stimulus"":""run_exp/static/images/task_images/dig.jpg"",""time"":0.30000001192092896},{""stimulus"":""run_exp/static/images/task_images/land.jpg"",""time"":828.1999999880791},{""stimulus"":""run_exp/static/images/task_images/dig.jpg"",""time"":1659.800000011921}]",[],5,,,,,,,,,,,,,,
harvest,130,533369,0.0-39.0-1.0,"""event"",""trial"",""time""
""fullscreenenter"",""1"",""2075""
","
","
","""event"",""trial"",""time""
""fullscreenenter"",""1"",""2075""
","
",,null,run_exp/static/images/task_images/gems/55.jpg,null,,,,,,,23,,,5,,,,,55,0.412087073,0.418181818,,,,,,,
decision,131,536073,0.0-39.0-2.0,"""event"",""trial"",""time""
""fullscreenenter"",""1"",""2075""
","
","
","""event"",""trial"",""time""
""fullscreenenter"",""1"",""2075""
","
",,2703,run_exp/static/images/task_images/land.jpg,65,,,,,,,23,,,5,,,,,,,,129689,1,1,FALSE,,,
dig,132,536376,0.0-40.0-0.0,"""event"",""trial"",""time""
""fullscreenenter"",""1"",""2075""
","
","
","""event"",""trial"",""time""
""fullscreenenter"",""1"",""2075""
","
",,,,,,,,,,,,"[{""stimulus"":""run_exp/static/images/task_images/dig.jpg"",""time"":0.30000001192092896},{""stimulus"":""run_exp/static/images/task_images/land.jpg"",""time"":110.90000003576279},{""stimulus"":""run_exp/static/images/task_images/dig.jpg"",""time"":204.30000001192093}]",[],5,,,,,,,,,,,,,,
harvest,133,537390,0.0-40.0-1.0,"""event"",""trial"",""time""
""fullscreenenter"",""1"",""2075""
","
","
","""event"",""trial"",""time""
""fullscreenenter"",""1"",""2075""
","
",,null,run_exp/static/images/task_images/gems/23.jpg,null,,,,,,,10,,,5,,,,,23,0.42980666,0.434782609,,,,,,,
decision,134,537796,0.0-40.0-2.0,"""event"",""trial"",""time""
""fullscreenenter"",""1"",""2075""
","
","
","""event"",""trial"",""time""
""fullscreenenter"",""1"",""2075""
","
",,405.1,run_exp/static/images/task_images/land.jpg,65,,,,,,,10,,,5,,,,,,,,131413,1,2,FALSE,,,
dig,135,540397,0.0-41.0-0.0,"""event"",""trial"",""time""
""fullscreenenter"",""1"",""2075""
","
","
","""event"",""trial"",""time""
""fullscreenenter"",""1"",""2075""
","
",,,,,,,,,,,,"[{""stimulus"":""run_exp/static/images/task_images/dig.jpg"",""time"":0.2999999523162842},{""stimulus"":""run_exp/static/images/task_images/land.jpg"",""time"":866.1999999880791},{""stimulus"":""run_exp/static/images/task_images/dig.jpg"",""time"":1730.5999999642372}]",[],5,,,,,,,,,,,,,,
harvest,136,541403,0.0-41.0-1.0,"""event"",""trial"",""time""
""fullscreenenter"",""1"",""2075""
","
","
","""event"",""trial"",""time""
""fullscreenenter"",""1"",""2075""
","
",,null,run_exp/static/images/task_images/gems/10.jpg,null,,,,,,,5,,,5,,,,,10,0.474068351,0.5,,,,,,,
decision,137,542103,0.0-41.0-2.0,"""event"",""trial"",""time""
""fullscreenenter"",""1"",""2075""
","
","
","""event"",""trial"",""time""
""fullscreenenter"",""1"",""2075""
","
",,697.9,run_exp/static/images/task_images/land.jpg,76,,,,,,,5,,,5,,,,,,,,135719,1,3,TRUE,,,
travel,138,551417,0.0-42.0-0.0,"""event"",""trial"",""time""
""fullscreenenter"",""1"",""2075""
","
","
","""event"",""trial"",""time""
""fullscreenenter"",""1"",""2075""
","
",,,,,,,,,,,,"[{""stimulus"":""run_exp/static/images/task_images/rocket-01.jpg"",""time"":0.19999998807907104},{""stimulus"":""run_exp/static/images/task_images/rocket-02.jpg"",""time"":1042.800000011921},{""stimulus"":""run_exp/static/images/task_images/rocket-03.jpg"",""time"":2071.800000011921},{""stimulus"":""run_exp/static/images/task_images/rocket-04.jpg"",""time"":3104.400000035763},{""stimulus"":""run_exp/static/images/task_images/rocket-05.jpg"",""time"":4141.400000035763},{""stimulus"":""run_exp/static/images/task_images/rocket-06.jpg"",""time"":5167.100000023842},{""stimulus"":""run_exp/static/images/task_images/rocket-07.jpg"",""time"":6202.300000011921},{""stimulus"":""run_exp/static/images/task_images/rocket-08.jpg"",""time"":7245.800000011921},{""stimulus"":""run_exp/static/images/task_images/rocket-09.jpg"",""time"":8264.800000011921}]",[],5,,,,,,,,,,,,,,
alien_welcome,139,556433,0.0-42.0-1.0,"""event"",""trial"",""time""
""fullscreenenter"",""1"",""2075""
","
","
","""event"",""trial"",""time""
""fullscreenenter"",""1"",""2075""
","
",,null,run_exp/static/images/task_images/aliens/old_aliens/planet/alien_planet-50.jpg,null,,,,,,,,,,,,,50,"34,37,40,13,49,50,2,3,69,65,56,22,54,76,11,43,21,35,41,15,23,20,9,26,77,19,8,73,75,63,17,78,5,66,38,59,39,16",,,,,,,,,,
land,140,556947,0.0-42.0-2.0,"""event"",""trial"",""time""
""fullscreenenter"",""1"",""2075""
","
","
","""event"",""trial"",""time""
""fullscreenenter"",""1"",""2075""
","
",,null,run_exp/static/images/task_images/land.jpg,null,,,,,,,99,,,6,,,,,,,,,,,,,,
dig,141,558963,0.0-42.0-3.0,"""event"",""trial"",""time""
""fullscreenenter"",""1"",""2075""
","
","
","""event"",""trial"",""time""
""fullscreenenter"",""1"",""2075""
","
",,,,,,,,,,,,"[{""stimulus"":""run_exp/static/images/task_images/dig.jpg"",""time"":0.30000001192092896},{""stimulus"":""run_exp/static/images/task_images/land.jpg"",""time"":671.4000000357628},{""stimulus"":""run_exp/static/images/task_images/dig.jpg"",""time"":1344.6000000238419}]",[],6,,,,,,,,,,,,,,
harvest,142,559978,0.0-42.0-4.0,"""event"",""trial"",""time""
""fullscreenenter"",""1"",""2075""
","
","
","""event"",""trial"",""time""
""fullscreenenter"",""1"",""2075""
","
",,null,run_exp/static/images/task_images/gems/99.jpg,null,,,,,,,83,,,6,,,,,99,0.837395789,0.838383838,,,,,,,
decision,143,560919,0.0-42.0-5.0,"""event"",""trial"",""time""
""fullscreenenter"",""1"",""2075""
","
","
","""event"",""trial"",""time""
""fullscreenenter"",""1"",""2075""
","
",,940.2,run_exp/static/images/task_images/land.jpg,65,,,,,,,83,,,6,,,,,,,,154535,1,0,FALSE,,,
dig,144,562987,0.0-43.0-0.0,"""event"",""trial"",""time""
""fullscreenenter"",""1"",""2075""
","
","
","""event"",""trial"",""time""
""fullscreenenter"",""1"",""2075""
","
",,,,,,,,,,,,"[{""stimulus"":""run_exp/static/images/task_images/dig.jpg"",""time"":0.20000004768371582},{""stimulus"":""run_exp/static/images/task_images/land.jpg"",""time"":689.4000000357628},{""stimulus"":""run_exp/static/images/task_images/dig.jpg"",""time"":1377.5}]",[],6,,,,,,,,,,,,,,
harvest,145,563989,0.0-43.0-1.0,"""event"",""trial"",""time""
""fullscreenenter"",""1"",""2075""
","
","
","""event"",""trial"",""time""
""fullscreenenter"",""1"",""2075""
","
",,null,run_exp/static/images/task_images/gems/83.jpg,null,,,,,,,64,,,6,,,,,83,0.775034471,0.771084337,,,,,,,
decision,146,565105,0.0-43.0-2.0,"""event"",""trial"",""time""
""fullscreenenter"",""1"",""2075""
","
","
","""event"",""trial"",""time""
""fullscreenenter"",""1"",""2075""
","
",,1114.9,run_exp/static/images/task_images/land.jpg,65,,,,,,,64,,,6,,,,,,,,158722,1,1,FALSE,,,
dig,147,567009,0.0-44.0-0.0,"""event"",""trial"",""time""
""fullscreenenter"",""1"",""2075""
","
","
","""event"",""trial"",""time""
""fullscreenenter"",""1"",""2075""
","
",,,,,,,,,,,,"[{""stimulus"":""run_exp/static/images/task_images/dig.jpg"",""time"":0.19999998807907104},{""stimulus"":""run_exp/static/images/task_images/land.jpg"",""time"":639.6000000238419},{""stimulus"":""run_exp/static/images/task_images/dig.jpg"",""time"":1268.199999988079}]",[],6,,,,,,,,,,,,,,
harvest,148,568025,0.0-44.0-1.0,"""event"",""trial"",""time""
""fullscreenenter"",""1"",""2075""
","
","
","""event"",""trial"",""time""
""fullscreenenter"",""1"",""2075""
","
",,null,run_exp/static/images/task_images/gems/64.jpg,null,,,,,,,51,,,6,,,,,64,0.804606092,0.796875,,,,,,,
decision,149,568775,0.0-44.0-2.0,"""event"",""trial"",""time""
""fullscreenenter"",""1"",""2075""
","
","
","""event"",""trial"",""time""
""fullscreenenter"",""1"",""2075""
","
",,747.7,run_exp/static/images/task_images/land.jpg,65,,,,,,,51,,,6,,,,,,,,162391,1,2,FALSE,,,
dig,150,571040,0.0-45.0-0.0,"""event"",""trial"",""time""
""fullscreenenter"",""1"",""2075""
","
","
","""event"",""trial"",""time""
""fullscreenenter"",""1"",""2075""
","
",,,,,,,,,,,,"[{""stimulus"":""run_exp/static/images/task_images/dig.jpg"",""time"":0.2999999523162842},{""stimulus"":""run_exp/static/images/task_images/land.jpg"",""time"":764.7999999523163},{""stimulus"":""run_exp/static/images/task_images/dig.jpg"",""time"":1512.5999999642372}]",[],6,,,,,,,,,,,,,,
harvest,151,572049,0.0-45.0-1.0,"""event"",""trial"",""time""
""fullscreenenter"",""1"",""2075""
","
","
","""event"",""trial"",""time""
""fullscreenenter"",""1"",""2075""
","
",,null,run_exp/static/images/task_images/gems/51.jpg,null,,,,,,,42,,,6,,,,,51,0.820311785,0.823529412,,,,,,,
decision,152,573113,0.0-45.0-2.0,"""event"",""trial"",""time""
""fullscreenenter"",""1"",""2075""
","
","
","""event"",""trial"",""time""
""fullscreenenter"",""1"",""2075""
","
",,1062.7,run_exp/static/images/task_images/land.jpg,65,,,,,,,42,,,6,,,,,,,,166729,1,3,FALSE,,,
dig,153,575056,0.0-46.0-0.0,"""event"",""trial"",""time""
""fullscreenenter"",""1"",""2075""
","
","
","""event"",""trial"",""time""
""fullscreenenter"",""1"",""2075""
","
",,,,,,,,,,,,"[{""stimulus"":""run_exp/static/images/task_images/dig.jpg"",""time"":0.2999999523162842},{""stimulus"":""run_exp/static/images/task_images/land.jpg"",""time"":648.8999999761581},{""stimulus"":""run_exp/static/images/task_images/dig.jpg"",""time"":1301.699999988079}]",[],6,,,,,,,,,,,,,,
harvest,154,576065,0.0-46.0-1.0,"""event"",""trial"",""time""
""fullscreenenter"",""1"",""2075""
","
","
","""event"",""trial"",""time""
""fullscreenenter"",""1"",""2075""
","
",,null,run_exp/static/images/task_images/gems/42.jpg,null,,,,,,,35,,,6,,,,,42,0.837076892,0.833333333,,,,,,,
decision,155,577319,0.0-46.0-2.0,"""event"",""trial"",""time""
""fullscreenenter"",""1"",""2075""
","
","
","""event"",""trial"",""time""
""fullscreenenter"",""1"",""2075""
","
",,1252.4,run_exp/static/images/task_images/land.jpg,76,,,,,,,35,,,6,,,,,,,,170935,1,4,TRUE,,,
travel,156,586063,0.0-47.0-0.0,"""event"",""trial"",""time""
""fullscreenenter"",""1"",""2075""
","
","
","""event"",""trial"",""time""
""fullscreenenter"",""1"",""2075""
","
",,,,,,,,,,,,"[{""stimulus"":""run_exp/static/images/task_images/rocket-01.jpg"",""time"":0.19999998807907104},{""stimulus"":""run_exp/static/images/task_images/rocket-02.jpg"",""time"":982.6999999880791},{""stimulus"":""run_exp/static/images/task_images/rocket-03.jpg"",""time"":1947.8999999761581},{""stimulus"":""run_exp/static/images/task_images/rocket-04.jpg"",""time"":2915.399999976158},{""stimulus"":""run_exp/static/images/task_images/rocket-05.jpg"",""time"":3890.7999999523163},{""stimulus"":""run_exp/static/images/task_images/rocket-06.jpg"",""time"":4862.299999952316},{""stimulus"":""run_exp/static/images/task_images/rocket-07.jpg"",""time"":5838.399999976158},{""stimulus"":""run_exp/static/images/task_images/rocket-08.jpg"",""time"":6801.699999988079},{""stimulus"":""run_exp/static/images/task_images/rocket-09.jpg"",""time"":7779.699999988079}]",[],6,,,,,,,,,,,,,,
alien_welcome,157,591080,0.0-47.0-1.0,"""event"",""trial"",""time""
""fullscreenenter"",""1"",""2075""
","
","
","""event"",""trial"",""time""
""fullscreenenter"",""1"",""2075""
","
",,null,run_exp/static/images/task_images/aliens/old_aliens/planet/alien_planet-2.jpg,null,,,,,,,,,,,,,2,"34,37,40,13,49,50,2,3,69,65,56,22,54,76,11,43,21,35,41,15,23,20,9,26,77,19,8,73,75,63,17,78,5,66,38,59,39,16",,,,,,,,,,
land,158,591596,0.0-47.0-2.0,"""event"",""trial"",""time""
""fullscreenenter"",""1"",""2075""
","
","
","""event"",""trial"",""time""
""fullscreenenter"",""1"",""2075""
","
",,null,run_exp/static/images/task_images/land.jpg,null,,,,,,,93,,,7,,,,,,,,,,,,,,
dig,159,593608,0.0-47.0-3.0,"""event"",""trial"",""time""
""fullscreenenter"",""1"",""2075""
","
","
","""event"",""trial"",""time""
""fullscreenenter"",""1"",""2075""
","
",,,,,,,,,,,,"[{""stimulus"":""run_exp/static/images/task_images/dig.jpg"",""time"":0.40000003576278687},{""stimulus"":""run_exp/static/images/task_images/land.jpg"",""time"":671.3000000119209},{""stimulus"":""run_exp/static/images/task_images/dig.jpg"",""time"":1340.6000000238419}]",[],7,,,,,,,,,,,,,,
harvest,160,594610,0.0-47.0-4.0,"""event"",""trial"",""time""
""fullscreenenter"",""1"",""2075""
","
","
","""event"",""trial"",""time""
""fullscreenenter"",""1"",""2075""
","
",,null,run_exp/static/images/task_images/gems/93.jpg,null,,,,,,,71,,,7,,,,,93,0.760556573,0.76344086,,,,,,,
decision,161,595485,0.0-47.0-5.0,"""event"",""trial"",""time""
""fullscreenenter"",""1"",""2075""
","
","
","""event"",""trial"",""time""
""fullscreenenter"",""1"",""2075""
","
",,872.8,run_exp/static/images/task_images/land.jpg,65,,,,,,,71,,,7,,,,,,,,189101,1,0,FALSE,,,
dig,162,597619,0.0-48.0-0.0,"""event"",""trial"",""time""
""fullscreenenter"",""1"",""2075""
","
","
","""event"",""trial"",""time""
""fullscreenenter"",""1"",""2075""
","
",,,,,,,,,,,,"[{""stimulus"":""run_exp/static/images/task_images/dig.jpg"",""time"":0.2999999523162842},{""stimulus"":""run_exp/static/images/task_images/land.jpg"",""time"":723},{""stimulus"":""run_exp/static/images/task_images/dig.jpg"",""time"":1426.7999999523163}]",[],7,,,,,,,,,,,,,,
harvest,163,598633,0.0-48.0-1.0,"""event"",""trial"",""time""
""fullscreenenter"",""1"",""2075""
","
","
","""event"",""trial"",""time""
""fullscreenenter"",""1"",""2075""
","
",,null,run_exp/static/images/task_images/gems/71.jpg,null,,,,,,,60,,,7,,,,,71,0.840979216,0.845070423,,,,,,,
decision,164,599479,0.0-48.0-2.0,"""event"",""trial"",""time""
""fullscreenenter"",""1"",""2075""
","
","
","""event"",""trial"",""time""
""fullscreenenter"",""1"",""2075""
","
",,844.2,run_exp/static/images/task_images/land.jpg,65,,,,,,,60,,,7,,,,,,,,193095,1,1,FALSE,,,
dig,165,601650,0.0-49.0-0.0,"""event"",""trial"",""time""
""fullscreenenter"",""1"",""2075""
","
","
","""event"",""trial"",""time""
""fullscreenenter"",""1"",""2075""
","
",,,,,,,,,,,,"[{""stimulus"":""run_exp/static/images/task_images/dig.jpg"",""time"":0.2999999523162842},{""stimulus"":""run_exp/static/images/task_images/land.jpg"",""time"":726.6999999880791},{""stimulus"":""run_exp/static/images/task_images/dig.jpg"",""time"":1447.5999999642372}]",[],7,,,,,,,,,,,,,,
harvest,166,602665,0.0-49.0-1.0,"""event"",""trial"",""time""
""fullscreenenter"",""1"",""2075""
","
","
","""event"",""trial"",""time""
""fullscreenenter"",""1"",""2075""
","
",,null,run_exp/static/images/task_images/gems/60.jpg,null,,,,,,,50,,,7,,,,,60,0.83743341,0.833333333,,,,,,,
decision,167,604915,0.0-49.0-2.0,"""event"",""trial"",""time""
""fullscreenenter"",""1"",""2075""
","
","
","""event"",""trial"",""time""
""fullscreenenter"",""1"",""2075""
","
",,2248.4,run_exp/static/images/task_images/land.jpg,65,,,,,,,50,,,7,,,,,,,,198531,1,2,FALSE,,,
dig,168,605678,0.0-50.0-0.0,"""event"",""trial"",""time""
""fullscreenenter"",""1"",""2075""
","
","
","""event"",""trial"",""time""
""fullscreenenter"",""1"",""2075""
","
",,,,,,,,,,,,"[{""stimulus"":""run_exp/static/images/task_images/dig.jpg"",""time"":0.2999999523162842},{""stimulus"":""run_exp/static/images/task_images/land.jpg"",""time"":261.7999999523163},{""stimulus"":""run_exp/static/images/task_images/dig.jpg"",""time"":511.39999997615814}]",[],7,,,,,,,,,,,,,,
harvest,169,606692,0.0-50.0-1.0,"""event"",""trial"",""time""
""fullscreenenter"",""1"",""2075""
","
","
","""event"",""trial"",""time""
""fullscreenenter"",""1"",""2075""
","
",,null,run_exp/static/images/task_images/gems/50.jpg,null,,,,,,,39,,,7,,,,,50,0.77101045,0.78,,,,,,,
decision,170,607698,0.0-50.0-2.0,"""event"",""trial"",""time""
""fullscreenenter"",""1"",""2075""
","
","
","""event"",""trial"",""time""
""fullscreenenter"",""1"",""2075""
","
",,1004.2,run_exp/static/images/task_images/land.jpg,65,,,,,,,39,,,7,,,,,,,,201314,1,3,FALSE,,,
dig,171,609711,0.0-51.0-0.0,"""event"",""trial"",""time""
""fullscreenenter"",""1"",""2075""
","
","
","""event"",""trial"",""time""
""fullscreenenter"",""1"",""2075""
","
",,,,,,,,,,,,"[{""stimulus"":""run_exp/static/images/task_images/dig.jpg"",""time"":0.19999998807907104},{""stimulus"":""run_exp/static/images/task_images/land.jpg"",""time"":680.3999999761581},{""stimulus"":""run_exp/static/images/task_images/dig.jpg"",""time"":1334.699999988079}]",[],7,,,,,,,,,,,,,,
harvest,172,610719,0.0-51.0-1.0,"""event"",""trial"",""time""
""fullscreenenter"",""1"",""2075""
","
","
","""event"",""trial"",""time""
""fullscreenenter"",""1"",""2075""
","
",,null,run_exp/static/images/task_images/gems/39.jpg,null,,,,,,,35,,,7,,,,,39,0.885050043,0.897435897,,,,,,,
decision,173,611072,0.0-51.0-2.0,"""event"",""trial"",""time""
""fullscreenenter"",""1"",""2075""
","
","
","""event"",""trial"",""time""
""fullscreenenter"",""1"",""2075""
","
",,350.9,run_exp/static/images/task_images/land.jpg,76,,,,,,,35,,,7,,,,,,,,204688,1,4,TRUE,,,
travel,174,620728,0.0-52.0-0.0,"""event"",""trial"",""time""
""fullscreenenter"",""1"",""2075""
","
","
","""event"",""trial"",""time""
""fullscreenenter"",""1"",""2075""
","
",,,,,,,,,,,,"[{""stimulus"":""run_exp/static/images/task_images/rocket-01.jpg"",""time"":0.30000001192092896},{""stimulus"":""run_exp/static/images/task_images/rocket-02.jpg"",""time"":1078.1000000238419},{""stimulus"":""run_exp/static/images/task_images/rocket-03.jpg"",""time"":2146.5},{""stimulus"":""run_exp/static/images/task_images/rocket-04.jpg"",""time"":3222.400000035763},{""stimulus"":""run_exp/static/images/task_images/rocket-05.jpg"",""time"":4289.5},{""stimulus"":""run_exp/static/images/task_images/rocket-06.jpg"",""time"":5361.400000035763},{""stimulus"":""run_exp/static/images/task_images/rocket-07.jpg"",""time"":6433.200000047684},{""stimulus"":""run_exp/static/images/task_images/rocket-08.jpg"",""time"":7505.900000035763},{""stimulus"":""run_exp/static/images/task_images/rocket-09.jpg"",""time"":8577.300000011921}]",[],7,,,,,,,,,,,,,,
alien_welcome,175,625732,0.0-52.0-1.0,"""event"",""trial"",""time""
""fullscreenenter"",""1"",""2075""
","
","
","""event"",""trial"",""time""
""fullscreenenter"",""1"",""2075""
","
",,null,run_exp/static/images/task_images/aliens/old_aliens/planet/alien_planet-3.jpg,null,,,,,,,,,,,,,3,"34,37,40,13,49,50,2,3,69,65,56,22,54,76,11,43,21,35,41,15,23,20,9,26,77,19,8,73,75,63,17,78,5,66,38,59,39,16",,,,,,,,,,
land,176,626246,0.0-52.0-2.0,"""event"",""trial"",""time""
""fullscreenenter"",""1"",""2075""
","
","
","""event"",""trial"",""time""
""fullscreenenter"",""1"",""2075""
","
",,null,run_exp/static/images/task_images/land.jpg,null,,,,,,,96,,,8,,,,,,,,,,,,,,
dig,177,628261,0.0-52.0-3.0,"""event"",""trial"",""time""
""fullscreenenter"",""1"",""2075""
","
","
","""event"",""trial"",""time""
""fullscreenenter"",""1"",""2075""
","
",,,,,,,,,,,,"[{""stimulus"":""run_exp/static/images/task_images/dig.jpg"",""time"":0.30000001192092896},{""stimulus"":""run_exp/static/images/task_images/land.jpg"",""time"":672},{""stimulus"":""run_exp/static/images/task_images/dig.jpg"",""time"":1346.1000000238419}]",[],8,,,,,,,,,,,,,,
harvest,178,629273,0.0-52.0-4.0,"""event"",""trial"",""time""
""fullscreenenter"",""1"",""2075""
","
","
","""event"",""trial"",""time""
""fullscreenenter"",""1"",""2075""
","
",,null,run_exp/static/images/task_images/gems/96.jpg,null,,,,,,,75,,,8,,,,,96,0.786024654,0.78125,,,,,,,
decision,179,630261,0.0-52.0-5.0,"""event"",""trial"",""time""
""fullscreenenter"",""1"",""2075""
","
","
","""event"",""trial"",""time""
""fullscreenenter"",""1"",""2075""
","
",,986,run_exp/static/images/task_images/land.jpg,65,,,,,,,75,,,8,,,,,,,,223878,1,0,FALSE,,,
dig,180,632282,0.0-53.0-0.0,"""event"",""trial"",""time""
""fullscreenenter"",""1"",""2075""
","
","
","""event"",""trial"",""time""
""fullscreenenter"",""1"",""2075""
","
",,,,,,,,,,,,"[{""stimulus"":""run_exp/static/images/task_images/dig.jpg"",""time"":0.3999999761581421},{""stimulus"":""run_exp/static/images/task_images/land.jpg"",""time"":676.5},{""stimulus"":""run_exp/static/images/task_images/dig.jpg"",""time"":1351}]",[],8,,,,,,,,,,,,,,
harvest,181,633296,0.0-53.0-1.0,"""event"",""trial"",""time""
""fullscreenenter"",""1"",""2075""
","
","
","""event"",""trial"",""time""
""fullscreenenter"",""1"",""2075""
","
",,null,run_exp/static/images/task_images/gems/75.jpg,null,,,,,,,60,,,8,,,,,75,0.802593502,0.8,,,,,,,
decision,182,634297,0.0-53.0-2.0,"""event"",""trial"",""time""
""fullscreenenter"",""1"",""2075""
","
","
","""event"",""trial"",""time""
""fullscreenenter"",""1"",""2075""
","
",,998.7,run_exp/static/images/task_images/land.jpg,65,,,,,,,60,,,8,,,,,,,,227913,1,1,FALSE,,,
dig,183,636308,0.0-54.0-0.0,"""event"",""trial"",""time""
""fullscreenenter"",""1"",""2075""
","
","
","""event"",""trial"",""time""
""fullscreenenter"",""1"",""2075""
","
",,,,,,,,,,,,"[{""stimulus"":""run_exp/static/images/task_images/dig.jpg"",""time"":0.19999998807907104},{""stimulus"":""run_exp/static/images/task_images/land.jpg"",""time"":671.9000000357628},{""stimulus"":""run_exp/static/images/task_images/dig.jpg"",""time"":1345.5}]",[],8,,,,,,,,,,,,,,
harvest,184,637325,0.0-54.0-1.0,"""event"",""trial"",""time""
""fullscreenenter"",""1"",""2075""
","
","
","""event"",""trial"",""time""
""fullscreenenter"",""1"",""2075""
","
",,null,run_exp/static/images/task_images/gems/60.jpg,null,,,,,,,45,,,8,,,,,60,0.753993142,0.75,,,,,,,
decision,185,638019,0.0-54.0-2.0,"""event"",""trial"",""time""
""fullscreenenter"",""1"",""2075""
","
","
","""event"",""trial"",""time""
""fullscreenenter"",""1"",""2075""
","
",,693,run_exp/static/images/task_images/land.jpg,65,,,,,,,45,,,8,,,,,,,,231635,1,2,FALSE,,,
dig,186,640343,0.0-55.0-0.0,"""event"",""trial"",""time""
""fullscreenenter"",""1"",""2075""
","
","
","""event"",""trial"",""time""
""fullscreenenter"",""1"",""2075""
","
",,,,,,,,,,,,"[{""stimulus"":""run_exp/static/images/task_images/dig.jpg"",""time"":0.19999998807907104},{""stimulus"":""run_exp/static/images/task_images/land.jpg"",""time"":780.3999999761581},{""stimulus"":""run_exp/static/images/task_images/dig.jpg"",""time"":1549.8999999761581}]",[],8,,,,,,,,,,,,,,
harvest,187,641352,0.0-55.0-1.0,"""event"",""trial"",""time""
""fullscreenenter"",""1"",""2075""
","
","
","""event"",""trial"",""time""
""fullscreenenter"",""1"",""2075""
","
",,null,run_exp/static/images/task_images/gems/45.jpg,null,,,,,,,37,,,8,,,,,45,0.82891659,0.822222222,,,,,,,
decision,188,641892,0.0-55.0-2.0,"""event"",""trial"",""time""
""fullscreenenter"",""1"",""2075""
","
","
","""event"",""trial"",""time""
""fullscreenenter"",""1"",""2075""
","
",,538.5,run_exp/static/images/task_images/land.jpg,76,,,,,,,37,,,8,,,,,,,,235508,1,3,TRUE,,,
travel,189,651367,0.0-56.0-0.0,"""event"",""trial"",""time""
""fullscreenenter"",""1"",""2075""
","
","
","""event"",""trial"",""time""
""fullscreenenter"",""1"",""2075""
","
",,,,,,,,,,,,"[{""stimulus"":""run_exp/static/images/task_images/rocket-01.jpg"",""time"":0.10000002384185791},{""stimulus"":""run_exp/static/images/task_images/rocket-02.jpg"",""time"":1067.300000011921},{""stimulus"":""run_exp/static/images/task_images/rocket-03.jpg"",""time"":2105.899999976158},{""stimulus"":""run_exp/static/images/task_images/rocket-04.jpg"",""time"":3161.100000023842},{""stimulus"":""run_exp/static/images/task_images/rocket-05.jpg"",""time"":4207.600000023842},{""stimulus"":""run_exp/static/images/task_images/rocket-06.jpg"",""time"":5270.600000023842},{""stimulus"":""run_exp/static/images/task_images/rocket-07.jpg"",""time"":6318.800000011921},{""stimulus"":""run_exp/static/images/task_images/rocket-08.jpg"",""time"":7368.399999976158},{""stimulus"":""run_exp/static/images/task_images/rocket-09.jpg"",""time"":8414.800000011921}]",[],8,,,,,,,,,,,,,,
alien_welcome,190,656380,0.0-56.0-1.0,"""event"",""trial"",""time""
""fullscreenenter"",""1"",""2075""
","
","
","""event"",""trial"",""time""
""fullscreenenter"",""1"",""2075""
","
",,null,run_exp/static/images/task_images/aliens/old_aliens/planet/alien_planet-69.jpg,null,,,,,,,,,,,,,69,"34,37,40,13,49,50,2,3,69,65,56,22,54,76,11,43,21,35,41,15,23,20,9,26,77,19,8,73,75,63,17,78,5,66,38,59,39,16",,,,,,,,,,
land,191,656893,0.0-56.0-2.0,"""event"",""trial"",""time""
""fullscreenenter"",""1"",""2075""
","
","
","""event"",""trial"",""time""
""fullscreenenter"",""1"",""2075""
","
",,null,run_exp/static/images/task_images/land.jpg,null,,,,,,,96,,,9,,,,,,,,,,,,,,
dig,192,658905,0.0-56.0-3.0,"""event"",""trial"",""time""
""fullscreenenter"",""1"",""2075""
","
","
","""event"",""trial"",""time""
""fullscreenenter"",""1"",""2075""
","
",,,,,,,,,,,,"[{""stimulus"":""run_exp/static/images/task_images/dig.jpg"",""time"":0.5},{""stimulus"":""run_exp/static/images/task_images/land.jpg"",""time"":668.5999999642372},{""stimulus"":""run_exp/static/images/task_images/dig.jpg"",""time"":1337.5}]",[],9,,,,,,,,,,,,,,
harvest,193,659917,0.0-56.0-4.0,"""event"",""trial"",""time""
""fullscreenenter"",""1"",""2075""
","
","
","""event"",""trial"",""time""
""fullscreenenter"",""1"",""2075""
","
",,null,run_exp/static/images/task_images/gems/96.jpg,null,,,,,,,22,,,9,,,,,96,0.229276288,0.229166667,,,,,,,
decision,194,660742,0.0-56.0-5.0,"""event"",""trial"",""time""
""fullscreenenter"",""1"",""2075""
","
","
","""event"",""trial"",""time""
""fullscreenenter"",""1"",""2075""
","
",,823.6,run_exp/static/images/task_images/land.jpg,65,,,,,,,22,,,9,,,,,,,,254358,1,0,FALSE,,,
dig,195,662928,0.0-57.0-0.0,"""event"",""trial"",""time""
""fullscreenenter"",""1"",""2075""
","
","
","""event"",""trial"",""time""
""fullscreenenter"",""1"",""2075""
","
",,,,,,,,,,,,"[{""stimulus"":""run_exp/static/images/task_images/dig.jpg"",""time"":0.19999998807907104},{""stimulus"":""run_exp/static/images/task_images/land.jpg"",""time"":726.9000000357628},{""stimulus"":""run_exp/static/images/task_images/dig.jpg"",""time"":1460.800000011921}]",[],9,,,,,,,,,,,,,,
harvest,196,663938,0.0-57.0-1.0,"""event"",""trial"",""time""
""fullscreenenter"",""1"",""2075""
","
","
","""event"",""trial"",""time""
""fullscreenenter"",""1"",""2075""
","
",,null,run_exp/static/images/task_images/gems/22.jpg,null,,,,,,,5,,,9,,,,,22,0.205604989,0.227272727,,,,,,,
decision,197,664468,0.0-57.0-2.0,"""event"",""trial"",""time""
""fullscreenenter"",""1"",""2075""
","
","
","""event"",""trial"",""time""
""fullscreenenter"",""1"",""2075""
","
",,529.2,run_exp/static/images/task_images/land.jpg,76,,,,,,,5,,,9,,,,,,,,258084,1,1,TRUE,,,
travel,198,673958,0.0-58.0-0.0,"""event"",""trial"",""time""
""fullscreenenter"",""1"",""2075""
","
","
","""event"",""trial"",""time""
""fullscreenenter"",""1"",""2075""
","
",,,,,,,,,,,,"[{""stimulus"":""run_exp/static/images/task_images/rocket-01.jpg"",""time"":0.30000001192092896},{""stimulus"":""run_exp/static/images/task_images/rocket-02.jpg"",""time"":1061.1000000238419},{""stimulus"":""run_exp/static/images/task_images/rocket-03.jpg"",""time"":2120.400000035763},{""stimulus"":""run_exp/static/images/task_images/rocket-04.jpg"",""time"":3160.300000011921},{""stimulus"":""run_exp/static/images/task_images/rocket-05.jpg"",""time"":4215},{""stimulus"":""run_exp/static/images/task_images/rocket-06.jpg"",""time"":5275.700000047684},{""stimulus"":""run_exp/static/images/task_images/rocket-07.jpg"",""time"":6318.5},{""stimulus"":""run_exp/static/images/task_images/rocket-08.jpg"",""time"":7379.600000023842},{""stimulus"":""run_exp/static/images/task_images/rocket-09.jpg"",""time"":8423.200000047684}]",[],9,,,,,,,,,,,,,,
alien_welcome,199,678973,0.0-58.0-1.0,"""event"",""trial"",""time""
""fullscreenenter"",""1"",""2075""
","
","
","""event"",""trial"",""time""
""fullscreenenter"",""1"",""2075""
","
",,null,run_exp/static/images/task_images/aliens/old_aliens/planet/alien_planet-65.jpg,null,,,,,,,,,,,,,65,"34,37,40,13,49,50,2,3,69,65,56,22,54,76,11,43,21,35,41,15,23,20,9,26,77,19,8,73,75,63,17,78,5,66,38,59,39,16",,,,,,,,,,
land,200,679477,0.0-58.0-2.0,"""event"",""trial"",""time""
""fullscreenenter"",""1"",""2075""
","
","
","""event"",""trial"",""time""
""fullscreenenter"",""1"",""2075""
","
",,null,run_exp/static/images/task_images/land.jpg,null,,,,,,,103,,,10,,,,,,,,,,,,,,
dig,201,681488,0.0-58.0-3.0,"""event"",""trial"",""time""
""fullscreenenter"",""1"",""2075""
","
","
","""event"",""trial"",""time""
""fullscreenenter"",""1"",""2075""
","
",,,,,,,,,,,,"[{""stimulus"":""run_exp/static/images/task_images/dig.jpg"",""time"":0.30000001192092896},{""stimulus"":""run_exp/static/images/task_images/land.jpg"",""time"":683.9000000357628},{""stimulus"":""run_exp/static/images/task_images/dig.jpg"",""time"":1343.4000000357628}]",[],10,,,,,,,,,,,,,,
harvest,202,682500,0.0-58.0-4.0,"""event"",""trial"",""time""
""fullscreenenter"",""1"",""2075""
","
","
","""event"",""trial"",""time""
""fullscreenenter"",""1"",""2075""
","
",,null,run_exp/static/images/task_images/gems/103.jpg,null,,,,,,,14,,,10,,,,,103,0.138835006,0.13592233,,,,,,,
decision,203,684144,0.0-58.0-5.0,"""event"",""trial"",""time""
""fullscreenenter"",""1"",""2075""
","
","
","""event"",""trial"",""time""
""fullscreenenter"",""1"",""2075""
","
",,1642.5,run_exp/static/images/task_images/land.jpg,65,,,,,,,14,,,10,,,,,,,,277760,1,0,FALSE,,,
dig,204,685518,0.0-59.0-0.0,"""event"",""trial"",""time""
""fullscreenenter"",""1"",""2075""
","
","
","""event"",""trial"",""time""
""fullscreenenter"",""1"",""2075""
","
",,,,,,,,,,,,"[{""stimulus"":""run_exp/static/images/task_images/dig.jpg"",""time"":0.19999998807907104},{""stimulus"":""run_exp/static/images/task_images/land.jpg"",""time"":455.0999999642372},{""stimulus"":""run_exp/static/images/task_images/dig.jpg"",""time"":907.1999999880791}]",[],10,,,,,,,,,,,,,,
harvest,205,686530,0.0-59.0-1.0,"""event"",""trial"",""time""
""fullscreenenter"",""1"",""2075""
","
","
","""event"",""trial"",""time""
""fullscreenenter"",""1"",""2075""
","
",,null,run_exp/static/images/task_images/gems/14.jpg,null,,,,,,,2,,,10,,,,,14,0.162992732,0.142857143,,,,,,,
decision,206,686826,0.0-59.0-2.0,"""event"",""trial"",""time""
""fullscreenenter"",""1"",""2075""
","
","
","""event"",""trial"",""time""
""fullscreenenter"",""1"",""2075""
","
",,294.5,run_exp/static/images/task_images/land.jpg,76,,,,,,,2,,,10,,,,,,,,280443,1,1,TRUE,,,
travel,207,696535,0.0-60.0-0.0,"""event"",""trial"",""time""
""fullscreenenter"",""1"",""2075""
","
","
","""event"",""trial"",""time""
""fullscreenenter"",""1"",""2075""
","
",,,,,,,,,,,,"[{""stimulus"":""run_exp/static/images/task_images/rocket-01.jpg"",""time"":0.30000001192092896},{""stimulus"":""run_exp/static/images/task_images/rocket-02.jpg"",""time"":1093.5},{""stimulus"":""run_exp/static/images/task_images/rocket-03.jpg"",""time"":2166.699999988079},{""stimulus"":""run_exp/static/images/task_images/rocket-04.jpg"",""time"":3235.699999988079},{""stimulus"":""run_exp/static/images/task_images/rocket-05.jpg"",""time"":4313.199999988079},{""stimulus"":""run_exp/static/images/task_images/rocket-06.jpg"",""time"":5403.699999988079},{""stimulus"":""run_exp/static/images/task_images/rocket-07.jpg"",""time"":6469.899999976158},{""stimulus"":""run_exp/static/images/task_images/rocket-08.jpg"",""time"":7547.5},{""stimulus"":""run_exp/static/images/task_images/rocket-09.jpg"",""time"":8627.199999988079}]",[],10,,,,,,,,,,,,,,
alien_welcome,208,701545,0.0-60.0-1.0,"""event"",""trial"",""time""
""fullscreenenter"",""1"",""2075""
","
","
","""event"",""trial"",""time""
""fullscreenenter"",""1"",""2075""
","
",,null,run_exp/static/images/task_images/aliens/old_aliens/planet/alien_planet-56.jpg,null,,,,,,,,,,,,,56,"34,37,40,13,49,50,2,3,69,65,56,22,54,76,11,43,21,35,41,15,23,20,9,26,77,19,8,73,75,63,17,78,5,66,38,59,39,16",,,,,,,,,,
land,209,702046,0.0-60.0-2.0,"""event"",""trial"",""time""
""fullscreenenter"",""1"",""2075""
","
","
","""event"",""trial"",""time""
""fullscreenenter"",""1"",""2075""
","
",,null,run_exp/static/images/task_images/land.jpg,null,,,,,,,92,,,11,,,,,,,,,,,,,,
dig,210,704056,0.0-60.0-3.0,"""event"",""trial"",""time""
""fullscreenenter"",""1"",""2075""
","
","
","""event"",""trial"",""time""
""fullscreenenter"",""1"",""2075""
","
",,,,,,,,,,,,"[{""stimulus"":""run_exp/static/images/task_images/dig.jpg"",""time"":0.5},{""stimulus"":""run_exp/static/images/task_images/land.jpg"",""time"":683.4000000357628},{""stimulus"":""run_exp/static/images/task_images/dig.jpg"",""time"":1351.9000000357628}]",[],11,,,,,,,,,,,,,,
harvest,211,705070,0.0-60.0-4.0,"""event"",""trial"",""time""
""fullscreenenter"",""1"",""2075""
","
","
","""event"",""trial"",""time""
""fullscreenenter"",""1"",""2075""
","
",,null,run_exp/static/images/task_images/gems/92.jpg,null,,,,,,,19,,,11,,,,,92,0.205714729,0.206521739,,,,,,,
decision,212,706807,0.0-60.0-5.0,"""event"",""trial"",""time""
""fullscreenenter"",""1"",""2075""
","
","
","""event"",""trial"",""time""
""fullscreenenter"",""1"",""2075""
","
",,1735,run_exp/static/images/task_images/land.jpg,65,,,,,,,19,,,11,,,,,,,,300423,1,0,TRUE,,,
end_of_block_continue,213,715674,0.0-61.0-0.0,"""event"",""trial"",""time""
""fullscreenenter"",""1"",""2075""
","
","
","""event"",""trial"",""time""
""fullscreenenter"",""1"",""2075""
","
",,null,run_exp/static/audio/clip_32_block_end.m4a,,,,,,,null,,,,,,,,,,,,,,,,,,
alien_welcome,214,720682,0.0-62.0-0.0,"""event"",""trial"",""time""
""fullscreenenter"",""1"",""2075""
","
","
","""event"",""trial"",""time""
""fullscreenenter"",""1"",""2075""
","
",,null,run_exp/static/images/task_images/aliens/old_aliens/planet/alien_planet-22.jpg,null,,,,,,,,,,,,,22,"34,37,40,13,49,50,2,3,69,65,56,22,54,76,11,43,21,35,41,15,23,20,9,26,77,19,8,73,75,63,17,78,5,66,38,59,39,16",,,,,,,,,,
land,215,721195,0.0-62.0-1.0,"""event"",""trial"",""time""
""fullscreenenter"",""1"",""2075""
","
","
","""event"",""trial"",""time""
""fullscreenenter"",""1"",""2075""
","
",,null,run_exp/static/images/task_images/land.jpg,null,,,,,,,105,,,12,,,,,,,,,,,,,,
dig,216,723200,0.0-62.0-2.0,"""event"",""trial"",""time""
""fullscreenenter"",""1"",""2075""
","
","
","""event"",""trial"",""time""
""fullscreenenter"",""1"",""2075""
","
",,,,,,,,,,,,"[{""stimulus"":""run_exp/static/images/task_images/dig.jpg"",""time"":0.3999999761581421},{""stimulus"":""run_exp/static/images/task_images/land.jpg"",""time"":672},{""stimulus"":""run_exp/static/images/task_images/dig.jpg"",""time"":1344}]",[],12,,,,,,,,,,,,,,
harvest,217,724211,0.0-62.0-3.0,"""event"",""trial"",""time""
""fullscreenenter"",""1"",""2075""
","
","
","""event"",""trial"",""time""
""fullscreenenter"",""1"",""2075""
","
",,null,run_exp/static/images/task_images/gems/105.jpg,null,,,,,,,25,,,12,,,,,105,0.242702675,0.238095238,,,,,,,
decision,218,725738,0.0-62.0-4.0,"""event"",""trial"",""time""
""fullscreenenter"",""1"",""2075""
","
","
","""event"",""trial"",""time""
""fullscreenenter"",""1"",""2075""
","
",,1524.3,run_exp/static/images/task_images/land.jpg,65,,,,,,,25,,,12,,,,,,,,10059,2,0,FALSE,,,
dig,219,727232,0.0-63.0-0.0,"""event"",""trial"",""time""
""fullscreenenter"",""1"",""2075""
","
","
","""event"",""trial"",""time""
""fullscreenenter"",""1"",""2075""
","
",,,,,,,,,,,,"[{""stimulus"":""run_exp/static/images/task_images/dig.jpg"",""time"":0.40000003576278687},{""stimulus"":""run_exp/static/images/task_images/land.jpg"",""time"":506.2000000476837},{""stimulus"":""run_exp/static/images/task_images/dig.jpg"",""time"":989}]",[],12,,,,,,,,,,,,,,
harvest,220,728244,0.0-63.0-1.0,"""event"",""trial"",""time""
""fullscreenenter"",""1"",""2075""
","
","
","""event"",""trial"",""time""
""fullscreenenter"",""1"",""2075""
","
",,null,run_exp/static/images/task_images/gems/25.jpg,null,,,,,,,6,,,12,,,,,25,0.250945605,0.24,,,,,,,
decision,221,728464,0.0-63.0-2.0,"""event"",""trial"",""time""
""fullscreenenter"",""1"",""2075""
","
","
","""event"",""trial"",""time""
""fullscreenenter"",""1"",""2075""
","
",,218.1,run_exp/static/images/task_images/land.jpg,65,,,,,,,6,,,12,,,,,,,,12785,2,1,FALSE,,,
dig,222,731255,0.0-64.0-0.0,"""event"",""trial"",""time""
""fullscreenenter"",""1"",""2075""
","
","
","""event"",""trial"",""time""
""fullscreenenter"",""1"",""2075""
","
",,,,,,,,,,,,"[{""stimulus"":""run_exp/static/images/task_images/dig.jpg"",""time"":0.3999999761581421},{""stimulus"":""run_exp/static/images/task_images/land.jpg"",""time"":928.6000000238419},{""stimulus"":""run_exp/static/images/task_images/dig.jpg"",""time"":1866.6000000238419}]",[],12,,,,,,,,,,,,,,
harvest,223,732273,0.0-64.0-1.0,"""event"",""trial"",""time""
""fullscreenenter"",""1"",""2075""
","
","
","""event"",""trial"",""time""
""fullscreenenter"",""1"",""2075""
","
",,null,run_exp/static/images/task_images/gems/6.jpg,null,,,,,,,1,,,12,,,,,6,0.190290605,0.166666667,,,,,,,
decision,224,732925,0.0-64.0-2.0,"""event"",""trial"",""time""
""fullscreenenter"",""1"",""2075""
","
","
","""event"",""trial"",""time""
""fullscreenenter"",""1"",""2075""
","
",,650.9,run_exp/static/images/task_images/land.jpg,76,,,,,,,1,,,12,,,,,,,,17246,2,2,TRUE,,,
travel,225,742288,0.0-65.0-0.0,"""event"",""trial"",""time""
""fullscreenenter"",""1"",""2075""
","
","
","""event"",""trial"",""time""
""fullscreenenter"",""1"",""2075""
","
",,,,,,,,,,,,"[{""stimulus"":""run_exp/static/images/task_images/rocket-01.jpg"",""time"":0.30000001192092896},{""stimulus"":""run_exp/static/images/task_images/rocket-02.jpg"",""time"":1053.9000000357628},{""stimulus"":""run_exp/static/images/task_images/rocket-03.jpg"",""time"":2090.600000023842},{""stimulus"":""run_exp/static/images/task_images/rocket-04.jpg"",""time"":3130.300000011921},{""stimulus"":""run_exp/static/images/task_images/rocket-05.jpg"",""time"":4154.5},{""stimulus"":""run_exp/static/images/task_images/rocket-06.jpg"",""time"":5192},{""stimulus"":""run_exp/static/images/task_images/rocket-07.jpg"",""time"":6230.100000023842},{""stimulus"":""run_exp/static/images/task_images/rocket-08.jpg"",""time"":7277.199999988079},{""stimulus"":""run_exp/static/images/task_images/rocket-09.jpg"",""time"":8306}]",[],12,,,,,,,,,,,,,,
alien_welcome,226,747294,0.0-65.0-1.0,"""event"",""trial"",""time""
""fullscreenenter"",""1"",""2075""
","
","
","""event"",""trial"",""time""
""fullscreenenter"",""1"",""2075""
","
",,null,run_exp/static/images/task_images/aliens/old_aliens/planet/alien_planet-54.jpg,null,,,,,,,,,,,,,54,"34,37,40,13,49,50,2,3,69,65,56,22,54,76,11,43,21,35,41,15,23,20,9,26,77,19,8,73,75,63,17,78,5,66,38,59,39,16",,,,,,,,,,
land,227,747810,0.0-65.0-2.0,"""event"",""trial"",""time""
""fullscreenenter"",""1"",""2075""
","
","
","""event"",""trial"",""time""
""fullscreenenter"",""1"",""2075""
","
",,null,run_exp/static/images/task_images/land.jpg,null,,,,,,,102,,,13,,,,,,,,,,,,,,
dig,228,749816,0.0-65.0-3.0,"""event"",""trial"",""time""
""fullscreenenter"",""1"",""2075""
","
","
","""event"",""trial"",""time""
""fullscreenenter"",""1"",""2075""
","
",,,,,,,,,,,,"[{""stimulus"":""run_exp/static/images/task_images/dig.jpg"",""time"":0.3999999761581421},{""stimulus"":""run_exp/static/images/task_images/land.jpg"",""time"":669.6999999880791},{""stimulus"":""run_exp/static/images/task_images/dig.jpg"",""time"":1349.7999999523163}]",[],13,,,,,,,,,,,,,,
harvest,229,750831,0.0-65.0-4.0,"""event"",""trial"",""time""
""fullscreenenter"",""1"",""2075""
","
","
","""event"",""trial"",""time""
""fullscreenenter"",""1"",""2075""
","
",,null,run_exp/static/images/task_images/gems/102.jpg,null,,,,,,,15,,,13,,,,,102,0.147258366,0.147058824,,,,,,,
decision,230,751924,0.0-65.0-5.0,"""event"",""trial"",""time""
""fullscreenenter"",""1"",""2075""
","
","
","""event"",""trial"",""time""
""fullscreenenter"",""1"",""2075""
","
",,1091.9,run_exp/static/images/task_images/land.jpg,65,,,,,,,15,,,13,,,,,,,,36245,2,0,FALSE,,,
dig,231,753839,0.0-66.0-0.0,"""event"",""trial"",""time""
""fullscreenenter"",""1"",""2075""
","
","
","""event"",""trial"",""time""
""fullscreenenter"",""1"",""2075""
","
",,,,,,,,,,,,"[{""stimulus"":""run_exp/static/images/task_images/dig.jpg"",""time"":0.30000001192092896},{""stimulus"":""run_exp/static/images/task_images/land.jpg"",""time"":641.3999999761581},{""stimulus"":""run_exp/static/images/task_images/dig.jpg"",""time"":1273.8999999761581}]",[],13,,,,,,,,,,,,,,
harvest,232,754844,0.0-66.0-1.0,"""event"",""trial"",""time""
""fullscreenenter"",""1"",""2075""
","
","
","""event"",""trial"",""time""
""fullscreenenter"",""1"",""2075""
","
",,null,run_exp/static/images/task_images/gems/15.jpg,null,,,,,,,3,,,13,,,,,15,0.223043465,0.2,,,,,,,
decision,233,756236,0.0-66.0-2.0,"""event"",""trial"",""time""
""fullscreenenter"",""1"",""2075""
","
","
","""event"",""trial"",""time""
""fullscreenenter"",""1"",""2075""
","
",,1390.7,run_exp/static/images/task_images/land.jpg,65,,,,,,,3,,,13,,,,,,,,40557,2,1,FALSE,,,
dig,234,757858,0.0-67.0-0.0,"""event"",""trial"",""time""
""fullscreenenter"",""1"",""2075""
","
","
","""event"",""trial"",""time""
""fullscreenenter"",""1"",""2075""
","
",,,,,,,,,,,,"[{""stimulus"":""run_exp/static/images/task_images/dig.jpg"",""time"":0.20000004768371582},{""stimulus"":""run_exp/static/images/task_images/land.jpg"",""time"":548.2000000476837},{""stimulus"":""run_exp/static/images/task_images/dig.jpg"",""time"":1087.4000000357628}]",[],13,,,,,,,,,,,,,,
harvest,235,758875,0.0-67.0-1.0,"""event"",""trial"",""time""
""fullscreenenter"",""1"",""2075""
","
","
","""event"",""trial"",""time""
""fullscreenenter"",""1"",""2075""
","
",,null,run_exp/static/images/task_images/gems/3.jpg,null,,,,,,,1,,,13,,,,,3,0.189612731,0.333333333,,,,,,,
decision,236,759470,0.0-67.0-2.0,"""event"",""trial"",""time""
""fullscreenenter"",""1"",""2075""
","
","
","""event"",""trial"",""time""
""fullscreenenter"",""1"",""2075""
","
",,593.3,run_exp/static/images/task_images/land.jpg,76,,,,,,,1,,,13,,,,,,,,43791,2,2,TRUE,,,
travel,237,768894,0.0-68.0-0.0,"""event"",""trial"",""time""
""fullscreenenter"",""1"",""2075""
","
","
","""event"",""trial"",""time""
""fullscreenenter"",""1"",""2075""
","
",,,,,,,,,,,,"[{""stimulus"":""run_exp/static/images/task_images/rocket-01.jpg"",""time"":0.30000001192092896},{""stimulus"":""run_exp/static/images/task_images/rocket-02.jpg"",""time"":1054.800000011921},{""stimulus"":""run_exp/static/images/task_images/rocket-03.jpg"",""time"":2105.199999988079},{""stimulus"":""run_exp/static/images/task_images/rocket-04.jpg"",""time"":3140.199999988079},{""stimulus"":""run_exp/static/images/task_images/rocket-05.jpg"",""time"":4192.300000011921},{""stimulus"":""run_exp/static/images/task_images/rocket-06.jpg"",""time"":5232.199999988079},{""stimulus"":""run_exp/static/images/task_images/rocket-07.jpg"",""time"":6271.699999988079},{""stimulus"":""run_exp/static/images/task_images/rocket-08.jpg"",""time"":7330.800000011921},{""stimulus"":""run_exp/static/images/task_images/rocket-09.jpg"",""time"":8366.800000011921}]",[],13,,,,,,,,,,,,,,
