trial_type,trial_index,time_elapsed,internal_node_id,success,rt,stimulus,key_press,prompt,subject_id,age,gender,button_pressed,next_reward,animation_sequence,responses,planet,curr_prac_trial,n_prac_rounds,alien,aliens,reward_received,decay_rate_actual,decay_rate_exp,time_in_block,block_num,prt,last_trial_on_planet,button_html,bonus,num_failures
pavlovia,0,6,0.0-0.0,,,,,,,,,,,,,,,,,,,,,,,,,,,
fullscreen,1,4942,0.0-1.0,TRUE,,,,,,,,,,,,,,,,,,,,,,,,,,
instruc_welcome,2,14688,0.0-2.0,,null,run_exp/static/audio/clip_1_welcome.m4a,null,"<p>Howdy! In this experiment, you’ll be an explorer traveling through space to collect space treasure.</p><p>Your mission is to collect as much treasure as possible.</p><br><br><p><img src='run_exp/static/images/task_images/opening_img-01.jpg' height='300' width='auto'></p>",k0krLkRde9AKASU_a5Ke5UddwllDBGZ_MLRP_1zXJ3jlJjaSjqMS,8.88,female,,,,,,,,,,,,,,,,,,,
audio-keyboard-response,3,31286,0.0-3.0,,null,run_exp/static/audio/clip_2_move.m4a,null,,,,,,,,,,,,,,,,,,,,,,,
welcome_dec,4,37340,0.0-4.0,,6049.71,"<p>Howdy! In this experiment, you’ll be an explorer traveling through space to collect space treasure.</p><p>Your mission is to collect as much treasure as possible.</p><br><br><p><img src='run_exp/static/images/task_images/opening_img-01.jpg' height='300' width='auto'></p>",,,,,,0,,,,,,,,,,,,,,,,,,
html-keyboard-response,5,42062,0.0-5.0,,4717.64,"<p>Howdy! In this experiment, you’ll be an explorer traveling through space to collect space treasure.</p><p>Your mission is to collect as much treasure as possible.</p><br><br><p><img src='run_exp/static/images/task_images/opening_img-01.jpg' height='300' width='auto'></p><button class=""jspsych-html-btn-chosen""><img src=""run_exp/static/images/task_images/planet-01.jpg"" height=""50""></button><button class=""jspsych-html-btn-unchosen""><img src=""run_exp/static/images/task_images/planet-02.jpg"" height=""50""></button><p><b>[press the space bar to lock in your answer]<b><br></p>",32,,,,,,,,,,,,,,,,,,,,,,,
instruc_welcome,6,51786,0.0-6.0-0.0,,null,run_exp/static/audio/clip_1_welcome.m4a,null,"<p>Howdy! In this experiment, you’ll be an explorer traveling through space to collect space treasure.</p><p>Your mission is to collect as much treasure as possible.</p><br><br><p><img src='run_exp/static/images/task_images/opening_img-01.jpg' height='300' width='auto'></p>",k0krLkRde9AKASU_a5Ke5UddwllDBGZ_MLRP_1zXJ3jlJjaSjqMS,,,,,,,,,,,,,,,,,,,,,
audio-keyboard-response,7,68387,0.0-6.0-1.0,,null,run_exp/static/audio/clip_2_move.m4a,null,,,,,,,,,,,,,,,,,,,,,,,
welcome_dec,8,69724,0.0-6.0-2.0,,1331.155,"<p>Howdy! In this experiment, you’ll be an explorer traveling through space to collect space treasure.</p><p>Your mission is to collect as much treasure as possible.</p><br><br><p><img src='run_exp/static/images/task_images/opening_img-01.jpg' height='300' width='auto'></p>",,,,,,1,,,,,,,,,,,,,,,,,,
html-keyboard-response,9,71876,0.0-6.0-3.0,,2150.815,"<p>Howdy! In this experiment, you’ll be an explorer traveling through space to collect space treasure.</p><p>Your mission is to collect as much treasure as possible.</p><br><br><p><img src='run_exp/static/images/task_images/opening_img-01.jpg' height='300' width='auto'></p><button class=""jspsych-html-btn-unchosen""><img src=""run_exp/static/images/task_images/planet-01.jpg"" height=""50""></button><button class=""jspsych-html-btn-chosen""><img src=""run_exp/static/images/task_images/planet-02.jpg"" height=""50""></button><p><b>[press the space bar to lock in your answer]<b><br></p>",32,,,,,,,,,,,,,,,,,,,,,,,
instruc_goal,10,81945,0.0-7.0-0.0,,null,run_exp/static/audio/clip_3_goal.m4a,null,"<p> As a space explorer, you’ll visit different planets to dig for space treasure, these pink gems.</p> <p> The more treasure you dig up, the more bonus money you’ll win! </p><br><br><p><img src='run_exp/static/images/task_images/pink_gem.jpg' height='300' width='auto'></p>",,,,,,,,,,,,,,,,,,,,,,
instruc_goal,11,84436,0.0-7.0-1.0,,2489.1,"<p> As a space explorer, you’ll visit different planets to dig for space treasure, these pink gems.</p> <p> The more treasure you dig up, the more bonus money you’ll win! </p><br><br><p><img src='run_exp/static/images/task_images/pink_gem.jpg' height='300' width='auto'></p>",,,,,,1,,,,,,,,,,,,,,,,,,
html-keyboard-response,12,85659,0.0-7.0-2.0,,1222.2,"<p> As a space explorer, you’ll visit different planets to dig for space treasure, these pink gems.</p> <p> The more treasure you dig up, the more bonus money you’ll win! </p><br><br><p><img src='run_exp/static/images/task_images/pink_gem.jpg' height='300' width='auto'></p><button class=""jspsych-html-btn-unchosen""><img src=""run_exp/static/images/task_images/planet-01.jpg"" height=""50""></button><button class=""jspsych-html-btn-chosen""><img src=""run_exp/static/images/task_images/planet-02.jpg"" height=""50""></button><p><b>[press the space bar to lock in your answer]<b><br></p>",32,,,,,,,,,,,,,,,,,,,,,,,
instruc_dig,13,101665,0.0-8.0-0.0,,null,run_exp/static/audio/clip_4_dig.m4a,null,,,,,,100,,,,,,,,,,,,,,,,,
instruc_dig_try,14,101925,0.0-8.0-1.0,,258.25,"<p> When you’ve arrived at a new planet, you will dig once. </p> <p>Then, you get to decide if you want to stay on the planet and dig again or travel to a new planet and dig there.</p> <p> To stay and dig, press the letter <strong>‘A’</strong> on your keyboard. Try pressing it now! </p><p><img src='run_exp/static/images/task_images/land.jpg'  height='700' width='auto'></p>",65,"<p> When you’ve arrived at a new planet, you will dig once. </p> <p>Then, you get to decide if you want to stay on the planet and dig again or travel to a new planet and dig there.</p> <p> To stay and dig, press the letter <strong>‘A’</strong> on your keyboard. Try pressing it now! </p><p><img src='run_exp/static/images/task_images/land.jpg'  height='700' width='auto'></p>",,,,,100,,,,,,,,,,,,,,,,,
dig_prac,15,103957,0.0-8.0-2.0,,,,,,,,,,,"[{""stimulus"":""run_exp/static/images/task_images/dig.jpg"",""time"":0.4799999878741801},{""stimulus"":""run_exp/static/images/task_images/land.jpg"",""time"":668.7899999669753},{""stimulus"":""run_exp/static/images/task_images/dig.jpg"",""time"":1336.42999996664}]",[],,,,,,,,,,,,,,,
instruc_travel,16,140206,0.0-8.0-3.0,,null,run_exp/static/audio/clip_5_travel.m4a,null,"<p>Every time you dig up gems, there are less gems on the planet, so the more you dig on a planet the fewer gems you’ll get with each dig.</p><p>When gems are running low, you may want to travel to a new planet. </p> <p>  Planets are very far apart in this galaxy, so it will take some time to travel between them. </p> <br><p>There are lots and lots of planets for you to visit, so you won’t be able to return to any planets you’ve seen before. </p><br><p>To leave this planet and travel to a new one, press the letter <strong>‘L’</strong> on your keyboard. Try pressing it now! </p><p><img src='run_exp/static/images/task_images/rocket-01.jpg'  height='600' width='auto'></p>",,,,,,,,,,,,,,,,,,,,,,
instruc_travel_try,17,140357,0.0-8.0-4.0,,148.925,"<p>Every time you dig up gems, there are less gems on the planet, so the more you dig on a planet the fewer gems you’ll get with each dig.</p><p>When gems are running low, you may want to travel to a new planet. </p> <p>  Planets are very far apart in this galaxy, so it will take some time to travel between them. </p> <br><p>There are lots and lots of planets for you to visit, so you won’t be able to return to any planets you’ve seen before. </p><br><p>To leave this planet and travel to a new one, press the letter <strong>‘L’</strong> on your keyboard. Try pressing it now! </p><p><img src='run_exp/static/images/task_images/rocket-01.jpg'  height='600' width='auto'></p>",76,"<p>Every time you dig up gems, there are less gems on the planet, so the more you dig on a planet the fewer gems you’ll get with each dig.</p><p>When gems are running low, you may want to travel to a new planet. </p> <p>  Planets are very far apart in this galaxy, so it will take some time to travel between them. </p> <br><p>There are lots and lots of planets for you to visit, so you won’t be able to return to any planets you’ve seen before. </p><br><p>To leave this planet and travel to a new one, press the letter <strong>‘L’</strong> on your keyboard. Try pressing it now! </p><p><img src='run_exp/static/images/task_images/rocket-01.jpg'  height='600' width='auto'></p>",,,,,,,,,,,,,,,,,,,,,,
travel_prac,18,150364,0.0-8.0-5.0,,,,,,,,,,,"[{""stimulus"":""run_exp/static/images/task_images/rocket-01.jpg"",""time"":0.4199999966658652},{""stimulus"":""run_exp/static/images/task_images/rocket-02.jpg"",""time"":1127.8499999898486},{""stimulus"":""run_exp/static/images/task_images/rocket-03.jpg"",""time"":2231.7549999570474},{""stimulus"":""run_exp/static/images/task_images/rocket-04.jpg"",""time"":3338.850000000093},{""stimulus"":""run_exp/static/images/task_images/rocket-05.jpg"",""time"":4461.344999959692},{""stimulus"":""run_exp/static/images/task_images/rocket-06.jpg"",""time"":5569.465000007767},{""stimulus"":""run_exp/static/images/task_images/rocket-07.jpg"",""time"":6682.265000010375},{""stimulus"":""run_exp/static/images/task_images/rocket-08.jpg"",""time"":7790.449999971315},{""stimulus"":""run_exp/static/images/task_images/rocket-09.jpg"",""time"":8895.885000005364}]",[],0,,,,,,,,,,,,,,
instruc_alien_greet,19,177556,0.0-8.0-6.0,,null,run_exp/static/audio/clip_6_alien.m4a,null,"<p>When you arrive at a new planet, the alien who owns the treasure mine on that planet will greet you!</p><p>The better an alien takes care of their mine the easier it is to dig for gems. Some aliens take better care of their mine than others. So, you won’t get exactly the same amount of gems on each planet.</p><p>What the alien looks like does not tell you anything about how many gems there are on the planet.</p><br><p><img src=""run_exp/static/images/task_images/aliens/instructions_aliens/planet/alien_planet-1.jpg""  height=""600"" width=""auto""></p>",,,,,,,,,,,,,,,,,,,,,,
instruc_alien_greet,20,180748,0.0-8.0-7.0,,3187.66,"<p>When you arrive at a new planet, the alien who owns the treasure mine on that planet will greet you!</p><p>The better an alien takes care of their mine the easier it is to dig for gems. Some aliens take better care of their mine than others. So, you won’t get exactly the same amount of gems on each planet.</p><p>What the alien looks like does not tell you anything about how many gems there are on the planet.</p><br><p><img src=""run_exp/static/images/task_images/aliens/instructions_aliens/planet/alien_planet-1.jpg""  height=""600"" width=""auto""></p>",,,,,,1,,,,,,,,,,,,,,,,,,
html-keyboard-response,21,181452,0.0-8.0-8.0,,703,"<p>When you arrive at a new planet, the alien who owns the treasure mine on that planet will greet you!</p><p>The better an alien takes care of their mine the easier it is to dig for gems. Some aliens take better care of their mine than others. So, you won’t get exactly the same amount of gems on each planet.</p><p>What the alien looks like does not tell you anything about how many gems there are on the planet.</p><br><p><img src=""run_exp/static/images/task_images/aliens/instructions_aliens/planet/alien_planet-1.jpg""  height=""600"" width=""auto""></p><button class=""jspsych-html-btn-unchosen""><img src=""run_exp/static/images/task_images/planet-01.jpg"" height=""50""></button><button class=""jspsych-html-btn-chosen""><img src=""run_exp/static/images/task_images/planet-02.jpg"" height=""50""></button><p><b>[press the space bar to lock in your answer]<b><br></p>",32,,,,,,,,,,,,,,,,,,,,,,,
time_out,22,192556,0.0-9.0-0.0,,null,run_exp/static/audio/clip_7_timeout.m4a,null,"<p>If you don't make your choice fast enough, you’ll have to wait a few seconds before you can make another one.</p><p>You can’t dig for more gems or travel to new planets. You just have to sit and wait.</p><br><p><img src='run_exp/static/images/task_images/time_out.jpg'  height='600' width='auto'></p>",,,,,,,,,,,,,,,,,,,,,,
time_out,23,194908,0.0-9.0-1.0,,2348.08,"<p>If you don't make your choice fast enough, you’ll have to wait a few seconds before you can make another one.</p><p>You can’t dig for more gems or travel to new planets. You just have to sit and wait.</p><br><p><img src='run_exp/static/images/task_images/time_out.jpg'  height='600' width='auto'></p>",,,,,,1,,,,,,,,,,,,,,,,,,
html-keyboard-response,24,195204,0.0-9.0-2.0,,295.285,"<p>If you don't make your choice fast enough, you’ll have to wait a few seconds before you can make another one.</p><p>You can’t dig for more gems or travel to new planets. You just have to sit and wait.</p><br><p><img src='run_exp/static/images/task_images/time_out.jpg'  height='600' width='auto'></p><button class=""jspsych-html-btn-unchosen""><img src=""run_exp/static/images/task_images/planet-01.jpg"" height=""50""></button><button class=""jspsych-html-btn-chosen""><img src=""run_exp/static/images/task_images/planet-02.jpg"" height=""50""></button><p><b>[press the space bar to lock in your answer]<b><br></p>",32,,,,,,,,,,,,,,,,,,,,,,,
instruc_break,25,210876,0.0-10.0-0.0,,null,run_exp/static/audio/clip_8_break.m4a,null,"<p> After digging and traveling for a while, you’ll be able to take a break at home base. </p><p>The game will last 20 minutes no matter what.</p><p>You will visit home base every 5 minutes, so, you will visit home base three times during the game.</p><br><p><img src='run_exp/static/images/task_images/home_base.jpg' height='600' width='auto'></p>",,,,,,,,,,,,,,,,,,,,,,
instruc_break,26,213484,0.0-10.0-1.0,,2604.43,"<p> After digging and traveling for a while, you’ll be able to take a break at home base. </p><p>The game will last 20 minutes no matter what.</p><p>You will visit home base every 5 minutes, so, you will visit home base three times during the game.</p><br><p><img src='run_exp/static/images/task_images/home_base.jpg' height='600' width='auto'></p>",,,,,,1,,,,,,,,,,,,,,,,,,
html-keyboard-response,27,213780,0.0-10.0-2.0,,295.02,"<p> After digging and traveling for a while, you’ll be able to take a break at home base. </p><p>The game will last 20 minutes no matter what.</p><p>You will visit home base every 5 minutes, so, you will visit home base three times during the game.</p><br><p><img src='run_exp/static/images/task_images/home_base.jpg' height='600' width='auto'></p><button class=""jspsych-html-btn-unchosen""><img src=""run_exp/static/images/task_images/planet-01.jpg"" height=""50""></button><button class=""jspsych-html-btn-chosen""><img src=""run_exp/static/images/task_images/planet-02.jpg"" height=""50""></button><p><b>[press the space bar to lock in your answer]<b><br></p>",32,,,,,,,,,,,,,,,,,,,,,,,
instruc_prac_game,28,223916,0.0-11.0-0.0,,null,run_exp/static/audio/clip_9_practice.m4a,null,"<p> Are you ready to play a practice game? </p> <p>In this practice game, you'll be digging up barrels of gems. But, in the real game, you'll be digging up the gems themselves. </p>",,,,,,,,,,,,,,,,,,,,,,
html-button-response,29,226540,0.0-11.0-1.0,,2623.345,"<p> Are you ready to play a practice game? </p> <p>In this practice game, you'll be digging up barrels of gems. But, in the real game, you'll be digging up the gems themselves. </p>",,,,,,0,,,,,,,,,,,,,,,,,,
alien_welcome_prac,30,231544,0.0-12.0-0.0,,null,run_exp/static/images/task_images/aliens/practice_aliens/planet/alien_planet-5.jpg,null,,,,,,,,,,,,,,,,,,,,,,,
land_prac,31,232052,0.0-12.0-1.0,,null,run_exp/static/images/task_images/land.jpg,null,,,,,,101,,,0,,,,,,,,,,,,,,
dig_prac,32,234060,0.0-12.0-2.0,,,,,,,,,,,"[{""stimulus"":""run_exp/static/images/task_images/dig.jpg"",""time"":0.3999999607913196},{""stimulus"":""run_exp/static/images/task_images/land.jpg"",""time"":675.699999963399},{""stimulus"":""run_exp/static/images/task_images/dig.jpg"",""time"":1340.5649999622256}]",[],,,,,,,,,,,,,,,
harvest_prac,33,235061,0.0-12.0-3.0,,null,run_exp/static/images/task_images/barrel_text.jpg,null,,,,,,,,,,,,,,,,,,,,,,,
decision_prac,34,235924,0.0-12.0-4.0,,861.16,run_exp/static/images/task_images/land.jpg,65,,,,,,,,,,1,,,,,,,,,,,,,
dig_prac,35,237935,0.0-13.0-0.0,,,,,,,,,,,"[{""stimulus"":""run_exp/static/images/task_images/dig.jpg"",""time"":0.34500000765547156},{""stimulus"":""run_exp/static/images/task_images/land.jpg"",""time"":683.904999983497},{""stimulus"":""run_exp/static/images/task_images/dig.jpg"",""time"":1336.124999972526}]",[],,,,,,,,,,,,,,,
harvest_prac,36,238947,0.0-13.0-1.0,,null,run_exp/static/images/task_images/barrel_text.jpg,null,,,,,,,,,,,,,,,,,,,,,,,
decision_prac,37,241373,0.0-13.0-2.0,,2423.55,run_exp/static/images/task_images/land.jpg,65,,,,,,,,,,2,,,,,,,,,,,,,
dig_prac,38,243394,0.0-14.0-0.0,,,,,,,,,,,"[{""stimulus"":""run_exp/static/images/task_images/dig.jpg"",""time"":0.34499994944781065},{""stimulus"":""run_exp/static/images/task_images/land.jpg"",""time"":669.0999999991618},{""stimulus"":""run_exp/static/images/task_images/dig.jpg"",""time"":1348.604999948293}]",[],,,,,,,,,,,,,,,
harvest_prac,39,244408,0.0-14.0-1.0,,null,run_exp/static/images/task_images/barrel_text.jpg,null,,,,,,,,,,,,,,,,,,,,,,,
decision_prac,40,245652,0.0-14.0-2.0,,1241.78,run_exp/static/images/task_images/land.jpg,65,,,,,,,,,,3,,,,,,,,,,,,,
dig_prac,41,247655,0.0-15.0-0.0,,,,,,,,,,,"[{""stimulus"":""run_exp/static/images/task_images/dig.jpg"",""time"":0.11000002268701792},{""stimulus"":""run_exp/static/images/task_images/land.jpg"",""time"":667.7899999776855},{""stimulus"":""run_exp/static/images/task_images/dig.jpg"",""time"":1349.3800000287592}]",[],,,,,,,,,,,,,,,
harvest_prac,42,248657,0.0-15.0-1.0,,null,run_exp/static/images/task_images/barrel_text.jpg,null,,,,,,,,,,,,,,,,,,,,,,,
decision_prac,43,249012,0.0-15.0-2.0,,354.685,run_exp/static/images/task_images/land.jpg,65,,,,,,,,,,4,,,,,,,,,,,,,
dig_prac,44,251018,0.0-16.0-0.0,,,,,,,,,,,"[{""stimulus"":""run_exp/static/images/task_images/dig.jpg"",""time"":0.0850000069476664},{""stimulus"":""run_exp/static/images/task_images/land.jpg"",""time"":675.0500000198372},{""stimulus"":""run_exp/static/images/task_images/dig.jpg"",""time"":1336.3900000113063}]",[],,,,,,,,,,,,,,,
harvest_prac,45,252035,0.0-16.0-1.0,,null,run_exp/static/images/task_images/barrel_text.jpg,null,,,,,,,,,,,,,,,,,,,,,,,
decision_prac,46,252141,0.0-16.0-2.0,,104.065,run_exp/static/images/task_images/land.jpg,65,,,,,,,,,,,1,,,,,,,,,,,,
quiz_instruc,47,253988,0.0-17.0-0.0,,1842.155,run_exp/static/audio/clip_10_quiz.m4a,,,,,,0,,,,,,,,,,,,,,,,,,
instruc_repeat,48,296747,0.0-17.0-1.0,,null,"<p> Are you ready to play a practice game? </p> <p>In this practice game, you'll be digging up barrels of gems. But, in the real game, you'll be digging up the gems themselves. </p>",null,"<p>In this game, your goal is to collect as many gems as you can. That’s how you will win bonus money. </p> <p>The entire game will last 20 minutes no matter how many gems you collect or how many planets you visit. </p><p>To stay on a planet and dig again, press the letter A on your keyboard. To leave for a new planet, press the letter L.</p><p>The more you dig on a planet, the fewer gems you’ll get with each dig which is why you might consider leaving for a new planet. </p><p>When you arrive at a new planet, you’ll be greeted by an alien. What the alien looks like does not tell you anything about how much treasure is on the planet. </p>",,,,,,,,,,,,,,,,,,,,,,
instruc_repeat_continue,49,298484,0.0-17.0-2.0,,1733.97,"<p> Are you ready to play a practice game? </p> <p>In this practice game, you'll be digging up barrels of gems. But, in the real game, you'll be digging up the gems themselves. </p>",,,,,,0,,,,,,,,,,,,,,,,,,
quiz_q_1_ask,50,303884,0.0-17.0-3.0,,5398.78,run_exp/static/audio/clip_11_q1_ask.m4a,,,,,,2,,,,,,,,,,,,,,,,,,
quiz_q_1_fb_correct,51,307726,0.0-18.0-0.0,,null,run_exp/static/audio/clip_12_q1_corrrect.m4a,null,<p>That’s correct. You win extra money by collecting more gems.</p>,,,,,,,,,,,,,,,,,,,,,,
quiz_q_2_ask,52,315572,0.0-18.0-1.0,,7843.28,run_exp/static/audio/clip_14_q2_ask.m4a,,,,,,1,,,,,,,,,,,,,,,,,,
quiz_q_2_fb_correct,53,319587,0.0-19.0-0.0,,null,run_exp/static/audio/clip_15_q2_correct.m4a,null,<p>That’s correct. The experiment is 20 minutes no matter what.</p>,,,,,,,,,,,,,,,,,,,,,,
quiz_q_3_ask,54,336548,0.0-19.0-1.0,,16959.38,run_exp/static/audio/clip_17_q3_ask.m4a,,,,,,1,,,,,,,,,,,,,,,,,,
quiz_q_3_fb_correct,55,340527,0.0-20.0-0.0,,null,run_exp/static/audio/clip_18_q3_correct.m4a,null,<p> That’s correct. You press the letter L to travel to a new planet.</p>,,,,,,,,,,,,,,,,,,,,,,
quiz_q_4_ask,56,349164,0.0-20.0-1.0,,8634.875,run_exp/static/audio/clip_20_q4_ask.m4a,,,,,,0,,,,,,,,,,,,,,,,,,
quiz_q_4_fb_correct,57,354488,0.0-21.0-0.0,,null,run_exp/static/audio/clip_21_q4_correct.m4a,null,<p> That’s correct. The more you dig on a planet the fewer gems you’ll get with each dig. </p>,,,,,,,,,,,,,,,,,,,,,,
quiz_q_5_ask,58,358964,0.0-21.0-1.0,,4473.675,run_exp/static/audio/clip_23_q5_ask.m4a,,,,,,1,,,,,,,,,,,,,,,,,,
quiz_q_5_fb_correct,59,363966,0.0-22.0-0.0,,null,run_exp/static/audio/clip_24_q5_correct.m4a,null,<p> That’s correct. The alien tells you nothing about how much treasure is on the planet.</p>,,,,,,,,,,,,,,,,,,,,,,
quiz_correct,60,367446,0.0-23.0-0.0,,null,run_exp/static/audio/clip_26_correct_quiz.m4a,null,,,,,,,,,,,,,,,,,,,,,,,
quiz_correct_continue,61,368940,0.0-23.0-1.0,,1492.14,<p>Good job! You're now ready to move on to the real game!</p>,,,,,,0,,,,,,,,,,,,,,,,,,
audio-keyboard-response,62,379066,0.0-23.0-2.0,,null,run_exp/static/audio/clip_28_real_game.m4a,null,,,,,,,,,,,,,,,,,,,,,,,
instruc_begin_exp_contine,63,381164,0.0-23.0-3.0,,2095.215,"<p>Now that you know how  to dig for space treasure and travel to new planets,you can start exploring! </p><p>Do you want to go over the instructions again or get started with the real game?</p>",,,,,,1,,,,,,1,,,,,,,,,,,,
alien_welcome,64,386173,0.0-24.0-0.0,,null,run_exp/static/images/task_images/aliens/old_aliens/planet/alien_planet-22.jpg,null,,,,,,,,,,,,22,"22,36,65,33,57,67,60,64,25,44,56,78,27,68,7,47,61,45,48,66,75,52",,,,,,,,,,
land,65,386690,0.0-24.0-1.0,,null,run_exp/static/images/task_images/land.jpg,null,,,,,,88,,,1,,,,,,,,,,,,,,
dig,66,388702,0.0-24.0-2.0,,,,,,,,,,,"[{""stimulus"":""run_exp/static/images/task_images/dig.jpg"",""time"":0.4199999966658652},{""stimulus"":""run_exp/static/images/task_images/land.jpg"",""time"":680.0599999842234},{""stimulus"":""run_exp/static/images/task_images/dig.jpg"",""time"":1341.5699999895878}]",[],1,,,,,,,,,,,,,,
harvest,67,389713,0.0-24.0-3.0,,null,run_exp/static/images/task_images/gems/88.jpg,null,,,,,,15,,,1,,,,,88,0.173425455,0.170454545,,,,,,,
decision,68,390836,0.0-24.0-4.0,,1120.23,run_exp/static/images/task_images/land.jpg,65,,,,,,15,,,1,,,,,,,,9672,1,0,FALSE,,,
dig,69,392736,0.0-25.0-0.0,,,,,,,,,,,"[{""stimulus"":""run_exp/static/images/task_images/dig.jpg"",""time"":0.30999997397884727},{""stimulus"":""run_exp/static/images/task_images/land.jpg"",""time"":642.8249999880791},{""stimulus"":""run_exp/static/images/task_images/dig.jpg"",""time"":1257.6899999985471}]",[],1,,,,,,,,,,,,,,
harvest,70,393754,0.0-25.0-1.0,,null,run_exp/static/images/task_images/gems/15.jpg,null,,,,,,4,,,1,,,,,15,0.253274361,0.266666667,,,,,,,
decision,71,393773,0.0-25.0-2.0,,17.09500002,run_exp/static/images/task_images/land.jpg,65,,,,,,4,,,1,,,,,,,,12609,1,1,FALSE,,,
dig,72,396765,0.0-26.0-0.0,,,,,,,,,,,"[{""stimulus"":""run_exp/static/images/task_images/dig.jpg"",""time"":0.31999999191612005},{""stimulus"":""run_exp/static/images/task_images/land.jpg"",""time"":1005.6450000265613},{""stimulus"":""run_exp/static/images/task_images/dig.jpg"",""time"":2005.765000008978}]",[],1,,,,,,,,,,,,,,
harvest,73,397767,0.0-26.0-1.0,,null,run_exp/static/images/task_images/gems/4.jpg,null,,,,,,1,,,1,,,,,4,0.233474876,0.25,,,,,,,
decision,74,397772,0.0-26.0-2.0,,3.159999964,run_exp/static/images/task_images/land.jpg,65,,,,,,1,,,1,,,,,,,,16608,1,2,FALSE,,,
dig,75,400777,0.0-27.0-0.0,,,,,,,,,,,"[{""stimulus"":""run_exp/static/images/task_images/dig.jpg"",""time"":0.3100000321865082},{""stimulus"":""run_exp/static/images/task_images/land.jpg"",""time"":1014.0450000180863},{""stimulus"":""run_exp/static/images/task_images/dig.jpg"",""time"":2011.530000017956}]",[],1,,,,,,,,,,,,,,
harvest,76,401789,0.0-27.0-1.0,,null,run_exp/static/images/task_images/gems/1.jpg,null,,,,,,0,,,1,,,,,1,0.207113219,0,,,,,,,
decision,77,401828,0.0-27.0-2.0,,37.045,run_exp/static/images/task_images/land.jpg,65,,,,,,0,,,1,,,,,,,,20664,1,3,FALSE,,,
dig,78,404802,0.0-28.0-0.0,,,,,,,,,,,"[{""stimulus"":""run_exp/static/images/task_images/dig.jpg"",""time"":0.31999999191612005},{""stimulus"":""run_exp/static/images/task_images/land.jpg"",""time"":993.6100000049919},{""stimulus"":""run_exp/static/images/task_images/dig.jpg"",""time"":1984.729999967385}]",[],1,,,,,,,,,,,,,,
harvest,79,405817,0.0-28.0-1.0,,null,run_exp/static/images/task_images/gems/0.jpg,null,,,,,,0,,,1,,,,,0,0.186952123,NaN,,,,,,,
decision,80,406077,0.0-28.0-2.0,,253.82,run_exp/static/images/task_images/land.jpg,65,,,,,,0,,,1,,,,,,,,24912,1,4,FALSE,,,
dig,81,408844,0.0-29.0-0.0,,,,,,,,,,,"[{""stimulus"":""run_exp/static/images/task_images/dig.jpg"",""time"":0.42500003473833203},{""stimulus"":""run_exp/static/images/task_images/land.jpg"",""time"":920.589999994263},{""stimulus"":""run_exp/static/images/task_images/dig.jpg"",""time"":1846.300000033807}]",[],1,,,,,,,,,,,,,,
harvest,82,409857,0.0-29.0-1.0,,null,run_exp/static/images/task_images/gems/0.jpg,null,,,,,,0,,,1,,,,,0,0.140369845,NaN,,,,,,,
decision,83,411876,0.0-29.0-2.0,,2017.025,run_exp/static/images/task_images/land.jpg,76,,,,,,0,,,1,,,,,,,,30711,1,5,TRUE,,,
travel,84,419855,0.0-30.0-0.0,,,,,,,,,,,"[{""stimulus"":""run_exp/static/images/task_images/rocket-01.jpg"",""time"":0.08999998681247234},{""stimulus"":""run_exp/static/images/task_images/rocket-02.jpg"",""time"":891.509999986738},{""stimulus"":""run_exp/static/images/task_images/rocket-03.jpg"",""time"":1778.2799999695271},{""stimulus"":""run_exp/static/images/task_images/rocket-04.jpg"",""time"":2666.174999962095},{""stimulus"":""run_exp/static/images/task_images/rocket-05.jpg"",""time"":3551.469999947585},{""stimulus"":""run_exp/static/images/task_images/rocket-06.jpg"",""time"":4436.574999999721},{""stimulus"":""run_exp/static/images/task_images/rocket-07.jpg"",""time"":5324.654999945778},{""stimulus"":""run_exp/static/images/task_images/rocket-08.jpg"",""time"":6204.279999947175},{""stimulus"":""run_exp/static/images/task_images/rocket-09.jpg"",""time"":7092.634999949951}]",[],1,,,,,,,,,,,,,,
alien_welcome,85,424873,0.0-30.0-1.0,,null,run_exp/static/images/task_images/aliens/old_aliens/planet/alien_planet-36.jpg,null,,,,,,,,,,,,36,"22,36,65,33,57,67,60,64,25,44,56,78,27,68,7,47,61,45,48,66,75,52",,,,,,,,,,
land,86,425376,0.0-30.0-2.0,,null,run_exp/static/images/task_images/land.jpg,null,,,,,,101,,,2,,,,,,,,,,,,,,
dig,87,427383,0.0-30.0-3.0,,,,,,,,,,,"[{""stimulus"":""run_exp/static/images/task_images/dig.jpg"",""time"":0.36999996518716216},{""stimulus"":""run_exp/static/images/task_images/land.jpg"",""time"":677.3449999745935},{""stimulus"":""run_exp/static/images/task_images/dig.jpg"",""time"":1342.6050000125542}]",[],2,,,,,,,,,,,,,,
harvest,88,428391,0.0-30.0-4.0,,null,run_exp/static/images/task_images/gems/101.jpg,null,,,,,,20,,,2,,,,,101,0.194420191,0.198019802,,,,,,,
decision,89,429076,0.0-30.0-5.0,,682.245,run_exp/static/images/task_images/land.jpg,65,,,,,,20,,,2,,,,,,,,47911,1,0,FALSE,,,
dig,90,431405,0.0-31.0-0.0,,,,,,,,,,,"[{""stimulus"":""run_exp/static/images/task_images/dig.jpg"",""time"":0.09000004502013326},{""stimulus"":""run_exp/static/images/task_images/land.jpg"",""time"":787.5950000016019},{""stimulus"":""run_exp/static/images/task_images/dig.jpg"",""time"":1550.7800000486895}]",[],2,,,,,,,,,,,,,,
harvest,91,432416,0.0-31.0-1.0,,null,run_exp/static/images/task_images/gems/20.jpg,null,,,,,,3,,,2,,,,,20,0.134823877,0.15,,,,,,,
decision,92,434853,0.0-31.0-2.0,,2434.72,run_exp/static/images/task_images/land.jpg,65,,,,,,3,,,2,,,,,,,,53689,1,1,FALSE,,,
dig,93,435425,0.0-32.0-0.0,,,,,,,,,,,"[{""stimulus"":""run_exp/static/images/task_images/dig.jpg"",""time"":0.3250000299885869},{""stimulus"":""run_exp/static/images/task_images/land.jpg"",""time"":202.1400000085123},{""stimulus"":""run_exp/static/images/task_images/dig.jpg"",""time"":392.5450000097044}]",[],2,,,,,,,,,,,,,,
harvest,94,436439,0.0-32.0-1.0,,null,run_exp/static/images/task_images/gems/3.jpg,null,,,,,,1,,,2,,,,,3,0.208312113,0.333333333,,,,,,,
decision,95,436460,0.0-32.0-2.0,,19.485,run_exp/static/images/task_images/land.jpg,65,,,,,,1,,,2,,,,,,,,55295,1,2,FALSE,,,
dig,96,439450,0.0-33.0-0.0,,,,,,,,,,,"[{""stimulus"":""run_exp/static/images/task_images/dig.jpg"",""time"":0.11500000255182385},{""stimulus"":""run_exp/static/images/task_images/land.jpg"",""time"":1006.9250000524335},{""stimulus"":""run_exp/static/images/task_images/dig.jpg"",""time"":1988.050000043586}]",[],2,,,,,,,,,,,,,,
harvest,97,440462,0.0-33.0-1.0,,null,run_exp/static/images/task_images/gems/1.jpg,null,,,,,,0,,,2,,,,,1,0.218948918,0,,,,,,,
decision,98,442092,0.0-33.0-2.0,,1627.315,run_exp/static/images/task_images/land.jpg,65,,,,,,0,,,2,,,,,,,,60927,1,3,FALSE,,,
dig,99,443473,0.0-34.0-0.0,,,,,,,,,,,"[{""stimulus"":""run_exp/static/images/task_images/dig.jpg"",""time"":0.10000000474974513},{""stimulus"":""run_exp/static/images/task_images/land.jpg"",""time"":462.78000000165775},{""stimulus"":""run_exp/static/images/task_images/dig.jpg"",""time"":919.7199999471195}]",[],2,,,,,,,,,,,,,,
harvest,100,444486,0.0-34.0-1.0,,null,run_exp/static/images/task_images/gems/0.jpg,null,,,,,,0,,,2,,,,,0,0.288473631,NaN,,,,,,,
decision,101,444917,0.0-34.0-2.0,,429.02,run_exp/static/images/task_images/land.jpg,65,,,,,,0,,,2,,,,,,,,63752,1,4,FALSE,,,
dig,102,447497,0.0-35.0-0.0,,,,,,,,,,,"[{""stimulus"":""run_exp/static/images/task_images/dig.jpg"",""time"":0.26000000070780516},{""stimulus"":""run_exp/static/images/task_images/land.jpg"",""time"":862.6199999707751},{""stimulus"":""run_exp/static/images/task_images/dig.jpg"",""time"":1717.3699999693781}]",[],2,,,,,,,,,,,,,,
harvest,103,448511,0.0-35.0-1.0,,null,run_exp/static/images/task_images/gems/0.jpg,null,,,,,,0,,,2,,,,,0,0.19597636,NaN,,,,,,,
decision,104,449932,0.0-35.0-2.0,,1419.26,run_exp/static/images/task_images/land.jpg,76,,,,,,0,,,2,,,,,,,,68768,1,5,TRUE,,,
travel,105,458518,0.0-36.0-0.0,,,,,,,,,,,"[{""stimulus"":""run_exp/static/images/task_images/rocket-01.jpg"",""time"":0.3150000120513141},{""stimulus"":""run_exp/static/images/task_images/rocket-02.jpg"",""time"":960.4149999795482},{""stimulus"":""run_exp/static/images/task_images/rocket-03.jpg"",""time"":1911.5849999943748},{""stimulus"":""run_exp/static/images/task_images/rocket-04.jpg"",""time"":2875.7299999706447},{""stimulus"":""run_exp/static/images/task_images/rocket-05.jpg"",""time"":3826.699999975972},{""stimulus"":""run_exp/static/images/task_images/rocket-06.jpg"",""time"":4779.890000005253},{""stimulus"":""run_exp/static/images/task_images/rocket-07.jpg"",""time"":5728.334999992512},{""stimulus"":""run_exp/static/images/task_images/rocket-08.jpg"",""time"":6681.604999990668},{""stimulus"":""run_exp/static/images/task_images/rocket-09.jpg"",""time"":7626.035000022966}]",[],2,,,,,,,,,,,,,,
alien_welcome,106,463522,0.0-36.0-1.0,,null,run_exp/static/images/task_images/aliens/old_aliens/planet/alien_planet-65.jpg,null,,,,,,,,,,,,65,"22,36,65,33,57,67,60,64,25,44,56,78,27,68,7,47,61,45,48,66,75,52",,,,,,,,,,
land,107,464028,0.0-36.0-2.0,,null,run_exp/static/images/task_images/land.jpg,null,,,,,,107,,,3,,,,,,,,,,,,,,
dig,108,466032,0.0-36.0-3.0,,,,,,,,,,,"[{""stimulus"":""run_exp/static/images/task_images/dig.jpg"",""time"":0.22500002523884177},{""stimulus"":""run_exp/static/images/task_images/land.jpg"",""time"":678.4099999931641},{""stimulus"":""run_exp/static/images/task_images/dig.jpg"",""time"":1341.6200000210665}]",[],3,,,,,,,,,,,,,,
harvest,109,467046,0.0-36.0-4.0,,null,run_exp/static/images/task_images/gems/107.jpg,null,,,,,,56,,,3,,,,,107,0.522273056,0.523364486,,,,,,,
decision,110,467220,0.0-36.0-5.0,,172.595,run_exp/static/images/task_images/land.jpg,65,,,,,,56,,,3,,,,,,,,86056,1,0,FALSE,,,
dig,111,470062,0.0-37.0-0.0,,,,,,,,,,,"[{""stimulus"":""run_exp/static/images/task_images/dig.jpg"",""time"":0.37999998312443495},{""stimulus"":""run_exp/static/images/task_images/land.jpg"",""time"":952.4550000205636},{""stimulus"":""run_exp/static/images/task_images/dig.jpg"",""time"":1897.5649999920279}]",[],3,,,,,,,,,,,,,,
harvest,112,471073,0.0-37.0-1.0,,null,run_exp/static/images/task_images/gems/56.jpg,null,,,,,,29,,,3,,,,,56,0.523182663,0.517857143,,,,,,,
decision,113,472350,0.0-37.0-2.0,,1274.59,run_exp/static/images/task_images/land.jpg,65,,,,,,29,,,3,,,,,,,,91185,1,1,FALSE,,,
dig,114,474097,0.0-38.0-0.0,,,,,,,,,,,"[{""stimulus"":""run_exp/static/images/task_images/dig.jpg"",""time"":0.31999999191612005},{""stimulus"":""run_exp/static/images/task_images/land.jpg"",""time"":588.2700000074692},{""stimulus"":""run_exp/static/images/task_images/dig.jpg"",""time"":1155.8599999989383}]",[],3,,,,,,,,,,,,,,
harvest,115,475103,0.0-38.0-1.0,,null,run_exp/static/images/task_images/gems/29.jpg,null,,,,,,13,,,3,,,,,29,0.44138812,0.448275862,,,,,,,
decision,116,477189,0.0-38.0-2.0,,2083.225,run_exp/static/images/task_images/land.jpg,65,,,,,,13,,,3,,,,,,,,96024,1,2,FALSE,,,
dig,117,478119,0.0-39.0-0.0,,,,,,,,,,,"[{""stimulus"":""run_exp/static/images/task_images/dig.jpg"",""time"":0.35499996738508344},{""stimulus"":""run_exp/static/images/task_images/land.jpg"",""time"":307.2299999766983},{""stimulus"":""run_exp/static/images/task_images/dig.jpg"",""time"":624.2849999689497}]",[],3,,,,,,,,,,,,,,
harvest,118,479134,0.0-39.0-1.0,,null,run_exp/static/images/task_images/gems/13.jpg,null,,,,,,6,,,3,,,,,13,0.451624783,0.461538462,,,,,,,
decision,119,480148,0.0-39.0-2.0,,1012.13,run_exp/static/images/task_images/land.jpg,65,,,,,,6,,,3,,,,,,,,98984,1,3,FALSE,,,
dig,120,482146,0.0-40.0-0.0,,,,,,,,,,,"[{""stimulus"":""run_exp/static/images/task_images/dig.jpg"",""time"":0.324999971780926},{""stimulus"":""run_exp/static/images/task_images/land.jpg"",""time"":674.1649999748915},{""stimulus"":""run_exp/static/images/task_images/dig.jpg"",""time"":1340.5250000068918}]",[],3,,,,,,,,,,,,,,
harvest,121,483159,0.0-40.0-1.0,,null,run_exp/static/images/task_images/gems/6.jpg,null,,,,,,3,,,3,,,,,6,0.447710854,0.5,,,,,,,
decision,122,484516,0.0-40.0-2.0,,1355.155,run_exp/static/images/task_images/land.jpg,65,,,,,,3,,,3,,,,,,,,103352,1,4,FALSE,,,
dig,123,486168,0.0-41.0-0.0,,,,,,,,,,,"[{""stimulus"":""run_exp/static/images/task_images/dig.jpg"",""time"":0.3250000299885869},{""stimulus"":""run_exp/static/images/task_images/land.jpg"",""time"":553.4950000001118},{""stimulus"":""run_exp/static/images/task_images/dig.jpg"",""time"":1107.190000009723}]",[],3,,,,,,,,,,,,,,
harvest,124,487180,0.0-41.0-1.0,,null,run_exp/static/images/task_images/gems/3.jpg,null,,,,,,2,,,3,,,,,3,0.567612098,0.666666667,,,,,,,
decision,125,488524,0.0-41.0-2.0,,1341.25,run_exp/static/images/task_images/land.jpg,65,,,,,,2,,,3,,,,,,,,107360,1,5,FALSE,,,
dig,126,490190,0.0-42.0-0.0,,,,,,,,,,,"[{""stimulus"":""run_exp/static/images/task_images/dig.jpg"",""time"":0.35500002559274435},{""stimulus"":""run_exp/static/images/task_images/land.jpg"",""time"":565.485000028275},{""stimulus"":""run_exp/static/images/task_images/dig.jpg"",""time"":1119.9150000466034}]",[],3,,,,,,,,,,,,,,
harvest,127,491205,0.0-42.0-1.0,,null,run_exp/static/images/task_images/gems/2.jpg,null,,,,,,1,,,3,,,,,2,0.583431179,0.5,,,,,,,
decision,128,492124,0.0-42.0-2.0,,918.645,run_exp/static/images/task_images/land.jpg,65,,,,,,1,,,3,,,,,,,,110960,1,6,FALSE,,,
dig,129,494218,0.0-43.0-0.0,,,,,,,,,,,"[{""stimulus"":""run_exp/static/images/task_images/dig.jpg"",""time"":0.31999999191612005},{""stimulus"":""run_exp/static/images/task_images/land.jpg"",""time"":710.1150000235066},{""stimulus"":""run_exp/static/images/task_images/dig.jpg"",""time"":1393.645000003744}]",[],3,,,,,,,,,,,,,,
harvest,130,495229,0.0-43.0-1.0,,null,run_exp/static/images/task_images/gems/1.jpg,null,,,,,,0,,,3,,,,,1,0.439618305,0,,,,,,,
decision,131,496149,0.0-43.0-2.0,,917.16,run_exp/static/images/task_images/land.jpg,65,,,,,,0,,,3,,,,,,,,114984,1,7,FALSE,,,
dig,132,498252,0.0-44.0-0.0,,,,,,,,,,,"[{""stimulus"":""run_exp/static/images/task_images/dig.jpg"",""time"":0.3400000277906656},{""stimulus"":""run_exp/static/images/task_images/land.jpg"",""time"":706.7950000055134},{""stimulus"":""run_exp/static/images/task_images/dig.jpg"",""time"":1401.56000002753}]",[],3,,,,,,,,,,,,,,
harvest,133,499265,0.0-44.0-1.0,,null,run_exp/static/images/task_images/gems/0.jpg,null,,,,,,0,,,3,,,,,0,0.51611138,NaN,,,,,,,
decision,134,499732,0.0-44.0-2.0,,464.77,run_exp/static/images/task_images/land.jpg,65,,,,,,0,,,3,,,,,,,,118568,1,8,FALSE,,,
dig,135,502286,0.0-45.0-0.0,,,,,,,,,,,"[{""stimulus"":""run_exp/static/images/task_images/dig.jpg"",""time"":0.30999997397884727},{""stimulus"":""run_exp/static/images/task_images/land.jpg"",""time"":857.9399999580346},{""stimulus"":""run_exp/static/images/task_images/dig.jpg"",""time"":1698.4199999715202}]",[],3,,,,,,,,,,,,,,
harvest,136,503299,0.0-45.0-1.0,,null,run_exp/static/images/task_images/gems/0.jpg,null,,,,,,0,,,3,,,,,0,0.567127655,NaN,,,,,,,
decision,137,504308,0.0-45.0-2.0,,1006.98,run_exp/static/images/task_images/land.jpg,65,,,,,,0,,,3,,,,,,,,123144,1,9,FALSE,,,
dig,138,506320,0.0-46.0-0.0,,,,,,,,,,,"[{""stimulus"":""run_exp/static/images/task_images/dig.jpg"",""time"":0.31999999191612005},{""stimulus"":""run_exp/static/images/task_images/land.jpg"",""time"":678.4599999664351},{""stimulus"":""run_exp/static/images/task_images/dig.jpg"",""time"":1338.0749999778345}]",[],3,,,,,,,,,,,,,,
harvest,139,507336,0.0-46.0-1.0,,null,run_exp/static/images/task_images/gems/0.jpg,null,,,,,,0,,,3,,,,,0,0.511938428,NaN,,,,,,,
decision,140,508996,0.0-46.0-2.0,,1657.265,run_exp/static/images/task_images/land.jpg,76,,,,,,0,,,3,,,,,,,,127831,1,10,TRUE,,,
travel,141,517339,0.0-47.0-0.0,,,,,,,,,,,"[{""stimulus"":""run_exp/static/images/task_images/rocket-01.jpg"",""time"":0.0850000069476664},{""stimulus"":""run_exp/static/images/task_images/rocket-02.jpg"",""time"":931.7149999551475},{""stimulus"":""run_exp/static/images/task_images/rocket-03.jpg"",""time"":1867.6749999867752},{""stimulus"":""run_exp/static/images/task_images/rocket-04.jpg"",""time"":2790.3949999599718},{""stimulus"":""run_exp/static/images/task_images/rocket-05.jpg"",""time"":3706.5549999824725},{""stimulus"":""run_exp/static/images/task_images/rocket-06.jpg"",""time"":4638.7249999679625},{""stimulus"":""run_exp/static/images/task_images/rocket-07.jpg"",""time"":5568.204999959562},{""stimulus"":""run_exp/static/images/task_images/rocket-08.jpg"",""time"":6486.734999984037},{""stimulus"":""run_exp/static/images/task_images/rocket-09.jpg"",""time"":7421.029999968596}]",[],3,,,,,,,,,,,,,,
alien_welcome,142,522356,0.0-47.0-1.0,,null,run_exp/static/images/task_images/aliens/old_aliens/planet/alien_planet-33.jpg,null,,,,,,,,,,,,33,"22,36,65,33,57,67,60,64,25,44,56,78,27,68,7,47,61,45,48,66,75,52",,,,,,,,,,
land,143,522864,0.0-47.0-2.0,,null,run_exp/static/images/task_images/land.jpg,null,,,,,,95,,,4,,,,,,,,,,,,,,
dig,144,524872,0.0-47.0-3.0,,,,,,,,,,,"[{""stimulus"":""run_exp/static/images/task_images/dig.jpg"",""time"":0.21999998716637492},{""stimulus"":""run_exp/static/images/task_images/land.jpg"",""time"":681.2999999965541},{""stimulus"":""run_exp/static/images/task_images/dig.jpg"",""time"":1346.8149999971502}]",[],4,,,,,,,,,,,,,,
harvest,145,525888,0.0-47.0-4.0,,null,run_exp/static/images/task_images/gems/95.jpg,null,,,,,,42,,,4,,,,,95,0.44131435,0.442105263,,,,,,,
decision,146,526196,0.0-47.0-5.0,,305.43,run_exp/static/images/task_images/land.jpg,65,,,,,,42,,,4,,,,,,,,145031,1,0,FALSE,,,
dig,147,528908,0.0-48.0-0.0,,,,,,,,,,,"[{""stimulus"":""run_exp/static/images/task_images/dig.jpg"",""time"":0.09000004502013326},{""stimulus"":""run_exp/static/images/task_images/land.jpg"",""time"":907.6550000463612},{""stimulus"":""run_exp/static/images/task_images/dig.jpg"",""time"":1807.1800000034273}]",[],4,,,,,,,,,,,,,,
harvest,148,529917,0.0-48.0-1.0,,null,run_exp/static/images/task_images/gems/42.jpg,null,,,,,,21,,,4,,,,,42,0.495850624,0.5,,,,,,,
decision,149,530381,0.0-48.0-2.0,,462.565,run_exp/static/images/task_images/land.jpg,65,,,,,,21,,,4,,,,,,,,149217,1,1,FALSE,,,
dig,150,532938,0.0-49.0-0.0,,,,,,,,,,,"[{""stimulus"":""run_exp/static/images/task_images/dig.jpg"",""time"":0.3150000120513141},{""stimulus"":""run_exp/static/images/task_images/land.jpg"",""time"":857.140000036452},{""stimulus"":""run_exp/static/images/task_images/dig.jpg"",""time"":1698.774999997113}]",[],4,,,,,,,,,,,,,,
harvest,151,533949,0.0-49.0-1.0,,null,run_exp/static/images/task_images/gems/21.jpg,null,,,,,,8,,,4,,,,,21,0.396625201,0.380952381,,,,,,,
decision,152,536028,0.0-49.0-2.0,,2076.8,run_exp/static/images/task_images/land.jpg,65,,,,,,8,,,4,,,,,,,,154864,1,2,FALSE,,,
dig,153,536967,0.0-50.0-0.0,,,,,,,,,,,"[{""stimulus"":""run_exp/static/images/task_images/dig.jpg"",""time"":0.324999971780926},{""stimulus"":""run_exp/static/images/task_images/land.jpg"",""time"":314.8099999525584},{""stimulus"":""run_exp/static/images/task_images/dig.jpg"",""time"":630.0549999577925}]",[],4,,,,,,,,,,,,,,
harvest,154,537969,0.0-50.0-1.0,,null,run_exp/static/images/task_images/gems/8.jpg,null,,,,,,4,,,4,,,,,8,0.46199404,0.5,,,,,,,
decision,155,540982,0.0-50.0-2.0,,null,run_exp/static/images/task_images/land.jpg,null,,,,,,4,,,4,,,,,,,,159817,1,3,FALSE,,,
time_out,156,542996,0.0-51.0-0.0,,null,run_exp/static/images/task_images/time_out.jpg,null,,,,,,4,,,,,,,,,,,,,,,,,
decision,157,546002,0.0-51.0-1.0,,null,run_exp/static/images/task_images/land.jpg,null,,,,,,4,,,4,,,,,,,,164837,1,3,FALSE,,,
time_out,158,548030,0.0-52.0-0.0,,null,run_exp/static/images/task_images/time_out.jpg,null,,,,,,4,,,,,,,,,,,,,,,,,
decision,159,548324,0.0-52.0-1.0,,291.645,run_exp/static/images/task_images/land.jpg,65,,,,,,4,,,4,,,,,,,,167159,1,3,FALSE,,,
dig,160,551041,0.0-53.0-0.0,,,,,,,,,,,"[{""stimulus"":""run_exp/static/images/task_images/dig.jpg"",""time"":0.31999999191612005},{""stimulus"":""run_exp/static/images/task_images/land.jpg"",""time"":918.439999979455},{""stimulus"":""run_exp/static/images/task_images/dig.jpg"",""time"":1806.0599999735132}]",[],4,,,,,,,,,,,,,,
harvest,161,552058,0.0-53.0-1.0,,null,run_exp/static/images/task_images/gems/4.jpg,null,,,,,,2,,,4,,,,,4,0.586741741,0.5,,,,,,,
decision,162,553414,0.0-53.0-2.0,,1353.55,run_exp/static/images/task_images/land.jpg,65,,,,,,2,,,4,,,,,,,,172249,1,4,FALSE,,,
dig,163,555066,0.0-54.0-0.0,,,,,,,,,,,"[{""stimulus"":""run_exp/static/images/task_images/dig.jpg"",""time"":0.324999971780926},{""stimulus"":""run_exp/static/images/task_images/land.jpg"",""time"":553.6250000004657},{""stimulus"":""run_exp/static/images/task_images/dig.jpg"",""time"":1105.9799999929965}]",[],4,,,,,,,,,,,,,,
harvest,164,556077,0.0-54.0-1.0,,null,run_exp/static/images/task_images/gems/2.jpg,null,,,,,,1,,,4,,,,,2,0.515614907,0.5,,,,,,,
decision,165,556958,0.0-54.0-2.0,,877.065,run_exp/static/images/task_images/land.jpg,65,,,,,,1,,,4,,,,,,,,175793,1,5,FALSE,,,
dig,166,559090,0.0-55.0-0.0,,,,,,,,,,,"[{""stimulus"":""run_exp/static/images/task_images/dig.jpg"",""time"":0.3250000299885869},{""stimulus"":""run_exp/static/images/task_images/land.jpg"",""time"":715.4450000380166},{""stimulus"":""run_exp/static/images/task_images/dig.jpg"",""time"":1428.7050000275485}]",[],4,,,,,,,,,,,,,,
harvest,167,560101,0.0-55.0-1.0,,null,run_exp/static/images/task_images/gems/1.jpg,null,,,,,,0,,,4,,,,,1,0.405488919,0,,,,,,,
decision,168,560132,0.0-55.0-2.0,,29.31499999,run_exp/static/images/task_images/land.jpg,65,,,,,,0,,,4,,,,,,,,178967,1,6,FALSE,,,
dig,169,563123,0.0-56.0-0.0,,,,,,,,,,,"[{""stimulus"":""run_exp/static/images/task_images/dig.jpg"",""time"":0.3250000299885869},{""stimulus"":""run_exp/static/images/task_images/land.jpg"",""time"":992.2700000461191},{""stimulus"":""run_exp/static/images/task_images/dig.jpg"",""time"":1988.275000010617}]",[],4,,,,,,,,,,,,,,
harvest,170,564144,0.0-56.0-1.0,,null,run_exp/static/images/task_images/gems/0.jpg,null,,,,,,0,,,4,,,,,0,0.449969687,NaN,,,,,,,
decision,171,565340,0.0-56.0-2.0,,1193.94,run_exp/static/images/task_images/land.jpg,76,,,,,,0,,,4,,,,,,,,184176,1,7,TRUE,,,
travel,172,574164,0.0-57.0-0.0,,,,,,,,,,,"[{""stimulus"":""run_exp/static/images/task_images/rocket-01.jpg"",""time"":0.3149999538436532},{""stimulus"":""run_exp/static/images/task_images/rocket-02.jpg"",""time"":981.9600000046194},{""stimulus"":""run_exp/static/images/task_images/rocket-03.jpg"",""time"":1964.0749999671243},{""stimulus"":""run_exp/static/images/task_images/rocket-04.jpg"",""time"":2946.769999980461},{""stimulus"":""run_exp/static/images/task_images/rocket-05.jpg"",""time"":3928.849999967497},{""stimulus"":""run_exp/static/images/task_images/rocket-06.jpg"",""time"":4896.184999961406},{""stimulus"":""run_exp/static/images/task_images/rocket-07.jpg"",""time"":5881.434999988414},{""stimulus"":""run_exp/static/images/task_images/rocket-08.jpg"",""time"":6854.9849999835715},{""stimulus"":""run_exp/static/images/task_images/rocket-09.jpg"",""time"":7834.08000000054}]",[],4,,,,,,,,,,,,,,
alien_welcome,173,579170,0.0-57.0-1.0,,null,run_exp/static/images/task_images/aliens/old_aliens/planet/alien_planet-57.jpg,null,,,,,,,,,,,,57,"22,36,65,33,57,67,60,64,25,44,56,78,27,68,7,47,61,45,48,66,75,52",,,,,,,,,,
land,174,579673,0.0-57.0-2.0,,null,run_exp/static/images/task_images/land.jpg,null,,,,,,113,,,5,,,,,,,,,,,,,,
dig,175,581690,0.0-57.0-3.0,,,,,,,,,,,"[{""stimulus"":""run_exp/static/images/task_images/dig.jpg"",""time"":0.23499998496845365},{""stimulus"":""run_exp/static/images/task_images/land.jpg"",""time"":669.385000015609},{""stimulus"":""run_exp/static/images/task_images/dig.jpg"",""time"":1348.7200000090525}]",[],5,,,,,,,,,,,,,,
harvest,176,582702,0.0-57.0-4.0,,null,run_exp/static/images/task_images/gems/113.jpg,null,,,,,,62,,,5,,,,,113,0.551465831,0.548672566,,,,,,,
decision,177,584445,0.0-57.0-5.0,,1740.765,run_exp/static/images/task_images/land.jpg,65,,,,,,62,,,5,,,,,,,,203280,1,0,FALSE,,,
dig,178,585710,0.0-58.0-0.0,,,,,,,,,,,"[{""stimulus"":""run_exp/static/images/task_images/dig.jpg"",""time"":0.3250000299885869},{""stimulus"":""run_exp/static/images/task_images/land.jpg"",""time"":433.10000002384186},{""stimulus"":""run_exp/static/images/task_images/dig.jpg"",""time"":847.074999997858}]",[],5,,,,,,,,,,,,,,
harvest,179,586724,0.0-58.0-1.0,,null,run_exp/static/images/task_images/gems/62.jpg,null,,,,,,32,,,5,,,,,62,0.523695434,0.516129032,,,,,,,
decision,180,589380,0.0-58.0-2.0,,2655.11,run_exp/static/images/task_images/land.jpg,65,,,,,,32,,,5,,,,,,,,208215,1,1,FALSE,,,
dig,181,589734,0.0-59.0-0.0,,,,,,,,,,,"[{""stimulus"":""run_exp/static/images/task_images/dig.jpg"",""time"":0.3649999853223562},{""stimulus"":""run_exp/static/images/task_images/land.jpg"",""time"":125.39499998092651},{""stimulus"":""run_exp/static/images/task_images/dig.jpg"",""time"":236.16999998921528}]",[],5,,,,,,,,,,,,,,
harvest,182,590746,0.0-59.0-1.0,,null,run_exp/static/images/task_images/gems/32.jpg,null,,,,,,14,,,5,,,,,32,0.438617126,0.4375,,,,,,,
decision,183,590844,0.0-59.0-2.0,,96.39000002,run_exp/static/images/task_images/land.jpg,65,,,,,,14,,,5,,,,,,,,209680,1,2,FALSE,,,
dig,184,593760,0.0-60.0-0.0,,,,,,,,,,,"[{""stimulus"":""run_exp/static/images/task_images/dig.jpg"",""time"":0.34500000765547156},{""stimulus"":""run_exp/static/images/task_images/land.jpg"",""time"":979.590000002645},{""stimulus"":""run_exp/static/images/task_images/dig.jpg"",""time"":1944.870000006631}]",[],5,,,,,,,,,,,,,,
harvest,185,594769,0.0-60.0-1.0,,null,run_exp/static/images/task_images/gems/14.jpg,null,,,,,,8,,,5,,,,,14,0.556461985,0.571428571,,,,,,,
decision,186,595588,0.0-60.0-2.0,,816.575,run_exp/static/images/task_images/land.jpg,65,,,,,,8,,,5,,,,,,,,214424,1,3,FALSE,,,
dig,187,597789,0.0-61.0-0.0,,,,,,,,,,,"[{""stimulus"":""run_exp/static/images/task_images/dig.jpg"",""time"":0.33000000985339284},{""stimulus"":""run_exp/static/images/task_images/land.jpg"",""time"":741.6150000062771},{""stimulus"":""run_exp/static/images/task_images/dig.jpg"",""time"":1466.439999989234}]",[],5,,,,,,,,,,,,,,
harvest,188,598798,0.0-61.0-1.0,,null,run_exp/static/images/task_images/gems/8.jpg,null,,,,,,4,,,5,,,,,8,0.503635536,0.5,,,,,,,
decision,189,600261,0.0-61.0-2.0,,1460.44,run_exp/static/images/task_images/land.jpg,65,,,,,,4,,,5,,,,,,,,219096,1,4,FALSE,,,
dig,190,601822,0.0-62.0-0.0,,,,,,,,,,,"[{""stimulus"":""run_exp/static/images/task_images/dig.jpg"",""time"":0.3250000299885869},{""stimulus"":""run_exp/static/images/task_images/land.jpg"",""time"":529.9100000411272},{""stimulus"":""run_exp/static/images/task_images/dig.jpg"",""time"":1033.0149999936111}]",[],5,,,,,,,,,,,,,,
harvest,191,602837,0.0-62.0-1.0,,null,run_exp/static/images/task_images/gems/4.jpg,null,,,,,,2,,,5,,,,,4,0.459198553,0.5,,,,,,,
decision,192,603982,0.0-62.0-2.0,,1142.63,run_exp/static/images/task_images/land.jpg,65,,,,,,2,,,5,,,,,,,,222817,1,5,FALSE,,,
dig,193,605848,0.0-63.0-0.0,,,,,,,,,,,"[{""stimulus"":""run_exp/static/images/task_images/dig.jpg"",""time"":0.33000000985339284},{""stimulus"":""run_exp/static/images/task_images/land.jpg"",""time"":622.910000034608},{""stimulus"":""run_exp/static/images/task_images/dig.jpg"",""time"":1241.0650000092573}]",[],5,,,,,,,,,,,,,,
harvest,194,606858,0.0-63.0-1.0,,null,run_exp/static/images/task_images/gems/2.jpg,null,,,,,,1,,,5,,,,,2,0.493056985,0.5,,,,,,,
decision,195,608750,0.0-63.0-2.0,,1889.15,run_exp/static/images/task_images/land.jpg,65,,,,,,1,,,5,,,,,,,,227585,1,6,FALSE,,,
dig,196,609871,0.0-64.0-0.0,,,,,,,,,,,"[{""stimulus"":""run_exp/static/images/task_images/dig.jpg"",""time"":0.26000000070780516},{""stimulus"":""run_exp/static/images/task_images/land.jpg"",""time"":371.78500002482906},{""stimulus"":""run_exp/static/images/task_images/dig.jpg"",""time"":751.9750000210479}]",[],5,,,,,,,,,,,,,,
harvest,197,610882,0.0-64.0-1.0,,null,run_exp/static/images/task_images/gems/1.jpg,null,,,,,,0,,,5,,,,,1,0.496139432,0,,,,,,,
decision,198,611981,0.0-64.0-2.0,,1097.81,run_exp/static/images/task_images/land.jpg,65,,,,,,0,,,5,,,,,,,,230816,1,7,FALSE,,,
dig,199,613893,0.0-65.0-0.0,,,,,,,,,,,"[{""stimulus"":""run_exp/static/images/task_images/dig.jpg"",""time"":0.33000000985339284},{""stimulus"":""run_exp/static/images/task_images/land.jpg"",""time"":635.7350000180304},{""stimulus"":""run_exp/static/images/task_images/dig.jpg"",""time"":1271.050000039395}]",[],5,,,,,,,,,,,,,,
harvest,200,614902,0.0-65.0-1.0,,null,run_exp/static/images/task_images/gems/0.jpg,null,,,,,,0,,,5,,,,,0,0.537127016,NaN,,,,,,,
decision,201,614965,0.0-65.0-2.0,,61.74999999,run_exp/static/images/task_images/land.jpg,76,,,,,,0,,,5,,,,,,,,233801,1,8,TRUE,,,
travel,202,624913,0.0-66.0-0.0,,,,,,,,,,,"[{""stimulus"":""run_exp/static/images/task_images/rocket-01.jpg"",""time"":0.375000003259629},{""stimulus"":""run_exp/static/images/task_images/rocket-02.jpg"",""time"":1108.3950000465848},{""stimulus"":""run_exp/static/images/task_images/rocket-03.jpg"",""time"":2217.380000045523},{""stimulus"":""run_exp/static/images/task_images/rocket-04.jpg"",""time"":3322.9649999993853},{""stimulus"":""run_exp/static/images/task_images/rocket-05.jpg"",""time"":4418.81000000285},{""stimulus"":""run_exp/static/images/task_images/rocket-06.jpg"",""time"":5528.515000012703},{""stimulus"":""run_exp/static/images/task_images/rocket-07.jpg"",""time"":6627.9450000147335},{""stimulus"":""run_exp/static/images/task_images/rocket-08.jpg"",""time"":7738.150000048336},{""stimulus"":""run_exp/static/images/task_images/rocket-09.jpg"",""time"":8846.955000015441}]",[],5,,,,,,,,,,,,,,
alien_welcome,203,629930,0.0-66.0-1.0,,null,run_exp/static/images/task_images/aliens/old_aliens/planet/alien_planet-67.jpg,null,,,,,,,,,,,,67,"22,36,65,33,57,67,60,64,25,44,56,78,27,68,7,47,61,45,48,66,75,52",,,,,,,,,,
land,204,630436,0.0-66.0-2.0,,null,run_exp/static/images/task_images/land.jpg,null,,,,,,96,,,6,,,,,,,,,,,,,,
dig,205,632445,0.0-66.0-3.0,,,,,,,,,,,"[{""stimulus"":""run_exp/static/images/task_images/dig.jpg"",""time"":0.37999998312443495},{""stimulus"":""run_exp/static/images/task_images/land.jpg"",""time"":677.3800000082701},{""stimulus"":""run_exp/static/images/task_images/dig.jpg"",""time"":1338.9750000205822}]",[],6,,,,,,,,,,,,,,
harvest,206,633456,0.0-66.0-4.0,,null,run_exp/static/images/task_images/gems/96.jpg,null,,,,,,80,,,6,,,,,96,0.828747004,0.833333333,,,,,,,
decision,207,634292,0.0-66.0-5.0,,833.96,run_exp/static/images/task_images/land.jpg,65,,,,,,80,,,6,,,,,,,,253127,1,0,FALSE,,,
dig,208,636466,0.0-67.0-0.0,,,,,,,,,,,"[{""stimulus"":""run_exp/static/images/task_images/dig.jpg"",""time"":0.09000004502013326},{""stimulus"":""run_exp/static/images/task_images/land.jpg"",""time"":732.0750000071712},{""stimulus"":""run_exp/static/images/task_images/dig.jpg"",""time"":1446.4850000222214}]",[],6,,,,,,,,,,,,,,
harvest,209,637483,0.0-67.0-1.0,,null,run_exp/static/images/task_images/gems/80.jpg,null,,,,,,64,,,6,,,,,80,0.796307666,0.8,,,,,,,
decision,210,639484,0.0-67.0-2.0,,1999.145,run_exp/static/images/task_images/land.jpg,65,,,,,,64,,,6,,,,,,,,258319,1,1,FALSE,,,
dig,211,640488,0.0-68.0-0.0,,,,,,,,,,,"[{""stimulus"":""run_exp/static/images/task_images/dig.jpg"",""time"":0.10499998461455107},{""stimulus"":""run_exp/static/images/task_images/land.jpg"",""time"":338.0299999844283},{""stimulus"":""run_exp/static/images/task_images/dig.jpg"",""time"":671.0549999843352}]",[],6,,,,,,,,,,,,,,
harvest,212,641501,0.0-68.0-1.0,,null,run_exp/static/images/task_images/gems/64.jpg,null,,,,,,47,,,6,,,,,64,0.728899633,0.734375,,,,,,,
decision,213,642412,0.0-68.0-2.0,,910.68,run_exp/static/images/task_images/land.jpg,65,,,,,,47,,,6,,,,,,,,261248,1,2,FALSE,,,
dig,214,644514,0.0-69.0-0.0,,,,,,,,,,,"[{""stimulus"":""run_exp/static/images/task_images/dig.jpg"",""time"":0.18999999156221747},{""stimulus"":""run_exp/static/images/task_images/land.jpg"",""time"":703.3299999893643},{""stimulus"":""run_exp/static/images/task_images/dig.jpg"",""time"":1400.3549999906681}]",[],6,,,,,,,,,,,,,,
harvest,215,645516,0.0-69.0-1.0,,null,run_exp/static/images/task_images/gems/47.jpg,null,,,,,,37,,,6,,,,,47,0.782368581,0.787234043,,,,,,,
decision,216,647645,0.0-69.0-2.0,,2127.335,run_exp/static/images/task_images/land.jpg,65,,,,,,37,,,6,,,,,,,,266480,1,3,FALSE,,,
dig,217,648519,0.0-70.0-0.0,,,,,,,,,,,"[{""stimulus"":""run_exp/static/images/task_images/dig.jpg"",""time"":0.13499998021870852},{""stimulus"":""run_exp/static/images/task_images/land.jpg"",""time"":299.8399999924004},{""stimulus"":""run_exp/static/images/task_images/dig.jpg"",""time"":585.9699999564327}]",[],6,,,,,,,,,,,,,,
harvest,218,649531,0.0-70.0-1.0,,null,run_exp/static/images/task_images/gems/37.jpg,null,,,,,,33,,,6,,,,,37,0.890768883,0.891891892,,,,,,,
decision,219,649788,0.0-70.0-2.0,,256.5,run_exp/static/images/task_images/land.jpg,65,,,,,,33,,,6,,,,,,,,268623,1,4,FALSE,,,
dig,220,652539,0.0-71.0-0.0,,,,,,,,,,,"[{""stimulus"":""run_exp/static/images/task_images/dig.jpg"",""time"":0.1200000406242907},{""stimulus"":""run_exp/static/images/task_images/land.jpg"",""time"":925.7150000194088},{""stimulus"":""run_exp/static/images/task_images/dig.jpg"",""time"":1829.7749999910593}]",[],6,,,,,,,,,,,,,,
harvest,221,653551,0.0-71.0-1.0,,null,run_exp/static/images/task_images/gems/33.jpg,null,,,,,,25,,,6,,,,,33,0.77156957,0.757575758,,,,,,,
decision,222,654901,0.0-71.0-2.0,,1347.585,run_exp/static/images/task_images/land.jpg,65,,,,,,25,,,6,,,,,,,,273736,1,5,FALSE,,,
dig,223,656563,0.0-72.0-0.0,,,,,,,,,,,"[{""stimulus"":""run_exp/static/images/task_images/dig.jpg"",""time"":0.3149999538436532},{""stimulus"":""run_exp/static/images/task_images/land.jpg"",""time"":561.3349999766797},{""stimulus"":""run_exp/static/images/task_images/dig.jpg"",""time"":1116.5499999769963}]",[],6,,,,,,,,,,,,,,
harvest,224,657579,0.0-72.0-1.0,,null,run_exp/static/images/task_images/gems/25.jpg,null,,,,,,21,,,6,,,,,25,0.833612945,0.84,,,,,,,
decision,225,659566,0.0-72.0-2.0,,1983.38,run_exp/static/images/task_images/land.jpg,65,,,,,,21,,,6,,,,,,,,278401,1,6,FALSE,,,
dig,226,660592,0.0-73.0-0.0,,,,,,,,,,,"[{""stimulus"":""run_exp/static/images/task_images/dig.jpg"",""time"":0.3100000321865082},{""stimulus"":""run_exp/static/images/task_images/land.jpg"",""time"":352.0450000069104},{""stimulus"":""run_exp/static/images/task_images/dig.jpg"",""time"":686.6450000088662}]",[],6,,,,,,,,,,,,,,
harvest,227,661607,0.0-73.0-1.0,,null,run_exp/static/images/task_images/gems/21.jpg,null,,,,,,17,,,6,,,,,21,0.810327671,0.80952381,,,,,,,
decision,228,662349,0.0-73.0-2.0,,738.665,run_exp/static/images/task_images/land.jpg,65,,,,,,17,,,6,,,,,,,,281184,1,7,FALSE,,,
dig,229,664618,0.0-74.0-0.0,,,,,,,,,,,"[{""stimulus"":""run_exp/static/images/task_images/dig.jpg"",""time"":0.375000003259629},{""stimulus"":""run_exp/static/images/task_images/land.jpg"",""time"":769.3349999608472},{""stimulus"":""run_exp/static/images/task_images/dig.jpg"",""time"":1516.4399999775924}]",[],6,,,,,,,,,,,,,,
harvest,230,665628,0.0-74.0-1.0,,null,run_exp/static/images/task_images/gems/17.jpg,null,,,,,,13,,,6,,,,,17,0.78773198,0.764705882,,,,,,,
decision,231,668045,0.0-74.0-2.0,,2416.045,run_exp/static/images/task_images/land.jpg,65,,,,,,13,,,6,,,,,,,,286880,1,8,FALSE,,,
dig,232,668642,0.0-75.0-0.0,,,,,,,,,,,"[{""stimulus"":""run_exp/static/images/task_images/dig.jpg"",""time"":0.3149999538436532},{""stimulus"":""run_exp/static/images/task_images/land.jpg"",""time"":211.13999997032806},{""stimulus"":""run_exp/static/images/task_images/dig.jpg"",""time"":400.28499998152256}]",[],6,,,,,,,,,,,,,,
harvest,233,669657,0.0-75.0-1.0,,null,run_exp/static/images/task_images/gems/13.jpg,null,,,,,,10,,,6,,,,,13,0.744551684,0.769230769,,,,,,,
decision,234,670373,0.0-75.0-2.0,,714.29,run_exp/static/images/task_images/land.jpg,65,,,,,,10,,,6,,,,,,,,289208,1,9,FALSE,,,
dig,235,672667,0.0-76.0-0.0,,,,,,,,,,,"[{""stimulus"":""run_exp/static/images/task_images/dig.jpg"",""time"":0.3649999853223562},{""stimulus"":""run_exp/static/images/task_images/land.jpg"",""time"":766.5649999980815},{""stimulus"":""run_exp/static/images/task_images/dig.jpg"",""time"":1528.8050000090152}]",[],6,,,,,,,,,,,,,,
harvest,236,673674,0.0-76.0-1.0,,null,run_exp/static/images/task_images/gems/10.jpg,null,,,,,,8,,,6,,,,,10,0.777250123,0.8,,,,,,,
decision,237,674861,0.0-76.0-2.0,,1184.44,run_exp/static/images/task_images/land.jpg,65,,,,,,8,,,6,,,,,,,,293696,1,10,FALSE,,,
dig,238,676689,0.0-77.0-0.0,,,,,,,,,,,"[{""stimulus"":""run_exp/static/images/task_images/dig.jpg"",""time"":0.3399999695830047},{""stimulus"":""run_exp/static/images/task_images/land.jpg"",""time"":621.6850000200793},{""stimulus"":""run_exp/static/images/task_images/dig.jpg"",""time"":1221.9199999817647}]",[],6,,,,,,,,,,,,,,
harvest,239,677702,0.0-77.0-1.0,,null,run_exp/static/images/task_images/gems/8.jpg,null,,,,,,6,,,6,,,,,8,0.801111447,0.75,,,,,,,
decision,240,680719,0.0-77.0-2.0,,null,run_exp/static/images/task_images/land.jpg,null,,,,,,6,,,6,,,,,,,,299554,1,11,FALSE,,,
time_out,241,682733,0.0-78.0-0.0,,null,run_exp/static/images/task_images/time_out.jpg,null,,,,,,6,,,,,,,,,,,,,,,,,
decision,242,683188,0.0-78.0-1.0,,452.68,run_exp/static/images/task_images/land.jpg,65,,,,,,6,,,6,,,,,,,,302023,1,11,TRUE,,,
end_of_block_continue,243,692038,0.0-79.0-0.0,,null,run_exp/static/audio/clip_32_block_end.m4a,,,,,,null,,,,,,,,,,,,,,,,,,
alien_welcome,244,697064,0.0-80.0-0.0,,null,run_exp/static/images/task_images/aliens/old_aliens/planet/alien_planet-60.jpg,null,,,,,,,,,,,,60,"22,36,65,33,57,67,60,64,25,44,56,78,27,68,7,47,61,45,48,66,75,52",,,,,,,,,,
land,245,697582,0.0-80.0-1.0,,null,run_exp/static/images/task_images/land.jpg,null,,,,,,95,,,7,,,,,,,,,,,,,,
dig,246,699594,0.0-80.0-2.0,,,,,,,,,,,"[{""stimulus"":""run_exp/static/images/task_images/dig.jpg"",""time"":0.3749999450519681},{""stimulus"":""run_exp/static/images/task_images/land.jpg"",""time"":678.4149999730289},{""stimulus"":""run_exp/static/images/task_images/dig.jpg"",""time"":1344.5649999775924}]",[],7,,,,,,,,,,,,,,
harvest,247,700608,0.0-80.0-3.0,,null,run_exp/static/images/task_images/gems/95.jpg,null,,,,,,19,,,7,,,,,95,0.195430402,0.2,,,,,,,
decision,248,700700,0.0-80.0-4.0,,89.68500001,run_exp/static/images/task_images/land.jpg,65,,,,,,19,,,7,,,,,,,,8648,2,0,FALSE,,,
dig,249,703614,0.0-81.0-0.0,,,,,,,,,,,"[{""stimulus"":""run_exp/static/images/task_images/dig.jpg"",""time"":0.10499998461455107},{""stimulus"":""run_exp/static/images/task_images/land.jpg"",""time"":977.2450000164099},{""stimulus"":""run_exp/static/images/task_images/dig.jpg"",""time"":1944.309999991674}]",[],7,,,,,,,,,,,,,,
harvest,250,704630,0.0-81.0-1.0,,null,run_exp/static/images/task_images/gems/19.jpg,null,,,,,,4,,,7,,,,,19,0.221774145,0.210526316,,,,,,,
decision,251,706006,0.0-81.0-2.0,,1374.71,run_exp/static/images/task_images/land.jpg,65,,,,,,4,,,7,,,,,,,,13954,2,1,FALSE,,,
dig,252,707646,0.0-82.0-0.0,,,,,,,,,,,"[{""stimulus"":""run_exp/static/images/task_images/dig.jpg"",""time"":0.3150000120513141},{""stimulus"":""run_exp/static/images/task_images/land.jpg"",""time"":551.1800000094809},{""stimulus"":""run_exp/static/images/task_images/dig.jpg"",""time"":1085.2949999971315}]",[],7,,,,,,,,,,,,,,
harvest,253,708661,0.0-82.0-1.0,,null,run_exp/static/images/task_images/gems/4.jpg,null,,,,,,1,,,7,,,,,4,0.198522288,0.25,,,,,,,
decision,254,709525,0.0-82.0-2.0,,861.89,run_exp/static/images/task_images/land.jpg,65,,,,,,1,,,7,,,,,,,,17473,2,2,FALSE,,,
dig,255,711678,0.0-83.0-0.0,,,,,,,,,,,"[{""stimulus"":""run_exp/static/images/task_images/dig.jpg"",""time"":0.3649999853223562},{""stimulus"":""run_exp/static/images/task_images/land.jpg"",""time"":715.9899999969639},{""stimulus"":""run_exp/static/images/task_images/dig.jpg"",""time"":1432.215000037104}]",[],7,,,,,,,,,,,,,,
harvest,256,712693,0.0-83.0-1.0,,null,run_exp/static/images/task_images/gems/1.jpg,null,,,,,,0,,,7,,,,,1,0.180119153,0,,,,,,,
decision,257,713636,0.0-83.0-2.0,,941.165,run_exp/static/images/task_images/land.jpg,65,,,,,,0,,,7,,,,,,,,21584,2,3,FALSE,,,
dig,258,715703,0.0-84.0-0.0,,,,,,,,,,,"[{""stimulus"":""run_exp/static/images/task_images/dig.jpg"",""time"":0.09499996667727828},{""stimulus"":""run_exp/static/images/task_images/land.jpg"",""time"":687.8149999538437},{""stimulus"":""run_exp/static/images/task_images/dig.jpg"",""time"":1387.9349999479018}]",[],7,,,,,,,,,,,,,,
harvest,259,716705,0.0-84.0-1.0,,null,run_exp/static/images/task_images/gems/0.jpg,null,,,,,,0,,,7,,,,,0,0.177449357,NaN,,,,,,,
decision,260,718861,0.0-84.0-2.0,,2153.75,run_exp/static/images/task_images/land.jpg,76,,,,,,0,,,7,,,,,,,,26809,2,4,TRUE,,,
travel,261,726719,0.0-85.0-0.0,,,,,,,,,,,"[{""stimulus"":""run_exp/static/images/task_images/rocket-01.jpg"",""time"":0.324999971780926},{""stimulus"":""run_exp/static/images/task_images/rocket-02.jpg"",""time"":883.7249999633059},{""stimulus"":""run_exp/static/images/task_images/rocket-03.jpg"",""time"":1755.1349999848753},{""stimulus"":""run_exp/static/images/task_images/rocket-04.jpg"",""time"":2625.784999981988},{""stimulus"":""run_exp/static/images/task_images/rocket-05.jpg"",""time"":3498.294999997597},{""stimulus"":""run_exp/static/images/task_images/rocket-06.jpg"",""time"":4367.849999980535},{""stimulus"":""run_exp/static/images/task_images/rocket-07.jpg"",""time"":5238.855000003241},{""stimulus"":""run_exp/static/images/task_images/rocket-08.jpg"",""time"":6107.10999998264},{""stimulus"":""run_exp/static/images/task_images/rocket-09.jpg"",""time"":6976.939999964088}]",[],7,,,,,,,,,,,,,,
alien_welcome,262,731723,0.0-85.0-1.0,,null,run_exp/static/images/task_images/aliens/old_aliens/planet/alien_planet-64.jpg,null,,,,,,,,,,,,64,"22,36,65,33,57,67,60,64,25,44,56,78,27,68,7,47,61,45,48,66,75,52",,,,,,,,,,
land,263,732231,0.0-85.0-2.0,,null,run_exp/static/images/task_images/land.jpg,null,,,,,,100,,,8,,,,,,,,,,,,,,
dig,264,734245,0.0-85.0-3.0,,,,,,,,,,,"[{""stimulus"":""run_exp/static/images/task_images/dig.jpg"",""time"":0.14000001829117537},{""stimulus"":""run_exp/static/images/task_images/land.jpg"",""time"":681.2950000166893},{""stimulus"":""run_exp/static/images/task_images/dig.jpg"",""time"":1346.944999997504}]",[],8,,,,,,,,,,,,,,
harvest,265,735261,0.0-85.0-4.0,,null,run_exp/static/images/task_images/gems/100.jpg,null,,,,,,14,,,8,,,,,100,0.14096689,0.14,,,,,,,
decision,266,735477,0.0-85.0-5.0,,213.75,run_exp/static/images/task_images/land.jpg,65,,,,,,14,,,8,,,,,,,,43425,2,0,FALSE,,,
dig,267,738284,0.0-86.0-0.0,,,,,,,,,,,"[{""stimulus"":""run_exp/static/images/task_images/dig.jpg"",""time"":0.2300000051036477},{""stimulus"":""run_exp/static/images/task_images/land.jpg"",""time"":932.2650000103749},{""stimulus"":""run_exp/static/images/task_images/dig.jpg"",""time"":1864.545000018552}]",[],8,,,,,,,,,,,,,,
harvest,268,739295,0.0-86.0-1.0,,null,run_exp/static/images/task_images/gems/14.jpg,null,,,,,,4,,,8,,,,,14,0.250701912,0.285714286,,,,,,,
decision,269,739325,0.0-86.0-2.0,,28.02000003,run_exp/static/images/task_images/land.jpg,65,,,,,,4,,,8,,,,,,,,47273,2,1,FALSE,,,
dig,270,742308,0.0-87.0-0.0,,,,,,,,,,,"[{""stimulus"":""run_exp/static/images/task_images/dig.jpg"",""time"":0.324999971780926},{""stimulus"":""run_exp/static/images/task_images/land.jpg"",""time"":992.4999999930151},{""stimulus"":""run_exp/static/images/task_images/dig.jpg"",""time"":1990.5549999675713}]",[],8,,,,,,,,,,,,,,
harvest,271,743321,0.0-87.0-1.0,,null,run_exp/static/images/task_images/gems/4.jpg,null,,,,,,1,,,8,,,,,4,0.194660535,0.25,,,,,,,
decision,272,746329,0.0-87.0-2.0,,null,run_exp/static/images/task_images/land.jpg,null,,,,,,1,,,8,,,,,,,,54277,2,2,FALSE,,,
time_out,273,748336,0.0-88.0-0.0,,null,run_exp/static/images/task_images/time_out.jpg,null,,,,,,1,,,,,,,,,,,,,,,,,
decision,274,749997,0.0-88.0-1.0,,1659.745,run_exp/static/images/task_images/land.jpg,65,,,,,,1,,,8,,,,,,,,57945,2,2,FALSE,,,
dig,275,751349,0.0-89.0-0.0,,,,,,,,,,,"[{""stimulus"":""run_exp/static/images/task_images/dig.jpg"",""time"":0.0950000248849392},{""stimulus"":""run_exp/static/images/task_images/land.jpg"",""time"":460.5800000135787},{""stimulus"":""run_exp/static/images/task_images/dig.jpg"",""time"":902.9899999732152}]",[],8,,,,,,,,,,,,,,
harvest,276,752366,0.0-89.0-1.0,,null,run_exp/static/images/task_images/gems/1.jpg,null,,,,,,0,,,8,,,,,1,0.255755866,0,,,,,,,
decision,277,753445,0.0-89.0-2.0,,1077.615,run_exp/static/images/task_images/land.jpg,65,,,,,,0,,,8,,,,,,,,61393,2,3,FALSE,,,
dig,278,755376,0.0-90.0-0.0,,,,,,,,,,,"[{""stimulus"":""run_exp/static/images/task_images/dig.jpg"",""time"":0.2500000409781933},{""stimulus"":""run_exp/static/images/task_images/land.jpg"",""time"":654.7500000451691},{""stimulus"":""run_exp/static/images/task_images/dig.jpg"",""time"":1287.895000015851}]",[],8,,,,,,,,,,,,,,
harvest,279,756387,0.0-90.0-1.0,,null,run_exp/static/images/task_images/gems/0.jpg,null,,,,,,0,,,8,,,,,0,0.219600597,NaN,,,,,,,
decision,280,757886,0.0-90.0-2.0,,1495.16,run_exp/static/images/task_images/land.jpg,76,,,,,,0,,,8,,,,,,,,65834,2,4,TRUE,,,
travel,281,766399,0.0-91.0-0.0,,,,,,,,,,,"[{""stimulus"":""run_exp/static/images/task_images/rocket-01.jpg"",""time"":0.32000005012378097},{""stimulus"":""run_exp/static/images/task_images/rocket-02.jpg"",""time"":947.7950000436977},{""stimulus"":""run_exp/static/images/task_images/rocket-03.jpg"",""time"":1899.4450000463985},{""stimulus"":""run_exp/static/images/task_images/rocket-04.jpg"",""time"":2834.499999997206},{""stimulus"":""run_exp/static/images/task_images/rocket-05.jpg"",""time"":3784.4500000355765},{""stimulus"":""run_exp/static/images/task_images/rocket-06.jpg"",""time"":4734.3800000380725},{""stimulus"":""run_exp/static/images/task_images/rocket-07.jpg"",""time"":5669.235000037588},{""stimulus"":""run_exp/static/images/task_images/rocket-08.jpg"",""time"":6618.5000000405125},{""stimulus"":""run_exp/static/images/task_images/rocket-09.jpg"",""time"":7557.560000044759}]",[],8,,,,,,,,,,,,,,
alien_welcome,282,771407,0.0-91.0-1.0,,null,run_exp/static/images/task_images/aliens/old_aliens/planet/alien_planet-25.jpg,null,,,,,,,,,,,,25,"22,36,65,33,57,67,60,64,25,44,56,78,27,68,7,47,61,45,48,66,75,52",,,,,,,,,,
land,283,771917,0.0-91.0-2.0,,null,run_exp/static/images/task_images/land.jpg,null,,,,,,100,,,9,,,,,,,,,,,,,,
dig,284,773924,0.0-91.0-3.0,,,,,,,,,,,"[{""stimulus"":""run_exp/static/images/task_images/dig.jpg"",""time"":0.375000003259629},{""stimulus"":""run_exp/static/images/task_images/land.jpg"",""time"":676.4350000303239},{""stimulus"":""run_exp/static/images/task_images/dig.jpg"",""time"":1338.675000006333}]",[],9,,,,,,,,,,,,,,
harvest,285,774934,0.0-91.0-4.0,,null,run_exp/static/images/task_images/gems/100.jpg,null,,,,,,17,,,9,,,,,100,0.16799427,0.17,,,,,,,
decision,286,775045,0.0-91.0-5.0,,107.705,run_exp/static/images/task_images/land.jpg,65,,,,,,17,,,9,,,,,,,,82993,2,0,FALSE,,,
dig,287,777957,0.0-92.0-0.0,,,,,,,,,,,"[{""stimulus"":""run_exp/static/images/task_images/dig.jpg"",""time"":0.3649999853223562},{""stimulus"":""run_exp/static/images/task_images/land.jpg"",""time"":970.4099999507889},{""stimulus"":""run_exp/static/images/task_images/dig.jpg"",""time"":1935.4449999518692}]",[],9,,,,,,,,,,,,,,
harvest,288,778967,0.0-92.0-1.0,,null,run_exp/static/images/task_images/gems/17.jpg,null,,,,,,5,,,9,,,,,17,0.290266144,0.294117647,,,,,,,
decision,289,781979,0.0-92.0-2.0,,null,run_exp/static/images/task_images/land.jpg,null,,,,,,5,,,9,,,,,,,,89927,2,1,FALSE,,,
time_out,290,784007,0.0-93.0-0.0,,null,run_exp/static/images/task_images/time_out.jpg,null,,,,,,5,,,,,,,,,,,,,,,,,
decision,291,786253,0.0-93.0-1.0,,2242.92,run_exp/static/images/task_images/land.jpg,65,,,,,,5,,,9,,,,,,,,94201,2,1,FALSE,,,
dig,292,787031,0.0-94.0-0.0,,,,,,,,,,,"[{""stimulus"":""run_exp/static/images/task_images/dig.jpg"",""time"":0.375000003259629},{""stimulus"":""run_exp/static/images/task_images/land.jpg"",""time"":263.4900000412017},{""stimulus"":""run_exp/static/images/task_images/dig.jpg"",""time"":516.219999990426}]",[],9,,,,,,,,,,,,,,
harvest,293,788044,0.0-94.0-1.0,,null,run_exp/static/images/task_images/gems/5.jpg,null,,,,,,1,,,9,,,,,5,0.149385492,0.2,,,,,,,
decision,294,789091,0.0-94.0-2.0,,1045.28,run_exp/static/images/task_images/land.jpg,65,,,,,,1,,,9,,,,,,,,97039,2,2,FALSE,,,
dig,295,791050,0.0-95.0-0.0,,,,,,,,,,,"[{""stimulus"":""run_exp/static/images/task_images/dig.jpg"",""time"":0.0950000248849392},{""stimulus"":""run_exp/static/images/task_images/land.jpg"",""time"":660.1700000464916},{""stimulus"":""run_exp/static/images/task_images/dig.jpg"",""time"":1308.7550000054762}]",[],9,,,,,,,,,,,,,,
harvest,296,792060,0.0-95.0-1.0,,null,run_exp/static/images/task_images/gems/1.jpg,null,,,,,,0,,,9,,,,,1,0.205539728,0,,,,,,,
decision,297,792933,0.0-95.0-2.0,,870.53,run_exp/static/images/task_images/land.jpg,65,,,,,,0,,,9,,,,,,,,100881,2,3,FALSE,,,
dig,298,795079,0.0-96.0-0.0,,,,,,,,,,,"[{""stimulus"":""run_exp/static/images/task_images/dig.jpg"",""time"":0.32000005012378097},{""stimulus"":""run_exp/static/images/task_images/land.jpg"",""time"":712.7650000038557},{""stimulus"":""run_exp/static/images/task_images/dig.jpg"",""time"":1424.3200000491925}]",[],9,,,,,,,,,,,,,,
harvest,299,796095,0.0-96.0-1.0,,null,run_exp/static/images/task_images/gems/0.jpg,null,,,,,,0,,,9,,,,,0,0.162555407,NaN,,,,,,,
decision,300,797651,0.0-96.0-2.0,,1553.99,run_exp/static/images/task_images/land.jpg,76,,,,,,0,,,9,,,,,,,,105599,2,4,TRUE,,,
travel,301,806108,0.0-97.0-0.0,,,,,,,,,,,"[{""stimulus"":""run_exp/static/images/task_images/rocket-01.jpg"",""time"":0.10000000474974513},{""stimulus"":""run_exp/static/images/task_images/rocket-02.jpg"",""time"":953.8549999706447},{""stimulus"":""run_exp/static/images/task_images/rocket-03.jpg"",""time"":1889.5699999993667},{""stimulus"":""run_exp/static/images/task_images/rocket-04.jpg"",""time"":2822.7249999763444},{""stimulus"":""run_exp/static/images/task_images/rocket-05.jpg"",""time"":3758.92999995267},{""stimulus"":""run_exp/static/images/task_images/rocket-06.jpg"",""time"":4695.499999972526},{""stimulus"":""run_exp/static/images/task_images/rocket-07.jpg"",""time"":5631.0149999917485},{""stimulus"":""run_exp/static/images/task_images/rocket-08.jpg"",""time"":6582.274999993388},{""stimulus"":""run_exp/static/images/task_images/rocket-09.jpg"",""time"":7517.564999987371}]",[],9,,,,,,,,,,,,,,
alien_welcome,302,811118,0.0-97.0-1.0,,null,run_exp/static/images/task_images/aliens/old_aliens/planet/alien_planet-44.jpg,null,,,,,,,,,,,,44,"22,36,65,33,57,67,60,64,25,44,56,78,27,68,7,47,61,45,48,66,75,52",,,,,,,,,,
land,303,811621,0.0-97.0-2.0,,null,run_exp/static/images/task_images/land.jpg,null,,,,,,106,,,10,,,,,,,,,,,,,,
dig,304,813634,0.0-97.0-3.0,,,,,,,,,,,"[{""stimulus"":""run_exp/static/images/task_images/dig.jpg"",""time"":0.21000002743676305},{""stimulus"":""run_exp/static/images/task_images/land.jpg"",""time"":684.865000017453},{""stimulus"":""run_exp/static/images/task_images/dig.jpg"",""time"":1348.4300000127405}]",[],10,,,,,,,,,,,,,,
harvest,305,814649,0.0-97.0-4.0,,null,run_exp/static/images/task_images/gems/106.jpg,null,,,,,,82,,,10,,,,,106,0.769830803,0.773584906,,,,,,,
decision,306,817508,0.0-97.0-5.0,,2857.515,run_exp/static/images/task_images/land.jpg,65,,,,,,82,,,10,,,,,,,,125457,2,0,FALSE,,,
dig,307,817660,0.0-98.0-0.0,,,,,,,,,,,"[{""stimulus"":""run_exp/static/images/task_images/dig.jpg"",""time"":0.31999999191612005},{""stimulus"":""run_exp/static/images/task_images/land.jpg"",""time"":50.80000002635643},{""stimulus"":""run_exp/static/images/task_images/dig.jpg"",""time"":96.53999999864027}]",[],10,,,,,,,,,,,,,,
harvest,308,818675,0.0-98.0-1.0,,null,run_exp/static/images/task_images/gems/82.jpg,null,,,,,,68,,,10,,,,,82,0.826179745,0.829268293,,,,,,,
decision,309,819021,0.0-98.0-2.0,,345.49,run_exp/static/images/task_images/land.jpg,65,,,,,,68,,,10,,,,,,,,126970,2,1,FALSE,,,
dig,310,821696,0.0-99.0-0.0,,,,,,,,,,,"[{""stimulus"":""run_exp/static/images/task_images/dig.jpg"",""time"":0.375000003259629},{""stimulus"":""run_exp/static/images/task_images/land.jpg"",""time"":887.1499999659136},{""stimulus"":""run_exp/static/images/task_images/dig.jpg"",""time"":1776.1049999971874}]",[],10,,,,,,,,,,,,,,
harvest,311,822708,0.0-99.0-1.0,,null,run_exp/static/images/task_images/gems/68.jpg,null,,,,,,60,,,10,,,,,68,0.879502717,0.882352941,,,,,,,
decision,312,824892,0.0-99.0-2.0,,2180.25,run_exp/static/images/task_images/land.jpg,65,,,,,,60,,,10,,,,,,,,132840,2,2,FALSE,,,
dig,313,825726,0.0-100.0-0.0,,,,,,,,,,,"[{""stimulus"":""run_exp/static/images/task_images/dig.jpg"",""time"":0.21500000730156898},{""stimulus"":""run_exp/static/images/task_images/land.jpg"",""time"":275.91999998549},{""stimulus"":""run_exp/static/images/task_images/dig.jpg"",""time"":560.6900000129826}]",[],10,,,,,,,,,,,,,,
harvest,314,826741,0.0-100.0-1.0,,null,run_exp/static/images/task_images/gems/60.jpg,null,,,,,,53,,,10,,,,,60,0.875863915,0.883333333,,,,,,,
decision,315,827148,0.0-100.0-2.0,,404.855,run_exp/static/images/task_images/land.jpg,65,,,,,,53,,,10,,,,,,,,135096,2,3,FALSE,,,
dig,316,829765,0.0-101.0-0.0,,,,,,,,,,,"[{""stimulus"":""run_exp/static/images/task_images/dig.jpg"",""time"":0.30999997397884727},{""stimulus"":""run_exp/static/images/task_images/land.jpg"",""time"":877.6049999869429},{""stimulus"":""run_exp/static/images/task_images/dig.jpg"",""time"":1732.8899999847636}]",[],10,,,,,,,,,,,,,,
harvest,317,830779,0.0-101.0-1.0,,null,run_exp/static/images/task_images/gems/53.jpg,null,,,,,,46,,,10,,,,,53,0.872178521,0.867924528,,,,,,,
decision,318,831181,0.0-101.0-2.0,,399.53,run_exp/static/images/task_images/land.jpg,65,,,,,,46,,,10,,,,,,,,139129,2,4,FALSE,,,
dig,319,833800,0.0-102.0-0.0,,,,,,,,,,,"[{""stimulus"":""run_exp/static/images/task_images/dig.jpg"",""time"":0.31999999191612005},{""stimulus"":""run_exp/static/images/task_images/land.jpg"",""time"":871.8949999893084},{""stimulus"":""run_exp/static/images/task_images/dig.jpg"",""time"":1737.9599999985658}]",[],10,,,,,,,,,,,,,,
harvest,320,834812,0.0-102.0-1.0,,null,run_exp/static/images/task_images/gems/46.jpg,null,,,,,,35,,,10,,,,,46,0.770021615,0.760869565,,,,,,,
decision,321,834885,0.0-102.0-2.0,,69.58999997,run_exp/static/images/task_images/land.jpg,65,,,,,,35,,,10,,,,,,,,142833,2,5,FALSE,,,
dig,322,837835,0.0-103.0-0.0,,,,,,,,,,,"[{""stimulus"":""run_exp/static/images/task_images/dig.jpg"",""time"":0.3000000142492354},{""stimulus"":""run_exp/static/images/task_images/land.jpg"",""time"":990.2700000093319},{""stimulus"":""run_exp/static/images/task_images/dig.jpg"",""time"":1956.6250000498258}]",[],10,,,,,,,,,,,,,,
harvest,323,838845,0.0-103.0-1.0,,null,run_exp/static/images/task_images/gems/35.jpg,null,,,,,,26,,,10,,,,,35,0.744296012,0.742857143,,,,,,,
decision,324,841858,0.0-103.0-2.0,,null,run_exp/static/images/task_images/land.jpg,null,,,,,,26,,,10,,,,,,,,149806,2,6,FALSE,,,
time_out,325,843871,0.0-104.0-0.0,,null,run_exp/static/images/task_images/time_out.jpg,null,,,,,,26,,,,,,,,,,,,,,,,,
decision,326,844525,0.0-104.0-1.0,,650.535,run_exp/static/images/task_images/land.jpg,65,,,,,,26,,,10,,,,,,,,152473,2,6,FALSE,,,
dig,327,846886,0.0-105.0-0.0,,,,,,,,,,,"[{""stimulus"":""run_exp/static/images/task_images/dig.jpg"",""time"":0.3349999897181988},{""stimulus"":""run_exp/static/images/task_images/land.jpg"",""time"":796.7150000040419},{""stimulus"":""run_exp/static/images/task_images/dig.jpg"",""time"":1575.345000019297}]",[],10,,,,,,,,,,,,,,
harvest,328,847888,0.0-105.0-1.0,,null,run_exp/static/images/task_images/gems/26.jpg,null,,,,,,22,,,10,,,,,26,0.852266544,0.846153846,,,,,,,
decision,329,848133,0.0-105.0-2.0,,241.815,run_exp/static/images/task_images/land.jpg,65,,,,,,22,,,10,,,,,,,,156081,2,7,FALSE,,,
dig,330,850905,0.0-106.0-0.0,,,,,,,,,,,"[{""stimulus"":""run_exp/static/images/task_images/dig.jpg"",""time"":0.39000000106170774},{""stimulus"":""run_exp/static/images/task_images/land.jpg"",""time"":936.1750000389293},{""stimulus"":""run_exp/static/images/task_images/dig.jpg"",""time"":1854.8300000256859}]",[],10,,,,,,,,,,,,,,
harvest,331,851923,0.0-106.0-1.0,,null,run_exp/static/images/task_images/gems/22.jpg,null,,,,,,18,,,10,,,,,22,0.837355242,0.818181818,,,,,,,
decision,332,852684,0.0-106.0-2.0,,759.475,run_exp/static/images/task_images/land.jpg,65,,,,,,18,,,10,,,,,,,,160632,2,8,FALSE,,,
dig,333,854941,0.0-107.0-0.0,,,,,,,,,,,"[{""stimulus"":""run_exp/static/images/task_images/dig.jpg"",""time"":0.15999999595806003},{""stimulus"":""run_exp/static/images/task_images/land.jpg"",""time"":753.3600000315346},{""stimulus"":""run_exp/static/images/task_images/dig.jpg"",""time"":1509.3650000053458}]",[],10,,,,,,,,,,,,,,
harvest,334,855957,0.0-107.0-1.0,,null,run_exp/static/images/task_images/gems/18.jpg,null,,,,,,15,,,10,,,,,18,0.809895432,0.833333333,,,,,,,
decision,335,858429,0.0-107.0-2.0,,2468.86,run_exp/static/images/task_images/land.jpg,65,,,,,,15,,,10,,,,,,,,166377,2,9,FALSE,,,
dig,336,858978,0.0-108.0-0.0,,,,,,,,,,,"[{""stimulus"":""run_exp/static/images/task_images/dig.jpg"",""time"":0.12499996228143573},{""stimulus"":""run_exp/static/images/task_images/land.jpg"",""time"":179.49499998940155},{""stimulus"":""run_exp/static/images/task_images/dig.jpg"",""time"":369.42000000271946}]",[],10,,,,,,,,,,,,,,
harvest,337,859989,0.0-108.0-1.0,,null,run_exp/static/images/task_images/gems/15.jpg,null,,,,,,13,,,10,,,,,15,0.845188461,0.866666667,,,,,,,
decision,338,860548,0.0-108.0-2.0,,556.585,run_exp/static/images/task_images/land.jpg,65,,,,,,13,,,10,,,,,,,,168497,2,10,FALSE,,,
dig,339,863005,0.0-109.0-0.0,,,,,,,,,,,"[{""stimulus"":""run_exp/static/images/task_images/dig.jpg"",""time"":0.18500001169741154},{""stimulus"":""run_exp/static/images/task_images/land.jpg"",""time"":818.7799999723211},{""stimulus"":""run_exp/static/images/task_images/dig.jpg"",""time"":1642.4300000071526}]",[],10,,,,,,,,,,,,,,
harvest,340,864014,0.0-109.0-1.0,,null,run_exp/static/images/task_images/gems/13.jpg,null,,,,,,11,,,10,,,,,13,0.817122614,0.846153846,,,,,,,
decision,341,866205,0.0-109.0-2.0,,2187.525,run_exp/static/images/task_images/land.jpg,65,,,,,,11,,,10,,,,,,,,174153,2,11,FALSE,,,
dig,342,867037,0.0-110.0-0.0,,,,,,,,,,,"[{""stimulus"":""run_exp/static/images/task_images/dig.jpg"",""time"":0.09000004502013326},{""stimulus"":""run_exp/static/images/task_images/land.jpg"",""time"":282.97500003827736},{""stimulus"":""run_exp/static/images/task_images/dig.jpg"",""time"":550.6100000347942}]",[],10,,,,,,,,,,,,,,
harvest,343,868053,0.0-110.0-1.0,,null,run_exp/static/images/task_images/gems/11.jpg,null,,,,,,9,,,10,,,,,11,0.856357544,0.818181818,,,,,,,
decision,344,868709,0.0-110.0-2.0,,652.505,run_exp/static/images/task_images/land.jpg,65,,,,,,9,,,10,,,,,,,,176657,2,12,FALSE,,,
dig,345,871068,0.0-111.0-0.0,,,,,,,,,,,"[{""stimulus"":""run_exp/static/images/task_images/dig.jpg"",""time"":0.35500002559274435},{""stimulus"":""run_exp/static/images/task_images/land.jpg"",""time"":796.7499999795109},{""stimulus"":""run_exp/static/images/task_images/dig.jpg"",""time"":1574.480000010226}]",[],10,,,,,,,,,,,,,,
harvest,346,872084,0.0-111.0-1.0,,null,run_exp/static/images/task_images/gems/9.jpg,null,,,,,,8,,,10,,,,,9,0.836262153,0.888888889,,,,,,,
decision,347,873092,0.0-111.0-2.0,,1006.455,run_exp/static/images/task_images/land.jpg,65,,,,,,8,,,10,,,,,,,,181040,2,13,FALSE,,,
dig,348,875100,0.0-112.0-0.0,,,,,,,,,,,"[{""stimulus"":""run_exp/static/images/task_images/dig.jpg"",""time"":0.11999998241662979},{""stimulus"":""run_exp/static/images/task_images/land.jpg"",""time"":677.9499999829568},{""stimulus"":""run_exp/static/images/task_images/dig.jpg"",""time"":1341.840000008233}]",[],10,,,,,,,,,,,,,,
harvest,349,876114,0.0-112.0-1.0,,null,run_exp/static/images/task_images/gems/8.jpg,null,,,,,,7,,,10,,,,,8,0.82121462,0.875,,,,,,,
decision,350,876836,0.0-112.0-2.0,,720.445,run_exp/static/images/task_images/land.jpg,65,,,,,,7,,,10,,,,,,,,184784,2,14,FALSE,,,
dig,351,879134,0.0-113.0-0.0,,,,,,,,,,,"[{""stimulus"":""run_exp/static/images/task_images/dig.jpg"",""time"":0.21999998716637492},{""stimulus"":""run_exp/static/images/task_images/land.jpg"",""time"":767.359999998007},{""stimulus"":""run_exp/static/images/task_images/dig.jpg"",""time"":1528.4600000013597}]",[],10,,,,,,,,,,,,,,
harvest,352,880146,0.0-113.0-1.0,,null,run_exp/static/images/task_images/gems/7.jpg,null,,,,,,6,,,10,,,,,7,0.821878749,0.857142857,,,,,,,
decision,353,880692,0.0-113.0-2.0,,543.845,run_exp/static/images/task_images/land.jpg,65,,,,,,6,,,10,,,,,,,,188640,2,15,FALSE,,,
dig,354,883168,0.0-114.0-0.0,,,,,,,,,,,"[{""stimulus"":""run_exp/static/images/task_images/dig.jpg"",""time"":0.23999996483325958},{""stimulus"":""run_exp/static/images/task_images/land.jpg"",""time"":826.9800000125542},{""stimulus"":""run_exp/static/images/task_images/dig.jpg"",""time"":1646.7399999964982}]",[],10,,,,,,,,,,,,,,
harvest,355,884178,0.0-114.0-1.0,,null,run_exp/static/images/task_images/gems/6.jpg,null,,,,,,5,,,10,,,,,6,0.833277698,0.833333333,,,,,,,
decision,356,887184,0.0-114.0-2.0,,null,run_exp/static/images/task_images/land.jpg,null,,,,,,5,,,10,,,,,,,,195132,2,16,FALSE,,,
time_out,357,889207,0.0-115.0-0.0,,null,run_exp/static/images/task_images/time_out.jpg,null,,,,,,5,,,,,,,,,,,,,,,,,
decision,358,891205,0.0-115.0-1.0,,1995.07,run_exp/static/images/task_images/land.jpg,65,,,,,,5,,,10,,,,,,,,199153,2,16,FALSE,,,
dig,359,892230,0.0-116.0-0.0,,,,,,,,,,,"[{""stimulus"":""run_exp/static/images/task_images/dig.jpg"",""time"":0.31999999191612005},{""stimulus"":""run_exp/static/images/task_images/land.jpg"",""time"":338.38999998988584},{""stimulus"":""run_exp/static/images/task_images/dig.jpg"",""time"":683.0249999766238}]",[],10,,,,,,,,,,,,,,
harvest,360,893245,0.0-116.0-1.0,,null,run_exp/static/images/task_images/gems/5.jpg,null,,,,,,4,,,10,,,,,5,0.817318819,0.8,,,,,,,
decision,361,894077,0.0-116.0-2.0,,829.185,run_exp/static/images/task_images/land.jpg,65,,,,,,4,,,10,,,,,,,,202025,2,17,FALSE,,,
dig,362,896265,0.0-117.0-0.0,,,,,,,,,,,"[{""stimulus"":""run_exp/static/images/task_images/dig.jpg"",""time"":0.5000000237487257},{""stimulus"":""run_exp/static/images/task_images/land.jpg"",""time"":738.0850000190549},{""stimulus"":""run_exp/static/images/task_images/dig.jpg"",""time"":1462.5750000122935}]",[],10,,,,,,,,,,,,,,
harvest,363,897274,0.0-117.0-1.0,,null,run_exp/static/images/task_images/gems/4.jpg,null,,,,,,3,,,10,,,,,4,0.782830035,0.75,,,,,,,
decision,364,898254,0.0-117.0-2.0,,976.33,run_exp/static/images/task_images/land.jpg,65,,,,,,3,,,10,,,,,,,,206202,2,18,FALSE,,,
dig,365,900300,0.0-118.0-0.0,,,,,,,,,,,"[{""stimulus"":""run_exp/static/images/task_images/dig.jpg"",""time"":0.34500000765547156},{""stimulus"":""run_exp/static/images/task_images/land.jpg"",""time"":688.9250000240281},{""stimulus"":""run_exp/static/images/task_images/dig.jpg"",""time"":1354.845000023488}]",[],10,,,,,,,,,,,,,,
harvest,366,901314,0.0-118.0-1.0,,null,run_exp/static/images/task_images/gems/3.jpg,null,,,,,,2,,,10,,,,,3,0.833108517,0.666666667,,,,,,,
decision,367,902261,0.0-118.0-2.0,,943.85,run_exp/static/images/task_images/land.jpg,65,,,,,,2,,,10,,,,,,,,210209,2,19,FALSE,,,
dig,368,904336,0.0-119.0-0.0,,,,,,,,,,,"[{""stimulus"":""run_exp/static/images/task_images/dig.jpg"",""time"":0.30499999411404133},{""stimulus"":""run_exp/static/images/task_images/land.jpg"",""time"":692.5199999823235},{""stimulus"":""run_exp/static/images/task_images/dig.jpg"",""time"":1384.5500000170432}]",[],10,,,,,,,,,,,,,,
harvest,369,905347,0.0-119.0-1.0,,null,run_exp/static/images/task_images/gems/2.jpg,null,,,,,,1,,,10,,,,,2,0.67698803,0.5,,,,,,,
decision,370,905861,0.0-119.0-2.0,,511.04,run_exp/static/images/task_images/land.jpg,65,,,,,,1,,,10,,,,,,,,213809,2,20,FALSE,,,
dig,371,908369,0.0-120.0-0.0,,,,,,,,,,,"[{""stimulus"":""run_exp/static/images/task_images/dig.jpg"",""time"":0.3150000120513141},{""stimulus"":""run_exp/static/images/task_images/land.jpg"",""time"":838.835000002291},{""stimulus"":""run_exp/static/images/task_images/dig.jpg"",""time"":1675.0800000154413}]",[],10,,,,,,,,,,,,,,
harvest,372,909374,0.0-120.0-1.0,,null,run_exp/static/images/task_images/gems/1.jpg,null,,,,,,1,,,10,,,,,1,0.830178068,1,,,,,,,
decision,373,912029,0.0-120.0-2.0,,2652.465,run_exp/static/images/task_images/land.jpg,76,,,,,,1,,,10,,,,,,,,219978,2,21,TRUE,,,
travel,374,919387,0.0-121.0-0.0,,,,,,,,,,,"[{""stimulus"":""run_exp/static/images/task_images/rocket-01.jpg"",""time"":0.33000000985339284},{""stimulus"":""run_exp/static/images/task_images/rocket-02.jpg"",""time"":819.5699999923818},{""stimulus"":""run_exp/static/images/task_images/rocket-03.jpg"",""time"":1644.8049999889918},{""stimulus"":""run_exp/static/images/task_images/rocket-04.jpg"",""time"":2450.9850000031292},{""stimulus"":""run_exp/static/images/task_images/rocket-05.jpg"",""time"":3275.2249999903142},{""stimulus"":""run_exp/static/images/task_images/rocket-06.jpg"",""time"":4084.195000003092},{""stimulus"":""run_exp/static/images/task_images/rocket-07.jpg"",""time"":4908.064999966882},{""stimulus"":""run_exp/static/images/task_images/rocket-08.jpg"",""time"":5717.739999992773},{""stimulus"":""run_exp/static/images/task_images/rocket-09.jpg"",""time"":6540.124999999534}]",[],10,,,,,,,,,,,,,,
alien_welcome,375,924399,0.0-121.0-1.0,,null,run_exp/static/images/task_images/aliens/old_aliens/planet/alien_planet-56.jpg,null,,,,,,,,,,,,56,"22,36,65,33,57,67,60,64,25,44,56,78,27,68,7,47,61,45,48,66,75,52",,,,,,,,,,
land,376,924903,0.0-121.0-2.0,,null,run_exp/static/images/task_images/land.jpg,null,,,,,,99,,,11,,,,,,,,,,,,,,
dig,377,926915,0.0-121.0-3.0,,,,,,,,,,,"[{""stimulus"":""run_exp/static/images/task_images/dig.jpg"",""time"":0.4199999966658652},{""stimulus"":""run_exp/static/images/task_images/land.jpg"",""time"":677.060000016354},{""stimulus"":""run_exp/static/images/task_images/dig.jpg"",""time"":1344.1549999988638}]",[],11,,,,,,,,,,,,,,
harvest,378,927918,0.0-121.0-4.0,,null,run_exp/static/images/task_images/gems/99.jpg,null,,,,,,83,,,11,,,,,99,0.836104468,0.838383838,,,,,,,
decision,379,929397,0.0-121.0-5.0,,1476.87,run_exp/static/images/task_images/land.jpg,65,,,,,,83,,,11,,,,,,,,237345,2,0,FALSE,,,
dig,380,930935,0.0-122.0-0.0,,,,,,,,,,,"[{""stimulus"":""run_exp/static/images/task_images/dig.jpg"",""time"":0.3649999853223562},{""stimulus"":""run_exp/static/images/task_images/land.jpg"",""time"":517.4450000049546},{""stimulus"":""run_exp/static/images/task_images/dig.jpg"",""time"":1021.2249999749474}]",[],11,,,,,,,,,,,,,,
harvest,381,931945,0.0-122.0-1.0,,null,run_exp/static/images/task_images/gems/83.jpg,null,,,,,,69,,,11,,,,,83,0.826762548,0.831325301,,,,,,,
decision,382,932030,0.0-122.0-2.0,,82.40000001,run_exp/static/images/task_images/land.jpg,65,,,,,,69,,,11,,,,,,,,239978,2,1,FALSE,,,
dig,383,934967,0.0-123.0-0.0,,,,,,,,,,,"[{""stimulus"":""run_exp/static/images/task_images/dig.jpg"",""time"":0.3150000120513141},{""stimulus"":""run_exp/static/images/task_images/land.jpg"",""time"":982.0000000181608},{""stimulus"":""run_exp/static/images/task_images/dig.jpg"",""time"":1958.585000014864}]",[],11,,,,,,,,,,,,,,
harvest,384,935984,0.0-123.0-1.0,,null,run_exp/static/images/task_images/gems/69.jpg,null,,,,,,59,,,11,,,,,69,0.853953847,0.855072464,,,,,,,
decision,385,937189,0.0-123.0-2.0,,1202.74,run_exp/static/images/task_images/land.jpg,65,,,,,,59,,,11,,,,,,,,245137,2,2,FALSE,,,
dig,386,939005,0.0-124.0-0.0,,,,,,,,,,,"[{""stimulus"":""run_exp/static/images/task_images/dig.jpg"",""time"":0.36999996518716216},{""stimulus"":""run_exp/static/images/task_images/land.jpg"",""time"":602.5149999768473},{""stimulus"":""run_exp/static/images/task_images/dig.jpg"",""time"":1205.7400000048801}]",[],11,,,,,,,,,,,,,,
harvest,387,940022,0.0-124.0-1.0,,null,run_exp/static/images/task_images/gems/59.jpg,null,,,,,,47,,,11,,,,,59,0.796268649,0.796610169,,,,,,,
decision,388,940341,0.0-124.0-2.0,,316.99,run_exp/static/images/task_images/land.jpg,65,,,,,,47,,,11,,,,,,,,248290,2,3,FALSE,,,
dig,389,943050,0.0-125.0-0.0,,,,,,,,,,,"[{""stimulus"":""run_exp/static/images/task_images/dig.jpg"",""time"":0.3600000054575503},{""stimulus"":""run_exp/static/images/task_images/land.jpg"",""time"":905.655000009574},{""stimulus"":""run_exp/static/images/task_images/dig.jpg"",""time"":1792.7749999798834}]",[],11,,,,,,,,,,,,,,
harvest,390,944063,0.0-125.0-1.0,,null,run_exp/static/images/task_images/gems/47.jpg,null,,,,,,38,,,11,,,,,47,0.814102752,0.808510638,,,,,,,
decision,391,944565,0.0-125.0-2.0,,499.19,run_exp/static/images/task_images/land.jpg,65,,,,,,38,,,11,,,,,,,,252514,2,4,FALSE,,,
dig,392,947081,0.0-126.0-0.0,,,,,,,,,,,"[{""stimulus"":""run_exp/static/images/task_images/dig.jpg"",""time"":0.23500004317611456},{""stimulus"":""run_exp/static/images/task_images/land.jpg"",""time"":849.7199999983422},{""stimulus"":""run_exp/static/images/task_images/dig.jpg"",""time"":1671.4500000234693}]",[],11,,,,,,,,,,,,,,
harvest,393,948097,0.0-126.0-1.0,,null,run_exp/static/images/task_images/gems/38.jpg,null,,,,,,33,,,11,,,,,38,0.85809855,0.868421053,,,,,,,
decision,394,948284,0.0-126.0-2.0,,186.055,run_exp/static/images/task_images/land.jpg,65,,,,,,33,,,11,,,,,,,,256232,2,5,FALSE,,,
dig,395,951108,0.0-127.0-0.0,,,,,,,,,,,"[{""stimulus"":""run_exp/static/images/task_images/dig.jpg"",""time"":0.11500000255182385},{""stimulus"":""run_exp/static/images/task_images/land.jpg"",""time"":949.0050000022165},{""stimulus"":""run_exp/static/images/task_images/dig.jpg"",""time"":1888.1449999753386}]",[],11,,,,,,,,,,,,,,
harvest,396,952119,0.0-127.0-1.0,,null,run_exp/static/images/task_images/gems/33.jpg,null,,,,,,26,,,11,,,,,33,0.795249338,0.787878788,,,,,,,
decision,397,952909,0.0-127.0-2.0,,787.96,run_exp/static/images/task_images/land.jpg,65,,,,,,26,,,11,,,,,,,,260858,2,6,FALSE,,,
dig,398,955147,0.0-128.0-0.0,,,,,,,,,,,"[{""stimulus"":""run_exp/static/images/task_images/dig.jpg"",""time"":0.30999997397884727},{""stimulus"":""run_exp/static/images/task_images/land.jpg"",""time"":752.0800000056624},{""stimulus"":""run_exp/static/images/task_images/dig.jpg"",""time"":1481.3950000097975}]",[],11,,,,,,,,,,,,,,
harvest,399,956157,0.0-128.0-1.0,,null,run_exp/static/images/task_images/gems/26.jpg,null,,,,,,20,,,11,,,,,26,0.756681679,0.769230769,,,,,,,
decision,400,957135,0.0-128.0-2.0,,975.08,run_exp/static/images/task_images/land.jpg,65,,,,,,20,,,11,,,,,,,,265083,2,7,FALSE,,,
dig,401,959172,0.0-129.0-0.0,,,,,,,,,,,"[{""stimulus"":""run_exp/static/images/task_images/dig.jpg"",""time"":0.3250000299885869},{""stimulus"":""run_exp/static/images/task_images/land.jpg"",""time"":684.8600000375882},{""stimulus"":""run_exp/static/images/task_images/dig.jpg"",""time"":1365.1950000203215}]",[],11,,,,,,,,,,,,,,
harvest,402,960187,0.0-129.0-1.0,,null,run_exp/static/images/task_images/gems/20.jpg,null,,,,,,17,,,11,,,,,20,0.8583015,0.85,,,,,,,
decision,403,961981,0.0-129.0-2.0,,1791.32,run_exp/static/images/task_images/land.jpg,65,,,,,,17,,,11,,,,,,,,269929,2,8,FALSE,,,
dig,404,963209,0.0-130.0-0.0,,,,,,,,,,,"[{""stimulus"":""run_exp/static/images/task_images/dig.jpg"",""time"":0.3399999695830047},{""stimulus"":""run_exp/static/images/task_images/land.jpg"",""time"":408.7699999799952},{""stimulus"":""run_exp/static/images/task_images/dig.jpg"",""time"":820.5099999904633}]",[],11,,,,,,,,,,,,,,
harvest,405,964223,0.0-130.0-1.0,,null,run_exp/static/images/task_images/gems/17.jpg,null,,,,,,14,,,11,,,,,17,0.83448602,0.823529412,,,,,,,
decision,406,965269,0.0-130.0-2.0,,1042.935,run_exp/static/images/task_images/land.jpg,65,,,,,,14,,,11,,,,,,,,273217,2,9,FALSE,,,
dig,407,967241,0.0-131.0-0.0,,,,,,,,,,,"[{""stimulus"":""run_exp/static/images/task_images/dig.jpg"",""time"":0.3299999516457319},{""stimulus"":""run_exp/static/images/task_images/land.jpg"",""time"":667.1499999938533},{""stimulus"":""run_exp/static/images/task_images/dig.jpg"",""time"":1313.5749999783002}]",[],11,,,,,,,,,,,,,,
harvest,408,968255,0.0-131.0-1.0,,null,run_exp/static/images/task_images/gems/14.jpg,null,,,,,,12,,,11,,,,,14,0.872666728,0.857142857,,,,,,,
decision,409,969420,0.0-131.0-2.0,,1162.68,run_exp/static/images/task_images/land.jpg,65,,,,,,12,,,11,,,,,,,,277368,2,10,FALSE,,,
dig,410,971262,0.0-132.0-0.0,,,,,,,,,,,"[{""stimulus"":""run_exp/static/images/task_images/dig.jpg"",""time"":0.10000000474974513},{""stimulus"":""run_exp/static/images/task_images/land.jpg"",""time"":622.9650000459515},{""stimulus"":""run_exp/static/images/task_images/dig.jpg"",""time"":1236.8450000067241}]",[],11,,,,,,,,,,,,,,
harvest,411,972276,0.0-132.0-1.0,,null,run_exp/static/images/task_images/gems/12.jpg,null,,,,,,8,,,11,,,,,12,0.690756128,0.666666667,,,,,,,
decision,412,974325,0.0-132.0-2.0,,2046.135,run_exp/static/images/task_images/land.jpg,65,,,,,,8,,,11,,,,,,,,282273,2,11,FALSE,,,
dig,413,975296,0.0-133.0-0.0,,,,,,,,,,,"[{""stimulus"":""run_exp/static/images/task_images/dig.jpg"",""time"":0.26000000070780516},{""stimulus"":""run_exp/static/images/task_images/land.jpg"",""time"":326.70999999390915},{""stimulus"":""run_exp/static/images/task_images/dig.jpg"",""time"":642.7450000192039}]",[],11,,,,,,,,,,,,,,
harvest,414,976312,0.0-133.0-1.0,,null,run_exp/static/images/task_images/gems/8.jpg,null,,,,,,6,,,11,,,,,8,0.811882295,0.75,,,,,,,
decision,415,976789,0.0-133.0-2.0,,474.295,run_exp/static/images/task_images/land.jpg,65,,,,,,6,,,11,,,,,,,,284737,2,12,FALSE,,,
dig,416,979323,0.0-134.0-0.0,,,,,,,,,,,"[{""stimulus"":""run_exp/static/images/task_images/dig.jpg"",""time"":0.30500005232170224},{""stimulus"":""run_exp/static/images/task_images/land.jpg"",""time"":857.8550000092946},{""stimulus"":""run_exp/static/images/task_images/dig.jpg"",""time"":1699.2300000274554}]",[],11,,,,,,,,,,,,,,
harvest,417,980336,0.0-134.0-1.0,,null,run_exp/static/images/task_images/gems/6.jpg,null,,,,,,5,,,11,,,,,6,0.839872147,0.833333333,,,,,,,
decision,418,982660,0.0-134.0-2.0,,2320.935,run_exp/static/images/task_images/land.jpg,65,,,,,,5,,,11,,,,,,,,290608,2,13,FALSE,,,
dig,419,983349,0.0-135.0-0.0,,,,,,,,,,,"[{""stimulus"":""run_exp/static/images/task_images/dig.jpg"",""time"":0.1550000160932541},{""stimulus"":""run_exp/static/images/task_images/land.jpg"",""time"":238.58500004280359},{""stimulus"":""run_exp/static/images/task_images/dig.jpg"",""time"":462.23500004271045}]",[],11,,,,,,,,,,,,,,
harvest,420,984360,0.0-135.0-1.0,,null,run_exp/static/images/task_images/gems/5.jpg,null,,,,,,4,,,11,,,,,5,0.771003533,0.8,,,,,,,
decision,421,984525,0.0-135.0-2.0,,161.185,run_exp/static/images/task_images/land.jpg,65,,,,,,4,,,11,,,,,,,,292473,2,14,FALSE,,,
dig,422,987385,0.0-136.0-0.0,,,,,,,,,,,"[{""stimulus"":""run_exp/static/images/task_images/dig.jpg"",""time"":0.33000000985339284},{""stimulus"":""run_exp/static/images/task_images/land.jpg"",""time"":948.8300000084564},{""stimulus"":""run_exp/static/images/task_images/dig.jpg"",""time"":1898.1849999981932}]",[],11,,,,,,,,,,,,,,
harvest,423,988402,0.0-136.0-1.0,,null,run_exp/static/images/task_images/gems/4.jpg,null,,,,,,4,,,11,,,,,4,0.875315818,1,,,,,,,
decision,424,990750,0.0-136.0-2.0,,2344.48,run_exp/static/images/task_images/land.jpg,65,,,,,,4,,,11,,,,,,,,298698,2,15,FALSE,,,
dig,425,991430,0.0-137.0-0.0,,,,,,,,,,,"[{""stimulus"":""run_exp/static/images/task_images/dig.jpg"",""time"":0.21999998716637492},{""stimulus"":""run_exp/static/images/task_images/land.jpg"",""time"":232.25999996066093},{""stimulus"":""run_exp/static/images/task_images/dig.jpg"",""time"":437.86000000545755}]",[],11,,,,,,,,,,,,,,
harvest,426,992442,0.0-137.0-1.0,,null,run_exp/static/images/task_images/gems/4.jpg,null,,,,,,3,,,11,,,,,4,0.852837188,0.75,,,,,,,
decision,427,992948,0.0-137.0-2.0,,502.12,run_exp/static/images/task_images/land.jpg,65,,,,,,3,,,11,,,,,,,,300896,2,16,TRUE,,,
end_of_block_continue,428,1001797,0.0-138.0-0.0,,null,run_exp/static/audio/clip_32_block_end.m4a,,,,,,null,,,,,,,,,,,,,,,,,,
alien_welcome,429,1006817,0.0-139.0-0.0,,null,run_exp/static/images/task_images/aliens/old_aliens/planet/alien_planet-78.jpg,null,,,,,,,,,,,,78,"22,36,65,33,57,67,60,64,25,44,56,78,27,68,7,47,61,45,48,66,75,52",,,,,,,,,,
land,430,1007325,0.0-139.0-1.0,,null,run_exp/static/images/task_images/land.jpg,null,,,,,,107,,,12,,,,,,,,,,,,,,
dig,431,1009333,0.0-139.0-2.0,,,,,,,,,,,"[{""stimulus"":""run_exp/static/images/task_images/dig.jpg"",""time"":0.3850000211969018},{""stimulus"":""run_exp/static/images/task_images/land.jpg"",""time"":677.9550000210293},{""stimulus"":""run_exp/static/images/task_images/dig.jpg"",""time"":1343.3850000146776}]",[],12,,,,,,,,,,,,,,
harvest,432,1010346,0.0-139.0-3.0,,null,run_exp/static/images/task_images/gems/107.jpg,null,,,,,,56,,,12,,,,,107,0.520903401,0.523364486,,,,,,,
decision,433,1011333,0.0-139.0-4.0,,984.75,run_exp/static/images/task_images/land.jpg,65,,,,,,56,,,12,,,,,,,,9523,3,0,FALSE,,,
dig,434,1013364,0.0-140.0-0.0,,,,,,,,,,,"[{""stimulus"":""run_exp/static/images/task_images/dig.jpg"",""time"":0.30999997397884727},{""stimulus"":""run_exp/static/images/task_images/land.jpg"",""time"":678.1799999880604},{""stimulus"":""run_exp/static/images/task_images/dig.jpg"",""time"":1357.804999977816}]",[],12,,,,,,,,,,,,,,
harvest,435,1014373,0.0-140.0-1.0,,null,run_exp/static/images/task_images/gems/56.jpg,null,,,,,,29,,,12,,,,,56,0.526520446,0.517857143,,,,,,,
decision,436,1014389,0.0-140.0-2.0,,12.37499999,run_exp/static/images/task_images/land.jpg,65,,,,,,29,,,12,,,,,,,,12578,3,1,FALSE,,,
