trial_type,trial_index,time_elapsed,internal_node_id,interactions,blur_events,focus_events,fullscreenenter_events,fullscreenexit_events,success,rt,stimulus,key_press,prompt,subject_id,participant_id,age,gender,button_pressed,next_reward,animation_sequence,responses,planet,curr_prac_trial,n_prac_rounds,alien,aliens,reward_received,decay_rate_actual,decay_rate_exp,time_in_block,block_num,prt,last_trial_on_planet,button_html,bonus,num_failures
pavlovia,0,6,0.0-0.0,"""event"",""trial"",""time""
""blur"",""0"",""0""
""focus"",""0"",""0""
""blur"",""0"",""0""
""focus"",""0"",""0""
""fullscreenenter"",""1"",""7778""
","""event"",""trial"",""time""
""blur"",""0"",""0""
""blur"",""0"",""0""
","""event"",""trial"",""time""
""focus"",""0"",""0""
""focus"",""0"",""0""
","""event"",""trial"",""time""
""fullscreenenter"",""1"",""7778""
","
",,,,,,,,,,,,,,,,,,,,,,,,,,,,
fullscreen,1,8764,0.0-1.0,"""event"",""trial"",""time""
""blur"",""0"",""0""
""focus"",""0"",""0""
""blur"",""0"",""0""
""focus"",""0"",""0""
""fullscreenenter"",""1"",""7778""
","""event"",""trial"",""time""
""blur"",""0"",""0""
""blur"",""0"",""0""
","""event"",""trial"",""time""
""focus"",""0"",""0""
""focus"",""0"",""0""
","""event"",""trial"",""time""
""fullscreenenter"",""1"",""7778""
","
",TRUE,,,,,,,,,,,,,,,,,,,,,,,,,,,
instruc_welcome,2,18537,0.0-2.0,"""event"",""trial"",""time""
""blur"",""0"",""0""
""focus"",""0"",""0""
""blur"",""0"",""0""
""focus"",""0"",""0""
""fullscreenenter"",""1"",""7778""
","""event"",""trial"",""time""
""blur"",""0"",""0""
""blur"",""0"",""0""
","""event"",""trial"",""time""
""focus"",""0"",""0""
""focus"",""0"",""0""
","""event"",""trial"",""time""
""fullscreenenter"",""1"",""7778""
","
",,null,run_exp/static/audio/clip_1_welcome.m4a,null,"<p>Howdy! In this experiment, you’ll be an explorer traveling through space to collect space treasure.</p><p>Your mission is to collect as much treasure as possible.</p><br><br><p><img src='run_exp/static/images/task_images/opening_img-01.jpg' height='300' width='auto'></p>",7925,3909,22.38,Male,,,,,,,,,,,,,,,,,,,
audio-keyboard-response,3,35138,0.0-3.0,"""event"",""trial"",""time""
""blur"",""0"",""0""
""focus"",""0"",""0""
""blur"",""0"",""0""
""focus"",""0"",""0""
""fullscreenenter"",""1"",""7778""
","""event"",""trial"",""time""
""blur"",""0"",""0""
""blur"",""0"",""0""
","""event"",""trial"",""time""
""focus"",""0"",""0""
""focus"",""0"",""0""
","""event"",""trial"",""time""
""fullscreenenter"",""1"",""7778""
","
",,null,run_exp/static/audio/clip_2_move.m4a,null,,,,,,,,,,,,,,,,,,,,,,,,
welcome_dec,4,37479,0.0-4.0,"""event"",""trial"",""time""
""blur"",""0"",""0""
""focus"",""0"",""0""
""blur"",""0"",""0""
""focus"",""0"",""0""
""fullscreenenter"",""1"",""7778""
","""event"",""trial"",""time""
""blur"",""0"",""0""
""blur"",""0"",""0""
","""event"",""trial"",""time""
""focus"",""0"",""0""
""focus"",""0"",""0""
","""event"",""trial"",""time""
""fullscreenenter"",""1"",""7778""
","
",,2335,"<p>Howdy! In this experiment, you’ll be an explorer traveling through space to collect space treasure.</p><p>Your mission is to collect as much treasure as possible.</p><br><br><p><img src='run_exp/static/images/task_images/opening_img-01.jpg' height='300' width='auto'></p>",,,,,,,1,,,,,,,,,,,,,,,,,,
html-keyboard-response,5,38206,0.0-5.0,"""event"",""trial"",""time""
""blur"",""0"",""0""
""focus"",""0"",""0""
""blur"",""0"",""0""
""focus"",""0"",""0""
""fullscreenenter"",""1"",""7778""
","""event"",""trial"",""time""
""blur"",""0"",""0""
""blur"",""0"",""0""
","""event"",""trial"",""time""
""focus"",""0"",""0""
""focus"",""0"",""0""
","""event"",""trial"",""time""
""fullscreenenter"",""1"",""7778""
","
",,723.9,"<p>Howdy! In this experiment, you’ll be an explorer traveling through space to collect space treasure.</p><p>Your mission is to collect as much treasure as possible.</p><br><br><p><img src='run_exp/static/images/task_images/opening_img-01.jpg' height='300' width='auto'></p><button class=""jspsych-html-btn-unchosen""><img src=""run_exp/static/images/task_images/planet-01.jpg"" height=""50""></button><button class=""jspsych-html-btn-chosen""><img src=""run_exp/static/images/task_images/planet-02.jpg"" height=""50""></button><p><b>[press the space bar to lock in your answer]<b><br></p>",32,,,,,,,,,,,,,,,,,,,,,,,,
instruc_goal,6,48277,0.0-6.0-0.0,"""event"",""trial"",""time""
""blur"",""0"",""0""
""focus"",""0"",""0""
""blur"",""0"",""0""
""focus"",""0"",""0""
""fullscreenenter"",""1"",""7778""
","""event"",""trial"",""time""
""blur"",""0"",""0""
""blur"",""0"",""0""
","""event"",""trial"",""time""
""focus"",""0"",""0""
""focus"",""0"",""0""
","""event"",""trial"",""time""
""fullscreenenter"",""1"",""7778""
","
",,null,run_exp/static/audio/clip_3_goal.m4a,null,"<p> As a space explorer, you’ll visit different planets to dig for space treasure, these pink gems.</p> <p> The more treasure you dig up, the more bonus money you’ll win! </p><br><br><p><img src='run_exp/static/images/task_images/pink_gem.jpg' height='300' width='auto'></p>",,,,,,,,,,,,,,,,,,,,,,,
instruc_goal,7,51025,0.0-6.0-1.0,"""event"",""trial"",""time""
""blur"",""0"",""0""
""focus"",""0"",""0""
""blur"",""0"",""0""
""focus"",""0"",""0""
""fullscreenenter"",""1"",""7778""
","""event"",""trial"",""time""
""blur"",""0"",""0""
""blur"",""0"",""0""
","""event"",""trial"",""time""
""focus"",""0"",""0""
""focus"",""0"",""0""
","""event"",""trial"",""time""
""fullscreenenter"",""1"",""7778""
","
",,2746.4,"<p> As a space explorer, you’ll visit different planets to dig for space treasure, these pink gems.</p> <p> The more treasure you dig up, the more bonus money you’ll win! </p><br><br><p><img src='run_exp/static/images/task_images/pink_gem.jpg' height='300' width='auto'></p>",,,,,,,1,,,,,,,,,,,,,,,,,,
html-keyboard-response,8,51385,0.0-6.0-2.0,"""event"",""trial"",""time""
""blur"",""0"",""0""
""focus"",""0"",""0""
""blur"",""0"",""0""
""focus"",""0"",""0""
""fullscreenenter"",""1"",""7778""
","""event"",""trial"",""time""
""blur"",""0"",""0""
""blur"",""0"",""0""
","""event"",""trial"",""time""
""focus"",""0"",""0""
""focus"",""0"",""0""
","""event"",""trial"",""time""
""fullscreenenter"",""1"",""7778""
","
",,357.4,"<p> As a space explorer, you’ll visit different planets to dig for space treasure, these pink gems.</p> <p> The more treasure you dig up, the more bonus money you’ll win! </p><br><br><p><img src='run_exp/static/images/task_images/pink_gem.jpg' height='300' width='auto'></p><button class=""jspsych-html-btn-unchosen""><img src=""run_exp/static/images/task_images/planet-01.jpg"" height=""50""></button><button class=""jspsych-html-btn-chosen""><img src=""run_exp/static/images/task_images/planet-02.jpg"" height=""50""></button><p><b>[press the space bar to lock in your answer]<b><br></p>",32,,,,,,,,,,,,,,,,,,,,,,,,
instruc_dig,9,67398,0.0-7.0-0.0,"""event"",""trial"",""time""
""blur"",""0"",""0""
""focus"",""0"",""0""
""blur"",""0"",""0""
""focus"",""0"",""0""
""fullscreenenter"",""1"",""7778""
","""event"",""trial"",""time""
""blur"",""0"",""0""
""blur"",""0"",""0""
","""event"",""trial"",""time""
""focus"",""0"",""0""
""focus"",""0"",""0""
","""event"",""trial"",""time""
""fullscreenenter"",""1"",""7778""
","
",,null,run_exp/static/audio/clip_4_dig.m4a,null,,,,,,,100,,,,,,,,,,,,,,,,,
instruc_dig_try,10,67836,0.0-7.0-1.0,"""event"",""trial"",""time""
""blur"",""0"",""0""
""focus"",""0"",""0""
""blur"",""0"",""0""
""focus"",""0"",""0""
""fullscreenenter"",""1"",""7778""
","""event"",""trial"",""time""
""blur"",""0"",""0""
""blur"",""0"",""0""
","""event"",""trial"",""time""
""focus"",""0"",""0""
""focus"",""0"",""0""
","""event"",""trial"",""time""
""fullscreenenter"",""1"",""7778""
","
",,433.9,"<p> When you’ve arrived at a new planet, you will dig once. </p> <p>Then, you get to decide if you want to stay on the planet and dig again or travel to a new planet and dig there.</p> <p> To stay and dig, press the letter <strong>‘A’</strong> on your keyboard. Try pressing it now! </p><p><img src='run_exp/static/images/task_images/land.jpg'  height='700' width='auto'></p>",65,"<p> When you’ve arrived at a new planet, you will dig once. </p> <p>Then, you get to decide if you want to stay on the planet and dig again or travel to a new planet and dig there.</p> <p> To stay and dig, press the letter <strong>‘A’</strong> on your keyboard. Try pressing it now! </p><p><img src='run_exp/static/images/task_images/land.jpg'  height='700' width='auto'></p>",,,,,,100,,,,,,,,,,,,,,,,,
dig_prac,11,69845,0.0-7.0-2.0,"""event"",""trial"",""time""
""blur"",""0"",""0""
""focus"",""0"",""0""
""blur"",""0"",""0""
""focus"",""0"",""0""
""fullscreenenter"",""1"",""7778""
","""event"",""trial"",""time""
""blur"",""0"",""0""
""blur"",""0"",""0""
","""event"",""trial"",""time""
""focus"",""0"",""0""
""focus"",""0"",""0""
","""event"",""trial"",""time""
""fullscreenenter"",""1"",""7778""
","
",,,,,,,,,,,,"[{""stimulus"":""run_exp/static/images/task_images/dig.jpg"",""time"":0.30000001192092896},{""stimulus"":""run_exp/static/images/task_images/land.jpg"",""time"":671.7000000029802},{""stimulus"":""run_exp/static/images/task_images/dig.jpg"",""time"":1338.6000000089407}]",[],,,,,,,,,,,,,,,
instruc_travel,12,106097,0.0-7.0-3.0,"""event"",""trial"",""time""
""blur"",""0"",""0""
""focus"",""0"",""0""
""blur"",""0"",""0""
""focus"",""0"",""0""
""fullscreenenter"",""1"",""7778""
","""event"",""trial"",""time""
""blur"",""0"",""0""
""blur"",""0"",""0""
","""event"",""trial"",""time""
""focus"",""0"",""0""
""focus"",""0"",""0""
","""event"",""trial"",""time""
""fullscreenenter"",""1"",""7778""
","
",,null,run_exp/static/audio/clip_5_travel.m4a,null,"<p>Every time you dig up gems, there are less gems on the planet, so the more you dig on a planet the fewer gems you’ll get with each dig.</p><p>When gems are running low, you may want to travel to a new planet. </p> <p>  Planets are very far apart in this galaxy, so it will take some time to travel between them. </p> <br><p>There are lots and lots of planets for you to visit, so you won’t be able to return to any planets you’ve seen before. </p><br><p>To leave this planet and travel to a new one, press the letter <strong>‘L’</strong> on your keyboard. Try pressing it now! </p><p><img src='run_exp/static/images/task_images/rocket-01.jpg'  height='600' width='auto'></p>",,,,,,,,,,,,,,,,,,,,,,,
instruc_travel_try,13,106936,0.0-7.0-4.0,"""event"",""trial"",""time""
""blur"",""0"",""0""
""focus"",""0"",""0""
""blur"",""0"",""0""
""focus"",""0"",""0""
""fullscreenenter"",""1"",""7778""
","""event"",""trial"",""time""
""blur"",""0"",""0""
""blur"",""0"",""0""
","""event"",""trial"",""time""
""focus"",""0"",""0""
""focus"",""0"",""0""
","""event"",""trial"",""time""
""fullscreenenter"",""1"",""7778""
","
",,837.7,"<p>Every time you dig up gems, there are less gems on the planet, so the more you dig on a planet the fewer gems you’ll get with each dig.</p><p>When gems are running low, you may want to travel to a new planet. </p> <p>  Planets are very far apart in this galaxy, so it will take some time to travel between them. </p> <br><p>There are lots and lots of planets for you to visit, so you won’t be able to return to any planets you’ve seen before. </p><br><p>To leave this planet and travel to a new one, press the letter <strong>‘L’</strong> on your keyboard. Try pressing it now! </p><p><img src='run_exp/static/images/task_images/rocket-01.jpg'  height='600' width='auto'></p>",76,"<p>Every time you dig up gems, there are less gems on the planet, so the more you dig on a planet the fewer gems you’ll get with each dig.</p><p>When gems are running low, you may want to travel to a new planet. </p> <p>  Planets are very far apart in this galaxy, so it will take some time to travel between them. </p> <br><p>There are lots and lots of planets for you to visit, so you won’t be able to return to any planets you’ve seen before. </p><br><p>To leave this planet and travel to a new one, press the letter <strong>‘L’</strong> on your keyboard. Try pressing it now! </p><p><img src='run_exp/static/images/task_images/rocket-01.jpg'  height='600' width='auto'></p>",,,,,,,,,,,,,,,,,,,,,,,
travel_prac,14,116948,0.0-7.0-5.0,"""event"",""trial"",""time""
""blur"",""0"",""0""
""focus"",""0"",""0""
""blur"",""0"",""0""
""focus"",""0"",""0""
""fullscreenenter"",""1"",""7778""
","""event"",""trial"",""time""
""blur"",""0"",""0""
""blur"",""0"",""0""
","""event"",""trial"",""time""
""focus"",""0"",""0""
""focus"",""0"",""0""
","""event"",""trial"",""time""
""fullscreenenter"",""1"",""7778""
","
",,,,,,,,,,,,"[{""stimulus"":""run_exp/static/images/task_images/rocket-01.jpg"",""time"":0.20000000298023224},{""stimulus"":""run_exp/static/images/task_images/rocket-02.jpg"",""time"":1114.5},{""stimulus"":""run_exp/static/images/task_images/rocket-03.jpg"",""time"":2234.1000000089407},{""stimulus"":""run_exp/static/images/task_images/rocket-04.jpg"",""time"":3347.5},{""stimulus"":""run_exp/static/images/task_images/rocket-05.jpg"",""time"":4458.9000000059605},{""stimulus"":""run_exp/static/images/task_images/rocket-06.jpg"",""time"":5565.20000000298},{""stimulus"":""run_exp/static/images/task_images/rocket-07.jpg"",""time"":6675.100000008941},{""stimulus"":""run_exp/static/images/task_images/rocket-08.jpg"",""time"":7794},{""stimulus"":""run_exp/static/images/task_images/rocket-09.jpg"",""time"":8903.70000000298}]",[],0,,,,,,,,,,,,,,
instruc_alien_greet,15,144147,0.0-7.0-6.0,"""event"",""trial"",""time""
""blur"",""0"",""0""
""focus"",""0"",""0""
""blur"",""0"",""0""
""focus"",""0"",""0""
""fullscreenenter"",""1"",""7778""
","""event"",""trial"",""time""
""blur"",""0"",""0""
""blur"",""0"",""0""
","""event"",""trial"",""time""
""focus"",""0"",""0""
""focus"",""0"",""0""
","""event"",""trial"",""time""
""fullscreenenter"",""1"",""7778""
","
",,null,run_exp/static/audio/clip_6_alien.m4a,null,"<p>When you arrive at a new planet, the alien who owns the treasure mine on that planet will greet you!</p><p>The better an alien takes care of their mine the easier it is to dig for gems. Some aliens take better care of their mine than others. So, you won’t get exactly the same amount of gems on each planet.</p><p>What the alien looks like does not tell you anything about how many gems there are on the planet.</p><br><p><img src=""run_exp/static/images/task_images/aliens/instructions_aliens/planet/alien_planet-1.jpg""  height=""600"" width=""auto""></p>",,,,,,,,,,,,,,,,,,,,,,,
instruc_alien_greet,16,152082,0.0-7.0-7.0,"""event"",""trial"",""time""
""blur"",""0"",""0""
""focus"",""0"",""0""
""blur"",""0"",""0""
""focus"",""0"",""0""
""fullscreenenter"",""1"",""7778""
","""event"",""trial"",""time""
""blur"",""0"",""0""
""blur"",""0"",""0""
","""event"",""trial"",""time""
""focus"",""0"",""0""
""focus"",""0"",""0""
","""event"",""trial"",""time""
""fullscreenenter"",""1"",""7778""
","
",,7933.4,"<p>When you arrive at a new planet, the alien who owns the treasure mine on that planet will greet you!</p><p>The better an alien takes care of their mine the easier it is to dig for gems. Some aliens take better care of their mine than others. So, you won’t get exactly the same amount of gems on each planet.</p><p>What the alien looks like does not tell you anything about how many gems there are on the planet.</p><br><p><img src=""run_exp/static/images/task_images/aliens/instructions_aliens/planet/alien_planet-1.jpg""  height=""600"" width=""auto""></p>",,,,,,,1,,,,,,,,,,,,,,,,,,
html-keyboard-response,17,152831,0.0-7.0-8.0,"""event"",""trial"",""time""
""blur"",""0"",""0""
""focus"",""0"",""0""
""blur"",""0"",""0""
""focus"",""0"",""0""
""fullscreenenter"",""1"",""7778""
","""event"",""trial"",""time""
""blur"",""0"",""0""
""blur"",""0"",""0""
","""event"",""trial"",""time""
""focus"",""0"",""0""
""focus"",""0"",""0""
","""event"",""trial"",""time""
""fullscreenenter"",""1"",""7778""
","
",,747.7,"<p>When you arrive at a new planet, the alien who owns the treasure mine on that planet will greet you!</p><p>The better an alien takes care of their mine the easier it is to dig for gems. Some aliens take better care of their mine than others. So, you won’t get exactly the same amount of gems on each planet.</p><p>What the alien looks like does not tell you anything about how many gems there are on the planet.</p><br><p><img src=""run_exp/static/images/task_images/aliens/instructions_aliens/planet/alien_planet-1.jpg""  height=""600"" width=""auto""></p><button class=""jspsych-html-btn-unchosen""><img src=""run_exp/static/images/task_images/planet-01.jpg"" height=""50""></button><button class=""jspsych-html-btn-chosen""><img src=""run_exp/static/images/task_images/planet-02.jpg"" height=""50""></button><p><b>[press the space bar to lock in your answer]<b><br></p>",32,,,,,,,,,,,,,,,,,,,,,,,,
time_out,18,163928,0.0-8.0-0.0,"""event"",""trial"",""time""
""blur"",""0"",""0""
""focus"",""0"",""0""
""blur"",""0"",""0""
""focus"",""0"",""0""
""fullscreenenter"",""1"",""7778""
","""event"",""trial"",""time""
""blur"",""0"",""0""
""blur"",""0"",""0""
","""event"",""trial"",""time""
""focus"",""0"",""0""
""focus"",""0"",""0""
","""event"",""trial"",""time""
""fullscreenenter"",""1"",""7778""
","
",,null,run_exp/static/audio/clip_7_timeout.m4a,null,"<p>If you don't make your choice fast enough, you’ll have to wait a few seconds before you can make another one.</p><p>You can’t dig for more gems or travel to new planets. You just have to sit and wait.</p><br><p><img src='run_exp/static/images/task_images/time_out.jpg'  height='600' width='auto'></p>",,,,,,,,,,,,,,,,,,,,,,,
time_out,19,166725,0.0-8.0-1.0,"""event"",""trial"",""time""
""blur"",""0"",""0""
""focus"",""0"",""0""
""blur"",""0"",""0""
""focus"",""0"",""0""
""fullscreenenter"",""1"",""7778""
","""event"",""trial"",""time""
""blur"",""0"",""0""
""blur"",""0"",""0""
","""event"",""trial"",""time""
""focus"",""0"",""0""
""focus"",""0"",""0""
","""event"",""trial"",""time""
""fullscreenenter"",""1"",""7778""
","
",,2791.2,"<p>If you don't make your choice fast enough, you’ll have to wait a few seconds before you can make another one.</p><p>You can’t dig for more gems or travel to new planets. You just have to sit and wait.</p><br><p><img src='run_exp/static/images/task_images/time_out.jpg'  height='600' width='auto'></p>",,,,,,,1,,,,,,,,,,,,,,,,,,
html-keyboard-response,20,166893,0.0-8.0-2.0,"""event"",""trial"",""time""
""blur"",""0"",""0""
""focus"",""0"",""0""
""blur"",""0"",""0""
""focus"",""0"",""0""
""fullscreenenter"",""1"",""7778""
","""event"",""trial"",""time""
""blur"",""0"",""0""
""blur"",""0"",""0""
","""event"",""trial"",""time""
""focus"",""0"",""0""
""focus"",""0"",""0""
","""event"",""trial"",""time""
""fullscreenenter"",""1"",""7778""
","
",,165.4,"<p>If you don't make your choice fast enough, you’ll have to wait a few seconds before you can make another one.</p><p>You can’t dig for more gems or travel to new planets. You just have to sit and wait.</p><br><p><img src='run_exp/static/images/task_images/time_out.jpg'  height='600' width='auto'></p><button class=""jspsych-html-btn-unchosen""><img src=""run_exp/static/images/task_images/planet-01.jpg"" height=""50""></button><button class=""jspsych-html-btn-chosen""><img src=""run_exp/static/images/task_images/planet-02.jpg"" height=""50""></button><p><b>[press the space bar to lock in your answer]<b><br></p>",32,,,,,,,,,,,,,,,,,,,,,,,,
instruc_break,21,182567,0.0-9.0-0.0,"""event"",""trial"",""time""
""blur"",""0"",""0""
""focus"",""0"",""0""
""blur"",""0"",""0""
""focus"",""0"",""0""
""fullscreenenter"",""1"",""7778""
","""event"",""trial"",""time""
""blur"",""0"",""0""
""blur"",""0"",""0""
","""event"",""trial"",""time""
""focus"",""0"",""0""
""focus"",""0"",""0""
","""event"",""trial"",""time""
""fullscreenenter"",""1"",""7778""
","
",,null,run_exp/static/audio/clip_8_break.m4a,null,"<p> After digging and traveling for a while, you’ll be able to take a break at home base. </p><p>The game will last 20 minutes no matter what.</p><p>You will visit home base every 5 minutes, so, you will visit home base three times during the game.</p><br><p><img src='run_exp/static/images/task_images/home_base.jpg' height='600' width='auto'></p>",,,,,,,,,,,,,,,,,,,,,,,
instruc_break,22,184808,0.0-9.0-1.0,"""event"",""trial"",""time""
""blur"",""0"",""0""
""focus"",""0"",""0""
""blur"",""0"",""0""
""focus"",""0"",""0""
""fullscreenenter"",""1"",""7778""
","""event"",""trial"",""time""
""blur"",""0"",""0""
""blur"",""0"",""0""
","""event"",""trial"",""time""
""focus"",""0"",""0""
""focus"",""0"",""0""
","""event"",""trial"",""time""
""fullscreenenter"",""1"",""7778""
","
",,2236.8,"<p> After digging and traveling for a while, you’ll be able to take a break at home base. </p><p>The game will last 20 minutes no matter what.</p><p>You will visit home base every 5 minutes, so, you will visit home base three times during the game.</p><br><p><img src='run_exp/static/images/task_images/home_base.jpg' height='600' width='auto'></p>",,,,,,,1,,,,,,,,,,,,,,,,,,
html-keyboard-response,23,184905,0.0-9.0-2.0,"""event"",""trial"",""time""
""blur"",""0"",""0""
""focus"",""0"",""0""
""blur"",""0"",""0""
""focus"",""0"",""0""
""fullscreenenter"",""1"",""7778""
","""event"",""trial"",""time""
""blur"",""0"",""0""
""blur"",""0"",""0""
","""event"",""trial"",""time""
""focus"",""0"",""0""
""focus"",""0"",""0""
","""event"",""trial"",""time""
""fullscreenenter"",""1"",""7778""
","
",,95.60000001,"<p> After digging and traveling for a while, you’ll be able to take a break at home base. </p><p>The game will last 20 minutes no matter what.</p><p>You will visit home base every 5 minutes, so, you will visit home base three times during the game.</p><br><p><img src='run_exp/static/images/task_images/home_base.jpg' height='600' width='auto'></p><button class=""jspsych-html-btn-unchosen""><img src=""run_exp/static/images/task_images/planet-01.jpg"" height=""50""></button><button class=""jspsych-html-btn-chosen""><img src=""run_exp/static/images/task_images/planet-02.jpg"" height=""50""></button><p><b>[press the space bar to lock in your answer]<b><br></p>",32,,,,,,,,,,,,,,,,,,,,,,,,
instruc_prac_game,24,195047,0.0-10.0-0.0,"""event"",""trial"",""time""
""blur"",""0"",""0""
""focus"",""0"",""0""
""blur"",""0"",""0""
""focus"",""0"",""0""
""fullscreenenter"",""1"",""7778""
","""event"",""trial"",""time""
""blur"",""0"",""0""
""blur"",""0"",""0""
","""event"",""trial"",""time""
""focus"",""0"",""0""
""focus"",""0"",""0""
","""event"",""trial"",""time""
""fullscreenenter"",""1"",""7778""
","
",,null,run_exp/static/audio/clip_9_practice.m4a,null,"<p> Are you ready to play a practice game? </p> <p>In this practice game, you'll be digging up barrels of gems. But, in the real game, you'll be digging up the gems themselves. </p>",,,,,,,,,,,,,,,,,,,,,,,
html-button-response,25,196211,0.0-10.0-1.0,"""event"",""trial"",""time""
""blur"",""0"",""0""
""focus"",""0"",""0""
""blur"",""0"",""0""
""focus"",""0"",""0""
""fullscreenenter"",""1"",""7778""
","""event"",""trial"",""time""
""blur"",""0"",""0""
""blur"",""0"",""0""
","""event"",""trial"",""time""
""focus"",""0"",""0""
""focus"",""0"",""0""
","""event"",""trial"",""time""
""fullscreenenter"",""1"",""7778""
","
",,1160.5,"<p> Are you ready to play a practice game? </p> <p>In this practice game, you'll be digging up barrels of gems. But, in the real game, you'll be digging up the gems themselves. </p>",,,,,,,0,,,,,,,,,,,,,,,,,,
alien_welcome_prac,26,201218,0.0-11.0-0.0,"""event"",""trial"",""time""
""blur"",""0"",""0""
""focus"",""0"",""0""
""blur"",""0"",""0""
""focus"",""0"",""0""
""fullscreenenter"",""1"",""7778""
","""event"",""trial"",""time""
""blur"",""0"",""0""
""blur"",""0"",""0""
","""event"",""trial"",""time""
""focus"",""0"",""0""
""focus"",""0"",""0""
","""event"",""trial"",""time""
""fullscreenenter"",""1"",""7778""
","
",,null,run_exp/static/images/task_images/aliens/practice_aliens/planet/alien_planet-5.jpg,null,,,,,,,,,,,,,,,,,,,,,,,,
land_prac,27,201733,0.0-11.0-1.0,"""event"",""trial"",""time""
""blur"",""0"",""0""
""focus"",""0"",""0""
""blur"",""0"",""0""
""focus"",""0"",""0""
""fullscreenenter"",""1"",""7778""
","""event"",""trial"",""time""
""blur"",""0"",""0""
""blur"",""0"",""0""
","""event"",""trial"",""time""
""focus"",""0"",""0""
""focus"",""0"",""0""
","""event"",""trial"",""time""
""fullscreenenter"",""1"",""7778""
","
",,null,run_exp/static/images/task_images/land.jpg,null,,,,,,,109,,,0,,,,,,,,,,,,,,
dig_prac,28,203742,0.0-11.0-2.0,"""event"",""trial"",""time""
""blur"",""0"",""0""
""focus"",""0"",""0""
""blur"",""0"",""0""
""focus"",""0"",""0""
""fullscreenenter"",""1"",""7778""
","""event"",""trial"",""time""
""blur"",""0"",""0""
""blur"",""0"",""0""
","""event"",""trial"",""time""
""focus"",""0"",""0""
""focus"",""0"",""0""
","""event"",""trial"",""time""
""fullscreenenter"",""1"",""7778""
","
",,,,,,,,,,,,"[{""stimulus"":""run_exp/static/images/task_images/dig.jpg"",""time"":0.5999999940395355},{""stimulus"":""run_exp/static/images/task_images/land.jpg"",""time"":681.0999999940395},{""stimulus"":""run_exp/static/images/task_images/dig.jpg"",""time"":1337.7000000029802}]",[],,,,,,,,,,,,,,,
harvest_prac,29,204755,0.0-11.0-3.0,"""event"",""trial"",""time""
""blur"",""0"",""0""
""focus"",""0"",""0""
""blur"",""0"",""0""
""focus"",""0"",""0""
""fullscreenenter"",""1"",""7778""
","""event"",""trial"",""time""
""blur"",""0"",""0""
""blur"",""0"",""0""
","""event"",""trial"",""time""
""focus"",""0"",""0""
""focus"",""0"",""0""
","""event"",""trial"",""time""
""fullscreenenter"",""1"",""7778""
","
",,null,run_exp/static/images/task_images/barrel_text.jpg,null,,,,,,,,,,,,,,,,,,,,,,,,
decision_prac,30,205537,0.0-11.0-4.0,"""event"",""trial"",""time""
""blur"",""0"",""0""
""focus"",""0"",""0""
""blur"",""0"",""0""
""focus"",""0"",""0""
""fullscreenenter"",""1"",""7778""
","""event"",""trial"",""time""
""blur"",""0"",""0""
""blur"",""0"",""0""
","""event"",""trial"",""time""
""focus"",""0"",""0""
""focus"",""0"",""0""
","""event"",""trial"",""time""
""fullscreenenter"",""1"",""7778""
","
",,778.9,run_exp/static/images/task_images/land.jpg,65,,,,,,,,,,,1,,,,,,,,,,,,,
dig_prac,31,207556,0.0-12.0-0.0,"""event"",""trial"",""time""
""blur"",""0"",""0""
""focus"",""0"",""0""
""blur"",""0"",""0""
""focus"",""0"",""0""
""fullscreenenter"",""1"",""7778""
","""event"",""trial"",""time""
""blur"",""0"",""0""
""blur"",""0"",""0""
","""event"",""trial"",""time""
""focus"",""0"",""0""
""focus"",""0"",""0""
","""event"",""trial"",""time""
""fullscreenenter"",""1"",""7778""
","
",,,,,,,,,,,,"[{""stimulus"":""run_exp/static/images/task_images/dig.jpg"",""time"":0.29999999701976776},{""stimulus"":""run_exp/static/images/task_images/land.jpg"",""time"":677.2999999970198},{""stimulus"":""run_exp/static/images/task_images/dig.jpg"",""time"":1346.5}]",[],,,,,,,,,,,,,,,
harvest_prac,32,208569,0.0-12.0-1.0,"""event"",""trial"",""time""
""blur"",""0"",""0""
""focus"",""0"",""0""
""blur"",""0"",""0""
""focus"",""0"",""0""
""fullscreenenter"",""1"",""7778""
","""event"",""trial"",""time""
""blur"",""0"",""0""
""blur"",""0"",""0""
","""event"",""trial"",""time""
""focus"",""0"",""0""
""focus"",""0"",""0""
","""event"",""trial"",""time""
""fullscreenenter"",""1"",""7778""
","
",,null,run_exp/static/images/task_images/barrel_text.jpg,null,,,,,,,,,,,,,,,,,,,,,,,,
decision_prac,33,209739,0.0-12.0-2.0,"""event"",""trial"",""time""
""blur"",""0"",""0""
""focus"",""0"",""0""
""blur"",""0"",""0""
""focus"",""0"",""0""
""fullscreenenter"",""1"",""7778""
","""event"",""trial"",""time""
""blur"",""0"",""0""
""blur"",""0"",""0""
","""event"",""trial"",""time""
""focus"",""0"",""0""
""focus"",""0"",""0""
","""event"",""trial"",""time""
""fullscreenenter"",""1"",""7778""
","
",,1167.8,run_exp/static/images/task_images/land.jpg,65,,,,,,,,,,,2,,,,,,,,,,,,,
dig_prac,34,211760,0.0-13.0-0.0,"""event"",""trial"",""time""
""blur"",""0"",""0""
""focus"",""0"",""0""
""blur"",""0"",""0""
""focus"",""0"",""0""
""fullscreenenter"",""1"",""7778""
","""event"",""trial"",""time""
""blur"",""0"",""0""
""blur"",""0"",""0""
","""event"",""trial"",""time""
""focus"",""0"",""0""
""focus"",""0"",""0""
","""event"",""trial"",""time""
""fullscreenenter"",""1"",""7778""
","
",,,,,,,,,,,,"[{""stimulus"":""run_exp/static/images/task_images/dig.jpg"",""time"":0.20000000298023224},{""stimulus"":""run_exp/static/images/task_images/land.jpg"",""time"":678.5999999940395},{""stimulus"":""run_exp/static/images/task_images/dig.jpg"",""time"":1348.5999999940395}]",[],,,,,,,,,,,,,,,
harvest_prac,35,212763,0.0-13.0-1.0,"""event"",""trial"",""time""
""blur"",""0"",""0""
""focus"",""0"",""0""
""blur"",""0"",""0""
""focus"",""0"",""0""
""fullscreenenter"",""1"",""7778""
","""event"",""trial"",""time""
""blur"",""0"",""0""
""blur"",""0"",""0""
","""event"",""trial"",""time""
""focus"",""0"",""0""
""focus"",""0"",""0""
","""event"",""trial"",""time""
""fullscreenenter"",""1"",""7778""
","
",,null,run_exp/static/images/task_images/barrel_text.jpg,null,,,,,,,,,,,,,,,,,,,,,,,,
decision_prac,36,212790,0.0-13.0-2.0,"""event"",""trial"",""time""
""blur"",""0"",""0""
""focus"",""0"",""0""
""blur"",""0"",""0""
""focus"",""0"",""0""
""fullscreenenter"",""1"",""7778""
","""event"",""trial"",""time""
""blur"",""0"",""0""
""blur"",""0"",""0""
","""event"",""trial"",""time""
""focus"",""0"",""0""
""focus"",""0"",""0""
","""event"",""trial"",""time""
""fullscreenenter"",""1"",""7778""
","
",,25.90000001,run_exp/static/images/task_images/land.jpg,76,,,,,,,,,,,3,,,,,,,,,,,,,
travel,37,222778,0.0-14.0-0.0,"""event"",""trial"",""time""
""blur"",""0"",""0""
""focus"",""0"",""0""
""blur"",""0"",""0""
""focus"",""0"",""0""
""fullscreenenter"",""1"",""7778""
","""event"",""trial"",""time""
""blur"",""0"",""0""
""blur"",""0"",""0""
","""event"",""trial"",""time""
""focus"",""0"",""0""
""focus"",""0"",""0""
","""event"",""trial"",""time""
""fullscreenenter"",""1"",""7778""
","
",,,,,,,,,,,,"[{""stimulus"":""run_exp/static/images/task_images/rocket-01.jpg"",""time"":0.09999999403953552},{""stimulus"":""run_exp/static/images/task_images/rocket-02.jpg"",""time"":1123.5999999940395},{""stimulus"":""run_exp/static/images/task_images/rocket-03.jpg"",""time"":2218.2999999970198},{""stimulus"":""run_exp/static/images/task_images/rocket-04.jpg"",""time"":3330.5999999940395},{""stimulus"":""run_exp/static/images/task_images/rocket-05.jpg"",""time"":4440.70000000298},{""stimulus"":""run_exp/static/images/task_images/rocket-06.jpg"",""time"":5554.0999999940395},{""stimulus"":""run_exp/static/images/task_images/rocket-07.jpg"",""time"":6662.0999999940395},{""stimulus"":""run_exp/static/images/task_images/rocket-08.jpg"",""time"":7768.5},{""stimulus"":""run_exp/static/images/task_images/rocket-09.jpg"",""time"":8877.59999999404}]",[],0,,,,,,,,,,,,,,
alien_welcome_prac,38,227784,0.0-14.0-1.0,"""event"",""trial"",""time""
""blur"",""0"",""0""
""focus"",""0"",""0""
""blur"",""0"",""0""
""focus"",""0"",""0""
""fullscreenenter"",""1"",""7778""
","""event"",""trial"",""time""
""blur"",""0"",""0""
""blur"",""0"",""0""
","""event"",""trial"",""time""
""focus"",""0"",""0""
""focus"",""0"",""0""
","""event"",""trial"",""time""
""fullscreenenter"",""1"",""7778""
","
",,null,run_exp/static/images/task_images/aliens/practice_aliens/planet/alien_planet-4.jpg,null,,,,,,,,,,,,,,,,,,,,,,,,
land_prac,39,228286,0.0-14.0-2.0,"""event"",""trial"",""time""
""blur"",""0"",""0""
""focus"",""0"",""0""
""blur"",""0"",""0""
""focus"",""0"",""0""
""fullscreenenter"",""1"",""7778""
","""event"",""trial"",""time""
""blur"",""0"",""0""
""blur"",""0"",""0""
","""event"",""trial"",""time""
""focus"",""0"",""0""
""focus"",""0"",""0""
","""event"",""trial"",""time""
""fullscreenenter"",""1"",""7778""
","
",,null,run_exp/static/images/task_images/land.jpg,null,,,,,,,109,,,0,,,,,,,,,,,,,,
dig_prac,40,230293,0.0-14.0-3.0,"""event"",""trial"",""time""
""blur"",""0"",""0""
""focus"",""0"",""0""
""blur"",""0"",""0""
""focus"",""0"",""0""
""fullscreenenter"",""1"",""7778""
","""event"",""trial"",""time""
""blur"",""0"",""0""
""blur"",""0"",""0""
","""event"",""trial"",""time""
""focus"",""0"",""0""
""focus"",""0"",""0""
","""event"",""trial"",""time""
""fullscreenenter"",""1"",""7778""
","
",,,,,,,,,,,,"[{""stimulus"":""run_exp/static/images/task_images/dig.jpg"",""time"":0.20000000298023224},{""stimulus"":""run_exp/static/images/task_images/land.jpg"",""time"":674.0999999940395},{""stimulus"":""run_exp/static/images/task_images/dig.jpg"",""time"":1348.7000000029802}]",[],,,,,,,,,,,,,,,
harvest_prac,41,231296,0.0-14.0-4.0,"""event"",""trial"",""time""
""blur"",""0"",""0""
""focus"",""0"",""0""
""blur"",""0"",""0""
""focus"",""0"",""0""
""fullscreenenter"",""1"",""7778""
","""event"",""trial"",""time""
""blur"",""0"",""0""
""blur"",""0"",""0""
","""event"",""trial"",""time""
""focus"",""0"",""0""
""focus"",""0"",""0""
","""event"",""trial"",""time""
""fullscreenenter"",""1"",""7778""
","
",,null,run_exp/static/images/task_images/barrel_text.jpg,null,,,,,,,,,,,,,,,,,,,,,,,,
decision_prac,42,232168,0.0-14.0-5.0,"""event"",""trial"",""time""
""blur"",""0"",""0""
""focus"",""0"",""0""
""blur"",""0"",""0""
""focus"",""0"",""0""
""fullscreenenter"",""1"",""7778""
","""event"",""trial"",""time""
""blur"",""0"",""0""
""blur"",""0"",""0""
","""event"",""trial"",""time""
""focus"",""0"",""0""
""focus"",""0"",""0""
","""event"",""trial"",""time""
""fullscreenenter"",""1"",""7778""
","
",,870.7,run_exp/static/images/task_images/land.jpg,65,,,,,,,,,,,4,,,,,,,,,,,,,
dig_prac,43,234183,0.0-15.0-0.0,"""event"",""trial"",""time""
""blur"",""0"",""0""
""focus"",""0"",""0""
""blur"",""0"",""0""
""focus"",""0"",""0""
""fullscreenenter"",""1"",""7778""
","""event"",""trial"",""time""
""blur"",""0"",""0""
""blur"",""0"",""0""
","""event"",""trial"",""time""
""focus"",""0"",""0""
""focus"",""0"",""0""
","""event"",""trial"",""time""
""fullscreenenter"",""1"",""7778""
","
",,,,,,,,,,,,"[{""stimulus"":""run_exp/static/images/task_images/dig.jpg"",""time"":0.09999999403953552},{""stimulus"":""run_exp/static/images/task_images/land.jpg"",""time"":684},{""stimulus"":""run_exp/static/images/task_images/dig.jpg"",""time"":1340}]",[],,,,,,,,,,,,,,,
harvest_prac,44,235185,0.0-15.0-1.0,"""event"",""trial"",""time""
""blur"",""0"",""0""
""focus"",""0"",""0""
""blur"",""0"",""0""
""focus"",""0"",""0""
""fullscreenenter"",""1"",""7778""
","""event"",""trial"",""time""
""blur"",""0"",""0""
""blur"",""0"",""0""
","""event"",""trial"",""time""
""focus"",""0"",""0""
""focus"",""0"",""0""
","""event"",""trial"",""time""
""fullscreenenter"",""1"",""7778""
","
",,null,run_exp/static/images/task_images/barrel_text.jpg,null,,,,,,,,,,,,,,,,,,,,,,,,
decision_prac,45,235726,0.0-15.0-2.0,"""event"",""trial"",""time""
""blur"",""0"",""0""
""focus"",""0"",""0""
""blur"",""0"",""0""
""focus"",""0"",""0""
""fullscreenenter"",""1"",""7778""
","""event"",""trial"",""time""
""blur"",""0"",""0""
""blur"",""0"",""0""
","""event"",""trial"",""time""
""focus"",""0"",""0""
""focus"",""0"",""0""
","""event"",""trial"",""time""
""fullscreenenter"",""1"",""7778""
","
",,537.7,run_exp/static/images/task_images/land.jpg,65,,,,,,,,,,,,1,,,,,,,,,,,,
quiz_instruc,46,237874,0.0-16.0-0.0,"""event"",""trial"",""time""
""blur"",""0"",""0""
""focus"",""0"",""0""
""blur"",""0"",""0""
""focus"",""0"",""0""
""fullscreenenter"",""1"",""7778""
","""event"",""trial"",""time""
""blur"",""0"",""0""
""blur"",""0"",""0""
","""event"",""trial"",""time""
""focus"",""0"",""0""
""focus"",""0"",""0""
","""event"",""trial"",""time""
""fullscreenenter"",""1"",""7778""
","
",,2142.3,run_exp/static/audio/clip_10_quiz.m4a,,,,,,,0,,,,,,,,,,,,,,,,,,
instruc_repeat,47,280648,0.0-16.0-1.0,"""event"",""trial"",""time""
""blur"",""0"",""0""
""focus"",""0"",""0""
""blur"",""0"",""0""
""focus"",""0"",""0""
""fullscreenenter"",""1"",""7778""
","""event"",""trial"",""time""
""blur"",""0"",""0""
""blur"",""0"",""0""
","""event"",""trial"",""time""
""focus"",""0"",""0""
""focus"",""0"",""0""
","""event"",""trial"",""time""
""fullscreenenter"",""1"",""7778""
","
",,null,"<p> Are you ready to play a practice game? </p> <p>In this practice game, you'll be digging up barrels of gems. But, in the real game, you'll be digging up the gems themselves. </p>",null,"<p>In this game, your goal is to collect as many gems as you can. That’s how you will win bonus money. </p> <p>The entire game will last 20 minutes no matter how many gems you collect or how many planets you visit. </p><p>To stay on a planet and dig again, press the letter A on your keyboard. To leave for a new planet, press the letter L.</p><p>The more you dig on a planet, the fewer gems you’ll get with each dig which is why you might consider leaving for a new planet. </p><p>When you arrive at a new planet, you’ll be greeted by an alien. What the alien looks like does not tell you anything about how much treasure is on the planet. </p>",,,,,,,,,,,,,,,,,,,,,,,
instruc_repeat_continue,48,285498,0.0-16.0-2.0,"""event"",""trial"",""time""
""blur"",""0"",""0""
""focus"",""0"",""0""
""blur"",""0"",""0""
""focus"",""0"",""0""
""fullscreenenter"",""1"",""7778""
","""event"",""trial"",""time""
""blur"",""0"",""0""
""blur"",""0"",""0""
","""event"",""trial"",""time""
""focus"",""0"",""0""
""focus"",""0"",""0""
","""event"",""trial"",""time""
""fullscreenenter"",""1"",""7778""
","
",,4846.5,"<p> Are you ready to play a practice game? </p> <p>In this practice game, you'll be digging up barrels of gems. But, in the real game, you'll be digging up the gems themselves. </p>",,,,,,,0,,,,,,,,,,,,,,,,,,
quiz_q_1_ask,49,288160,0.0-16.0-3.0,"""event"",""trial"",""time""
""blur"",""0"",""0""
""focus"",""0"",""0""
""blur"",""0"",""0""
""focus"",""0"",""0""
""fullscreenenter"",""1"",""7778""
","""event"",""trial"",""time""
""blur"",""0"",""0""
""blur"",""0"",""0""
","""event"",""trial"",""time""
""focus"",""0"",""0""
""focus"",""0"",""0""
","""event"",""trial"",""time""
""fullscreenenter"",""1"",""7778""
","
",,2659.5,run_exp/static/audio/clip_11_q1_ask.m4a,,,,,,,2,,,,,,,,,,,,,,,,,,
quiz_q_1_fb_correct,50,292027,0.0-17.0-0.0,"""event"",""trial"",""time""
""blur"",""0"",""0""
""focus"",""0"",""0""
""blur"",""0"",""0""
""focus"",""0"",""0""
""fullscreenenter"",""1"",""7778""
","""event"",""trial"",""time""
""blur"",""0"",""0""
""blur"",""0"",""0""
","""event"",""trial"",""time""
""focus"",""0"",""0""
""focus"",""0"",""0""
","""event"",""trial"",""time""
""fullscreenenter"",""1"",""7778""
","
",,null,run_exp/static/audio/clip_12_q1_correct.m4a,null,<p>That’s correct. You win extra money by collecting more gems.</p>,,,,,,,,,,,,,,,,,,,,,,,
quiz_q_2_ask,51,294661,0.0-17.0-1.0,"""event"",""trial"",""time""
""blur"",""0"",""0""
""focus"",""0"",""0""
""blur"",""0"",""0""
""focus"",""0"",""0""
""fullscreenenter"",""1"",""7778""
","""event"",""trial"",""time""
""blur"",""0"",""0""
""blur"",""0"",""0""
","""event"",""trial"",""time""
""focus"",""0"",""0""
""focus"",""0"",""0""
","""event"",""trial"",""time""
""fullscreenenter"",""1"",""7778""
","
",,2633.2,run_exp/static/audio/clip_14_q2_ask.m4a,,,,,,,1,,,,,,,,,,,,,,,,,,
quiz_q_2_fb_correct,52,298688,0.0-18.0-0.0,"""event"",""trial"",""time""
""blur"",""0"",""0""
""focus"",""0"",""0""
""blur"",""0"",""0""
""focus"",""0"",""0""
""fullscreenenter"",""1"",""7778""
","""event"",""trial"",""time""
""blur"",""0"",""0""
""blur"",""0"",""0""
","""event"",""trial"",""time""
""focus"",""0"",""0""
""focus"",""0"",""0""
","""event"",""trial"",""time""
""fullscreenenter"",""1"",""7778""
","
",,null,run_exp/static/audio/clip_15_q2_correct.m4a,null,<p>That’s correct. The experiment is 20 minutes no matter what.</p>,,,,,,,,,,,,,,,,,,,,,,,
quiz_q_3_ask,53,300718,0.0-18.0-1.0,"""event"",""trial"",""time""
""blur"",""0"",""0""
""focus"",""0"",""0""
""blur"",""0"",""0""
""focus"",""0"",""0""
""fullscreenenter"",""1"",""7778""
","""event"",""trial"",""time""
""blur"",""0"",""0""
""blur"",""0"",""0""
","""event"",""trial"",""time""
""focus"",""0"",""0""
""focus"",""0"",""0""
","""event"",""trial"",""time""
""fullscreenenter"",""1"",""7778""
","
",,2027,run_exp/static/audio/clip_17_q3_ask.m4a,,,,,,,1,,,,,,,,,,,,,,,,,,
quiz_q_3_fb_correct,54,304708,0.0-19.0-0.0,"""event"",""trial"",""time""
""blur"",""0"",""0""
""focus"",""0"",""0""
""blur"",""0"",""0""
""focus"",""0"",""0""
""fullscreenenter"",""1"",""7778""
","""event"",""trial"",""time""
""blur"",""0"",""0""
""blur"",""0"",""0""
","""event"",""trial"",""time""
""focus"",""0"",""0""
""focus"",""0"",""0""
","""event"",""trial"",""time""
""fullscreenenter"",""1"",""7778""
","
",,null,run_exp/static/audio/clip_18_q3_correct.m4a,null,<p> That’s correct. You press the letter L to travel to a new planet.</p>,,,,,,,,,,,,,,,,,,,,,,,
quiz_q_4_ask,55,306686,0.0-19.0-1.0,"""event"",""trial"",""time""
""blur"",""0"",""0""
""focus"",""0"",""0""
""blur"",""0"",""0""
""focus"",""0"",""0""
""fullscreenenter"",""1"",""7778""
","""event"",""trial"",""time""
""blur"",""0"",""0""
""blur"",""0"",""0""
","""event"",""trial"",""time""
""focus"",""0"",""0""
""focus"",""0"",""0""
","""event"",""trial"",""time""
""fullscreenenter"",""1"",""7778""
","
",,1976.2,run_exp/static/audio/clip_20_q4_ask.m4a,,,,,,,0,,,,,,,,,,,,,,,,,,
quiz_q_4_fb_correct,56,312027,0.0-20.0-0.0,"""event"",""trial"",""time""
""blur"",""0"",""0""
""focus"",""0"",""0""
""blur"",""0"",""0""
""focus"",""0"",""0""
""fullscreenenter"",""1"",""7778""
","""event"",""trial"",""time""
""blur"",""0"",""0""
""blur"",""0"",""0""
","""event"",""trial"",""time""
""focus"",""0"",""0""
""focus"",""0"",""0""
","""event"",""trial"",""time""
""fullscreenenter"",""1"",""7778""
","
",,null,run_exp/static/audio/clip_21_q4_correct.m4a,null,<p> That’s correct. The more you dig on a planet the fewer gems you’ll get with each dig. </p>,,,,,,,,,,,,,,,,,,,,,,,
quiz_q_5_ask,57,317103,0.0-20.0-1.0,"""event"",""trial"",""time""
""blur"",""0"",""0""
""focus"",""0"",""0""
""blur"",""0"",""0""
""focus"",""0"",""0""
""fullscreenenter"",""1"",""7778""
","""event"",""trial"",""time""
""blur"",""0"",""0""
""blur"",""0"",""0""
","""event"",""trial"",""time""
""focus"",""0"",""0""
""focus"",""0"",""0""
","""event"",""trial"",""time""
""fullscreenenter"",""1"",""7778""
","
",,5071.8,run_exp/static/audio/clip_23_q5_ask.m4a,,,,,,,0,,,,,,,,,,,,,,,,,,
quiz_q_5_fb_incorrect,58,322806,0.0-21.0-0.0,"""event"",""trial"",""time""
""blur"",""0"",""0""
""focus"",""0"",""0""
""blur"",""0"",""0""
""focus"",""0"",""0""
""fullscreenenter"",""1"",""7778""
","""event"",""trial"",""time""
""blur"",""0"",""0""
""blur"",""0"",""0""
","""event"",""trial"",""time""
""focus"",""0"",""0""
""focus"",""0"",""0""
","""event"",""trial"",""time""
""fullscreenenter"",""1"",""7778""
","
",,null,run_exp/static/audio/clip_25_q5_incorrect.m4a,null,<p>That’s incorrect. The alien tells you nothing about how much treasure is on the planet.</p>,,,,,,,,,,,,,,,,,,,,,,,
quiz_incorrect,59,328367,0.0-22.0-0.0,"""event"",""trial"",""time""
""blur"",""0"",""0""
""focus"",""0"",""0""
""blur"",""0"",""0""
""focus"",""0"",""0""
""fullscreenenter"",""1"",""7778""
","""event"",""trial"",""time""
""blur"",""0"",""0""
""blur"",""0"",""0""
","""event"",""trial"",""time""
""focus"",""0"",""0""
""focus"",""0"",""0""
","""event"",""trial"",""time""
""fullscreenenter"",""1"",""7778""
","
",,null,run_exp/static/audio/clip_27_incorrect_quiz.m4a,null,,,,,,,,,,,,,,,,,,,,,,,,
quiz_incorrect_continue,60,329435,0.0-22.0-1.0,"""event"",""trial"",""time""
""blur"",""0"",""0""
""focus"",""0"",""0""
""blur"",""0"",""0""
""focus"",""0"",""0""
""fullscreenenter"",""1"",""7778""
","""event"",""trial"",""time""
""blur"",""0"",""0""
""blur"",""0"",""0""
","""event"",""trial"",""time""
""focus"",""0"",""0""
""focus"",""0"",""0""
","""event"",""trial"",""time""
""fullscreenenter"",""1"",""7778""
","
",,1064.7,"<p>Oops, you missed some questions.</p><p>Now that you’ve heard the correct answers. Try the quiz again!</p>",,,,,,,0,,,,,,,,,,,,,,,,,,
quiz_q_1_ask,61,331101,0.0-22.0-2.0,"""event"",""trial"",""time""
""blur"",""0"",""0""
""focus"",""0"",""0""
""blur"",""0"",""0""
""focus"",""0"",""0""
""fullscreenenter"",""1"",""7778""
","""event"",""trial"",""time""
""blur"",""0"",""0""
""blur"",""0"",""0""
","""event"",""trial"",""time""
""focus"",""0"",""0""
""focus"",""0"",""0""
","""event"",""trial"",""time""
""fullscreenenter"",""1"",""7778""
","
",,1662.2,run_exp/static/audio/clip_11_q1_ask.m4a,,,,,,,2,,,,,,,,,,,,,,,,,,
quiz_q_1_fb_correct,62,334947,0.0-23.0-0.0,"""event"",""trial"",""time""
""blur"",""0"",""0""
""focus"",""0"",""0""
""blur"",""0"",""0""
""focus"",""0"",""0""
""fullscreenenter"",""1"",""7778""
","""event"",""trial"",""time""
""blur"",""0"",""0""
""blur"",""0"",""0""
","""event"",""trial"",""time""
""focus"",""0"",""0""
""focus"",""0"",""0""
","""event"",""trial"",""time""
""fullscreenenter"",""1"",""7778""
","
",,null,run_exp/static/audio/clip_12_q1_correct.m4a,null,<p>That’s correct. You win extra money by collecting more gems.</p>,,,,,,,,,,,,,,,,,,,,,,,
quiz_q_2_ask,63,336373,0.0-23.0-1.0,"""event"",""trial"",""time""
""blur"",""0"",""0""
""focus"",""0"",""0""
""blur"",""0"",""0""
""focus"",""0"",""0""
""fullscreenenter"",""1"",""7778""
","""event"",""trial"",""time""
""blur"",""0"",""0""
""blur"",""0"",""0""
","""event"",""trial"",""time""
""focus"",""0"",""0""
""focus"",""0"",""0""
","""event"",""trial"",""time""
""fullscreenenter"",""1"",""7778""
","
",,1421.4,run_exp/static/audio/clip_14_q2_ask.m4a,,,,,,,1,,,,,,,,,,,,,,,,,,
quiz_q_2_fb_correct,64,340388,0.0-24.0-0.0,"""event"",""trial"",""time""
""blur"",""0"",""0""
""focus"",""0"",""0""
""blur"",""0"",""0""
""focus"",""0"",""0""
""fullscreenenter"",""1"",""7778""
","""event"",""trial"",""time""
""blur"",""0"",""0""
""blur"",""0"",""0""
","""event"",""trial"",""time""
""focus"",""0"",""0""
""focus"",""0"",""0""
","""event"",""trial"",""time""
""fullscreenenter"",""1"",""7778""
","
",,null,run_exp/static/audio/clip_15_q2_correct.m4a,null,<p>That’s correct. The experiment is 20 minutes no matter what.</p>,,,,,,,,,,,,,,,,,,,,,,,
quiz_q_3_ask,65,342664,0.0-24.0-1.0,"""event"",""trial"",""time""
""blur"",""0"",""0""
""focus"",""0"",""0""
""blur"",""0"",""0""
""focus"",""0"",""0""
""fullscreenenter"",""1"",""7778""
","""event"",""trial"",""time""
""blur"",""0"",""0""
""blur"",""0"",""0""
","""event"",""trial"",""time""
""focus"",""0"",""0""
""focus"",""0"",""0""
","""event"",""trial"",""time""
""fullscreenenter"",""1"",""7778""
","
",,2272.4,run_exp/static/audio/clip_17_q3_ask.m4a,,,,,,,1,,,,,,,,,,,,,,,,,,
quiz_q_3_fb_correct,66,346667,0.0-25.0-0.0,"""event"",""trial"",""time""
""blur"",""0"",""0""
""focus"",""0"",""0""
""blur"",""0"",""0""
""focus"",""0"",""0""
""fullscreenenter"",""1"",""7778""
","""event"",""trial"",""time""
""blur"",""0"",""0""
""blur"",""0"",""0""
","""event"",""trial"",""time""
""focus"",""0"",""0""
""focus"",""0"",""0""
","""event"",""trial"",""time""
""fullscreenenter"",""1"",""7778""
","
",,null,run_exp/static/audio/clip_18_q3_correct.m4a,null,<p> That’s correct. You press the letter L to travel to a new planet.</p>,,,,,,,,,,,,,,,,,,,,,,,
quiz_q_4_ask,67,352544,0.0-25.0-1.0,"""event"",""trial"",""time""
""blur"",""0"",""0""
""focus"",""0"",""0""
""blur"",""0"",""0""
""focus"",""0"",""0""
""fullscreenenter"",""1"",""7778""
","""event"",""trial"",""time""
""blur"",""0"",""0""
""blur"",""0"",""0""
","""event"",""trial"",""time""
""focus"",""0"",""0""
""focus"",""0"",""0""
","""event"",""trial"",""time""
""fullscreenenter"",""1"",""7778""
","
",,5872.7,run_exp/static/audio/clip_20_q4_ask.m4a,,,,,,,0,,,,,,,,,,,,,,,,,,
quiz_q_4_fb_correct,68,357887,0.0-26.0-0.0,"""event"",""trial"",""time""
""blur"",""0"",""0""
""focus"",""0"",""0""
""blur"",""0"",""0""
""focus"",""0"",""0""
""fullscreenenter"",""1"",""7778""
","""event"",""trial"",""time""
""blur"",""0"",""0""
""blur"",""0"",""0""
","""event"",""trial"",""time""
""focus"",""0"",""0""
""focus"",""0"",""0""
","""event"",""trial"",""time""
""fullscreenenter"",""1"",""7778""
","
",,null,run_exp/static/audio/clip_21_q4_correct.m4a,null,<p> That’s correct. The more you dig on a planet the fewer gems you’ll get with each dig. </p>,,,,,,,,,,,,,,,,,,,,,,,
quiz_q_5_ask,69,363459,0.0-26.0-1.0,"""event"",""trial"",""time""
""blur"",""0"",""0""
""focus"",""0"",""0""
""blur"",""0"",""0""
""focus"",""0"",""0""
""fullscreenenter"",""1"",""7778""
","""event"",""trial"",""time""
""blur"",""0"",""0""
""blur"",""0"",""0""
","""event"",""trial"",""time""
""focus"",""0"",""0""
""focus"",""0"",""0""
","""event"",""trial"",""time""
""fullscreenenter"",""1"",""7778""
","
",,5565.8,run_exp/static/audio/clip_23_q5_ask.m4a,,,,,,,1,,,,,,,,,,,,,,,,,,
quiz_q_5_fb_correct,70,368488,0.0-27.0-0.0,"""event"",""trial"",""time""
""blur"",""0"",""0""
""focus"",""0"",""0""
""blur"",""0"",""0""
""focus"",""0"",""0""
""fullscreenenter"",""1"",""7778""
","""event"",""trial"",""time""
""blur"",""0"",""0""
""blur"",""0"",""0""
","""event"",""trial"",""time""
""focus"",""0"",""0""
""focus"",""0"",""0""
","""event"",""trial"",""time""
""fullscreenenter"",""1"",""7778""
","
",,null,run_exp/static/audio/clip_24_q5_correct.m4a,null,<p> That’s correct. The alien tells you nothing about how much treasure is on the planet.</p>,,,,,,,,,,,,,,,,,,,,,,,
quiz_correct,71,371967,0.0-28.0-0.0,"""event"",""trial"",""time""
""blur"",""0"",""0""
""focus"",""0"",""0""
""blur"",""0"",""0""
""focus"",""0"",""0""
""fullscreenenter"",""1"",""7778""
","""event"",""trial"",""time""
""blur"",""0"",""0""
""blur"",""0"",""0""
","""event"",""trial"",""time""
""focus"",""0"",""0""
""focus"",""0"",""0""
","""event"",""trial"",""time""
""fullscreenenter"",""1"",""7778""
","
",,null,run_exp/static/audio/clip_26_correct_quiz.m4a,null,,,,,,,,,,,,,,,,,,,,,,,,
quiz_correct_continue,72,374467,0.0-28.0-1.0,"""event"",""trial"",""time""
""blur"",""0"",""0""
""focus"",""0"",""0""
""blur"",""0"",""0""
""focus"",""0"",""0""
""fullscreenenter"",""1"",""7778""
","""event"",""trial"",""time""
""blur"",""0"",""0""
""blur"",""0"",""0""
","""event"",""trial"",""time""
""focus"",""0"",""0""
""focus"",""0"",""0""
","""event"",""trial"",""time""
""fullscreenenter"",""1"",""7778""
","
",,2497,<p>Good job! You're now ready to move on to the real game!</p>,,,,,,,0,,,,,,,,,,,,,,,,,,
audio-keyboard-response,73,384608,0.0-28.0-2.0,"""event"",""trial"",""time""
""blur"",""0"",""0""
""focus"",""0"",""0""
""blur"",""0"",""0""
""focus"",""0"",""0""
""fullscreenenter"",""1"",""7778""
","""event"",""trial"",""time""
""blur"",""0"",""0""
""blur"",""0"",""0""
","""event"",""trial"",""time""
""focus"",""0"",""0""
""focus"",""0"",""0""
","""event"",""trial"",""time""
""fullscreenenter"",""1"",""7778""
","
",,null,run_exp/static/audio/clip_28_real_game.m4a,null,,,,,,,,,,,,,,,,,,,,,,,,
instruc_begin_exp_contine,74,389519,0.0-28.0-3.0,"""event"",""trial"",""time""
""blur"",""0"",""0""
""focus"",""0"",""0""
""blur"",""0"",""0""
""focus"",""0"",""0""
""fullscreenenter"",""1"",""7778""
","""event"",""trial"",""time""
""blur"",""0"",""0""
""blur"",""0"",""0""
","""event"",""trial"",""time""
""focus"",""0"",""0""
""focus"",""0"",""0""
","""event"",""trial"",""time""
""fullscreenenter"",""1"",""7778""
","
",,4908.5,"<p>Now that you know how  to dig for space treasure and travel to new planets,you can start exploring! </p><p>Do you want to go over the instructions again or get started with the real game?</p>",,,,,,,1,,,,,,1,,,,,,,,,,,,
alien_welcome,75,394536,0.0-29.0-0.0,"""event"",""trial"",""time""
""blur"",""0"",""0""
""focus"",""0"",""0""
""blur"",""0"",""0""
""focus"",""0"",""0""
""fullscreenenter"",""1"",""7778""
","""event"",""trial"",""time""
""blur"",""0"",""0""
""blur"",""0"",""0""
","""event"",""trial"",""time""
""focus"",""0"",""0""
""focus"",""0"",""0""
","""event"",""trial"",""time""
""fullscreenenter"",""1"",""7778""
","
",,null,run_exp/static/images/task_images/aliens/old_aliens/planet/alien_planet-8.jpg,null,,,,,,,,,,,,,8,"8,19,61,12,36,29,77,3,21,69,49,79,22,2,27,9,57,46,76,28,51,11,65,54,74,33,13,58,55,64,39,14,10,71,25,16,30,7,62,80,50,53,34,15,60,73,18,5,20",,,,,,,,,,
land,76,395050,0.0-29.0-1.0,"""event"",""trial"",""time""
""blur"",""0"",""0""
""focus"",""0"",""0""
""blur"",""0"",""0""
""focus"",""0"",""0""
""fullscreenenter"",""1"",""7778""
","""event"",""trial"",""time""
""blur"",""0"",""0""
""blur"",""0"",""0""
","""event"",""trial"",""time""
""focus"",""0"",""0""
""focus"",""0"",""0""
","""event"",""trial"",""time""
""fullscreenenter"",""1"",""7778""
","
",,null,run_exp/static/images/task_images/land.jpg,null,,,,,,,104,,,1,,,,,,,,,,,,,,
dig,77,397060,0.0-29.0-2.0,"""event"",""trial"",""time""
""blur"",""0"",""0""
""focus"",""0"",""0""
""blur"",""0"",""0""
""focus"",""0"",""0""
""fullscreenenter"",""1"",""7778""
","""event"",""trial"",""time""
""blur"",""0"",""0""
""blur"",""0"",""0""
","""event"",""trial"",""time""
""focus"",""0"",""0""
""focus"",""0"",""0""
","""event"",""trial"",""time""
""fullscreenenter"",""1"",""7778""
","
",,,,,,,,,,,,"[{""stimulus"":""run_exp/static/images/task_images/dig.jpg"",""time"":0.19999998807907104},{""stimulus"":""run_exp/static/images/task_images/land.jpg"",""time"":673.6999999880791},{""stimulus"":""run_exp/static/images/task_images/dig.jpg"",""time"":1344.0999999940395}]",[],1,,,,,,,,,,,,,,
harvest,78,398074,0.0-29.0-3.0,"""event"",""trial"",""time""
""blur"",""0"",""0""
""focus"",""0"",""0""
""blur"",""0"",""0""
""focus"",""0"",""0""
""fullscreenenter"",""1"",""7778""
","""event"",""trial"",""time""
""blur"",""0"",""0""
""blur"",""0"",""0""
","""event"",""trial"",""time""
""focus"",""0"",""0""
""focus"",""0"",""0""
","""event"",""trial"",""time""
""fullscreenenter"",""1"",""7778""
","
",,null,run_exp/static/images/task_images/gems/104.jpg,null,,,,,,,27,,,1,,,,,104,0.258507864,0.259615385,,,,,,,
decision,79,398551,0.0-29.0-4.0,"""event"",""trial"",""time""
""blur"",""0"",""0""
""focus"",""0"",""0""
""blur"",""0"",""0""
""focus"",""0"",""0""
""fullscreenenter"",""1"",""7778""
","""event"",""trial"",""time""
""blur"",""0"",""0""
""blur"",""0"",""0""
","""event"",""trial"",""time""
""focus"",""0"",""0""
""focus"",""0"",""0""
","""event"",""trial"",""time""
""fullscreenenter"",""1"",""7778""
","
",,472.1,run_exp/static/images/task_images/land.jpg,65,,,,,,,27,,,1,,,,,,,,9030,1,0,FALSE,,,
dig,80,401085,0.0-30.0-0.0,"""event"",""trial"",""time""
""blur"",""0"",""0""
""focus"",""0"",""0""
""blur"",""0"",""0""
""focus"",""0"",""0""
""fullscreenenter"",""1"",""7778""
","""event"",""trial"",""time""
""blur"",""0"",""0""
""blur"",""0"",""0""
","""event"",""trial"",""time""
""focus"",""0"",""0""
""focus"",""0"",""0""
","""event"",""trial"",""time""
""fullscreenenter"",""1"",""7778""
","
",,,,,,,,,,,,"[{""stimulus"":""run_exp/static/images/task_images/dig.jpg"",""time"":0.20000000298023224},{""stimulus"":""run_exp/static/images/task_images/land.jpg"",""time"":853.5},{""stimulus"":""run_exp/static/images/task_images/dig.jpg"",""time"":1701.4000000059605}]",[],1,,,,,,,,,,,,,,
harvest,81,402101,0.0-30.0-1.0,"""event"",""trial"",""time""
""blur"",""0"",""0""
""focus"",""0"",""0""
""blur"",""0"",""0""
""focus"",""0"",""0""
""fullscreenenter"",""1"",""7778""
","""event"",""trial"",""time""
""blur"",""0"",""0""
""blur"",""0"",""0""
","""event"",""trial"",""time""
""focus"",""0"",""0""
""focus"",""0"",""0""
","""event"",""trial"",""time""
""fullscreenenter"",""1"",""7778""
","
",,null,run_exp/static/images/task_images/gems/27.jpg,null,,,,,,,6,,,1,,,,,27,0.203861528,0.222222222,,,,,,,
decision,82,403193,0.0-30.0-2.0,"""event"",""trial"",""time""
""blur"",""0"",""0""
""focus"",""0"",""0""
""blur"",""0"",""0""
""focus"",""0"",""0""
""fullscreenenter"",""1"",""7778""
","""event"",""trial"",""time""
""blur"",""0"",""0""
""blur"",""0"",""0""
","""event"",""trial"",""time""
""focus"",""0"",""0""
""focus"",""0"",""0""
","""event"",""trial"",""time""
""fullscreenenter"",""1"",""7778""
","
",,1087.7,run_exp/static/images/task_images/land.jpg,76,,,,,,,6,,,1,,,,,,,,13672,1,1,TRUE,,,
travel,83,412110,0.0-31.0-0.0,"""event"",""trial"",""time""
""blur"",""0"",""0""
""focus"",""0"",""0""
""blur"",""0"",""0""
""focus"",""0"",""0""
""fullscreenenter"",""1"",""7778""
","""event"",""trial"",""time""
""blur"",""0"",""0""
""blur"",""0"",""0""
","""event"",""trial"",""time""
""focus"",""0"",""0""
""focus"",""0"",""0""
","""event"",""trial"",""time""
""fullscreenenter"",""1"",""7778""
","
",,,,,,,,,,,,"[{""stimulus"":""run_exp/static/images/task_images/rocket-01.jpg"",""time"":0.29999999701976776},{""stimulus"":""run_exp/static/images/task_images/rocket-02.jpg"",""time"":996.4000000059605},{""stimulus"":""run_exp/static/images/task_images/rocket-03.jpg"",""time"":1985.6000000089407},{""stimulus"":""run_exp/static/images/task_images/rocket-04.jpg"",""time"":2986.7999999970198},{""stimulus"":""run_exp/static/images/task_images/rocket-05.jpg"",""time"":3973.1000000089407},{""stimulus"":""run_exp/static/images/task_images/rocket-06.jpg"",""time"":4957.100000008941},{""stimulus"":""run_exp/static/images/task_images/rocket-07.jpg"",""time"":5943.100000008941},{""stimulus"":""run_exp/static/images/task_images/rocket-08.jpg"",""time"":6944},{""stimulus"":""run_exp/static/images/task_images/rocket-09.jpg"",""time"":7924.79999999702}]",[],1,,,,,,,,,,,,,,
alien_welcome,84,417121,0.0-31.0-1.0,"""event"",""trial"",""time""
""blur"",""0"",""0""
""focus"",""0"",""0""
""blur"",""0"",""0""
""focus"",""0"",""0""
""fullscreenenter"",""1"",""7778""
","""event"",""trial"",""time""
""blur"",""0"",""0""
""blur"",""0"",""0""
","""event"",""trial"",""time""
""focus"",""0"",""0""
""focus"",""0"",""0""
","""event"",""trial"",""time""
""fullscreenenter"",""1"",""7778""
","
",,null,run_exp/static/images/task_images/aliens/old_aliens/planet/alien_planet-19.jpg,null,,,,,,,,,,,,,19,"8,19,61,12,36,29,77,3,21,69,49,79,22,2,27,9,57,46,76,28,51,11,65,54,74,33,13,58,55,64,39,14,10,71,25,16,30,7,62,80,50,53,34,15,60,73,18,5,20",,,,,,,,,,
land,85,417623,0.0-31.0-2.0,"""event"",""trial"",""time""
""blur"",""0"",""0""
""focus"",""0"",""0""
""blur"",""0"",""0""
""focus"",""0"",""0""
""fullscreenenter"",""1"",""7778""
","""event"",""trial"",""time""
""blur"",""0"",""0""
""blur"",""0"",""0""
","""event"",""trial"",""time""
""focus"",""0"",""0""
""focus"",""0"",""0""
","""event"",""trial"",""time""
""fullscreenenter"",""1"",""7778""
","
",,null,run_exp/static/images/task_images/land.jpg,null,,,,,,,95,,,2,,,,,,,,,,,,,,
dig,86,419636,0.0-31.0-3.0,"""event"",""trial"",""time""
""blur"",""0"",""0""
""focus"",""0"",""0""
""blur"",""0"",""0""
""focus"",""0"",""0""
""fullscreenenter"",""1"",""7778""
","""event"",""trial"",""time""
""blur"",""0"",""0""
""blur"",""0"",""0""
","""event"",""trial"",""time""
""focus"",""0"",""0""
""focus"",""0"",""0""
","""event"",""trial"",""time""
""fullscreenenter"",""1"",""7778""
","
",,,,,,,,,,,,"[{""stimulus"":""run_exp/static/images/task_images/dig.jpg"",""time"":0.09999999403953552},{""stimulus"":""run_exp/static/images/task_images/land.jpg"",""time"":672.4000000059605},{""stimulus"":""run_exp/static/images/task_images/dig.jpg"",""time"":1335.5999999940395}]",[],2,,,,,,,,,,,,,,
harvest,87,420653,0.0-31.0-4.0,"""event"",""trial"",""time""
""blur"",""0"",""0""
""focus"",""0"",""0""
""blur"",""0"",""0""
""focus"",""0"",""0""
""fullscreenenter"",""1"",""7778""
","""event"",""trial"",""time""
""blur"",""0"",""0""
""blur"",""0"",""0""
","""event"",""trial"",""time""
""focus"",""0"",""0""
""focus"",""0"",""0""
","""event"",""trial"",""time""
""fullscreenenter"",""1"",""7778""
","
",,null,run_exp/static/images/task_images/gems/95.jpg,null,,,,,,,14,,,2,,,,,95,0.144115875,0.147368421,,,,,,,
decision,88,420785,0.0-31.0-5.0,"""event"",""trial"",""time""
""blur"",""0"",""0""
""focus"",""0"",""0""
""blur"",""0"",""0""
""focus"",""0"",""0""
""fullscreenenter"",""1"",""7778""
","""event"",""trial"",""time""
""blur"",""0"",""0""
""blur"",""0"",""0""
","""event"",""trial"",""time""
""focus"",""0"",""0""
""focus"",""0"",""0""
","""event"",""trial"",""time""
""fullscreenenter"",""1"",""7778""
","
",,127.8,run_exp/static/images/task_images/land.jpg,65,,,,,,,14,,,2,,,,,,,,31264,1,0,FALSE,,,
dig,89,423660,0.0-32.0-0.0,"""event"",""trial"",""time""
""blur"",""0"",""0""
""focus"",""0"",""0""
""blur"",""0"",""0""
""focus"",""0"",""0""
""fullscreenenter"",""1"",""7778""
","""event"",""trial"",""time""
""blur"",""0"",""0""
""blur"",""0"",""0""
","""event"",""trial"",""time""
""focus"",""0"",""0""
""focus"",""0"",""0""
","""event"",""trial"",""time""
""fullscreenenter"",""1"",""7778""
","
",,,,,,,,,,,,"[{""stimulus"":""run_exp/static/images/task_images/dig.jpg"",""time"":0.09999999403953552},{""stimulus"":""run_exp/static/images/task_images/land.jpg"",""time"":972.2999999970198},{""stimulus"":""run_exp/static/images/task_images/dig.jpg"",""time"":1924}]",[],2,,,,,,,,,,,,,,
harvest,90,424670,0.0-32.0-1.0,"""event"",""trial"",""time""
""blur"",""0"",""0""
""focus"",""0"",""0""
""blur"",""0"",""0""
""focus"",""0"",""0""
""fullscreenenter"",""1"",""7778""
","""event"",""trial"",""time""
""blur"",""0"",""0""
""blur"",""0"",""0""
","""event"",""trial"",""time""
""focus"",""0"",""0""
""focus"",""0"",""0""
","""event"",""trial"",""time""
""fullscreenenter"",""1"",""7778""
","
",,null,run_exp/static/images/task_images/gems/14.jpg,null,,,,,,,2,,,2,,,,,14,0.175908176,0.142857143,,,,,,,
decision,91,425316,0.0-32.0-2.0,"""event"",""trial"",""time""
""blur"",""0"",""0""
""focus"",""0"",""0""
""blur"",""0"",""0""
""focus"",""0"",""0""
""fullscreenenter"",""1"",""7778""
","""event"",""trial"",""time""
""blur"",""0"",""0""
""blur"",""0"",""0""
","""event"",""trial"",""time""
""focus"",""0"",""0""
""focus"",""0"",""0""
","""event"",""trial"",""time""
""fullscreenenter"",""1"",""7778""
","
",,641.3,run_exp/static/images/task_images/land.jpg,65,,,,,,,2,,,2,,,,,,,,35795,1,1,FALSE,,,
dig,92,427691,0.0-33.0-0.0,"""event"",""trial"",""time""
""blur"",""0"",""0""
""focus"",""0"",""0""
""blur"",""0"",""0""
""focus"",""0"",""0""
""fullscreenenter"",""1"",""7778""
","""event"",""trial"",""time""
""blur"",""0"",""0""
""blur"",""0"",""0""
","""event"",""trial"",""time""
""focus"",""0"",""0""
""focus"",""0"",""0""
","""event"",""trial"",""time""
""fullscreenenter"",""1"",""7778""
","
",,,,,,,,,,,,"[{""stimulus"":""run_exp/static/images/task_images/dig.jpg"",""time"":0.19999998807907104},{""stimulus"":""run_exp/static/images/task_images/land.jpg"",""time"":790.8999999910593},{""stimulus"":""run_exp/static/images/task_images/dig.jpg"",""time"":1584.5}]",[],2,,,,,,,,,,,,,,
harvest,93,428702,0.0-33.0-1.0,"""event"",""trial"",""time""
""blur"",""0"",""0""
""focus"",""0"",""0""
""blur"",""0"",""0""
""focus"",""0"",""0""
""fullscreenenter"",""1"",""7778""
","""event"",""trial"",""time""
""blur"",""0"",""0""
""blur"",""0"",""0""
","""event"",""trial"",""time""
""focus"",""0"",""0""
""focus"",""0"",""0""
","""event"",""trial"",""time""
""fullscreenenter"",""1"",""7778""
","
",,null,run_exp/static/images/task_images/gems/2.jpg,null,,,,,,,0,,,2,,,,,2,0.221250609,0,,,,,,,
decision,94,429278,0.0-33.0-2.0,"""event"",""trial"",""time""
""blur"",""0"",""0""
""focus"",""0"",""0""
""blur"",""0"",""0""
""focus"",""0"",""0""
""fullscreenenter"",""1"",""7778""
","""event"",""trial"",""time""
""blur"",""0"",""0""
""blur"",""0"",""0""
","""event"",""trial"",""time""
""focus"",""0"",""0""
""focus"",""0"",""0""
","""event"",""trial"",""time""
""fullscreenenter"",""1"",""7778""
","
",,571.5,run_exp/static/images/task_images/land.jpg,76,,,,,,,0,,,2,,,,,,,,39757,1,2,TRUE,,,
travel,95,438708,0.0-34.0-0.0,"""event"",""trial"",""time""
""blur"",""0"",""0""
""focus"",""0"",""0""
""blur"",""0"",""0""
""focus"",""0"",""0""
""fullscreenenter"",""1"",""7778""
","""event"",""trial"",""time""
""blur"",""0"",""0""
""blur"",""0"",""0""
","""event"",""trial"",""time""
""focus"",""0"",""0""
""focus"",""0"",""0""
","""event"",""trial"",""time""
""fullscreenenter"",""1"",""7778""
","
",,,,,,,,,,,,"[{""stimulus"":""run_exp/static/images/task_images/rocket-01.jpg"",""time"":0.10000000894069672},{""stimulus"":""run_exp/static/images/task_images/rocket-02.jpg"",""time"":1055.5},{""stimulus"":""run_exp/static/images/task_images/rocket-03.jpg"",""time"":2105.4000000059605},{""stimulus"":""run_exp/static/images/task_images/rocket-04.jpg"",""time"":3154.9000000059605},{""stimulus"":""run_exp/static/images/task_images/rocket-05.jpg"",""time"":4190.70000000298},{""stimulus"":""run_exp/static/images/task_images/rocket-06.jpg"",""time"":5238.600000008941},{""stimulus"":""run_exp/static/images/task_images/rocket-07.jpg"",""time"":6288.20000000298},{""stimulus"":""run_exp/static/images/task_images/rocket-08.jpg"",""time"":7333.100000008941},{""stimulus"":""run_exp/static/images/task_images/rocket-09.jpg"",""time"":8389.60000000894}]",[],2,,,,,,,,,,,,,,
alien_welcome,96,443726,0.0-34.0-1.0,"""event"",""trial"",""time""
""blur"",""0"",""0""
""focus"",""0"",""0""
""blur"",""0"",""0""
""focus"",""0"",""0""
""fullscreenenter"",""1"",""7778""
","""event"",""trial"",""time""
""blur"",""0"",""0""
""blur"",""0"",""0""
","""event"",""trial"",""time""
""focus"",""0"",""0""
""focus"",""0"",""0""
","""event"",""trial"",""time""
""fullscreenenter"",""1"",""7778""
","
",,null,run_exp/static/images/task_images/aliens/old_aliens/planet/alien_planet-61.jpg,null,,,,,,,,,,,,,61,"8,19,61,12,36,29,77,3,21,69,49,79,22,2,27,9,57,46,76,28,51,11,65,54,74,33,13,58,55,64,39,14,10,71,25,16,30,7,62,80,50,53,34,15,60,73,18,5,20",,,,,,,,,,
land,97,444242,0.0-34.0-2.0,"""event"",""trial"",""time""
""blur"",""0"",""0""
""focus"",""0"",""0""
""blur"",""0"",""0""
""focus"",""0"",""0""
""fullscreenenter"",""1"",""7778""
","""event"",""trial"",""time""
""blur"",""0"",""0""
""blur"",""0"",""0""
","""event"",""trial"",""time""
""focus"",""0"",""0""
""focus"",""0"",""0""
","""event"",""trial"",""time""
""fullscreenenter"",""1"",""7778""
","
",,null,run_exp/static/images/task_images/land.jpg,null,,,,,,,104,,,3,,,,,,,,,,,,,,
dig,98,446257,0.0-34.0-3.0,"""event"",""trial"",""time""
""blur"",""0"",""0""
""focus"",""0"",""0""
""blur"",""0"",""0""
""focus"",""0"",""0""
""fullscreenenter"",""1"",""7778""
","""event"",""trial"",""time""
""blur"",""0"",""0""
""blur"",""0"",""0""
","""event"",""trial"",""time""
""focus"",""0"",""0""
""focus"",""0"",""0""
","""event"",""trial"",""time""
""fullscreenenter"",""1"",""7778""
","
",,,,,,,,,,,,"[{""stimulus"":""run_exp/static/images/task_images/dig.jpg"",""time"":0.5},{""stimulus"":""run_exp/static/images/task_images/land.jpg"",""time"":684},{""stimulus"":""run_exp/static/images/task_images/dig.jpg"",""time"":1341.2999999970198}]",[],3,,,,,,,,,,,,,,
harvest,99,447274,0.0-34.0-4.0,"""event"",""trial"",""time""
""blur"",""0"",""0""
""focus"",""0"",""0""
""blur"",""0"",""0""
""focus"",""0"",""0""
""fullscreenenter"",""1"",""7778""
","""event"",""trial"",""time""
""blur"",""0"",""0""
""blur"",""0"",""0""
","""event"",""trial"",""time""
""focus"",""0"",""0""
""focus"",""0"",""0""
","""event"",""trial"",""time""
""fullscreenenter"",""1"",""7778""
","
",,null,run_exp/static/images/task_images/gems/104.jpg,null,,,,,,,57,,,3,,,,,104,0.547380069,0.548076923,,,,,,,
decision,100,447570,0.0-34.0-5.0,"""event"",""trial"",""time""
""blur"",""0"",""0""
""focus"",""0"",""0""
""blur"",""0"",""0""
""focus"",""0"",""0""
""fullscreenenter"",""1"",""7778""
","""event"",""trial"",""time""
""blur"",""0"",""0""
""blur"",""0"",""0""
","""event"",""trial"",""time""
""focus"",""0"",""0""
""focus"",""0"",""0""
","""event"",""trial"",""time""
""fullscreenenter"",""1"",""7778""
","
",,291.3,run_exp/static/images/task_images/land.jpg,65,,,,,,,57,,,3,,,,,,,,58049,1,0,FALSE,,,
dig,101,450286,0.0-35.0-0.0,"""event"",""trial"",""time""
""blur"",""0"",""0""
""focus"",""0"",""0""
""blur"",""0"",""0""
""focus"",""0"",""0""
""fullscreenenter"",""1"",""7778""
","""event"",""trial"",""time""
""blur"",""0"",""0""
""blur"",""0"",""0""
","""event"",""trial"",""time""
""focus"",""0"",""0""
""focus"",""0"",""0""
","""event"",""trial"",""time""
""fullscreenenter"",""1"",""7778""
","
",,,,,,,,,,,,"[{""stimulus"":""run_exp/static/images/task_images/dig.jpg"",""time"":0.10000000894069672},{""stimulus"":""run_exp/static/images/task_images/land.jpg"",""time"":903.7999999970198},{""stimulus"":""run_exp/static/images/task_images/dig.jpg"",""time"":1808.7000000029802}]",[],3,,,,,,,,,,,,,,
harvest,102,451296,0.0-35.0-1.0,"""event"",""trial"",""time""
""blur"",""0"",""0""
""focus"",""0"",""0""
""blur"",""0"",""0""
""focus"",""0"",""0""
""fullscreenenter"",""1"",""7778""
","""event"",""trial"",""time""
""blur"",""0"",""0""
""blur"",""0"",""0""
","""event"",""trial"",""time""
""focus"",""0"",""0""
""focus"",""0"",""0""
","""event"",""trial"",""time""
""fullscreenenter"",""1"",""7778""
","
",,null,run_exp/static/images/task_images/gems/57.jpg,null,,,,,,,27,,,3,,,,,57,0.467332285,0.473684211,,,,,,,
decision,103,451658,0.0-35.0-2.0,"""event"",""trial"",""time""
""blur"",""0"",""0""
""focus"",""0"",""0""
""blur"",""0"",""0""
""focus"",""0"",""0""
""fullscreenenter"",""1"",""7778""
","""event"",""trial"",""time""
""blur"",""0"",""0""
""blur"",""0"",""0""
","""event"",""trial"",""time""
""focus"",""0"",""0""
""focus"",""0"",""0""
","""event"",""trial"",""time""
""fullscreenenter"",""1"",""7778""
","
",,359.8,run_exp/static/images/task_images/land.jpg,65,,,,,,,27,,,3,,,,,,,,62137,1,1,FALSE,,,
dig,104,454306,0.0-36.0-0.0,"""event"",""trial"",""time""
""blur"",""0"",""0""
""focus"",""0"",""0""
""blur"",""0"",""0""
""focus"",""0"",""0""
""fullscreenenter"",""1"",""7778""
","""event"",""trial"",""time""
""blur"",""0"",""0""
""blur"",""0"",""0""
","""event"",""trial"",""time""
""focus"",""0"",""0""
""focus"",""0"",""0""
","""event"",""trial"",""time""
""fullscreenenter"",""1"",""7778""
","
",,,,,,,,,,,,"[{""stimulus"":""run_exp/static/images/task_images/dig.jpg"",""time"":0},{""stimulus"":""run_exp/static/images/task_images/land.jpg"",""time"":884.7000000029802},{""stimulus"":""run_exp/static/images/task_images/dig.jpg"",""time"":1765.1000000089407}]",[],3,,,,,,,,,,,,,,
harvest,105,455323,0.0-36.0-1.0,"""event"",""trial"",""time""
""blur"",""0"",""0""
""focus"",""0"",""0""
""blur"",""0"",""0""
""focus"",""0"",""0""
""fullscreenenter"",""1"",""7778""
","""event"",""trial"",""time""
""blur"",""0"",""0""
""blur"",""0"",""0""
","""event"",""trial"",""time""
""focus"",""0"",""0""
""focus"",""0"",""0""
","""event"",""trial"",""time""
""fullscreenenter"",""1"",""7778""
","
",,null,run_exp/static/images/task_images/gems/27.jpg,null,,,,,,,16,,,3,,,,,27,0.588633494,0.592592593,,,,,,,
decision,106,455609,0.0-36.0-2.0,"""event"",""trial"",""time""
""blur"",""0"",""0""
""focus"",""0"",""0""
""blur"",""0"",""0""
""focus"",""0"",""0""
""fullscreenenter"",""1"",""7778""
","""event"",""trial"",""time""
""blur"",""0"",""0""
""blur"",""0"",""0""
","""event"",""trial"",""time""
""focus"",""0"",""0""
""focus"",""0"",""0""
","""event"",""trial"",""time""
""fullscreenenter"",""1"",""7778""
","
",,284.6,run_exp/static/images/task_images/land.jpg,65,,,,,,,16,,,3,,,,,,,,66088,1,2,FALSE,,,
dig,107,458341,0.0-37.0-0.0,"""event"",""trial"",""time""
""blur"",""0"",""0""
""focus"",""0"",""0""
""blur"",""0"",""0""
""focus"",""0"",""0""
""fullscreenenter"",""1"",""7778""
","""event"",""trial"",""time""
""blur"",""0"",""0""
""blur"",""0"",""0""
","""event"",""trial"",""time""
""focus"",""0"",""0""
""focus"",""0"",""0""
","""event"",""trial"",""time""
""fullscreenenter"",""1"",""7778""
","
",,,,,,,,,,,,"[{""stimulus"":""run_exp/static/images/task_images/dig.jpg"",""time"":0.29999999701976776},{""stimulus"":""run_exp/static/images/task_images/land.jpg"",""time"":915.7000000029802},{""stimulus"":""run_exp/static/images/task_images/dig.jpg"",""time"":1821.8999999910593}]",[],3,,,,,,,,,,,,,,
harvest,108,459356,0.0-37.0-1.0,"""event"",""trial"",""time""
""blur"",""0"",""0""
""focus"",""0"",""0""
""blur"",""0"",""0""
""focus"",""0"",""0""
""fullscreenenter"",""1"",""7778""
","""event"",""trial"",""time""
""blur"",""0"",""0""
""blur"",""0"",""0""
","""event"",""trial"",""time""
""focus"",""0"",""0""
""focus"",""0"",""0""
","""event"",""trial"",""time""
""fullscreenenter"",""1"",""7778""
","
",,null,run_exp/static/images/task_images/gems/16.jpg,null,,,,,,,8,,,3,,,,,16,0.528501331,0.5,,,,,,,
decision,109,459838,0.0-37.0-2.0,"""event"",""trial"",""time""
""blur"",""0"",""0""
""focus"",""0"",""0""
""blur"",""0"",""0""
""focus"",""0"",""0""
""fullscreenenter"",""1"",""7778""
","""event"",""trial"",""time""
""blur"",""0"",""0""
""blur"",""0"",""0""
","""event"",""trial"",""time""
""focus"",""0"",""0""
""focus"",""0"",""0""
","""event"",""trial"",""time""
""fullscreenenter"",""1"",""7778""
","
",,479.6,run_exp/static/images/task_images/land.jpg,65,,,,,,,8,,,3,,,,,,,,70317,1,3,FALSE,,,
dig,110,462371,0.0-38.0-0.0,"""event"",""trial"",""time""
""blur"",""0"",""0""
""focus"",""0"",""0""
""blur"",""0"",""0""
""focus"",""0"",""0""
""fullscreenenter"",""1"",""7778""
","""event"",""trial"",""time""
""blur"",""0"",""0""
""blur"",""0"",""0""
","""event"",""trial"",""time""
""focus"",""0"",""0""
""focus"",""0"",""0""
","""event"",""trial"",""time""
""fullscreenenter"",""1"",""7778""
","
",,,,,,,,,,,,"[{""stimulus"":""run_exp/static/images/task_images/dig.jpg"",""time"":0},{""stimulus"":""run_exp/static/images/task_images/land.jpg"",""time"":842.5999999940395},{""stimulus"":""run_exp/static/images/task_images/dig.jpg"",""time"":1686}]",[],3,,,,,,,,,,,,,,
harvest,111,463387,0.0-38.0-1.0,"""event"",""trial"",""time""
""blur"",""0"",""0""
""focus"",""0"",""0""
""blur"",""0"",""0""
""focus"",""0"",""0""
""fullscreenenter"",""1"",""7778""
","""event"",""trial"",""time""
""blur"",""0"",""0""
""blur"",""0"",""0""
","""event"",""trial"",""time""
""focus"",""0"",""0""
""focus"",""0"",""0""
","""event"",""trial"",""time""
""fullscreenenter"",""1"",""7778""
","
",,null,run_exp/static/images/task_images/gems/8.jpg,null,,,,,,,3,,,3,,,,,8,0.417967517,0.375,,,,,,,
decision,112,463976,0.0-38.0-2.0,"""event"",""trial"",""time""
""blur"",""0"",""0""
""focus"",""0"",""0""
""blur"",""0"",""0""
""focus"",""0"",""0""
""fullscreenenter"",""1"",""7778""
","""event"",""trial"",""time""
""blur"",""0"",""0""
""blur"",""0"",""0""
","""event"",""trial"",""time""
""focus"",""0"",""0""
""focus"",""0"",""0""
","""event"",""trial"",""time""
""fullscreenenter"",""1"",""7778""
","
",,584.9,run_exp/static/images/task_images/land.jpg,76,,,,,,,3,,,3,,,,,,,,74455,1,4,TRUE,,,
travel,113,473400,0.0-39.0-0.0,"""event"",""trial"",""time""
""blur"",""0"",""0""
""focus"",""0"",""0""
""blur"",""0"",""0""
""focus"",""0"",""0""
""fullscreenenter"",""1"",""7778""
","""event"",""trial"",""time""
""blur"",""0"",""0""
""blur"",""0"",""0""
","""event"",""trial"",""time""
""focus"",""0"",""0""
""focus"",""0"",""0""
","""event"",""trial"",""time""
""fullscreenenter"",""1"",""7778""
","
",,,,,,,,,,,,"[{""stimulus"":""run_exp/static/images/task_images/rocket-01.jpg"",""time"":0.29999999701976776},{""stimulus"":""run_exp/static/images/task_images/rocket-02.jpg"",""time"":1059.5},{""stimulus"":""run_exp/static/images/task_images/rocket-03.jpg"",""time"":2107.5999999940395},{""stimulus"":""run_exp/static/images/task_images/rocket-04.jpg"",""time"":3141.2999999970198},{""stimulus"":""run_exp/static/images/task_images/rocket-05.jpg"",""time"":4198.5999999940395},{""stimulus"":""run_exp/static/images/task_images/rocket-06.jpg"",""time"":5240.70000000298},{""stimulus"":""run_exp/static/images/task_images/rocket-07.jpg"",""time"":6289.29999999702},{""stimulus"":""run_exp/static/images/task_images/rocket-08.jpg"",""time"":7333.70000000298},{""stimulus"":""run_exp/static/images/task_images/rocket-09.jpg"",""time"":8381.20000000298}]",[],3,,,,,,,,,,,,,,
alien_welcome,114,478414,0.0-39.0-1.0,"""event"",""trial"",""time""
""blur"",""0"",""0""
""focus"",""0"",""0""
""blur"",""0"",""0""
""focus"",""0"",""0""
""fullscreenenter"",""1"",""7778""
","""event"",""trial"",""time""
""blur"",""0"",""0""
""blur"",""0"",""0""
","""event"",""trial"",""time""
""focus"",""0"",""0""
""focus"",""0"",""0""
","""event"",""trial"",""time""
""fullscreenenter"",""1"",""7778""
","
",,null,run_exp/static/images/task_images/aliens/old_aliens/planet/alien_planet-12.jpg,null,,,,,,,,,,,,,12,"8,19,61,12,36,29,77,3,21,69,49,79,22,2,27,9,57,46,76,28,51,11,65,54,74,33,13,58,55,64,39,14,10,71,25,16,30,7,62,80,50,53,34,15,60,73,18,5,20",,,,,,,,,,
land,115,478928,0.0-39.0-2.0,"""event"",""trial"",""time""
""blur"",""0"",""0""
""focus"",""0"",""0""
""blur"",""0"",""0""
""focus"",""0"",""0""
""fullscreenenter"",""1"",""7778""
","""event"",""trial"",""time""
""blur"",""0"",""0""
""blur"",""0"",""0""
","""event"",""trial"",""time""
""focus"",""0"",""0""
""focus"",""0"",""0""
","""event"",""trial"",""time""
""fullscreenenter"",""1"",""7778""
","
",,null,run_exp/static/images/task_images/land.jpg,null,,,,,,,99,,,4,,,,,,,,,,,,,,
dig,116,480943,0.0-39.0-3.0,"""event"",""trial"",""time""
""blur"",""0"",""0""
""focus"",""0"",""0""
""blur"",""0"",""0""
""focus"",""0"",""0""
""fullscreenenter"",""1"",""7778""
","""event"",""trial"",""time""
""blur"",""0"",""0""
""blur"",""0"",""0""
","""event"",""trial"",""time""
""focus"",""0"",""0""
""focus"",""0"",""0""
","""event"",""trial"",""time""
""fullscreenenter"",""1"",""7778""
","
",,,,,,,,,,,,"[{""stimulus"":""run_exp/static/images/task_images/dig.jpg"",""time"":0.5},{""stimulus"":""run_exp/static/images/task_images/land.jpg"",""time"":669.7999999970198},{""stimulus"":""run_exp/static/images/task_images/dig.jpg"",""time"":1342}]",[],4,,,,,,,,,,,,,,
harvest,117,481959,0.0-39.0-4.0,"""event"",""trial"",""time""
""blur"",""0"",""0""
""focus"",""0"",""0""
""blur"",""0"",""0""
""focus"",""0"",""0""
""fullscreenenter"",""1"",""7778""
","""event"",""trial"",""time""
""blur"",""0"",""0""
""blur"",""0"",""0""
","""event"",""trial"",""time""
""focus"",""0"",""0""
""focus"",""0"",""0""
","""event"",""trial"",""time""
""fullscreenenter"",""1"",""7778""
","
",,null,run_exp/static/images/task_images/gems/99.jpg,null,,,,,,,52,,,4,,,,,99,0.521935509,0.525252525,,,,,,,
decision,118,481976,0.0-39.0-5.0,"""event"",""trial"",""time""
""blur"",""0"",""0""
""focus"",""0"",""0""
""blur"",""0"",""0""
""focus"",""0"",""0""
""fullscreenenter"",""1"",""7778""
","""event"",""trial"",""time""
""blur"",""0"",""0""
""blur"",""0"",""0""
","""event"",""trial"",""time""
""focus"",""0"",""0""
""focus"",""0"",""0""
","""event"",""trial"",""time""
""fullscreenenter"",""1"",""7778""
","
",,12.3,run_exp/static/images/task_images/land.jpg,65,,,,,,,52,,,4,,,,,,,,92455,1,0,FALSE,,,
dig,119,484964,0.0-40.0-0.0,"""event"",""trial"",""time""
""blur"",""0"",""0""
""focus"",""0"",""0""
""blur"",""0"",""0""
""focus"",""0"",""0""
""fullscreenenter"",""1"",""7778""
","""event"",""trial"",""time""
""blur"",""0"",""0""
""blur"",""0"",""0""
","""event"",""trial"",""time""
""focus"",""0"",""0""
""focus"",""0"",""0""
","""event"",""trial"",""time""
""fullscreenenter"",""1"",""7778""
","
",,,,,,,,,,,,"[{""stimulus"":""run_exp/static/images/task_images/dig.jpg"",""time"":0},{""stimulus"":""run_exp/static/images/task_images/land.jpg"",""time"":997.5},{""stimulus"":""run_exp/static/images/task_images/dig.jpg"",""time"":1998.5999999940395}]",[],4,,,,,,,,,,,,,,
harvest,120,485979,0.0-40.0-1.0,"""event"",""trial"",""time""
""blur"",""0"",""0""
""focus"",""0"",""0""
""blur"",""0"",""0""
""focus"",""0"",""0""
""fullscreenenter"",""1"",""7778""
","""event"",""trial"",""time""
""blur"",""0"",""0""
""blur"",""0"",""0""
","""event"",""trial"",""time""
""focus"",""0"",""0""
""focus"",""0"",""0""
","""event"",""trial"",""time""
""fullscreenenter"",""1"",""7778""
","
",,null,run_exp/static/images/task_images/gems/52.jpg,null,,,,,,,25,,,4,,,,,52,0.483728545,0.480769231,,,,,,,
decision,121,486092,0.0-40.0-2.0,"""event"",""trial"",""time""
""blur"",""0"",""0""
""focus"",""0"",""0""
""blur"",""0"",""0""
""focus"",""0"",""0""
""fullscreenenter"",""1"",""7778""
","""event"",""trial"",""time""
""blur"",""0"",""0""
""blur"",""0"",""0""
","""event"",""trial"",""time""
""focus"",""0"",""0""
""focus"",""0"",""0""
","""event"",""trial"",""time""
""fullscreenenter"",""1"",""7778""
","
",,111.2,run_exp/static/images/task_images/land.jpg,65,,,,,,,25,,,4,,,,,,,,96571,1,1,FALSE,,,
dig,122,488992,0.0-41.0-0.0,"""event"",""trial"",""time""
""blur"",""0"",""0""
""focus"",""0"",""0""
""blur"",""0"",""0""
""focus"",""0"",""0""
""fullscreenenter"",""1"",""7778""
","""event"",""trial"",""time""
""blur"",""0"",""0""
""blur"",""0"",""0""
","""event"",""trial"",""time""
""focus"",""0"",""0""
""focus"",""0"",""0""
","""event"",""trial"",""time""
""fullscreenenter"",""1"",""7778""
","
",,,,,,,,,,,,"[{""stimulus"":""run_exp/static/images/task_images/dig.jpg"",""time"":0.09999999403953552},{""stimulus"":""run_exp/static/images/task_images/land.jpg"",""time"":977.3999999910593},{""stimulus"":""run_exp/static/images/task_images/dig.jpg"",""time"":1941.8999999910593}]",[],4,,,,,,,,,,,,,,
harvest,123,490006,0.0-41.0-1.0,"""event"",""trial"",""time""
""blur"",""0"",""0""
""focus"",""0"",""0""
""blur"",""0"",""0""
""focus"",""0"",""0""
""fullscreenenter"",""1"",""7778""
","""event"",""trial"",""time""
""blur"",""0"",""0""
""blur"",""0"",""0""
","""event"",""trial"",""time""
""focus"",""0"",""0""
""focus"",""0"",""0""
","""event"",""trial"",""time""
""fullscreenenter"",""1"",""7778""
","
",,null,run_exp/static/images/task_images/gems/25.jpg,null,,,,,,,12,,,4,,,,,25,0.473438842,0.48,,,,,,,
decision,124,490617,0.0-41.0-2.0,"""event"",""trial"",""time""
""blur"",""0"",""0""
""focus"",""0"",""0""
""blur"",""0"",""0""
""focus"",""0"",""0""
""fullscreenenter"",""1"",""7778""
","""event"",""trial"",""time""
""blur"",""0"",""0""
""blur"",""0"",""0""
","""event"",""trial"",""time""
""focus"",""0"",""0""
""focus"",""0"",""0""
","""event"",""trial"",""time""
""fullscreenenter"",""1"",""7778""
","
",,606.8,run_exp/static/images/task_images/land.jpg,65,,,,,,,12,,,4,,,,,,,,101097,1,2,FALSE,,,
dig,125,493022,0.0-42.0-0.0,"""event"",""trial"",""time""
""blur"",""0"",""0""
""focus"",""0"",""0""
""blur"",""0"",""0""
""focus"",""0"",""0""
""fullscreenenter"",""1"",""7778""
","""event"",""trial"",""time""
""blur"",""0"",""0""
""blur"",""0"",""0""
","""event"",""trial"",""time""
""focus"",""0"",""0""
""focus"",""0"",""0""
","""event"",""trial"",""time""
""fullscreenenter"",""1"",""7778""
","
",,,,,,,,,,,,"[{""stimulus"":""run_exp/static/images/task_images/dig.jpg"",""time"":0.3999999910593033},{""stimulus"":""run_exp/static/images/task_images/land.jpg"",""time"":808.0999999940395},{""stimulus"":""run_exp/static/images/task_images/dig.jpg"",""time"":1600.8999999910593}]",[],4,,,,,,,,,,,,,,
harvest,126,494034,0.0-42.0-1.0,"""event"",""trial"",""time""
""blur"",""0"",""0""
""focus"",""0"",""0""
""blur"",""0"",""0""
""focus"",""0"",""0""
""fullscreenenter"",""1"",""7778""
","""event"",""trial"",""time""
""blur"",""0"",""0""
""blur"",""0"",""0""
","""event"",""trial"",""time""
""focus"",""0"",""0""
""focus"",""0"",""0""
","""event"",""trial"",""time""
""fullscreenenter"",""1"",""7778""
","
",,null,run_exp/static/images/task_images/gems/12.jpg,null,,,,,,,6,,,4,,,,,12,0.474538054,0.5,,,,,,,
decision,127,494649,0.0-42.0-2.0,"""event"",""trial"",""time""
""blur"",""0"",""0""
""focus"",""0"",""0""
""blur"",""0"",""0""
""focus"",""0"",""0""
""fullscreenenter"",""1"",""7778""
","""event"",""trial"",""time""
""blur"",""0"",""0""
""blur"",""0"",""0""
","""event"",""trial"",""time""
""focus"",""0"",""0""
""focus"",""0"",""0""
","""event"",""trial"",""time""
""fullscreenenter"",""1"",""7778""
","
",,610.3,run_exp/static/images/task_images/land.jpg,65,,,,,,,6,,,4,,,,,,,,105128,1,3,FALSE,,,
dig,128,497046,0.0-43.0-0.0,"""event"",""trial"",""time""
""blur"",""0"",""0""
""focus"",""0"",""0""
""blur"",""0"",""0""
""focus"",""0"",""0""
""fullscreenenter"",""1"",""7778""
","""event"",""trial"",""time""
""blur"",""0"",""0""
""blur"",""0"",""0""
","""event"",""trial"",""time""
""focus"",""0"",""0""
""focus"",""0"",""0""
","""event"",""trial"",""time""
""fullscreenenter"",""1"",""7778""
","
",,,,,,,,,,,,"[{""stimulus"":""run_exp/static/images/task_images/dig.jpg"",""time"":0},{""stimulus"":""run_exp/static/images/task_images/land.jpg"",""time"":800.4000000059605},{""stimulus"":""run_exp/static/images/task_images/dig.jpg"",""time"":1594.6000000089407}]",[],4,,,,,,,,,,,,,,
harvest,129,498062,0.0-43.0-1.0,"""event"",""trial"",""time""
""blur"",""0"",""0""
""focus"",""0"",""0""
""blur"",""0"",""0""
""focus"",""0"",""0""
""fullscreenenter"",""1"",""7778""
","""event"",""trial"",""time""
""blur"",""0"",""0""
""blur"",""0"",""0""
","""event"",""trial"",""time""
""focus"",""0"",""0""
""focus"",""0"",""0""
","""event"",""trial"",""time""
""fullscreenenter"",""1"",""7778""
","
",,null,run_exp/static/images/task_images/gems/6.jpg,null,,,,,,,3,,,4,,,,,6,0.465023171,0.5,,,,,,,
decision,130,498469,0.0-43.0-2.0,"""event"",""trial"",""time""
""blur"",""0"",""0""
""focus"",""0"",""0""
""blur"",""0"",""0""
""focus"",""0"",""0""
""fullscreenenter"",""1"",""7778""
","""event"",""trial"",""time""
""blur"",""0"",""0""
""blur"",""0"",""0""
","""event"",""trial"",""time""
""focus"",""0"",""0""
""focus"",""0"",""0""
","""event"",""trial"",""time""
""fullscreenenter"",""1"",""7778""
","
",,405,run_exp/static/images/task_images/land.jpg,76,,,,,,,3,,,4,,,,,,,,108948,1,4,TRUE,,,
travel,131,508072,0.0-44.0-0.0,"""event"",""trial"",""time""
""blur"",""0"",""0""
""focus"",""0"",""0""
""blur"",""0"",""0""
""focus"",""0"",""0""
""fullscreenenter"",""1"",""7778""
","""event"",""trial"",""time""
""blur"",""0"",""0""
""blur"",""0"",""0""
","""event"",""trial"",""time""
""focus"",""0"",""0""
""focus"",""0"",""0""
","""event"",""trial"",""time""
""fullscreenenter"",""1"",""7778""
","
",,,,,,,,,,,,"[{""stimulus"":""run_exp/static/images/task_images/rocket-01.jpg"",""time"":0},{""stimulus"":""run_exp/static/images/task_images/rocket-02.jpg"",""time"":1078.7999999970198},{""stimulus"":""run_exp/static/images/task_images/rocket-03.jpg"",""time"":2142.2999999970198},{""stimulus"":""run_exp/static/images/task_images/rocket-04.jpg"",""time"":3210.2000000029802},{""stimulus"":""run_exp/static/images/task_images/rocket-05.jpg"",""time"":4270.70000000298},{""stimulus"":""run_exp/static/images/task_images/rocket-06.jpg"",""time"":5333.20000000298},{""stimulus"":""run_exp/static/images/task_images/rocket-07.jpg"",""time"":6402.4000000059605},{""stimulus"":""run_exp/static/images/task_images/rocket-08.jpg"",""time"":7466.600000008941},{""stimulus"":""run_exp/static/images/task_images/rocket-09.jpg"",""time"":8532.40000000596}]",[],4,,,,,,,,,,,,,,
alien_welcome,132,513089,0.0-44.0-1.0,"""event"",""trial"",""time""
""blur"",""0"",""0""
""focus"",""0"",""0""
""blur"",""0"",""0""
""focus"",""0"",""0""
""fullscreenenter"",""1"",""7778""
","""event"",""trial"",""time""
""blur"",""0"",""0""
""blur"",""0"",""0""
","""event"",""trial"",""time""
""focus"",""0"",""0""
""focus"",""0"",""0""
","""event"",""trial"",""time""
""fullscreenenter"",""1"",""7778""
","
",,null,run_exp/static/images/task_images/aliens/old_aliens/planet/alien_planet-36.jpg,null,,,,,,,,,,,,,36,"8,19,61,12,36,29,77,3,21,69,49,79,22,2,27,9,57,46,76,28,51,11,65,54,74,33,13,58,55,64,39,14,10,71,25,16,30,7,62,80,50,53,34,15,60,73,18,5,20",,,,,,,,,,
land,133,513605,0.0-44.0-2.0,"""event"",""trial"",""time""
""blur"",""0"",""0""
""focus"",""0"",""0""
""blur"",""0"",""0""
""focus"",""0"",""0""
""fullscreenenter"",""1"",""7778""
","""event"",""trial"",""time""
""blur"",""0"",""0""
""blur"",""0"",""0""
","""event"",""trial"",""time""
""focus"",""0"",""0""
""focus"",""0"",""0""
","""event"",""trial"",""time""
""fullscreenenter"",""1"",""7778""
","
",,null,run_exp/static/images/task_images/land.jpg,null,,,,,,,95,,,5,,,,,,,,,,,,,,
dig,134,515620,0.0-44.0-3.0,"""event"",""trial"",""time""
""blur"",""0"",""0""
""focus"",""0"",""0""
""blur"",""0"",""0""
""focus"",""0"",""0""
""fullscreenenter"",""1"",""7778""
","""event"",""trial"",""time""
""blur"",""0"",""0""
""blur"",""0"",""0""
","""event"",""trial"",""time""
""focus"",""0"",""0""
""focus"",""0"",""0""
","""event"",""trial"",""time""
""fullscreenenter"",""1"",""7778""
","
",,,,,,,,,,,,"[{""stimulus"":""run_exp/static/images/task_images/dig.jpg"",""time"":0.5},{""stimulus"":""run_exp/static/images/task_images/land.jpg"",""time"":681.8999999910593},{""stimulus"":""run_exp/static/images/task_images/dig.jpg"",""time"":1340.2999999970198}]",[],5,,,,,,,,,,,,,,
harvest,135,516632,0.0-44.0-4.0,"""event"",""trial"",""time""
""blur"",""0"",""0""
""focus"",""0"",""0""
""blur"",""0"",""0""
""focus"",""0"",""0""
""fullscreenenter"",""1"",""7778""
","""event"",""trial"",""time""
""blur"",""0"",""0""
""blur"",""0"",""0""
","""event"",""trial"",""time""
""focus"",""0"",""0""
""focus"",""0"",""0""
","""event"",""trial"",""time""
""fullscreenenter"",""1"",""7778""
","
",,null,run_exp/static/images/task_images/gems/95.jpg,null,,,,,,,52,,,5,,,,,95,0.55033987,0.547368421,,,,,,,
decision,136,517040,0.0-44.0-5.0,"""event"",""trial"",""time""
""blur"",""0"",""0""
""focus"",""0"",""0""
""blur"",""0"",""0""
""focus"",""0"",""0""
""fullscreenenter"",""1"",""7778""
","""event"",""trial"",""time""
""blur"",""0"",""0""
""blur"",""0"",""0""
","""event"",""trial"",""time""
""focus"",""0"",""0""
""focus"",""0"",""0""
","""event"",""trial"",""time""
""fullscreenenter"",""1"",""7778""
","
",,403.7,run_exp/static/images/task_images/land.jpg,76,,,,,,,52,,,5,,,,,,,,127519,1,0,TRUE,,,
travel,137,526649,0.0-45.0-0.0,"""event"",""trial"",""time""
""blur"",""0"",""0""
""focus"",""0"",""0""
""blur"",""0"",""0""
""focus"",""0"",""0""
""fullscreenenter"",""1"",""7778""
","""event"",""trial"",""time""
""blur"",""0"",""0""
""blur"",""0"",""0""
","""event"",""trial"",""time""
""focus"",""0"",""0""
""focus"",""0"",""0""
","""event"",""trial"",""time""
""fullscreenenter"",""1"",""7778""
","
",,,,,,,,,,,,"[{""stimulus"":""run_exp/static/images/task_images/rocket-01.jpg"",""time"":0.10000000894069672},{""stimulus"":""run_exp/static/images/task_images/rocket-02.jpg"",""time"":1071.6000000089407},{""stimulus"":""run_exp/static/images/task_images/rocket-03.jpg"",""time"":2148.1000000089407},{""stimulus"":""run_exp/static/images/task_images/rocket-04.jpg"",""time"":3198.800000011921},{""stimulus"":""run_exp/static/images/task_images/rocket-05.jpg"",""time"":4275.70000000298},{""stimulus"":""run_exp/static/images/task_images/rocket-06.jpg"",""time"":5335.20000000298},{""stimulus"":""run_exp/static/images/task_images/rocket-07.jpg"",""time"":6411.4000000059605},{""stimulus"":""run_exp/static/images/task_images/rocket-08.jpg"",""time"":7470.100000008941},{""stimulus"":""run_exp/static/images/task_images/rocket-09.jpg"",""time"":8529.90000000596}]",[],5,,,,,,,,,,,,,,
alien_welcome,138,531660,0.0-45.0-1.0,"""event"",""trial"",""time""
""blur"",""0"",""0""
""focus"",""0"",""0""
""blur"",""0"",""0""
""focus"",""0"",""0""
""fullscreenenter"",""1"",""7778""
","""event"",""trial"",""time""
""blur"",""0"",""0""
""blur"",""0"",""0""
","""event"",""trial"",""time""
""focus"",""0"",""0""
""focus"",""0"",""0""
","""event"",""trial"",""time""
""fullscreenenter"",""1"",""7778""
","
",,null,run_exp/static/images/task_images/aliens/old_aliens/planet/alien_planet-29.jpg,null,,,,,,,,,,,,,29,"8,19,61,12,36,29,77,3,21,69,49,79,22,2,27,9,57,46,76,28,51,11,65,54,74,33,13,58,55,64,39,14,10,71,25,16,30,7,62,80,50,53,34,15,60,73,18,5,20",,,,,,,,,,
land,139,532173,0.0-45.0-2.0,"""event"",""trial"",""time""
""blur"",""0"",""0""
""focus"",""0"",""0""
""blur"",""0"",""0""
""focus"",""0"",""0""
""fullscreenenter"",""1"",""7778""
","""event"",""trial"",""time""
""blur"",""0"",""0""
""blur"",""0"",""0""
","""event"",""trial"",""time""
""focus"",""0"",""0""
""focus"",""0"",""0""
","""event"",""trial"",""time""
""fullscreenenter"",""1"",""7778""
","
",,null,run_exp/static/images/task_images/land.jpg,null,,,,,,,103,,,6,,,,,,,,,,,,,,
dig,140,534190,0.0-45.0-3.0,"""event"",""trial"",""time""
""blur"",""0"",""0""
""focus"",""0"",""0""
""blur"",""0"",""0""
""focus"",""0"",""0""
""fullscreenenter"",""1"",""7778""
","""event"",""trial"",""time""
""blur"",""0"",""0""
""blur"",""0"",""0""
","""event"",""trial"",""time""
""focus"",""0"",""0""
""focus"",""0"",""0""
","""event"",""trial"",""time""
""fullscreenenter"",""1"",""7778""
","
",,,,,,,,,,,,"[{""stimulus"":""run_exp/static/images/task_images/dig.jpg"",""time"":0.3999999910593033},{""stimulus"":""run_exp/static/images/task_images/land.jpg"",""time"":683.5},{""stimulus"":""run_exp/static/images/task_images/dig.jpg"",""time"":1341.8999999910593}]",[],6,,,,,,,,,,,,,,
harvest,141,535203,0.0-45.0-4.0,"""event"",""trial"",""time""
""blur"",""0"",""0""
""focus"",""0"",""0""
""blur"",""0"",""0""
""focus"",""0"",""0""
""fullscreenenter"",""1"",""7778""
","""event"",""trial"",""time""
""blur"",""0"",""0""
""blur"",""0"",""0""
","""event"",""trial"",""time""
""focus"",""0"",""0""
""focus"",""0"",""0""
","""event"",""trial"",""time""
""fullscreenenter"",""1"",""7778""
","
",,null,run_exp/static/images/task_images/gems/103.jpg,null,,,,,,,87,,,6,,,,,103,0.846006208,0.844660194,,,,,,,
decision,142,535584,0.0-45.0-5.0,"""event"",""trial"",""time""
""blur"",""0"",""0""
""focus"",""0"",""0""
""blur"",""0"",""0""
""focus"",""0"",""0""
""fullscreenenter"",""1"",""7778""
","""event"",""trial"",""time""
""blur"",""0"",""0""
""blur"",""0"",""0""
","""event"",""trial"",""time""
""focus"",""0"",""0""
""focus"",""0"",""0""
","""event"",""trial"",""time""
""fullscreenenter"",""1"",""7778""
","
",,376.9,run_exp/static/images/task_images/land.jpg,65,,,,,,,87,,,6,,,,,,,,146063,1,0,FALSE,,,
dig,143,538220,0.0-46.0-0.0,"""event"",""trial"",""time""
""blur"",""0"",""0""
""focus"",""0"",""0""
""blur"",""0"",""0""
""focus"",""0"",""0""
""fullscreenenter"",""1"",""7778""
","""event"",""trial"",""time""
""blur"",""0"",""0""
""blur"",""0"",""0""
","""event"",""trial"",""time""
""focus"",""0"",""0""
""focus"",""0"",""0""
","""event"",""trial"",""time""
""fullscreenenter"",""1"",""7778""
","
",,,,,,,,,,,,"[{""stimulus"":""run_exp/static/images/task_images/dig.jpg"",""time"":0},{""stimulus"":""run_exp/static/images/task_images/land.jpg"",""time"":874.7999999970198},{""stimulus"":""run_exp/static/images/task_images/dig.jpg"",""time"":1757.0999999940395}]",[],6,,,,,,,,,,,,,,
harvest,144,539238,0.0-46.0-1.0,"""event"",""trial"",""time""
""blur"",""0"",""0""
""focus"",""0"",""0""
""blur"",""0"",""0""
""focus"",""0"",""0""
""fullscreenenter"",""1"",""7778""
","""event"",""trial"",""time""
""blur"",""0"",""0""
""blur"",""0"",""0""
","""event"",""trial"",""time""
""focus"",""0"",""0""
""focus"",""0"",""0""
","""event"",""trial"",""time""
""fullscreenenter"",""1"",""7778""
","
",,null,run_exp/static/images/task_images/gems/87.jpg,null,,,,,,,69,,,6,,,,,87,0.793447042,0.793103448,,,,,,,
decision,145,539513,0.0-46.0-2.0,"""event"",""trial"",""time""
""blur"",""0"",""0""
""focus"",""0"",""0""
""blur"",""0"",""0""
""focus"",""0"",""0""
""fullscreenenter"",""1"",""7778""
","""event"",""trial"",""time""
""blur"",""0"",""0""
""blur"",""0"",""0""
","""event"",""trial"",""time""
""focus"",""0"",""0""
""focus"",""0"",""0""
","""event"",""trial"",""time""
""fullscreenenter"",""1"",""7778""
","
",,271.7,run_exp/static/images/task_images/land.jpg,76,,,,,,,69,,,6,,,,,,,,149992,1,1,TRUE,,,
travel,146,549251,0.0-47.0-0.0,"""event"",""trial"",""time""
""blur"",""0"",""0""
""focus"",""0"",""0""
""blur"",""0"",""0""
""focus"",""0"",""0""
""fullscreenenter"",""1"",""7778""
","""event"",""trial"",""time""
""blur"",""0"",""0""
""blur"",""0"",""0""
","""event"",""trial"",""time""
""focus"",""0"",""0""
""focus"",""0"",""0""
","""event"",""trial"",""time""
""fullscreenenter"",""1"",""7778""
","
",,,,,,,,,,,,"[{""stimulus"":""run_exp/static/images/task_images/rocket-01.jpg"",""time"":0.10000000894069672},{""stimulus"":""run_exp/static/images/task_images/rocket-02.jpg"",""time"":1095.7000000029802},{""stimulus"":""run_exp/static/images/task_images/rocket-03.jpg"",""time"":2171.6000000089407},{""stimulus"":""run_exp/static/images/task_images/rocket-04.jpg"",""time"":3248.300000011921},{""stimulus"":""run_exp/static/images/task_images/rocket-05.jpg"",""time"":4331.70000000298},{""stimulus"":""run_exp/static/images/task_images/rocket-06.jpg"",""time"":5411.300000011921},{""stimulus"":""run_exp/static/images/task_images/rocket-07.jpg"",""time"":6485.100000008941},{""stimulus"":""run_exp/static/images/task_images/rocket-08.jpg"",""time"":7564.100000008941},{""stimulus"":""run_exp/static/images/task_images/rocket-09.jpg"",""time"":8656.300000011921}]",[],6,,,,,,,,,,,,,,
alien_welcome,147,554264,0.0-47.0-1.0,"""event"",""trial"",""time""
""blur"",""0"",""0""
""focus"",""0"",""0""
""blur"",""0"",""0""
""focus"",""0"",""0""
""fullscreenenter"",""1"",""7778""
","""event"",""trial"",""time""
""blur"",""0"",""0""
""blur"",""0"",""0""
","""event"",""trial"",""time""
""focus"",""0"",""0""
""focus"",""0"",""0""
","""event"",""trial"",""time""
""fullscreenenter"",""1"",""7778""
","
",,null,run_exp/static/images/task_images/aliens/old_aliens/planet/alien_planet-77.jpg,null,,,,,,,,,,,,,77,"8,19,61,12,36,29,77,3,21,69,49,79,22,2,27,9,57,46,76,28,51,11,65,54,74,33,13,58,55,64,39,14,10,71,25,16,30,7,62,80,50,53,34,15,60,73,18,5,20",,,,,,,,,,
land,148,554777,0.0-47.0-2.0,"""event"",""trial"",""time""
""blur"",""0"",""0""
""focus"",""0"",""0""
""blur"",""0"",""0""
""focus"",""0"",""0""
""fullscreenenter"",""1"",""7778""
","""event"",""trial"",""time""
""blur"",""0"",""0""
""blur"",""0"",""0""
","""event"",""trial"",""time""
""focus"",""0"",""0""
""focus"",""0"",""0""
","""event"",""trial"",""time""
""fullscreenenter"",""1"",""7778""
","
",,null,run_exp/static/images/task_images/land.jpg,null,,,,,,,103,,,7,,,,,,,,,,,,,,
dig,149,556793,0.0-47.0-3.0,"""event"",""trial"",""time""
""blur"",""0"",""0""
""focus"",""0"",""0""
""blur"",""0"",""0""
""focus"",""0"",""0""
""fullscreenenter"",""1"",""7778""
","""event"",""trial"",""time""
""blur"",""0"",""0""
""blur"",""0"",""0""
","""event"",""trial"",""time""
""focus"",""0"",""0""
""focus"",""0"",""0""
","""event"",""trial"",""time""
""fullscreenenter"",""1"",""7778""
","
",,,,,,,,,,,,"[{""stimulus"":""run_exp/static/images/task_images/dig.jpg"",""time"":0.3999999910593033},{""stimulus"":""run_exp/static/images/task_images/land.jpg"",""time"":679.5},{""stimulus"":""run_exp/static/images/task_images/dig.jpg"",""time"":1346.5999999940395}]",[],7,,,,,,,,,,,,,,
harvest,150,557807,0.0-47.0-4.0,"""event"",""trial"",""time""
""blur"",""0"",""0""
""focus"",""0"",""0""
""blur"",""0"",""0""
""focus"",""0"",""0""
""fullscreenenter"",""1"",""7778""
","""event"",""trial"",""time""
""blur"",""0"",""0""
""blur"",""0"",""0""
","""event"",""trial"",""time""
""focus"",""0"",""0""
""focus"",""0"",""0""
","""event"",""trial"",""time""
""fullscreenenter"",""1"",""7778""
","
",,null,run_exp/static/images/task_images/gems/103.jpg,null,,,,,,,89,,,7,,,,,103,0.867269663,0.86407767,,,,,,,
decision,151,559204,0.0-47.0-5.0,"""event"",""trial"",""time""
""blur"",""0"",""0""
""focus"",""0"",""0""
""blur"",""0"",""0""
""focus"",""0"",""0""
""fullscreenenter"",""1"",""7778""
","""event"",""trial"",""time""
""blur"",""0"",""0""
""blur"",""0"",""0""
","""event"",""trial"",""time""
""focus"",""0"",""0""
""focus"",""0"",""0""
","""event"",""trial"",""time""
""fullscreenenter"",""1"",""7778""
","
",,1394.1,run_exp/static/images/task_images/land.jpg,65,,,,,,,89,,,7,,,,,,,,169683,1,0,FALSE,,,
dig,152,560816,0.0-48.0-0.0,"""event"",""trial"",""time""
""blur"",""0"",""0""
""focus"",""0"",""0""
""blur"",""0"",""0""
""focus"",""0"",""0""
""fullscreenenter"",""1"",""7778""
","""event"",""trial"",""time""
""blur"",""0"",""0""
""blur"",""0"",""0""
","""event"",""trial"",""time""
""focus"",""0"",""0""
""focus"",""0"",""0""
","""event"",""trial"",""time""
""fullscreenenter"",""1"",""7778""
","
