trial_type,trial_index,time_elapsed,internal_node_id,interactions,blur_events,focus_events,fullscreenenter_events,fullscreenexit_events,success,rt,stimulus,key_press,prompt,subject_id,participant_id,age,gender,button_pressed,next_reward,animation_sequence,responses,planet,curr_prac_trial,n_prac_rounds,alien,aliens,reward_received,decay_rate_actual,decay_rate_exp,time_in_block,block_num,prt,last_trial_on_planet,button_html,bonus,num_failures
pavlovia,0,3,0.0-0.0,"""event"",""trial"",""time""
""fullscreenenter"",""1"",""3808""
","
","
","""event"",""trial"",""time""
""fullscreenenter"",""1"",""3808""
","
",,,,,,,,,,,,,,,,,,,,,,,,,,,,
fullscreen,1,4806,0.0-1.0,"""event"",""trial"",""time""
""fullscreenenter"",""1"",""3808""
","
","
","""event"",""trial"",""time""
""fullscreenenter"",""1"",""3808""
","
",TRUE,,,,,,,,,,,,,,,,,,,,,,,,,,,
instruc_welcome,2,14560,0.0-2.0,"""event"",""trial"",""time""
""fullscreenenter"",""1"",""3808""
","
","
","""event"",""trial"",""time""
""fullscreenenter"",""1"",""3808""
","
",,null,run_exp/static/audio/clip_1_welcome.m4a,null,"<p>Howdy! In this experiment, you’ll be an explorer traveling through space to collect space treasure.</p><p>Your mission is to collect as much treasure as possible.</p><br><br><p><img src='run_exp/static/images/task_images/opening_img-01.jpg' height='300' width='auto'></p>",12487,5049,8.41,Female,,,,,,,,,,,,,,,,,,,
audio-keyboard-response,3,31139,0.0-3.0,"""event"",""trial"",""time""
""fullscreenenter"",""1"",""3808""
","
","
","""event"",""trial"",""time""
""fullscreenenter"",""1"",""3808""
","
",,null,run_exp/static/audio/clip_2_move.m4a,null,,,,,,,,,,,,,,,,,,,,,,,,
welcome_dec,4,43735,0.0-4.0,"""event"",""trial"",""time""
""fullscreenenter"",""1"",""3808""
","
","
","""event"",""trial"",""time""
""fullscreenenter"",""1"",""3808""
","
",,12591.4,"<p>Howdy! In this experiment, you’ll be an explorer traveling through space to collect space treasure.</p><p>Your mission is to collect as much treasure as possible.</p><br><br><p><img src='run_exp/static/images/task_images/opening_img-01.jpg' height='300' width='auto'></p>",,,,,,,1,,,,,,,,,,,,,,,,,,
html-keyboard-response,5,48866,0.0-5.0,"""event"",""trial"",""time""
""fullscreenenter"",""1"",""3808""
","
","
","""event"",""trial"",""time""
""fullscreenenter"",""1"",""3808""
","
",,5127.2,"<p>Howdy! In this experiment, you’ll be an explorer traveling through space to collect space treasure.</p><p>Your mission is to collect as much treasure as possible.</p><br><br><p><img src='run_exp/static/images/task_images/opening_img-01.jpg' height='300' width='auto'></p><button class=""jspsych-html-btn-unchosen""><img src=""run_exp/static/images/task_images/planet-01.jpg"" height=""50""></button><button class=""jspsych-html-btn-chosen""><img src=""run_exp/static/images/task_images/planet-02.jpg"" height=""50""></button><p><b>[press the space bar to lock in your answer]<b><br></p>",32,,,,,,,,,,,,,,,,,,,,,,,,
instruc_goal,6,59182,0.0-6.0-0.0,"""event"",""trial"",""time""
""fullscreenenter"",""1"",""3808""
","
","
","""event"",""trial"",""time""
""fullscreenenter"",""1"",""3808""
","
",,null,run_exp/static/audio/clip_3_goal.m4a,null,"<p> As a space explorer, you’ll visit different planets to dig for space treasure, these pink gems.</p> <p> The more treasure you dig up, the more bonus money you’ll win! </p><br><br><p><img src='run_exp/static/images/task_images/pink_gem.jpg' height='300' width='auto'></p>",,,,,,,,,,,,,,,,,,,,,,,
instruc_goal,7,64433,0.0-6.0-1.0,"""event"",""trial"",""time""
""fullscreenenter"",""1"",""3808""
","
","
","""event"",""trial"",""time""
""fullscreenenter"",""1"",""3808""
","
",,5246.2,"<p> As a space explorer, you’ll visit different planets to dig for space treasure, these pink gems.</p> <p> The more treasure you dig up, the more bonus money you’ll win! </p><br><br><p><img src='run_exp/static/images/task_images/pink_gem.jpg' height='300' width='auto'></p>",,,,,,,1,,,,,,,,,,,,,,,,,,
html-keyboard-response,8,67211,0.0-6.0-2.0,"""event"",""trial"",""time""
""fullscreenenter"",""1"",""3808""
","
","
","""event"",""trial"",""time""
""fullscreenenter"",""1"",""3808""
","
",,2774.5,"<p> As a space explorer, you’ll visit different planets to dig for space treasure, these pink gems.</p> <p> The more treasure you dig up, the more bonus money you’ll win! </p><br><br><p><img src='run_exp/static/images/task_images/pink_gem.jpg' height='300' width='auto'></p><button class=""jspsych-html-btn-unchosen""><img src=""run_exp/static/images/task_images/planet-01.jpg"" height=""50""></button><button class=""jspsych-html-btn-chosen""><img src=""run_exp/static/images/task_images/planet-02.jpg"" height=""50""></button><p><b>[press the space bar to lock in your answer]<b><br></p>",32,,,,,,,,,,,,,,,,,,,,,,,,
instruc_dig,9,83223,0.0-7.0-0.0,"""event"",""trial"",""time""
""fullscreenenter"",""1"",""3808""
","
","
","""event"",""trial"",""time""
""fullscreenenter"",""1"",""3808""
","
",,null,run_exp/static/audio/clip_4_dig.m4a,null,,,,,,,100,,,,,,,,,,,,,,,,,
instruc_dig_try,10,83910,0.0-7.0-1.0,"""event"",""trial"",""time""
""fullscreenenter"",""1"",""3808""
","
","
","""event"",""trial"",""time""
""fullscreenenter"",""1"",""3808""
","
",,683.8,"<p> When you’ve arrived at a new planet, you will dig once. </p> <p>Then, you get to decide if you want to stay on the planet and dig again or travel to a new planet and dig there.</p> <p> To stay and dig, press the letter <strong>‘A’</strong> on your keyboard. Try pressing it now! </p><p><img src='run_exp/static/images/task_images/land.jpg'  height='700' width='auto'></p>",65,"<p> When you’ve arrived at a new planet, you will dig once. </p> <p>Then, you get to decide if you want to stay on the planet and dig again or travel to a new planet and dig there.</p> <p> To stay and dig, press the letter <strong>‘A’</strong> on your keyboard. Try pressing it now! </p><p><img src='run_exp/static/images/task_images/land.jpg'  height='700' width='auto'></p>",,,,,,100,,,,,,,,,,,,,,,,,
dig_prac,11,85938,0.0-7.0-2.0,"""event"",""trial"",""time""
""fullscreenenter"",""1"",""3808""
","
","
","""event"",""trial"",""time""
""fullscreenenter"",""1"",""3808""
","
",,,,,,,,,,,,"[{""stimulus"":""run_exp/static/images/task_images/dig.jpg"",""time"":0.7000000000698492},{""stimulus"":""run_exp/static/images/task_images/land.jpg"",""time"":678.8000000000466},{""stimulus"":""run_exp/static/images/task_images/dig.jpg"",""time"":1351}]",[],,,,,,,,,,,,,,,
instruc_travel,12,122203,0.0-7.0-3.0,"""event"",""trial"",""time""
""fullscreenenter"",""1"",""3808""
","
","
","""event"",""trial"",""time""
""fullscreenenter"",""1"",""3808""
","
",,null,run_exp/static/audio/clip_5_travel.m4a,null,"<p>Every time you dig up gems, there are less gems on the planet, so the more you dig on a planet the fewer gems you’ll get with each dig.</p><p>When gems are running low, you may want to travel to a new planet. </p> <p>  Planets are very far apart in this galaxy, so it will take some time to travel between them. </p> <br><p>There are lots and lots of planets for you to visit, so you won’t be able to return to any planets you’ve seen before. </p><br><p>To leave this planet and travel to a new one, press the letter <strong>‘L’</strong> on your keyboard. Try pressing it now! </p><p><img src='run_exp/static/images/task_images/rocket-01.jpg'  height='600' width='auto'></p>",,,,,,,,,,,,,,,,,,,,,,,
instruc_travel_try,13,127389,0.0-7.0-4.0,"""event"",""trial"",""time""
""fullscreenenter"",""1"",""3808""
","
","
","""event"",""trial"",""time""
""fullscreenenter"",""1"",""3808""
","
",,5183.5,"<p>Every time you dig up gems, there are less gems on the planet, so the more you dig on a planet the fewer gems you’ll get with each dig.</p><p>When gems are running low, you may want to travel to a new planet. </p> <p>  Planets are very far apart in this galaxy, so it will take some time to travel between them. </p> <br><p>There are lots and lots of planets for you to visit, so you won’t be able to return to any planets you’ve seen before. </p><br><p>To leave this planet and travel to a new one, press the letter <strong>‘L’</strong> on your keyboard. Try pressing it now! </p><p><img src='run_exp/static/images/task_images/rocket-01.jpg'  height='600' width='auto'></p>",76,"<p>Every time you dig up gems, there are less gems on the planet, so the more you dig on a planet the fewer gems you’ll get with each dig.</p><p>When gems are running low, you may want to travel to a new planet. </p> <p>  Planets are very far apart in this galaxy, so it will take some time to travel between them. </p> <br><p>There are lots and lots of planets for you to visit, so you won’t be able to return to any planets you’ve seen before. </p><br><p>To leave this planet and travel to a new one, press the letter <strong>‘L’</strong> on your keyboard. Try pressing it now! </p><p><img src='run_exp/static/images/task_images/rocket-01.jpg'  height='600' width='auto'></p>",,,,,,,,,,,,,,,,,,,,,,,
travel_prac,14,137405,0.0-7.0-5.0,"""event"",""trial"",""time""
""fullscreenenter"",""1"",""3808""
","
","
","""event"",""trial"",""time""
""fullscreenenter"",""1"",""3808""
","
",,,,,,,,,,,,"[{""stimulus"":""run_exp/static/images/task_images/rocket-01.jpg"",""time"":0.5},{""stimulus"":""run_exp/static/images/task_images/rocket-02.jpg"",""time"":1120.5999999999767},{""stimulus"":""run_exp/static/images/task_images/rocket-03.jpg"",""time"":2226},{""stimulus"":""run_exp/static/images/task_images/rocket-04.jpg"",""time"":3344.79999999993},{""stimulus"":""run_exp/static/images/task_images/rocket-05.jpg"",""time"":4458},{""stimulus"":""run_exp/static/images/task_images/rocket-06.jpg"",""time"":5569.699999999953},{""stimulus"":""run_exp/static/images/task_images/rocket-07.jpg"",""time"":6675.599999999977},{""stimulus"":""run_exp/static/images/task_images/rocket-08.jpg"",""time"":7790.5},{""stimulus"":""run_exp/static/images/task_images/rocket-09.jpg"",""time"":8898.199999999953}]",[],0,,,,,,,,,,,,,,
instruc_alien_greet,15,164663,0.0-7.0-6.0,"""event"",""trial"",""time""
""fullscreenenter"",""1"",""3808""
","
","
","""event"",""trial"",""time""
""fullscreenenter"",""1"",""3808""
","
",,null,run_exp/static/audio/clip_6_alien.m4a,null,"<p>When you arrive at a new planet, the alien who owns the treasure mine on that planet will greet you!</p><p>The better an alien takes care of their mine the easier it is to dig for gems. Some aliens take better care of their mine than others. So, you won’t get exactly the same amount of gems on each planet.</p><p>What the alien looks like does not tell you anything about how many gems there are on the planet.</p><br><p><img src=""run_exp/static/images/task_images/aliens/instructions_aliens/planet/alien_planet-1.jpg""  height=""600"" width=""auto""></p>",,,,,,,,,,,,,,,,,,,,,,,
instruc_alien_greet,16,181486,0.0-7.0-7.0,"""event"",""trial"",""time""
""fullscreenenter"",""1"",""3808""
","
","
","""event"",""trial"",""time""
""fullscreenenter"",""1"",""3808""
","
",,16819.3,"<p>When you arrive at a new planet, the alien who owns the treasure mine on that planet will greet you!</p><p>The better an alien takes care of their mine the easier it is to dig for gems. Some aliens take better care of their mine than others. So, you won’t get exactly the same amount of gems on each planet.</p><p>What the alien looks like does not tell you anything about how many gems there are on the planet.</p><br><p><img src=""run_exp/static/images/task_images/aliens/instructions_aliens/planet/alien_planet-1.jpg""  height=""600"" width=""auto""></p>",,,,,,,1,,,,,,,,,,,,,,,,,,
html-keyboard-response,17,196190,0.0-7.0-8.0,"""event"",""trial"",""time""
""fullscreenenter"",""1"",""3808""
","
","
","""event"",""trial"",""time""
""fullscreenenter"",""1"",""3808""
","
",,14701.1,"<p>When you arrive at a new planet, the alien who owns the treasure mine on that planet will greet you!</p><p>The better an alien takes care of their mine the easier it is to dig for gems. Some aliens take better care of their mine than others. So, you won’t get exactly the same amount of gems on each planet.</p><p>What the alien looks like does not tell you anything about how many gems there are on the planet.</p><br><p><img src=""run_exp/static/images/task_images/aliens/instructions_aliens/planet/alien_planet-1.jpg""  height=""600"" width=""auto""></p><button class=""jspsych-html-btn-unchosen""><img src=""run_exp/static/images/task_images/planet-01.jpg"" height=""50""></button><button class=""jspsych-html-btn-chosen""><img src=""run_exp/static/images/task_images/planet-02.jpg"" height=""50""></button><p><b>[press the space bar to lock in your answer]<b><br></p>",32,,,,,,,,,,,,,,,,,,,,,,,,
time_out,18,207762,0.0-8.0-0.0,"""event"",""trial"",""time""
""fullscreenenter"",""1"",""3808""
","
","
","""event"",""trial"",""time""
""fullscreenenter"",""1"",""3808""
","
",,null,run_exp/static/audio/clip_7_timeout.m4a,null,"<p>If you don't make your choice fast enough, you’ll have to wait a few seconds before you can make another one.</p><p>You can’t dig for more gems or travel to new planets. You just have to sit and wait.</p><br><p><img src='run_exp/static/images/task_images/time_out.jpg'  height='600' width='auto'></p>",,,,,,,,,,,,,,,,,,,,,,,
time_out,19,214873,0.0-8.0-1.0,"""event"",""trial"",""time""
""fullscreenenter"",""1"",""3808""
","
","
","""event"",""trial"",""time""
""fullscreenenter"",""1"",""3808""
","
",,7108,"<p>If you don't make your choice fast enough, you’ll have to wait a few seconds before you can make another one.</p><p>You can’t dig for more gems or travel to new planets. You just have to sit and wait.</p><br><p><img src='run_exp/static/images/task_images/time_out.jpg'  height='600' width='auto'></p>",,,,,,,1,,,,,,,,,,,,,,,,,,
html-keyboard-response,20,218510,0.0-8.0-2.0,"""event"",""trial"",""time""
""fullscreenenter"",""1"",""3808""
","
","
","""event"",""trial"",""time""
""fullscreenenter"",""1"",""3808""
","
",,3634.1,"<p>If you don't make your choice fast enough, you’ll have to wait a few seconds before you can make another one.</p><p>You can’t dig for more gems or travel to new planets. You just have to sit and wait.</p><br><p><img src='run_exp/static/images/task_images/time_out.jpg'  height='600' width='auto'></p><button class=""jspsych-html-btn-unchosen""><img src=""run_exp/static/images/task_images/planet-01.jpg"" height=""50""></button><button class=""jspsych-html-btn-chosen""><img src=""run_exp/static/images/task_images/planet-02.jpg"" height=""50""></button><p><b>[press the space bar to lock in your answer]<b><br></p>",32,,,,,,,,,,,,,,,,,,,,,,,,
instruc_break,21,234144,0.0-9.0-0.0,"""event"",""trial"",""time""
""fullscreenenter"",""1"",""3808""
","
","
","""event"",""trial"",""time""
""fullscreenenter"",""1"",""3808""
","
",,null,run_exp/static/audio/clip_8_break.m4a,null,"<p> After digging and traveling for a while, you’ll be able to take a break at home base. </p><p>The game will last 20 minutes no matter what.</p><p>You will visit home base every 5 minutes, so, you will visit home base three times during the game.</p><br><p><img src='run_exp/static/images/task_images/home_base.jpg' height='600' width='auto'></p>",,,,,,,,,,,,,,,,,,,,,,,
instruc_break,22,245888,0.0-9.0-1.0,"""event"",""trial"",""time""
""fullscreenenter"",""1"",""3808""
","
","
","""event"",""trial"",""time""
""fullscreenenter"",""1"",""3808""
","
",,11740,"<p> After digging and traveling for a while, you’ll be able to take a break at home base. </p><p>The game will last 20 minutes no matter what.</p><p>You will visit home base every 5 minutes, so, you will visit home base three times during the game.</p><br><p><img src='run_exp/static/images/task_images/home_base.jpg' height='600' width='auto'></p>",,,,,,,1,,,,,,,,,,,,,,,,,,
html-keyboard-response,23,247529,0.0-9.0-2.0,"""event"",""trial"",""time""
""fullscreenenter"",""1"",""3808""
","
","
","""event"",""trial"",""time""
""fullscreenenter"",""1"",""3808""
","
",,1636.7,"<p> After digging and traveling for a while, you’ll be able to take a break at home base. </p><p>The game will last 20 minutes no matter what.</p><p>You will visit home base every 5 minutes, so, you will visit home base three times during the game.</p><br><p><img src='run_exp/static/images/task_images/home_base.jpg' height='600' width='auto'></p><button class=""jspsych-html-btn-unchosen""><img src=""run_exp/static/images/task_images/planet-01.jpg"" height=""50""></button><button class=""jspsych-html-btn-chosen""><img src=""run_exp/static/images/task_images/planet-02.jpg"" height=""50""></button><p><b>[press the space bar to lock in your answer]<b><br></p>",32,,,,,,,,,,,,,,,,,,,,,,,,
instruc_prac_game,24,257621,0.0-10.0-0.0,"""event"",""trial"",""time""
""fullscreenenter"",""1"",""3808""
","
","
","""event"",""trial"",""time""
""fullscreenenter"",""1"",""3808""
","
",,null,run_exp/static/audio/clip_9_practice.m4a,null,"<p> Are you ready to play a practice game? </p> <p>In this practice game, you'll be digging up barrels of gems. But, in the real game, you'll be digging up the gems themselves. </p>",,,,,,,,,,,,,,,,,,,,,,,
html-button-response,25,265764,0.0-10.0-1.0,"""event"",""trial"",""time""
""fullscreenenter"",""1"",""3808""
","
","
","""event"",""trial"",""time""
""fullscreenenter"",""1"",""3808""
","
",,8141,"<p> Are you ready to play a practice game? </p> <p>In this practice game, you'll be digging up barrels of gems. But, in the real game, you'll be digging up the gems themselves. </p>",,,,,,,0,,,,,,,,,,,,,,,,,,
alien_welcome_prac,26,270782,0.0-11.0-0.0,"""event"",""trial"",""time""
""fullscreenenter"",""1"",""3808""
","
","
","""event"",""trial"",""time""
""fullscreenenter"",""1"",""3808""
","
",,null,run_exp/static/images/task_images/aliens/practice_aliens/planet/alien_planet-5.jpg,null,,,,,,,,,,,,,,,,,,,,,,,,
land_prac,27,271298,0.0-11.0-1.0,"""event"",""trial"",""time""
""fullscreenenter"",""1"",""3808""
","
","
","""event"",""trial"",""time""
""fullscreenenter"",""1"",""3808""
","
",,null,run_exp/static/images/task_images/land.jpg,null,,,,,,,96,,,0,,,,,,,,,,,,,,
dig_prac,28,273307,0.0-11.0-2.0,"""event"",""trial"",""time""
""fullscreenenter"",""1"",""3808""
","
","
","""event"",""trial"",""time""
""fullscreenenter"",""1"",""3808""
","
",,,,,,,,,,,,"[{""stimulus"":""run_exp/static/images/task_images/dig.jpg"",""time"":0.40000000002328306},{""stimulus"":""run_exp/static/images/task_images/land.jpg"",""time"":672.1999999999534},{""stimulus"":""run_exp/static/images/task_images/dig.jpg"",""time"":1344.3000000000466}]",[],,,,,,,,,,,,,,,
harvest_prac,29,274311,0.0-11.0-3.0,"""event"",""trial"",""time""
""fullscreenenter"",""1"",""3808""
","
","
","""event"",""trial"",""time""
""fullscreenenter"",""1"",""3808""
","
",,null,run_exp/static/images/task_images/barrel_text.jpg,null,,,,,,,,,,,,,,,,,,,,,,,,
decision_prac,30,277315,0.0-11.0-4.0,"""event"",""trial"",""time""
""fullscreenenter"",""1"",""3808""
","
","
","""event"",""trial"",""time""
""fullscreenenter"",""1"",""3808""
","
",,null,run_exp/static/images/task_images/land.jpg,null,,,,,,,,,,,1,,,,,,,,,,,,,
time_out,31,279321,0.0-12.0-0.0,"""event"",""trial"",""time""
""fullscreenenter"",""1"",""3808""
","
","
","""event"",""trial"",""time""
""fullscreenenter"",""1"",""3808""
","
",,null,run_exp/static/images/task_images/time_out.jpg,null,,,,,,,,,,,,,,,,,,,,,,,,
decision_prac,32,282333,0.0-12.0-1.0,"""event"",""trial"",""time""
""fullscreenenter"",""1"",""3808""
","
","
","""event"",""trial"",""time""
""fullscreenenter"",""1"",""3808""
","
",,null,run_exp/static/images/task_images/land.jpg,null,,,,,,,,,,,2,,,,,,,,,,,,,
time_out,33,284354,0.0-13.0-0.0,"""event"",""trial"",""time""
""fullscreenenter"",""1"",""3808""
","
","
","""event"",""trial"",""time""
""fullscreenenter"",""1"",""3808""
","
",,null,run_exp/static/images/task_images/time_out.jpg,null,,,,,,,,,,,,,,,,,,,,,,,,
decision_prac,34,287371,0.0-13.0-1.0,"""event"",""trial"",""time""
""fullscreenenter"",""1"",""3808""
","
","
","""event"",""trial"",""time""
""fullscreenenter"",""1"",""3808""
","
",,null,run_exp/static/images/task_images/land.jpg,null,,,,,,,,,,,3,,,,,,,,,,,,,
time_out,35,289383,0.0-14.0-0.0,"""event"",""trial"",""time""
""fullscreenenter"",""1"",""3808""
","
","
","""event"",""trial"",""time""
""fullscreenenter"",""1"",""3808""
","
",,null,run_exp/static/images/task_images/time_out.jpg,null,,,,,,,,,,,,,,,,,,,,,,,,
decision_prac,36,292397,0.0-14.0-1.0,"""event"",""trial"",""time""
""fullscreenenter"",""1"",""3808""
","
","
","""event"",""trial"",""time""
""fullscreenenter"",""1"",""3808""
","
",,null,run_exp/static/images/task_images/land.jpg,null,,,,,,,,,,,4,,,,,,,,,,,,,
time_out,37,294415,0.0-15.0-0.0,"""event"",""trial"",""time""
""fullscreenenter"",""1"",""3808""
","
","
","""event"",""trial"",""time""
""fullscreenenter"",""1"",""3808""
","
",,null,run_exp/static/images/task_images/time_out.jpg,null,,,,,,,,,,,,,,,,,,,,,,,,
decision_prac,38,297418,0.0-15.0-1.0,"""event"",""trial"",""time""
""fullscreenenter"",""1"",""3808""
","
","
","""event"",""trial"",""time""
""fullscreenenter"",""1"",""3808""
","
",,null,run_exp/static/images/task_images/land.jpg,null,,,,,,,,,,,,1,,,,,,,,,,,,
quiz_instruc,39,309511,0.0-16.0-0.0,"""event"",""trial"",""time""
""fullscreenenter"",""1"",""3808""
","
","
","""event"",""trial"",""time""
""fullscreenenter"",""1"",""3808""
","
",,12087,run_exp/static/audio/clip_10_quiz.m4a,,,,,,,0,,,,,,,,,,,,,,,,,,
instruc_repeat,40,352267,0.0-16.0-1.0,"""event"",""trial"",""time""
""fullscreenenter"",""1"",""3808""
","
","
","""event"",""trial"",""time""
""fullscreenenter"",""1"",""3808""
","
",,null,"<p> Are you ready to play a practice game? </p> <p>In this practice game, you'll be digging up barrels of gems. But, in the real game, you'll be digging up the gems themselves. </p>",null,"<p>In this game, your goal is to collect as many gems as you can. That’s how you will win bonus money. </p> <p>The entire game will last 20 minutes no matter how many gems you collect or how many planets you visit. </p><p>To stay on a planet and dig again, press the letter A on your keyboard. To leave for a new planet, press the letter L.</p><p>The more you dig on a planet, the fewer gems you’ll get with each dig which is why you might consider leaving for a new planet. </p><p>When you arrive at a new planet, you’ll be greeted by an alien. What the alien looks like does not tell you anything about how much treasure is on the planet. </p>",,,,,,,,,,,,,,,,,,,,,,,
instruc_repeat_continue,41,354665,0.0-16.0-2.0,"""event"",""trial"",""time""
""fullscreenenter"",""1"",""3808""
","
","
","""event"",""trial"",""time""
""fullscreenenter"",""1"",""3808""
","
",,2396.1,"<p> Are you ready to play a practice game? </p> <p>In this practice game, you'll be digging up barrels of gems. But, in the real game, you'll be digging up the gems themselves. </p>",,,,,,,0,,,,,,,,,,,,,,,,,,
quiz_q_1_ask,42,366035,0.0-16.0-3.0,"""event"",""trial"",""time""
""fullscreenenter"",""1"",""3808""
","
","
","""event"",""trial"",""time""
""fullscreenenter"",""1"",""3808""
","
",,11367.2,run_exp/static/audio/clip_11_q1_ask.m4a,,,,,,,0,,,,,,,,,,,,,,,,,,
quiz_q_1_fb_incorrect,43,369507,0.0-17.0-0.0,"""event"",""trial"",""time""
""fullscreenenter"",""1"",""3808""
","
","
","""event"",""trial"",""time""
""fullscreenenter"",""1"",""3808""
","
",,null,run_exp/static/audio/clip_13_q1_incorrect.m4a,null,<p>That’s incorrect. You win extra money by collecting more gems.</p>,,,,,,,,,,,,,,,,,,,,,,,
quiz_q_2_ask,44,382241,0.0-17.0-1.0,"""event"",""trial"",""time""
""fullscreenenter"",""1"",""3808""
","
","
","""event"",""trial"",""time""
""fullscreenenter"",""1"",""3808""
","
",,12732.6,run_exp/static/audio/clip_14_q2_ask.m4a,,,,,,,1,,,,,,,,,,,,,,,,,,
quiz_q_2_fb_correct,45,386266,0.0-18.0-0.0,"""event"",""trial"",""time""
""fullscreenenter"",""1"",""3808""
","
","
","""event"",""trial"",""time""
""fullscreenenter"",""1"",""3808""
","
",,null,run_exp/static/audio/clip_15_q2_correct.m4a,null,<p>That’s correct. The experiment is 20 minutes no matter what.</p>,,,,,,,,,,,,,,,,,,,,,,,
quiz_q_3_ask,46,391383,0.0-18.0-1.0,"""event"",""trial"",""time""
""fullscreenenter"",""1"",""3808""
","
","
","""event"",""trial"",""time""
""fullscreenenter"",""1"",""3808""
","
",,5114.4,run_exp/static/audio/clip_17_q3_ask.m4a,,,,,,,1,,,,,,,,,,,,,,,,,,
quiz_q_3_fb_correct,47,395367,0.0-19.0-0.0,"""event"",""trial"",""time""
""fullscreenenter"",""1"",""3808""
","
","
","""event"",""trial"",""time""
""fullscreenenter"",""1"",""3808""
","
",,null,run_exp/static/audio/clip_18_q3_correct.m4a,null,<p> That’s correct. You press the letter L to travel to a new planet.</p>,,,,,,,,,,,,,,,,,,,,,,,
quiz_q_4_ask,48,404382,0.0-19.0-1.0,"""event"",""trial"",""time""
""fullscreenenter"",""1"",""3808""
","
","
","""event"",""trial"",""time""
""fullscreenenter"",""1"",""3808""
","
",,9012.9,run_exp/static/audio/clip_20_q4_ask.m4a,,,,,,,0,,,,,,,,,,,,,,,,,,
quiz_q_4_fb_correct,49,409726,0.0-20.0-0.0,"""event"",""trial"",""time""
""fullscreenenter"",""1"",""3808""
","
","
","""event"",""trial"",""time""
""fullscreenenter"",""1"",""3808""
","
",,null,run_exp/static/audio/clip_21_q4_correct.m4a,null,<p> That’s correct. The more you dig on a planet the fewer gems you’ll get with each dig. </p>,,,,,,,,,,,,,,,,,,,,,,,
quiz_q_5_ask,50,419509,0.0-20.0-1.0,"""event"",""trial"",""time""
""fullscreenenter"",""1"",""3808""
","
","
","""event"",""trial"",""time""
""fullscreenenter"",""1"",""3808""
","
",,9780,run_exp/static/audio/clip_23_q5_ask.m4a,,,,,,,1,,,,,,,,,,,,,,,,,,
quiz_q_5_fb_correct,51,424526,0.0-21.0-0.0,"""event"",""trial"",""time""
""fullscreenenter"",""1"",""3808""
","
","
","""event"",""trial"",""time""
""fullscreenenter"",""1"",""3808""
","
",,null,run_exp/static/audio/clip_24_q5_correct.m4a,null,<p> That’s correct. The alien tells you nothing about how much treasure is on the planet.</p>,,,,,,,,,,,,,,,,,,,,,,,
quiz_incorrect,52,430065,0.0-22.0-0.0,"""event"",""trial"",""time""
""fullscreenenter"",""1"",""3808""
","
","
","""event"",""trial"",""time""
""fullscreenenter"",""1"",""3808""
","
",,null,run_exp/static/audio/clip_27_incorrect_quiz.m4a,null,,,,,,,,,,,,,,,,,,,,,,,,
quiz_incorrect_continue,53,434301,0.0-22.0-1.0,"""event"",""trial"",""time""
""fullscreenenter"",""1"",""3808""
","
","
","""event"",""trial"",""time""
""fullscreenenter"",""1"",""3808""
","
",,4235.6,"<p>Oops, you missed some questions.</p><p>Now that you’ve heard the correct answers. Try the quiz again!</p>",,,,,,,0,,,,,,,,,,,,,,,,,,
quiz_q_1_ask,54,445984,0.0-22.0-2.0,"""event"",""trial"",""time""
""fullscreenenter"",""1"",""3808""
","
","
","""event"",""trial"",""time""
""fullscreenenter"",""1"",""3808""
","
",,11679.3,run_exp/static/audio/clip_11_q1_ask.m4a,,,,,,,2,,,,,,,,,,,,,,,,,,
quiz_q_1_fb_correct,55,449826,0.0-23.0-0.0,"""event"",""trial"",""time""
""fullscreenenter"",""1"",""3808""
","
","
","""event"",""trial"",""time""
""fullscreenenter"",""1"",""3808""
","
",,null,run_exp/static/audio/clip_12_q1_correct.m4a,null,<p>That’s correct. You win extra money by collecting more gems.</p>,,,,,,,,,,,,,,,,,,,,,,,
quiz_q_2_ask,56,462562,0.0-23.0-1.0,"""event"",""trial"",""time""
""fullscreenenter"",""1"",""3808""
","
","
","""event"",""trial"",""time""
""fullscreenenter"",""1"",""3808""
","
",,12734.2,run_exp/static/audio/clip_14_q2_ask.m4a,,,,,,,1,,,,,,,,,,,,,,,,,,
quiz_q_2_fb_correct,57,466566,0.0-24.0-0.0,"""event"",""trial"",""time""
""fullscreenenter"",""1"",""3808""
","
","
","""event"",""trial"",""time""
""fullscreenenter"",""1"",""3808""
","
",,null,run_exp/static/audio/clip_15_q2_correct.m4a,null,<p>That’s correct. The experiment is 20 minutes no matter what.</p>,,,,,,,,,,,,,,,,,,,,,,,
quiz_q_3_ask,58,471935,0.0-24.0-1.0,"""event"",""trial"",""time""
""fullscreenenter"",""1"",""3808""
","
","
","""event"",""trial"",""time""
""fullscreenenter"",""1"",""3808""
","
",,5367.7,run_exp/static/audio/clip_17_q3_ask.m4a,,,,,,,1,,,,,,,,,,,,,,,,,,
quiz_q_3_fb_correct,59,475926,0.0-25.0-0.0,"""event"",""trial"",""time""
""fullscreenenter"",""1"",""3808""
","
","
","""event"",""trial"",""time""
""fullscreenenter"",""1"",""3808""
","
",,null,run_exp/static/audio/clip_18_q3_correct.m4a,null,<p> That’s correct. You press the letter L to travel to a new planet.</p>,,,,,,,,,,,,,,,,,,,,,,,
quiz_q_4_ask,60,485383,0.0-25.0-1.0,"""event"",""trial"",""time""
""fullscreenenter"",""1"",""3808""
","
","
","""event"",""trial"",""time""
""fullscreenenter"",""1"",""3808""
","
",,9455,run_exp/static/audio/clip_20_q4_ask.m4a,,,,,,,0,,,,,,,,,,,,,,,,,,
quiz_q_4_fb_correct,61,490726,0.0-26.0-0.0,"""event"",""trial"",""time""
""fullscreenenter"",""1"",""3808""
","
","
","""event"",""trial"",""time""
""fullscreenenter"",""1"",""3808""
","
",,null,run_exp/static/audio/clip_21_q4_correct.m4a,null,<p> That’s correct. The more you dig on a planet the fewer gems you’ll get with each dig. </p>,,,,,,,,,,,,,,,,,,,,,,,
quiz_q_5_ask,62,501275,0.0-26.0-1.0,"""event"",""trial"",""time""
""fullscreenenter"",""1"",""3808""
","
","
","""event"",""trial"",""time""
""fullscreenenter"",""1"",""3808""
","
",,10546.7,run_exp/static/audio/clip_23_q5_ask.m4a,,,,,,,1,,,,,,,,,,,,,,,,,,
quiz_q_5_fb_correct,63,506284,0.0-27.0-0.0,"""event"",""trial"",""time""
""fullscreenenter"",""1"",""3808""
","
","
","""event"",""trial"",""time""
""fullscreenenter"",""1"",""3808""
","
",,null,run_exp/static/audio/clip_24_q5_correct.m4a,null,<p> That’s correct. The alien tells you nothing about how much treasure is on the planet.</p>,,,,,,,,,,,,,,,,,,,,,,,
quiz_correct,64,509746,0.0-28.0-0.0,"""event"",""trial"",""time""
""fullscreenenter"",""1"",""3808""
","
","
","""event"",""trial"",""time""
""fullscreenenter"",""1"",""3808""
","
",,null,run_exp/static/audio/clip_26_correct_quiz.m4a,null,,,,,,,,,,,,,,,,,,,,,,,,
quiz_correct_continue,65,512570,0.0-28.0-1.0,"""event"",""trial"",""time""
""fullscreenenter"",""1"",""3808""
","
","
","""event"",""trial"",""time""
""fullscreenenter"",""1"",""3808""
","
",,2822,<p>Good job! You're now ready to move on to the real game!</p>,,,,,,,0,,,,,,,,,,,,,,,,,,
audio-keyboard-response,66,522706,0.0-28.0-2.0,"""event"",""trial"",""time""
""fullscreenenter"",""1"",""3808""
","
","
","""event"",""trial"",""time""
""fullscreenenter"",""1"",""3808""
","
",,null,run_exp/static/audio/clip_28_real_game.m4a,null,,,,,,,,,,,,,,,,,,,,,,,,
instruc_begin_exp_contine,67,526195,0.0-28.0-3.0,"""event"",""trial"",""time""
""fullscreenenter"",""1"",""3808""
","
","
","""event"",""trial"",""time""
""fullscreenenter"",""1"",""3808""
","
",,3486.5,"<p>Now that you know how  to dig for space treasure and travel to new planets,you can start exploring! </p><p>Do you want to go over the instructions again or get started with the real game?</p>",,,,,,,1,,,,,,1,,,,,,,,,,,,
alien_welcome,68,531212,0.0-29.0-0.0,"""event"",""trial"",""time""
""fullscreenenter"",""1"",""3808""
","
","
","""event"",""trial"",""time""
""fullscreenenter"",""1"",""3808""
","
",,null,run_exp/static/images/task_images/aliens/old_aliens/planet/alien_planet-11.jpg,null,,,,,,,,,,,,,11,"11,17,65,34,78,60,68,8,39,54,20,76,13,41,2,4,73,40,35,45,61,22,19,21,69,46,47,55,16,12,26,18,42,62,29,75,1,71,64,70,38,15,53,63,31,32,66,58,72,79,52,30,7,56,27,14,74,6,33,28,67,23,25,44,48,77",,,,,,,,,,
land,69,531713,0.0-29.0-1.0,"""event"",""trial"",""time""
""fullscreenenter"",""1"",""3808""
","
","
","""event"",""trial"",""time""
""fullscreenenter"",""1"",""3808""
","
",,null,run_exp/static/images/task_images/land.jpg,null,,,,,,,99,,,1,,,,,,,,,,,,,,
dig,70,533722,0.0-29.0-2.0,"""event"",""trial"",""time""
""fullscreenenter"",""1"",""3808""
","
","
","""event"",""trial"",""time""
""fullscreenenter"",""1"",""3808""
","
",,,,,,,,,,,,"[{""stimulus"":""run_exp/static/images/task_images/dig.jpg"",""time"":0.5},{""stimulus"":""run_exp/static/images/task_images/land.jpg"",""time"":673.3000000000466},{""stimulus"":""run_exp/static/images/task_images/dig.jpg"",""time"":1343.8000000000466}]",[],1,,,,,,,,,,,,,,
harvest,71,534735,0.0-29.0-3.0,"""event"",""trial"",""time""
""fullscreenenter"",""1"",""3808""
","
","
","""event"",""trial"",""time""
""fullscreenenter"",""1"",""3808""
","
",,null,run_exp/static/images/task_images/gems/99.jpg,null,,,,,,,27,,,1,,,,,99,0.270549072,0.272727273,,,,,,,
decision,72,536952,0.0-29.0-4.0,"""event"",""trial"",""time""
""fullscreenenter"",""1"",""3808""
","
","
","""event"",""trial"",""time""
""fullscreenenter"",""1"",""3808""
","
",,2213.8,run_exp/static/images/task_images/land.jpg,76,,,,,,,27,,,1,,,,,,,,10754,1,0,TRUE,,,
travel,73,544748,0.0-30.0-0.0,"""event"",""trial"",""time""
""fullscreenenter"",""1"",""3808""
","
","
","""event"",""trial"",""time""
""fullscreenenter"",""1"",""3808""
","
",,,,,,,,,,,,"[{""stimulus"":""run_exp/static/images/task_images/rocket-01.jpg"",""time"":0},{""stimulus"":""run_exp/static/images/task_images/rocket-02.jpg"",""time"":875.1999999999534},{""stimulus"":""run_exp/static/images/task_images/rocket-03.jpg"",""time"":1736.1999999999534},{""stimulus"":""run_exp/static/images/task_images/rocket-04.jpg"",""time"":2596.899999999907},{""stimulus"":""run_exp/static/images/task_images/rocket-05.jpg"",""time"":3462.1999999999534},{""stimulus"":""run_exp/static/images/task_images/rocket-06.jpg"",""time"":4339.399999999907},{""stimulus"":""run_exp/static/images/task_images/rocket-07.jpg"",""time"":5198.800000000047},{""stimulus"":""run_exp/static/images/task_images/rocket-08.jpg"",""time"":6069.199999999953},{""stimulus"":""run_exp/static/images/task_images/rocket-09.jpg"",""time"":6933.300000000047}]",[],1,,,,,,,,,,,,,,
alien_welcome,74,549760,0.0-30.0-1.0,"""event"",""trial"",""time""
""fullscreenenter"",""1"",""3808""
","
","
","""event"",""trial"",""time""
""fullscreenenter"",""1"",""3808""
","
",,null,run_exp/static/images/task_images/aliens/old_aliens/planet/alien_planet-17.jpg,null,,,,,,,,,,,,,17,"11,17,65,34,78,60,68,8,39,54,20,76,13,41,2,4,73,40,35,45,61,22,19,21,69,46,47,55,16,12,26,18,42,62,29,75,1,71,64,70,38,15,53,63,31,32,66,58,72,79,52,30,7,56,27,14,74,6,33,28,67,23,25,44,48,77",,,,,,,,,,
land,75,550264,0.0-30.0-2.0,"""event"",""trial"",""time""
""fullscreenenter"",""1"",""3808""
","
","
","""event"",""trial"",""time""
""fullscreenenter"",""1"",""3808""
","
",,null,run_exp/static/images/task_images/land.jpg,null,,,,,,,95,,,2,,,,,,,,,,,,,,
dig,76,552277,0.0-30.0-3.0,"""event"",""trial"",""time""
""fullscreenenter"",""1"",""3808""
","
","
","""event"",""trial"",""time""
""fullscreenenter"",""1"",""3808""
","
",,,,,,,,,,,,"[{""stimulus"":""run_exp/static/images/task_images/dig.jpg"",""time"":0.5},{""stimulus"":""run_exp/static/images/task_images/land.jpg"",""time"":672.8000000000466},{""stimulus"":""run_exp/static/images/task_images/dig.jpg"",""time"":1346}]",[],2,,,,,,,,,,,,,,
harvest,77,553280,0.0-30.0-4.0,"""event"",""trial"",""time""
""fullscreenenter"",""1"",""3808""
","
","
","""event"",""trial"",""time""
""fullscreenenter"",""1"",""3808""
","
",,null,run_exp/static/images/task_images/gems/95.jpg,null,,,,,,,14,,,2,,,,,95,0.144356637,0.147368421,,,,,,,
decision,78,553764,0.0-30.0-5.0,"""event"",""trial"",""time""
""fullscreenenter"",""1"",""3808""
","
","
","""event"",""trial"",""time""
""fullscreenenter"",""1"",""3808""
","
",,481.8,run_exp/static/images/task_images/land.jpg,76,,,,,,,14,,,2,,,,,,,,27566,1,0,TRUE,,,
travel,79,563289,0.0-31.0-0.0,"""event"",""trial"",""time""
""fullscreenenter"",""1"",""3808""
","
","
","""event"",""trial"",""time""
""fullscreenenter"",""1"",""3808""
","
",,,,,,,,,,,,"[{""stimulus"":""run_exp/static/images/task_images/rocket-01.jpg"",""time"":0.19999999995343387},{""stimulus"":""run_exp/static/images/task_images/rocket-02.jpg"",""time"":1066},{""stimulus"":""run_exp/static/images/task_images/rocket-03.jpg"",""time"":2124.399999999907},{""stimulus"":""run_exp/static/images/task_images/rocket-04.jpg"",""time"":3174.899999999907},{""stimulus"":""run_exp/static/images/task_images/rocket-05.jpg"",""time"":4234.399999999907},{""stimulus"":""run_exp/static/images/task_images/rocket-06.jpg"",""time"":5290},{""stimulus"":""run_exp/static/images/task_images/rocket-07.jpg"",""time"":6350.300000000047},{""stimulus"":""run_exp/static/images/task_images/rocket-08.jpg"",""time"":7406.899999999907},{""stimulus"":""run_exp/static/images/task_images/rocket-09.jpg"",""time"":8469}]",[],2,,,,,,,,,,,,,,
alien_welcome,80,568293,0.0-31.0-1.0,"""event"",""trial"",""time""
""fullscreenenter"",""1"",""3808""
","
","
","""event"",""trial"",""time""
""fullscreenenter"",""1"",""3808""
","
",,null,run_exp/static/images/task_images/aliens/old_aliens/planet/alien_planet-65.jpg,null,,,,,,,,,,,,,65,"11,17,65,34,78,60,68,8,39,54,20,76,13,41,2,4,73,40,35,45,61,22,19,21,69,46,47,55,16,12,26,18,42,62,29,75,1,71,64,70,38,15,53,63,31,32,66,58,72,79,52,30,7,56,27,14,74,6,33,28,67,23,25,44,48,77",,,,,,,,,,
land,81,568801,0.0-31.0-2.0,"""event"",""trial"",""time""
""fullscreenenter"",""1"",""3808""
","
","
","""event"",""trial"",""time""
""fullscreenenter"",""1"",""3808""
","
",,null,run_exp/static/images/task_images/land.jpg,null,,,,,,,102,,,3,,,,,,,,,,,,,,
dig,82,570820,0.0-31.0-3.0,"""event"",""trial"",""time""
""fullscreenenter"",""1"",""3808""
","
","
","""event"",""trial"",""time""
""fullscreenenter"",""1"",""3808""
","
",,,,,,,,,,,,"[{""stimulus"":""run_exp/static/images/task_images/dig.jpg"",""time"":0.5},{""stimulus"":""run_exp/static/images/task_images/land.jpg"",""time"":672.2000000001863},{""stimulus"":""run_exp/static/images/task_images/dig.jpg"",""time"":1338.1000000000931}]",[],3,,,,,,,,,,,,,,
harvest,83,571827,0.0-31.0-4.0,"""event"",""trial"",""time""
""fullscreenenter"",""1"",""3808""
","
","
","""event"",""trial"",""time""
""fullscreenenter"",""1"",""3808""
","
",,null,run_exp/static/images/task_images/gems/102.jpg,null,,,,,,,50,,,3,,,,,102,0.488271699,0.490196078,,,,,,,
decision,84,572695,0.0-31.0-5.0,"""event"",""trial"",""time""
""fullscreenenter"",""1"",""3808""
","
","
","""event"",""trial"",""time""
""fullscreenenter"",""1"",""3808""
","
",,865.7,run_exp/static/images/task_images/land.jpg,76,,,,,,,50,,,3,,,,,,,,46498,1,0,TRUE,,,
travel,85,581838,0.0-32.0-0.0,"""event"",""trial"",""time""
""fullscreenenter"",""1"",""3808""
","
","
","""event"",""trial"",""time""
""fullscreenenter"",""1"",""3808""
","
",,,,,,,,,,,,"[{""stimulus"":""run_exp/static/images/task_images/rocket-01.jpg"",""time"":0.39999999990686774},{""stimulus"":""run_exp/static/images/task_images/rocket-02.jpg"",""time"":1025.7999999998137},{""stimulus"":""run_exp/static/images/task_images/rocket-03.jpg"",""time"":2041},{""stimulus"":""run_exp/static/images/task_images/rocket-04.jpg"",""time"":3056},{""stimulus"":""run_exp/static/images/task_images/rocket-05.jpg"",""time"":4061.899999999907},{""stimulus"":""run_exp/static/images/task_images/rocket-06.jpg"",""time"":5085.09999999986},{""stimulus"":""run_exp/static/images/task_images/rocket-07.jpg"",""time"":6088.899999999907},{""stimulus"":""run_exp/static/images/task_images/rocket-08.jpg"",""time"":7104.59999999986},{""stimulus"":""run_exp/static/images/task_images/rocket-09.jpg"",""time"":8128.799999999814}]",[],3,,,,,,,,,,,,,,
alien_welcome,86,586844,0.0-32.0-1.0,"""event"",""trial"",""time""
""fullscreenenter"",""1"",""3808""
","
","
","""event"",""trial"",""time""
""fullscreenenter"",""1"",""3808""
","
",,null,run_exp/static/images/task_images/aliens/old_aliens/planet/alien_planet-34.jpg,null,,,,,,,,,,,,,34,"11,17,65,34,78,60,68,8,39,54,20,76,13,41,2,4,73,40,35,45,61,22,19,21,69,46,47,55,16,12,26,18,42,62,29,75,1,71,64,70,38,15,53,63,31,32,66,58,72,79,52,30,7,56,27,14,74,6,33,28,67,23,25,44,48,77",,,,,,,,,,
land,87,587347,0.0-32.0-2.0,"""event"",""trial"",""time""
""fullscreenenter"",""1"",""3808""
","
","
","""event"",""trial"",""time""
""fullscreenenter"",""1"",""3808""
","
",,null,run_exp/static/images/task_images/land.jpg,null,,,,,,,101,,,4,,,,,,,,,,,,,,
dig,88,589361,0.0-32.0-3.0,"""event"",""trial"",""time""
""fullscreenenter"",""1"",""3808""
","
","
","""event"",""trial"",""time""
""fullscreenenter"",""1"",""3808""
","
",,,,,,,,,,,,"[{""stimulus"":""run_exp/static/images/task_images/dig.jpg"",""time"":0.5},{""stimulus"":""run_exp/static/images/task_images/land.jpg"",""time"":671.9000000001397},{""stimulus"":""run_exp/static/images/task_images/dig.jpg"",""time"":1346.2000000001863}]",[],4,,,,,,,,,,,,,,
harvest,89,590366,0.0-32.0-4.0,"""event"",""trial"",""time""
""fullscreenenter"",""1"",""3808""
","
","
","""event"",""trial"",""time""
""fullscreenenter"",""1"",""3808""
","
",,null,run_exp/static/images/task_images/gems/101.jpg,null,,,,,,,44,,,4,,,,,101,0.4353794,0.435643564,,,,,,,
decision,90,590834,0.0-32.0-5.0,"""event"",""trial"",""time""
""fullscreenenter"",""1"",""3808""
","
","
","""event"",""trial"",""time""
""fullscreenenter"",""1"",""3808""
","
",,466.3,run_exp/static/images/task_images/land.jpg,76,,,,,,,44,,,4,,,,,,,,64636,1,0,TRUE,,,
travel,91,600382,0.0-33.0-0.0,"""event"",""trial"",""time""
""fullscreenenter"",""1"",""3808""
","
","
","""event"",""trial"",""time""
""fullscreenenter"",""1"",""3808""
","
",,,,,,,,,,,,"[{""stimulus"":""run_exp/static/images/task_images/rocket-01.jpg"",""time"":0},{""stimulus"":""run_exp/static/images/task_images/rocket-02.jpg"",""time"":1068.3000000000466},{""stimulus"":""run_exp/static/images/task_images/rocket-03.jpg"",""time"":2126.3000000000466},{""stimulus"":""run_exp/static/images/task_images/rocket-04.jpg"",""time"":3192},{""stimulus"":""run_exp/static/images/task_images/rocket-05.jpg"",""time"":4244.199999999953},{""stimulus"":""run_exp/static/images/task_images/rocket-06.jpg"",""time"":5309.399999999907},{""stimulus"":""run_exp/static/images/task_images/rocket-07.jpg"",""time"":6362.09999999986},{""stimulus"":""run_exp/static/images/task_images/rocket-08.jpg"",""time"":7423.09999999986},{""stimulus"":""run_exp/static/images/task_images/rocket-09.jpg"",""time"":8488.09999999986}]",[],4,,,,,,,,,,,,,,
alien_welcome,92,605388,0.0-33.0-1.0,"""event"",""trial"",""time""
""fullscreenenter"",""1"",""3808""
","
","
","""event"",""trial"",""time""
""fullscreenenter"",""1"",""3808""
","
",,null,run_exp/static/images/task_images/aliens/old_aliens/planet/alien_planet-78.jpg,null,,,,,,,,,,,,,78,"11,17,65,34,78,60,68,8,39,54,20,76,13,41,2,4,73,40,35,45,61,22,19,21,69,46,47,55,16,12,26,18,42,62,29,75,1,71,64,70,38,15,53,63,31,32,66,58,72,79,52,30,7,56,27,14,74,6,33,28,67,23,25,44,48,77",,,,,,,,,,
land,93,605897,0.0-33.0-2.0,"""event"",""trial"",""time""
""fullscreenenter"",""1"",""3808""
","
","
","""event"",""trial"",""time""
""fullscreenenter"",""1"",""3808""
","
",,null,run_exp/static/images/task_images/land.jpg,null,,,,,,,101,,,5,,,,,,,,,,,,,,
dig,94,607915,0.0-33.0-3.0,"""event"",""trial"",""time""
""fullscreenenter"",""1"",""3808""
","
","
","""event"",""trial"",""time""
""fullscreenenter"",""1"",""3808""
","
",,,,,,,,,,,,"[{""stimulus"":""run_exp/static/images/task_images/dig.jpg"",""time"":0.5},{""stimulus"":""run_exp/static/images/task_images/land.jpg"",""time"":675.0999999998603},{""stimulus"":""run_exp/static/images/task_images/dig.jpg"",""time"":1338.8999999999069}]",[],5,,,,,,,,,,,,,,
harvest,95,608918,0.0-33.0-4.0,"""event"",""trial"",""time""
""fullscreenenter"",""1"",""3808""
","
","
","""event"",""trial"",""time""
""fullscreenenter"",""1"",""3808""
","
",,null,run_exp/static/images/task_images/gems/101.jpg,null,,,,,,,47,,,5,,,,,101,0.46966334,0.465346535,,,,,,,
decision,96,609093,0.0-33.0-5.0,"""event"",""trial"",""time""
""fullscreenenter"",""1"",""3808""
","
","
","""event"",""trial"",""time""
""fullscreenenter"",""1"",""3808""
","
",,172.7,run_exp/static/images/task_images/land.jpg,76,,,,,,,47,,,5,,,,,,,,82895,1,0,TRUE,,,
travel,97,618934,0.0-34.0-0.0,"""event"",""trial"",""time""
""fullscreenenter"",""1"",""3808""
","
","
","""event"",""trial"",""time""
""fullscreenenter"",""1"",""3808""
","
",,,,,,,,,,,,"[{""stimulus"":""run_exp/static/images/task_images/rocket-01.jpg"",""time"":0.39999999990686774},{""stimulus"":""run_exp/static/images/task_images/rocket-02.jpg"",""time"":1105.5},{""stimulus"":""run_exp/static/images/task_images/rocket-03.jpg"",""time"":2189},{""stimulus"":""run_exp/static/images/task_images/rocket-04.jpg"",""time"":3279.5},{""stimulus"":""run_exp/static/images/task_images/rocket-05.jpg"",""time"":4365.59999999986},{""stimulus"":""run_exp/static/images/task_images/rocket-06.jpg"",""time"":5458.699999999953},{""stimulus"":""run_exp/static/images/task_images/rocket-07.jpg"",""time"":6559.699999999953},{""stimulus"":""run_exp/static/images/task_images/rocket-08.jpg"",""time"":7653.399999999907},{""stimulus"":""run_exp/static/images/task_images/rocket-09.jpg"",""time"":8732.899999999907}]",[],5,,,,,,,,,,,,,,
alien_welcome,98,623946,0.0-34.0-1.0,"""event"",""trial"",""time""
""fullscreenenter"",""1"",""3808""
","
","
","""event"",""trial"",""time""
""fullscreenenter"",""1"",""3808""
","
",,null,run_exp/static/images/task_images/aliens/old_aliens/planet/alien_planet-60.jpg,null,,,,,,,,,,,,,60,"11,17,65,34,78,60,68,8,39,54,20,76,13,41,2,4,73,40,35,45,61,22,19,21,69,46,47,55,16,12,26,18,42,62,29,75,1,71,64,70,38,15,53,63,31,32,66,58,72,79,52,30,7,56,27,14,74,6,33,28,67,23,25,44,48,77",,,,,,,,,,
land,99,624452,0.0-34.0-2.0,"""event"",""trial"",""time""
""fullscreenenter"",""1"",""3808""
","
","
","""event"",""trial"",""time""
""fullscreenenter"",""1"",""3808""
","
",,null,run_exp/static/images/task_images/land.jpg,null,,,,,,,93,,,6,,,,,,,,,,,,,,
dig,100,626469,0.0-34.0-3.0,"""event"",""trial"",""time""
""fullscreenenter"",""1"",""3808""
","
","
","""event"",""trial"",""time""
""fullscreenenter"",""1"",""3808""
","
",,,,,,,,,,,,"[{""stimulus"":""run_exp/static/images/task_images/dig.jpg"",""time"":0.5},{""stimulus"":""run_exp/static/images/task_images/land.jpg"",""time"":672.8000000000466},{""stimulus"":""run_exp/static/images/task_images/dig.jpg"",""time"":1347.6999999999534}]",[],6,,,,,,,,,,,,,,
harvest,101,627475,0.0-34.0-4.0,"""event"",""trial"",""time""
""fullscreenenter"",""1"",""3808""
","
","
","""event"",""trial"",""time""
""fullscreenenter"",""1"",""3808""
","
",,null,run_exp/static/images/task_images/gems/93.jpg,null,,,,,,,81,,,6,,,,,93,0.872593715,0.870967742,,,,,,,
decision,102,627675,0.0-34.0-5.0,"""event"",""trial"",""time""
""fullscreenenter"",""1"",""3808""
","
","
","""event"",""trial"",""time""
""fullscreenenter"",""1"",""3808""
","
",,197.2,run_exp/static/images/task_images/land.jpg,76,,,,,,,81,,,6,,,,,,,,101477,1,0,TRUE,,,
travel,103,637496,0.0-35.0-0.0,"""event"",""trial"",""time""
""fullscreenenter"",""1"",""3808""
","
","
","""event"",""trial"",""time""
""fullscreenenter"",""1"",""3808""
","
",,,,,,,,,,,,"[{""stimulus"":""run_exp/static/images/task_images/rocket-01.jpg"",""time"":0.39999999990686774},{""stimulus"":""run_exp/static/images/task_images/rocket-02.jpg"",""time"":1097.3000000000466},{""stimulus"":""run_exp/static/images/task_images/rocket-03.jpg"",""time"":2184.399999999907},{""stimulus"":""run_exp/static/images/task_images/rocket-04.jpg"",""time"":3283.8000000000466},{""stimulus"":""run_exp/static/images/task_images/rocket-05.jpg"",""time"":4371.899999999907},{""stimulus"":""run_exp/static/images/task_images/rocket-06.jpg"",""time"":5457.5},{""stimulus"":""run_exp/static/images/task_images/rocket-07.jpg"",""time"":6545.300000000047},{""stimulus"":""run_exp/static/images/task_images/rocket-08.jpg"",""time"":7628.100000000093},{""stimulus"":""run_exp/static/images/task_images/rocket-09.jpg"",""time"":8727.699999999953}]",[],6,,,,,,,,,,,,,,
alien_welcome,104,642514,0.0-35.0-1.0,"""event"",""trial"",""time""
""fullscreenenter"",""1"",""3808""
","
","
","""event"",""trial"",""time""
""fullscreenenter"",""1"",""3808""
","
",,null,run_exp/static/images/task_images/aliens/old_aliens/planet/alien_planet-68.jpg,null,,,,,,,,,,,,,68,"11,17,65,34,78,60,68,8,39,54,20,76,13,41,2,4,73,40,35,45,61,22,19,21,69,46,47,55,16,12,26,18,42,62,29,75,1,71,64,70,38,15,53,63,31,32,66,58,72,79,52,30,7,56,27,14,74,6,33,28,67,23,25,44,48,77",,,,,,,,,,
land,105,643028,0.0-35.0-2.0,"""event"",""trial"",""time""
""fullscreenenter"",""1"",""3808""
","
","
","""event"",""trial"",""time""
""fullscreenenter"",""1"",""3808""
","
",,null,run_exp/static/images/task_images/land.jpg,null,,,,,,,105,,,7,,,,,,,,,,,,,,
dig,106,645046,0.0-35.0-3.0,"""event"",""trial"",""time""
""fullscreenenter"",""1"",""3808""
","
","
","""event"",""trial"",""time""
""fullscreenenter"",""1"",""3808""
","
",,,,,,,,,,,,"[{""stimulus"":""run_exp/static/images/task_images/dig.jpg"",""time"":0.5},{""stimulus"":""run_exp/static/images/task_images/land.jpg"",""time"":679.8000000000466},{""stimulus"":""run_exp/static/images/task_images/dig.jpg"",""time"":1339.0999999998603}]",[],7,,,,,,,,,,,,,,
harvest,107,646062,0.0-35.0-4.0,"""event"",""trial"",""time""
""fullscreenenter"",""1"",""3808""
","
","
","""event"",""trial"",""time""
""fullscreenenter"",""1"",""3808""
","
",,null,run_exp/static/images/task_images/gems/105.jpg,null,,,,,,,86,,,7,,,,,105,0.818154967,0.819047619,,,,,,,
decision,108,646616,0.0-35.0-5.0,"""event"",""trial"",""time""
""fullscreenenter"",""1"",""3808""
","
","
","""event"",""trial"",""time""
""fullscreenenter"",""1"",""3808""
","
",,550.9,run_exp/static/images/task_images/land.jpg,76,,,,,,,86,,,7,,,,,,,,120418,1,0,TRUE,,,
travel,109,656065,0.0-36.0-0.0,"""event"",""trial"",""time""
""fullscreenenter"",""1"",""3808""
","
","
","""event"",""trial"",""time""
""fullscreenenter"",""1"",""3808""
","
",,,,,,,,,,,,"[{""stimulus"":""run_exp/static/images/task_images/rocket-01.jpg"",""time"":0.09999999986030161},{""stimulus"":""run_exp/static/images/task_images/rocket-02.jpg"",""time"":1061.1999999999534},{""stimulus"":""run_exp/static/images/task_images/rocket-03.jpg"",""time"":2107.2999999998137},{""stimulus"":""run_exp/static/images/task_images/rocket-04.jpg"",""time"":3154.899999999907},{""stimulus"":""run_exp/static/images/task_images/rocket-05.jpg"",""time"":4207.59999999986},{""stimulus"":""run_exp/static/images/task_images/rocket-06.jpg"",""time"":5261.09999999986},{""stimulus"":""run_exp/static/images/task_images/rocket-07.jpg"",""time"":6299.299999999814},{""stimulus"":""run_exp/static/images/task_images/rocket-08.jpg"",""time"":7347.899999999907},{""stimulus"":""run_exp/static/images/task_images/rocket-09.jpg"",""time"":8400.199999999953}]",[],7,,,,,,,,,,,,,,
alien_welcome,110,661073,0.0-36.0-1.0,"""event"",""trial"",""time""
""fullscreenenter"",""1"",""3808""
","
","
","""event"",""trial"",""time""
""fullscreenenter"",""1"",""3808""
","
",,null,run_exp/static/images/task_images/aliens/old_aliens/planet/alien_planet-8.jpg,null,,,,,,,,,,,,,8,"11,17,65,34,78,60,68,8,39,54,20,76,13,41,2,4,73,40,35,45,61,22,19,21,69,46,47,55,16,12,26,18,42,62,29,75,1,71,64,70,38,15,53,63,31,32,66,58,72,79,52,30,7,56,27,14,74,6,33,28,67,23,25,44,48,77",,,,,,,,,,
land,111,661583,0.0-36.0-2.0,"""event"",""trial"",""time""
""fullscreenenter"",""1"",""3808""
","
","
","""event"",""trial"",""time""
""fullscreenenter"",""1"",""3808""
","
",,null,run_exp/static/images/task_images/land.jpg,null,,,,,,,104,,,8,,,,,,,,,,,,,,
dig,112,663603,0.0-36.0-3.0,"""event"",""trial"",""time""
""fullscreenenter"",""1"",""3808""
","
","
","""event"",""trial"",""time""
""fullscreenenter"",""1"",""3808""
","
",,,,,,,,,,,,"[{""stimulus"":""run_exp/static/images/task_images/dig.jpg"",""time"":0.4000000001396984},{""stimulus"":""run_exp/static/images/task_images/land.jpg"",""time"":679.6000000000931},{""stimulus"":""run_exp/static/images/task_images/dig.jpg"",""time"":1341.5}]",[],8,,,,,,,,,,,,,,
harvest,113,664609,0.0-36.0-4.0,"""event"",""trial"",""time""
""fullscreenenter"",""1"",""3808""
","
","
","""event"",""trial"",""time""
""fullscreenenter"",""1"",""3808""
","
",,null,run_exp/static/images/task_images/gems/104.jpg,null,,,,,,,84,,,8,,,,,104,0.808547849,0.807692308,,,,,,,
decision,114,665863,0.0-36.0-5.0,"""event"",""trial"",""time""
""fullscreenenter"",""1"",""3808""
","
","
","""event"",""trial"",""time""
""fullscreenenter"",""1"",""3808""
","
",,1251.7,run_exp/static/images/task_images/land.jpg,76,,,,,,,84,,,8,,,,,,,,139665,1,0,TRUE,,,
travel,115,674629,0.0-37.0-0.0,"""event"",""trial"",""time""
""fullscreenenter"",""1"",""3808""
","
","
","""event"",""trial"",""time""
""fullscreenenter"",""1"",""3808""
","
",,,,,,,,,,,,"[{""stimulus"":""run_exp/static/images/task_images/rocket-01.jpg"",""time"":0.39999999990686774},{""stimulus"":""run_exp/static/images/task_images/rocket-02.jpg"",""time"":976.1999999999534},{""stimulus"":""run_exp/static/images/task_images/rocket-03.jpg"",""time"":1952.5},{""stimulus"":""run_exp/static/images/task_images/rocket-04.jpg"",""time"":2932.8000000000466},{""stimulus"":""run_exp/static/images/task_images/rocket-05.jpg"",""time"":3903},{""stimulus"":""run_exp/static/images/task_images/rocket-06.jpg"",""time"":4866.399999999907},{""stimulus"":""run_exp/static/images/task_images/rocket-07.jpg"",""time"":5843.300000000047},{""stimulus"":""run_exp/static/images/task_images/rocket-08.jpg"",""time"":6820.399999999907},{""stimulus"":""run_exp/static/images/task_images/rocket-09.jpg"",""time"":7788.699999999953}]",[],8,,,,,,,,,,,,,,
alien_welcome,116,679639,0.0-37.0-1.0,"""event"",""trial"",""time""
""fullscreenenter"",""1"",""3808""
","
","
","""event"",""trial"",""time""
""fullscreenenter"",""1"",""3808""
","
",,null,run_exp/static/images/task_images/aliens/old_aliens/planet/alien_planet-39.jpg,null,,,,,,,,,,,,,39,"11,17,65,34,78,60,68,8,39,54,20,76,13,41,2,4,73,40,35,45,61,22,19,21,69,46,47,55,16,12,26,18,42,62,29,75,1,71,64,70,38,15,53,63,31,32,66,58,72,79,52,30,7,56,27,14,74,6,33,28,67,23,25,44,48,77",,,,,,,,,,
land,117,680142,0.0-37.0-2.0,"""event"",""trial"",""time""
""fullscreenenter"",""1"",""3808""
","
","
","""event"",""trial"",""time""
""fullscreenenter"",""1"",""3808""
","
",,null,run_exp/static/images/task_images/land.jpg,null,,,,,,,103,,,9,,,,,,,,,,,,,,
dig,118,682155,0.0-37.0-3.0,"""event"",""trial"",""time""
""fullscreenenter"",""1"",""3808""
","
","
","""event"",""trial"",""time""
""fullscreenenter"",""1"",""3808""
","
",,,,,,,,,,,,"[{""stimulus"":""run_exp/static/images/task_images/dig.jpg"",""time"":0.4000000001396984},{""stimulus"":""run_exp/static/images/task_images/land.jpg"",""time"":670.2000000001863},{""stimulus"":""run_exp/static/images/task_images/dig.jpg"",""time"":1342.8000000000466}]",[],9,,,,,,,,,,,,,,
harvest,119,683163,0.0-37.0-4.0,"""event"",""trial"",""time""
""fullscreenenter"",""1"",""3808""
","
","
","""event"",""trial"",""time""
""fullscreenenter"",""1"",""3808""
","
",,null,run_exp/static/images/task_images/gems/103.jpg,null,,,,,,,22,,,9,,,,,103,0.213536285,0.213592233,,,,,,,
decision,120,686175,0.0-37.0-5.0,"""event"",""trial"",""time""
""fullscreenenter"",""1"",""3808""
","
","
","""event"",""trial"",""time""
""fullscreenenter"",""1"",""3808""
","
",,null,run_exp/static/images/task_images/land.jpg,null,,,,,,,22,,,9,,,,,,,,159977,1,0,FALSE,,,
time_out,121,688185,0.0-38.0-0.0,"""event"",""trial"",""time""
""fullscreenenter"",""1"",""3808""
","
","
","""event"",""trial"",""time""
""fullscreenenter"",""1"",""3808""
","
",,null,run_exp/static/images/task_images/time_out.jpg,null,,,,,,,22,,,,,,,,,,,,,,,,,
decision,122,689705,0.0-38.0-1.0,"""event"",""trial"",""time""
""fullscreenenter"",""1"",""3808""
","
","
","""event"",""trial"",""time""
""fullscreenenter"",""1"",""3808""
","
",,1518,run_exp/static/images/task_images/land.jpg,76,,,,,,,22,,,9,,,,,,,,163508,1,0,TRUE,,,
travel,123,698191,0.0-39.0-0.0,"""event"",""trial"",""time""
""fullscreenenter"",""1"",""3808""
","
","
","""event"",""trial"",""time""
""fullscreenenter"",""1"",""3808""
","
",,,,,,,,,,,,"[{""stimulus"":""run_exp/static/images/task_images/rocket-01.jpg"",""time"":0.19999999995343387},{""stimulus"":""run_exp/static/images/task_images/rocket-02.jpg"",""time"":944.5},{""stimulus"":""run_exp/static/images/task_images/rocket-03.jpg"",""time"":1889.8999999999069},{""stimulus"":""run_exp/static/images/task_images/rocket-04.jpg"",""time"":2835.8000000000466},{""stimulus"":""run_exp/static/images/task_images/rocket-05.jpg"",""time"":3780},{""stimulus"":""run_exp/static/images/task_images/rocket-06.jpg"",""time"":4715.800000000047},{""stimulus"":""run_exp/static/images/task_images/rocket-07.jpg"",""time"":5658.59999999986},{""stimulus"":""run_exp/static/images/task_images/rocket-08.jpg"",""time"":6596.399999999907},{""stimulus"":""run_exp/static/images/task_images/rocket-09.jpg"",""time"":7541.399999999907}]",[],9,,,,,,,,,,,,,,
alien_welcome,124,703205,0.0-39.0-1.0,"""event"",""trial"",""time""
""fullscreenenter"",""1"",""3808""
","
","
","""event"",""trial"",""time""
""fullscreenenter"",""1"",""3808""
","
",,null,run_exp/static/images/task_images/aliens/old_aliens/planet/alien_planet-54.jpg,null,,,,,,,,,,,,,54,"11,17,65,34,78,60,68,8,39,54,20,76,13,41,2,4,73,40,35,45,61,22,19,21,69,46,47,55,16,12,26,18,42,62,29,75,1,71,64,70,38,15,53,63,31,32,66,58,72,79,52,30,7,56,27,14,74,6,33,28,67,23,25,44,48,77",,,,,,,,,,
land,125,703721,0.0-39.0-2.0,"""event"",""trial"",""time""
""fullscreenenter"",""1"",""3808""
","
","
","""event"",""trial"",""time""
""fullscreenenter"",""1"",""3808""
","
",,null,run_exp/static/images/task_images/land.jpg,null,,,,,,,94,,,10,,,,,,,,,,,,,,
dig,126,705731,0.0-39.0-3.0,"""event"",""trial"",""time""
""fullscreenenter"",""1"",""3808""
","
","
","""event"",""trial"",""time""
""fullscreenenter"",""1"",""3808""
","
",,,,,,,,,,,,"[{""stimulus"":""run_exp/static/images/task_images/dig.jpg"",""time"":0.5},{""stimulus"":""run_exp/static/images/task_images/land.jpg"",""time"":682.1999999999534},{""stimulus"":""run_exp/static/images/task_images/dig.jpg"",""time"":1342.8999999999069}]",[],10,,,,,,,,,,,,,,
harvest,127,706742,0.0-39.0-4.0,"""event"",""trial"",""time""
""fullscreenenter"",""1"",""3808""
","
","
","""event"",""trial"",""time""
""fullscreenenter"",""1"",""3808""
","
",,null,run_exp/static/images/task_images/gems/94.jpg,null,,,,,,,16,,,10,,,,,94,0.165793453,0.170212766,,,,,,,
decision,128,708934,0.0-39.0-5.0,"""event"",""trial"",""time""
""fullscreenenter"",""1"",""3808""
","
","
","""event"",""trial"",""time""
""fullscreenenter"",""1"",""3808""
","
",,2189.6,run_exp/static/images/task_images/land.jpg,76,,,,,,,16,,,10,,,,,,,,182736,1,0,TRUE,,,
travel,129,716754,0.0-40.0-0.0,"""event"",""trial"",""time""
""fullscreenenter"",""1"",""3808""
","
","
","""event"",""trial"",""time""
""fullscreenenter"",""1"",""3808""
","
",,,,,,,,,,,,"[{""stimulus"":""run_exp/static/images/task_images/rocket-01.jpg"",""time"":0.30000000004656613},{""stimulus"":""run_exp/static/images/task_images/rocket-02.jpg"",""time"":872.1999999999534},{""stimulus"":""run_exp/static/images/task_images/rocket-03.jpg"",""time"":1748.6000000000931},{""stimulus"":""run_exp/static/images/task_images/rocket-04.jpg"",""time"":2605.3000000000466},{""stimulus"":""run_exp/static/images/task_images/rocket-05.jpg"",""time"":3476.100000000093},{""stimulus"":""run_exp/static/images/task_images/rocket-06.jpg"",""time"":4338.100000000093},{""stimulus"":""run_exp/static/images/task_images/rocket-07.jpg"",""time"":5210.699999999953},{""stimulus"":""run_exp/static/images/task_images/rocket-08.jpg"",""time"":6078.40000000014},{""stimulus"":""run_exp/static/images/task_images/rocket-09.jpg"",""time"":6952.100000000093}]",[],10,,,,,,,,,,,,,,
alien_welcome,130,721768,0.0-40.0-1.0,"""event"",""trial"",""time""
""fullscreenenter"",""1"",""3808""
","
","
","""event"",""trial"",""time""
""fullscreenenter"",""1"",""3808""
","
",,null,run_exp/static/images/task_images/aliens/old_aliens/planet/alien_planet-20.jpg,null,,,,,,,,,,,,,20,"11,17,65,34,78,60,68,8,39,54,20,76,13,41,2,4,73,40,35,45,61,22,19,21,69,46,47,55,16,12,26,18,42,62,29,75,1,71,64,70,38,15,53,63,31,32,66,58,72,79,52,30,7,56,27,14,74,6,33,28,67,23,25,44,48,77",,,,,,,,,,
land,131,722274,0.0-40.0-2.0,"""event"",""trial"",""time""
""fullscreenenter"",""1"",""3808""
","
","
","""event"",""trial"",""time""
""fullscreenenter"",""1"",""3808""
","
",,null,run_exp/static/images/task_images/land.jpg,null,,,,,,,104,,,11,,,,,,,,,,,,,,
dig,132,724283,0.0-40.0-3.0,"""event"",""trial"",""time""
""fullscreenenter"",""1"",""3808""
","
","
","""event"",""trial"",""time""
""fullscreenenter"",""1"",""3808""
","
",,,,,,,,,,,,"[{""stimulus"":""run_exp/static/images/task_images/dig.jpg"",""time"":0.39999999990686774},{""stimulus"":""run_exp/static/images/task_images/land.jpg"",""time"":678.1000000000931},{""stimulus"":""run_exp/static/images/task_images/dig.jpg"",""time"":1338.6999999999534}]",[],11,,,,,,,,,,,,,,
harvest,133,725299,0.0-40.0-4.0,"""event"",""trial"",""time""
""fullscreenenter"",""1"",""3808""
","
","
","""event"",""trial"",""time""
""fullscreenenter"",""1"",""3808""
","
",,null,run_exp/static/images/task_images/gems/104.jpg,null,,,,,,,27,,,11,,,,,104,0.25974214,0.259615385,,,,,,,
decision,134,727967,0.0-40.0-5.0,"""event"",""trial"",""time""
""fullscreenenter"",""1"",""3808""
","
","
","""event"",""trial"",""time""
""fullscreenenter"",""1"",""3808""
","
",,2666.3,run_exp/static/images/task_images/land.jpg,76,,,,,,,27,,,11,,,,,,,,201769,1,0,TRUE,,,
travel,135,735305,0.0-41.0-0.0,"""event"",""trial"",""time""
""fullscreenenter"",""1"",""3808""
","
","
","""event"",""trial"",""time""
""fullscreenenter"",""1"",""3808""
","
",,,,,,,,,,,,"[{""stimulus"":""run_exp/static/images/task_images/rocket-01.jpg"",""time"":0.10000000009313226},{""stimulus"":""run_exp/static/images/task_images/rocket-02.jpg"",""time"":820.3000000000466},{""stimulus"":""run_exp/static/images/task_images/rocket-03.jpg"",""time"":1636.8999999999069},{""stimulus"":""run_exp/static/images/task_images/rocket-04.jpg"",""time"":2450.3000000000466},{""stimulus"":""run_exp/static/images/task_images/rocket-05.jpg"",""time"":3263.1999999999534},{""stimulus"":""run_exp/static/images/task_images/rocket-06.jpg"",""time"":4086.600000000093},{""stimulus"":""run_exp/static/images/task_images/rocket-07.jpg"",""time"":4895.600000000093},{""stimulus"":""run_exp/static/images/task_images/rocket-08.jpg"",""time"":5701.199999999953},{""stimulus"":""run_exp/static/images/task_images/rocket-09.jpg"",""time"":6516.5}]",[],11,,,,,,,,,,,,,,
alien_welcome,136,740319,0.0-41.0-1.0,"""event"",""trial"",""time""
""fullscreenenter"",""1"",""3808""
","
","
","""event"",""trial"",""time""
""fullscreenenter"",""1"",""3808""
","
",,null,run_exp/static/images/task_images/aliens/old_aliens/planet/alien_planet-76.jpg,null,,,,,,,,,,,,,76,"11,17,65,34,78,60,68,8,39,54,20,76,13,41,2,4,73,40,35,45,61,22,19,21,69,46,47,55,16,12,26,18,42,62,29,75,1,71,64,70,38,15,53,63,31,32,66,58,72,79,52,30,7,56,27,14,74,6,33,28,67,23,25,44,48,77",,,,,,,,,,
land,137,740826,0.0-41.0-2.0,"""event"",""trial"",""time""
""fullscreenenter"",""1"",""3808""
","
","
","""event"",""trial"",""time""
""fullscreenenter"",""1"",""3808""
","
",,null,run_exp/static/images/task_images/land.jpg,null,,,,,,,101,,,12,,,,,,,,,,,,,,
dig,138,742845,0.0-41.0-3.0,"""event"",""trial"",""time""
""fullscreenenter"",""1"",""3808""
","
","
","""event"",""trial"",""time""
""fullscreenenter"",""1"",""3808""
","
",,,,,,,,,,,,"[{""stimulus"":""run_exp/static/images/task_images/dig.jpg"",""time"":0.39999999990686774},{""stimulus"":""run_exp/static/images/task_images/land.jpg"",""time"":669.8000000000466},{""stimulus"":""run_exp/static/images/task_images/dig.jpg"",""time"":1345.8999999999069}]",[],12,,,,,,,,,,,,,,
harvest,139,743852,0.0-41.0-4.0,"""event"",""trial"",""time""
""fullscreenenter"",""1"",""3808""
","
","
","""event"",""trial"",""time""
""fullscreenenter"",""1"",""3808""
","
",,null,run_exp/static/images/task_images/gems/101.jpg,null,,,,,,,15,,,12,,,,,101,0.143890633,0.148514851,,,,,,,
decision,140,746863,0.0-41.0-5.0,"""event"",""trial"",""time""
""fullscreenenter"",""1"",""3808""
","
","
","""event"",""trial"",""time""
""fullscreenenter"",""1"",""3808""
","
",,null,run_exp/static/images/task_images/land.jpg,null,,,,,,,15,,,12,,,,,,,,220665,1,0,FALSE,,,
time_out,141,748874,0.0-42.0-0.0,"""event"",""trial"",""time""
""fullscreenenter"",""1"",""3808""
","
","
","""event"",""trial"",""time""
""fullscreenenter"",""1"",""3808""
","
",,null,run_exp/static/images/task_images/time_out.jpg,null,,,,,,,15,,,,,,,,,,,,,,,,,
decision,142,751892,0.0-42.0-1.0,"""event"",""trial"",""time""
""fullscreenenter"",""1"",""3808""
","
","
","""event"",""trial"",""time""
""fullscreenenter"",""1"",""3808""
","
",,null,run_exp/static/images/task_images/land.jpg,null,,,,,,,15,,,12,,,,,,,,225694,1,0,FALSE,,,
time_out,143,753905,0.0-43.0-0.0,"""event"",""trial"",""time""
""fullscreenenter"",""1"",""3808""
","
","
","""event"",""trial"",""time""
""fullscreenenter"",""1"",""3808""
","
",,null,run_exp/static/images/task_images/time_out.jpg,null,,,,,,,15,,,,,,,,,,,,,,,,,
decision,144,754690,0.0-43.0-1.0,"""event"",""trial"",""time""
""fullscreenenter"",""1"",""3808""
","
","
","""event"",""trial"",""time""
""fullscreenenter"",""1"",""3808""
","
",,782.8,run_exp/static/images/task_images/land.jpg,76,,,,,,,15,,,12,,,,,,,,228492,1,0,TRUE,,,
travel,145,763921,0.0-44.0-0.0,"""event"",""trial"",""time""
""fullscreenenter"",""1"",""3808""
","
","
","""event"",""trial"",""time""
""fullscreenenter"",""1"",""3808""
","
",,,,,,,,,,,,"[{""stimulus"":""run_exp/static/images/task_images/rocket-01.jpg"",""time"":0.19999999995343387},{""stimulus"":""run_exp/static/images/task_images/rocket-02.jpg"",""time"":1033.3999999999069},{""stimulus"":""run_exp/static/images/task_images/rocket-03.jpg"",""time"":2054.3000000000466},{""stimulus"":""run_exp/static/images/task_images/rocket-04.jpg"",""time"":3080.6999999999534},{""stimulus"":""run_exp/static/images/task_images/rocket-05.jpg"",""time"":4101.199999999953},{""stimulus"":""run_exp/static/images/task_images/rocket-06.jpg"",""time"":5126.600000000093},{""stimulus"":""run_exp/static/images/task_images/rocket-07.jpg"",""time"":6147.800000000047},{""stimulus"":""run_exp/static/images/task_images/rocket-08.jpg"",""time"":7170.100000000093},{""stimulus"":""run_exp/static/images/task_images/rocket-09.jpg"",""time"":8198.300000000047}]",[],12,,,,,,,,,,,,,,
alien_welcome,146,768937,0.0-44.0-1.0,"""event"",""trial"",""time""
""fullscreenenter"",""1"",""3808""
","
","
","""event"",""trial"",""time""
""fullscreenenter"",""1"",""3808""
","
",,null,run_exp/static/images/task_images/aliens/old_aliens/planet/alien_planet-13.jpg,null,,,,,,,,,,,,,13,"11,17,65,34,78,60,68,8,39,54,20,76,13,41,2,4,73,40,35,45,61,22,19,21,69,46,47,55,16,12,26,18,42,62,29,75,1,71,64,70,38,15,53,63,31,32,66,58,72,79,52,30,7,56,27,14,74,6,33,28,67,23,25,44,48,77",,,,,,,,,,
land,147,769439,0.0-44.0-2.0,"""event"",""trial"",""time""
""fullscreenenter"",""1"",""3808""
","
","
","""event"",""trial"",""time""
""fullscreenenter"",""1"",""3808""
","
",,null,run_exp/static/images/task_images/land.jpg,null,,,,,,,102,,,13,,,,,,,,,,,,,,
dig,148,771455,0.0-44.0-3.0,"""event"",""trial"",""time""
""fullscreenenter"",""1"",""3808""
","
","
","""event"",""trial"",""time""
""fullscreenenter"",""1"",""3808""
","
",,,,,,,,,,,,"[{""stimulus"":""run_exp/static/images/task_images/dig.jpg"",""time"":0.30000000004656613},{""stimulus"":""run_exp/static/images/task_images/land.jpg"",""time"":673.8000000000466},{""stimulus"":""run_exp/static/images/task_images/dig.jpg"",""time"":1335.2000000001863}]",[],13,,,,,,,,,,,,,,
harvest,149,772464,0.0-44.0-4.0,"""event"",""trial"",""time""
""fullscreenenter"",""1"",""3808""
","
","
","""event"",""trial"",""time""
""fullscreenenter"",""1"",""3808""
","
",,null,run_exp/static/images/task_images/gems/102.jpg,null,,,,,,,23,,,13,,,,,102,0.227536897,0.225490196,,,,,,,
decision,150,772504,0.0-44.0-5.0,"""event"",""trial"",""time""
""fullscreenenter"",""1"",""3808""
","
","
","""event"",""trial"",""time""
""fullscreenenter"",""1"",""3808""
","
",,37.8,run_exp/static/images/task_images/land.jpg,76,,,,,,,23,,,13,,,,,,,,246306,1,0,TRUE,,,
travel,151,782469,0.0-45.0-0.0,"""event"",""trial"",""time""
""fullscreenenter"",""1"",""3808""
","
","
","""event"",""trial"",""time""
""fullscreenenter"",""1"",""3808""
","
",,,,,,,,,,,,"[{""stimulus"":""run_exp/static/images/task_images/rocket-01.jpg"",""time"":0.10000000009313226},{""stimulus"":""run_exp/static/images/task_images/rocket-02.jpg"",""time"":1122.5},{""stimulus"":""run_exp/static/images/task_images/rocket-03.jpg"",""time"":2216.6999999999534},{""stimulus"":""run_exp/static/images/task_images/rocket-04.jpg"",""time"":3328.6999999999534},{""stimulus"":""run_exp/static/images/task_images/rocket-05.jpg"",""time"":4429},{""stimulus"":""run_exp/static/images/task_images/rocket-06.jpg"",""time"":5534},{""stimulus"":""run_exp/static/images/task_images/rocket-07.jpg"",""time"":6639.800000000047},{""stimulus"":""run_exp/static/images/task_images/rocket-08.jpg"",""time"":7754.399999999907},{""stimulus"":""run_exp/static/images/task_images/rocket-09.jpg"",""time"":8855.899999999907}]",[],13,,,,,,,,,,,,,,
alien_welcome,152,787481,0.0-45.0-1.0,"""event"",""trial"",""time""
""fullscreenenter"",""1"",""3808""
","
","
","""event"",""trial"",""time""
""fullscreenenter"",""1"",""3808""
","
",,null,run_exp/static/images/task_images/aliens/old_aliens/planet/alien_planet-41.jpg,null,,,,,,,,,,,,,41,"11,17,65,34,78,60,68,8,39,54,20,76,13,41,2,4,73,40,35,45,61,22,19,21,69,46,47,55,16,12,26,18,42,62,29,75,1,71,64,70,38,15,53,63,31,32,66,58,72,79,52,30,7,56,27,14,74,6,33,28,67,23,25,44,48,77",,,,,,,,,,
land,153,787986,0.0-45.0-2.0,"""event"",""trial"",""time""
""fullscreenenter"",""1"",""3808""
","
","
","""event"",""trial"",""time""
""fullscreenenter"",""1"",""3808""
","
",,null,run_exp/static/images/task_images/land.jpg,null,,,,,,,107,,,14,,,,,,,,,,,,,,
dig,154,790004,0.0-45.0-3.0,"""event"",""trial"",""time""
""fullscreenenter"",""1"",""3808""
","
","
","""event"",""trial"",""time""
""fullscreenenter"",""1"",""3808""
","
",,,,,,,,,,,,"[{""stimulus"":""run_exp/static/images/task_images/dig.jpg"",""time"":0.39999999990686774},{""stimulus"":""run_exp/static/images/task_images/land.jpg"",""time"":675},{""stimulus"":""run_exp/static/images/task_images/dig.jpg"",""time"":1346.3000000000466}]",[],14,,,,,,,,,,,,,,
harvest,155,791009,0.0-45.0-4.0,"""event"",""trial"",""time""
""fullscreenenter"",""1"",""3808""
","
","
","""event"",""trial"",""time""
""fullscreenenter"",""1"",""3808""
","
",,null,run_exp/static/images/task_images/gems/107.jpg,null,,,,,,,88,,,14,,,,,107,0.825003059,0.822429907,,,,,,,
decision,156,792235,0.0-45.0-5.0,"""event"",""trial"",""time""
""fullscreenenter"",""1"",""3808""
","
","
","""event"",""trial"",""time""
""fullscreenenter"",""1"",""3808""
","
",,1223.4,run_exp/static/images/task_images/land.jpg,76,,,,,,,88,,,14,,,,,,,,266037,1,0,TRUE,,,
travel,157,801030,0.0-46.0-0.0,"""event"",""trial"",""time""
""fullscreenenter"",""1"",""3808""
","
","
","""event"",""trial"",""time""
""fullscreenenter"",""1"",""3808""
","
",,,,,,,,,,,,"[{""stimulus"":""run_exp/static/images/task_images/rocket-01.jpg"",""time"":0.4000000001396984},{""stimulus"":""run_exp/static/images/task_images/rocket-02.jpg"",""time"":978.1999999999534},{""stimulus"":""run_exp/static/images/task_images/rocket-03.jpg"",""time"":1953.8000000000466},{""stimulus"":""run_exp/static/images/task_images/rocket-04.jpg"",""time"":2933.5},{""stimulus"":""run_exp/static/images/task_images/rocket-05.jpg"",""time"":3905.5},{""stimulus"":""run_exp/static/images/task_images/rocket-06.jpg"",""time"":4879.699999999953},{""stimulus"":""run_exp/static/images/task_images/rocket-07.jpg"",""time"":5852.199999999953},{""stimulus"":""run_exp/static/images/task_images/rocket-08.jpg"",""time"":6829.90000000014},{""stimulus"":""run_exp/static/images/task_images/rocket-09.jpg"",""time"":7816.90000000014}]",[],14,,,,,,,,,,,,,,
alien_welcome,158,806041,0.0-46.0-1.0,"""event"",""trial"",""time""
""fullscreenenter"",""1"",""3808""
","
","
","""event"",""trial"",""time""
""fullscreenenter"",""1"",""3808""
","
",,null,run_exp/static/images/task_images/aliens/old_aliens/planet/alien_planet-2.jpg,null,,,,,,,,,,,,,2,"11,17,65,34,78,60,68,8,39,54,20,76,13,41,2,4,73,40,35,45,61,22,19,21,69,46,47,55,16,12,26,18,42,62,29,75,1,71,64,70,38,15,53,63,31,32,66,58,72,79,52,30,7,56,27,14,74,6,33,28,67,23,25,44,48,77",,,,,,,,,,
land,159,806558,0.0-46.0-2.0,"""event"",""trial"",""time""
""fullscreenenter"",""1"",""3808""
","
","
","""event"",""trial"",""time""
""fullscreenenter"",""1"",""3808""
","
",,null,run_exp/static/images/task_images/land.jpg,null,,,,,,,99,,,15,,,,,,,,,,,,,,
dig,160,808577,0.0-46.0-3.0,"""event"",""trial"",""time""
""fullscreenenter"",""1"",""3808""
","
","
","""event"",""trial"",""time""
""fullscreenenter"",""1"",""3808""
","
",,,,,,,,,,,,"[{""stimulus"":""run_exp/static/images/task_images/dig.jpg"",""time"":0.10000000009313226},{""stimulus"":""run_exp/static/images/task_images/land.jpg"",""time"":677.6999999999534},{""stimulus"":""run_exp/static/images/task_images/dig.jpg"",""time"":1343.5}]",[],15,,,,,,,,,,,,,,
harvest,161,809587,0.0-46.0-4.0,"""event"",""trial"",""time""
""fullscreenenter"",""1"",""3808""
","
","
","""event"",""trial"",""time""
""fullscreenenter"",""1"",""3808""
","
",,null,run_exp/static/images/task_images/gems/99.jpg,null,,,,,,,79,,,15,,,,,99,0.80198313,0.797979798,,,,,,,
decision,162,812242,0.0-46.0-5.0,"""event"",""trial"",""time""
""fullscreenenter"",""1"",""3808""
","
","
","""event"",""trial"",""time""
""fullscreenenter"",""1"",""3808""
","
",,2651.8,run_exp/static/images/task_images/land.jpg,76,,,,,,,79,,,15,,,,,,,,286044,1,0,TRUE,,,
travel,163,819608,0.0-47.0-0.0,"""event"",""trial"",""time""
""fullscreenenter"",""1"",""3808""
","
","
","""event"",""trial"",""time""
""fullscreenenter"",""1"",""3808""
","
",,,,,,,,,,,,"[{""stimulus"":""run_exp/static/images/task_images/rocket-01.jpg"",""time"":0.30000000004656613},{""stimulus"":""run_exp/static/images/task_images/rocket-02.jpg"",""time"":819.5999999998603},{""stimulus"":""run_exp/static/images/task_images/rocket-03.jpg"",""time"":1641.8000000000466},{""stimulus"":""run_exp/static/images/task_images/rocket-04.jpg"",""time"":2457.8000000000466},{""stimulus"":""run_exp/static/images/task_images/rocket-05.jpg"",""time"":3278.399999999907},{""stimulus"":""run_exp/static/images/task_images/rocket-06.jpg"",""time"":4091.3000000000466},{""stimulus"":""run_exp/static/images/task_images/rocket-07.jpg"",""time"":4912.5},{""stimulus"":""run_exp/static/images/task_images/rocket-08.jpg"",""time"":5725.59999999986},{""stimulus"":""run_exp/static/images/task_images/rocket-09.jpg"",""time"":6530.59999999986}]",[],15,,,,,,,,,,,,,,
alien_welcome,164,824613,0.0-47.0-1.0,"""event"",""trial"",""time""
""fullscreenenter"",""1"",""3808""
","
","
","""event"",""trial"",""time""
""fullscreenenter"",""1"",""3808""
","
",,null,run_exp/static/images/task_images/aliens/old_aliens/planet/alien_planet-4.jpg,null,,,,,,,,,,,,,4,"11,17,65,34,78,60,68,8,39,54,20,76,13,41,2,4,73,40,35,45,61,22,19,21,69,46,47,55,16,12,26,18,42,62,29,75,1,71,64,70,38,15,53,63,31,32,66,58,72,79,52,30,7,56,27,14,74,6,33,28,67,23,25,44,48,77",,,,,,,,,,
land,165,825129,0.0-47.0-2.0,"""event"",""trial"",""time""
""fullscreenenter"",""1"",""3808""
","
","
","""event"",""trial"",""time""
""fullscreenenter"",""1"",""3808""
","
",,null,run_exp/static/images/task_images/land.jpg,null,,,,,,,97,,,16,,,,,,,,,,,,,,
dig,166,827137,0.0-47.0-3.0,"""event"",""trial"",""time""
""fullscreenenter"",""1"",""3808""
","
","
","""event"",""trial"",""time""
""fullscreenenter"",""1"",""3808""
","
",,,,,,,,,,,,"[{""stimulus"":""run_exp/static/images/task_images/dig.jpg"",""time"":0.5},{""stimulus"":""run_exp/static/images/task_images/land.jpg"",""time"":678.5},{""stimulus"":""run_exp/static/images/task_images/dig.jpg"",""time"":1338.5}]",[],16,,,,,,,,,,,,,,
harvest,167,828154,0.0-47.0-4.0,"""event"",""trial"",""time""
""fullscreenenter"",""1"",""3808""
","
","
","""event"",""trial"",""time""
""fullscreenenter"",""1"",""3808""
","
",,null,run_exp/static/images/task_images/gems/97.jpg,null,,,,,,,36,,,16,,,,,97,0.371135872,0.371134021,,,,,,,
decision,168,828159,0.0-47.0-5.0,"""event"",""trial"",""time""
""fullscreenenter"",""1"",""3808""
","
","
","""event"",""trial"",""time""
""fullscreenenter"",""1"",""3808""
","
",,3,run_exp/static/images/task_images/land.jpg,76,,,,,,,36,,,16,,,,,,,,301961,1,0,TRUE,,,
end_of_block_continue,169,837065,0.0-48.0-0.0,"""event"",""trial"",""time""
""fullscreenenter"",""1"",""3808""
","
","
","""event"",""trial"",""time""
""fullscreenenter"",""1"",""3808""
","
",,null,run_exp/static/audio/clip_32_block_end.m4a,,,,,,,null,,,,,,,,,,,,,,,,,,
alien_welcome,170,842089,0.0-49.0-0.0,"""event"",""trial"",""time""
""fullscreenenter"",""1"",""3808""
","
","
","""event"",""trial"",""time""
""fullscreenenter"",""1"",""3808""
","
",,null,run_exp/static/images/task_images/aliens/old_aliens/planet/alien_planet-73.jpg,null,,,,,,,,,,,,,73,"11,17,65,34,78,60,68,8,39,54,20,76,13,41,2,4,73,40,35,45,61,22,19,21,69,46,47,55,16,12,26,18,42,62,29,75,1,71,64,70,38,15,53,63,31,32,66,58,72,79,52,30,7,56,27,14,74,6,33,28,67,23,25,44,48,77",,,,,,,,,,
land,171,842604,0.0-49.0-1.0,"""event"",""trial"",""time""
""fullscreenenter"",""1"",""3808""
","
","
","""event"",""trial"",""time""
""fullscreenenter"",""1"",""3808""
","
",,null,run_exp/static/images/task_images/land.jpg,null,,,,,,,103,,,17,,,,,,,,,,,,,,
dig,172,844614,0.0-49.0-2.0,"""event"",""trial"",""time""
""fullscreenenter"",""1"",""3808""
","
","
","""event"",""trial"",""time""
""fullscreenenter"",""1"",""3808""
","
",,,,,,,,,,,,"[{""stimulus"":""run_exp/static/images/task_images/dig.jpg"",""time"":0.39999999990686774},{""stimulus"":""run_exp/static/images/task_images/land.jpg"",""time"":673.1000000000931},{""stimulus"":""run_exp/static/images/task_images/dig.jpg"",""time"":1345.8999999999069}]",[],17,,,,,,,,,,,,,,
harvest,173,845630,0.0-49.0-3.0,"""event"",""trial"",""time""
""fullscreenenter"",""1"",""3808""
","
","
","""event"",""trial"",""time""
""fullscreenenter"",""1"",""3808""
","
",,null,run_exp/static/images/task_images/gems/103.jpg,null,,,,,,,15,,,17,,,,,103,0.145684312,0.145631068,,,,,,,
decision,174,846476,0.0-49.0-4.0,"""event"",""trial"",""time""
""fullscreenenter"",""1"",""3808""
","
","
","""event"",""trial"",""time""
""fullscreenenter"",""1"",""3808""
","
",,843.1,run_exp/static/images/task_images/land.jpg,76,,,,,,,15,,,17,,,,,,,,9404,2,0,TRUE,,,
travel,175,855643,0.0-50.0-0.0,"""event"",""trial"",""time""
""fullscreenenter"",""1"",""3808""
","
","
","""event"",""trial"",""time""
""fullscreenenter"",""1"",""3808""
","
",,,,,,,,,,,,"[{""stimulus"":""run_exp/static/images/task_images/rocket-01.jpg"",""time"":0.2999999998137355},{""stimulus"":""run_exp/static/images/task_images/rocket-02.jpg"",""time"":1022},{""stimulus"":""run_exp/static/images/task_images/rocket-03.jpg"",""time"":2035.7999999998137},{""stimulus"":""run_exp/static/images/task_images/rocket-04.jpg"",""time"":3055.1999999999534},{""stimulus"":""run_exp/static/images/task_images/rocket-05.jpg"",""time"":4084.2999999998137},{""stimulus"":""run_exp/static/images/task_images/rocket-06.jpg"",""time"":5100.5},{""stimulus"":""run_exp/static/images/task_images/rocket-07.jpg"",""time"":6104.899999999907},{""stimulus"":""run_exp/static/images/task_images/rocket-08.jpg"",""time"":7130.5},{""stimulus"":""run_exp/static/images/task_images/rocket-09.jpg"",""time"":8142}]",[],17,,,,,,,,,,,,,,
alien_welcome,176,860657,0.0-50.0-1.0,"""event"",""trial"",""time""
""fullscreenenter"",""1"",""3808""
","
","
","""event"",""trial"",""time""
""fullscreenenter"",""1"",""3808""
","
",,null,run_exp/static/images/task_images/aliens/old_aliens/planet/alien_planet-40.jpg,null,,,,,,,,,,,,,40,"11,17,65,34,78,60,68,8,39,54,20,76,13,41,2,4,73,40,35,45,61,22,19,21,69,46,47,55,16,12,26,18,42,62,29,75,1,71,64,70,38,15,53,63,31,32,66,58,72,79,52,30,7,56,27,14,74,6,33,28,67,23,25,44,48,77",,,,,,,,,,
land,177,861162,0.0-50.0-2.0,"""event"",""trial"",""time""
""fullscreenenter"",""1"",""3808""
","
","
","""event"",""trial"",""time""
""fullscreenenter"",""1"",""3808""
","
",,null,run_exp/static/images/task_images/land.jpg,null,,,,,,,98,,,18,,,,,,,,,,,,,,
dig,178,863168,0.0-50.0-3.0,"""event"",""trial"",""time""
""fullscreenenter"",""1"",""3808""
","
","
","""event"",""trial"",""time""
""fullscreenenter"",""1"",""3808""
","
",,,,,,,,,,,,"[{""stimulus"":""run_exp/static/images/task_images/dig.jpg"",""time"":0.39999999990686774},{""stimulus"":""run_exp/static/images/task_images/land.jpg"",""time"":669.8999999999069},{""stimulus"":""run_exp/static/images/task_images/dig.jpg"",""time"":1343.3999999999069}]",[],18,,,,,,,,,,,,,,
harvest,179,864172,0.0-50.0-4.0,"""event"",""trial"",""time""
""fullscreenenter"",""1"",""3808""
","
","
","""event"",""trial"",""time""
""fullscreenenter"",""1"",""3808""
","
",,null,run_exp/static/images/task_images/gems/98.jpg,null,,,,,,,23,,,18,,,,,98,0.239710423,0.234693878,,,,,,,
decision,180,864194,0.0-50.0-5.0,"""event"",""trial"",""time""
""fullscreenenter"",""1"",""3808""
","
","
","""event"",""trial"",""time""
""fullscreenenter"",""1"",""3808""
","
",,19,run_exp/static/images/task_images/land.jpg,76,,,,,,,23,,,18,,,,,,,,27122,2,0,TRUE,,,
travel,181,874181,0.0-51.0-0.0,"""event"",""trial"",""time""
""fullscreenenter"",""1"",""3808""
","
","
","""event"",""trial"",""time""
""fullscreenenter"",""1"",""3808""
","
",,,,,,,,,,,,"[{""stimulus"":""run_exp/static/images/task_images/rocket-01.jpg"",""time"":0.10000000009313226},{""stimulus"":""run_exp/static/images/task_images/rocket-02.jpg"",""time"":1118.2000000001863},{""stimulus"":""run_exp/static/images/task_images/rocket-03.jpg"",""time"":2231},{""stimulus"":""run_exp/static/images/task_images/rocket-04.jpg"",""time"":3330},{""stimulus"":""run_exp/static/images/task_images/rocket-05.jpg"",""time"":4450.600000000093},{""stimulus"":""run_exp/static/images/task_images/rocket-06.jpg"",""time"":5548.800000000047},{""stimulus"":""run_exp/static/images/task_images/rocket-07.jpg"",""time"":6668},{""stimulus"":""run_exp/static/images/task_images/rocket-08.jpg"",""time"":7764.300000000047},{""stimulus"":""run_exp/static/images/task_images/rocket-09.jpg"",""time"":8883.200000000186}]",[],18,,,,,,,,,,,,,,
alien_welcome,182,879193,0.0-51.0-1.0,"""event"",""trial"",""time""
""fullscreenenter"",""1"",""3808""
","
","
","""event"",""trial"",""time""
""fullscreenenter"",""1"",""3808""
","
",,null,run_exp/static/images/task_images/aliens/old_aliens/planet/alien_planet-35.jpg,null,,,,,,,,,,,,,35,"11,17,65,34,78,60,68,8,39,54,20,76,13,41,2,4,73,40,35,45,61,22,19,21,69,46,47,55,16,12,26,18,42,62,29,75,1,71,64,70,38,15,53,63,31,32,66,58,72,79,52,30,7,56,27,14,74,6,33,28,67,23,25,44,48,77",,,,,,,,,,
land,183,879711,0.0-51.0-2.0,"""event"",""trial"",""time""
""fullscreenenter"",""1"",""3808""
","
","
","""event"",""trial"",""time""
""fullscreenenter"",""1"",""3808""
","
",,null,run_exp/static/images/task_images/land.jpg,null,,,,,,,99,,,19,,,,,,,,,,,,,,
dig,184,881722,0.0-51.0-3.0,"""event"",""trial"",""time""
""fullscreenenter"",""1"",""3808""
","
","
","""event"",""trial"",""time""
""fullscreenenter"",""1"",""3808""
","
",,,,,,,,,,,,"[{""stimulus"":""run_exp/static/images/task_images/dig.jpg"",""time"":0.10000000009313226},{""stimulus"":""run_exp/static/images/task_images/land.jpg"",""time"":678.3000000000466},{""stimulus"":""run_exp/static/images/task_images/dig.jpg"",""time"":1336.1000000000931}]",[],19,,,,,,,,,,,,,,
harvest,185,882724,0.0-51.0-4.0,"""event"",""trial"",""time""
""fullscreenenter"",""1"",""3808""
","
","
","""event"",""trial"",""time""
""fullscreenenter"",""1"",""3808""
","
",,null,run_exp/static/images/task_images/gems/99.jpg,null,,,,,,,33,,,19,,,,,99,0.328666623,0.333333333,,,,,,,
decision,186,884795,0.0-51.0-5.0,"""event"",""trial"",""time""
""fullscreenenter"",""1"",""3808""
","
","
","""event"",""trial"",""time""
""fullscreenenter"",""1"",""3808""
","
",,2068.6,run_exp/static/images/task_images/land.jpg,76,,,,,,,33,,,19,,,,,,,,47723,2,0,TRUE,,,
travel,187,892741,0.0-52.0-0.0,"""event"",""trial"",""time""
""fullscreenenter"",""1"",""3808""
","
","
","""event"",""trial"",""time""
""fullscreenenter"",""1"",""3808""
","
",,,,,,,,,,,,"[{""stimulus"":""run_exp/static/images/task_images/rocket-01.jpg"",""time"":0},{""stimulus"":""run_exp/static/images/task_images/rocket-02.jpg"",""time"":894.7999999998137},{""stimulus"":""run_exp/static/images/task_images/rocket-03.jpg"",""time"":1774.5},{""stimulus"":""run_exp/static/images/task_images/rocket-04.jpg"",""time"":2650},{""stimulus"":""run_exp/static/images/task_images/rocket-05.jpg"",""time"":3529.399999999907},{""stimulus"":""run_exp/static/images/task_images/rocket-06.jpg"",""time"":4407.299999999814},{""stimulus"":""run_exp/static/images/task_images/rocket-07.jpg"",""time"":5292.899999999907},{""stimulus"":""run_exp/static/images/task_images/rocket-08.jpg"",""time"":6172.699999999953},{""stimulus"":""run_exp/static/images/task_images/rocket-09.jpg"",""time"":7057.799999999814}]",[],19,,,,,,,,,,,,,,
alien_welcome,188,897749,0.0-52.0-1.0,"""event"",""trial"",""time""
""fullscreenenter"",""1"",""3808""
","
","
","""event"",""trial"",""time""
""fullscreenenter"",""1"",""3808""
","
",,null,run_exp/static/images/task_images/aliens/old_aliens/planet/alien_planet-45.jpg,null,,,,,,,,,,,,,45,"11,17,65,34,78,60,68,8,39,54,20,76,13,41,2,4,73,40,35,45,61,22,19,21,69,46,47,55,16,12,26,18,42,62,29,75,1,71,64,70,38,15,53,63,31,32,66,58,72,79,52,30,7,56,27,14,74,6,33,28,67,23,25,44,48,77",,,,,,,,,,
land,189,898262,0.0-52.0-2.0,"""event"",""trial"",""time""
""fullscreenenter"",""1"",""3808""
","
","
","""event"",""trial"",""time""
""fullscreenenter"",""1"",""3808""
","
",,null,run_exp/static/images/task_images/land.jpg,null,,,,,,,102,,,20,,,,,,,,,,,,,,
dig,190,900275,0.0-52.0-3.0,"""event"",""trial"",""time""
""fullscreenenter"",""1"",""3808""
","
","
","""event"",""trial"",""time""
""fullscreenenter"",""1"",""3808""
","
",,,,,,,,,,,,"[{""stimulus"":""run_exp/static/images/task_images/dig.jpg"",""time"":0.5},{""stimulus"":""run_exp/static/images/task_images/land.jpg"",""time"":669},{""stimulus"":""run_exp/static/images/task_images/dig.jpg"",""time"":1346.6000000000931}]",[],20,,,,,,,,,,,,,,
harvest,191,901285,0.0-52.0-4.0,"""event"",""trial"",""time""
""fullscreenenter"",""1"",""3808""
","
","
","""event"",""trial"",""time""
""fullscreenenter"",""1"",""3808""
","
",,null,run_exp/static/images/task_images/gems/102.jpg,null,,,,,,,75,,,20,,,,,102,0.736576732,0.735294118,,,,,,,
decision,192,904299,0.0-52.0-5.0,"""event"",""trial"",""time""
""fullscreenenter"",""1"",""3808""
","
","
","""event"",""trial"",""time""
""fullscreenenter"",""1"",""3808""
","
",,null,run_exp/static/images/task_images/land.jpg,null,,,,,,,75,,,20,,,,,,,,67228,2,0,FALSE,,,
time_out,193,906311,0.0-53.0-0.0,"""event"",""trial"",""time""
""fullscreenenter"",""1"",""3808""
","
","
","""event"",""trial"",""time""
""fullscreenenter"",""1"",""3808""
","
",,null,run_exp/static/images/task_images/time_out.jpg,null,,,,,,,75,,,,,,,,,,,,,,,,,
decision,194,909108,0.0-53.0-1.0,"""event"",""trial"",""time""
""fullscreenenter"",""1"",""3808""
","
","
","""event"",""trial"",""time""
""fullscreenenter"",""1"",""3808""
","
",,2794.3,run_exp/static/images/task_images/land.jpg,76,,,,,,,75,,,20,,,,,,,,72036,2,0,TRUE,,,
travel,195,916326,0.0-54.0-0.0,"""event"",""trial"",""time""
""fullscreenenter"",""1"",""3808""
","
","
","""event"",""trial"",""time""
""fullscreenenter"",""1"",""3808""
","
",,,,,,,,,,,,"[{""stimulus"":""run_exp/static/images/task_images/rocket-01.jpg"",""time"":0.5},{""stimulus"":""run_exp/static/images/task_images/rocket-02.jpg"",""time"":803.6000000000931},{""stimulus"":""run_exp/static/images/task_images/rocket-03.jpg"",""time"":1614.3000000000466},{""stimulus"":""run_exp/static/images/task_images/rocket-04.jpg"",""time"":2404.4000000001397},{""stimulus"":""run_exp/static/images/task_images/rocket-05.jpg"",""time"":3208.9000000001397},{""stimulus"":""run_exp/static/images/task_images/rocket-06.jpg"",""time"":4003.8000000000466},{""stimulus"":""run_exp/static/images/task_images/rocket-07.jpg"",""time"":4808.5},{""stimulus"":""run_exp/static/images/task_images/rocket-08.jpg"",""time"":5608.800000000047},{""stimulus"":""run_exp/static/images/task_images/rocket-09.jpg"",""time"":6410.100000000093}]",[],20,,,,,,,,,,,,,,
alien_welcome,196,921342,0.0-54.0-1.0,"""event"",""trial"",""time""
""fullscreenenter"",""1"",""3808""
","
","
","""event"",""trial"",""time""
""fullscreenenter"",""1"",""3808""
","
",,null,run_exp/static/images/task_images/aliens/old_aliens/planet/alien_planet-61.jpg,null,,,,,,,,,,,,,61,"11,17,65,34,78,60,68,8,39,54,20,76,13,41,2,4,73,40,35,45,61,22,19,21,69,46,47,55,16,12,26,18,42,62,29,75,1,71,64,70,38,15,53,63,31,32,66,58,72,79,52,30,7,56,27,14,74,6,33,28,67,23,25,44,48,77",,,,,,,,,,
land,197,921859,0.0-54.0-2.0,"""event"",""trial"",""time""
""fullscreenenter"",""1"",""3808""
","
","
","""event"",""trial"",""time""
""fullscreenenter"",""1"",""3808""
","
",,null,run_exp/static/images/task_images/land.jpg,null,,,,,,,108,,,21,,,,,,,,,,,,,,
dig,198,923874,0.0-54.0-3.0,"""event"",""trial"",""time""
""fullscreenenter"",""1"",""3808""
","
","
","""event"",""trial"",""time""
""fullscreenenter"",""1"",""3808""
","
",,,,,,,,,,,,"[{""stimulus"":""run_exp/static/images/task_images/dig.jpg"",""time"":0.20000000018626451},{""stimulus"":""run_exp/static/images/task_images/land.jpg"",""time"":682.3000000000466},{""stimulus"":""run_exp/static/images/task_images/dig.jpg"",""time"":1337.1000000000931}]",[],21,,,,,,,,,,,,,,
harvest,199,924883,0.0-54.0-4.0,"""event"",""trial"",""time""
""fullscreenenter"",""1"",""3808""
","
","
","""event"",""trial"",""time""
""fullscreenenter"",""1"",""3808""
","
",,null,run_exp/static/images/task_images/gems/108.jpg,null,,,,,,,70,,,21,,,,,108,0.646316514,0.648148148,,,,,,,
decision,200,926605,0.0-54.0-5.0,"""event"",""trial"",""time""
""fullscreenenter"",""1"",""3808""
","
","
","""event"",""trial"",""time""
""fullscreenenter"",""1"",""3808""
","
",,1719.2,run_exp/static/images/task_images/land.jpg,76,,,,,,,70,,,21,,,,,,,,89533,2,0,TRUE,,,
travel,201,934896,0.0-55.0-0.0,"""event"",""trial"",""time""
""fullscreenenter"",""1"",""3808""
","
","
","""event"",""trial"",""time""
""fullscreenenter"",""1"",""3808""
","
",,,,,,,,,,,,"[{""stimulus"":""run_exp/static/images/task_images/rocket-01.jpg"",""time"":0.09999999986030161},{""stimulus"":""run_exp/static/images/task_images/rocket-02.jpg"",""time"":922.0999999998603},{""stimulus"":""run_exp/static/images/task_images/rocket-03.jpg"",""time"":1856.5999999998603},{""stimulus"":""run_exp/static/images/task_images/rocket-04.jpg"",""time"":2767.7999999998137},{""stimulus"":""run_exp/static/images/task_images/rocket-05.jpg"",""time"":3683.5999999998603},{""stimulus"":""run_exp/static/images/task_images/rocket-06.jpg"",""time"":4614.799999999814},{""stimulus"":""run_exp/static/images/task_images/rocket-07.jpg"",""time"":5525.699999999953},{""stimulus"":""run_exp/static/images/task_images/rocket-08.jpg"",""time"":6454.799999999814},{""stimulus"":""run_exp/static/images/task_images/rocket-09.jpg"",""time"":7362.399999999907}]",[],21,,,,,,,,,,,,,,
alien_welcome,202,939909,0.0-55.0-1.0,"""event"",""trial"",""time""
""fullscreenenter"",""1"",""3808""
","
","
","""event"",""trial"",""time""
""fullscreenenter"",""1"",""3808""
","
",,null,run_exp/static/images/task_images/aliens/old_aliens/planet/alien_planet-22.jpg,null,,,,,,,,,,,,,22,"11,17,65,34,78,60,68,8,39,54,20,76,13,41,2,4,73,40,35,45,61,22,19,21,69,46,47,55,16,12,26,18,42,62,29,75,1,71,64,70,38,15,53,63,31,32,66,58,72,79,52,30,7,56,27,14,74,6,33,28,67,23,25,44,48,77",,,,,,,,,,
land,203,940426,0.0-55.0-2.0,"""event"",""trial"",""time""
""fullscreenenter"",""1"",""3808""
","
","
","""event"",""trial"",""time""
""fullscreenenter"",""1"",""3808""
","
",,null,run_exp/static/images/task_images/land.jpg,null,,,,,,,94,,,22,,,,,,,,,,,,,,
dig,204,942445,0.0-55.0-3.0,"""event"",""trial"",""time""
""fullscreenenter"",""1"",""3808""
","
","
","""event"",""trial"",""time""
""fullscreenenter"",""1"",""3808""
","
",,,,,,,,,,,,"[{""stimulus"":""run_exp/static/images/task_images/dig.jpg"",""time"":0.39999999990686774},{""stimulus"":""run_exp/static/images/task_images/land.jpg"",""time"":673.5},{""stimulus"":""run_exp/static/images/task_images/dig.jpg"",""time"":1339.1999999999534}]",[],22,,,,,,,,,,,,,,
harvest,205,943460,0.0-55.0-4.0,"""event"",""trial"",""time""
""fullscreenenter"",""1"",""3808""
","
","
","""event"",""trial"",""time""
""fullscreenenter"",""1"",""3808""
","
",,null,run_exp/static/images/task_images/gems/94.jpg,null,,,,,,,76,,,22,,,,,94,0.809401799,0.808510638,,,,,,,
decision,206,943635,0.0-55.0-5.0,"""event"",""trial"",""time""
""fullscreenenter"",""1"",""3808""
","
","
","""event"",""trial"",""time""
""fullscreenenter"",""1"",""3808""
","
",,172.7,run_exp/static/images/task_images/land.jpg,76,,,,,,,76,,,22,,,,,,,,106563,2,0,TRUE,,,
travel,207,953476,0.0-56.0-0.0,"""event"",""trial"",""time""
""fullscreenenter"",""1"",""3808""
","
","
","""event"",""trial"",""time""
""fullscreenenter"",""1"",""3808""
","
",,,,,,,,,,,,"[{""stimulus"":""run_exp/static/images/task_images/rocket-01.jpg"",""time"":0.19999999995343387},{""stimulus"":""run_exp/static/images/task_images/rocket-02.jpg"",""time"":1105.8000000000466},{""stimulus"":""run_exp/static/images/task_images/rocket-03.jpg"",""time"":2194.600000000093},{""stimulus"":""run_exp/static/images/task_images/rocket-04.jpg"",""time"":3279.1999999999534},{""stimulus"":""run_exp/static/images/task_images/rocket-05.jpg"",""time"":4378.40000000014},{""stimulus"":""run_exp/static/images/task_images/rocket-06.jpg"",""time"":5468.600000000093},{""stimulus"":""run_exp/static/images/task_images/rocket-07.jpg"",""time"":6555.199999999953},{""stimulus"":""run_exp/static/images/task_images/rocket-08.jpg"",""time"":7642.199999999953},{""stimulus"":""run_exp/static/images/task_images/rocket-09.jpg"",""time"":8733.699999999953}]",[],22,,,,,,,,,,,,,,
alien_welcome,208,958486,0.0-56.0-1.0,"""event"",""trial"",""time""
""fullscreenenter"",""1"",""3808""
","
","
","""event"",""trial"",""time""
""fullscreenenter"",""1"",""3808""
","
",,null,run_exp/static/images/task_images/aliens/old_aliens/planet/alien_planet-19.jpg,null,,,,,,,,,,,,,19,"11,17,65,34,78,60,68,8,39,54,20,76,13,41,2,4,73,40,35,45,61,22,19,21,69,46,47,55,16,12,26,18,42,62,29,75,1,71,64,70,38,15,53,63,31,32,66,58,72,79,52,30,7,56,27,14,74,6,33,28,67,23,25,44,48,77",,,,,,,,,,
land,209,958991,0.0-56.0-2.0,"""event"",""trial"",""time""
""fullscreenenter"",""1"",""3808""
","
","
","""event"",""trial"",""time""
""fullscreenenter"",""1"",""3808""
","
",,null,run_exp/static/images/task_images/land.jpg,null,,,,,,,101,,,23,,,,,,,,,,,,,,
dig,210,960997,0.0-56.0-3.0,"""event"",""trial"",""time""
""fullscreenenter"",""1"",""3808""
","
","
","""event"",""trial"",""time""
""fullscreenenter"",""1"",""3808""
","
",,,,,,,,,,,,"[{""stimulus"":""run_exp/static/images/task_images/dig.jpg"",""time"":0.5},{""stimulus"":""run_exp/static/images/task_images/land.jpg"",""time"":681.6999999999534},{""stimulus"":""run_exp/static/images/task_images/dig.jpg"",""time"":1342.8000000000466}]",[],23,,,,,,,,,,,,,,
harvest,211,962002,0.0-56.0-4.0,"""event"",""trial"",""time""
""fullscreenenter"",""1"",""3808""
","
","
","""event"",""trial"",""time""
""fullscreenenter"",""1"",""3808""
","
",,null,run_exp/static/images/task_images/gems/101.jpg,null,,,,,,,81,,,23,,,,,101,0.804574702,0.801980198,,,,,,,
decision,212,964667,0.0-56.0-5.0,"""event"",""trial"",""time""
""fullscreenenter"",""1"",""3808""
","
","
","""event"",""trial"",""time""
""fullscreenenter"",""1"",""3808""
","
",,2662.7,run_exp/static/images/task_images/land.jpg,76,,,,,,,81,,,23,,,,,,,,127595,2,0,TRUE,,,
travel,213,972007,0.0-57.0-0.0,"""event"",""trial"",""time""
""fullscreenenter"",""1"",""3808""
","
","
","""event"",""trial"",""time""
""fullscreenenter"",""1"",""3808""
","
",,,,,,,,,,,,"[{""stimulus"":""run_exp/static/images/task_images/rocket-01.jpg"",""time"":0},{""stimulus"":""run_exp/static/images/task_images/rocket-02.jpg"",""time"":816.6999999999534},{""stimulus"":""run_exp/static/images/task_images/rocket-03.jpg"",""time"":1638.3999999999069},{""stimulus"":""run_exp/static/images/task_images/rocket-04.jpg"",""time"":2451.399999999907},{""stimulus"":""run_exp/static/images/task_images/rocket-05.jpg"",""time"":3272.7999999998137},{""stimulus"":""run_exp/static/images/task_images/rocket-06.jpg"",""time"":4089.7999999998137},{""stimulus"":""run_exp/static/images/task_images/rocket-07.jpg"",""time"":4897.299999999814},{""stimulus"":""run_exp/static/images/task_images/rocket-08.jpg"",""time"":5720.59999999986},{""stimulus"":""run_exp/static/images/task_images/rocket-09.jpg"",""time"":6522.699999999953}]",[],23,,,,,,,,,,,,,,
alien_welcome,214,977015,0.0-57.0-1.0,"""event"",""trial"",""time""
""fullscreenenter"",""1"",""3808""
","
","
","""event"",""trial"",""time""
""fullscreenenter"",""1"",""3808""
","
",,null,run_exp/static/images/task_images/aliens/old_aliens/planet/alien_planet-21.jpg,null,,,,,,,,,,,,,21,"11,17,65,34,78,60,68,8,39,54,20,76,13,41,2,4,73,40,35,45,61,22,19,21,69,46,47,55,16,12,26,18,42,62,29,75,1,71,64,70,38,15,53,63,31,32,66,58,72,79,52,30,7,56,27,14,74,6,33,28,67,23,25,44,48,77",,,,,,,,,,
land,215,977524,0.0-57.0-2.0,"""event"",""trial"",""time""
""fullscreenenter"",""1"",""3808""
","
","
","""event"",""trial"",""time""
""fullscreenenter"",""1"",""3808""
","
",,null,run_exp/static/images/task_images/land.jpg,null,,,,,,,103,,,24,,,,,,,,,,,,,,
dig,216,979543,0.0-57.0-3.0,"""event"",""trial"",""time""
""fullscreenenter"",""1"",""3808""
","
","
","""event"",""trial"",""time""
""fullscreenenter"",""1"",""3808""
","
",,,,,,,,,,,,"[{""stimulus"":""run_exp/static/images/task_images/dig.jpg"",""time"":0.19999999995343387},{""stimulus"":""run_exp/static/images/task_images/land.jpg"",""time"":681.6999999999534},{""stimulus"":""run_exp/static/images/task_images/dig.jpg"",""time"":1337.1999999999534}]",[],24,,,,,,,,,,,,,,
harvest,217,980553,0.0-57.0-4.0,"""event"",""trial"",""time""
""fullscreenenter"",""1"",""3808""
","
","
","""event"",""trial"",""time""
""fullscreenenter"",""1"",""3808""
","
",,null,run_exp/static/images/task_images/gems/103.jpg,null,,,,,,,83,,,24,,,,,103,0.808544625,0.805825243,,,,,,,
decision,218,981403,0.0-57.0-5.0,"""event"",""trial"",""time""
""fullscreenenter"",""1"",""3808""
","
","
","""event"",""trial"",""time""
""fullscreenenter"",""1"",""3808""
","
",,849,run_exp/static/images/task_images/land.jpg,76,,,,,,,83,,,24,,,,,,,,144331,2,0,TRUE,,,
travel,219,990565,0.0-58.0-0.0,"""event"",""trial"",""time""
""fullscreenenter"",""1"",""3808""
","
","
","""event"",""trial"",""time""
""fullscreenenter"",""1"",""3808""
","
",,,,,,,,,,,,"[{""stimulus"":""run_exp/static/images/task_images/rocket-01.jpg"",""time"":0.10000000009313226},{""stimulus"":""run_exp/static/images/task_images/rocket-02.jpg"",""time"":1023.8000000000466},{""stimulus"":""run_exp/static/images/task_images/rocket-03.jpg"",""time"":2047.1999999999534},{""stimulus"":""run_exp/static/images/task_images/rocket-04.jpg"",""time"":3054.5},{""stimulus"":""run_exp/static/images/task_images/rocket-05.jpg"",""time"":4074.8000000000466},{""stimulus"":""run_exp/static/images/task_images/rocket-06.jpg"",""time"":5081.199999999953},{""stimulus"":""run_exp/static/images/task_images/rocket-07.jpg"",""time"":6101.800000000047},{""stimulus"":""run_exp/static/images/task_images/rocket-08.jpg"",""time"":7128.800000000047},{""stimulus"":""run_exp/static/images/task_images/rocket-09.jpg"",""time"":8134.100000000093}]",[],24,,,,,,,,,,,,,,
alien_welcome,220,995579,0.0-58.0-1.0,"""event"",""trial"",""time""
""fullscreenenter"",""1"",""3808""
","
","
","""event"",""trial"",""time""
""fullscreenenter"",""1"",""3808""
","
