trial_type,trial_index,time_elapsed,internal_node_id,interactions,blur_events,focus_events,fullscreenenter_events,fullscreenexit_events,success,rt,stimulus,key_press,prompt,subject_id,participant_id,age,gender,button_pressed,next_reward,animation_sequence,responses,planet,curr_prac_trial,n_prac_rounds,alien,aliens,reward_received,decay_rate_actual,decay_rate_exp,time_in_block,block_num,prt,last_trial_on_planet,button_html,bonus,num_failures
pavlovia,0,6,0.0-0.0,"""event"",""trial"",""time""
""fullscreenenter"",""1"",""4713""
","
","
","""event"",""trial"",""time""
""fullscreenenter"",""1"",""4713""
","
",,,,,,,,,,,,,,,,,,,,,,,,,,,,
fullscreen,1,5699,0.0-1.0,"""event"",""trial"",""time""
""fullscreenenter"",""1"",""4713""
","
","
","""event"",""trial"",""time""
""fullscreenenter"",""1"",""4713""
","
",TRUE,,,,,,,,,,,,,,,,,,,,,,,,,,,
instruc_welcome,2,15587,0.0-2.0,"""event"",""trial"",""time""
""fullscreenenter"",""1"",""4713""
","
","
","""event"",""trial"",""time""
""fullscreenenter"",""1"",""4713""
","
",,null,run_exp/static/audio/clip_1_welcome.m4a,null,"<p>Howdy! In this experiment, you’ll be an explorer traveling through space to collect space treasure.</p><p>Your mission is to collect as much treasure as possible.</p><br><br><p><img src='run_exp/static/images/task_images/opening_img-01.jpg' height='300' width='auto'></p>",12620,1339,11.64,Male,,,,,,,,,,,,,,,,,,,
audio-keyboard-response,3,32245,0.0-3.0,"""event"",""trial"",""time""
""fullscreenenter"",""1"",""4713""
","
","
","""event"",""trial"",""time""
""fullscreenenter"",""1"",""4713""
","
",,null,run_exp/static/audio/clip_2_move.m4a,null,,,,,,,,,,,,,,,,,,,,,,,,
welcome_dec,4,36889,0.0-4.0,"""event"",""trial"",""time""
""fullscreenenter"",""1"",""4713""
","
","
","""event"",""trial"",""time""
""fullscreenenter"",""1"",""4713""
","
",,4637.8,"<p>Howdy! In this experiment, you’ll be an explorer traveling through space to collect space treasure.</p><p>Your mission is to collect as much treasure as possible.</p><br><br><p><img src='run_exp/static/images/task_images/opening_img-01.jpg' height='300' width='auto'></p>",,,,,,,1,,,,,,,,,,,,,,,,,,
html-keyboard-response,5,39184,0.0-5.0,"""event"",""trial"",""time""
""fullscreenenter"",""1"",""4713""
","
","
","""event"",""trial"",""time""
""fullscreenenter"",""1"",""4713""
","
",,2291.2,"<p>Howdy! In this experiment, you’ll be an explorer traveling through space to collect space treasure.</p><p>Your mission is to collect as much treasure as possible.</p><br><br><p><img src='run_exp/static/images/task_images/opening_img-01.jpg' height='300' width='auto'></p><button class=""jspsych-html-btn-unchosen""><img src=""run_exp/static/images/task_images/planet-01.jpg"" height=""50""></button><button class=""jspsych-html-btn-chosen""><img src=""run_exp/static/images/task_images/planet-02.jpg"" height=""50""></button><p><b>[press the space bar to lock in your answer]<b><br></p>",32,,,,,,,,,,,,,,,,,,,,,,,,
instruc_goal,6,49310,0.0-6.0-0.0,"""event"",""trial"",""time""
""fullscreenenter"",""1"",""4713""
","
","
","""event"",""trial"",""time""
""fullscreenenter"",""1"",""4713""
","
",,null,run_exp/static/audio/clip_3_goal.m4a,null,"<p> As a space explorer, you’ll visit different planets to dig for space treasure, these pink gems.</p> <p> The more treasure you dig up, the more bonus money you’ll win! </p><br><br><p><img src='run_exp/static/images/task_images/pink_gem.jpg' height='300' width='auto'></p>",,,,,,,,,,,,,,,,,,,,,,,
instruc_goal,7,51204,0.0-6.0-1.0,"""event"",""trial"",""time""
""fullscreenenter"",""1"",""4713""
","
","
","""event"",""trial"",""time""
""fullscreenenter"",""1"",""4713""
","
",,1890,"<p> As a space explorer, you’ll visit different planets to dig for space treasure, these pink gems.</p> <p> The more treasure you dig up, the more bonus money you’ll win! </p><br><br><p><img src='run_exp/static/images/task_images/pink_gem.jpg' height='300' width='auto'></p>",,,,,,,1,,,,,,,,,,,,,,,,,,
html-keyboard-response,8,51628,0.0-6.0-2.0,"""event"",""trial"",""time""
""fullscreenenter"",""1"",""4713""
","
","
","""event"",""trial"",""time""
""fullscreenenter"",""1"",""4713""
","
",,422.1,"<p> As a space explorer, you’ll visit different planets to dig for space treasure, these pink gems.</p> <p> The more treasure you dig up, the more bonus money you’ll win! </p><br><br><p><img src='run_exp/static/images/task_images/pink_gem.jpg' height='300' width='auto'></p><button class=""jspsych-html-btn-unchosen""><img src=""run_exp/static/images/task_images/planet-01.jpg"" height=""50""></button><button class=""jspsych-html-btn-chosen""><img src=""run_exp/static/images/task_images/planet-02.jpg"" height=""50""></button><p><b>[press the space bar to lock in your answer]<b><br></p>",32,,,,,,,,,,,,,,,,,,,,,,,,
instruc_dig,9,67719,0.0-7.0-0.0,"""event"",""trial"",""time""
""fullscreenenter"",""1"",""4713""
","
","
","""event"",""trial"",""time""
""fullscreenenter"",""1"",""4713""
","
",,null,run_exp/static/audio/clip_4_dig.m4a,null,,,,,,,100,,,,,,,,,,,,,,,,,
instruc_dig_try,10,92040,0.0-7.0-1.0,"""event"",""trial"",""time""
""fullscreenenter"",""1"",""4713""
","
","
","""event"",""trial"",""time""
""fullscreenenter"",""1"",""4713""
","
",,24318.6,"<p> When you’ve arrived at a new planet, you will dig once. </p> <p>Then, you get to decide if you want to stay on the planet and dig again or travel to a new planet and dig there.</p> <p> To stay and dig, press the letter <strong>‘A’</strong> on your keyboard. Try pressing it now! </p><p><img src='run_exp/static/images/task_images/land.jpg'  height='700' width='auto'></p>",65,"<p> When you’ve arrived at a new planet, you will dig once. </p> <p>Then, you get to decide if you want to stay on the planet and dig again or travel to a new planet and dig there.</p> <p> To stay and dig, press the letter <strong>‘A’</strong> on your keyboard. Try pressing it now! </p><p><img src='run_exp/static/images/task_images/land.jpg'  height='700' width='auto'></p>",,,,,,100,,,,,,,,,,,,,,,,,
dig_prac,11,94055,0.0-7.0-2.0,"""event"",""trial"",""time""
""fullscreenenter"",""1"",""4713""
","
","
","""event"",""trial"",""time""
""fullscreenenter"",""1"",""4713""
","
",,,,,,,,,,,,"[{""stimulus"":""run_exp/static/images/task_images/dig.jpg"",""time"":0.5},{""stimulus"":""run_exp/static/images/task_images/land.jpg"",""time"":672.2999999970198},{""stimulus"":""run_exp/static/images/task_images/dig.jpg"",""time"":1339.7999999970198}]",[],,,,,,,,,,,,,,,
instruc_travel,12,130359,0.0-7.0-3.0,"""event"",""trial"",""time""
""fullscreenenter"",""1"",""4713""
","
","
","""event"",""trial"",""time""
""fullscreenenter"",""1"",""4713""
","
",,null,run_exp/static/audio/clip_5_travel.m4a,null,"<p>Every time you dig up gems, there are less gems on the planet, so the more you dig on a planet the fewer gems you’ll get with each dig.</p><p>When gems are running low, you may want to travel to a new planet. </p> <p>  Planets are very far apart in this galaxy, so it will take some time to travel between them. </p> <br><p>There are lots and lots of planets for you to visit, so you won’t be able to return to any planets you’ve seen before. </p><br><p>To leave this planet and travel to a new one, press the letter <strong>‘L’</strong> on your keyboard. Try pressing it now! </p><p><img src='run_exp/static/images/task_images/rocket-01.jpg'  height='600' width='auto'></p>",,,,,,,,,,,,,,,,,,,,,,,
instruc_travel_try,13,146517,0.0-7.0-4.0,"""event"",""trial"",""time""
""fullscreenenter"",""1"",""4713""
","
","
","""event"",""trial"",""time""
""fullscreenenter"",""1"",""4713""
","
",,16156.5,"<p>Every time you dig up gems, there are less gems on the planet, so the more you dig on a planet the fewer gems you’ll get with each dig.</p><p>When gems are running low, you may want to travel to a new planet. </p> <p>  Planets are very far apart in this galaxy, so it will take some time to travel between them. </p> <br><p>There are lots and lots of planets for you to visit, so you won’t be able to return to any planets you’ve seen before. </p><br><p>To leave this planet and travel to a new one, press the letter <strong>‘L’</strong> on your keyboard. Try pressing it now! </p><p><img src='run_exp/static/images/task_images/rocket-01.jpg'  height='600' width='auto'></p>",76,"<p>Every time you dig up gems, there are less gems on the planet, so the more you dig on a planet the fewer gems you’ll get with each dig.</p><p>When gems are running low, you may want to travel to a new planet. </p> <p>  Planets are very far apart in this galaxy, so it will take some time to travel between them. </p> <br><p>There are lots and lots of planets for you to visit, so you won’t be able to return to any planets you’ve seen before. </p><br><p>To leave this planet and travel to a new one, press the letter <strong>‘L’</strong> on your keyboard. Try pressing it now! </p><p><img src='run_exp/static/images/task_images/rocket-01.jpg'  height='600' width='auto'></p>",,,,,,,,,,,,,,,,,,,,,,,
travel_prac,14,156521,0.0-7.0-5.0,"""event"",""trial"",""time""
""fullscreenenter"",""1"",""4713""
","
","
","""event"",""trial"",""time""
""fullscreenenter"",""1"",""4713""
","
",,,,,,,,,,,,"[{""stimulus"":""run_exp/static/images/task_images/rocket-01.jpg"",""time"":0.20000000298023224},{""stimulus"":""run_exp/static/images/task_images/rocket-02.jpg"",""time"":1113.7000000029802},{""stimulus"":""run_exp/static/images/task_images/rocket-03.jpg"",""time"":2226.7000000029802},{""stimulus"":""run_exp/static/images/task_images/rocket-04.jpg"",""time"":3340},{""stimulus"":""run_exp/static/images/task_images/rocket-05.jpg"",""time"":4451.70000000298},{""stimulus"":""run_exp/static/images/task_images/rocket-06.jpg"",""time"":5556.0999999940395},{""stimulus"":""run_exp/static/images/task_images/rocket-07.jpg"",""time"":6672.29999999702},{""stimulus"":""run_exp/static/images/task_images/rocket-08.jpg"",""time"":7781.5999999940395},{""stimulus"":""run_exp/static/images/task_images/rocket-09.jpg"",""time"":8890.40000000596}]",[],0,,,,,,,,,,,,,,
instruc_alien_greet,15,183779,0.0-7.0-6.0,"""event"",""trial"",""time""
""fullscreenenter"",""1"",""4713""
","
","
","""event"",""trial"",""time""
""fullscreenenter"",""1"",""4713""
","
",,null,run_exp/static/audio/clip_6_alien.m4a,null,"<p>When you arrive at a new planet, the alien who owns the treasure mine on that planet will greet you!</p><p>The better an alien takes care of their mine the easier it is to dig for gems. Some aliens take better care of their mine than others. So, you won’t get exactly the same amount of gems on each planet.</p><p>What the alien looks like does not tell you anything about how many gems there are on the planet.</p><br><p><img src=""run_exp/static/images/task_images/aliens/instructions_aliens/planet/alien_planet-1.jpg""  height=""600"" width=""auto""></p>",,,,,,,,,,,,,,,,,,,,,,,
instruc_alien_greet,16,196668,0.0-7.0-7.0,"""event"",""trial"",""time""
""fullscreenenter"",""1"",""4713""
","
","
","""event"",""trial"",""time""
""fullscreenenter"",""1"",""4713""
","
",,12885.9,"<p>When you arrive at a new planet, the alien who owns the treasure mine on that planet will greet you!</p><p>The better an alien takes care of their mine the easier it is to dig for gems. Some aliens take better care of their mine than others. So, you won’t get exactly the same amount of gems on each planet.</p><p>What the alien looks like does not tell you anything about how many gems there are on the planet.</p><br><p><img src=""run_exp/static/images/task_images/aliens/instructions_aliens/planet/alien_planet-1.jpg""  height=""600"" width=""auto""></p>",,,,,,,1,,,,,,,,,,,,,,,,,,
html-keyboard-response,17,197705,0.0-7.0-8.0,"""event"",""trial"",""time""
""fullscreenenter"",""1"",""4713""
","
","
","""event"",""trial"",""time""
""fullscreenenter"",""1"",""4713""
","
",,1034.7,"<p>When you arrive at a new planet, the alien who owns the treasure mine on that planet will greet you!</p><p>The better an alien takes care of their mine the easier it is to dig for gems. Some aliens take better care of their mine than others. So, you won’t get exactly the same amount of gems on each planet.</p><p>What the alien looks like does not tell you anything about how many gems there are on the planet.</p><br><p><img src=""run_exp/static/images/task_images/aliens/instructions_aliens/planet/alien_planet-1.jpg""  height=""600"" width=""auto""></p><button class=""jspsych-html-btn-unchosen""><img src=""run_exp/static/images/task_images/planet-01.jpg"" height=""50""></button><button class=""jspsych-html-btn-chosen""><img src=""run_exp/static/images/task_images/planet-02.jpg"" height=""50""></button><p><b>[press the space bar to lock in your answer]<b><br></p>",32,,,,,,,,,,,,,,,,,,,,,,,,
time_out,18,208897,0.0-8.0-0.0,"""event"",""trial"",""time""
""fullscreenenter"",""1"",""4713""
","
","
","""event"",""trial"",""time""
""fullscreenenter"",""1"",""4713""
","
",,null,run_exp/static/audio/clip_7_timeout.m4a,null,"<p>If you don't make your choice fast enough, you’ll have to wait a few seconds before you can make another one.</p><p>You can’t dig for more gems or travel to new planets. You just have to sit and wait.</p><br><p><img src='run_exp/static/images/task_images/time_out.jpg'  height='600' width='auto'></p>",,,,,,,,,,,,,,,,,,,,,,,
time_out,19,216364,0.0-8.0-1.0,"""event"",""trial"",""time""
""fullscreenenter"",""1"",""4713""
","
","
","""event"",""trial"",""time""
""fullscreenenter"",""1"",""4713""
","
",,7465,"<p>If you don't make your choice fast enough, you’ll have to wait a few seconds before you can make another one.</p><p>You can’t dig for more gems or travel to new planets. You just have to sit and wait.</p><br><p><img src='run_exp/static/images/task_images/time_out.jpg'  height='600' width='auto'></p>",,,,,,,1,,,,,,,,,,,,,,,,,,
html-keyboard-response,20,217248,0.0-8.0-2.0,"""event"",""trial"",""time""
""fullscreenenter"",""1"",""4713""
","
","
","""event"",""trial"",""time""
""fullscreenenter"",""1"",""4713""
","
",,881.4,"<p>If you don't make your choice fast enough, you’ll have to wait a few seconds before you can make another one.</p><p>You can’t dig for more gems or travel to new planets. You just have to sit and wait.</p><br><p><img src='run_exp/static/images/task_images/time_out.jpg'  height='600' width='auto'></p><button class=""jspsych-html-btn-unchosen""><img src=""run_exp/static/images/task_images/planet-01.jpg"" height=""50""></button><button class=""jspsych-html-btn-chosen""><img src=""run_exp/static/images/task_images/planet-02.jpg"" height=""50""></button><p><b>[press the space bar to lock in your answer]<b><br></p>",32,,,,,,,,,,,,,,,,,,,,,,,,
instruc_break,21,232981,0.0-9.0-0.0,"""event"",""trial"",""time""
""fullscreenenter"",""1"",""4713""
","
","
","""event"",""trial"",""time""
""fullscreenenter"",""1"",""4713""
","
",,null,run_exp/static/audio/clip_8_break.m4a,null,"<p> After digging and traveling for a while, you’ll be able to take a break at home base. </p><p>The game will last 20 minutes no matter what.</p><p>You will visit home base every 5 minutes, so, you will visit home base three times during the game.</p><br><p><img src='run_exp/static/images/task_images/home_base.jpg' height='600' width='auto'></p>",,,,,,,,,,,,,,,,,,,,,,,
instruc_break,22,239924,0.0-9.0-1.0,"""event"",""trial"",""time""
""fullscreenenter"",""1"",""4713""
","
","
","""event"",""trial"",""time""
""fullscreenenter"",""1"",""4713""
","
",,6940.1,"<p> After digging and traveling for a while, you’ll be able to take a break at home base. </p><p>The game will last 20 minutes no matter what.</p><p>You will visit home base every 5 minutes, so, you will visit home base three times during the game.</p><br><p><img src='run_exp/static/images/task_images/home_base.jpg' height='600' width='auto'></p>",,,,,,,1,,,,,,,,,,,,,,,,,,
html-keyboard-response,23,241349,0.0-9.0-2.0,"""event"",""trial"",""time""
""fullscreenenter"",""1"",""4713""
","
","
","""event"",""trial"",""time""
""fullscreenenter"",""1"",""4713""
","
",,1422.7,"<p> After digging and traveling for a while, you’ll be able to take a break at home base. </p><p>The game will last 20 minutes no matter what.</p><p>You will visit home base every 5 minutes, so, you will visit home base three times during the game.</p><br><p><img src='run_exp/static/images/task_images/home_base.jpg' height='600' width='auto'></p><button class=""jspsych-html-btn-unchosen""><img src=""run_exp/static/images/task_images/planet-01.jpg"" height=""50""></button><button class=""jspsych-html-btn-chosen""><img src=""run_exp/static/images/task_images/planet-02.jpg"" height=""50""></button><p><b>[press the space bar to lock in your answer]<b><br></p>",32,,,,,,,,,,,,,,,,,,,,,,,,
instruc_prac_game,24,251538,0.0-10.0-0.0,"""event"",""trial"",""time""
""fullscreenenter"",""1"",""4713""
","
","
","""event"",""trial"",""time""
""fullscreenenter"",""1"",""4713""
","
",,null,run_exp/static/audio/clip_9_practice.m4a,null,"<p> Are you ready to play a practice game? </p> <p>In this practice game, you'll be digging up barrels of gems. But, in the real game, you'll be digging up the gems themselves. </p>",,,,,,,,,,,,,,,,,,,,,,,
html-button-response,25,255383,0.0-10.0-1.0,"""event"",""trial"",""time""
""fullscreenenter"",""1"",""4713""
","
","
","""event"",""trial"",""time""
""fullscreenenter"",""1"",""4713""
","
",,3843.3,"<p> Are you ready to play a practice game? </p> <p>In this practice game, you'll be digging up barrels of gems. But, in the real game, you'll be digging up the gems themselves. </p>",,,,,,,0,,,,,,,,,,,,,,,,,,
alien_welcome_prac,26,260391,0.0-11.0-0.0,"""event"",""trial"",""time""
""fullscreenenter"",""1"",""4713""
","
","
","""event"",""trial"",""time""
""fullscreenenter"",""1"",""4713""
","
",,null,run_exp/static/images/task_images/aliens/practice_aliens/planet/alien_planet-5.jpg,null,,,,,,,,,,,,,,,,,,,,,,,,
land_prac,27,260895,0.0-11.0-1.0,"""event"",""trial"",""time""
""fullscreenenter"",""1"",""4713""
","
","
","""event"",""trial"",""time""
""fullscreenenter"",""1"",""4713""
","
",,null,run_exp/static/images/task_images/land.jpg,null,,,,,,,94,,,0,,,,,,,,,,,,,,
dig_prac,28,262902,0.0-11.0-2.0,"""event"",""trial"",""time""
""fullscreenenter"",""1"",""4713""
","
","
","""event"",""trial"",""time""
""fullscreenenter"",""1"",""4713""
","
",,,,,,,,,,,,"[{""stimulus"":""run_exp/static/images/task_images/dig.jpg"",""time"":0.5},{""stimulus"":""run_exp/static/images/task_images/land.jpg"",""time"":670.2999999970198},{""stimulus"":""run_exp/static/images/task_images/dig.jpg"",""time"":1336.2999999970198}]",[],,,,,,,,,,,,,,,
harvest_prac,29,263908,0.0-11.0-3.0,"""event"",""trial"",""time""
""fullscreenenter"",""1"",""4713""
","
","
","""event"",""trial"",""time""
""fullscreenenter"",""1"",""4713""
","
",,null,run_exp/static/images/task_images/barrel_text.jpg,null,,,,,,,,,,,,,,,,,,,,,,,,
decision_prac,30,266914,0.0-11.0-4.0,"""event"",""trial"",""time""
""fullscreenenter"",""1"",""4713""
","
","
","""event"",""trial"",""time""
""fullscreenenter"",""1"",""4713""
","
",,null,run_exp/static/images/task_images/land.jpg,null,,,,,,,,,,,1,,,,,,,,,,,,,
time_out,31,268924,0.0-12.0-0.0,"""event"",""trial"",""time""
""fullscreenenter"",""1"",""4713""
","
","
","""event"",""trial"",""time""
""fullscreenenter"",""1"",""4713""
","
",,null,run_exp/static/images/task_images/time_out.jpg,null,,,,,,,,,,,,,,,,,,,,,,,,
decision_prac,32,270001,0.0-12.0-1.0,"""event"",""trial"",""time""
""fullscreenenter"",""1"",""4713""
","
","
","""event"",""trial"",""time""
""fullscreenenter"",""1"",""4713""
","
",,1074.8,run_exp/static/images/task_images/land.jpg,65,,,,,,,,,,,2,,,,,,,,,,,,,
dig_prac,33,272011,0.0-13.0-0.0,"""event"",""trial"",""time""
""fullscreenenter"",""1"",""4713""
","
","
","""event"",""trial"",""time""
""fullscreenenter"",""1"",""4713""
","
",,,,,,,,,,,,"[{""stimulus"":""run_exp/static/images/task_images/dig.jpg"",""time"":0.29999999701976776},{""stimulus"":""run_exp/static/images/task_images/land.jpg"",""time"":668.7999999970198},{""stimulus"":""run_exp/static/images/task_images/dig.jpg"",""time"":1335.8999999910593}]",[],,,,,,,,,,,,,,,
harvest_prac,34,273013,0.0-13.0-1.0,"""event"",""trial"",""time""
""fullscreenenter"",""1"",""4713""
","
","
","""event"",""trial"",""time""
""fullscreenenter"",""1"",""4713""
","
",,null,run_exp/static/images/task_images/barrel_text.jpg,null,,,,,,,,,,,,,,,,,,,,,,,,
decision_prac,35,273960,0.0-13.0-2.0,"""event"",""trial"",""time""
""fullscreenenter"",""1"",""4713""
","
","
","""event"",""trial"",""time""
""fullscreenenter"",""1"",""4713""
","
",,945.8,run_exp/static/images/task_images/land.jpg,65,,,,,,,,,,,3,,,,,,,,,,,,,
dig_prac,36,275969,0.0-14.0-0.0,"""event"",""trial"",""time""
""fullscreenenter"",""1"",""4713""
","
","
","""event"",""trial"",""time""
""fullscreenenter"",""1"",""4713""
","
",,,,,,,,,,,,"[{""stimulus"":""run_exp/static/images/task_images/dig.jpg"",""time"":0.20000000298023224},{""stimulus"":""run_exp/static/images/task_images/land.jpg"",""time"":668.2999999970198},{""stimulus"":""run_exp/static/images/task_images/dig.jpg"",""time"":1339.8999999910593}]",[],,,,,,,,,,,,,,,
harvest_prac,37,276973,0.0-14.0-1.0,"""event"",""trial"",""time""
""fullscreenenter"",""1"",""4713""
","
","
","""event"",""trial"",""time""
""fullscreenenter"",""1"",""4713""
","
",,null,run_exp/static/images/task_images/barrel_text.jpg,null,,,,,,,,,,,,,,,,,,,,,,,,
decision_prac,38,277476,0.0-14.0-2.0,"""event"",""trial"",""time""
""fullscreenenter"",""1"",""4713""
","
","
","""event"",""trial"",""time""
""fullscreenenter"",""1"",""4713""
","
",,501.3,run_exp/static/images/task_images/land.jpg,65,,,,,,,,,,,4,,,,,,,,,,,,,
dig_prac,39,279483,0.0-15.0-0.0,"""event"",""trial"",""time""
""fullscreenenter"",""1"",""4713""
","
","
","""event"",""trial"",""time""
""fullscreenenter"",""1"",""4713""
","
",,,,,,,,,,,,"[{""stimulus"":""run_exp/static/images/task_images/dig.jpg"",""time"":0.20000000298023224},{""stimulus"":""run_exp/static/images/task_images/land.jpg"",""time"":674.0999999940395},{""stimulus"":""run_exp/static/images/task_images/dig.jpg"",""time"":1337}]",[],,,,,,,,,,,,,,,
harvest_prac,40,280487,0.0-15.0-1.0,"""event"",""trial"",""time""
""fullscreenenter"",""1"",""4713""
","
","
","""event"",""trial"",""time""
""fullscreenenter"",""1"",""4713""
","
",,null,run_exp/static/images/task_images/barrel_text.jpg,null,,,,,,,,,,,,,,,,,,,,,,,,
decision_prac,41,282607,0.0-15.0-2.0,"""event"",""trial"",""time""
""fullscreenenter"",""1"",""4713""
","
","
","""event"",""trial"",""time""
""fullscreenenter"",""1"",""4713""
","
",,2119,run_exp/static/images/task_images/land.jpg,76,,,,,,,,,,,,1,,,,,,,,,,,,
quiz_instruc,42,288921,0.0-16.0-0.0,"""event"",""trial"",""time""
""fullscreenenter"",""1"",""4713""
","
","
","""event"",""trial"",""time""
""fullscreenenter"",""1"",""4713""
","
",,6310.7,run_exp/static/audio/clip_10_quiz.m4a,,,,,,,0,,,,,,,,,,,,,,,,,,
instruc_repeat,43,331725,0.0-16.0-1.0,"""event"",""trial"",""time""
""fullscreenenter"",""1"",""4713""
","
","
","""event"",""trial"",""time""
""fullscreenenter"",""1"",""4713""
","
",,null,"<p> Are you ready to play a practice game? </p> <p>In this practice game, you'll be digging up barrels of gems. But, in the real game, you'll be digging up the gems themselves. </p>",null,"<p>In this game, your goal is to collect as many gems as you can. That’s how you will win bonus money. </p> <p>The entire game will last 20 minutes no matter how many gems you collect or how many planets you visit. </p><p>To stay on a planet and dig again, press the letter A on your keyboard. To leave for a new planet, press the letter L.</p><p>The more you dig on a planet, the fewer gems you’ll get with each dig which is why you might consider leaving for a new planet. </p><p>When you arrive at a new planet, you’ll be greeted by an alien. What the alien looks like does not tell you anything about how much treasure is on the planet. </p>",,,,,,,,,,,,,,,,,,,,,,,
instruc_repeat_continue,44,350056,0.0-16.0-2.0,"""event"",""trial"",""time""
""fullscreenenter"",""1"",""4713""
","
","
","""event"",""trial"",""time""
""fullscreenenter"",""1"",""4713""
","
",,18329.1,"<p> Are you ready to play a practice game? </p> <p>In this practice game, you'll be digging up barrels of gems. But, in the real game, you'll be digging up the gems themselves. </p>",,,,,,,0,,,,,,,,,,,,,,,,,,
quiz_q_1_ask,45,355527,0.0-16.0-3.0,"""event"",""trial"",""time""
""fullscreenenter"",""1"",""4713""
","
","
","""event"",""trial"",""time""
""fullscreenenter"",""1"",""4713""
","
",,5468.5,run_exp/static/audio/clip_11_q1_ask.m4a,,,,,,,2,,,,,,,,,,,,,,,,,,
quiz_q_1_fb_correct,46,359363,0.0-17.0-0.0,"""event"",""trial"",""time""
""fullscreenenter"",""1"",""4713""
","
","
","""event"",""trial"",""time""
""fullscreenenter"",""1"",""4713""
","
",,null,run_exp/static/audio/clip_12_q1_correct.m4a,null,<p>That’s correct. You win extra money by collecting more gems.</p>,,,,,,,,,,,,,,,,,,,,,,,
quiz_q_2_ask,47,367913,0.0-17.0-1.0,"""event"",""trial"",""time""
""fullscreenenter"",""1"",""4713""
","
","
","""event"",""trial"",""time""
""fullscreenenter"",""1"",""4713""
","
",,8547.3,run_exp/static/audio/clip_14_q2_ask.m4a,,,,,,,1,,,,,,,,,,,,,,,,,,
quiz_q_2_fb_correct,48,371947,0.0-18.0-0.0,"""event"",""trial"",""time""
""fullscreenenter"",""1"",""4713""
","
","
","""event"",""trial"",""time""
""fullscreenenter"",""1"",""4713""
","
",,null,run_exp/static/audio/clip_15_q2_correct.m4a,null,<p>That’s correct. The experiment is 20 minutes no matter what.</p>,,,,,,,,,,,,,,,,,,,,,,,
quiz_q_3_ask,49,387490,0.0-18.0-1.0,"""event"",""trial"",""time""
""fullscreenenter"",""1"",""4713""
","
","
","""event"",""trial"",""time""
""fullscreenenter"",""1"",""4713""
","
",,15542.1,run_exp/static/audio/clip_17_q3_ask.m4a,,,,,,,1,,,,,,,,,,,,,,,,,,
quiz_q_3_fb_correct,50,391467,0.0-19.0-0.0,"""event"",""trial"",""time""
""fullscreenenter"",""1"",""4713""
","
","
","""event"",""trial"",""time""
""fullscreenenter"",""1"",""4713""
","
",,null,run_exp/static/audio/clip_18_q3_correct.m4a,null,<p> That’s correct. You press the letter L to travel to a new planet.</p>,,,,,,,,,,,,,,,,,,,,,,,
quiz_q_4_ask,51,410780,0.0-19.0-1.0,"""event"",""trial"",""time""
""fullscreenenter"",""1"",""4713""
","
","
","""event"",""trial"",""time""
""fullscreenenter"",""1"",""4713""
","
",,19311.8,run_exp/static/audio/clip_20_q4_ask.m4a,,,,,,,1,,,,,,,,,,,,,,,,,,
quiz_q_4_fb_incorrect,52,416673,0.0-20.0-0.0,"""event"",""trial"",""time""
""fullscreenenter"",""1"",""4713""
","
","
","""event"",""trial"",""time""
""fullscreenenter"",""1"",""4713""
","
",,null,run_exp/static/audio/clip_22_q4_incorrect.m4a,null,<p>That’s incorrect.  The more you dig on a planet the fewer gems you’ll get with each dig.</p>,,,,,,,,,,,,,,,,,,,,,,,
quiz_q_5_ask,53,486157,0.0-20.0-1.0,"""event"",""trial"",""time""
""fullscreenenter"",""1"",""4713""
","
","
","""event"",""trial"",""time""
""fullscreenenter"",""1"",""4713""
","
",,69485.3,run_exp/static/audio/clip_23_q5_ask.m4a,,,,,,,1,,,,,,,,,,,,,,,,,,
quiz_q_5_fb_correct,54,491197,0.0-21.0-0.0,"""event"",""trial"",""time""
""fullscreenenter"",""1"",""4713""
","
","
","""event"",""trial"",""time""
""fullscreenenter"",""1"",""4713""
","
",,null,run_exp/static/audio/clip_24_q5_correct.m4a,null,<p> That’s correct. The alien tells you nothing about how much treasure is on the planet.</p>,,,,,,,,,,,,,,,,,,,,,,,
quiz_incorrect,55,496806,0.0-22.0-0.0,"""event"",""trial"",""time""
""fullscreenenter"",""1"",""4713""
","
","
","""event"",""trial"",""time""
""fullscreenenter"",""1"",""4713""
","
",,null,run_exp/static/audio/clip_27_incorrect_quiz.m4a,null,,,,,,,,,,,,,,,,,,,,,,,,
quiz_incorrect_continue,56,524300,0.0-22.0-1.0,"""event"",""trial"",""time""
""fullscreenenter"",""1"",""4713""
","
","
","""event"",""trial"",""time""
""fullscreenenter"",""1"",""4713""
","
",,27493.5,"<p>Oops, you missed some questions.</p><p>Now that you’ve heard the correct answers. Try the quiz again!</p>",,,,,,,0,,,,,,,,,,,,,,,,,,
quiz_q_1_ask,57,526884,0.0-22.0-2.0,"""event"",""trial"",""time""
""fullscreenenter"",""1"",""4713""
","
","
","""event"",""trial"",""time""
""fullscreenenter"",""1"",""4713""
","
",,2581.6,run_exp/static/audio/clip_11_q1_ask.m4a,,,,,,,2,,,,,,,,,,,,,,,,,,
quiz_q_1_fb_correct,58,530756,0.0-23.0-0.0,"""event"",""trial"",""time""
""fullscreenenter"",""1"",""4713""
","
","
","""event"",""trial"",""time""
""fullscreenenter"",""1"",""4713""
","
",,null,run_exp/static/audio/clip_12_q1_correct.m4a,null,<p>That’s correct. You win extra money by collecting more gems.</p>,,,,,,,,,,,,,,,,,,,,,,,
quiz_q_2_ask,59,538231,0.0-23.0-1.0,"""event"",""trial"",""time""
""fullscreenenter"",""1"",""4713""
","
","
","""event"",""trial"",""time""
""fullscreenenter"",""1"",""4713""
","
",,7472.7,run_exp/static/audio/clip_14_q2_ask.m4a,,,,,,,1,,,,,,,,,,,,,,,,,,
quiz_q_2_fb_correct,60,542275,0.0-24.0-0.0,"""event"",""trial"",""time""
""fullscreenenter"",""1"",""4713""
","
","
","""event"",""trial"",""time""
""fullscreenenter"",""1"",""4713""
","
",,null,run_exp/static/audio/clip_15_q2_correct.m4a,null,<p>That’s correct. The experiment is 20 minutes no matter what.</p>,,,,,,,,,,,,,,,,,,,,,,,
quiz_q_3_ask,61,554066,0.0-24.0-1.0,"""event"",""trial"",""time""
""fullscreenenter"",""1"",""4713""
","
","
","""event"",""trial"",""time""
""fullscreenenter"",""1"",""4713""
","
",,11788.5,run_exp/static/audio/clip_17_q3_ask.m4a,,,,,,,1,,,,,,,,,,,,,,,,,,
quiz_q_3_fb_correct,62,558038,0.0-25.0-0.0,"""event"",""trial"",""time""
""fullscreenenter"",""1"",""4713""
","
","
","""event"",""trial"",""time""
""fullscreenenter"",""1"",""4713""
","
",,null,run_exp/static/audio/clip_18_q3_correct.m4a,null,<p> That’s correct. You press the letter L to travel to a new planet.</p>,,,,,,,,,,,,,,,,,,,,,,,
quiz_q_4_ask,63,586059,0.0-25.0-1.0,"""event"",""trial"",""time""
""fullscreenenter"",""1"",""4713""
","
","
","""event"",""trial"",""time""
""fullscreenenter"",""1"",""4713""
","
",,28021,run_exp/static/audio/clip_20_q4_ask.m4a,,,,,,,0,,,,,,,,,,,,,,,,,,
quiz_q_4_fb_correct,64,591462,0.0-26.0-0.0,"""event"",""trial"",""time""
""fullscreenenter"",""1"",""4713""
","
","
","""event"",""trial"",""time""
""fullscreenenter"",""1"",""4713""
","
",,null,run_exp/static/audio/clip_21_q4_correct.m4a,null,<p> That’s correct. The more you dig on a planet the fewer gems you’ll get with each dig. </p>,,,,,,,,,,,,,,,,,,,,,,,
quiz_q_5_ask,65,625430,0.0-26.0-1.0,"""event"",""trial"",""time""
""fullscreenenter"",""1"",""4713""
","
","
","""event"",""trial"",""time""
""fullscreenenter"",""1"",""4713""
","
",,33967.7,run_exp/static/audio/clip_23_q5_ask.m4a,,,,,,,1,,,,,,,,,,,,,,,,,,
quiz_q_5_fb_correct,66,630469,0.0-27.0-0.0,"""event"",""trial"",""time""
""fullscreenenter"",""1"",""4713""
","
","
","""event"",""trial"",""time""
""fullscreenenter"",""1"",""4713""
","
",,null,run_exp/static/audio/clip_24_q5_correct.m4a,null,<p> That’s correct. The alien tells you nothing about how much treasure is on the planet.</p>,,,,,,,,,,,,,,,,,,,,,,,
quiz_correct,67,633926,0.0-28.0-0.0,"""event"",""trial"",""time""
""fullscreenenter"",""1"",""4713""
","
","
","""event"",""trial"",""time""
""fullscreenenter"",""1"",""4713""
","
",,null,run_exp/static/audio/clip_26_correct_quiz.m4a,null,,,,,,,,,,,,,,,,,,,,,,,,
quiz_correct_continue,68,635717,0.0-28.0-1.0,"""event"",""trial"",""time""
""fullscreenenter"",""1"",""4713""
","
","
","""event"",""trial"",""time""
""fullscreenenter"",""1"",""4713""
","
",,1789.6,<p>Good job! You're now ready to move on to the real game!</p>,,,,,,,0,,,,,,,,,,,,,,,,,,
audio-keyboard-response,69,645870,0.0-28.0-2.0,"""event"",""trial"",""time""
""fullscreenenter"",""1"",""4713""
","
","
","""event"",""trial"",""time""
""fullscreenenter"",""1"",""4713""
","
",,null,run_exp/static/audio/clip_28_real_game.m4a,null,,,,,,,,,,,,,,,,,,,,,,,,
instruc_begin_exp_contine,70,647552,0.0-28.0-3.0,"""event"",""trial"",""time""
""fullscreenenter"",""1"",""4713""
","
","
","""event"",""trial"",""time""
""fullscreenenter"",""1"",""4713""
","
",,1679.6,"<p>Now that you know how  to dig for space treasure and travel to new planets,you can start exploring! </p><p>Do you want to go over the instructions again or get started with the real game?</p>",,,,,,,1,,,,,,1,,,,,,,,,,,,
alien_welcome,71,652563,0.0-29.0-0.0,"""event"",""trial"",""time""
""fullscreenenter"",""1"",""4713""
","
","
","""event"",""trial"",""time""
""fullscreenenter"",""1"",""4713""
","
",,null,run_exp/static/images/task_images/aliens/old_aliens/planet/alien_planet-25.jpg,null,,,,,,,,,,,,,25,"25,48,56,77,67,8,70,11,44,60,62,13,23,1,17,14,31,37,80,79,41,12,54,33,58,78,22,61,9,19,65,42,69,40,75,51,36,16,53,10,71,55,66,28,43,52,64,18,5",,,,,,,,,,
land,72,653069,0.0-29.0-1.0,"""event"",""trial"",""time""
""fullscreenenter"",""1"",""4713""
","
","
","""event"",""trial"",""time""
""fullscreenenter"",""1"",""4713""
","
",,null,run_exp/static/images/task_images/land.jpg,null,,,,,,,101,,,1,,,,,,,,,,,,,,
dig,73,655077,0.0-29.0-2.0,"""event"",""trial"",""time""
""fullscreenenter"",""1"",""4713""
","
","
","""event"",""trial"",""time""
""fullscreenenter"",""1"",""4713""
","
",,,,,,,,,,,,"[{""stimulus"":""run_exp/static/images/task_images/dig.jpg"",""time"":0.5},{""stimulus"":""run_exp/static/images/task_images/land.jpg"",""time"":672.1000000089407},{""stimulus"":""run_exp/static/images/task_images/dig.jpg"",""time"":1339.7999999970198}]",[],1,,,,,,,,,,,,,,
harvest,74,656092,0.0-29.0-3.0,"""event"",""trial"",""time""
""fullscreenenter"",""1"",""4713""
","
","
","""event"",""trial"",""time""
""fullscreenenter"",""1"",""4713""
","
",,null,run_exp/static/images/task_images/gems/101.jpg,null,,,,,,,14,,,1,,,,,101,0.134964009,0.138613861,,,,,,,
decision,75,657771,0.0-29.0-4.0,"""event"",""trial"",""time""
""fullscreenenter"",""1"",""4713""
","
","
","""event"",""trial"",""time""
""fullscreenenter"",""1"",""4713""
","
",,1677.3,run_exp/static/images/task_images/land.jpg,65,,,,,,,14,,,1,,,,,,,,10219,1,0,FALSE,,,
dig,76,659099,0.0-30.0-0.0,"""event"",""trial"",""time""
""fullscreenenter"",""1"",""4713""
","
","
","""event"",""trial"",""time""
""fullscreenenter"",""1"",""4713""
","
",,,,,,,,,,,,"[{""stimulus"":""run_exp/static/images/task_images/dig.jpg"",""time"":0.20000000298023224},{""stimulus"":""run_exp/static/images/task_images/land.jpg"",""time"":445.70000000298023},{""stimulus"":""run_exp/static/images/task_images/dig.jpg"",""time"":884.5999999940395}]",[],1,,,,,,,,,,,,,,
harvest,77,660104,0.0-30.0-1.0,"""event"",""trial"",""time""
""fullscreenenter"",""1"",""4713""
","
","
","""event"",""trial"",""time""
""fullscreenenter"",""1"",""4713""
","
",,null,run_exp/static/images/task_images/gems/14.jpg,null,,,,,,,3,,,1,,,,,14,0.179336934,0.214285714,,,,,,,
decision,78,660772,0.0-30.0-2.0,"""event"",""trial"",""time""
""fullscreenenter"",""1"",""4713""
","
","
","""event"",""trial"",""time""
""fullscreenenter"",""1"",""4713""
","
",,665.8,run_exp/static/images/task_images/land.jpg,76,,,,,,,3,,,1,,,,,,,,13219,1,1,TRUE,,,
travel,79,670114,0.0-31.0-0.0,"""event"",""trial"",""time""
""fullscreenenter"",""1"",""4713""
","
","
","""event"",""trial"",""time""
""fullscreenenter"",""1"",""4713""
","
",,,,,,,,,,,,"[{""stimulus"":""run_exp/static/images/task_images/rocket-01.jpg"",""time"":0.09999999403953552},{""stimulus"":""run_exp/static/images/task_images/rocket-02.jpg"",""time"":1042.7000000029802},{""stimulus"":""run_exp/static/images/task_images/rocket-03.jpg"",""time"":2075.3999999910593},{""stimulus"":""run_exp/static/images/task_images/rocket-04.jpg"",""time"":3114.5},{""stimulus"":""run_exp/static/images/task_images/rocket-05.jpg"",""time"":4150},{""stimulus"":""run_exp/static/images/task_images/rocket-06.jpg"",""time"":5189.899999991059},{""stimulus"":""run_exp/static/images/task_images/rocket-07.jpg"",""time"":6227.899999991059},{""stimulus"":""run_exp/static/images/task_images/rocket-08.jpg"",""time"":7261},{""stimulus"":""run_exp/static/images/task_images/rocket-09.jpg"",""time"":8299.39999999106}]",[],1,,,,,,,,,,,,,,
alien_welcome,80,675120,0.0-31.0-1.0,"""event"",""trial"",""time""
""fullscreenenter"",""1"",""4713""
","
","
","""event"",""trial"",""time""
""fullscreenenter"",""1"",""4713""
","
",,null,run_exp/static/images/task_images/aliens/old_aliens/planet/alien_planet-48.jpg,null,,,,,,,,,,,,,48,"25,48,56,77,67,8,70,11,44,60,62,13,23,1,17,14,31,37,80,79,41,12,54,33,58,78,22,61,9,19,65,42,69,40,75,51,36,16,53,10,71,55,66,28,43,52,64,18,5",,,,,,,,,,
land,81,675627,0.0-31.0-2.0,"""event"",""trial"",""time""
""fullscreenenter"",""1"",""4713""
","
","
","""event"",""trial"",""time""
""fullscreenenter"",""1"",""4713""
","
",,null,run_exp/static/images/task_images/land.jpg,null,,,,,,,101,,,2,,,,,,,,,,,,,,
dig,82,677632,0.0-31.0-3.0,"""event"",""trial"",""time""
""fullscreenenter"",""1"",""4713""
","
","
","""event"",""trial"",""time""
""fullscreenenter"",""1"",""4713""
","
",,,,,,,,,,,,"[{""stimulus"":""run_exp/static/images/task_images/dig.jpg"",""time"":0.4000000059604645},{""stimulus"":""run_exp/static/images/task_images/land.jpg"",""time"":670.1000000089407},{""stimulus"":""run_exp/static/images/task_images/dig.jpg"",""time"":1341.1000000089407}]",[],2,,,,,,,,,,,,,,
harvest,83,678637,0.0-31.0-4.0,"""event"",""trial"",""time""
""fullscreenenter"",""1"",""4713""
","
","
","""event"",""trial"",""time""
""fullscreenenter"",""1"",""4713""
","
",,null,run_exp/static/images/task_images/gems/101.jpg,null,,,,,,,21,,,2,,,,,101,0.209990242,0.207920792,,,,,,,
decision,84,679211,0.0-31.0-5.0,"""event"",""trial"",""time""
""fullscreenenter"",""1"",""4713""
","
","
","""event"",""trial"",""time""
""fullscreenenter"",""1"",""4713""
","
",,571.8,run_exp/static/images/task_images/land.jpg,76,,,,,,,21,,,2,,,,,,,,31658,1,0,TRUE,,,
travel,85,688640,0.0-32.0-0.0,"""event"",""trial"",""time""
""fullscreenenter"",""1"",""4713""
","
","
","""event"",""trial"",""time""
""fullscreenenter"",""1"",""4713""
","
",,,,,,,,,,,,"[{""stimulus"":""run_exp/static/images/task_images/rocket-01.jpg"",""time"":0.20000000298023224},{""stimulus"":""run_exp/static/images/task_images/rocket-02.jpg"",""time"":1054.5},{""stimulus"":""run_exp/static/images/task_images/rocket-03.jpg"",""time"":2098.2000000029802},{""stimulus"":""run_exp/static/images/task_images/rocket-04.jpg"",""time"":3144.0999999940395},{""stimulus"":""run_exp/static/images/task_images/rocket-05.jpg"",""time"":4193.20000000298},{""stimulus"":""run_exp/static/images/task_images/rocket-06.jpg"",""time"":5241.0999999940395},{""stimulus"":""run_exp/static/images/task_images/rocket-07.jpg"",""time"":6284.79999999702},{""stimulus"":""run_exp/static/images/task_images/rocket-08.jpg"",""time"":7337.29999999702},{""stimulus"":""run_exp/static/images/task_images/rocket-09.jpg"",""time"":8381.79999999702}]",[],2,,,,,,,,,,,,,,
alien_welcome,86,693644,0.0-32.0-1.0,"""event"",""trial"",""time""
""fullscreenenter"",""1"",""4713""
","
","
","""event"",""trial"",""time""
""fullscreenenter"",""1"",""4713""
","
",,null,run_exp/static/images/task_images/aliens/old_aliens/planet/alien_planet-56.jpg,null,,,,,,,,,,,,,56,"25,48,56,77,67,8,70,11,44,60,62,13,23,1,17,14,31,37,80,79,41,12,54,33,58,78,22,61,9,19,65,42,69,40,75,51,36,16,53,10,71,55,66,28,43,52,64,18,5",,,,,,,,,,
land,87,694145,0.0-32.0-2.0,"""event"",""trial"",""time""
""fullscreenenter"",""1"",""4713""
","
","
","""event"",""trial"",""time""
""fullscreenenter"",""1"",""4713""
","
",,null,run_exp/static/images/task_images/land.jpg,null,,,,,,,93,,,3,,,,,,,,,,,,,,
dig,88,696150,0.0-32.0-3.0,"""event"",""trial"",""time""
""fullscreenenter"",""1"",""4713""
","
","
","""event"",""trial"",""time""
""fullscreenenter"",""1"",""4713""
","
",,,,,,,,,,,,"[{""stimulus"":""run_exp/static/images/task_images/dig.jpg"",""time"":0.29999999701976776},{""stimulus"":""run_exp/static/images/task_images/land.jpg"",""time"":672.1999999880791},{""stimulus"":""run_exp/static/images/task_images/dig.jpg"",""time"":1335.2999999970198}]",[],3,,,,,,,,,,,,,,
harvest,89,697155,0.0-32.0-4.0,"""event"",""trial"",""time""
""fullscreenenter"",""1"",""4713""
","
","
","""event"",""trial"",""time""
""fullscreenenter"",""1"",""4713""
","
",,null,run_exp/static/images/task_images/gems/93.jpg,null,,,,,,,52,,,3,,,,,93,0.560585682,0.559139785,,,,,,,
decision,90,699771,0.0-32.0-5.0,"""event"",""trial"",""time""
""fullscreenenter"",""1"",""4713""
","
","
","""event"",""trial"",""time""
""fullscreenenter"",""1"",""4713""
","
",,2614.2,run_exp/static/images/task_images/land.jpg,65,,,,,,,52,,,3,,,,,,,,52218,1,0,FALSE,,,
dig,91,700167,0.0-33.0-0.0,"""event"",""trial"",""time""
""fullscreenenter"",""1"",""4713""
","
","
","""event"",""trial"",""time""
""fullscreenenter"",""1"",""4713""
","
",,,,,,,,,,,,"[{""stimulus"":""run_exp/static/images/task_images/dig.jpg"",""time"":0.30000001192092896},{""stimulus"":""run_exp/static/images/task_images/land.jpg"",""time"":129.5},{""stimulus"":""run_exp/static/images/task_images/dig.jpg"",""time"":257.90000000596046}]",[],3,,,,,,,,,,,,,,
harvest,92,701172,0.0-33.0-1.0,"""event"",""trial"",""time""
""fullscreenenter"",""1"",""4713""
","
","
","""event"",""trial"",""time""
""fullscreenenter"",""1"",""4713""
","
",,null,run_exp/static/images/task_images/gems/52.jpg,null,,,,,,,31,,,3,,,,,52,0.587742733,0.596153846,,,,,,,
decision,93,701757,0.0-33.0-2.0,"""event"",""trial"",""time""
""fullscreenenter"",""1"",""4713""
","
","
","""event"",""trial"",""time""
""fullscreenenter"",""1"",""4713""
","
",,583.7,run_exp/static/images/task_images/land.jpg,65,,,,,,,31,,,3,,,,,,,,54205,1,1,FALSE,,,
dig,94,704181,0.0-34.0-0.0,"""event"",""trial"",""time""
""fullscreenenter"",""1"",""4713""
","
","
","""event"",""trial"",""time""
""fullscreenenter"",""1"",""4713""
","
",,,,,,,,,,,,"[{""stimulus"":""run_exp/static/images/task_images/dig.jpg"",""time"":0.19999998807907104},{""stimulus"":""run_exp/static/images/task_images/land.jpg"",""time"":806.7999999970198},{""stimulus"":""run_exp/static/images/task_images/dig.jpg"",""time"":1614.0999999940395}]",[],3,,,,,,,,,,,,,,
harvest,95,705186,0.0-34.0-1.0,"""event"",""trial"",""time""
""fullscreenenter"",""1"",""4713""
","
","
","""event"",""trial"",""time""
""fullscreenenter"",""1"",""4713""
","
",,null,run_exp/static/images/task_images/gems/31.jpg,null,,,,,,,17,,,3,,,,,31,0.542514451,0.548387097,,,,,,,
decision,96,705313,0.0-34.0-2.0,"""event"",""trial"",""time""
""fullscreenenter"",""1"",""4713""
","
","
","""event"",""trial"",""time""
""fullscreenenter"",""1"",""4713""
","
",,124.5,run_exp/static/images/task_images/land.jpg,76,,,,,,,17,,,3,,,,,,,,57760,1,2,TRUE,,,
travel,97,715192,0.0-35.0-0.0,"""event"",""trial"",""time""
""fullscreenenter"",""1"",""4713""
","
","
","""event"",""trial"",""time""
""fullscreenenter"",""1"",""4713""
","
",,,,,,,,,,,,"[{""stimulus"":""run_exp/static/images/task_images/rocket-01.jpg"",""time"":0.29999999701976776},{""stimulus"":""run_exp/static/images/task_images/rocket-02.jpg"",""time"":1101.9000000059605},{""stimulus"":""run_exp/static/images/task_images/rocket-03.jpg"",""time"":2199.2000000029802},{""stimulus"":""run_exp/static/images/task_images/rocket-04.jpg"",""time"":3296.5999999940395},{""stimulus"":""run_exp/static/images/task_images/rocket-05.jpg"",""time"":4393.9000000059605},{""stimulus"":""run_exp/static/images/task_images/rocket-06.jpg"",""time"":5488.5},{""stimulus"":""run_exp/static/images/task_images/rocket-07.jpg"",""time"":6587.29999999702},{""stimulus"":""run_exp/static/images/task_images/rocket-08.jpg"",""time"":7685.5999999940395},{""stimulus"":""run_exp/static/images/task_images/rocket-09.jpg"",""time"":8779.20000000298}]",[],3,,,,,,,,,,,,,,
alien_welcome,98,720200,0.0-35.0-1.0,"""event"",""trial"",""time""
""fullscreenenter"",""1"",""4713""
","
","
","""event"",""trial"",""time""
""fullscreenenter"",""1"",""4713""
","
",,null,run_exp/static/images/task_images/aliens/old_aliens/planet/alien_planet-77.jpg,null,,,,,,,,,,,,,77,"25,48,56,77,67,8,70,11,44,60,62,13,23,1,17,14,31,37,80,79,41,12,54,33,58,78,22,61,9,19,65,42,69,40,75,51,36,16,53,10,71,55,66,28,43,52,64,18,5",,,,,,,,,,
land,99,720703,0.0-35.0-2.0,"""event"",""trial"",""time""
""fullscreenenter"",""1"",""4713""
","
","
","""event"",""trial"",""time""
""fullscreenenter"",""1"",""4713""
","
",,null,run_exp/static/images/task_images/land.jpg,null,,,,,,,106,,,4,,,,,,,,,,,,,,
dig,100,722709,0.0-35.0-3.0,"""event"",""trial"",""time""
""fullscreenenter"",""1"",""4713""
","
","
","""event"",""trial"",""time""
""fullscreenenter"",""1"",""4713""
","
",,,,,,,,,,,,"[{""stimulus"":""run_exp/static/images/task_images/dig.jpg"",""time"":0.5},{""stimulus"":""run_exp/static/images/task_images/land.jpg"",""time"":672.4000000059605},{""stimulus"":""run_exp/static/images/task_images/dig.jpg"",""time"":1337.800000011921}]",[],4,,,,,,,,,,,,,,
harvest,101,723712,0.0-35.0-4.0,"""event"",""trial"",""time""
""fullscreenenter"",""1"",""4713""
","
","
","""event"",""trial"",""time""
""fullscreenenter"",""1"",""4713""
","
",,null,run_exp/static/images/task_images/gems/106.jpg,null,,,,,,,45,,,4,,,,,106,0.422728403,0.424528302,,,,,,,
decision,102,724480,0.0-35.0-5.0,"""event"",""trial"",""time""
""fullscreenenter"",""1"",""4713""
","
","
","""event"",""trial"",""time""
""fullscreenenter"",""1"",""4713""
","
",,766.1,run_exp/static/images/task_images/land.jpg,65,,,,,,,45,,,4,,,,,,,,76927,1,0,FALSE,,,
dig,103,726717,0.0-36.0-0.0,"""event"",""trial"",""time""
""fullscreenenter"",""1"",""4713""
","
","
","""event"",""trial"",""time""
""fullscreenenter"",""1"",""4713""
","
",,,,,,,,,,,,"[{""stimulus"":""run_exp/static/images/task_images/dig.jpg"",""time"":0.20000000298023224},{""stimulus"":""run_exp/static/images/task_images/land.jpg"",""time"":746.7000000029802},{""stimulus"":""run_exp/static/images/task_images/dig.jpg"",""time"":1491.4000000059605}]",[],4,,,,,,,,,,,,,,
harvest,104,727724,0.0-36.0-1.0,"""event"",""trial"",""time""
""fullscreenenter"",""1"",""4713""
","
","
","""event"",""trial"",""time""
""fullscreenenter"",""1"",""4713""
","
",,null,run_exp/static/images/task_images/gems/45.jpg,null,,,,,,,27,,,4,,,,,45,0.60634611,0.6,,,,,,,
decision,105,728240,0.0-36.0-2.0,"""event"",""trial"",""time""
""fullscreenenter"",""1"",""4713""
","
","
","""event"",""trial"",""time""
""fullscreenenter"",""1"",""4713""
","
",,514,run_exp/static/images/task_images/land.jpg,65,,,,,,,27,,,4,,,,,,,,80687,1,1,FALSE,,,
dig,106,730733,0.0-37.0-0.0,"""event"",""trial"",""time""
""fullscreenenter"",""1"",""4713""
","
","
","""event"",""trial"",""time""
""fullscreenenter"",""1"",""4713""
","
",,,,,,,,,,,,"[{""stimulus"":""run_exp/static/images/task_images/dig.jpg"",""time"":0.19999998807907104},{""stimulus"":""run_exp/static/images/task_images/land.jpg"",""time"":835.0999999940395},{""stimulus"":""run_exp/static/images/task_images/dig.jpg"",""time"":1663.699999988079}]",[],4,,,,,,,,,,,,,,
harvest,107,731741,0.0-37.0-1.0,"""event"",""trial"",""time""
""fullscreenenter"",""1"",""4713""
","
","
","""event"",""trial"",""time""
""fullscreenenter"",""1"",""4713""
","
",,null,run_exp/static/images/task_images/gems/27.jpg,null,,,,,,,13,,,4,,,,,27,0.479559168,0.481481481,,,,,,,
decision,108,732013,0.0-37.0-2.0,"""event"",""trial"",""time""
""fullscreenenter"",""1"",""4713""
","
","
","""event"",""trial"",""time""
""fullscreenenter"",""1"",""4713""
","
",,270.2,run_exp/static/images/task_images/land.jpg,65,,,,,,,13,,,4,,,,,,,,84461,1,2,FALSE,,,
dig,109,734752,0.0-38.0-0.0,"""event"",""trial"",""time""
""fullscreenenter"",""1"",""4713""
","
","
","""event"",""trial"",""time""
""fullscreenenter"",""1"",""4713""
","
",,,,,,,,,,,,"[{""stimulus"":""run_exp/static/images/task_images/dig.jpg"",""time"":0.19999998807907104},{""stimulus"":""run_exp/static/images/task_images/land.jpg"",""time"":911.5},{""stimulus"":""run_exp/static/images/task_images/dig.jpg"",""time"":1824.8999999910593}]",[],4,,,,,,,,,,,,,,
harvest,110,735760,0.0-38.0-1.0,"""event"",""trial"",""time""
""fullscreenenter"",""1"",""4713""
","
","
","""event"",""trial"",""time""
""fullscreenenter"",""1"",""4713""
","
",,null,run_exp/static/images/task_images/gems/13.jpg,null,,,,,,,6,,,4,,,,,13,0.471572474,0.461538462,,,,,,,
decision,111,737567,0.0-38.0-2.0,"""event"",""trial"",""time""
""fullscreenenter"",""1"",""4713""
","
","
","""event"",""trial"",""time""
""fullscreenenter"",""1"",""4713""
","
",,1805,run_exp/static/images/task_images/land.jpg,76,,,,,,,6,,,4,,,,,,,,90014,1,3,TRUE,,,
travel,112,745764,0.0-39.0-0.0,"""event"",""trial"",""time""
""fullscreenenter"",""1"",""4713""
","
","
","""event"",""trial"",""time""
""fullscreenenter"",""1"",""4713""
","
",,,,,,,,,,,,"[{""stimulus"":""run_exp/static/images/task_images/rocket-01.jpg"",""time"":0.29999999701976776},{""stimulus"":""run_exp/static/images/task_images/rocket-02.jpg"",""time"":914.2999999970198},{""stimulus"":""run_exp/static/images/task_images/rocket-03.jpg"",""time"":1822.9000000059605},{""stimulus"":""run_exp/static/images/task_images/rocket-04.jpg"",""time"":2734.4000000059605},{""stimulus"":""run_exp/static/images/task_images/rocket-05.jpg"",""time"":3645.5},{""stimulus"":""run_exp/static/images/task_images/rocket-06.jpg"",""time"":4556.4000000059605},{""stimulus"":""run_exp/static/images/task_images/rocket-07.jpg"",""time"":5465},{""stimulus"":""run_exp/static/images/task_images/rocket-08.jpg"",""time"":6371.70000000298},{""stimulus"":""run_exp/static/images/task_images/rocket-09.jpg"",""time"":7282}]",[],4,,,,,,,,,,,,,,
alien_welcome,113,750770,0.0-39.0-1.0,"""event"",""trial"",""time""
""fullscreenenter"",""1"",""4713""
","
","
","""event"",""trial"",""time""
""fullscreenenter"",""1"",""4713""
","
",,null,run_exp/static/images/task_images/aliens/old_aliens/planet/alien_planet-67.jpg,null,,,,,,,,,,,,,67,"25,48,56,77,67,8,70,11,44,60,62,13,23,1,17,14,31,37,80,79,41,12,54,33,58,78,22,61,9,19,65,42,69,40,75,51,36,16,53,10,71,55,66,28,43,52,64,18,5",,,,,,,,,,
land,114,751275,0.0-39.0-2.0,"""event"",""trial"",""time""
""fullscreenenter"",""1"",""4713""
","
","
","""event"",""trial"",""time""
""fullscreenenter"",""1"",""4713""
","
",,null,run_exp/static/images/task_images/land.jpg,null,,,,,,,92,,,5,,,,,,,,,,,,,,
dig,115,753281,0.0-39.0-3.0,"""event"",""trial"",""time""
""fullscreenenter"",""1"",""4713""
","
","
","""event"",""trial"",""time""
""fullscreenenter"",""1"",""4713""
","
",,,,,,,,,,,,"[{""stimulus"":""run_exp/static/images/task_images/dig.jpg"",""time"":0.5},{""stimulus"":""run_exp/static/images/task_images/land.jpg"",""time"":669},{""stimulus"":""run_exp/static/images/task_images/dig.jpg"",""time"":1338.2000000029802}]",[],5,,,,,,,,,,,,,,
harvest,116,754283,0.0-39.0-4.0,"""event"",""trial"",""time""
""fullscreenenter"",""1"",""4713""
","
","
","""event"",""trial"",""time""
""fullscreenenter"",""1"",""4713""
","
",,null,run_exp/static/images/task_images/gems/92.jpg,null,,,,,,,54,,,5,,,,,92,0.591181035,0.586956522,,,,,,,
decision,117,757286,0.0-39.0-5.0,"""event"",""trial"",""time""
""fullscreenenter"",""1"",""4713""
","
","
","""event"",""trial"",""time""
""fullscreenenter"",""1"",""4713""
","
",,null,run_exp/static/images/task_images/land.jpg,null,,,,,,,54,,,5,,,,,,,,109733,1,0,FALSE,,,
time_out,118,759292,0.0-40.0-0.0,"""event"",""trial"",""time""
""fullscreenenter"",""1"",""4713""
","
","
","""event"",""trial"",""time""
""fullscreenenter"",""1"",""4713""
","
",,null,run_exp/static/images/task_images/time_out.jpg,null,,,,,,,54,,,,,,,,,,,,,,,,,
decision,119,762299,0.0-40.0-1.0,"""event"",""trial"",""time""
""fullscreenenter"",""1"",""4713""
","
","
","""event"",""trial"",""time""
""fullscreenenter"",""1"",""4713""
","
",,null,run_exp/static/images/task_images/land.jpg,null,,,,,,,54,,,5,,,,,,,,114746,1,0,FALSE,,,
time_out,120,764307,0.0-41.0-0.0,"""event"",""trial"",""time""
""fullscreenenter"",""1"",""4713""
","
","
","""event"",""trial"",""time""
""fullscreenenter"",""1"",""4713""
","
",,null,run_exp/static/images/task_images/time_out.jpg,null,,,,,,,54,,,,,,,,,,,,,,,,,
decision,121,767314,0.0-41.0-1.0,"""event"",""trial"",""time""
""fullscreenenter"",""1"",""4713""
","
","
","""event"",""trial"",""time""
""fullscreenenter"",""1"",""4713""
","
",,null,run_exp/static/images/task_images/land.jpg,null,,,,,,,54,,,5,,,,,,,,119761,1,0,FALSE,,,
time_out,122,769322,0.0-42.0-0.0,"""event"",""trial"",""time""
""fullscreenenter"",""1"",""4713""
","
","
","""event"",""trial"",""time""
""fullscreenenter"",""1"",""4713""
","
",,null,run_exp/static/images/task_images/time_out.jpg,null,,,,,,,54,,,,,,,,,,,,,,,,,
decision,123,772325,0.0-42.0-1.0,"""event"",""trial"",""time""
""fullscreenenter"",""1"",""4713""
","
","
","""event"",""trial"",""time""
""fullscreenenter"",""1"",""4713""
","
",,null,run_exp/static/images/task_images/land.jpg,null,,,,,,,54,,,5,,,,,,,,124772,1,0,FALSE,,,
time_out,124,774333,0.0-43.0-0.0,"""event"",""trial"",""time""
""fullscreenenter"",""1"",""4713""
","
","
","""event"",""trial"",""time""
""fullscreenenter"",""1"",""4713""
","
",,null,run_exp/static/images/task_images/time_out.jpg,null,,,,,,,54,,,,,,,,,,,,,,,,,
decision,125,777339,0.0-43.0-1.0,"""event"",""trial"",""time""
""fullscreenenter"",""1"",""4713""
","
","
","""event"",""trial"",""time""
""fullscreenenter"",""1"",""4713""
","
",,null,run_exp/static/images/task_images/land.jpg,null,,,,,,,54,,,5,,,,,,,,129786,1,0,FALSE,,,
time_out,126,779347,0.0-44.0-0.0,"""event"",""trial"",""time""
""fullscreenenter"",""1"",""4713""
","
","
","""event"",""trial"",""time""
""fullscreenenter"",""1"",""4713""
","
",,null,run_exp/static/images/task_images/time_out.jpg,null,,,,,,,54,,,,,,,,,,,,,,,,,
decision,127,782354,0.0-44.0-1.0,"""event"",""trial"",""time""
""fullscreenenter"",""1"",""4713""
","
","
","""event"",""trial"",""time""
""fullscreenenter"",""1"",""4713""
","
",,null,run_exp/static/images/task_images/land.jpg,null,,,,,,,54,,,5,,,,,,,,134801,1,0,FALSE,,,
time_out,128,784358,0.0-45.0-0.0,"""event"",""trial"",""time""
""fullscreenenter"",""1"",""4713""
","
","
","""event"",""trial"",""time""
""fullscreenenter"",""1"",""4713""
","
",,null,run_exp/static/images/task_images/time_out.jpg,null,,,,,,,54,,,,,,,,,,,,,,,,,
decision,129,787362,0.0-45.0-1.0,"""event"",""trial"",""time""
""fullscreenenter"",""1"",""4713""
","
","
","""event"",""trial"",""time""
""fullscreenenter"",""1"",""4713""
","
",,null,run_exp/static/images/task_images/land.jpg,null,,,,,,,54,,,5,,,,,,,,139810,1,0,FALSE,,,
time_out,130,789369,0.0-46.0-0.0,"""event"",""trial"",""time""
""fullscreenenter"",""1"",""4713""
","
","
","""event"",""trial"",""time""
""fullscreenenter"",""1"",""4713""
","
",,null,run_exp/static/images/task_images/time_out.jpg,null,,,,,,,54,,,,,,,,,,,,,,,,,
decision,131,792371,0.0-46.0-1.0,"""event"",""trial"",""time""
""fullscreenenter"",""1"",""4713""
","
","
","""event"",""trial"",""time""
""fullscreenenter"",""1"",""4713""
","
",,null,run_exp/static/images/task_images/land.jpg,null,,,,,,,54,,,5,,,,,,,,144818,1,0,FALSE,,,
time_out,132,794376,0.0-47.0-0.0,"""event"",""trial"",""time""
""fullscreenenter"",""1"",""4713""
","
","
","""event"",""trial"",""time""
""fullscreenenter"",""1"",""4713""
","
",,null,run_exp/static/images/task_images/time_out.jpg,null,,,,,,,54,,,,,,,,,,,,,,,,,
decision,133,795079,0.0-47.0-1.0,"""event"",""trial"",""time""
""fullscreenenter"",""1"",""4713""
","
","
","""event"",""trial"",""time""
""fullscreenenter"",""1"",""4713""
","
",,702,run_exp/static/images/task_images/land.jpg,65,,,,,,,54,,,5,,,,,,,,147526,1,0,FALSE,,,
dig,134,797382,0.0-48.0-0.0,"""event"",""trial"",""time""
""fullscreenenter"",""1"",""4713""
","
","
","""event"",""trial"",""time""
""fullscreenenter"",""1"",""4713""
","
",,,,,,,,,,,,"[{""stimulus"":""run_exp/static/images/task_images/dig.jpg"",""time"":0.20000000298023224},{""stimulus"":""run_exp/static/images/task_images/land.jpg"",""time"":767.5},{""stimulus"":""run_exp/static/images/task_images/dig.jpg"",""time"":1534}]",[],5,,,,,,,,,,,,,,
harvest,135,798387,0.0-48.0-1.0,"""event"",""trial"",""time""
""fullscreenenter"",""1"",""4713""
","
","
","""event"",""trial"",""time""
""fullscreenenter"",""1"",""4713""
","
",,null,run_exp/static/images/task_images/gems/54.jpg,null,,,,,,,29,,,5,,,,,54,0.531412686,0.537037037,,,,,,,
decision,136,799158,0.0-48.0-2.0,"""event"",""trial"",""time""
""fullscreenenter"",""1"",""4713""
","
","
","""event"",""trial"",""time""
""fullscreenenter"",""1"",""4713""
","
",,770.7,run_exp/static/images/task_images/land.jpg,65,,,,,,,29,,,5,,,,,,,,151605,1,1,FALSE,,,
dig,137,801394,0.0-49.0-0.0,"""event"",""trial"",""time""
""fullscreenenter"",""1"",""4713""
","
","
","""event"",""trial"",""time""
""fullscreenenter"",""1"",""4713""
","
",,,,,,,,,,,,"[{""stimulus"":""run_exp/static/images/task_images/dig.jpg"",""time"":0.20000000298023224},{""stimulus"":""run_exp/static/images/task_images/land.jpg"",""time"":747.9000000059605},{""stimulus"":""run_exp/static/images/task_images/dig.jpg"",""time"":1488.300000011921}]",[],5,,,,,,,,,,,,,,
harvest,138,802399,0.0-49.0-1.0,"""event"",""trial"",""time""
""fullscreenenter"",""1"",""4713""
","
","
","""event"",""trial"",""time""
""fullscreenenter"",""1"",""4713""
","
",,null,run_exp/static/images/task_images/gems/29.jpg,null,,,,,,,14,,,5,,,,,29,0.486858482,0.482758621,,,,,,,
decision,139,803852,0.0-49.0-2.0,"""event"",""trial"",""time""
""fullscreenenter"",""1"",""4713""
","
","
","""event"",""trial"",""time""
""fullscreenenter"",""1"",""4713""
","
",,1451.3,run_exp/static/images/task_images/land.jpg,65,,,,,,,14,,,5,,,,,,,,156299,1,2,FALSE,,,
dig,140,805406,0.0-50.0-0.0,"""event"",""trial"",""time""
""fullscreenenter"",""1"",""4713""
","
","
","""event"",""trial"",""time""
""fullscreenenter"",""1"",""4713""
","
",,,,,,,,,,,,"[{""stimulus"":""run_exp/static/images/task_images/dig.jpg"",""time"":0.4000000059604645},{""stimulus"":""run_exp/static/images/task_images/land.jpg"",""time"":524.2000000029802},{""stimulus"":""run_exp/static/images/task_images/dig.jpg"",""time"":1034.0999999940395}]",[],5,,,,,,,,,,,,,,
harvest,141,806408,0.0-50.0-1.0,"""event"",""trial"",""time""
""fullscreenenter"",""1"",""4713""
","
","
","""event"",""trial"",""time""
""fullscreenenter"",""1"",""4713""
","
",,null,run_exp/static/images/task_images/gems/14.jpg,null,,,,,,,7,,,5,,,,,14,0.484363861,0.5,,,,,,,
decision,142,808580,0.0-50.0-2.0,"""event"",""trial"",""time""
""fullscreenenter"",""1"",""4713""
","
","
","""event"",""trial"",""time""
""fullscreenenter"",""1"",""4713""
","
",,2171.3,run_exp/static/images/task_images/land.jpg,76,,,,,,,7,,,5,,,,,,,,161027,1,3,TRUE,,,
travel,143,816408,0.0-51.0-0.0,"""event"",""trial"",""time""
""fullscreenenter"",""1"",""4713""
","
","
","""event"",""trial"",""time""
""fullscreenenter"",""1"",""4713""
","
",,,,,,,,,,,,"[{""stimulus"":""run_exp/static/images/task_images/rocket-01.jpg"",""time"":0.29999999701976776},{""stimulus"":""run_exp/static/images/task_images/rocket-02.jpg"",""time"":872.2999999970198},{""stimulus"":""run_exp/static/images/task_images/rocket-03.jpg"",""time"":1743},{""stimulus"":""run_exp/static/images/task_images/rocket-04.jpg"",""time"":2611.6000000089407},{""stimulus"":""run_exp/static/images/task_images/rocket-05.jpg"",""time"":3477.7000000029802},{""stimulus"":""run_exp/static/images/task_images/rocket-06.jpg"",""time"":4347.70000000298},{""stimulus"":""run_exp/static/images/task_images/rocket-07.jpg"",""time"":5217.29999999702},{""stimulus"":""run_exp/static/images/task_images/rocket-08.jpg"",""time"":6085.20000000298},{""stimulus"":""run_exp/static/images/task_images/rocket-09.jpg"",""time"":6955.5}]",[],5,,,,,,,,,,,,,,
alien_welcome,144,821417,0.0-51.0-1.0,"""event"",""trial"",""time""
""fullscreenenter"",""1"",""4713""
","
","
","""event"",""trial"",""time""
""fullscreenenter"",""1"",""4713""
","
",,null,run_exp/static/images/task_images/aliens/old_aliens/planet/alien_planet-8.jpg,null,,,,,,,,,,,,,8,"25,48,56,77,67,8,70,11,44,60,62,13,23,1,17,14,31,37,80,79,41,12,54,33,58,78,22,61,9,19,65,42,69,40,75,51,36,16,53,10,71,55,66,28,43,52,64,18,5",,,,,,,,,,
land,145,821925,0.0-51.0-2.0,"""event"",""trial"",""time""
""fullscreenenter"",""1"",""4713""
","
","
","""event"",""trial"",""time""
""fullscreenenter"",""1"",""4713""
","
",,null,run_exp/static/images/task_images/land.jpg,null,,,,,,,105,,,6,,,,,,,,,,,,,,
dig,146,823934,0.0-51.0-3.0,"""event"",""trial"",""time""
""fullscreenenter"",""1"",""4713""
","
","
","""event"",""trial"",""time""
""fullscreenenter"",""1"",""4713""
","
",,,,,,,,,,,,"[{""stimulus"":""run_exp/static/images/task_images/dig.jpg"",""time"":0.5},{""stimulus"":""run_exp/static/images/task_images/land.jpg"",""time"":671.7000000029802},{""stimulus"":""run_exp/static/images/task_images/dig.jpg"",""time"":1336}]",[],6,,,,,,,,,,,,,,
harvest,147,824940,0.0-51.0-4.0,"""event"",""trial"",""time""
""fullscreenenter"",""1"",""4713""
","
","
","""event"",""trial"",""time""
""fullscreenenter"",""1"",""4713""
","
",,null,run_exp/static/images/task_images/gems/105.jpg,null,,,,,,,83,,,6,,,,,105,0.794464518,0.79047619,,,,,,,
decision,148,825910,0.0-51.0-5.0,"""event"",""trial"",""time""
""fullscreenenter"",""1"",""4713""
","
","
","""event"",""trial"",""time""
""fullscreenenter"",""1"",""4713""
","
",,968.2,run_exp/static/images/task_images/land.jpg,65,,,,,,,83,,,6,,,,,,,,178357,1,0,FALSE,,,
dig,149,827948,0.0-52.0-0.0,"""event"",""trial"",""time""
""fullscreenenter"",""1"",""4713""
","
","
","""event"",""trial"",""time""
""fullscreenenter"",""1"",""4713""
","
",,,,,,,,,,,,"[{""stimulus"":""run_exp/static/images/task_images/dig.jpg"",""time"":0.20000000298023224},{""stimulus"":""run_exp/static/images/task_images/land.jpg"",""time"":683.2999999970198},{""stimulus"":""run_exp/static/images/task_images/dig.jpg"",""time"":1357.1000000089407}]",[],6,,,,,,,,,,,,,,
harvest,150,828953,0.0-52.0-1.0,"""event"",""trial"",""time""
""fullscreenenter"",""1"",""4713""
","
","
","""event"",""trial"",""time""
""fullscreenenter"",""1"",""4713""
","
",,null,run_exp/static/images/task_images/gems/83.jpg,null,,,,,,,73,,,6,,,,,83,0.875354938,0.879518072,,,,,,,
decision,151,829290,0.0-52.0-2.0,"""event"",""trial"",""time""
""fullscreenenter"",""1"",""4713""
","
","
","""event"",""trial"",""time""
""fullscreenenter"",""1"",""4713""
","
",,335.2,run_exp/static/images/task_images/land.jpg,65,,,,,,,73,,,6,,,,,,,,181737,1,1,FALSE,,,
dig,152,831958,0.0-53.0-0.0,"""event"",""trial"",""time""
""fullscreenenter"",""1"",""4713""
","
","
","""event"",""trial"",""time""
""fullscreenenter"",""1"",""4713""
","
",,,,,,,,,,,,"[{""stimulus"":""run_exp/static/images/task_images/dig.jpg"",""time"":0.29999999701976776},{""stimulus"":""run_exp/static/images/task_images/land.jpg"",""time"":893.5999999940395},{""stimulus"":""run_exp/static/images/task_images/dig.jpg"",""time"":1781}]",[],6,,,,,,,,,,,,,,
harvest,153,832965,0.0-53.0-1.0,"""event"",""trial"",""time""
""fullscreenenter"",""1"",""4713""
","
","
","""event"",""trial"",""time""
""fullscreenenter"",""1"",""4713""
","
",,null,run_exp/static/images/task_images/gems/73.jpg,null,,,,,,,58,,,6,,,,,73,0.793400751,0.794520548,,,,,,,
decision,154,833486,0.0-53.0-2.0,"""event"",""trial"",""time""
""fullscreenenter"",""1"",""4713""
","
","
","""event"",""trial"",""time""
""fullscreenenter"",""1"",""4713""
","
",,519.2,run_exp/static/images/task_images/land.jpg,65,,,,,,,58,,,6,,,,,,,,185933,1,2,FALSE,,,
dig,155,835973,0.0-54.0-0.0,"""event"",""trial"",""time""
""fullscreenenter"",""1"",""4713""
","
","
","""event"",""trial"",""time""
""fullscreenenter"",""1"",""4713""
","
",,,,,,,,,,,,"[{""stimulus"":""run_exp/static/images/task_images/dig.jpg"",""time"":0.20000000298023224},{""stimulus"":""run_exp/static/images/task_images/land.jpg"",""time"":829.9000000059605},{""stimulus"":""run_exp/static/images/task_images/dig.jpg"",""time"":1654.9000000059605}]",[],6,,,,,,,,,,,,,,
harvest,156,836977,0.0-54.0-1.0,"""event"",""trial"",""time""
""fullscreenenter"",""1"",""4713""
","
","
","""event"",""trial"",""time""
""fullscreenenter"",""1"",""4713""
","
",,null,run_exp/static/images/task_images/gems/58.jpg,null,,,,,,,50,,,6,,,,,58,0.869452267,0.862068966,,,,,,,
decision,157,838213,0.0-54.0-2.0,"""event"",""trial"",""time""
""fullscreenenter"",""1"",""4713""
","
","
","""event"",""trial"",""time""
""fullscreenenter"",""1"",""4713""
","
",,1234.9,run_exp/static/images/task_images/land.jpg,76,,,,,,,50,,,6,,,,,,,,190660,1,3,TRUE,,,
travel,158,846978,0.0-55.0-0.0,"""event"",""trial"",""time""
""fullscreenenter"",""1"",""4713""
","
","
","""event"",""trial"",""time""
""fullscreenenter"",""1"",""4713""
","
",,,,,,,,,,,,"[{""stimulus"":""run_exp/static/images/task_images/rocket-01.jpg"",""time"":0.4000000059604645},{""stimulus"":""run_exp/static/images/task_images/rocket-02.jpg"",""time"":976.6000000089407},{""stimulus"":""run_exp/static/images/task_images/rocket-03.jpg"",""time"":1952.4000000059605},{""stimulus"":""run_exp/static/images/task_images/rocket-04.jpg"",""time"":2925.2000000029802},{""stimulus"":""run_exp/static/images/task_images/rocket-05.jpg"",""time"":3896.4000000059605},{""stimulus"":""run_exp/static/images/task_images/rocket-06.jpg"",""time"":4870.20000000298},{""stimulus"":""run_exp/static/images/task_images/rocket-07.jpg"",""time"":5845},{""stimulus"":""run_exp/static/images/task_images/rocket-08.jpg"",""time"":6815.100000008941},{""stimulus"":""run_exp/static/images/task_images/rocket-09.jpg"",""time"":7785.5}]",[],6,,,,,,,,,,,,,,
alien_welcome,159,851983,0.0-55.0-1.0,"""event"",""trial"",""time""
""fullscreenenter"",""1"",""4713""
","
","
","""event"",""trial"",""time""
""fullscreenenter"",""1"",""4713""
","
",,null,run_exp/static/images/task_images/aliens/old_aliens/planet/alien_planet-70.jpg,null,,,,,,,,,,,,,70,"25,48,56,77,67,8,70,11,44,60,62,13,23,1,17,14,31,37,80,79,41,12,54,33,58,78,22,61,9,19,65,42,69,40,75,51,36,16,53,10,71,55,66,28,43,52,64,18,5",,,,,,,,,,
land,160,852490,0.0-55.0-2.0,"""event"",""trial"",""time""
""fullscreenenter"",""1"",""4713""
","
","
","""event"",""trial"",""time""
""fullscreenenter"",""1"",""4713""
","
",,null,run_exp/static/images/task_images/land.jpg,null,,,,,,,109,,,7,,,,,,,,,,,,,,
dig,161,854495,0.0-55.0-3.0,"""event"",""trial"",""time""
""fullscreenenter"",""1"",""4713""
","
","
","""event"",""trial"",""time""
""fullscreenenter"",""1"",""4713""
","
",,,,,,,,,,,,"[{""stimulus"":""run_exp/static/images/task_images/dig.jpg"",""time"":0.3999999910593033},{""stimulus"":""run_exp/static/images/task_images/land.jpg"",""time"":670.5999999940395},{""stimulus"":""run_exp/static/images/task_images/dig.jpg"",""time"":1337.5999999940395}]",[],7,,,,,,,,,,,,,,
harvest,162,855505,0.0-55.0-4.0,"""event"",""trial"",""time""
""fullscreenenter"",""1"",""4713""
","
","
","""event"",""trial"",""time""
""fullscreenenter"",""1"",""4713""
","
",,null,run_exp/static/images/task_images/gems/109.jpg,null,,,,,,,88,,,7,,,,,109,0.809917788,0.80733945,,,,,,,
decision,163,858512,0.0-55.0-5.0,"""event"",""trial"",""time""
""fullscreenenter"",""1"",""4713""
","
","
","""event"",""trial"",""time""
""fullscreenenter"",""1"",""4713""
","
",,null,run_exp/static/images/task_images/land.jpg,null,,,,,,,88,,,7,,,,,,,,210960,1,0,FALSE,,,
time_out,164,860521,0.0-56.0-0.0,"""event"",""trial"",""time""
""fullscreenenter"",""1"",""4713""
","
","
","""event"",""trial"",""time""
""fullscreenenter"",""1"",""4713""
","
",,null,run_exp/static/images/task_images/time_out.jpg,null,,,,,,,88,,,,,,,,,,,,,,,,,
decision,165,863528,0.0-56.0-1.0,"""event"",""trial"",""time""
""fullscreenenter"",""1"",""4713""
","
","
","""event"",""trial"",""time""
""fullscreenenter"",""1"",""4713""
","
",,null,run_exp/static/images/task_images/land.jpg,null,,,,,,,88,,,7,,,,,,,,215975,1,0,FALSE,,,
time_out,166,865534,0.0-57.0-0.0,"""event"",""trial"",""time""
""fullscreenenter"",""1"",""4713""
","
","
","""event"",""trial"",""time""
""fullscreenenter"",""1"",""4713""
","
",,null,run_exp/static/images/task_images/time_out.jpg,null,,,,,,,88,,,,,,,,,,,,,,,,,
decision,167,865548,0.0-57.0-1.0,"""event"",""trial"",""time""
""fullscreenenter"",""1"",""4713""
","
","
","""event"",""trial"",""time""
""fullscreenenter"",""1"",""4713""
","
",,12.30000001,run_exp/static/images/task_images/land.jpg,65,,,,,,,88,,,7,,,,,,,,217995,1,0,FALSE,,,
dig,168,868542,0.0-58.0-0.0,"""event"",""trial"",""time""
""fullscreenenter"",""1"",""4713""
","
","
","""event"",""trial"",""time""
""fullscreenenter"",""1"",""4713""
","
",,,,,,,,,,,,"[{""stimulus"":""run_exp/static/images/task_images/dig.jpg"",""time"":0.29999999701976776},{""stimulus"":""run_exp/static/images/task_images/land.jpg"",""time"":998.5},{""stimulus"":""run_exp/static/images/task_images/dig.jpg"",""time"":1991.2999999970198}]",[],7,,,,,,,,,,,,,,
harvest,169,869548,0.0-58.0-1.0,"""event"",""trial"",""time""
""fullscreenenter"",""1"",""4713""
","
","
","""event"",""trial"",""time""
""fullscreenenter"",""1"",""4713""
","
",,null,run_exp/static/images/task_images/gems/88.jpg,null,,,,,,,71,,,7,,,,,88,0.811981938,0.806818182,,,,,,,
decision,170,870570,0.0-58.0-2.0,"""event"",""trial"",""time""
""fullscreenenter"",""1"",""4713""
","
","
","""event"",""trial"",""time""
""fullscreenenter"",""1"",""4713""
","
",,1020.4,run_exp/static/images/task_images/land.jpg,65,,,,,,,71,,,7,,,,,,,,223018,1,1,FALSE,,,
dig,171,872557,0.0-59.0-0.0,"""event"",""trial"",""time""
""fullscreenenter"",""1"",""4713""
","
","
","""event"",""trial"",""time""
""fullscreenenter"",""1"",""4713""
","
",,,,,,,,,,,,"[{""stimulus"":""run_exp/static/images/task_images/dig.jpg"",""time"":0.20000000298023224},{""stimulus"":""run_exp/static/images/task_images/land.jpg"",""time"":663.9000000059605},{""stimulus"":""run_exp/static/images/task_images/dig.jpg"",""time"":1324.2999999970198}]",[],7,,,,,,,,,,,,,,
harvest,172,873559,0.0-59.0-1.0,"""event"",""trial"",""time""
""fullscreenenter"",""1"",""4713""
","
","
","""event"",""trial"",""time""
""fullscreenenter"",""1"",""4713""
","
",,null,run_exp/static/images/task_images/gems/71.jpg,null,,,,,,,52,,,7,,,,,71,0.738204258,0.732394366,,,,,,,
decision,173,873917,0.0-59.0-2.0,"""event"",""trial"",""time""
""fullscreenenter"",""1"",""4713""
","
","
","""event"",""trial"",""time""
""fullscreenenter"",""1"",""4713""
","
",,356.5,run_exp/static/images/task_images/land.jpg,65,,,,,,,52,,,7,,,,,,,,226365,1,2,FALSE,,,
dig,174,876572,0.0-60.0-0.0,"""event"",""trial"",""time""
""fullscreenenter"",""1"",""4713""
","
","
","""event"",""trial"",""time""
""fullscreenenter"",""1"",""4713""
","
",,,,,,,,,,,,"[{""stimulus"":""run_exp/static/images/task_images/dig.jpg"",""time"":0.20000000298023224},{""stimulus"":""run_exp/static/images/task_images/land.jpg"",""time"":886.2000000029802},{""stimulus"":""run_exp/static/images/task_images/dig.jpg"",""time"":1767.2999999970198}]",[],7,,,,,,,,,,,,,,
harvest,175,877580,0.0-60.0-1.0,"""event"",""trial"",""time""
""fullscreenenter"",""1"",""4713""
","
","
","""event"",""trial"",""time""
""fullscreenenter"",""1"",""4713""
","
",,null,run_exp/static/images/task_images/gems/52.jpg,null,,,,,,,36,,,7,,,,,52,0.692294761,0.692307692,,,,,,,
decision,176,877828,0.0-60.0-2.0,"""event"",""trial"",""time""
""fullscreenenter"",""1"",""4713""
","
","
","""event"",""trial"",""time""
""fullscreenenter"",""1"",""4713""
","
",,245.4,run_exp/static/images/task_images/land.jpg,76,,,,,,,36,,,7,,,,,,,,230275,1,3,TRUE,,,
travel,177,887588,0.0-61.0-0.0,"""event"",""trial"",""time""
""fullscreenenter"",""1"",""4713""
","
","
","""event"",""trial"",""time""
""fullscreenenter"",""1"",""4713""
","
",,,,,,,,,,,,"[{""stimulus"":""run_exp/static/images/task_images/rocket-01.jpg"",""time"":0.10000000894069672},{""stimulus"":""run_exp/static/images/task_images/rocket-02.jpg"",""time"":1084.9000000059605},{""stimulus"":""run_exp/static/images/task_images/rocket-03.jpg"",""time"":2175.2000000029802},{""stimulus"":""run_exp/static/images/task_images/rocket-04.jpg"",""time"":3253.2000000029802},{""stimulus"":""run_exp/static/images/task_images/rocket-05.jpg"",""time"":4335},{""stimulus"":""run_exp/static/images/task_images/rocket-06.jpg"",""time"":5419.600000008941},{""stimulus"":""run_exp/static/images/task_images/rocket-07.jpg"",""time"":6503.79999999702},{""stimulus"":""run_exp/static/images/task_images/rocket-08.jpg"",""time"":7585.79999999702},{""stimulus"":""run_exp/static/images/task_images/rocket-09.jpg"",""time"":8672.29999999702}]",[],7,,,,,,,,,,,,,,
alien_welcome,178,892597,0.0-61.0-1.0,"""event"",""trial"",""time""
""fullscreenenter"",""1"",""4713""
","
","
","""event"",""trial"",""time""
""fullscreenenter"",""1"",""4713""
","
",,null,run_exp/static/images/task_images/aliens/old_aliens/planet/alien_planet-11.jpg,null,,,,,,,,,,,,,11,"25,48,56,77,67,8,70,11,44,60,62,13,23,1,17,14,31,37,80,79,41,12,54,33,58,78,22,61,9,19,65,42,69,40,75,51,36,16,53,10,71,55,66,28,43,52,64,18,5",,,,,,,,,,
land,179,893100,0.0-61.0-2.0,"""event"",""trial"",""time""
""fullscreenenter"",""1"",""4713""
","
","
","""event"",""trial"",""time""
""fullscreenenter"",""1"",""4713""
","
",,null,run_exp/static/images/task_images/land.jpg,null,,,,,,,103,,,8,,,,,,,,,,,,,,
dig,180,895104,0.0-61.0-3.0,"""event"",""trial"",""time""
""fullscreenenter"",""1"",""4713""
","
","
","""event"",""trial"",""time""
""fullscreenenter"",""1"",""4713""
","
",,,,,,,,,,,,"[{""stimulus"":""run_exp/static/images/task_images/dig.jpg"",""time"":0.30000001192092896},{""stimulus"":""run_exp/static/images/task_images/land.jpg"",""time"":674.2000000029802},{""stimulus"":""run_exp/static/images/task_images/dig.jpg"",""time"":1339}]",[],8,,,,,,,,,,,,,,
harvest,181,896106,0.0-61.0-4.0,"""event"",""trial"",""time""
""fullscreenenter"",""1"",""4713""
","
","
","""event"",""trial"",""time""
""fullscreenenter"",""1"",""4713""
","
",,null,run_exp/static/images/task_images/gems/103.jpg,null,,,,,,,76,,,8,,,,,103,0.737524528,0.737864078,,,,,,,
decision,182,896717,0.0-61.0-5.0,"""event"",""trial"",""time""
""fullscreenenter"",""1"",""4713""
","
","
","""event"",""trial"",""time""
""fullscreenenter"",""1"",""4713""
","
",,609.3,run_exp/static/images/task_images/land.jpg,65,,,,,,,76,,,8,,,,,,,,249164,1,0,FALSE,,,
dig,183,899109,0.0-62.0-0.0,"""event"",""trial"",""time""
""fullscreenenter"",""1"",""4713""
","
","
","""event"",""trial"",""time""
""fullscreenenter"",""1"",""4713""
","
",,,,,,,,,,,,"[{""stimulus"":""run_exp/static/images/task_images/dig.jpg"",""time"":0.20000000298023224},{""stimulus"":""run_exp/static/images/task_images/land.jpg"",""time"":798.2999999970198},{""stimulus"":""run_exp/static/images/task_images/dig.jpg"",""time"":1598.7000000029802}]",[],8,,,,,,,,,,,,,,
harvest,184,900112,0.0-62.0-1.0,"""event"",""trial"",""time""
""fullscreenenter"",""1"",""4713""
","
","
","""event"",""trial"",""time""
""fullscreenenter"",""1"",""4713""
","
",,null,run_exp/static/images/task_images/gems/76.jpg,null,,,,,,,62,,,8,,,,,76,0.816372681,0.815789474,,,,,,,
decision,185,900127,0.0-62.0-2.0,"""event"",""trial"",""time""
""fullscreenenter"",""1"",""4713""
","
","
","""event"",""trial"",""time""
""fullscreenenter"",""1"",""4713""
","
",,13.60000001,run_exp/static/images/task_images/land.jpg,65,,,,,,,62,,,8,,,,,,,,252574,1,1,FALSE,,,
dig,186,903118,0.0-63.0-0.0,"""event"",""trial"",""time""
""fullscreenenter"",""1"",""4713""
","
","
","""event"",""trial"",""time""
""fullscreenenter"",""1"",""4713""
","
",,,,,,,,,,,,"[{""stimulus"":""run_exp/static/images/task_images/dig.jpg"",""time"":0.29999999701976776},{""stimulus"":""run_exp/static/images/task_images/land.jpg"",""time"":1001.9000000059605},{""stimulus"":""run_exp/static/images/task_images/dig.jpg"",""time"":1992.7999999970198}]",[],8,,,,,,,,,,,,,,
harvest,187,904123,0.0-63.0-1.0,"""event"",""trial"",""time""
""fullscreenenter"",""1"",""4713""
","
","
","""event"",""trial"",""time""
""fullscreenenter"",""1"",""4713""
","
",,null,run_exp/static/images/task_images/gems/62.jpg,null,,,,,,,44,,,8,,,,,62,0.713626528,0.709677419,,,,,,,
decision,188,904224,0.0-63.0-2.0,"""event"",""trial"",""time""
""fullscreenenter"",""1"",""4713""
","
","
","""event"",""trial"",""time""
""fullscreenenter"",""1"",""4713""
","
",,98.8,run_exp/static/images/task_images/land.jpg,76,,,,,,,44,,,8,,,,,,,,256671,1,2,TRUE,,,
travel,189,914133,0.0-64.0-0.0,"""event"",""trial"",""time""
""fullscreenenter"",""1"",""4713""
","
","
","""event"",""trial"",""time""
""fullscreenenter"",""1"",""4713""
","
",,,,,,,,,,,,"[{""stimulus"":""run_exp/static/images/task_images/rocket-01.jpg"",""time"":0.4000000059604645},{""stimulus"":""run_exp/static/images/task_images/rocket-02.jpg"",""time"":1107.7999999970198},{""stimulus"":""run_exp/static/images/task_images/rocket-03.jpg"",""time"":2201.7999999970198},{""stimulus"":""run_exp/static/images/task_images/rocket-04.jpg"",""time"":3307.7999999970198},{""stimulus"":""run_exp/static/images/task_images/rocket-05.jpg"",""time"":4404.5},{""stimulus"":""run_exp/static/images/task_images/rocket-06.jpg"",""time"":5506},{""stimulus"":""run_exp/static/images/task_images/rocket-07.jpg"",""time"":6606.9000000059605},{""stimulus"":""run_exp/static/images/task_images/rocket-08.jpg"",""time"":7702.4000000059605},{""stimulus"":""run_exp/static/images/task_images/rocket-09.jpg"",""time"":8803.09999999404}]",[],8,,,,,,,,,,,,,,
alien_welcome,190,919140,0.0-64.0-1.0,"""event"",""trial"",""time""
""fullscreenenter"",""1"",""4713""
","
","
","""event"",""trial"",""time""
""fullscreenenter"",""1"",""4713""
","
",,null,run_exp/static/images/task_images/aliens/old_aliens/planet/alien_planet-44.jpg,null,,,,,,,,,,,,,44,"25,48,56,77,67,8,70,11,44,60,62,13,23,1,17,14,31,37,80,79,41,12,54,33,58,78,22,61,9,19,65,42,69,40,75,51,36,16,53,10,71,55,66,28,43,52,64,18,5",,,,,,,,,,
land,191,919645,0.0-64.0-2.0,"""event"",""trial"",""time""
""fullscreenenter"",""1"",""4713""
","
","
","""event"",""trial"",""time""
""fullscreenenter"",""1"",""4713""
","
",,null,run_exp/static/images/task_images/land.jpg,null,,,,,,,103,,,9,,,,,,,,,,,,,,
dig,192,921652,0.0-64.0-3.0,"""event"",""trial"",""time""
""fullscreenenter"",""1"",""4713""
","
","
","""event"",""trial"",""time""
""fullscreenenter"",""1"",""4713""
","
",,,,,,,,,,,,"[{""stimulus"":""run_exp/static/images/task_images/dig.jpg"",""time"":0.3999999910593033},{""stimulus"":""run_exp/static/images/task_images/land.jpg"",""time"":673.0999999940395},{""stimulus"":""run_exp/static/images/task_images/dig.jpg"",""time"":1337}]",[],9,,,,,,,,,,,,,,
harvest,193,922658,0.0-64.0-4.0,"""event"",""trial"",""time""
""fullscreenenter"",""1"",""4713""
","
","
","""event"",""trial"",""time""
""fullscreenenter"",""1"",""4713""
","
",,null,run_exp/static/images/task_images/gems/103.jpg,null,,,,,,,18,,,9,,,,,103,0.172959936,0.174757282,,,,,,,
decision,194,924203,0.0-64.0-5.0,"""event"",""trial"",""time""
""fullscreenenter"",""1"",""4713""
","
","
","""event"",""trial"",""time""
""fullscreenenter"",""1"",""4713""
","
",,1543.3,run_exp/static/images/task_images/land.jpg,65,,,,,,,18,,,9,,,,,,,,276651,1,0,FALSE,,,
dig,195,925663,0.0-65.0-0.0,"""event"",""trial"",""time""
""fullscreenenter"",""1"",""4713""
","
","
","""event"",""trial"",""time""
""fullscreenenter"",""1"",""4713""
","
",,,,,,,,,,,,"[{""stimulus"":""run_exp/static/images/task_images/dig.jpg"",""time"":0.20000000298023224},{""stimulus"":""run_exp/static/images/task_images/land.jpg"",""time"":491.79999999701977},{""stimulus"":""run_exp/static/images/task_images/dig.jpg"",""time"":972.2999999970198}]",[],9,,,,,,,,,,,,,,
harvest,196,926671,0.0-65.0-1.0,"""event"",""trial"",""time""
""fullscreenenter"",""1"",""4713""
","
","
","""event"",""trial"",""time""
""fullscreenenter"",""1"",""4713""
","
",,null,run_exp/static/images/task_images/gems/18.jpg,null,,,,,,,3,,,9,,,,,18,0.184150644,0.166666667,,,,,,,
decision,197,929280,0.0-65.0-2.0,"""event"",""trial"",""time""
""fullscreenenter"",""1"",""4713""
","
","
","""event"",""trial"",""time""
""fullscreenenter"",""1"",""4713""
","
",,2607.4,run_exp/static/images/task_images/land.jpg,65,,,,,,,3,,,9,,,,,,,,281727,1,1,FALSE,,,
dig,198,929676,0.0-66.0-0.0,"""event"",""trial"",""time""
""fullscreenenter"",""1"",""4713""
","
","
","""event"",""trial"",""time""
""fullscreenenter"",""1"",""4713""
","
",,,,,,,,,,,,"[{""stimulus"":""run_exp/static/images/task_images/dig.jpg"",""time"":0.20000000298023224},{""stimulus"":""run_exp/static/images/task_images/land.jpg"",""time"":135.70000000298023},{""stimulus"":""run_exp/static/images/task_images/dig.jpg"",""time"":265.40000000596046}]",[],9,,,,,,,,,,,,,,
harvest,199,930679,0.0-66.0-1.0,"""event"",""trial"",""time""
""fullscreenenter"",""1"",""4713""
","
","
","""event"",""trial"",""time""
""fullscreenenter"",""1"",""4713""
","
",,null,run_exp/static/images/task_images/gems/3.jpg,null,,,,,,,0,,,9,,,,,3,0.121387882,0,,,,,,,
decision,200,931704,0.0-66.0-2.0,"""event"",""trial"",""time""
""fullscreenenter"",""1"",""4713""
","
","
","""event"",""trial"",""time""
""fullscreenenter"",""1"",""4713""
","
",,1023.9,run_exp/static/images/task_images/land.jpg,76,,,,,,,0,,,9,,,,,,,,284151,1,2,TRUE,,,
travel,201,940683,0.0-67.0-0.0,"""event"",""trial"",""time""
""fullscreenenter"",""1"",""4713""
","
","
","""event"",""trial"",""time""
""fullscreenenter"",""1"",""4713""
","
",,,,,,,,,,,,"[{""stimulus"":""run_exp/static/images/task_images/rocket-01.jpg"",""time"":0.29999999701976776},{""stimulus"":""run_exp/static/images/task_images/rocket-02.jpg"",""time"":1003.4000000059605},{""stimulus"":""run_exp/static/images/task_images/rocket-03.jpg"",""time"":1996.2999999970198},{""stimulus"":""run_exp/static/images/task_images/rocket-04.jpg"",""time"":2993.2000000029802},{""stimulus"":""run_exp/static/images/task_images/rocket-05.jpg"",""time"":3990.2999999970198},{""stimulus"":""run_exp/static/images/task_images/rocket-06.jpg"",""time"":4990.5999999940395},{""stimulus"":""run_exp/static/images/task_images/rocket-07.jpg"",""time"":5990.4000000059605},{""stimulus"":""run_exp/static/images/task_images/rocket-08.jpg"",""time"":6986.20000000298},{""stimulus"":""run_exp/static/images/task_images/rocket-09.jpg"",""time"":7983}]",[],9,,,,,,,,,,,,,,
alien_welcome,202,945690,0.0-67.0-1.0,"""event"",""trial"",""time""
""fullscreenenter"",""1"",""4713""
","
","
","""event"",""trial"",""time""
""fullscreenenter"",""1"",""4713""
","
",,null,run_exp/static/images/task_images/aliens/old_aliens/planet/alien_planet-60.jpg,null,,,,,,,,,,,,,60,"25,48,56,77,67,8,70,11,44,60,62,13,23,1,17,14,31,37,80,79,41,12,54,33,58,78,22,61,9,19,65,42,69,40,75,51,36,16,53,10,71,55,66,28,43,52,64,18,5",,,,,,,,,,
land,203,946195,0.0-67.0-2.0,"""event"",""trial"",""time""
""fullscreenenter"",""1"",""4713""
","
","
","""event"",""trial"",""time""
""fullscreenenter"",""1"",""4713""
","
",,null,run_exp/static/images/task_images/land.jpg,null,,,,,,,113,,,10,,,,,,,,,,,,,,
dig,204,948205,0.0-67.0-3.0,"""event"",""trial"",""time""
""fullscreenenter"",""1"",""4713""
","
","
","""event"",""trial"",""time""
""fullscreenenter"",""1"",""4713""
","
",,,,,,,,,,,,"[{""stimulus"":""run_exp/static/images/task_images/dig.jpg"",""time"":0.5},{""stimulus"":""run_exp/static/images/task_images/land.jpg"",""time"":672.7999999970198},{""stimulus"":""run_exp/static/images/task_images/dig.jpg"",""time"":1336.7999999970198}]",[],10,,,,,,,,,,,,,,
harvest,205,949208,0.0-67.0-4.0,"""event"",""trial"",""time""
""fullscreenenter"",""1"",""4713""
","
","
","""event"",""trial"",""time""
""fullscreenenter"",""1"",""4713""
","
",,null,run_exp/static/images/task_images/gems/113.jpg,null,,,,,,,25,,,10,,,,,113,0.219265161,0.221238938,,,,,,,
decision,206,949431,0.0-67.0-5.0,"""event"",""trial"",""time""
""fullscreenenter"",""1"",""4713""
","
","
","""event"",""trial"",""time""
""fullscreenenter"",""1"",""4713""
","
",,222.1,run_exp/static/images/task_images/land.jpg,65,,,,,,,25,,,10,,,,,,,,301878,1,0,TRUE,,,
end_of_block_continue,207,958326,0.0-68.0-0.0,"""event"",""trial"",""time""
""fullscreenenter"",""1"",""4713""
","
","
","""event"",""trial"",""time""
""fullscreenenter"",""1"",""4713""
","
",,null,run_exp/static/audio/clip_32_block_end.m4a,,,,,,,null,,,,,,,,,,,,,,,,,,
alien_welcome,208,963333,0.0-69.0-0.0,"""event"",""trial"",""time""
""fullscreenenter"",""1"",""4713""
","
","
","""event"",""trial"",""time""
""fullscreenenter"",""1"",""4713""
","
",,null,run_exp/static/images/task_images/aliens/old_aliens/planet/alien_planet-62.jpg,null,,,,,,,,,,,,,62,"25,48,56,77,67,8,70,11,44,60,62,13,23,1,17,14,31,37,80,79,41,12,54,33,58,78,22,61,9,19,65,42,69,40,75,51,36,16,53,10,71,55,66,28,43,52,64,18,5",,,,,,,,,,
land,209,963837,0.0-69.0-1.0,"""event"",""trial"",""time""
""fullscreenenter"",""1"",""4713""
","
","
","""event"",""trial"",""time""
""fullscreenenter"",""1"",""4713""
","
",,null,run_exp/static/images/task_images/land.jpg,null,,,,,,,98,,,11,,,,,,,,,,,,,,
dig,210,965843,0.0-69.0-2.0,"""event"",""trial"",""time""
""fullscreenenter"",""1"",""4713""
","
","
","""event"",""trial"",""time""
""fullscreenenter"",""1"",""4713""
","
",,,,,,,,,,,,"[{""stimulus"":""run_exp/static/images/task_images/dig.jpg"",""time"":0.5},{""stimulus"":""run_exp/static/images/task_images/land.jpg"",""time"":672.1999999880791},{""stimulus"":""run_exp/static/images/task_images/dig.jpg"",""time"":1336.8999999910593}]",[],11,,,,,,,,,,,,,,
harvest,211,966851,0.0-69.0-3.0,"""event"",""trial"",""time""
""fullscreenenter"",""1"",""4713""
","
","
","""event"",""trial"",""time""
""fullscreenenter"",""1"",""4713""
","
",,null,run_exp/static/images/task_images/gems/98.jpg,null,,,,,,,19,,,11,,,,,98,0.197466884,0.193877551,,,,,,,
decision,212,967860,0.0-69.0-4.0,"""event"",""trial"",""time""
""fullscreenenter"",""1"",""4713""
","
","
","""event"",""trial"",""time""
""fullscreenenter"",""1"",""4713""
","
",,1006.8,run_exp/static/images/task_images/land.jpg,76,,,,,,,19,,,11,,,,,,,,9530,2,0,TRUE,,,
travel,213,976862,0.0-70.0-0.0,"""event"",""trial"",""time""
""fullscreenenter"",""1"",""4713""
","
","
","""event"",""trial"",""time""
""fullscreenenter"",""1"",""4713""
","
",,,,,,,,,,,,"[{""stimulus"":""run_exp/static/images/task_images/rocket-01.jpg"",""time"":0.20000000298023224},{""stimulus"":""run_exp/static/images/task_images/rocket-02.jpg"",""time"":1002.5},{""stimulus"":""run_exp/static/images/task_images/rocket-03.jpg"",""time"":2001.4000000059605},{""stimulus"":""run_exp/static/images/task_images/rocket-04.jpg"",""time"":3004.5},{""stimulus"":""run_exp/static/images/task_images/rocket-05.jpg"",""time"":3997.4000000059605},{""stimulus"":""run_exp/static/images/task_images/rocket-06.jpg"",""time"":5004.5999999940395},{""stimulus"":""run_exp/static/images/task_images/rocket-07.jpg"",""time"":5998.29999999702},{""stimulus"":""run_exp/static/images/task_images/rocket-08.jpg"",""time"":6997.4000000059605},{""stimulus"":""run_exp/static/images/task_images/rocket-09.jpg"",""time"":7995}]",[],11,,,,,,,,,,,,,,
alien_welcome,214,981867,0.0-70.0-1.0,"""event"",""trial"",""time""
""fullscreenenter"",""1"",""4713""
","
","
","""event"",""trial"",""time""
""fullscreenenter"",""1"",""4713""
","
",,null,run_exp/static/images/task_images/aliens/old_aliens/planet/alien_planet-13.jpg,null,,,,,,,,,,,,,13,"25,48,56,77,67,8,70,11,44,60,62,13,23,1,17,14,31,37,80,79,41,12,54,33,58,78,22,61,9,19,65,42,69,40,75,51,36,16,53,10,71,55,66,28,43,52,64,18,5",,,,,,,,,,
land,215,982375,0.0-70.0-2.0,"""event"",""trial"",""time""
""fullscreenenter"",""1"",""4713""
","
","
","""event"",""trial"",""time""
""fullscreenenter"",""1"",""4713""
","
",,null,run_exp/static/images/task_images/land.jpg,null,,,,,,,95,,,12,,,,,,,,,,,,,,
dig,216,984384,0.0-70.0-3.0,"""event"",""trial"",""time""
""fullscreenenter"",""1"",""4713""
","
","
","""event"",""trial"",""time""
""fullscreenenter"",""1"",""4713""
","
",,,,,,,,,,,,"[{""stimulus"":""run_exp/static/images/task_images/dig.jpg"",""time"":0.4000000059604645},{""stimulus"":""run_exp/static/images/task_images/land.jpg"",""time"":673.1000000089407},{""stimulus"":""run_exp/static/images/task_images/dig.jpg"",""time"":1340.5}]",[],12,,,,,,,,,,,,,,
harvest,217,985387,0.0-70.0-4.0,"""event"",""trial"",""time""
""fullscreenenter"",""1"",""4713""
","
","
","""event"",""trial"",""time""
""fullscreenenter"",""1"",""4713""
","
",,null,run_exp/static/images/task_images/gems/95.jpg,null,,,,,,,23,,,12,,,,,95,0.244218838,0.242105263,,,,,,,
decision,218,986928,0.0-70.0-5.0,"""event"",""trial"",""time""
""fullscreenenter"",""1"",""4713""
","
","
","""event"",""trial"",""time""
""fullscreenenter"",""1"",""4713""
","
",,1538.9,run_exp/static/images/task_images/land.jpg,65,,,,,,,23,,,12,,,,,,,,28598,2,0,FALSE,,,
dig,219,988394,0.0-71.0-0.0,"""event"",""trial"",""time""
""fullscreenenter"",""1"",""4713""
","
","
","""event"",""trial"",""time""
""fullscreenenter"",""1"",""4713""
","
",,,,,,,,,,,,"[{""stimulus"":""run_exp/static/images/task_images/dig.jpg"",""time"":0.29999999701976776},{""stimulus"":""run_exp/static/images/task_images/land.jpg"",""time"":491},{""stimulus"":""run_exp/static/images/task_images/dig.jpg"",""time"":976.2000000029802}]",[],12,,,,,,,,,,,,,,
harvest,220,989397,0.0-71.0-1.0,"""event"",""trial"",""time""
""fullscreenenter"",""1"",""4713""
","
","
","""event"",""trial"",""time""
""fullscreenenter"",""1"",""4713""
","
",,null,run_exp/static/images/task_images/gems/23.jpg,null,,,,,,,5,,,12,,,,,23,0.227660199,0.217391304,,,,,,,
decision,221,992400,0.0-71.0-2.0,"""event"",""trial"",""time""
""fullscreenenter"",""1"",""4713""
","
","
","""event"",""trial"",""time""
""fullscreenenter"",""1"",""4713""
","
",,null,run_exp/static/images/task_images/land.jpg,null,,,,,,,5,,,12,,,,,,,,34070,2,1,FALSE,,,
time_out,222,994409,0.0-72.0-0.0,"""event"",""trial"",""time""
""fullscreenenter"",""1"",""4713""
","
","
","""event"",""trial"",""time""
""fullscreenenter"",""1"",""4713""
","
",,null,run_exp/static/images/task_images/time_out.jpg,null,,,,,,,5,,,,,,,,,,,,,,,,,
decision,223,994761,0.0-72.0-1.0,"""event"",""trial"",""time""
""fullscreenenter"",""1"",""4713""
","
","
","""event"",""trial"",""time""
""fullscreenenter"",""1"",""4713""
","
",,351.1,run_exp/static/images/task_images/land.jpg,76,,,,,,,5,,,12,,,,,,,,36431,2,1,TRUE,,,
travel,224,1004415,0.0-73.0-0.0,"""event"",""trial"",""time""
""fullscreenenter"",""1"",""4713""
","
","
","""event"",""trial"",""time""
""fullscreenenter"",""1"",""4713""
","
",,,,,,,,,,,,"[{""stimulus"":""run_exp/static/images/task_images/rocket-01.jpg"",""time"":0.20000000298023224},{""stimulus"":""run_exp/static/images/task_images/rocket-02.jpg"",""time"":1076.7999999970198},{""stimulus"":""run_exp/static/images/task_images/rocket-03.jpg"",""time"":2147.7000000029802},{""stimulus"":""run_exp/static/images/task_images/rocket-04.jpg"",""time"":3220},{""stimulus"":""run_exp/static/images/task_images/rocket-05.jpg"",""time"":4292.399999991059},{""stimulus"":""run_exp/static/images/task_images/rocket-06.jpg"",""time"":5366.399999991059},{""stimulus"":""run_exp/static/images/task_images/rocket-07.jpg"",""time"":6437.79999999702},{""stimulus"":""run_exp/static/images/task_images/rocket-08.jpg"",""time"":7508.399999991059},{""stimulus"":""run_exp/static/images/task_images/rocket-09.jpg"",""time"":8584}]",[],12,,,,,,,,,,,,,,
alien_welcome,225,1009420,0.0-73.0-1.0,"""event"",""trial"",""time""
""fullscreenenter"",""1"",""4713""
","
","
","""event"",""trial"",""time""
""fullscreenenter"",""1"",""4713""
","
",,null,run_exp/static/images/task_images/aliens/old_aliens/planet/alien_planet-23.jpg,null,,,,,,,,,,,,,23,"25,48,56,77,67,8,70,11,44,60,62,13,23,1,17,14,31,37,80,79,41,12,54,33,58,78,22,61,9,19,65,42,69,40,75,51,36,16,53,10,71,55,66,28,43,52,64,18,5",,,,,,,,,,
land,226,1009926,0.0-73.0-2.0,"""event"",""trial"",""time""
""fullscreenenter"",""1"",""4713""
","
","
","""event"",""trial"",""time""
""fullscreenenter"",""1"",""4713""
","
",,null,run_exp/static/images/task_images/land.jpg,null,,,,,,,110,,,13,,,,,,,,,,,,,,
dig,227,1011932,0.0-73.0-3.0,"""event"",""trial"",""time""
""fullscreenenter"",""1"",""4713""
","
","
","""event"",""trial"",""time""
""fullscreenenter"",""1"",""4713""
","
",,,,,,,,,,,,"[{""stimulus"":""run_exp/static/images/task_images/dig.jpg"",""time"":0.5},{""stimulus"":""run_exp/static/images/task_images/land.jpg"",""time"":672.7999999970198},{""stimulus"":""run_exp/static/images/task_images/dig.jpg"",""time"":1336.5}]",[],13,,,,,,,,,,,,,,
harvest,228,1012935,0.0-73.0-4.0,"""event"",""trial"",""time""
""fullscreenenter"",""1"",""4713""
","
","
","""event"",""trial"",""time""
""fullscreenenter"",""1"",""4713""
","
",,null,run_exp/static/images/task_images/gems/110.jpg,null,,,,,,,19,,,13,,,,,110,0.174172862,0.172727273,,,,,,,
decision,229,1014143,0.0-73.0-5.0,"""event"",""trial"",""time""
""fullscreenenter"",""1"",""4713""
","
","
","""event"",""trial"",""time""
""fullscreenenter"",""1"",""4713""
","
",,1205.7,run_exp/static/images/task_images/land.jpg,65,,,,,,,19,,,13,,,,,,,,55813,2,0,FALSE,,,
dig,230,1015944,0.0-74.0-0.0,"""event"",""trial"",""time""
""fullscreenenter"",""1"",""4713""
","
","
","""event"",""trial"",""time""
""fullscreenenter"",""1"",""4713""
","
",,,,,,,,,,,,"[{""stimulus"":""run_exp/static/images/task_images/dig.jpg"",""time"":0.29999999701976776},{""stimulus"":""run_exp/static/images/task_images/land.jpg"",""time"":602.0999999940395},{""stimulus"":""run_exp/static/images/task_images/dig.jpg"",""time"":1198.5999999940395}]",[],13,,,,,,,,,,,,,,
harvest,231,1016946,0.0-74.0-1.0,"""event"",""trial"",""time""
""fullscreenenter"",""1"",""4713""
","
","
","""event"",""trial"",""time""
""fullscreenenter"",""1"",""4713""
","
",,null,run_exp/static/images/task_images/gems/19.jpg,null,,,,,,,3,,,13,,,,,19,0.144421966,0.157894737,,,,,,,
decision,232,1019951,0.0-74.0-2.0,"""event"",""trial"",""time""
""fullscreenenter"",""1"",""4713""
","
","
","""event"",""trial"",""time""
""fullscreenenter"",""1"",""4713""
","
",,3003.3,run_exp/static/images/task_images/land.jpg,65,,,,,,,3,,,13,,,,,,,,61622,2,1,FALSE,,,
dig,233,1019963,0.0-75.0-0.0,"""event"",""trial"",""time""
""fullscreenenter"",""1"",""4713""
","
","
","""event"",""trial"",""time""
""fullscreenenter"",""1"",""4713""
","
",,,,,,,,,,,,"[{""stimulus"":""run_exp/static/images/task_images/dig.jpg"",""time"":0.20000000298023224},{""stimulus"":""run_exp/static/images/task_images/land.jpg"",""time"":3.4000000059604645},{""stimulus"":""run_exp/static/images/task_images/dig.jpg"",""time"":5.9000000059604645}]",[],13,,,,,,,,,,,,,,
harvest,234,1020965,0.0-75.0-1.0,"""event"",""trial"",""time""
""fullscreenenter"",""1"",""4713""
","
","
","""event"",""trial"",""time""
""fullscreenenter"",""1"",""4713""
","
",,null,run_exp/static/images/task_images/gems/3.jpg,null,,,,,,,1,,,13,,,,,3,0.18533137,0.333333333,,,,,,,
decision,235,1021716,0.0-75.0-2.0,"""event"",""trial"",""time""
""fullscreenenter"",""1"",""4713""
","
","
","""event"",""trial"",""time""
""fullscreenenter"",""1"",""4713""
","
",,748.8,run_exp/static/images/task_images/land.jpg,76,,,,,,,1,,,13,,,,,,,,63386,2,2,TRUE,,,
travel,236,1030964,0.0-76.0-0.0,"""event"",""trial"",""time""
""fullscreenenter"",""1"",""4713""
","
","
","""event"",""trial"",""time""
""fullscreenenter"",""1"",""4713""
","
",,,,,,,,,,,,"[{""stimulus"":""run_exp/static/images/task_images/rocket-01.jpg"",""time"":0.29999999701976776},{""stimulus"":""run_exp/static/images/task_images/rocket-02.jpg"",""time"":1031.5},{""stimulus"":""run_exp/static/images/task_images/rocket-03.jpg"",""time"":2060.0999999940395},{""stimulus"":""run_exp/static/images/task_images/rocket-04.jpg"",""time"":3086.9000000059605},{""stimulus"":""run_exp/static/images/task_images/rocket-05.jpg"",""time"":4109.9000000059605},{""stimulus"":""run_exp/static/images/task_images/rocket-06.jpg"",""time"":5138},{""stimulus"":""run_exp/static/images/task_images/rocket-07.jpg"",""time"":6168.79999999702},{""stimulus"":""run_exp/static/images/task_images/rocket-08.jpg"",""time"":7193},{""stimulus"":""run_exp/static/images/task_images/rocket-09.jpg"",""time"":8218.70000000298}]",[],13,,,,,,,,,,,,,,
alien_welcome,237,1035975,0.0-76.0-1.0,"""event"",""trial"",""time""
""fullscreenenter"",""1"",""4713""
","
","
","""event"",""trial"",""time""
""fullscreenenter"",""1"",""4713""
","
",,null,run_exp/static/images/task_images/aliens/old_aliens/planet/alien_planet-1.jpg,null,,,,,,,,,,,,,1,"25,48,56,77,67,8,70,11,44,60,62,13,23,1,17,14,31,37,80,79,41,12,54,33,58,78,22,61,9,19,65,42,69,40,75,51,36,16,53,10,71,55,66,28,43,52,64,18,5",,,,,,,,,,
land,238,1036482,0.0-76.0-2.0,"""event"",""trial"",""time""
""fullscreenenter"",""1"",""4713""
","
","
","""event"",""trial"",""time""
""fullscreenenter"",""1"",""4713""
","
",,null,run_exp/static/images/task_images/land.jpg,null,,,,,,,93,,,14,,,,,,,,,,,,,,
dig,239,1038492,0.0-76.0-3.0,"""event"",""trial"",""time""
""fullscreenenter"",""1"",""4713""
","
","
","""event"",""trial"",""time""
""fullscreenenter"",""1"",""4713""
","
",,,,,,,,,,,,"[{""stimulus"":""run_exp/static/images/task_images/dig.jpg"",""time"":0.6000000089406967},{""stimulus"":""run_exp/static/images/task_images/land.jpg"",""time"":674.7000000029802},{""stimulus"":""run_exp/static/images/task_images/dig.jpg"",""time"":1336.9000000059605}]",[],14,,,,,,,,,,,,,,
harvest,240,1039495,0.0-76.0-4.0,"""event"",""trial"",""time""
""fullscreenenter"",""1"",""4713""
","
","
","""event"",""trial"",""time""
""fullscreenenter"",""1"",""4713""
","
",,null,run_exp/static/images/task_images/gems/93.jpg,null,,,,,,,82,,,14,,,,,93,0.886808985,0.88172043,,,,,,,
decision,241,1040193,0.0-76.0-5.0,"""event"",""trial"",""time""
""fullscreenenter"",""1"",""4713""
","
","
","""event"",""trial"",""time""
""fullscreenenter"",""1"",""4713""
","
",,696.1,run_exp/static/images/task_images/land.jpg,76,,,,,,,82,,,14,,,,,,,,81863,2,0,TRUE,,,
travel,242,1049497,0.0-77.0-0.0,"""event"",""trial"",""time""
""fullscreenenter"",""1"",""4713""
","
","
","""event"",""trial"",""time""
""fullscreenenter"",""1"",""4713""
","
",,,,,,,,,,,,"[{""stimulus"":""run_exp/static/images/task_images/rocket-01.jpg"",""time"":0.29999999701976776},{""stimulus"":""run_exp/static/images/task_images/rocket-02.jpg"",""time"":1038},{""stimulus"":""run_exp/static/images/task_images/rocket-03.jpg"",""time"":2069.1000000089407},{""stimulus"":""run_exp/static/images/task_images/rocket-04.jpg"",""time"":3106.2999999970198},{""stimulus"":""run_exp/static/images/task_images/rocket-05.jpg"",""time"":4138.100000008941},{""stimulus"":""run_exp/static/images/task_images/rocket-06.jpg"",""time"":5166.9000000059605},{""stimulus"":""run_exp/static/images/task_images/rocket-07.jpg"",""time"":6200.29999999702},{""stimulus"":""run_exp/static/images/task_images/rocket-08.jpg"",""time"":7236.70000000298},{""stimulus"":""run_exp/static/images/task_images/rocket-09.jpg"",""time"":8266.90000000596}]",[],14,,,,,,,,,,,,,,
alien_welcome,243,1054500,0.0-77.0-1.0,"""event"",""trial"",""time""
""fullscreenenter"",""1"",""4713""
","
","
","""event"",""trial"",""time""
""fullscreenenter"",""1"",""4713""
","
",,null,run_exp/static/images/task_images/aliens/old_aliens/planet/alien_planet-17.jpg,null,,,,,,,,,,,,,17,"25,48,56,77,67,8,70,11,44,60,62,13,23,1,17,14,31,37,80,79,41,12,54,33,58,78,22,61,9,19,65,42,69,40,75,51,36,16,53,10,71,55,66,28,43,52,64,18,5",,,,,,,,,,
land,244,1055004,0.0-77.0-2.0,"""event"",""trial"",""time""
""fullscreenenter"",""1"",""4713""
","
","
","""event"",""trial"",""time""
""fullscreenenter"",""1"",""4713""
","
",,null,run_exp/static/images/task_images/land.jpg,null,,,,,,,93,,,15,,,,,,,,,,,,,,
dig,245,1057012,0.0-77.0-3.0,"""event"",""trial"",""time""
""fullscreenenter"",""1"",""4713""
","
","
","""event"",""trial"",""time""
""fullscreenenter"",""1"",""4713""
","
",,,,,,,,,,,,"[{""stimulus"":""run_exp/static/images/task_images/dig.jpg"",""time"":0.4000000059604645},{""stimulus"":""run_exp/static/images/task_images/land.jpg"",""time"":668.5},{""stimulus"":""run_exp/static/images/task_images/dig.jpg"",""time"":1335.9000000059605}]",[],15,,,,,,,,,,,,,,
harvest,246,1058018,0.0-77.0-4.0,"""event"",""trial"",""time""
""fullscreenenter"",""1"",""4713""
","
","
","""event"",""trial"",""time""
""fullscreenenter"",""1"",""4713""
","
