trial_type,trial_index,time_elapsed,internal_node_id,interactions,blur_events,focus_events,fullscreenenter_events,fullscreenexit_events,success,rt,stimulus,key_press,prompt,subject_id,participant_id,age,gender,button_pressed,next_reward,animation_sequence,responses,planet,curr_prac_trial,n_prac_rounds,alien,aliens,reward_received,decay_rate_actual,decay_rate_exp,time_in_block,block_num,prt,last_trial_on_planet,button_html,bonus,num_failures
pavlovia,0,2,0.0-0.0,"""event"",""trial"",""time""
""fullscreenenter"",""1"",""1873""
""fullscreenexit"",""1"",""2176""
","
","
","""event"",""trial"",""time""
""fullscreenenter"",""1"",""1873""
","""event"",""trial"",""time""
""fullscreenexit"",""1"",""2176""
",,,,,,,,,,,,,,,,,,,,,,,,,,,,
fullscreen,1,2859,0.0-1.0,"""event"",""trial"",""time""
""fullscreenenter"",""1"",""1873""
""fullscreenexit"",""1"",""2176""
","
","
","""event"",""trial"",""time""
""fullscreenenter"",""1"",""1873""
","""event"",""trial"",""time""
""fullscreenexit"",""1"",""2176""
",TRUE,,,,,,,,,,,,,,,,,,,,,,,,,,,
instruc_welcome,2,12582,0.0-2.0,"""event"",""trial"",""time""
""fullscreenenter"",""1"",""1873""
""fullscreenexit"",""1"",""2176""
","
","
","""event"",""trial"",""time""
""fullscreenenter"",""1"",""1873""
","""event"",""trial"",""time""
""fullscreenexit"",""1"",""2176""
",,null,run_exp/static/audio/clip_1_welcome.m4a,null,"<p>Howdy! In this experiment, you’ll be an explorer traveling through space to collect space treasure.</p><p>Your mission is to collect as much treasure as possible.</p><br><br><p><img src='run_exp/static/images/task_images/opening_img-01.jpg' height='300' width='auto'></p>",9510,3456,11.77,Female,,,,,,,,,,,,,,,,,,,
audio-keyboard-response,3,29181,0.0-3.0,"""event"",""trial"",""time""
""fullscreenenter"",""1"",""1873""
""fullscreenexit"",""1"",""2176""
","
","
","""event"",""trial"",""time""
""fullscreenenter"",""1"",""1873""
","""event"",""trial"",""time""
""fullscreenexit"",""1"",""2176""
",,null,run_exp/static/audio/clip_2_move.m4a,null,,,,,,,,,,,,,,,,,,,,,,,,
welcome_dec,4,32300,0.0-4.0,"""event"",""trial"",""time""
""fullscreenenter"",""1"",""1873""
""fullscreenexit"",""1"",""2176""
","
","
","""event"",""trial"",""time""
""fullscreenenter"",""1"",""1873""
","""event"",""trial"",""time""
""fullscreenexit"",""1"",""2176""
",,3113.9,"<p>Howdy! In this experiment, you’ll be an explorer traveling through space to collect space treasure.</p><p>Your mission is to collect as much treasure as possible.</p><br><br><p><img src='run_exp/static/images/task_images/opening_img-01.jpg' height='300' width='auto'></p>",,,,,,,1,,,,,,,,,,,,,,,,,,
html-keyboard-response,5,34437,0.0-5.0,"""event"",""trial"",""time""
""fullscreenenter"",""1"",""1873""
""fullscreenexit"",""1"",""2176""
","
","
","""event"",""trial"",""time""
""fullscreenenter"",""1"",""1873""
","""event"",""trial"",""time""
""fullscreenexit"",""1"",""2176""
",,2135.6,"<p>Howdy! In this experiment, you’ll be an explorer traveling through space to collect space treasure.</p><p>Your mission is to collect as much treasure as possible.</p><br><br><p><img src='run_exp/static/images/task_images/opening_img-01.jpg' height='300' width='auto'></p><button class=""jspsych-html-btn-unchosen""><img src=""run_exp/static/images/task_images/planet-01.jpg"" height=""50""></button><button class=""jspsych-html-btn-chosen""><img src=""run_exp/static/images/task_images/planet-02.jpg"" height=""50""></button><p><b>[press the space bar to lock in your answer]<b><br></p>",32,,,,,,,,,,,,,,,,,,,,,,,,
instruc_goal,6,44501,0.0-6.0-0.0,"""event"",""trial"",""time""
""fullscreenenter"",""1"",""1873""
""fullscreenexit"",""1"",""2176""
","
","
","""event"",""trial"",""time""
""fullscreenenter"",""1"",""1873""
","""event"",""trial"",""time""
""fullscreenexit"",""1"",""2176""
",,null,run_exp/static/audio/clip_3_goal.m4a,null,"<p> As a space explorer, you’ll visit different planets to dig for space treasure, these pink gems.</p> <p> The more treasure you dig up, the more bonus money you’ll win! </p><br><br><p><img src='run_exp/static/images/task_images/pink_gem.jpg' height='300' width='auto'></p>",,,,,,,,,,,,,,,,,,,,,,,
instruc_goal,7,45972,0.0-6.0-1.0,"""event"",""trial"",""time""
""fullscreenenter"",""1"",""1873""
""fullscreenexit"",""1"",""2176""
","
","
","""event"",""trial"",""time""
""fullscreenenter"",""1"",""1873""
","""event"",""trial"",""time""
""fullscreenexit"",""1"",""2176""
",,1466.6,"<p> As a space explorer, you’ll visit different planets to dig for space treasure, these pink gems.</p> <p> The more treasure you dig up, the more bonus money you’ll win! </p><br><br><p><img src='run_exp/static/images/task_images/pink_gem.jpg' height='300' width='auto'></p>",,,,,,,1,,,,,,,,,,,,,,,,,,
html-keyboard-response,8,46380,0.0-6.0-2.0,"""event"",""trial"",""time""
""fullscreenenter"",""1"",""1873""
""fullscreenexit"",""1"",""2176""
","
","
","""event"",""trial"",""time""
""fullscreenenter"",""1"",""1873""
","""event"",""trial"",""time""
""fullscreenexit"",""1"",""2176""
",,407.6,"<p> As a space explorer, you’ll visit different planets to dig for space treasure, these pink gems.</p> <p> The more treasure you dig up, the more bonus money you’ll win! </p><br><br><p><img src='run_exp/static/images/task_images/pink_gem.jpg' height='300' width='auto'></p><button class=""jspsych-html-btn-unchosen""><img src=""run_exp/static/images/task_images/planet-01.jpg"" height=""50""></button><button class=""jspsych-html-btn-chosen""><img src=""run_exp/static/images/task_images/planet-02.jpg"" height=""50""></button><p><b>[press the space bar to lock in your answer]<b><br></p>",32,,,,,,,,,,,,,,,,,,,,,,,,
instruc_dig,9,62382,0.0-7.0-0.0,"""event"",""trial"",""time""
""fullscreenenter"",""1"",""1873""
""fullscreenexit"",""1"",""2176""
","
","
","""event"",""trial"",""time""
""fullscreenenter"",""1"",""1873""
","""event"",""trial"",""time""
""fullscreenexit"",""1"",""2176""
",,null,run_exp/static/audio/clip_4_dig.m4a,null,,,,,,,100,,,,,,,,,,,,,,,,,
instruc_dig_try,10,62773,0.0-7.0-1.0,"""event"",""trial"",""time""
""fullscreenenter"",""1"",""1873""
""fullscreenexit"",""1"",""2176""
","
","
","""event"",""trial"",""time""
""fullscreenenter"",""1"",""1873""
","""event"",""trial"",""time""
""fullscreenexit"",""1"",""2176""
",,388,"<p> When you’ve arrived at a new planet, you will dig once. </p> <p>Then, you get to decide if you want to stay on the planet and dig again or travel to a new planet and dig there.</p> <p> To stay and dig, press the letter <strong>‘A’</strong> on your keyboard. Try pressing it now! </p><p><img src='run_exp/static/images/task_images/land.jpg'  height='700' width='auto'></p>",65,"<p> When you’ve arrived at a new planet, you will dig once. </p> <p>Then, you get to decide if you want to stay on the planet and dig again or travel to a new planet and dig there.</p> <p> To stay and dig, press the letter <strong>‘A’</strong> on your keyboard. Try pressing it now! </p><p><img src='run_exp/static/images/task_images/land.jpg'  height='700' width='auto'></p>",,,,,,100,,,,,,,,,,,,,,,,,
dig_prac,11,64782,0.0-7.0-2.0,"""event"",""trial"",""time""
""fullscreenenter"",""1"",""1873""
""fullscreenexit"",""1"",""2176""
","
","
","""event"",""trial"",""time""
""fullscreenenter"",""1"",""1873""
","""event"",""trial"",""time""
""fullscreenexit"",""1"",""2176""
",,,,,,,,,,,,"[{""stimulus"":""run_exp/static/images/task_images/dig.jpg"",""time"":0.09999999403953552},{""stimulus"":""run_exp/static/images/task_images/land.jpg"",""time"":669.0999999940395},{""stimulus"":""run_exp/static/images/task_images/dig.jpg"",""time"":1336.5}]",[],,,,,,,,,,,,,,,
instruc_travel,12,101044,0.0-7.0-3.0,"""event"",""trial"",""time""
""fullscreenenter"",""1"",""1873""
""fullscreenexit"",""1"",""2176""
","
","
","""event"",""trial"",""time""
""fullscreenenter"",""1"",""1873""
","""event"",""trial"",""time""
""fullscreenexit"",""1"",""2176""
",,null,run_exp/static/audio/clip_5_travel.m4a,null,"<p>Every time you dig up gems, there are less gems on the planet, so the more you dig on a planet the fewer gems you’ll get with each dig.</p><p>When gems are running low, you may want to travel to a new planet. </p> <p>  Planets are very far apart in this galaxy, so it will take some time to travel between them. </p> <br><p>There are lots and lots of planets for you to visit, so you won’t be able to return to any planets you’ve seen before. </p><br><p>To leave this planet and travel to a new one, press the letter <strong>‘L’</strong> on your keyboard. Try pressing it now! </p><p><img src='run_exp/static/images/task_images/rocket-01.jpg'  height='600' width='auto'></p>",,,,,,,,,,,,,,,,,,,,,,,
instruc_travel_try,13,103381,0.0-7.0-4.0,"""event"",""trial"",""time""
""fullscreenenter"",""1"",""1873""
""fullscreenexit"",""1"",""2176""
","
","
","""event"",""trial"",""time""
""fullscreenenter"",""1"",""1873""
","""event"",""trial"",""time""
""fullscreenexit"",""1"",""2176""
",,2334.2,"<p>Every time you dig up gems, there are less gems on the planet, so the more you dig on a planet the fewer gems you’ll get with each dig.</p><p>When gems are running low, you may want to travel to a new planet. </p> <p>  Planets are very far apart in this galaxy, so it will take some time to travel between them. </p> <br><p>There are lots and lots of planets for you to visit, so you won’t be able to return to any planets you’ve seen before. </p><br><p>To leave this planet and travel to a new one, press the letter <strong>‘L’</strong> on your keyboard. Try pressing it now! </p><p><img src='run_exp/static/images/task_images/rocket-01.jpg'  height='600' width='auto'></p>",76,"<p>Every time you dig up gems, there are less gems on the planet, so the more you dig on a planet the fewer gems you’ll get with each dig.</p><p>When gems are running low, you may want to travel to a new planet. </p> <p>  Planets are very far apart in this galaxy, so it will take some time to travel between them. </p> <br><p>There are lots and lots of planets for you to visit, so you won’t be able to return to any planets you’ve seen before. </p><br><p>To leave this planet and travel to a new one, press the letter <strong>‘L’</strong> on your keyboard. Try pressing it now! </p><p><img src='run_exp/static/images/task_images/rocket-01.jpg'  height='600' width='auto'></p>",,,,,,,,,,,,,,,,,,,,,,,
travel_prac,14,113381,0.0-7.0-5.0,"""event"",""trial"",""time""
""fullscreenenter"",""1"",""1873""
""fullscreenexit"",""1"",""2176""
""blur"",""15"",""123823""
""focus"",""15"",""124950""
","""event"",""trial"",""time""
""blur"",""15"",""123823""
","""event"",""trial"",""time""
""focus"",""15"",""124950""
","""event"",""trial"",""time""
""fullscreenenter"",""1"",""1873""
","""event"",""trial"",""time""
""fullscreenexit"",""1"",""2176""
",,,,,,,,,,,,"[{""stimulus"":""run_exp/static/images/task_images/rocket-01.jpg"",""time"":0.09999999403953552},{""stimulus"":""run_exp/static/images/task_images/rocket-02.jpg"",""time"":1113.2000000029802},{""stimulus"":""run_exp/static/images/task_images/rocket-03.jpg"",""time"":2223.9000000059605},{""stimulus"":""run_exp/static/images/task_images/rocket-04.jpg"",""time"":3335.7000000029802},{""stimulus"":""run_exp/static/images/task_images/rocket-05.jpg"",""time"":4446.5},{""stimulus"":""run_exp/static/images/task_images/rocket-06.jpg"",""time"":5557.4000000059605},{""stimulus"":""run_exp/static/images/task_images/rocket-07.jpg"",""time"":6667.5999999940395},{""stimulus"":""run_exp/static/images/task_images/rocket-08.jpg"",""time"":7779.20000000298},{""stimulus"":""run_exp/static/images/task_images/rocket-09.jpg"",""time"":8889.09999999404}]",[],0,,,,,,,,,,,,,,
instruc_alien_greet,15,140564,0.0-7.0-6.0,"""event"",""trial"",""time""
""fullscreenenter"",""1"",""1873""
""fullscreenexit"",""1"",""2176""
""blur"",""15"",""123823""
""focus"",""15"",""124950""
","""event"",""trial"",""time""
""blur"",""15"",""123823""
","""event"",""trial"",""time""
""focus"",""15"",""124950""
","""event"",""trial"",""time""
""fullscreenenter"",""1"",""1873""
","""event"",""trial"",""time""
""fullscreenexit"",""1"",""2176""
",,null,run_exp/static/audio/clip_6_alien.m4a,null,"<p>When you arrive at a new planet, the alien who owns the treasure mine on that planet will greet you!</p><p>The better an alien takes care of their mine the easier it is to dig for gems. Some aliens take better care of their mine than others. So, you won’t get exactly the same amount of gems on each planet.</p><p>What the alien looks like does not tell you anything about how many gems there are on the planet.</p><br><p><img src=""run_exp/static/images/task_images/aliens/instructions_aliens/planet/alien_planet-1.jpg""  height=""600"" width=""auto""></p>",,,,,,,,,,,,,,,,,,,,,,,
instruc_alien_greet,16,142487,0.0-7.0-7.0,"""event"",""trial"",""time""
""fullscreenenter"",""1"",""1873""
""fullscreenexit"",""1"",""2176""
""blur"",""15"",""123823""
""focus"",""15"",""124950""
","""event"",""trial"",""time""
""blur"",""15"",""123823""
","""event"",""trial"",""time""
""focus"",""15"",""124950""
","""event"",""trial"",""time""
""fullscreenenter"",""1"",""1873""
","""event"",""trial"",""time""
""fullscreenexit"",""1"",""2176""
",,1919.4,"<p>When you arrive at a new planet, the alien who owns the treasure mine on that planet will greet you!</p><p>The better an alien takes care of their mine the easier it is to dig for gems. Some aliens take better care of their mine than others. So, you won’t get exactly the same amount of gems on each planet.</p><p>What the alien looks like does not tell you anything about how many gems there are on the planet.</p><br><p><img src=""run_exp/static/images/task_images/aliens/instructions_aliens/planet/alien_planet-1.jpg""  height=""600"" width=""auto""></p>",,,,,,,1,,,,,,,,,,,,,,,,,,
html-keyboard-response,17,145927,0.0-7.0-8.0,"""event"",""trial"",""time""
""fullscreenenter"",""1"",""1873""
""fullscreenexit"",""1"",""2176""
""blur"",""15"",""123823""
""focus"",""15"",""124950""
","""event"",""trial"",""time""
""blur"",""15"",""123823""
","""event"",""trial"",""time""
""focus"",""15"",""124950""
","""event"",""trial"",""time""
""fullscreenenter"",""1"",""1873""
","""event"",""trial"",""time""
""fullscreenexit"",""1"",""2176""
",,3439.7,"<p>When you arrive at a new planet, the alien who owns the treasure mine on that planet will greet you!</p><p>The better an alien takes care of their mine the easier it is to dig for gems. Some aliens take better care of their mine than others. So, you won’t get exactly the same amount of gems on each planet.</p><p>What the alien looks like does not tell you anything about how many gems there are on the planet.</p><br><p><img src=""run_exp/static/images/task_images/aliens/instructions_aliens/planet/alien_planet-1.jpg""  height=""600"" width=""auto""></p><button class=""jspsych-html-btn-unchosen""><img src=""run_exp/static/images/task_images/planet-01.jpg"" height=""50""></button><button class=""jspsych-html-btn-chosen""><img src=""run_exp/static/images/task_images/planet-02.jpg"" height=""50""></button><p><b>[press the space bar to lock in your answer]<b><br></p>",32,,,,,,,,,,,,,,,,,,,,,,,,
time_out,18,157005,0.0-8.0-0.0,"""event"",""trial"",""time""
""fullscreenenter"",""1"",""1873""
""fullscreenexit"",""1"",""2176""
""blur"",""15"",""123823""
""focus"",""15"",""124950""
","""event"",""trial"",""time""
""blur"",""15"",""123823""
","""event"",""trial"",""time""
""focus"",""15"",""124950""
","""event"",""trial"",""time""
""fullscreenenter"",""1"",""1873""
","""event"",""trial"",""time""
""fullscreenexit"",""1"",""2176""
",,null,run_exp/static/audio/clip_7_timeout.m4a,null,"<p>If you don't make your choice fast enough, you’ll have to wait a few seconds before you can make another one.</p><p>You can’t dig for more gems or travel to new planets. You just have to sit and wait.</p><br><p><img src='run_exp/static/images/task_images/time_out.jpg'  height='600' width='auto'></p>",,,,,,,,,,,,,,,,,,,,,,,
time_out,19,158871,0.0-8.0-1.0,"""event"",""trial"",""time""
""fullscreenenter"",""1"",""1873""
""fullscreenexit"",""1"",""2176""
""blur"",""15"",""123823""
""focus"",""15"",""124950""
","""event"",""trial"",""time""
""blur"",""15"",""123823""
","""event"",""trial"",""time""
""focus"",""15"",""124950""
","""event"",""trial"",""time""
""fullscreenenter"",""1"",""1873""
","""event"",""trial"",""time""
""fullscreenexit"",""1"",""2176""
",,1862.5,"<p>If you don't make your choice fast enough, you’ll have to wait a few seconds before you can make another one.</p><p>You can’t dig for more gems or travel to new planets. You just have to sit and wait.</p><br><p><img src='run_exp/static/images/task_images/time_out.jpg'  height='600' width='auto'></p>",,,,,,,1,,,,,,,,,,,,,,,,,,
html-keyboard-response,20,159784,0.0-8.0-2.0,"""event"",""trial"",""time""
""fullscreenenter"",""1"",""1873""
""fullscreenexit"",""1"",""2176""
""blur"",""15"",""123823""
""focus"",""15"",""124950""
","""event"",""trial"",""time""
""blur"",""15"",""123823""
","""event"",""trial"",""time""
""focus"",""15"",""124950""
","""event"",""trial"",""time""
""fullscreenenter"",""1"",""1873""
","""event"",""trial"",""time""
""fullscreenexit"",""1"",""2176""
",,911.7,"<p>If you don't make your choice fast enough, you’ll have to wait a few seconds before you can make another one.</p><p>You can’t dig for more gems or travel to new planets. You just have to sit and wait.</p><br><p><img src='run_exp/static/images/task_images/time_out.jpg'  height='600' width='auto'></p><button class=""jspsych-html-btn-unchosen""><img src=""run_exp/static/images/task_images/planet-01.jpg"" height=""50""></button><button class=""jspsych-html-btn-chosen""><img src=""run_exp/static/images/task_images/planet-02.jpg"" height=""50""></button><p><b>[press the space bar to lock in your answer]<b><br></p>",32,,,,,,,,,,,,,,,,,,,,,,,,
instruc_break,21,175446,0.0-9.0-0.0,"""event"",""trial"",""time""
""fullscreenenter"",""1"",""1873""
""fullscreenexit"",""1"",""2176""
""blur"",""15"",""123823""
""focus"",""15"",""124950""
","""event"",""trial"",""time""
""blur"",""15"",""123823""
","""event"",""trial"",""time""
""focus"",""15"",""124950""
","""event"",""trial"",""time""
""fullscreenenter"",""1"",""1873""
","""event"",""trial"",""time""
""fullscreenexit"",""1"",""2176""
",,null,run_exp/static/audio/clip_8_break.m4a,null,"<p> After digging and traveling for a while, you’ll be able to take a break at home base. </p><p>The game will last 20 minutes no matter what.</p><p>You will visit home base every 5 minutes, so, you will visit home base three times during the game.</p><br><p><img src='run_exp/static/images/task_images/home_base.jpg' height='600' width='auto'></p>",,,,,,,,,,,,,,,,,,,,,,,
instruc_break,22,176736,0.0-9.0-1.0,"""event"",""trial"",""time""
""fullscreenenter"",""1"",""1873""
""fullscreenexit"",""1"",""2176""
""blur"",""15"",""123823""
""focus"",""15"",""124950""
","""event"",""trial"",""time""
""blur"",""15"",""123823""
","""event"",""trial"",""time""
""focus"",""15"",""124950""
","""event"",""trial"",""time""
""fullscreenenter"",""1"",""1873""
","""event"",""trial"",""time""
""fullscreenexit"",""1"",""2176""
",,1286.9,"<p> After digging and traveling for a while, you’ll be able to take a break at home base. </p><p>The game will last 20 minutes no matter what.</p><p>You will visit home base every 5 minutes, so, you will visit home base three times during the game.</p><br><p><img src='run_exp/static/images/task_images/home_base.jpg' height='600' width='auto'></p>",,,,,,,1,,,,,,,,,,,,,,,,,,
html-keyboard-response,23,177033,0.0-9.0-2.0,"""event"",""trial"",""time""
""fullscreenenter"",""1"",""1873""
""fullscreenexit"",""1"",""2176""
""blur"",""15"",""123823""
""focus"",""15"",""124950""
","""event"",""trial"",""time""
""blur"",""15"",""123823""
","""event"",""trial"",""time""
""focus"",""15"",""124950""
","""event"",""trial"",""time""
""fullscreenenter"",""1"",""1873""
","""event"",""trial"",""time""
""fullscreenexit"",""1"",""2176""
",,295.6,"<p> After digging and traveling for a while, you’ll be able to take a break at home base. </p><p>The game will last 20 minutes no matter what.</p><p>You will visit home base every 5 minutes, so, you will visit home base three times during the game.</p><br><p><img src='run_exp/static/images/task_images/home_base.jpg' height='600' width='auto'></p><button class=""jspsych-html-btn-unchosen""><img src=""run_exp/static/images/task_images/planet-01.jpg"" height=""50""></button><button class=""jspsych-html-btn-chosen""><img src=""run_exp/static/images/task_images/planet-02.jpg"" height=""50""></button><p><b>[press the space bar to lock in your answer]<b><br></p>",32,,,,,,,,,,,,,,,,,,,,,,,,
instruc_prac_game,24,187166,0.0-10.0-0.0,"""event"",""trial"",""time""
""fullscreenenter"",""1"",""1873""
""fullscreenexit"",""1"",""2176""
""blur"",""15"",""123823""
""focus"",""15"",""124950""
","""event"",""trial"",""time""
""blur"",""15"",""123823""
","""event"",""trial"",""time""
""focus"",""15"",""124950""
","""event"",""trial"",""time""
""fullscreenenter"",""1"",""1873""
","""event"",""trial"",""time""
""fullscreenexit"",""1"",""2176""
",,null,run_exp/static/audio/clip_9_practice.m4a,null,"<p> Are you ready to play a practice game? </p> <p>In this practice game, you'll be digging up barrels of gems. But, in the real game, you'll be digging up the gems themselves. </p>",,,,,,,,,,,,,,,,,,,,,,,
html-button-response,25,192321,0.0-10.0-1.0,"""event"",""trial"",""time""
""fullscreenenter"",""1"",""1873""
""fullscreenexit"",""1"",""2176""
""blur"",""15"",""123823""
""focus"",""15"",""124950""
","""event"",""trial"",""time""
""blur"",""15"",""123823""
","""event"",""trial"",""time""
""focus"",""15"",""124950""
","""event"",""trial"",""time""
""fullscreenenter"",""1"",""1873""
","""event"",""trial"",""time""
""fullscreenexit"",""1"",""2176""
",,5154.1,"<p> Are you ready to play a practice game? </p> <p>In this practice game, you'll be digging up barrels of gems. But, in the real game, you'll be digging up the gems themselves. </p>",,,,,,,0,,,,,,,,,,,,,,,,,,
alien_welcome_prac,26,197323,0.0-11.0-0.0,"""event"",""trial"",""time""
""fullscreenenter"",""1"",""1873""
""fullscreenexit"",""1"",""2176""
""blur"",""15"",""123823""
""focus"",""15"",""124950""
","""event"",""trial"",""time""
""blur"",""15"",""123823""
","""event"",""trial"",""time""
""focus"",""15"",""124950""
","""event"",""trial"",""time""
""fullscreenenter"",""1"",""1873""
","""event"",""trial"",""time""
""fullscreenexit"",""1"",""2176""
",,null,run_exp/static/images/task_images/aliens/practice_aliens/planet/alien_planet-5.jpg,null,,,,,,,,,,,,,,,,,,,,,,,,
land_prac,27,197827,0.0-11.0-1.0,"""event"",""trial"",""time""
""fullscreenenter"",""1"",""1873""
""fullscreenexit"",""1"",""2176""
""blur"",""15"",""123823""
""focus"",""15"",""124950""
","""event"",""trial"",""time""
""blur"",""15"",""123823""
","""event"",""trial"",""time""
""focus"",""15"",""124950""
","""event"",""trial"",""time""
""fullscreenenter"",""1"",""1873""
","""event"",""trial"",""time""
""fullscreenexit"",""1"",""2176""
",,null,run_exp/static/images/task_images/land.jpg,null,,,,,,,104,,,0,,,,,,,,,,,,,,
dig_prac,28,199833,0.0-11.0-2.0,"""event"",""trial"",""time""
""fullscreenenter"",""1"",""1873""
""fullscreenexit"",""1"",""2176""
""blur"",""15"",""123823""
""focus"",""15"",""124950""
","""event"",""trial"",""time""
""blur"",""15"",""123823""
","""event"",""trial"",""time""
""focus"",""15"",""124950""
","""event"",""trial"",""time""
""fullscreenenter"",""1"",""1873""
","""event"",""trial"",""time""
""fullscreenexit"",""1"",""2176""
",,,,,,,,,,,,"[{""stimulus"":""run_exp/static/images/task_images/dig.jpg"",""time"":0.5},{""stimulus"":""run_exp/static/images/task_images/land.jpg"",""time"":668.7000000029802},{""stimulus"":""run_exp/static/images/task_images/dig.jpg"",""time"":1337.2999999970198}]",[],,,,,,,,,,,,,,,
harvest_prac,29,200836,0.0-11.0-3.0,"""event"",""trial"",""time""
""fullscreenenter"",""1"",""1873""
""fullscreenexit"",""1"",""2176""
""blur"",""15"",""123823""
""focus"",""15"",""124950""
","""event"",""trial"",""time""
""blur"",""15"",""123823""
","""event"",""trial"",""time""
""focus"",""15"",""124950""
","""event"",""trial"",""time""
""fullscreenenter"",""1"",""1873""
","""event"",""trial"",""time""
""fullscreenexit"",""1"",""2176""
",,null,run_exp/static/images/task_images/barrel_text.jpg,null,,,,,,,,,,,,,,,,,,,,,,,,
decision_prac,30,200946,0.0-11.0-4.0,"""event"",""trial"",""time""
""fullscreenenter"",""1"",""1873""
""fullscreenexit"",""1"",""2176""
""blur"",""15"",""123823""
""focus"",""15"",""124950""
","""event"",""trial"",""time""
""blur"",""15"",""123823""
","""event"",""trial"",""time""
""focus"",""15"",""124950""
","""event"",""trial"",""time""
""fullscreenenter"",""1"",""1873""
","""event"",""trial"",""time""
""fullscreenexit"",""1"",""2176""
",,107.8,run_exp/static/images/task_images/land.jpg,65,,,,,,,,,,,1,,,,,,,,,,,,,
dig_prac,31,202953,0.0-12.0-0.0,"""event"",""trial"",""time""
""fullscreenenter"",""1"",""1873""
""fullscreenexit"",""1"",""2176""
""blur"",""15"",""123823""
""focus"",""15"",""124950""
","""event"",""trial"",""time""
""blur"",""15"",""123823""
","""event"",""trial"",""time""
""focus"",""15"",""124950""
","""event"",""trial"",""time""
""fullscreenenter"",""1"",""1873""
","""event"",""trial"",""time""
""fullscreenexit"",""1"",""2176""
",,,,,,,,,,,,"[{""stimulus"":""run_exp/static/images/task_images/dig.jpg"",""time"":0.10000000894069672},{""stimulus"":""run_exp/static/images/task_images/land.jpg"",""time"":668.7000000029802},{""stimulus"":""run_exp/static/images/task_images/dig.jpg"",""time"":1335.5}]",[],,,,,,,,,,,,,,,
harvest_prac,32,203955,0.0-12.0-1.0,"""event"",""trial"",""time""
""fullscreenenter"",""1"",""1873""
""fullscreenexit"",""1"",""2176""
""blur"",""15"",""123823""
""focus"",""15"",""124950""
","""event"",""trial"",""time""
""blur"",""15"",""123823""
","""event"",""trial"",""time""
""focus"",""15"",""124950""
","""event"",""trial"",""time""
""fullscreenenter"",""1"",""1873""
","""event"",""trial"",""time""
""fullscreenexit"",""1"",""2176""
",,null,run_exp/static/images/task_images/barrel_text.jpg,null,,,,,,,,,,,,,,,,,,,,,,,,
decision_prac,33,205738,0.0-12.0-2.0,"""event"",""trial"",""time""
""fullscreenenter"",""1"",""1873""
""fullscreenexit"",""1"",""2176""
""blur"",""15"",""123823""
""focus"",""15"",""124950""
","""event"",""trial"",""time""
""blur"",""15"",""123823""
","""event"",""trial"",""time""
""focus"",""15"",""124950""
","""event"",""trial"",""time""
""fullscreenenter"",""1"",""1873""
","""event"",""trial"",""time""
""fullscreenexit"",""1"",""2176""
",,1781.5,run_exp/static/images/task_images/land.jpg,76,,,,,,,,,,,2,,,,,,,,,,,,,
travel,34,213961,0.0-13.0-0.0,"""event"",""trial"",""time""
""fullscreenenter"",""1"",""1873""
""fullscreenexit"",""1"",""2176""
""blur"",""15"",""123823""
""focus"",""15"",""124950""
","""event"",""trial"",""time""
""blur"",""15"",""123823""
","""event"",""trial"",""time""
""focus"",""15"",""124950""
","""event"",""trial"",""time""
""fullscreenenter"",""1"",""1873""
","""event"",""trial"",""time""
""fullscreenexit"",""1"",""2176""
",,,,,,,,,,,,"[{""stimulus"":""run_exp/static/images/task_images/rocket-01.jpg"",""time"":0},{""stimulus"":""run_exp/static/images/task_images/rocket-02.jpg"",""time"":914.2000000029802},{""stimulus"":""run_exp/static/images/task_images/rocket-03.jpg"",""time"":1827.9000000059605},{""stimulus"":""run_exp/static/images/task_images/rocket-04.jpg"",""time"":2753.7000000029802},{""stimulus"":""run_exp/static/images/task_images/rocket-05.jpg"",""time"":3654.6000000089407},{""stimulus"":""run_exp/static/images/task_images/rocket-06.jpg"",""time"":4567.4000000059605},{""stimulus"":""run_exp/static/images/task_images/rocket-07.jpg"",""time"":5479.800000011921},{""stimulus"":""run_exp/static/images/task_images/rocket-08.jpg"",""time"":6392.800000011921},{""stimulus"":""run_exp/static/images/task_images/rocket-09.jpg"",""time"":7305.70000000298}]",[],0,,,,,,,,,,,,,,
alien_welcome_prac,35,218963,0.0-13.0-1.0,"""event"",""trial"",""time""
""fullscreenenter"",""1"",""1873""
""fullscreenexit"",""1"",""2176""
""blur"",""15"",""123823""
""focus"",""15"",""124950""
","""event"",""trial"",""time""
""blur"",""15"",""123823""
","""event"",""trial"",""time""
""focus"",""15"",""124950""
","""event"",""trial"",""time""
""fullscreenenter"",""1"",""1873""
","""event"",""trial"",""time""
""fullscreenexit"",""1"",""2176""
",,null,run_exp/static/images/task_images/aliens/practice_aliens/planet/alien_planet-4.jpg,null,,,,,,,,,,,,,,,,,,,,,,,,
land_prac,36,219466,0.0-13.0-2.0,"""event"",""trial"",""time""
""fullscreenenter"",""1"",""1873""
""fullscreenexit"",""1"",""2176""
""blur"",""15"",""123823""
""focus"",""15"",""124950""
","""event"",""trial"",""time""
""blur"",""15"",""123823""
","""event"",""trial"",""time""
""focus"",""15"",""124950""
","""event"",""trial"",""time""
""fullscreenenter"",""1"",""1873""
","""event"",""trial"",""time""
""fullscreenexit"",""1"",""2176""
",,null,run_exp/static/images/task_images/land.jpg,null,,,,,,,97,,,0,,,,,,,,,,,,,,
dig_prac,37,221471,0.0-13.0-3.0,"""event"",""trial"",""time""
""fullscreenenter"",""1"",""1873""
""fullscreenexit"",""1"",""2176""
""blur"",""15"",""123823""
""focus"",""15"",""124950""
","""event"",""trial"",""time""
""blur"",""15"",""123823""
","""event"",""trial"",""time""
""focus"",""15"",""124950""
","""event"",""trial"",""time""
""fullscreenenter"",""1"",""1873""
","""event"",""trial"",""time""
""fullscreenexit"",""1"",""2176""
",,,,,,,,,,,,"[{""stimulus"":""run_exp/static/images/task_images/dig.jpg"",""time"":0.5},{""stimulus"":""run_exp/static/images/task_images/land.jpg"",""time"":670},{""stimulus"":""run_exp/static/images/task_images/dig.jpg"",""time"":1336.0999999940395}]",[],,,,,,,,,,,,,,,
harvest_prac,38,222474,0.0-13.0-4.0,"""event"",""trial"",""time""
""fullscreenenter"",""1"",""1873""
""fullscreenexit"",""1"",""2176""
""blur"",""15"",""123823""
""focus"",""15"",""124950""
","""event"",""trial"",""time""
""blur"",""15"",""123823""
","""event"",""trial"",""time""
""focus"",""15"",""124950""
","""event"",""trial"",""time""
""fullscreenenter"",""1"",""1873""
","""event"",""trial"",""time""
""fullscreenexit"",""1"",""2176""
",,null,run_exp/static/images/task_images/barrel_text.jpg,null,,,,,,,,,,,,,,,,,,,,,,,,
decision_prac,39,223481,0.0-13.0-5.0,"""event"",""trial"",""time""
""fullscreenenter"",""1"",""1873""
""fullscreenexit"",""1"",""2176""
""blur"",""15"",""123823""
""focus"",""15"",""124950""
","""event"",""trial"",""time""
""blur"",""15"",""123823""
","""event"",""trial"",""time""
""focus"",""15"",""124950""
","""event"",""trial"",""time""
""fullscreenenter"",""1"",""1873""
","""event"",""trial"",""time""
""fullscreenexit"",""1"",""2176""
",,1004.9,run_exp/static/images/task_images/land.jpg,65,,,,,,,,,,,3,,,,,,,,,,,,,
dig_prac,40,225485,0.0-14.0-0.0,"""event"",""trial"",""time""
""fullscreenenter"",""1"",""1873""
""fullscreenexit"",""1"",""2176""
""blur"",""15"",""123823""
""focus"",""15"",""124950""
","""event"",""trial"",""time""
""blur"",""15"",""123823""
","""event"",""trial"",""time""
""focus"",""15"",""124950""
","""event"",""trial"",""time""
""fullscreenenter"",""1"",""1873""
","""event"",""trial"",""time""
""fullscreenexit"",""1"",""2176""
",,,,,,,,,,,,"[{""stimulus"":""run_exp/static/images/task_images/dig.jpg"",""time"":0.09999999403953552},{""stimulus"":""run_exp/static/images/task_images/land.jpg"",""time"":669.5999999940395},{""stimulus"":""run_exp/static/images/task_images/dig.jpg"",""time"":1336.5999999940395}]",[],,,,,,,,,,,,,,,
harvest_prac,41,226487,0.0-14.0-1.0,"""event"",""trial"",""time""
""fullscreenenter"",""1"",""1873""
""fullscreenexit"",""1"",""2176""
""blur"",""15"",""123823""
""focus"",""15"",""124950""
","""event"",""trial"",""time""
""blur"",""15"",""123823""
","""event"",""trial"",""time""
""focus"",""15"",""124950""
","""event"",""trial"",""time""
""fullscreenenter"",""1"",""1873""
","""event"",""trial"",""time""
""fullscreenexit"",""1"",""2176""
",,null,run_exp/static/images/task_images/barrel_text.jpg,null,,,,,,,,,,,,,,,,,,,,,,,,
decision_prac,42,226875,0.0-14.0-2.0,"""event"",""trial"",""time""
""fullscreenenter"",""1"",""1873""
""fullscreenexit"",""1"",""2176""
""blur"",""15"",""123823""
""focus"",""15"",""124950""
","""event"",""trial"",""time""
""blur"",""15"",""123823""
","""event"",""trial"",""time""
""focus"",""15"",""124950""
","""event"",""trial"",""time""
""fullscreenenter"",""1"",""1873""
","""event"",""trial"",""time""
""fullscreenexit"",""1"",""2176""
",,387.1,run_exp/static/images/task_images/land.jpg,65,,,,,,,,,,,4,,,,,,,,,,,,,
dig_prac,43,228881,0.0-15.0-0.0,"""event"",""trial"",""time""
""fullscreenenter"",""1"",""1873""
""fullscreenexit"",""1"",""2176""
""blur"",""15"",""123823""
""focus"",""15"",""124950""
","""event"",""trial"",""time""
""blur"",""15"",""123823""
","""event"",""trial"",""time""
""focus"",""15"",""124950""
","""event"",""trial"",""time""
""fullscreenenter"",""1"",""1873""
","""event"",""trial"",""time""
""fullscreenexit"",""1"",""2176""
",,,,,,,,,,,,"[{""stimulus"":""run_exp/static/images/task_images/dig.jpg"",""time"":0.09999999403953552},{""stimulus"":""run_exp/static/images/task_images/land.jpg"",""time"":667.5999999940395},{""stimulus"":""run_exp/static/images/task_images/dig.jpg"",""time"":1336}]",[],,,,,,,,,,,,,,,
harvest_prac,44,229883,0.0-15.0-1.0,"""event"",""trial"",""time""
""fullscreenenter"",""1"",""1873""
""fullscreenexit"",""1"",""2176""
""blur"",""15"",""123823""
""focus"",""15"",""124950""
","""event"",""trial"",""time""
""blur"",""15"",""123823""
","""event"",""trial"",""time""
""focus"",""15"",""124950""
","""event"",""trial"",""time""
""fullscreenenter"",""1"",""1873""
","""event"",""trial"",""time""
""fullscreenexit"",""1"",""2176""
",,null,run_exp/static/images/task_images/barrel_text.jpg,null,,,,,,,,,,,,,,,,,,,,,,,,
decision_prac,45,230683,0.0-15.0-2.0,"""event"",""trial"",""time""
""fullscreenenter"",""1"",""1873""
""fullscreenexit"",""1"",""2176""
""blur"",""15"",""123823""
""focus"",""15"",""124950""
","""event"",""trial"",""time""
""blur"",""15"",""123823""
","""event"",""trial"",""time""
""focus"",""15"",""124950""
","""event"",""trial"",""time""
""fullscreenenter"",""1"",""1873""
","""event"",""trial"",""time""
""fullscreenexit"",""1"",""2176""
",,798.7,run_exp/static/images/task_images/land.jpg,76,,,,,,,,,,,,1,,,,,,,,,,,,
quiz_instruc,46,237682,0.0-16.0-0.0,"""event"",""trial"",""time""
""fullscreenenter"",""1"",""1873""
""fullscreenexit"",""1"",""2176""
""blur"",""15"",""123823""
""focus"",""15"",""124950""
","""event"",""trial"",""time""
""blur"",""15"",""123823""
","""event"",""trial"",""time""
""focus"",""15"",""124950""
","""event"",""trial"",""time""
""fullscreenenter"",""1"",""1873""
","""event"",""trial"",""time""
""fullscreenexit"",""1"",""2176""
",,6994.1,run_exp/static/audio/clip_10_quiz.m4a,,,,,,,0,,,,,,,,,,,,,,,,,,
instruc_repeat,47,280437,0.0-16.0-1.0,"""event"",""trial"",""time""
""fullscreenenter"",""1"",""1873""
""fullscreenexit"",""1"",""2176""
""blur"",""15"",""123823""
""focus"",""15"",""124950""
","""event"",""trial"",""time""
""blur"",""15"",""123823""
","""event"",""trial"",""time""
""focus"",""15"",""124950""
","""event"",""trial"",""time""
""fullscreenenter"",""1"",""1873""
","""event"",""trial"",""time""
""fullscreenexit"",""1"",""2176""
",,null,"<p> Are you ready to play a practice game? </p> <p>In this practice game, you'll be digging up barrels of gems. But, in the real game, you'll be digging up the gems themselves. </p>",null,"<p>In this game, your goal is to collect as many gems as you can. That’s how you will win bonus money. </p> <p>The entire game will last 20 minutes no matter how many gems you collect or how many planets you visit. </p><p>To stay on a planet and dig again, press the letter A on your keyboard. To leave for a new planet, press the letter L.</p><p>The more you dig on a planet, the fewer gems you’ll get with each dig which is why you might consider leaving for a new planet. </p><p>When you arrive at a new planet, you’ll be greeted by an alien. What the alien looks like does not tell you anything about how much treasure is on the planet. </p>",,,,,,,,,,,,,,,,,,,,,,,
instruc_repeat_continue,48,281635,0.0-16.0-2.0,"""event"",""trial"",""time""
""fullscreenenter"",""1"",""1873""
""fullscreenexit"",""1"",""2176""
""blur"",""15"",""123823""
""focus"",""15"",""124950""
","""event"",""trial"",""time""
""blur"",""15"",""123823""
","""event"",""trial"",""time""
""focus"",""15"",""124950""
","""event"",""trial"",""time""
""fullscreenenter"",""1"",""1873""
","""event"",""trial"",""time""
""fullscreenexit"",""1"",""2176""
",,1196.3,"<p> Are you ready to play a practice game? </p> <p>In this practice game, you'll be digging up barrels of gems. But, in the real game, you'll be digging up the gems themselves. </p>",,,,,,,0,,,,,,,,,,,,,,,,,,
quiz_q_1_ask,49,284499,0.0-16.0-3.0,"""event"",""trial"",""time""
""fullscreenenter"",""1"",""1873""
""fullscreenexit"",""1"",""2176""
""blur"",""15"",""123823""
""focus"",""15"",""124950""
","""event"",""trial"",""time""
""blur"",""15"",""123823""
","""event"",""trial"",""time""
""focus"",""15"",""124950""
","""event"",""trial"",""time""
""fullscreenenter"",""1"",""1873""
","""event"",""trial"",""time""
""fullscreenexit"",""1"",""2176""
",,2863.4,run_exp/static/audio/clip_11_q1_ask.m4a,,,,,,,2,,,,,,,,,,,,,,,,,,
quiz_q_1_fb_correct,50,288337,0.0-17.0-0.0,"""event"",""trial"",""time""
""fullscreenenter"",""1"",""1873""
""fullscreenexit"",""1"",""2176""
""blur"",""15"",""123823""
""focus"",""15"",""124950""
","""event"",""trial"",""time""
""blur"",""15"",""123823""
","""event"",""trial"",""time""
""focus"",""15"",""124950""
","""event"",""trial"",""time""
""fullscreenenter"",""1"",""1873""
","""event"",""trial"",""time""
""fullscreenexit"",""1"",""2176""
",,null,run_exp/static/audio/clip_12_q1_correct.m4a,null,<p>That’s correct. You win extra money by collecting more gems.</p>,,,,,,,,,,,,,,,,,,,,,,,
quiz_q_2_ask,51,291108,0.0-17.0-1.0,"""event"",""trial"",""time""
""fullscreenenter"",""1"",""1873""
""fullscreenexit"",""1"",""2176""
""blur"",""15"",""123823""
""focus"",""15"",""124950""
","""event"",""trial"",""time""
""blur"",""15"",""123823""
","""event"",""trial"",""time""
""focus"",""15"",""124950""
","""event"",""trial"",""time""
""fullscreenenter"",""1"",""1873""
","""event"",""trial"",""time""
""fullscreenexit"",""1"",""2176""
",,2768.5,run_exp/static/audio/clip_14_q2_ask.m4a,,,,,,,1,,,,,,,,,,,,,,,,,,
quiz_q_2_fb_correct,52,295117,0.0-18.0-0.0,"""event"",""trial"",""time""
""fullscreenenter"",""1"",""1873""
""fullscreenexit"",""1"",""2176""
""blur"",""15"",""123823""
""focus"",""15"",""124950""
","""event"",""trial"",""time""
""blur"",""15"",""123823""
","""event"",""trial"",""time""
""focus"",""15"",""124950""
","""event"",""trial"",""time""
""fullscreenenter"",""1"",""1873""
","""event"",""trial"",""time""
""fullscreenexit"",""1"",""2176""
",,null,run_exp/static/audio/clip_15_q2_correct.m4a,null,<p>That’s correct. The experiment is 20 minutes no matter what.</p>,,,,,,,,,,,,,,,,,,,,,,,
quiz_q_3_ask,53,297796,0.0-18.0-1.0,"""event"",""trial"",""time""
""fullscreenenter"",""1"",""1873""
""fullscreenexit"",""1"",""2176""
""blur"",""15"",""123823""
""focus"",""15"",""124950""
","""event"",""trial"",""time""
""blur"",""15"",""123823""
","""event"",""trial"",""time""
""focus"",""15"",""124950""
","""event"",""trial"",""time""
""fullscreenenter"",""1"",""1873""
","""event"",""trial"",""time""
""fullscreenexit"",""1"",""2176""
",,2676.9,run_exp/static/audio/clip_17_q3_ask.m4a,,,,,,,1,,,,,,,,,,,,,,,,,,
quiz_q_3_fb_correct,54,301777,0.0-19.0-0.0,"""event"",""trial"",""time""
""fullscreenenter"",""1"",""1873""
""fullscreenexit"",""1"",""2176""
""blur"",""15"",""123823""
""focus"",""15"",""124950""
","""event"",""trial"",""time""
""blur"",""15"",""123823""
","""event"",""trial"",""time""
""focus"",""15"",""124950""
","""event"",""trial"",""time""
""fullscreenenter"",""1"",""1873""
","""event"",""trial"",""time""
""fullscreenexit"",""1"",""2176""
",,null,run_exp/static/audio/clip_18_q3_correct.m4a,null,<p> That’s correct. You press the letter L to travel to a new planet.</p>,,,,,,,,,,,,,,,,,,,,,,,
quiz_q_4_ask,55,304316,0.0-19.0-1.0,"""event"",""trial"",""time""
""fullscreenenter"",""1"",""1873""
""fullscreenexit"",""1"",""2176""
""blur"",""15"",""123823""
""focus"",""15"",""124950""
","""event"",""trial"",""time""
""blur"",""15"",""123823""
","""event"",""trial"",""time""
""focus"",""15"",""124950""
","""event"",""trial"",""time""
""fullscreenenter"",""1"",""1873""
","""event"",""trial"",""time""
""fullscreenexit"",""1"",""2176""
",,2538.6,run_exp/static/audio/clip_20_q4_ask.m4a,,,,,,,0,,,,,,,,,,,,,,,,,,
quiz_q_4_fb_correct,56,309638,0.0-20.0-0.0,"""event"",""trial"",""time""
""fullscreenenter"",""1"",""1873""
""fullscreenexit"",""1"",""2176""
""blur"",""15"",""123823""
""focus"",""15"",""124950""
","""event"",""trial"",""time""
""blur"",""15"",""123823""
","""event"",""trial"",""time""
""focus"",""15"",""124950""
","""event"",""trial"",""time""
""fullscreenenter"",""1"",""1873""
","""event"",""trial"",""time""
""fullscreenexit"",""1"",""2176""
",,null,run_exp/static/audio/clip_21_q4_correct.m4a,null,<p> That’s correct. The more you dig on a planet the fewer gems you’ll get with each dig. </p>,,,,,,,,,,,,,,,,,,,,,,,
quiz_q_5_ask,57,312117,0.0-20.0-1.0,"""event"",""trial"",""time""
""fullscreenenter"",""1"",""1873""
""fullscreenexit"",""1"",""2176""
""blur"",""15"",""123823""
""focus"",""15"",""124950""
","""event"",""trial"",""time""
""blur"",""15"",""123823""
","""event"",""trial"",""time""
""focus"",""15"",""124950""
","""event"",""trial"",""time""
""fullscreenenter"",""1"",""1873""
","""event"",""trial"",""time""
""fullscreenexit"",""1"",""2176""
",,2476.2,run_exp/static/audio/clip_23_q5_ask.m4a,,,,,,,1,,,,,,,,,,,,,,,,,,
quiz_q_5_fb_correct,58,317119,0.0-21.0-0.0,"""event"",""trial"",""time""
""fullscreenenter"",""1"",""1873""
""fullscreenexit"",""1"",""2176""
""blur"",""15"",""123823""
""focus"",""15"",""124950""
","""event"",""trial"",""time""
""blur"",""15"",""123823""
","""event"",""trial"",""time""
""focus"",""15"",""124950""
","""event"",""trial"",""time""
""fullscreenenter"",""1"",""1873""
","""event"",""trial"",""time""
""fullscreenexit"",""1"",""2176""
",,null,run_exp/static/audio/clip_24_q5_correct.m4a,null,<p> That’s correct. The alien tells you nothing about how much treasure is on the planet.</p>,,,,,,,,,,,,,,,,,,,,,,,
quiz_correct,59,320578,0.0-22.0-0.0,"""event"",""trial"",""time""
""fullscreenenter"",""1"",""1873""
""fullscreenexit"",""1"",""2176""
""blur"",""15"",""123823""
""focus"",""15"",""124950""
","""event"",""trial"",""time""
""blur"",""15"",""123823""
","""event"",""trial"",""time""
""focus"",""15"",""124950""
","""event"",""trial"",""time""
""fullscreenenter"",""1"",""1873""
","""event"",""trial"",""time""
""fullscreenexit"",""1"",""2176""
",,null,run_exp/static/audio/clip_26_correct_quiz.m4a,null,,,,,,,,,,,,,,,,,,,,,,,,
quiz_correct_continue,60,322613,0.0-22.0-1.0,"""event"",""trial"",""time""
""fullscreenenter"",""1"",""1873""
""fullscreenexit"",""1"",""2176""
""blur"",""15"",""123823""
""focus"",""15"",""124950""
","""event"",""trial"",""time""
""blur"",""15"",""123823""
","""event"",""trial"",""time""
""focus"",""15"",""124950""
","""event"",""trial"",""time""
""fullscreenenter"",""1"",""1873""
","""event"",""trial"",""time""
""fullscreenexit"",""1"",""2176""
",,2033.2,<p>Good job! You're now ready to move on to the real game!</p>,,,,,,,0,,,,,,,,,,,,,,,,,,
audio-keyboard-response,61,332739,0.0-22.0-2.0,"""event"",""trial"",""time""
""fullscreenenter"",""1"",""1873""
""fullscreenexit"",""1"",""2176""
""blur"",""15"",""123823""
""focus"",""15"",""124950""
","""event"",""trial"",""time""
""blur"",""15"",""123823""
","""event"",""trial"",""time""
""focus"",""15"",""124950""
","""event"",""trial"",""time""
""fullscreenenter"",""1"",""1873""
","""event"",""trial"",""time""
""fullscreenexit"",""1"",""2176""
",,null,run_exp/static/audio/clip_28_real_game.m4a,null,,,,,,,,,,,,,,,,,,,,,,,,
instruc_begin_exp_contine,62,334805,0.0-22.0-3.0,"""event"",""trial"",""time""
""fullscreenenter"",""1"",""1873""
""fullscreenexit"",""1"",""2176""
""blur"",""15"",""123823""
""focus"",""15"",""124950""
","""event"",""trial"",""time""
""blur"",""15"",""123823""
","""event"",""trial"",""time""
""focus"",""15"",""124950""
","""event"",""trial"",""time""
""fullscreenenter"",""1"",""1873""
","""event"",""trial"",""time""
""fullscreenexit"",""1"",""2176""
",,2064.7,"<p>Now that you know how  to dig for space treasure and travel to new planets,you can start exploring! </p><p>Do you want to go over the instructions again or get started with the real game?</p>",,,,,,,1,,,,,,1,,,,,,,,,,,,
alien_welcome,63,339807,0.0-23.0-0.0,"""event"",""trial"",""time""
""fullscreenenter"",""1"",""1873""
""fullscreenexit"",""1"",""2176""
""blur"",""15"",""123823""
""focus"",""15"",""124950""
","""event"",""trial"",""time""
""blur"",""15"",""123823""
","""event"",""trial"",""time""
""focus"",""15"",""124950""
","""event"",""trial"",""time""
""fullscreenenter"",""1"",""1873""
","""event"",""trial"",""time""
""fullscreenexit"",""1"",""2176""
",,null,run_exp/static/images/task_images/aliens/old_aliens/planet/alien_planet-45.jpg,null,,,,,,,,,,,,,45,"45,61,42,79,10,72,62,29,54,26,35,58,47,60,11,80,22,43,64,59,44,68,9,23,18,38,66,48,20,25,70,53,71,37,8,2,46,57,55,77,49,50,16,39,1,36,40,7,69,78",,,,,,,,,,
land,64,340309,0.0-23.0-1.0,"""event"",""trial"",""time""
""fullscreenenter"",""1"",""1873""
""fullscreenexit"",""1"",""2176""
""blur"",""15"",""123823""
""focus"",""15"",""124950""
","""event"",""trial"",""time""
""blur"",""15"",""123823""
","""event"",""trial"",""time""
""focus"",""15"",""124950""
","""event"",""trial"",""time""
""fullscreenenter"",""1"",""1873""
","""event"",""trial"",""time""
""fullscreenexit"",""1"",""2176""
",,null,run_exp/static/images/task_images/land.jpg,null,,,,,,,103,,,1,,,,,,,,,,,,,,
dig,65,342316,0.0-23.0-2.0,"""event"",""trial"",""time""
""fullscreenenter"",""1"",""1873""
""fullscreenexit"",""1"",""2176""
""blur"",""15"",""123823""
""focus"",""15"",""124950""
","""event"",""trial"",""time""
""blur"",""15"",""123823""
","""event"",""trial"",""time""
""focus"",""15"",""124950""
","""event"",""trial"",""time""
""fullscreenenter"",""1"",""1873""
","""event"",""trial"",""time""
""fullscreenexit"",""1"",""2176""
",,,,,,,,,,,,"[{""stimulus"":""run_exp/static/images/task_images/dig.jpg"",""time"":0.6000000089406967},{""stimulus"":""run_exp/static/images/task_images/land.jpg"",""time"":669.7000000029802},{""stimulus"":""run_exp/static/images/task_images/dig.jpg"",""time"":1335.7999999970198}]",[],1,,,,,,,,,,,,,,
harvest,66,343318,0.0-23.0-3.0,"""event"",""trial"",""time""
""fullscreenenter"",""1"",""1873""
""fullscreenexit"",""1"",""2176""
""blur"",""15"",""123823""
""focus"",""15"",""124950""
","""event"",""trial"",""time""
""blur"",""15"",""123823""
","""event"",""trial"",""time""
""focus"",""15"",""124950""
","""event"",""trial"",""time""
""fullscreenenter"",""1"",""1873""
","""event"",""trial"",""time""
""fullscreenexit"",""1"",""2176""
",,null,run_exp/static/images/task_images/gems/103.jpg,null,,,,,,,23,,,1,,,,,103,0.222859798,0.223300971,,,,,,,
decision,67,344703,0.0-23.0-4.0,"""event"",""trial"",""time""
""fullscreenenter"",""1"",""1873""
""fullscreenexit"",""1"",""2176""
""blur"",""15"",""123823""
""focus"",""15"",""124950""
","""event"",""trial"",""time""
""blur"",""15"",""123823""
","""event"",""trial"",""time""
""focus"",""15"",""124950""
","""event"",""trial"",""time""
""fullscreenenter"",""1"",""1873""
","""event"",""trial"",""time""
""fullscreenexit"",""1"",""2176""
",,1381.4,run_exp/static/images/task_images/land.jpg,65,,,,,,,23,,,1,,,,,,,,9898,1,0,FALSE,,,
dig,68,346326,0.0-24.0-0.0,"""event"",""trial"",""time""
""fullscreenenter"",""1"",""1873""
""fullscreenexit"",""1"",""2176""
""blur"",""15"",""123823""
""focus"",""15"",""124950""
","""event"",""trial"",""time""
""blur"",""15"",""123823""
","""event"",""trial"",""time""
""focus"",""15"",""124950""
","""event"",""trial"",""time""
""fullscreenenter"",""1"",""1873""
","""event"",""trial"",""time""
""fullscreenexit"",""1"",""2176""
",,,,,,,,,,,,"[{""stimulus"":""run_exp/static/images/task_images/dig.jpg"",""time"":0.10000000894069672},{""stimulus"":""run_exp/static/images/task_images/land.jpg"",""time"":541.6000000089407},{""stimulus"":""run_exp/static/images/task_images/dig.jpg"",""time"":1080.2000000029802}]",[],1,,,,,,,,,,,,,,
harvest,69,347328,0.0-24.0-1.0,"""event"",""trial"",""time""
""fullscreenenter"",""1"",""1873""
""fullscreenexit"",""1"",""2176""
""blur"",""15"",""123823""
""focus"",""15"",""124950""
","""event"",""trial"",""time""
""blur"",""15"",""123823""
","""event"",""trial"",""time""
""focus"",""15"",""124950""
","""event"",""trial"",""time""
""fullscreenenter"",""1"",""1873""
","""event"",""trial"",""time""
""fullscreenexit"",""1"",""2176""
",,null,run_exp/static/images/task_images/gems/23.jpg,null,,,,,,,5,,,1,,,,,23,0.233898595,0.217391304,,,,,,,
decision,70,347382,0.0-24.0-2.0,"""event"",""trial"",""time""
""fullscreenenter"",""1"",""1873""
""fullscreenexit"",""1"",""2176""
""blur"",""15"",""123823""
""focus"",""15"",""124950""
","""event"",""trial"",""time""
""blur"",""15"",""123823""
","""event"",""trial"",""time""
""focus"",""15"",""124950""
","""event"",""trial"",""time""
""fullscreenenter"",""1"",""1873""
","""event"",""trial"",""time""
""fullscreenexit"",""1"",""2176""
",,52.09999999,run_exp/static/images/task_images/land.jpg,76,,,,,,,5,,,1,,,,,,,,12576,1,1,TRUE,,,
travel,71,357334,0.0-25.0-0.0,"""event"",""trial"",""time""
""fullscreenenter"",""1"",""1873""
""fullscreenexit"",""1"",""2176""
""blur"",""15"",""123823""
""focus"",""15"",""124950""
","""event"",""trial"",""time""
""blur"",""15"",""123823""
","""event"",""trial"",""time""
""focus"",""15"",""124950""
","""event"",""trial"",""time""
""fullscreenenter"",""1"",""1873""
","""event"",""trial"",""time""
""fullscreenexit"",""1"",""2176""
",,,,,,,,,,,,"[{""stimulus"":""run_exp/static/images/task_images/rocket-01.jpg"",""time"":0.09999999403953552},{""stimulus"":""run_exp/static/images/task_images/rocket-02.jpg"",""time"":1106.699999988079},{""stimulus"":""run_exp/static/images/task_images/rocket-03.jpg"",""time"":2211.699999988079},{""stimulus"":""run_exp/static/images/task_images/rocket-04.jpg"",""time"":3316.2999999970198},{""stimulus"":""run_exp/static/images/task_images/rocket-05.jpg"",""time"":4422.0999999940395},{""stimulus"":""run_exp/static/images/task_images/rocket-06.jpg"",""time"":5526.5},{""stimulus"":""run_exp/static/images/task_images/rocket-07.jpg"",""time"":6631.899999991059},{""stimulus"":""run_exp/static/images/task_images/rocket-08.jpg"",""time"":7736.79999999702},{""stimulus"":""run_exp/static/images/task_images/rocket-09.jpg"",""time"":8842.09999999404}]",[],1,,,,,,,,,,,,,,
alien_welcome,72,362337,0.0-25.0-1.0,"""event"",""trial"",""time""
""fullscreenenter"",""1"",""1873""
""fullscreenexit"",""1"",""2176""
""blur"",""15"",""123823""
""focus"",""15"",""124950""
","""event"",""trial"",""time""
""blur"",""15"",""123823""
","""event"",""trial"",""time""
""focus"",""15"",""124950""
","""event"",""trial"",""time""
""fullscreenenter"",""1"",""1873""
","""event"",""trial"",""time""
""fullscreenexit"",""1"",""2176""
",,null,run_exp/static/images/task_images/aliens/old_aliens/planet/alien_planet-61.jpg,null,,,,,,,,,,,,,61,"45,61,42,79,10,72,62,29,54,26,35,58,47,60,11,80,22,43,64,59,44,68,9,23,18,38,66,48,20,25,70,53,71,37,8,2,46,57,55,77,49,50,16,39,1,36,40,7,69,78",,,,,,,,,,
land,73,362840,0.0-25.0-2.0,"""event"",""trial"",""time""
""fullscreenenter"",""1"",""1873""
""fullscreenexit"",""1"",""2176""
""blur"",""15"",""123823""
""focus"",""15"",""124950""
","""event"",""trial"",""time""
""blur"",""15"",""123823""
","""event"",""trial"",""time""
""focus"",""15"",""124950""
","""event"",""trial"",""time""
""fullscreenenter"",""1"",""1873""
","""event"",""trial"",""time""
""fullscreenexit"",""1"",""2176""
",,null,run_exp/static/images/task_images/land.jpg,null,,,,,,,104,,,2,,,,,,,,,,,,,,
dig,74,364845,0.0-25.0-3.0,"""event"",""trial"",""time""
""fullscreenenter"",""1"",""1873""
""fullscreenexit"",""1"",""2176""
""blur"",""15"",""123823""
""focus"",""15"",""124950""
","""event"",""trial"",""time""
""blur"",""15"",""123823""
","""event"",""trial"",""time""
""focus"",""15"",""124950""
","""event"",""trial"",""time""
""fullscreenenter"",""1"",""1873""
","""event"",""trial"",""time""
""fullscreenexit"",""1"",""2176""
",,,,,,,,,,,,"[{""stimulus"":""run_exp/static/images/task_images/dig.jpg"",""time"":0.4000000059604645},{""stimulus"":""run_exp/static/images/task_images/land.jpg"",""time"":669.4000000059605},{""stimulus"":""run_exp/static/images/task_images/dig.jpg"",""time"":1336.2000000029802}]",[],2,,,,,,,,,,,,,,
harvest,75,365847,0.0-25.0-4.0,"""event"",""trial"",""time""
""fullscreenenter"",""1"",""1873""
""fullscreenexit"",""1"",""2176""
""blur"",""15"",""123823""
""focus"",""15"",""124950""
","""event"",""trial"",""time""
""blur"",""15"",""123823""
","""event"",""trial"",""time""
""focus"",""15"",""124950""
","""event"",""trial"",""time""
""fullscreenenter"",""1"",""1873""
","""event"",""trial"",""time""
""fullscreenexit"",""1"",""2176""
",,null,run_exp/static/images/task_images/gems/104.jpg,null,,,,,,,39,,,2,,,,,104,0.371674704,0.375,,,,,,,
decision,76,366501,0.0-25.0-5.0,"""event"",""trial"",""time""
""fullscreenenter"",""1"",""1873""
""fullscreenexit"",""1"",""2176""
""blur"",""15"",""123823""
""focus"",""15"",""124950""
","""event"",""trial"",""time""
""blur"",""15"",""123823""
","""event"",""trial"",""time""
""focus"",""15"",""124950""
","""event"",""trial"",""time""
""fullscreenenter"",""1"",""1873""
","""event"",""trial"",""time""
""fullscreenexit"",""1"",""2176""
",,653.5,run_exp/static/images/task_images/land.jpg,65,,,,,,,39,,,2,,,,,,,,31695,1,0,FALSE,,,
dig,77,368849,0.0-26.0-0.0,"""event"",""trial"",""time""
""fullscreenenter"",""1"",""1873""
""fullscreenexit"",""1"",""2176""
""blur"",""15"",""123823""
""focus"",""15"",""124950""
","""event"",""trial"",""time""
""blur"",""15"",""123823""
","""event"",""trial"",""time""
""focus"",""15"",""124950""
","""event"",""trial"",""time""
""fullscreenenter"",""1"",""1873""
","""event"",""trial"",""time""
""fullscreenexit"",""1"",""2176""
",,,,,,,,,,,,"[{""stimulus"":""run_exp/static/images/task_images/dig.jpg"",""time"":0.09999999403953552},{""stimulus"":""run_exp/static/images/task_images/land.jpg"",""time"":783.4000000059605},{""stimulus"":""run_exp/static/images/task_images/dig.jpg"",""time"":1565.7999999970198}]",[],2,,,,,,,,,,,,,,
harvest,78,369850,0.0-26.0-1.0,"""event"",""trial"",""time""
""fullscreenenter"",""1"",""1873""
""fullscreenexit"",""1"",""2176""
""blur"",""15"",""123823""
""focus"",""15"",""124950""
","""event"",""trial"",""time""
""blur"",""15"",""123823""
","""event"",""trial"",""time""
""focus"",""15"",""124950""
","""event"",""trial"",""time""
""fullscreenenter"",""1"",""1873""
","""event"",""trial"",""time""
""fullscreenexit"",""1"",""2176""
",,null,run_exp/static/images/task_images/gems/39.jpg,null,,,,,,,11,,,2,,,,,39,0.287321553,0.282051282,,,,,,,
decision,79,370503,0.0-26.0-2.0,"""event"",""trial"",""time""
""fullscreenenter"",""1"",""1873""
""fullscreenexit"",""1"",""2176""
""blur"",""15"",""123823""
""focus"",""15"",""124950""
","""event"",""trial"",""time""
""blur"",""15"",""123823""
","""event"",""trial"",""time""
""focus"",""15"",""124950""
","""event"",""trial"",""time""
""fullscreenenter"",""1"",""1873""
","""event"",""trial"",""time""
""fullscreenexit"",""1"",""2176""
",,651,run_exp/static/images/task_images/land.jpg,76,,,,,,,11,,,2,,,,,,,,35697,1,1,TRUE,,,
travel,80,379851,0.0-27.0-0.0,"""event"",""trial"",""time""
""fullscreenenter"",""1"",""1873""
""fullscreenexit"",""1"",""2176""
""blur"",""15"",""123823""
""focus"",""15"",""124950""
","""event"",""trial"",""time""
""blur"",""15"",""123823""
","""event"",""trial"",""time""
""focus"",""15"",""124950""
","""event"",""trial"",""time""
""fullscreenenter"",""1"",""1873""
","""event"",""trial"",""time""
""fullscreenexit"",""1"",""2176""
",,,,,,,,,,,,"[{""stimulus"":""run_exp/static/images/task_images/rocket-01.jpg"",""time"":0.09999999403953552},{""stimulus"":""run_exp/static/images/task_images/rocket-02.jpg"",""time"":1038.699999988079},{""stimulus"":""run_exp/static/images/task_images/rocket-03.jpg"",""time"":2078},{""stimulus"":""run_exp/static/images/task_images/rocket-04.jpg"",""time"":3115.8999999910593},{""stimulus"":""run_exp/static/images/task_images/rocket-05.jpg"",""time"":4153.5},{""stimulus"":""run_exp/static/images/task_images/rocket-06.jpg"",""time"":5191.79999999702},{""stimulus"":""run_exp/static/images/task_images/rocket-07.jpg"",""time"":6229.699999988079},{""stimulus"":""run_exp/static/images/task_images/rocket-08.jpg"",""time"":7267.5},{""stimulus"":""run_exp/static/images/task_images/rocket-09.jpg"",""time"":8306.199999988079}]",[],2,,,,,,,,,,,,,,
alien_welcome,81,384854,0.0-27.0-1.0,"""event"",""trial"",""time""
""fullscreenenter"",""1"",""1873""
""fullscreenexit"",""1"",""2176""
""blur"",""15"",""123823""
""focus"",""15"",""124950""
","""event"",""trial"",""time""
""blur"",""15"",""123823""
","""event"",""trial"",""time""
""focus"",""15"",""124950""
","""event"",""trial"",""time""
""fullscreenenter"",""1"",""1873""
","""event"",""trial"",""time""
""fullscreenexit"",""1"",""2176""
",,null,run_exp/static/images/task_images/aliens/old_aliens/planet/alien_planet-42.jpg,null,,,,,,,,,,,,,42,"45,61,42,79,10,72,62,29,54,26,35,58,47,60,11,80,22,43,64,59,44,68,9,23,18,38,66,48,20,25,70,53,71,37,8,2,46,57,55,77,49,50,16,39,1,36,40,7,69,78",,,,,,,,,,
land,82,385357,0.0-27.0-2.0,"""event"",""trial"",""time""
""fullscreenenter"",""1"",""1873""
""fullscreenexit"",""1"",""2176""
""blur"",""15"",""123823""
""focus"",""15"",""124950""
","""event"",""trial"",""time""
""blur"",""15"",""123823""
","""event"",""trial"",""time""
""focus"",""15"",""124950""
","""event"",""trial"",""time""
""fullscreenenter"",""1"",""1873""
","""event"",""trial"",""time""
""fullscreenexit"",""1"",""2176""
",,null,run_exp/static/images/task_images/land.jpg,null,,,,,,,102,,,3,,,,,,,,,,,,,,
dig,83,387362,0.0-27.0-3.0,"""event"",""trial"",""time""
""fullscreenenter"",""1"",""1873""
""fullscreenexit"",""1"",""2176""
""blur"",""15"",""123823""
""focus"",""15"",""124950""
","""event"",""trial"",""time""
""blur"",""15"",""123823""
","""event"",""trial"",""time""
""focus"",""15"",""124950""
","""event"",""trial"",""time""
""fullscreenenter"",""1"",""1873""
","""event"",""trial"",""time""
""fullscreenexit"",""1"",""2176""
",,,,,,,,,,,,"[{""stimulus"":""run_exp/static/images/task_images/dig.jpg"",""time"":0.5},{""stimulus"":""run_exp/static/images/task_images/land.jpg"",""time"":670},{""stimulus"":""run_exp/static/images/task_images/dig.jpg"",""time"":1335.699999988079}]",[],3,,,,,,,,,,,,,,
harvest,84,388364,0.0-27.0-4.0,"""event"",""trial"",""time""
""fullscreenenter"",""1"",""1873""
""fullscreenexit"",""1"",""2176""
""blur"",""15"",""123823""
""focus"",""15"",""124950""
","""event"",""trial"",""time""
""blur"",""15"",""123823""
","""event"",""trial"",""time""
""focus"",""15"",""124950""
","""event"",""trial"",""time""
""fullscreenenter"",""1"",""1873""
","""event"",""trial"",""time""
""fullscreenexit"",""1"",""2176""
",,null,run_exp/static/images/task_images/gems/102.jpg,null,,,,,,,51,,,3,,,,,102,0.49833416,0.5,,,,,,,
decision,85,388480,0.0-27.0-5.0,"""event"",""trial"",""time""
""fullscreenenter"",""1"",""1873""
""fullscreenexit"",""1"",""2176""
""blur"",""15"",""123823""
""focus"",""15"",""124950""
","""event"",""trial"",""time""
""blur"",""15"",""123823""
","""event"",""trial"",""time""
""focus"",""15"",""124950""
","""event"",""trial"",""time""
""fullscreenenter"",""1"",""1873""
","""event"",""trial"",""time""
""fullscreenexit"",""1"",""2176""
",,113.5,run_exp/static/images/task_images/land.jpg,65,,,,,,,51,,,3,,,,,,,,53674,1,0,FALSE,,,
dig,86,391372,0.0-28.0-0.0,"""event"",""trial"",""time""
""fullscreenenter"",""1"",""1873""
""fullscreenexit"",""1"",""2176""
""blur"",""15"",""123823""
""focus"",""15"",""124950""
","""event"",""trial"",""time""
""blur"",""15"",""123823""
","""event"",""trial"",""time""
""focus"",""15"",""124950""
","""event"",""trial"",""time""
""fullscreenenter"",""1"",""1873""
","""event"",""trial"",""time""
""fullscreenexit"",""1"",""2176""
",,,,,,,,,,,,"[{""stimulus"":""run_exp/static/images/task_images/dig.jpg"",""time"":0},{""stimulus"":""run_exp/static/images/task_images/land.jpg"",""time"":963.5},{""stimulus"":""run_exp/static/images/task_images/dig.jpg"",""time"":1925.1000000089407}]",[],3,,,,,,,,,,,,,,
harvest,87,392373,0.0-28.0-1.0,"""event"",""trial"",""time""
""fullscreenenter"",""1"",""1873""
""fullscreenexit"",""1"",""2176""
""blur"",""15"",""123823""
""focus"",""15"",""124950""
","""event"",""trial"",""time""
""blur"",""15"",""123823""
","""event"",""trial"",""time""
""focus"",""15"",""124950""
","""event"",""trial"",""time""
""fullscreenenter"",""1"",""1873""
","""event"",""trial"",""time""
""fullscreenexit"",""1"",""2176""
",,null,run_exp/static/images/task_images/gems/51.jpg,null,,,,,,,22,,,3,,,,,51,0.437463251,0.431372549,,,,,,,
decision,88,392574,0.0-28.0-2.0,"""event"",""trial"",""time""
""fullscreenenter"",""1"",""1873""
""fullscreenexit"",""1"",""2176""
""blur"",""15"",""123823""
""focus"",""15"",""124950""
","""event"",""trial"",""time""
""blur"",""15"",""123823""
","""event"",""trial"",""time""
""focus"",""15"",""124950""
","""event"",""trial"",""time""
""fullscreenenter"",""1"",""1873""
","""event"",""trial"",""time""
""fullscreenexit"",""1"",""2176""
",,199,run_exp/static/images/task_images/land.jpg,76,,,,,,,22,,,3,,,,,,,,57768,1,1,TRUE,,,
travel,89,402378,0.0-29.0-0.0,"""event"",""trial"",""time""
""fullscreenenter"",""1"",""1873""
""fullscreenexit"",""1"",""2176""
""blur"",""15"",""123823""
""focus"",""15"",""124950""
","""event"",""trial"",""time""
""blur"",""15"",""123823""
","""event"",""trial"",""time""
""focus"",""15"",""124950""
","""event"",""trial"",""time""
""fullscreenenter"",""1"",""1873""
","""event"",""trial"",""time""
""fullscreenexit"",""1"",""2176""
",,,,,,,,,,,,"[{""stimulus"":""run_exp/static/images/task_images/rocket-01.jpg"",""time"":0},{""stimulus"":""run_exp/static/images/task_images/rocket-02.jpg"",""time"":1090.2999999970198},{""stimulus"":""run_exp/static/images/task_images/rocket-03.jpg"",""time"":2180},{""stimulus"":""run_exp/static/images/task_images/rocket-04.jpg"",""time"":3269.2000000029802},{""stimulus"":""run_exp/static/images/task_images/rocket-05.jpg"",""time"":4356.5},{""stimulus"":""run_exp/static/images/task_images/rocket-06.jpg"",""time"":5446.79999999702},{""stimulus"":""run_exp/static/images/task_images/rocket-07.jpg"",""time"":6535.4000000059605},{""stimulus"":""run_exp/static/images/task_images/rocket-08.jpg"",""time"":7625.0999999940395},{""stimulus"":""run_exp/static/images/task_images/rocket-09.jpg"",""time"":8713}]",[],3,,,,,,,,,,,,,,
alien_welcome,90,407381,0.0-29.0-1.0,"""event"",""trial"",""time""
""fullscreenenter"",""1"",""1873""
""fullscreenexit"",""1"",""2176""
""blur"",""15"",""123823""
""focus"",""15"",""124950""
","""event"",""trial"",""time""
""blur"",""15"",""123823""
","""event"",""trial"",""time""
""focus"",""15"",""124950""
","""event"",""trial"",""time""
""fullscreenenter"",""1"",""1873""
","""event"",""trial"",""time""
""fullscreenexit"",""1"",""2176""
",,null,run_exp/static/images/task_images/aliens/old_aliens/planet/alien_planet-79.jpg,null,,,,,,,,,,,,,79,"45,61,42,79,10,72,62,29,54,26,35,58,47,60,11,80,22,43,64,59,44,68,9,23,18,38,66,48,20,25,70,53,71,37,8,2,46,57,55,77,49,50,16,39,1,36,40,7,69,78",,,,,,,,,,
land,91,407884,0.0-29.0-2.0,"""event"",""trial"",""time""
""fullscreenenter"",""1"",""1873""
""fullscreenexit"",""1"",""2176""
""blur"",""15"",""123823""
""focus"",""15"",""124950""
","""event"",""trial"",""time""
""blur"",""15"",""123823""
","""event"",""trial"",""time""
""focus"",""15"",""124950""
","""event"",""trial"",""time""
""fullscreenenter"",""1"",""1873""
","""event"",""trial"",""time""
""fullscreenexit"",""1"",""2176""
",,null,run_exp/static/images/task_images/land.jpg,null,,,,,,,105,,,4,,,,,,,,,,,,,,
dig,92,409886,0.0-29.0-3.0,"""event"",""trial"",""time""
""fullscreenenter"",""1"",""1873""
""fullscreenexit"",""1"",""2176""
""blur"",""15"",""123823""
""focus"",""15"",""124950""
","""event"",""trial"",""time""
""blur"",""15"",""123823""
","""event"",""trial"",""time""
""focus"",""15"",""124950""
","""event"",""trial"",""time""
""fullscreenenter"",""1"",""1873""
","""event"",""trial"",""time""
""fullscreenexit"",""1"",""2176""
",,,,,,,,,,,,"[{""stimulus"":""run_exp/static/images/task_images/dig.jpg"",""time"":0.19999998807907104},{""stimulus"":""run_exp/static/images/task_images/land.jpg"",""time"":668.7999999970198},{""stimulus"":""run_exp/static/images/task_images/dig.jpg"",""time"":1335.199999988079}]",[],4,,,,,,,,,,,,,,
harvest,93,410888,0.0-29.0-4.0,"""event"",""trial"",""time""
""fullscreenenter"",""1"",""1873""
""fullscreenexit"",""1"",""2176""
""blur"",""15"",""123823""
""focus"",""15"",""124950""
","""event"",""trial"",""time""
""blur"",""15"",""123823""
","""event"",""trial"",""time""
""focus"",""15"",""124950""
","""event"",""trial"",""time""
""fullscreenenter"",""1"",""1873""
","""event"",""trial"",""time""
""fullscreenexit"",""1"",""2176""
",,null,run_exp/static/images/task_images/gems/105.jpg,null,,,,,,,58,,,4,,,,,105,0.551204962,0.552380952,,,,,,,
decision,94,410936,0.0-29.0-5.0,"""event"",""trial"",""time""
""fullscreenenter"",""1"",""1873""
""fullscreenexit"",""1"",""2176""
""blur"",""15"",""123823""
""focus"",""15"",""124950""
","""event"",""trial"",""time""
""blur"",""15"",""123823""
","""event"",""trial"",""time""
""focus"",""15"",""124950""
","""event"",""trial"",""time""
""fullscreenenter"",""1"",""1873""
","""event"",""trial"",""time""
""fullscreenexit"",""1"",""2176""
",,46.3,run_exp/static/images/task_images/land.jpg,65,,,,,,,58,,,4,,,,,,,,76130,1,0,FALSE,,,
dig,95,413893,0.0-30.0-0.0,"""event"",""trial"",""time""
""fullscreenenter"",""1"",""1873""
""fullscreenexit"",""1"",""2176""
""blur"",""15"",""123823""
""focus"",""15"",""124950""
","""event"",""trial"",""time""
""blur"",""15"",""123823""
","""event"",""trial"",""time""
""focus"",""15"",""124950""
","""event"",""trial"",""time""
""fullscreenenter"",""1"",""1873""
","""event"",""trial"",""time""
""fullscreenexit"",""1"",""2176""
",,,,,,,,,,,,"[{""stimulus"":""run_exp/static/images/task_images/dig.jpg"",""time"":0.10000000894069672},{""stimulus"":""run_exp/static/images/task_images/land.jpg"",""time"":986.2000000029802},{""stimulus"":""run_exp/static/images/task_images/dig.jpg"",""time"":1970}]",[],4,,,,,,,,,,,,,,
harvest,96,414896,0.0-30.0-1.0,"""event"",""trial"",""time""
""fullscreenenter"",""1"",""1873""
""fullscreenexit"",""1"",""2176""
""blur"",""15"",""123823""
""focus"",""15"",""124950""
","""event"",""trial"",""time""
""blur"",""15"",""123823""
","""event"",""trial"",""time""
""focus"",""15"",""124950""
","""event"",""trial"",""time""
""fullscreenenter"",""1"",""1873""
","""event"",""trial"",""time""
""fullscreenexit"",""1"",""2176""
",,null,run_exp/static/images/task_images/gems/58.jpg,null,,,,,,,30,,,4,,,,,58,0.518743279,0.517241379,,,,,,,
decision,97,414953,0.0-30.0-2.0,"""event"",""trial"",""time""
""fullscreenenter"",""1"",""1873""
""fullscreenexit"",""1"",""2176""
""blur"",""15"",""123823""
""focus"",""15"",""124950""
","""event"",""trial"",""time""
""blur"",""15"",""123823""
","""event"",""trial"",""time""
""focus"",""15"",""124950""
","""event"",""trial"",""time""
""fullscreenenter"",""1"",""1873""
","""event"",""trial"",""time""
""fullscreenexit"",""1"",""2176""
",,55.90000001,run_exp/static/images/task_images/land.jpg,65,,,,,,,30,,,4,,,,,,,,80147,1,1,FALSE,,,
dig,98,417903,0.0-31.0-0.0,"""event"",""trial"",""time""
""fullscreenenter"",""1"",""1873""
""fullscreenexit"",""1"",""2176""
""blur"",""15"",""123823""
""focus"",""15"",""124950""
","""event"",""trial"",""time""
""blur"",""15"",""123823""
","""event"",""trial"",""time""
""focus"",""15"",""124950""
","""event"",""trial"",""time""
""fullscreenenter"",""1"",""1873""
","""event"",""trial"",""time""
""fullscreenexit"",""1"",""2176""
",,,,,,,,,,,,"[{""stimulus"":""run_exp/static/images/task_images/dig.jpg"",""time"":0},{""stimulus"":""run_exp/static/images/task_images/land.jpg"",""time"":982.7999999970198},{""stimulus"":""run_exp/static/images/task_images/dig.jpg"",""time"":1974.2000000029802}]",[],4,,,,,,,,,,,,,,
harvest,99,418904,0.0-31.0-1.0,"""event"",""trial"",""time""
""fullscreenenter"",""1"",""1873""
""fullscreenexit"",""1"",""2176""
""blur"",""15"",""123823""
""focus"",""15"",""124950""
","""event"",""trial"",""time""
""blur"",""15"",""123823""
","""event"",""trial"",""time""
""focus"",""15"",""124950""
","""event"",""trial"",""time""
""fullscreenenter"",""1"",""1873""
","""event"",""trial"",""time""
""fullscreenexit"",""1"",""2176""
",,null,run_exp/static/images/task_images/gems/30.jpg,null,,,,,,,16,,,4,,,,,30,0.534385113,0.533333333,,,,,,,
decision,100,419945,0.0-31.0-2.0,"""event"",""trial"",""time""
""fullscreenenter"",""1"",""1873""
""fullscreenexit"",""1"",""2176""
""blur"",""15"",""123823""
""focus"",""15"",""124950""
","""event"",""trial"",""time""
""blur"",""15"",""123823""
","""event"",""trial"",""time""
""focus"",""15"",""124950""
","""event"",""trial"",""time""
""fullscreenenter"",""1"",""1873""
","""event"",""trial"",""time""
""fullscreenexit"",""1"",""2176""
",,1038.2,run_exp/static/images/task_images/land.jpg,76,,,,,,,16,,,4,,,,,,,,85139,1,2,TRUE,,,
travel,101,428906,0.0-32.0-0.0,"""event"",""trial"",""time""
""fullscreenenter"",""1"",""1873""
""fullscreenexit"",""1"",""2176""
""blur"",""15"",""123823""
""focus"",""15"",""124950""
","""event"",""trial"",""time""
""blur"",""15"",""123823""
","""event"",""trial"",""time""
""focus"",""15"",""124950""
","""event"",""trial"",""time""
""fullscreenenter"",""1"",""1873""
","""event"",""trial"",""time""
""fullscreenexit"",""1"",""2176""
",,,,,,,,,,,,"[{""stimulus"":""run_exp/static/images/task_images/rocket-01.jpg"",""time"":0.09999999403953552},{""stimulus"":""run_exp/static/images/task_images/rocket-02.jpg"",""time"":997.1999999880791},{""stimulus"":""run_exp/static/images/task_images/rocket-03.jpg"",""time"":1992.199999988079},{""stimulus"":""run_exp/static/images/task_images/rocket-04.jpg"",""time"":2987},{""stimulus"":""run_exp/static/images/task_images/rocket-05.jpg"",""time"":3981.199999988079},{""stimulus"":""run_exp/static/images/task_images/rocket-06.jpg"",""time"":4976.199999988079},{""stimulus"":""run_exp/static/images/task_images/rocket-07.jpg"",""time"":5971.0999999940395},{""stimulus"":""run_exp/static/images/task_images/rocket-08.jpg"",""time"":6967.29999999702},{""stimulus"":""run_exp/static/images/task_images/rocket-09.jpg"",""time"":7961.29999999702}]",[],4,,,,,,,,,,,,,,
alien_welcome,102,433909,0.0-32.0-1.0,"""event"",""trial"",""time""
""fullscreenenter"",""1"",""1873""
""fullscreenexit"",""1"",""2176""
""blur"",""15"",""123823""
""focus"",""15"",""124950""
","""event"",""trial"",""time""
""blur"",""15"",""123823""
","""event"",""trial"",""time""
""focus"",""15"",""124950""
","""event"",""trial"",""time""
""fullscreenenter"",""1"",""1873""
","""event"",""trial"",""time""
""fullscreenexit"",""1"",""2176""
",,null,run_exp/static/images/task_images/aliens/old_aliens/planet/alien_planet-10.jpg,null,,,,,,,,,,,,,10,"45,61,42,79,10,72,62,29,54,26,35,58,47,60,11,80,22,43,64,59,44,68,9,23,18,38,66,48,20,25,70,53,71,37,8,2,46,57,55,77,49,50,16,39,1,36,40,7,69,78",,,,,,,,,,
land,103,434410,0.0-32.0-2.0,"""event"",""trial"",""time""
""fullscreenenter"",""1"",""1873""
""fullscreenexit"",""1"",""2176""
""blur"",""15"",""123823""
""focus"",""15"",""124950""
","""event"",""trial"",""time""
""blur"",""15"",""123823""
","""event"",""trial"",""time""
""focus"",""15"",""124950""
","""event"",""trial"",""time""
""fullscreenenter"",""1"",""1873""
","""event"",""trial"",""time""
""fullscreenexit"",""1"",""2176""
",,null,run_exp/static/images/task_images/land.jpg,null,,,,,,,101,,,5,,,,,,,,,,,,,,
dig,104,436415,0.0-32.0-3.0,"""event"",""trial"",""time""
""fullscreenenter"",""1"",""1873""
""fullscreenexit"",""1"",""2176""
""blur"",""15"",""123823""
""focus"",""15"",""124950""
","""event"",""trial"",""time""
""blur"",""15"",""123823""
","""event"",""trial"",""time""
""focus"",""15"",""124950""
","""event"",""trial"",""time""
""fullscreenenter"",""1"",""1873""
","""event"",""trial"",""time""
""fullscreenexit"",""1"",""2176""
",,,,,,,,,,,,"[{""stimulus"":""run_exp/static/images/task_images/dig.jpg"",""time"":0.4000000059604645},{""stimulus"":""run_exp/static/images/task_images/land.jpg"",""time"":669.2999999970198},{""stimulus"":""run_exp/static/images/task_images/dig.jpg"",""time"":1336.2000000029802}]",[],5,,,,,,,,,,,,,,
harvest,105,437416,0.0-32.0-4.0,"""event"",""trial"",""time""
""fullscreenenter"",""1"",""1873""
""fullscreenexit"",""1"",""2176""
""blur"",""15"",""123823""
""focus"",""15"",""124950""
","""event"",""trial"",""time""
""blur"",""15"",""123823""
","""event"",""trial"",""time""
""focus"",""15"",""124950""
","""event"",""trial"",""time""
""fullscreenenter"",""1"",""1873""
","""event"",""trial"",""time""
""fullscreenexit"",""1"",""2176""
",,null,run_exp/static/images/task_images/gems/101.jpg,null,,,,,,,56,,,5,,,,,101,0.552584299,0.554455446,,,,,,,
decision,106,437634,0.0-32.0-5.0,"""event"",""trial"",""time""
""fullscreenenter"",""1"",""1873""
""fullscreenexit"",""1"",""2176""
""blur"",""15"",""123823""
""focus"",""15"",""124950""
","""event"",""trial"",""time""
""blur"",""15"",""123823""
","""event"",""trial"",""time""
""focus"",""15"",""124950""
","""event"",""trial"",""time""
""fullscreenenter"",""1"",""1873""
","""event"",""trial"",""time""
""fullscreenexit"",""1"",""2176""
",,215.4,run_exp/static/images/task_images/land.jpg,76,,,,,,,56,,,5,,,,,,,,102828,1,0,TRUE,,,
travel,107,447424,0.0-33.0-0.0,"""event"",""trial"",""time""
""fullscreenenter"",""1"",""1873""
""fullscreenexit"",""1"",""2176""
""blur"",""15"",""123823""
""focus"",""15"",""124950""
","""event"",""trial"",""time""
""blur"",""15"",""123823""
","""event"",""trial"",""time""
""focus"",""15"",""124950""
","""event"",""trial"",""time""
""fullscreenenter"",""1"",""1873""
","""event"",""trial"",""time""
""fullscreenexit"",""1"",""2176""
",,,,,,,,,,,,"[{""stimulus"":""run_exp/static/images/task_images/rocket-01.jpg"",""time"":0},{""stimulus"":""run_exp/static/images/task_images/rocket-02.jpg"",""time"":1089.5999999940395},{""stimulus"":""run_exp/static/images/task_images/rocket-03.jpg"",""time"":2175.4000000059605},{""stimulus"":""run_exp/static/images/task_images/rocket-04.jpg"",""time"":3262.5999999940395},{""stimulus"":""run_exp/static/images/task_images/rocket-05.jpg"",""time"":4349.20000000298},{""stimulus"":""run_exp/static/images/task_images/rocket-06.jpg"",""time"":5436.4000000059605},{""stimulus"":""run_exp/static/images/task_images/rocket-07.jpg"",""time"":6523.29999999702},{""stimulus"":""run_exp/static/images/task_images/rocket-08.jpg"",""time"":7611.0999999940395},{""stimulus"":""run_exp/static/images/task_images/rocket-09.jpg"",""time"":8697.5}]",[],5,,,,,,,,,,,,,,
alien_welcome,108,452428,0.0-33.0-1.0,"""event"",""trial"",""time""
""fullscreenenter"",""1"",""1873""
""fullscreenexit"",""1"",""2176""
""blur"",""15"",""123823""
""focus"",""15"",""124950""
","""event"",""trial"",""time""
""blur"",""15"",""123823""
","""event"",""trial"",""time""
""focus"",""15"",""124950""
","""event"",""trial"",""time""
""fullscreenenter"",""1"",""1873""
","""event"",""trial"",""time""
""fullscreenexit"",""1"",""2176""
",,null,run_exp/static/images/task_images/aliens/old_aliens/planet/alien_planet-72.jpg,null,,,,,,,,,,,,,72,"45,61,42,79,10,72,62,29,54,26,35,58,47,60,11,80,22,43,64,59,44,68,9,23,18,38,66,48,20,25,70,53,71,37,8,2,46,57,55,77,49,50,16,39,1,36,40,7,69,78",,,,,,,,,,
land,109,452931,0.0-33.0-2.0,"""event"",""trial"",""time""
""fullscreenenter"",""1"",""1873""
""fullscreenexit"",""1"",""2176""
""blur"",""15"",""123823""
""focus"",""15"",""124950""
","""event"",""trial"",""time""
""blur"",""15"",""123823""
","""event"",""trial"",""time""
""focus"",""15"",""124950""
","""event"",""trial"",""time""
""fullscreenenter"",""1"",""1873""
","""event"",""trial"",""time""
""fullscreenexit"",""1"",""2176""
",,null,run_exp/static/images/task_images/land.jpg,null,,,,,,,98,,,6,,,,,,,,,,,,,,
dig,110,454937,0.0-33.0-3.0,"""event"",""trial"",""time""
""fullscreenenter"",""1"",""1873""
""fullscreenexit"",""1"",""2176""
""blur"",""15"",""123823""
""focus"",""15"",""124950""
","""event"",""trial"",""time""
""blur"",""15"",""123823""
","""event"",""trial"",""time""
""focus"",""15"",""124950""
","""event"",""trial"",""time""
""fullscreenenter"",""1"",""1873""
","""event"",""trial"",""time""
""fullscreenexit"",""1"",""2176""
",,,,,,,,,,,,"[{""stimulus"":""run_exp/static/images/task_images/dig.jpg"",""time"":0.5},{""stimulus"":""run_exp/static/images/task_images/land.jpg"",""time"":670},{""stimulus"":""run_exp/static/images/task_images/dig.jpg"",""time"":1335.8999999910593}]",[],6,,,,,,,,,,,,,,
harvest,111,455940,0.0-33.0-4.0,"""event"",""trial"",""time""
""fullscreenenter"",""1"",""1873""
""fullscreenexit"",""1"",""2176""
""blur"",""15"",""123823""
""focus"",""15"",""124950""
","""event"",""trial"",""time""
""blur"",""15"",""123823""
","""event"",""trial"",""time""
""focus"",""15"",""124950""
","""event"",""trial"",""time""
""fullscreenenter"",""1"",""1873""
","""event"",""trial"",""time""
""fullscreenexit"",""1"",""2176""
",,null,run_exp/static/images/task_images/gems/98.jpg,null,,,,,,,84,,,6,,,,,98,0.856788156,0.857142857,,,,,,,
decision,112,456787,0.0-33.0-5.0,"""event"",""trial"",""time""
""fullscreenenter"",""1"",""1873""
""fullscreenexit"",""1"",""2176""
""blur"",""15"",""123823""
""focus"",""15"",""124950""
","""event"",""trial"",""time""
""blur"",""15"",""123823""
","""event"",""trial"",""time""
""focus"",""15"",""124950""
","""event"",""trial"",""time""
""fullscreenenter"",""1"",""1873""
","""event"",""trial"",""time""
""fullscreenexit"",""1"",""2176""
",,846.2,run_exp/static/images/task_images/land.jpg,65,,,,,,,84,,,6,,,,,,,,121981,1,0,FALSE,,,
dig,113,458943,0.0-34.0-0.0,"""event"",""trial"",""time""
""fullscreenenter"",""1"",""1873""
""fullscreenexit"",""1"",""2176""
""blur"",""15"",""123823""
""focus"",""15"",""124950""
","""event"",""trial"",""time""
""blur"",""15"",""123823""
","""event"",""trial"",""time""
""focus"",""15"",""124950""
","""event"",""trial"",""time""
""fullscreenenter"",""1"",""1873""
","""event"",""trial"",""time""
""fullscreenexit"",""1"",""2176""
",,,,,,,,,,,,"[{""stimulus"":""run_exp/static/images/task_images/dig.jpg"",""time"":0.09999999403953552},{""stimulus"":""run_exp/static/images/task_images/land.jpg"",""time"":718.2999999970198},{""stimulus"":""run_exp/static/images/task_images/dig.jpg"",""time"":1436.0999999940395}]",[],6,,,,,,,,,,,,,,
harvest,114,459945,0.0-34.0-1.0,"""event"",""trial"",""time""
""fullscreenenter"",""1"",""1873""
""fullscreenexit"",""1"",""2176""
""blur"",""15"",""123823""
""focus"",""15"",""124950""
","""event"",""trial"",""time""
""blur"",""15"",""123823""
","""event"",""trial"",""time""
""focus"",""15"",""124950""
","""event"",""trial"",""time""
""fullscreenenter"",""1"",""1873""
","""event"",""trial"",""time""
""fullscreenexit"",""1"",""2176""
",,null,run_exp/static/images/task_images/gems/84.jpg,null,,,,,,,70,,,6,,,,,84,0.831771487,0.833333333,,,,,,,
decision,115,460291,0.0-34.0-2.0,"""event"",""trial"",""time""
""fullscreenenter"",""1"",""1873""
""fullscreenexit"",""1"",""2176""
""blur"",""15"",""123823""
""focus"",""15"",""124950""
","""event"",""trial"",""time""
""blur"",""15"",""123823""
","""event"",""trial"",""time""
""focus"",""15"",""124950""
","""event"",""trial"",""time""
""fullscreenenter"",""1"",""1873""
","""event"",""trial"",""time""
""fullscreenexit"",""1"",""2176""
",,344.9,run_exp/static/images/task_images/land.jpg,65,,,,,,,70,,,6,,,,,,,,125485,1,1,FALSE,,,
dig,116,462951,0.0-35.0-0.0,"""event"",""trial"",""time""
""fullscreenenter"",""1"",""1873""
""fullscreenexit"",""1"",""2176""
""blur"",""15"",""123823""
""focus"",""15"",""124950""
","""event"",""trial"",""time""
""blur"",""15"",""123823""
","""event"",""trial"",""time""
""focus"",""15"",""124950""
","""event"",""trial"",""time""
""fullscreenenter"",""1"",""1873""
","""event"",""trial"",""time""
""fullscreenexit"",""1"",""2176""
",,,,,,,,,,,,"[{""stimulus"":""run_exp/static/images/task_images/dig.jpg"",""time"":0},{""stimulus"":""run_exp/static/images/task_images/land.jpg"",""time"":885.7000000029802},{""stimulus"":""run_exp/static/images/task_images/dig.jpg"",""time"":1771.4000000059605}]",[],6,,,,,,,,,,,,,,
harvest,117,463953,0.0-35.0-1.0,"""event"",""trial"",""time""
""fullscreenenter"",""1"",""1873""
""fullscreenexit"",""1"",""2176""
""blur"",""15"",""123823""
""focus"",""15"",""124950""
","""event"",""trial"",""time""
""blur"",""15"",""123823""
","""event"",""trial"",""time""
""focus"",""15"",""124950""
","""event"",""trial"",""time""
""fullscreenenter"",""1"",""1873""
","""event"",""trial"",""time""
""fullscreenexit"",""1"",""2176""
",,null,run_exp/static/images/task_images/gems/70.jpg,null,,,,,,,59,,,6,,,,,70,0.83750153,0.842857143,,,,,,,
decision,118,464403,0.0-35.0-2.0,"""event"",""trial"",""time""
""fullscreenenter"",""1"",""1873""
""fullscreenexit"",""1"",""2176""
""blur"",""15"",""123823""
""focus"",""15"",""124950""
","""event"",""trial"",""time""
""blur"",""15"",""123823""
","""event"",""trial"",""time""
""focus"",""15"",""124950""
","""event"",""trial"",""time""
""fullscreenenter"",""1"",""1873""
","""event"",""trial"",""time""
""fullscreenexit"",""1"",""2176""
",,448.4,run_exp/static/images/task_images/land.jpg,76,,,,,,,59,,,6,,,,,,,,129597,1,2,TRUE,,,
travel,119,473958,0.0-36.0-0.0,"""event"",""trial"",""time""
""fullscreenenter"",""1"",""1873""
""fullscreenexit"",""1"",""2176""
""blur"",""15"",""123823""
""focus"",""15"",""124950""
","""event"",""trial"",""time""
""blur"",""15"",""123823""
","""event"",""trial"",""time""
""focus"",""15"",""124950""
","""event"",""trial"",""time""
""fullscreenenter"",""1"",""1873""
","""event"",""trial"",""time""
""fullscreenexit"",""1"",""2176""
",,,,,,,,,,,,"[{""stimulus"":""run_exp/static/images/task_images/rocket-01.jpg"",""time"":0.10000000894069672},{""stimulus"":""run_exp/static/images/task_images/rocket-02.jpg"",""time"":1061.7999999970198},{""stimulus"":""run_exp/static/images/task_images/rocket-03.jpg"",""time"":2124.4000000059605},{""stimulus"":""run_exp/static/images/task_images/rocket-04.jpg"",""time"":3185.5},{""stimulus"":""run_exp/static/images/task_images/rocket-05.jpg"",""time"":4246.70000000298},{""stimulus"":""run_exp/static/images/task_images/rocket-06.jpg"",""time"":5307},{""stimulus"":""run_exp/static/images/task_images/rocket-07.jpg"",""time"":6367.100000008941},{""stimulus"":""run_exp/static/images/task_images/rocket-08.jpg"",""time"":7428.70000000298},{""stimulus"":""run_exp/static/images/task_images/rocket-09.jpg"",""time"":8489.70000000298}]",[],6,,,,,,,,,,,,,,
alien_welcome,120,478959,0.0-36.0-1.0,"""event"",""trial"",""time""
""fullscreenenter"",""1"",""1873""
""fullscreenexit"",""1"",""2176""
""blur"",""15"",""123823""
""focus"",""15"",""124950""
","""event"",""trial"",""time""
""blur"",""15"",""123823""
","""event"",""trial"",""time""
""focus"",""15"",""124950""
","""event"",""trial"",""time""
""fullscreenenter"",""1"",""1873""
","""event"",""trial"",""time""
""fullscreenexit"",""1"",""2176""
",,null,run_exp/static/images/task_images/aliens/old_aliens/planet/alien_planet-62.jpg,null,,,,,,,,,,,,,62,"45,61,42,79,10,72,62,29,54,26,35,58,47,60,11,80,22,43,64,59,44,68,9,23,18,38,66,48,20,25,70,53,71,37,8,2,46,57,55,77,49,50,16,39,1,36,40,7,69,78",,,,,,,,,,
land,121,479462,0.0-36.0-2.0,"""event"",""trial"",""time""
""fullscreenenter"",""1"",""1873""
""fullscreenexit"",""1"",""2176""
""blur"",""15"",""123823""
""focus"",""15"",""124950""
","""event"",""trial"",""time""
""blur"",""15"",""123823""
","""event"",""trial"",""time""
""focus"",""15"",""124950""
","""event"",""trial"",""time""
""fullscreenenter"",""1"",""1873""
","""event"",""trial"",""time""
""fullscreenexit"",""1"",""2176""
",,null,run_exp/static/images/task_images/land.jpg,null,,,,,,,99,,,7,,,,,,,,,,,,,,
dig,122,481468,0.0-36.0-3.0,"""event"",""trial"",""time""
""fullscreenenter"",""1"",""1873""
""fullscreenexit"",""1"",""2176""
""blur"",""15"",""123823""
""focus"",""15"",""124950""
","""event"",""trial"",""time""
""blur"",""15"",""123823""
","""event"",""trial"",""time""
""focus"",""15"",""124950""
","""event"",""trial"",""time""
""fullscreenenter"",""1"",""1873""
","""event"",""trial"",""time""
""fullscreenexit"",""1"",""2176""
",,,,,,,,,,,,"[{""stimulus"":""run_exp/static/images/task_images/dig.jpg"",""time"":0.3999999910593033},{""stimulus"":""run_exp/static/images/task_images/land.jpg"",""time"":669.0999999940395},{""stimulus"":""run_exp/static/images/task_images/dig.jpg"",""time"":1336.7999999970198}]",[],7,,,,,,,,,,,,,,
harvest,123,482470,0.0-36.0-4.0,"""event"",""trial"",""time""
""fullscreenenter"",""1"",""1873""
""fullscreenexit"",""1"",""2176""
""blur"",""15"",""123823""
""focus"",""15"",""124950""
","""event"",""trial"",""time""
""blur"",""15"",""123823""
","""event"",""trial"",""time""
""focus"",""15"",""124950""
","""event"",""trial"",""time""
""fullscreenenter"",""1"",""1873""
","""event"",""trial"",""time""
""fullscreenexit"",""1"",""2176""
",,null,run_exp/static/images/task_images/gems/99.jpg,null,,,,,,,76,,,7,,,,,99,0.770329815,0.767676768,,,,,,,
decision,124,482514,0.0-36.0-5.0,"""event"",""trial"",""time""
""fullscreenenter"",""1"",""1873""
""fullscreenexit"",""1"",""2176""
""blur"",""15"",""123823""
""focus"",""15"",""124950""
","""event"",""trial"",""time""
""blur"",""15"",""123823""
","""event"",""trial"",""time""
""focus"",""15"",""124950""
","""event"",""trial"",""time""
""fullscreenenter"",""1"",""1873""
","""event"",""trial"",""time""
""fullscreenexit"",""1"",""2176""
",,41.60000001,run_exp/static/images/task_images/land.jpg,65,,,,,,,76,,,7,,,,,,,,147708,1,0,FALSE,,,
dig,125,485474,0.0-37.0-0.0,"""event"",""trial"",""time""
""fullscreenenter"",""1"",""1873""
""fullscreenexit"",""1"",""2176""
""blur"",""15"",""123823""
""focus"",""15"",""124950""
","""event"",""trial"",""time""
""blur"",""15"",""123823""
","""event"",""trial"",""time""
""focus"",""15"",""124950""
","""event"",""trial"",""time""
""fullscreenenter"",""1"",""1873""
","""event"",""trial"",""time""
""fullscreenexit"",""1"",""2176""
",,,,,,,,,,,,"[{""stimulus"":""run_exp/static/images/task_images/dig.jpg"",""time"":0},{""stimulus"":""run_exp/static/images/task_images/land.jpg"",""time"":986.4000000059605},{""stimulus"":""run_exp/static/images/task_images/dig.jpg"",""time"":1974.7000000029802}]",[],7,,,,,,,,,,,,,,
harvest,126,486476,0.0-37.0-1.0,"""event"",""trial"",""time""
""fullscreenenter"",""1"",""1873""
""fullscreenexit"",""1"",""2176""
""blur"",""15"",""123823""
""focus"",""15"",""124950""
","""event"",""trial"",""time""
""blur"",""15"",""123823""
","""event"",""trial"",""time""
""focus"",""15"",""124950""
","""event"",""trial"",""time""
""fullscreenenter"",""1"",""1873""
","""event"",""trial"",""time""
""fullscreenexit"",""1"",""2176""
",,null,run_exp/static/images/task_images/gems/76.jpg,null,,,,,,,61,,,7,,,,,76,0.808308279,0.802631579,,,,,,,
decision,127,487044,0.0-37.0-2.0,"""event"",""trial"",""time""
""fullscreenenter"",""1"",""1873""
""fullscreenexit"",""1"",""2176""
""blur"",""15"",""123823""
""focus"",""15"",""124950""
","""event"",""trial"",""time""
""blur"",""15"",""123823""
","""event"",""trial"",""time""
""focus"",""15"",""124950""
","""event"",""trial"",""time""
""fullscreenenter"",""1"",""1873""
","""event"",""trial"",""time""
""fullscreenexit"",""1"",""2176""
",,565.5,run_exp/static/images/task_images/land.jpg,76,,,,,,,61,,,7,,,,,,,,152238,1,1,TRUE,,,
travel,128,496482,0.0-38.0-0.0,"""event"",""trial"",""time""
""fullscreenenter"",""1"",""1873""
""fullscreenexit"",""1"",""2176""
""blur"",""15"",""123823""
""focus"",""15"",""124950""
","""event"",""trial"",""time""
""blur"",""15"",""123823""
","""event"",""trial"",""time""
""focus"",""15"",""124950""
","""event"",""trial"",""time""
""fullscreenenter"",""1"",""1873""
","""event"",""trial"",""time""
""fullscreenexit"",""1"",""2176""
",,,,,,,,,,,,"[{""stimulus"":""run_exp/static/images/task_images/rocket-01.jpg"",""time"":0.09999999403953552},{""stimulus"":""run_exp/static/images/task_images/rocket-02.jpg"",""time"":1049.8999999910593},{""stimulus"":""run_exp/static/images/task_images/rocket-03.jpg"",""time"":2097},{""stimulus"":""run_exp/static/images/task_images/rocket-04.jpg"",""time"":3145.699999988079},{""stimulus"":""run_exp/static/images/task_images/rocket-05.jpg"",""time"":4193.699999988079},{""stimulus"":""run_exp/static/images/task_images/rocket-06.jpg"",""time"":5241.79999999702},{""stimulus"":""run_exp/static/images/task_images/rocket-07.jpg"",""time"":6289},{""stimulus"":""run_exp/static/images/task_images/rocket-08.jpg"",""time"":7338},{""stimulus"":""run_exp/static/images/task_images/rocket-09.jpg"",""time"":8384.89999999106}]",[],7,,,,,,,,,,,,,,
alien_welcome,129,501485,0.0-38.0-1.0,"""event"",""trial"",""time""
""fullscreenenter"",""1"",""1873""
""fullscreenexit"",""1"",""2176""
""blur"",""15"",""123823""
""focus"",""15"",""124950""
","""event"",""trial"",""time""
""blur"",""15"",""123823""
","""event"",""trial"",""time""
""focus"",""15"",""124950""
","""event"",""trial"",""time""
""fullscreenenter"",""1"",""1873""
","""event"",""trial"",""time""
""fullscreenexit"",""1"",""2176""
",,null,run_exp/static/images/task_images/aliens/old_aliens/planet/alien_planet-29.jpg,null,,,,,,,,,,,,,29,"45,61,42,79,10,72,62,29,54,26,35,58,47,60,11,80,22,43,64,59,44,68,9,23,18,38,66,48,20,25,70,53,71,37,8,2,46,57,55,77,49,50,16,39,1,36,40,7,69,78",,,,,,,,,,
land,130,501988,0.0-38.0-2.0,"""event"",""trial"",""time""
""fullscreenenter"",""1"",""1873""
""fullscreenexit"",""1"",""2176""
""blur"",""15"",""123823""
""focus"",""15"",""124950""
","""event"",""trial"",""time""
""blur"",""15"",""123823""
","""event"",""trial"",""time""
""focus"",""15"",""124950""
","""event"",""trial"",""time""
""fullscreenenter"",""1"",""1873""
","""event"",""trial"",""time""
""fullscreenexit"",""1"",""2176""
",,null,run_exp/static/images/task_images/land.jpg,null,,,,,,,96,,,8,,,,,,,,,,,,,,
dig,131,503990,0.0-38.0-3.0,"""event"",""trial"",""time""
""fullscreenenter"",""1"",""1873""
""fullscreenexit"",""1"",""2176""
""blur"",""15"",""123823""
""focus"",""15"",""124950""
","""event"",""trial"",""time""
""blur"",""15"",""123823""
","""event"",""trial"",""time""
""focus"",""15"",""124950""
","""event"",""trial"",""time""
""fullscreenenter"",""1"",""1873""
","""event"",""trial"",""time""
""fullscreenexit"",""1"",""2176""
",,,,,,,,,,,,"[{""stimulus"":""run_exp/static/images/task_images/dig.jpg"",""time"":0.10000000894069672},{""stimulus"":""run_exp/static/images/task_images/land.jpg"",""time"":668},{""stimulus"":""run_exp/static/images/task_images/dig.jpg"",""time"":1336.2000000029802}]",[],8,,,,,,,,,,,,,,
harvest,132,504993,0.0-38.0-4.0,"""event"",""trial"",""time""
""fullscreenenter"",""1"",""1873""
""fullscreenexit"",""1"",""2176""
""blur"",""15"",""123823""
""focus"",""15"",""124950""
","""event"",""trial"",""time""
""blur"",""15"",""123823""
","""event"",""trial"",""time""
""focus"",""15"",""124950""
","""event"",""trial"",""time""
""fullscreenenter"",""1"",""1873""
","""event"",""trial"",""time""
""fullscreenexit"",""1"",""2176""
",,null,run_exp/static/images/task_images/gems/96.jpg,null,,,,,,,76,,,8,,,,,96,0.79316184,0.791666667,,,,,,,
decision,133,505228,0.0-38.0-5.0,"""event"",""trial"",""time""
""fullscreenenter"",""1"",""1873""
""fullscreenexit"",""1"",""2176""
""blur"",""15"",""123823""
""focus"",""15"",""124950""
","""event"",""trial"",""time""
""blur"",""15"",""123823""
","""event"",""trial"",""time""
""focus"",""15"",""124950""
","""event"",""trial"",""time""
""fullscreenenter"",""1"",""1873""
","""event"",""trial"",""time""
""fullscreenexit"",""1"",""2176""
",,233,run_exp/static/images/task_images/land.jpg,76,,,,,,,76,,,8,,,,,,,,170422,1,0,TRUE,,,
travel,134,514999,0.0-39.0-0.0,"""event"",""trial"",""time""
""fullscreenenter"",""1"",""1873""
""fullscreenexit"",""1"",""2176""
""blur"",""15"",""123823""
""focus"",""15"",""124950""
","""event"",""trial"",""time""
""blur"",""15"",""123823""
","""event"",""trial"",""time""
""focus"",""15"",""124950""
","""event"",""trial"",""time""
""fullscreenenter"",""1"",""1873""
","""event"",""trial"",""time""
""fullscreenexit"",""1"",""2176""
",,,,,,,,,,,,"[{""stimulus"":""run_exp/static/images/task_images/rocket-01.jpg"",""time"":0.09999999403953552},{""stimulus"":""run_exp/static/images/task_images/rocket-02.jpg"",""time"":1086.5999999940395},{""stimulus"":""run_exp/static/images/task_images/rocket-03.jpg"",""time"":2171.699999988079},{""stimulus"":""run_exp/static/images/task_images/rocket-04.jpg"",""time"":3257.3999999910593},{""stimulus"":""run_exp/static/images/task_images/rocket-05.jpg"",""time"":4341.5999999940395},{""stimulus"":""run_exp/static/images/task_images/rocket-06.jpg"",""time"":5427.199999988079},{""stimulus"":""run_exp/static/images/task_images/rocket-07.jpg"",""time"":6512.5999999940395},{""stimulus"":""run_exp/static/images/task_images/rocket-08.jpg"",""time"":7596.899999991059},{""stimulus"":""run_exp/static/images/task_images/rocket-09.jpg"",""time"":8681.89999999106}]",[],8,,,,,,,,,,,,,,
alien_welcome,135,520001,0.0-39.0-1.0,"""event"",""trial"",""time""
""fullscreenenter"",""1"",""1873""
""fullscreenexit"",""1"",""2176""
""blur"",""15"",""123823""
""focus"",""15"",""124950""
","""event"",""trial"",""time""
""blur"",""15"",""123823""
","""event"",""trial"",""time""
""focus"",""15"",""124950""
","""event"",""trial"",""time""
""fullscreenenter"",""1"",""1873""
","""event"",""trial"",""time""
""fullscreenexit"",""1"",""2176""
",,null,run_exp/static/images/task_images/aliens/old_aliens/planet/alien_planet-54.jpg,null,,,,,,,,,,,,,54,"45,61,42,79,10,72,62,29,54,26,35,58,47,60,11,80,22,43,64,59,44,68,9,23,18,38,66,48,20,25,70,53,71,37,8,2,46,57,55,77,49,50,16,39,1,36,40,7,69,78",,,,,,,,,,
land,136,520502,0.0-39.0-2.0,"""event"",""trial"",""time""
""fullscreenenter"",""1"",""1873""
""fullscreenexit"",""1"",""2176""
""blur"",""15"",""123823""
""focus"",""15"",""124950""
","""event"",""trial"",""time""
""blur"",""15"",""123823""
","""event"",""trial"",""time""
""focus"",""15"",""124950""
","""event"",""trial"",""time""
""fullscreenenter"",""1"",""1873""
","""event"",""trial"",""time""
""fullscreenexit"",""1"",""2176""
",,null,run_exp/static/images/task_images/land.jpg,null,,,,,,,103,,,9,,,,,,,,,,,,,,
dig,137,522505,0.0-39.0-3.0,"""event"",""trial"",""time""
""fullscreenenter"",""1"",""1873""
""fullscreenexit"",""1"",""2176""
""blur"",""15"",""123823""
""focus"",""15"",""124950""
","""event"",""trial"",""time""
""blur"",""15"",""123823""
","""event"",""trial"",""time""
""focus"",""15"",""124950""
","""event"",""trial"",""time""
""fullscreenenter"",""1"",""1873""
","""event"",""trial"",""time""
""fullscreenexit"",""1"",""2176""
",,,,,,,,,,,,"[{""stimulus"":""run_exp/static/images/task_images/dig.jpg"",""time"":0.10000000894069672},{""stimulus"":""run_exp/static/images/task_images/land.jpg"",""time"":668.6000000089407},{""stimulus"":""run_exp/static/images/task_images/dig.jpg"",""time"":1335.6000000089407}]",[],9,,,,,,,,,,,,,,
harvest,138,523507,0.0-39.0-4.0,"""event"",""trial"",""time""
""fullscreenenter"",""1"",""1873""
""fullscreenexit"",""1"",""2176""
""blur"",""15"",""123823""
""focus"",""15"",""124950""
","""event"",""trial"",""time""
""blur"",""15"",""123823""
","""event"",""trial"",""time""
""focus"",""15"",""124950""
","""event"",""trial"",""time""
""fullscreenenter"",""1"",""1873""
","""event"",""trial"",""time""
""fullscreenexit"",""1"",""2176""
",,null,run_exp/static/images/task_images/gems/103.jpg,null,,,,,,,17,,,9,,,,,103,0.163395391,0.165048544,,,,,,,
decision,139,524556,0.0-39.0-5.0,"""event"",""trial"",""time""
""fullscreenenter"",""1"",""1873""
""fullscreenexit"",""1"",""2176""
""blur"",""15"",""123823""
""focus"",""15"",""124950""
","""event"",""trial"",""time""
""blur"",""15"",""123823""
","""event"",""trial"",""time""
""focus"",""15"",""124950""
","""event"",""trial"",""time""
""fullscreenenter"",""1"",""1873""
","""event"",""trial"",""time""
""fullscreenexit"",""1"",""2176""
",,1047.8,run_exp/static/images/task_images/land.jpg,65,,,,,,,17,,,9,,,,,,,,189750,1,0,FALSE,,,
dig,140,526511,0.0-40.0-0.0,"""event"",""trial"",""time""
""fullscreenenter"",""1"",""1873""
""fullscreenexit"",""1"",""2176""
""blur"",""15"",""123823""
""focus"",""15"",""124950""
","""event"",""trial"",""time""
""blur"",""15"",""123823""
","""event"",""trial"",""time""
""focus"",""15"",""124950""
","""event"",""trial"",""time""
""fullscreenenter"",""1"",""1873""
","""event"",""trial"",""time""
""fullscreenexit"",""1"",""2176""
",,,,,,,,,,,,"[{""stimulus"":""run_exp/static/images/task_images/dig.jpg"",""time"":0.29999999701976776},{""stimulus"":""run_exp/static/images/task_images/land.jpg"",""time"":652.2999999970198},{""stimulus"":""run_exp/static/images/task_images/dig.jpg"",""time"":1301.699999988079}]",[],9,,,,,,,,,,,,,,
harvest,141,527513,0.0-40.0-1.0,"""event"",""trial"",""time""
""fullscreenenter"",""1"",""1873""
""fullscreenexit"",""1"",""2176""
""blur"",""15"",""123823""
""focus"",""15"",""124950""
","""event"",""trial"",""time""
""blur"",""15"",""123823""
","""event"",""trial"",""time""
""focus"",""15"",""124950""
","""event"",""trial"",""time""
""fullscreenenter"",""1"",""1873""
","""event"",""trial"",""time""
""fullscreenexit"",""1"",""2176""
",,null,run_exp/static/images/task_images/gems/17.jpg,null,,,,,,,4,,,9,,,,,17,0.237129066,0.235294118,,,,,,,
decision,142,527733,0.0-40.0-2.0,"""event"",""trial"",""time""
""fullscreenenter"",""1"",""1873""
""fullscreenexit"",""1"",""2176""
""blur"",""15"",""123823""
""focus"",""15"",""124950""
","""event"",""trial"",""time""
""blur"",""15"",""123823""
","""event"",""trial"",""time""
""focus"",""15"",""124950""
","""event"",""trial"",""time""
""fullscreenenter"",""1"",""1873""
","""event"",""trial"",""time""
""fullscreenexit"",""1"",""2176""
",,219.9,run_exp/static/images/task_images/land.jpg,76,,,,,,,4,,,9,,,,,,,,192927,1,1,TRUE,,,
travel,143,537514,0.0-41.0-0.0,"""event"",""trial"",""time""
""fullscreenenter"",""1"",""1873""
""fullscreenexit"",""1"",""2176""
""blur"",""15"",""123823""
""focus"",""15"",""124950""
","""event"",""trial"",""time""
""blur"",""15"",""123823""
","""event"",""trial"",""time""
""focus"",""15"",""124950""
","""event"",""trial"",""time""
""fullscreenenter"",""1"",""1873""
","""event"",""trial"",""time""
""fullscreenexit"",""1"",""2176""
