trial_type,trial_index,time_elapsed,internal_node_id,interactions,blur_events,focus_events,fullscreenenter_events,fullscreenexit_events,success,rt,stimulus,key_press,prompt,subject_id,participant_id,age,gender,button_pressed,next_reward,animation_sequence,responses,planet,curr_prac_trial,n_prac_rounds,alien,aliens,reward_received,decay_rate_actual,decay_rate_exp,time_in_block,block_num,prt,last_trial_on_planet,button_html,bonus,num_failures
pavlovia,0,3,0.0-0.0,"""event"",""trial"",""time""
""blur"",""1"",""8985""
""focus"",""1"",""10731""
""fullscreenenter"",""1"",""10874""
","""event"",""trial"",""time""
""blur"",""1"",""8985""
","""event"",""trial"",""time""
""focus"",""1"",""10731""
","""event"",""trial"",""time""
""fullscreenenter"",""1"",""10874""
","
",,,,,,,,,,,,,,,,,,,,,,,,,,,,
fullscreen,1,11855,0.0-1.0,"""event"",""trial"",""time""
""blur"",""1"",""8985""
""focus"",""1"",""10731""
""fullscreenenter"",""1"",""10874""
","""event"",""trial"",""time""
""blur"",""1"",""8985""
","""event"",""trial"",""time""
""focus"",""1"",""10731""
","""event"",""trial"",""time""
""fullscreenenter"",""1"",""10874""
","
",TRUE,,,,,,,,,,,,,,,,,,,,,,,,,,,
instruc_welcome,2,21651,0.0-2.0,"""event"",""trial"",""time""
""blur"",""1"",""8985""
""focus"",""1"",""10731""
""fullscreenenter"",""1"",""10874""
","""event"",""trial"",""time""
""blur"",""1"",""8985""
","""event"",""trial"",""time""
""focus"",""1"",""10731""
","""event"",""trial"",""time""
""fullscreenenter"",""1"",""10874""
","
",,null,run_exp/static/audio/clip_1_welcome.m4a,null,"<p>Howdy! In this experiment, you’ll be an explorer traveling through space to collect space treasure.</p><p>Your mission is to collect as much treasure as possible.</p><br><br><p><img src='run_exp/static/images/task_images/opening_img-01.jpg' height='300' width='auto'></p>",8111,2715,18.96,Female,,,,,,,,,,,,,,,,,,,
audio-keyboard-response,3,38250,0.0-3.0,"""event"",""trial"",""time""
""blur"",""1"",""8985""
""focus"",""1"",""10731""
""fullscreenenter"",""1"",""10874""
","""event"",""trial"",""time""
""blur"",""1"",""8985""
","""event"",""trial"",""time""
""focus"",""1"",""10731""
","""event"",""trial"",""time""
""fullscreenenter"",""1"",""10874""
","
",,null,run_exp/static/audio/clip_2_move.m4a,null,,,,,,,,,,,,,,,,,,,,,,,,
welcome_dec,4,41644,0.0-4.0,"""event"",""trial"",""time""
""blur"",""1"",""8985""
""focus"",""1"",""10731""
""fullscreenenter"",""1"",""10874""
","""event"",""trial"",""time""
""blur"",""1"",""8985""
","""event"",""trial"",""time""
""focus"",""1"",""10731""
","""event"",""trial"",""time""
""fullscreenenter"",""1"",""10874""
","
",,3388.8,"<p>Howdy! In this experiment, you’ll be an explorer traveling through space to collect space treasure.</p><p>Your mission is to collect as much treasure as possible.</p><br><br><p><img src='run_exp/static/images/task_images/opening_img-01.jpg' height='300' width='auto'></p>",,,,,,,1,,,,,,,,,,,,,,,,,,
html-keyboard-response,5,43052,0.0-5.0,"""event"",""trial"",""time""
""blur"",""1"",""8985""
""focus"",""1"",""10731""
""fullscreenenter"",""1"",""10874""
","""event"",""trial"",""time""
""blur"",""1"",""8985""
","""event"",""trial"",""time""
""focus"",""1"",""10731""
","""event"",""trial"",""time""
""fullscreenenter"",""1"",""10874""
","
",,1404.4,"<p>Howdy! In this experiment, you’ll be an explorer traveling through space to collect space treasure.</p><p>Your mission is to collect as much treasure as possible.</p><br><br><p><img src='run_exp/static/images/task_images/opening_img-01.jpg' height='300' width='auto'></p><button class=""jspsych-html-btn-unchosen""><img src=""run_exp/static/images/task_images/planet-01.jpg"" height=""50""></button><button class=""jspsych-html-btn-chosen""><img src=""run_exp/static/images/task_images/planet-02.jpg"" height=""50""></button><p><b>[press the space bar to lock in your answer]<b><br></p>",32,,,,,,,,,,,,,,,,,,,,,,,,
instruc_goal,6,53130,0.0-6.0-0.0,"""event"",""trial"",""time""
""blur"",""1"",""8985""
""focus"",""1"",""10731""
""fullscreenenter"",""1"",""10874""
","""event"",""trial"",""time""
""blur"",""1"",""8985""
","""event"",""trial"",""time""
""focus"",""1"",""10731""
","""event"",""trial"",""time""
""fullscreenenter"",""1"",""10874""
","
",,null,run_exp/static/audio/clip_3_goal.m4a,null,"<p> As a space explorer, you’ll visit different planets to dig for space treasure, these pink gems.</p> <p> The more treasure you dig up, the more bonus money you’ll win! </p><br><br><p><img src='run_exp/static/images/task_images/pink_gem.jpg' height='300' width='auto'></p>",,,,,,,,,,,,,,,,,,,,,,,
instruc_goal,7,58207,0.0-6.0-1.0,"""event"",""trial"",""time""
""blur"",""1"",""8985""
""focus"",""1"",""10731""
""fullscreenenter"",""1"",""10874""
","""event"",""trial"",""time""
""blur"",""1"",""8985""
","""event"",""trial"",""time""
""focus"",""1"",""10731""
","""event"",""trial"",""time""
""fullscreenenter"",""1"",""10874""
","
",,5072.6,"<p> As a space explorer, you’ll visit different planets to dig for space treasure, these pink gems.</p> <p> The more treasure you dig up, the more bonus money you’ll win! </p><br><br><p><img src='run_exp/static/images/task_images/pink_gem.jpg' height='300' width='auto'></p>",,,,,,,1,,,,,,,,,,,,,,,,,,
html-keyboard-response,8,58293,0.0-6.0-2.0,"""event"",""trial"",""time""
""blur"",""1"",""8985""
""focus"",""1"",""10731""
""fullscreenenter"",""1"",""10874""
","""event"",""trial"",""time""
""blur"",""1"",""8985""
","""event"",""trial"",""time""
""focus"",""1"",""10731""
","""event"",""trial"",""time""
""fullscreenenter"",""1"",""10874""
","
",,83.39999998,"<p> As a space explorer, you’ll visit different planets to dig for space treasure, these pink gems.</p> <p> The more treasure you dig up, the more bonus money you’ll win! </p><br><br><p><img src='run_exp/static/images/task_images/pink_gem.jpg' height='300' width='auto'></p><button class=""jspsych-html-btn-unchosen""><img src=""run_exp/static/images/task_images/planet-01.jpg"" height=""50""></button><button class=""jspsych-html-btn-chosen""><img src=""run_exp/static/images/task_images/planet-02.jpg"" height=""50""></button><p><b>[press the space bar to lock in your answer]<b><br></p>",32,,,,,,,,,,,,,,,,,,,,,,,,
instruc_dig,9,74310,0.0-7.0-0.0,"""event"",""trial"",""time""
""blur"",""1"",""8985""
""focus"",""1"",""10731""
""fullscreenenter"",""1"",""10874""
","""event"",""trial"",""time""
""blur"",""1"",""8985""
","""event"",""trial"",""time""
""focus"",""1"",""10731""
","""event"",""trial"",""time""
""fullscreenenter"",""1"",""10874""
","
",,null,run_exp/static/audio/clip_4_dig.m4a,null,,,,,,,100,,,,,,,,,,,,,,,,,
instruc_dig_try,10,75310,0.0-7.0-1.0,"""event"",""trial"",""time""
""blur"",""1"",""8985""
""focus"",""1"",""10731""
""fullscreenenter"",""1"",""10874""
","""event"",""trial"",""time""
""blur"",""1"",""8985""
","""event"",""trial"",""time""
""focus"",""1"",""10731""
","""event"",""trial"",""time""
""fullscreenenter"",""1"",""10874""
","
",,996.5,"<p> When you’ve arrived at a new planet, you will dig once. </p> <p>Then, you get to decide if you want to stay on the planet and dig again or travel to a new planet and dig there.</p> <p> To stay and dig, press the letter <strong>‘A’</strong> on your keyboard. Try pressing it now! </p><p><img src='run_exp/static/images/task_images/land.jpg'  height='700' width='auto'></p>",65,"<p> When you’ve arrived at a new planet, you will dig once. </p> <p>Then, you get to decide if you want to stay on the planet and dig again or travel to a new planet and dig there.</p> <p> To stay and dig, press the letter <strong>‘A’</strong> on your keyboard. Try pressing it now! </p><p><img src='run_exp/static/images/task_images/land.jpg'  height='700' width='auto'></p>",,,,,,100,,,,,,,,,,,,,,,,,
dig_prac,11,77333,0.0-7.0-2.0,"""event"",""trial"",""time""
""blur"",""1"",""8985""
""focus"",""1"",""10731""
""fullscreenenter"",""1"",""10874""
","""event"",""trial"",""time""
""blur"",""1"",""8985""
","""event"",""trial"",""time""
""focus"",""1"",""10731""
","""event"",""trial"",""time""
""fullscreenenter"",""1"",""10874""
","
",,,,,,,,,,,,"[{""stimulus"":""run_exp/static/images/task_images/dig.jpg"",""time"":0.8999999761581421},{""stimulus"":""run_exp/static/images/task_images/land.jpg"",""time"":670.5},{""stimulus"":""run_exp/static/images/task_images/dig.jpg"",""time"":1338}]",[],,,,,,,,,,,,,,,
instruc_travel,12,113589,0.0-7.0-3.0,"""event"",""trial"",""time""
""blur"",""1"",""8985""
""focus"",""1"",""10731""
""fullscreenenter"",""1"",""10874""
","""event"",""trial"",""time""
""blur"",""1"",""8985""
","""event"",""trial"",""time""
""focus"",""1"",""10731""
","""event"",""trial"",""time""
""fullscreenenter"",""1"",""10874""
","
",,null,run_exp/static/audio/clip_5_travel.m4a,null,"<p>Every time you dig up gems, there are less gems on the planet, so the more you dig on a planet the fewer gems you’ll get with each dig.</p><p>When gems are running low, you may want to travel to a new planet. </p> <p>  Planets are very far apart in this galaxy, so it will take some time to travel between them. </p> <br><p>There are lots and lots of planets for you to visit, so you won’t be able to return to any planets you’ve seen before. </p><br><p>To leave this planet and travel to a new one, press the letter <strong>‘L’</strong> on your keyboard. Try pressing it now! </p><p><img src='run_exp/static/images/task_images/rocket-01.jpg'  height='600' width='auto'></p>",,,,,,,,,,,,,,,,,,,,,,,
instruc_travel_try,13,113825,0.0-7.0-4.0,"""event"",""trial"",""time""
""blur"",""1"",""8985""
""focus"",""1"",""10731""
""fullscreenenter"",""1"",""10874""
","""event"",""trial"",""time""
""blur"",""1"",""8985""
","""event"",""trial"",""time""
""focus"",""1"",""10731""
","""event"",""trial"",""time""
""fullscreenenter"",""1"",""10874""
","
",,234.3,"<p>Every time you dig up gems, there are less gems on the planet, so the more you dig on a planet the fewer gems you’ll get with each dig.</p><p>When gems are running low, you may want to travel to a new planet. </p> <p>  Planets are very far apart in this galaxy, so it will take some time to travel between them. </p> <br><p>There are lots and lots of planets for you to visit, so you won’t be able to return to any planets you’ve seen before. </p><br><p>To leave this planet and travel to a new one, press the letter <strong>‘L’</strong> on your keyboard. Try pressing it now! </p><p><img src='run_exp/static/images/task_images/rocket-01.jpg'  height='600' width='auto'></p>",76,"<p>Every time you dig up gems, there are less gems on the planet, so the more you dig on a planet the fewer gems you’ll get with each dig.</p><p>When gems are running low, you may want to travel to a new planet. </p> <p>  Planets are very far apart in this galaxy, so it will take some time to travel between them. </p> <br><p>There are lots and lots of planets for you to visit, so you won’t be able to return to any planets you’ve seen before. </p><br><p>To leave this planet and travel to a new one, press the letter <strong>‘L’</strong> on your keyboard. Try pressing it now! </p><p><img src='run_exp/static/images/task_images/rocket-01.jpg'  height='600' width='auto'></p>",,,,,,,,,,,,,,,,,,,,,,,
travel_prac,14,123827,0.0-7.0-5.0,"""event"",""trial"",""time""
""blur"",""1"",""8985""
""focus"",""1"",""10731""
""fullscreenenter"",""1"",""10874""
","""event"",""trial"",""time""
""blur"",""1"",""8985""
","""event"",""trial"",""time""
""focus"",""1"",""10731""
","""event"",""trial"",""time""
""fullscreenenter"",""1"",""10874""
","
",,,,,,,,,,,,"[{""stimulus"":""run_exp/static/images/task_images/rocket-01.jpg"",""time"":0.19999998807907104},{""stimulus"":""run_exp/static/images/task_images/rocket-02.jpg"",""time"":1115.300000011921},{""stimulus"":""run_exp/static/images/task_images/rocket-03.jpg"",""time"":2238.800000011921},{""stimulus"":""run_exp/static/images/task_images/rocket-04.jpg"",""time"":3347.399999976158},{""stimulus"":""run_exp/static/images/task_images/rocket-05.jpg"",""time"":4452.600000023842},{""stimulus"":""run_exp/static/images/task_images/rocket-06.jpg"",""time"":5560.5},{""stimulus"":""run_exp/static/images/task_images/rocket-07.jpg"",""time"":6674.300000011921},{""stimulus"":""run_exp/static/images/task_images/rocket-08.jpg"",""time"":7784.199999988079},{""stimulus"":""run_exp/static/images/task_images/rocket-09.jpg"",""time"":8892}]",[],0,,,,,,,,,,,,,,
instruc_alien_greet,15,151031,0.0-7.0-6.0,"""event"",""trial"",""time""
""blur"",""1"",""8985""
""focus"",""1"",""10731""
""fullscreenenter"",""1"",""10874""
","""event"",""trial"",""time""
""blur"",""1"",""8985""
","""event"",""trial"",""time""
""focus"",""1"",""10731""
","""event"",""trial"",""time""
""fullscreenenter"",""1"",""10874""
","
",,null,run_exp/static/audio/clip_6_alien.m4a,null,"<p>When you arrive at a new planet, the alien who owns the treasure mine on that planet will greet you!</p><p>The better an alien takes care of their mine the easier it is to dig for gems. Some aliens take better care of their mine than others. So, you won’t get exactly the same amount of gems on each planet.</p><p>What the alien looks like does not tell you anything about how many gems there are on the planet.</p><br><p><img src=""run_exp/static/images/task_images/aliens/instructions_aliens/planet/alien_planet-1.jpg""  height=""600"" width=""auto""></p>",,,,,,,,,,,,,,,,,,,,,,,
instruc_alien_greet,16,156324,0.0-7.0-7.0,"""event"",""trial"",""time""
""blur"",""1"",""8985""
""focus"",""1"",""10731""
""fullscreenenter"",""1"",""10874""
","""event"",""trial"",""time""
""blur"",""1"",""8985""
","""event"",""trial"",""time""
""focus"",""1"",""10731""
","""event"",""trial"",""time""
""fullscreenenter"",""1"",""10874""
","
",,5288.6,"<p>When you arrive at a new planet, the alien who owns the treasure mine on that planet will greet you!</p><p>The better an alien takes care of their mine the easier it is to dig for gems. Some aliens take better care of their mine than others. So, you won’t get exactly the same amount of gems on each planet.</p><p>What the alien looks like does not tell you anything about how many gems there are on the planet.</p><br><p><img src=""run_exp/static/images/task_images/aliens/instructions_aliens/planet/alien_planet-1.jpg""  height=""600"" width=""auto""></p>",,,,,,,1,,,,,,,,,,,,,,,,,,
html-keyboard-response,17,157083,0.0-7.0-8.0,"""event"",""trial"",""time""
""blur"",""1"",""8985""
""focus"",""1"",""10731""
""fullscreenenter"",""1"",""10874""
","""event"",""trial"",""time""
""blur"",""1"",""8985""
","""event"",""trial"",""time""
""focus"",""1"",""10731""
","""event"",""trial"",""time""
""fullscreenenter"",""1"",""10874""
","
",,757.3,"<p>When you arrive at a new planet, the alien who owns the treasure mine on that planet will greet you!</p><p>The better an alien takes care of their mine the easier it is to dig for gems. Some aliens take better care of their mine than others. So, you won’t get exactly the same amount of gems on each planet.</p><p>What the alien looks like does not tell you anything about how many gems there are on the planet.</p><br><p><img src=""run_exp/static/images/task_images/aliens/instructions_aliens/planet/alien_planet-1.jpg""  height=""600"" width=""auto""></p><button class=""jspsych-html-btn-unchosen""><img src=""run_exp/static/images/task_images/planet-01.jpg"" height=""50""></button><button class=""jspsych-html-btn-chosen""><img src=""run_exp/static/images/task_images/planet-02.jpg"" height=""50""></button><p><b>[press the space bar to lock in your answer]<b><br></p>",32,,,,,,,,,,,,,,,,,,,,,,,,
time_out,18,168190,0.0-8.0-0.0,"""event"",""trial"",""time""
""blur"",""1"",""8985""
""focus"",""1"",""10731""
""fullscreenenter"",""1"",""10874""
","""event"",""trial"",""time""
""blur"",""1"",""8985""
","""event"",""trial"",""time""
""focus"",""1"",""10731""
","""event"",""trial"",""time""
""fullscreenenter"",""1"",""10874""
","
",,null,run_exp/static/audio/clip_7_timeout.m4a,null,"<p>If you don't make your choice fast enough, you’ll have to wait a few seconds before you can make another one.</p><p>You can’t dig for more gems or travel to new planets. You just have to sit and wait.</p><br><p><img src='run_exp/static/images/task_images/time_out.jpg'  height='600' width='auto'></p>",,,,,,,,,,,,,,,,,,,,,,,
time_out,19,169336,0.0-8.0-1.0,"""event"",""trial"",""time""
""blur"",""1"",""8985""
""focus"",""1"",""10731""
""fullscreenenter"",""1"",""10874""
","""event"",""trial"",""time""
""blur"",""1"",""8985""
","""event"",""trial"",""time""
""focus"",""1"",""10731""
","""event"",""trial"",""time""
""fullscreenenter"",""1"",""10874""
","
",,1142.2,"<p>If you don't make your choice fast enough, you’ll have to wait a few seconds before you can make another one.</p><p>You can’t dig for more gems or travel to new planets. You just have to sit and wait.</p><br><p><img src='run_exp/static/images/task_images/time_out.jpg'  height='600' width='auto'></p>",,,,,,,1,,,,,,,,,,,,,,,,,,
html-keyboard-response,20,169825,0.0-8.0-2.0,"""event"",""trial"",""time""
""blur"",""1"",""8985""
""focus"",""1"",""10731""
""fullscreenenter"",""1"",""10874""
","""event"",""trial"",""time""
""blur"",""1"",""8985""
","""event"",""trial"",""time""
""focus"",""1"",""10731""
","""event"",""trial"",""time""
""fullscreenenter"",""1"",""10874""
","
",,488,"<p>If you don't make your choice fast enough, you’ll have to wait a few seconds before you can make another one.</p><p>You can’t dig for more gems or travel to new planets. You just have to sit and wait.</p><br><p><img src='run_exp/static/images/task_images/time_out.jpg'  height='600' width='auto'></p><button class=""jspsych-html-btn-unchosen""><img src=""run_exp/static/images/task_images/planet-01.jpg"" height=""50""></button><button class=""jspsych-html-btn-chosen""><img src=""run_exp/static/images/task_images/planet-02.jpg"" height=""50""></button><p><b>[press the space bar to lock in your answer]<b><br></p>",32,,,,,,,,,,,,,,,,,,,,,,,,
instruc_break,21,185511,0.0-9.0-0.0,"""event"",""trial"",""time""
""blur"",""1"",""8985""
""focus"",""1"",""10731""
""fullscreenenter"",""1"",""10874""
","""event"",""trial"",""time""
""blur"",""1"",""8985""
","""event"",""trial"",""time""
""focus"",""1"",""10731""
","""event"",""trial"",""time""
""fullscreenenter"",""1"",""10874""
","
",,null,run_exp/static/audio/clip_8_break.m4a,null,"<p> After digging and traveling for a while, you’ll be able to take a break at home base. </p><p>The game will last 20 minutes no matter what.</p><p>You will visit home base every 5 minutes, so, you will visit home base three times during the game.</p><br><p><img src='run_exp/static/images/task_images/home_base.jpg' height='600' width='auto'></p>",,,,,,,,,,,,,,,,,,,,,,,
instruc_break,22,186778,0.0-9.0-1.0,"""event"",""trial"",""time""
""blur"",""1"",""8985""
""focus"",""1"",""10731""
""fullscreenenter"",""1"",""10874""
","""event"",""trial"",""time""
""blur"",""1"",""8985""
","""event"",""trial"",""time""
""focus"",""1"",""10731""
","""event"",""trial"",""time""
""fullscreenenter"",""1"",""10874""
","
",,1263.4,"<p> After digging and traveling for a while, you’ll be able to take a break at home base. </p><p>The game will last 20 minutes no matter what.</p><p>You will visit home base every 5 minutes, so, you will visit home base three times during the game.</p><br><p><img src='run_exp/static/images/task_images/home_base.jpg' height='600' width='auto'></p>",,,,,,,1,,,,,,,,,,,,,,,,,,
html-keyboard-response,23,186978,0.0-9.0-2.0,"""event"",""trial"",""time""
""blur"",""1"",""8985""
""focus"",""1"",""10731""
""fullscreenenter"",""1"",""10874""
","""event"",""trial"",""time""
""blur"",""1"",""8985""
","""event"",""trial"",""time""
""focus"",""1"",""10731""
","""event"",""trial"",""time""
""fullscreenenter"",""1"",""10874""
","
",,197.8,"<p> After digging and traveling for a while, you’ll be able to take a break at home base. </p><p>The game will last 20 minutes no matter what.</p><p>You will visit home base every 5 minutes, so, you will visit home base three times during the game.</p><br><p><img src='run_exp/static/images/task_images/home_base.jpg' height='600' width='auto'></p><button class=""jspsych-html-btn-unchosen""><img src=""run_exp/static/images/task_images/planet-01.jpg"" height=""50""></button><button class=""jspsych-html-btn-chosen""><img src=""run_exp/static/images/task_images/planet-02.jpg"" height=""50""></button><p><b>[press the space bar to lock in your answer]<b><br></p>",32,,,,,,,,,,,,,,,,,,,,,,,,
instruc_prac_game,24,197130,0.0-10.0-0.0,"""event"",""trial"",""time""
""blur"",""1"",""8985""
""focus"",""1"",""10731""
""fullscreenenter"",""1"",""10874""
","""event"",""trial"",""time""
""blur"",""1"",""8985""
","""event"",""trial"",""time""
""focus"",""1"",""10731""
","""event"",""trial"",""time""
""fullscreenenter"",""1"",""10874""
","
",,null,run_exp/static/audio/clip_9_practice.m4a,null,"<p> Are you ready to play a practice game? </p> <p>In this practice game, you'll be digging up barrels of gems. But, in the real game, you'll be digging up the gems themselves. </p>",,,,,,,,,,,,,,,,,,,,,,,
html-button-response,25,198908,0.0-10.0-1.0,"""event"",""trial"",""time""
""blur"",""1"",""8985""
""focus"",""1"",""10731""
""fullscreenenter"",""1"",""10874""
","""event"",""trial"",""time""
""blur"",""1"",""8985""
","""event"",""trial"",""time""
""focus"",""1"",""10731""
","""event"",""trial"",""time""
""fullscreenenter"",""1"",""10874""
","
",,1774.5,"<p> Are you ready to play a practice game? </p> <p>In this practice game, you'll be digging up barrels of gems. But, in the real game, you'll be digging up the gems themselves. </p>",,,,,,,0,,,,,,,,,,,,,,,,,,
alien_welcome_prac,26,203915,0.0-11.0-0.0,"""event"",""trial"",""time""
""blur"",""1"",""8985""
""focus"",""1"",""10731""
""fullscreenenter"",""1"",""10874""
","""event"",""trial"",""time""
""blur"",""1"",""8985""
","""event"",""trial"",""time""
""focus"",""1"",""10731""
","""event"",""trial"",""time""
""fullscreenenter"",""1"",""10874""
","
",,null,run_exp/static/images/task_images/aliens/practice_aliens/planet/alien_planet-5.jpg,null,,,,,,,,,,,,,,,,,,,,,,,,
land_prac,27,204426,0.0-11.0-1.0,"""event"",""trial"",""time""
""blur"",""1"",""8985""
""focus"",""1"",""10731""
""fullscreenenter"",""1"",""10874""
","""event"",""trial"",""time""
""blur"",""1"",""8985""
","""event"",""trial"",""time""
""focus"",""1"",""10731""
","""event"",""trial"",""time""
""fullscreenenter"",""1"",""10874""
","
",,null,run_exp/static/images/task_images/land.jpg,null,,,,,,,100,,,0,,,,,,,,,,,,,,
dig_prac,28,206443,0.0-11.0-2.0,"""event"",""trial"",""time""
""blur"",""1"",""8985""
""focus"",""1"",""10731""
""fullscreenenter"",""1"",""10874""
","""event"",""trial"",""time""
""blur"",""1"",""8985""
","""event"",""trial"",""time""
""focus"",""1"",""10731""
","""event"",""trial"",""time""
""fullscreenenter"",""1"",""10874""
","
",,,,,,,,,,,,"[{""stimulus"":""run_exp/static/images/task_images/dig.jpg"",""time"":0.6000000238418579},{""stimulus"":""run_exp/static/images/task_images/land.jpg"",""time"":674.2000000476837},{""stimulus"":""run_exp/static/images/task_images/dig.jpg"",""time"":1343.1000000238419}]",[],,,,,,,,,,,,,,,
harvest_prac,29,207456,0.0-11.0-3.0,"""event"",""trial"",""time""
""blur"",""1"",""8985""
""focus"",""1"",""10731""
""fullscreenenter"",""1"",""10874""
","""event"",""trial"",""time""
""blur"",""1"",""8985""
","""event"",""trial"",""time""
""focus"",""1"",""10731""
","""event"",""trial"",""time""
""fullscreenenter"",""1"",""10874""
","
",,null,run_exp/static/images/task_images/barrel_text.jpg,null,,,,,,,,,,,,,,,,,,,,,,,,
decision_prac,30,207951,0.0-11.0-4.0,"""event"",""trial"",""time""
""blur"",""1"",""8985""
""focus"",""1"",""10731""
""fullscreenenter"",""1"",""10874""
","""event"",""trial"",""time""
""blur"",""1"",""8985""
","""event"",""trial"",""time""
""focus"",""1"",""10731""
","""event"",""trial"",""time""
""fullscreenenter"",""1"",""10874""
","
",,492.6,run_exp/static/images/task_images/land.jpg,65,,,,,,,,,,,1,,,,,,,,,,,,,
dig_prac,31,209961,0.0-12.0-0.0,"""event"",""trial"",""time""
""blur"",""1"",""8985""
""focus"",""1"",""10731""
""fullscreenenter"",""1"",""10874""
","""event"",""trial"",""time""
""blur"",""1"",""8985""
","""event"",""trial"",""time""
""focus"",""1"",""10731""
","""event"",""trial"",""time""
""fullscreenenter"",""1"",""10874""
","
",,,,,,,,,,,,"[{""stimulus"":""run_exp/static/images/task_images/dig.jpg"",""time"":0.5},{""stimulus"":""run_exp/static/images/task_images/land.jpg"",""time"":671.5},{""stimulus"":""run_exp/static/images/task_images/dig.jpg"",""time"":1345.6000000238419}]",[],,,,,,,,,,,,,,,
harvest_prac,32,210974,0.0-12.0-1.0,"""event"",""trial"",""time""
""blur"",""1"",""8985""
""focus"",""1"",""10731""
""fullscreenenter"",""1"",""10874""
","""event"",""trial"",""time""
""blur"",""1"",""8985""
","""event"",""trial"",""time""
""focus"",""1"",""10731""
","""event"",""trial"",""time""
""fullscreenenter"",""1"",""10874""
","
",,null,run_exp/static/images/task_images/barrel_text.jpg,null,,,,,,,,,,,,,,,,,,,,,,,,
decision_prac,33,211501,0.0-12.0-2.0,"""event"",""trial"",""time""
""blur"",""1"",""8985""
""focus"",""1"",""10731""
""fullscreenenter"",""1"",""10874""
","""event"",""trial"",""time""
""blur"",""1"",""8985""
","""event"",""trial"",""time""
""focus"",""1"",""10731""
","""event"",""trial"",""time""
""fullscreenenter"",""1"",""10874""
","
",,525.2,run_exp/static/images/task_images/land.jpg,65,,,,,,,,,,,2,,,,,,,,,,,,,
dig_prac,34,213511,0.0-13.0-0.0,"""event"",""trial"",""time""
""blur"",""1"",""8985""
""focus"",""1"",""10731""
""fullscreenenter"",""1"",""10874""
","""event"",""trial"",""time""
""blur"",""1"",""8985""
","""event"",""trial"",""time""
""focus"",""1"",""10731""
","""event"",""trial"",""time""
""fullscreenenter"",""1"",""10874""
","
",,,,,,,,,,,,"[{""stimulus"":""run_exp/static/images/task_images/dig.jpg"",""time"":0.40000003576278687},{""stimulus"":""run_exp/static/images/task_images/land.jpg"",""time"":678.5},{""stimulus"":""run_exp/static/images/task_images/dig.jpg"",""time"":1348.9000000357628}]",[],,,,,,,,,,,,,,,
harvest_prac,35,214527,0.0-13.0-1.0,"""event"",""trial"",""time""
""blur"",""1"",""8985""
""focus"",""1"",""10731""
""fullscreenenter"",""1"",""10874""
","""event"",""trial"",""time""
""blur"",""1"",""8985""
","""event"",""trial"",""time""
""focus"",""1"",""10731""
","""event"",""trial"",""time""
""fullscreenenter"",""1"",""10874""
","
",,null,run_exp/static/images/task_images/barrel_text.jpg,null,,,,,,,,,,,,,,,,,,,,,,,,
decision_prac,36,215936,0.0-13.0-2.0,"""event"",""trial"",""time""
""blur"",""1"",""8985""
""focus"",""1"",""10731""
""fullscreenenter"",""1"",""10874""
","""event"",""trial"",""time""
""blur"",""1"",""8985""
","""event"",""trial"",""time""
""focus"",""1"",""10731""
","""event"",""trial"",""time""
""fullscreenenter"",""1"",""10874""
","
",,1407.2,run_exp/static/images/task_images/land.jpg,65,,,,,,,,,,,3,,,,,,,,,,,,,
dig_prac,37,217959,0.0-14.0-0.0,"""event"",""trial"",""time""
""blur"",""1"",""8985""
""focus"",""1"",""10731""
""fullscreenenter"",""1"",""10874""
","""event"",""trial"",""time""
""blur"",""1"",""8985""
","""event"",""trial"",""time""
""focus"",""1"",""10731""
","""event"",""trial"",""time""
""fullscreenenter"",""1"",""10874""
","
",,,,,,,,,,,,"[{""stimulus"":""run_exp/static/images/task_images/dig.jpg"",""time"":0.3999999761581421},{""stimulus"":""run_exp/static/images/task_images/land.jpg"",""time"":674.1999999880791},{""stimulus"":""run_exp/static/images/task_images/dig.jpg"",""time"":1343.0999999642372}]",[],,,,,,,,,,,,,,,
harvest_prac,38,218975,0.0-14.0-1.0,"""event"",""trial"",""time""
""blur"",""1"",""8985""
""focus"",""1"",""10731""
""fullscreenenter"",""1"",""10874""
","""event"",""trial"",""time""
""blur"",""1"",""8985""
","""event"",""trial"",""time""
""focus"",""1"",""10731""
","""event"",""trial"",""time""
""fullscreenenter"",""1"",""10874""
","
",,null,run_exp/static/images/task_images/barrel_text.jpg,null,,,,,,,,,,,,,,,,,,,,,,,,
decision_prac,39,219706,0.0-14.0-2.0,"""event"",""trial"",""time""
""blur"",""1"",""8985""
""focus"",""1"",""10731""
""fullscreenenter"",""1"",""10874""
","""event"",""trial"",""time""
""blur"",""1"",""8985""
","""event"",""trial"",""time""
""focus"",""1"",""10731""
","""event"",""trial"",""time""
""fullscreenenter"",""1"",""10874""
","
",,728.2,run_exp/static/images/task_images/land.jpg,65,,,,,,,,,,,4,,,,,,,,,,,,,
dig_prac,40,221725,0.0-15.0-0.0,"""event"",""trial"",""time""
""blur"",""1"",""8985""
""focus"",""1"",""10731""
""fullscreenenter"",""1"",""10874""
","""event"",""trial"",""time""
""blur"",""1"",""8985""
","""event"",""trial"",""time""
""focus"",""1"",""10731""
","""event"",""trial"",""time""
""fullscreenenter"",""1"",""10874""
","
",,,,,,,,,,,,"[{""stimulus"":""run_exp/static/images/task_images/dig.jpg"",""time"":0.3999999761581421},{""stimulus"":""run_exp/static/images/task_images/land.jpg"",""time"":683.6000000238419},{""stimulus"":""run_exp/static/images/task_images/dig.jpg"",""time"":1340.699999988079}]",[],,,,,,,,,,,,,,,
harvest_prac,41,222737,0.0-15.0-1.0,"""event"",""trial"",""time""
""blur"",""1"",""8985""
""focus"",""1"",""10731""
""fullscreenenter"",""1"",""10874""
","""event"",""trial"",""time""
""blur"",""1"",""8985""
","""event"",""trial"",""time""
""focus"",""1"",""10731""
","""event"",""trial"",""time""
""fullscreenenter"",""1"",""10874""
","
",,null,run_exp/static/images/task_images/barrel_text.jpg,null,,,,,,,,,,,,,,,,,,,,,,,,
decision_prac,42,223978,0.0-15.0-2.0,"""event"",""trial"",""time""
""blur"",""1"",""8985""
""focus"",""1"",""10731""
""fullscreenenter"",""1"",""10874""
","""event"",""trial"",""time""
""blur"",""1"",""8985""
","""event"",""trial"",""time""
""focus"",""1"",""10731""
","""event"",""trial"",""time""
""fullscreenenter"",""1"",""10874""
","
",,1238.8,run_exp/static/images/task_images/land.jpg,65,,,,,,,,,,,,1,,,,,,,,,,,,
quiz_instruc,43,227303,0.0-16.0-0.0,"""event"",""trial"",""time""
""blur"",""1"",""8985""
""focus"",""1"",""10731""
""fullscreenenter"",""1"",""10874""
","""event"",""trial"",""time""
""blur"",""1"",""8985""
","""event"",""trial"",""time""
""focus"",""1"",""10731""
","""event"",""trial"",""time""
""fullscreenenter"",""1"",""10874""
","
",,3318.8,run_exp/static/audio/clip_10_quiz.m4a,,,,,,,0,,,,,,,,,,,,,,,,,,
instruc_repeat,44,270070,0.0-16.0-1.0,"""event"",""trial"",""time""
""blur"",""1"",""8985""
""focus"",""1"",""10731""
""fullscreenenter"",""1"",""10874""
","""event"",""trial"",""time""
""blur"",""1"",""8985""
","""event"",""trial"",""time""
""focus"",""1"",""10731""
","""event"",""trial"",""time""
""fullscreenenter"",""1"",""10874""
","
",,null,"<p> Are you ready to play a practice game? </p> <p>In this practice game, you'll be digging up barrels of gems. But, in the real game, you'll be digging up the gems themselves. </p>",null,"<p>In this game, your goal is to collect as many gems as you can. That’s how you will win bonus money. </p> <p>The entire game will last 20 minutes no matter how many gems you collect or how many planets you visit. </p><p>To stay on a planet and dig again, press the letter A on your keyboard. To leave for a new planet, press the letter L.</p><p>The more you dig on a planet, the fewer gems you’ll get with each dig which is why you might consider leaving for a new planet. </p><p>When you arrive at a new planet, you’ll be greeted by an alien. What the alien looks like does not tell you anything about how much treasure is on the planet. </p>",,,,,,,,,,,,,,,,,,,,,,,
instruc_repeat_continue,45,274713,0.0-16.0-2.0,"""event"",""trial"",""time""
""blur"",""1"",""8985""
""focus"",""1"",""10731""
""fullscreenenter"",""1"",""10874""
","""event"",""trial"",""time""
""blur"",""1"",""8985""
","""event"",""trial"",""time""
""focus"",""1"",""10731""
","""event"",""trial"",""time""
""fullscreenenter"",""1"",""10874""
","
",,4638.8,"<p> Are you ready to play a practice game? </p> <p>In this practice game, you'll be digging up barrels of gems. But, in the real game, you'll be digging up the gems themselves. </p>",,,,,,,0,,,,,,,,,,,,,,,,,,
quiz_q_1_ask,46,277041,0.0-16.0-3.0,"""event"",""trial"",""time""
""blur"",""1"",""8985""
""focus"",""1"",""10731""
""fullscreenenter"",""1"",""10874""
","""event"",""trial"",""time""
""blur"",""1"",""8985""
","""event"",""trial"",""time""
""focus"",""1"",""10731""
","""event"",""trial"",""time""
""fullscreenenter"",""1"",""10874""
","
",,2326.3,run_exp/static/audio/clip_11_q1_ask.m4a,,,,,,,2,,,,,,,,,,,,,,,,,,
quiz_q_1_fb_correct,47,280890,0.0-17.0-0.0,"""event"",""trial"",""time""
""blur"",""1"",""8985""
""focus"",""1"",""10731""
""fullscreenenter"",""1"",""10874""
","""event"",""trial"",""time""
""blur"",""1"",""8985""
","""event"",""trial"",""time""
""focus"",""1"",""10731""
","""event"",""trial"",""time""
""fullscreenenter"",""1"",""10874""
","
",,null,run_exp/static/audio/clip_12_q1_correct.m4a,null,<p>That’s correct. You win extra money by collecting more gems.</p>,,,,,,,,,,,,,,,,,,,,,,,
quiz_q_2_ask,48,288135,0.0-17.0-1.0,"""event"",""trial"",""time""
""blur"",""1"",""8985""
""focus"",""1"",""10731""
""fullscreenenter"",""1"",""10874""
","""event"",""trial"",""time""
""blur"",""1"",""8985""
","""event"",""trial"",""time""
""focus"",""1"",""10731""
","""event"",""trial"",""time""
""fullscreenenter"",""1"",""10874""
","
",,7241.6,run_exp/static/audio/clip_14_q2_ask.m4a,,,,,,,1,,,,,,,,,,,,,,,,,,
quiz_q_2_fb_correct,49,292130,0.0-18.0-0.0,"""event"",""trial"",""time""
""blur"",""1"",""8985""
""focus"",""1"",""10731""
""fullscreenenter"",""1"",""10874""
","""event"",""trial"",""time""
""blur"",""1"",""8985""
","""event"",""trial"",""time""
""focus"",""1"",""10731""
","""event"",""trial"",""time""
""fullscreenenter"",""1"",""10874""
","
",,null,run_exp/static/audio/clip_15_q2_correct.m4a,null,<p>That’s correct. The experiment is 20 minutes no matter what.</p>,,,,,,,,,,,,,,,,,,,,,,,
quiz_q_3_ask,50,295077,0.0-18.0-1.0,"""event"",""trial"",""time""
""blur"",""1"",""8985""
""focus"",""1"",""10731""
""fullscreenenter"",""1"",""10874""
","""event"",""trial"",""time""
""blur"",""1"",""8985""
","""event"",""trial"",""time""
""focus"",""1"",""10731""
","""event"",""trial"",""time""
""fullscreenenter"",""1"",""10874""
","
",,2944.7,run_exp/static/audio/clip_17_q3_ask.m4a,,,,,,,1,,,,,,,,,,,,,,,,,,
quiz_q_3_fb_correct,51,299070,0.0-19.0-0.0,"""event"",""trial"",""time""
""blur"",""1"",""8985""
""focus"",""1"",""10731""
""fullscreenenter"",""1"",""10874""
","""event"",""trial"",""time""
""blur"",""1"",""8985""
","""event"",""trial"",""time""
""focus"",""1"",""10731""
","""event"",""trial"",""time""
""fullscreenenter"",""1"",""10874""
","
",,null,run_exp/static/audio/clip_18_q3_correct.m4a,null,<p> That’s correct. You press the letter L to travel to a new planet.</p>,,,,,,,,,,,,,,,,,,,,,,,
quiz_q_4_ask,52,303595,0.0-19.0-1.0,"""event"",""trial"",""time""
""blur"",""1"",""8985""
""focus"",""1"",""10731""
""fullscreenenter"",""1"",""10874""
","""event"",""trial"",""time""
""blur"",""1"",""8985""
","""event"",""trial"",""time""
""focus"",""1"",""10731""
","""event"",""trial"",""time""
""fullscreenenter"",""1"",""10874""
","
",,4521.4,run_exp/static/audio/clip_20_q4_ask.m4a,,,,,,,0,,,,,,,,,,,,,,,,,,
quiz_q_4_fb_correct,53,308930,0.0-20.0-0.0,"""event"",""trial"",""time""
""blur"",""1"",""8985""
""focus"",""1"",""10731""
""fullscreenenter"",""1"",""10874""
","""event"",""trial"",""time""
""blur"",""1"",""8985""
","""event"",""trial"",""time""
""focus"",""1"",""10731""
","""event"",""trial"",""time""
""fullscreenenter"",""1"",""10874""
","
",,null,run_exp/static/audio/clip_21_q4_correct.m4a,null,<p> That’s correct. The more you dig on a planet the fewer gems you’ll get with each dig. </p>,,,,,,,,,,,,,,,,,,,,,,,
quiz_q_5_ask,54,311153,0.0-20.0-1.0,"""event"",""trial"",""time""
""blur"",""1"",""8985""
""focus"",""1"",""10731""
""fullscreenenter"",""1"",""10874""
","""event"",""trial"",""time""
""blur"",""1"",""8985""
","""event"",""trial"",""time""
""focus"",""1"",""10731""
","""event"",""trial"",""time""
""fullscreenenter"",""1"",""10874""
","
",,2218.8,run_exp/static/audio/clip_23_q5_ask.m4a,,,,,,,1,,,,,,,,,,,,,,,,,,
quiz_q_5_fb_correct,55,316170,0.0-21.0-0.0,"""event"",""trial"",""time""
""blur"",""1"",""8985""
""focus"",""1"",""10731""
""fullscreenenter"",""1"",""10874""
","""event"",""trial"",""time""
""blur"",""1"",""8985""
","""event"",""trial"",""time""
""focus"",""1"",""10731""
","""event"",""trial"",""time""
""fullscreenenter"",""1"",""10874""
","
",,null,run_exp/static/audio/clip_24_q5_correct.m4a,null,<p> That’s correct. The alien tells you nothing about how much treasure is on the planet.</p>,,,,,,,,,,,,,,,,,,,,,,,
quiz_correct,56,319650,0.0-22.0-0.0,"""event"",""trial"",""time""
""blur"",""1"",""8985""
""focus"",""1"",""10731""
""fullscreenenter"",""1"",""10874""
","""event"",""trial"",""time""
""blur"",""1"",""8985""
","""event"",""trial"",""time""
""focus"",""1"",""10731""
","""event"",""trial"",""time""
""fullscreenenter"",""1"",""10874""
","
",,null,run_exp/static/audio/clip_26_correct_quiz.m4a,null,,,,,,,,,,,,,,,,,,,,,,,,
quiz_correct_continue,57,320407,0.0-22.0-1.0,"""event"",""trial"",""time""
""blur"",""1"",""8985""
""focus"",""1"",""10731""
""fullscreenenter"",""1"",""10874""
","""event"",""trial"",""time""
""blur"",""1"",""8985""
","""event"",""trial"",""time""
""focus"",""1"",""10731""
","""event"",""trial"",""time""
""fullscreenenter"",""1"",""10874""
","
",,754.6,<p>Good job! You're now ready to move on to the real game!</p>,,,,,,,0,,,,,,,,,,,,,,,,,,
audio-keyboard-response,58,330530,0.0-22.0-2.0,"""event"",""trial"",""time""
""blur"",""1"",""8985""
""focus"",""1"",""10731""
""fullscreenenter"",""1"",""10874""
","""event"",""trial"",""time""
""blur"",""1"",""8985""
","""event"",""trial"",""time""
""focus"",""1"",""10731""
","""event"",""trial"",""time""
""fullscreenenter"",""1"",""10874""
","
",,null,run_exp/static/audio/clip_28_real_game.m4a,null,,,,,,,,,,,,,,,,,,,,,,,,
instruc_begin_exp_contine,59,331359,0.0-22.0-3.0,"""event"",""trial"",""time""
""blur"",""1"",""8985""
""focus"",""1"",""10731""
""fullscreenenter"",""1"",""10874""
","""event"",""trial"",""time""
""blur"",""1"",""8985""
","""event"",""trial"",""time""
""focus"",""1"",""10731""
","""event"",""trial"",""time""
""fullscreenenter"",""1"",""10874""
","
",,826.4,"<p>Now that you know how  to dig for space treasure and travel to new planets,you can start exploring! </p><p>Do you want to go over the instructions again or get started with the real game?</p>",,,,,,,1,,,,,,1,,,,,,,,,,,,
alien_welcome,60,336367,0.0-23.0-0.0,"""event"",""trial"",""time""
""blur"",""1"",""8985""
""focus"",""1"",""10731""
""fullscreenenter"",""1"",""10874""
","""event"",""trial"",""time""
""blur"",""1"",""8985""
","""event"",""trial"",""time""
""focus"",""1"",""10731""
","""event"",""trial"",""time""
""fullscreenenter"",""1"",""10874""
","
",,null,run_exp/static/images/task_images/aliens/old_aliens/planet/alien_planet-59.jpg,null,,,,,,,,,,,,,59,"59,5,12,27,74,26,3,45,77,39,73,17,28,14,31,56,69,49,46,9,48,78,66,19,16,43,13,58,35,4,33,11,15,42,20,76,34,62,10,41,40,36,7,8,30,1,6,32,44",,,,,,,,,,
land,61,336875,0.0-23.0-1.0,"""event"",""trial"",""time""
""blur"",""1"",""8985""
""focus"",""1"",""10731""
""fullscreenenter"",""1"",""10874""
","""event"",""trial"",""time""
""blur"",""1"",""8985""
","""event"",""trial"",""time""
""focus"",""1"",""10731""
","""event"",""trial"",""time""
""fullscreenenter"",""1"",""10874""
","
",,null,run_exp/static/images/task_images/land.jpg,null,,,,,,,101,,,1,,,,,,,,,,,,,,
dig,62,338893,0.0-23.0-2.0,"""event"",""trial"",""time""
""blur"",""1"",""8985""
""focus"",""1"",""10731""
""fullscreenenter"",""1"",""10874""
","""event"",""trial"",""time""
""blur"",""1"",""8985""
","""event"",""trial"",""time""
""focus"",""1"",""10731""
","""event"",""trial"",""time""
""fullscreenenter"",""1"",""10874""
","
",,,,,,,,,,,,"[{""stimulus"":""run_exp/static/images/task_images/dig.jpg"",""time"":0.5},{""stimulus"":""run_exp/static/images/task_images/land.jpg"",""time"":677.6999999880791},{""stimulus"":""run_exp/static/images/task_images/dig.jpg"",""time"":1343.199999988079}]",[],1,,,,,,,,,,,,,,
harvest,63,339907,0.0-23.0-3.0,"""event"",""trial"",""time""
""blur"",""1"",""8985""
""focus"",""1"",""10731""
""fullscreenenter"",""1"",""10874""
","""event"",""trial"",""time""
""blur"",""1"",""8985""
","""event"",""trial"",""time""
""focus"",""1"",""10731""
","""event"",""trial"",""time""
""fullscreenenter"",""1"",""10874""
","
",,null,run_exp/static/images/task_images/gems/101.jpg,null,,,,,,,27,,,1,,,,,101,0.269769604,0.267326733,,,,,,,
decision,64,340656,0.0-23.0-4.0,"""event"",""trial"",""time""
""blur"",""1"",""8985""
""focus"",""1"",""10731""
""fullscreenenter"",""1"",""10874""
","""event"",""trial"",""time""
""blur"",""1"",""8985""
","""event"",""trial"",""time""
""focus"",""1"",""10731""
","""event"",""trial"",""time""
""fullscreenenter"",""1"",""10874""
","
",,745.5,run_exp/static/images/task_images/land.jpg,65,,,,,,,27,,,1,,,,,,,,9296,1,0,FALSE,,,
dig,65,342923,0.0-24.0-0.0,"""event"",""trial"",""time""
""blur"",""1"",""8985""
""focus"",""1"",""10731""
""fullscreenenter"",""1"",""10874""
","""event"",""trial"",""time""
""blur"",""1"",""8985""
","""event"",""trial"",""time""
""focus"",""1"",""10731""
","""event"",""trial"",""time""
""fullscreenenter"",""1"",""10874""
","
",,,,,,,,,,,,"[{""stimulus"":""run_exp/static/images/task_images/dig.jpg"",""time"":0.30000001192092896},{""stimulus"":""run_exp/static/images/task_images/land.jpg"",""time"":755.6999999880791},{""stimulus"":""run_exp/static/images/task_images/dig.jpg"",""time"":1514.4000000357628}]",[],1,,,,,,,,,,,,,,
harvest,66,343937,0.0-24.0-1.0,"""event"",""trial"",""time""
""blur"",""1"",""8985""
""focus"",""1"",""10731""
""fullscreenenter"",""1"",""10874""
","""event"",""trial"",""time""
""blur"",""1"",""8985""
","""event"",""trial"",""time""
""focus"",""1"",""10731""
","""event"",""trial"",""time""
""fullscreenenter"",""1"",""10874""
","
",,null,run_exp/static/images/task_images/gems/27.jpg,null,,,,,,,6,,,1,,,,,27,0.214313799,0.222222222,,,,,,,
decision,67,344381,0.0-24.0-2.0,"""event"",""trial"",""time""
""blur"",""1"",""8985""
""focus"",""1"",""10731""
""fullscreenenter"",""1"",""10874""
","""event"",""trial"",""time""
""blur"",""1"",""8985""
","""event"",""trial"",""time""
""focus"",""1"",""10731""
","""event"",""trial"",""time""
""fullscreenenter"",""1"",""10874""
","
",,441.5,run_exp/static/images/task_images/land.jpg,76,,,,,,,6,,,1,,,,,,,,13020,1,1,TRUE,,,
travel,68,353964,0.0-25.0-0.0,"""event"",""trial"",""time""
""blur"",""1"",""8985""
""focus"",""1"",""10731""
""fullscreenenter"",""1"",""10874""
","""event"",""trial"",""time""
""blur"",""1"",""8985""
","""event"",""trial"",""time""
""focus"",""1"",""10731""
","""event"",""trial"",""time""
""fullscreenenter"",""1"",""10874""
","
",,,,,,,,,,,,"[{""stimulus"":""run_exp/static/images/task_images/rocket-01.jpg"",""time"":0.6000000238418579},{""stimulus"":""run_exp/static/images/task_images/rocket-02.jpg"",""time"":1077.7000000476837},{""stimulus"":""run_exp/static/images/task_images/rocket-03.jpg"",""time"":2138.900000035763},{""stimulus"":""run_exp/static/images/task_images/rocket-04.jpg"",""time"":3190.300000011921},{""stimulus"":""run_exp/static/images/task_images/rocket-05.jpg"",""time"":4252},{""stimulus"":""run_exp/static/images/task_images/rocket-06.jpg"",""time"":5314.600000023842},{""stimulus"":""run_exp/static/images/task_images/rocket-07.jpg"",""time"":6376.800000011921},{""stimulus"":""run_exp/static/images/task_images/rocket-08.jpg"",""time"":7451.5},{""stimulus"":""run_exp/static/images/task_images/rocket-09.jpg"",""time"":8513}]",[],1,,,,,,,,,,,,,,
alien_welcome,69,358979,0.0-25.0-1.0,"""event"",""trial"",""time""
""blur"",""1"",""8985""
""focus"",""1"",""10731""
""fullscreenenter"",""1"",""10874""
","""event"",""trial"",""time""
""blur"",""1"",""8985""
","""event"",""trial"",""time""
""focus"",""1"",""10731""
","""event"",""trial"",""time""
""fullscreenenter"",""1"",""10874""
","
",,null,run_exp/static/images/task_images/aliens/old_aliens/planet/alien_planet-5.jpg,null,,,,,,,,,,,,,5,"59,5,12,27,74,26,3,45,77,39,73,17,28,14,31,56,69,49,46,9,48,78,66,19,16,43,13,58,35,4,33,11,15,42,20,76,34,62,10,41,40,36,7,8,30,1,6,32,44",,,,,,,,,,
land,70,359494,0.0-25.0-2.0,"""event"",""trial"",""time""
""blur"",""1"",""8985""
""focus"",""1"",""10731""
""fullscreenenter"",""1"",""10874""
","""event"",""trial"",""time""
""blur"",""1"",""8985""
","""event"",""trial"",""time""
""focus"",""1"",""10731""
","""event"",""trial"",""time""
""fullscreenenter"",""1"",""10874""
","
",,null,run_exp/static/images/task_images/land.jpg,null,,,,,,,91,,,2,,,,,,,,,,,,,,
dig,71,361509,0.0-25.0-3.0,"""event"",""trial"",""time""
""blur"",""1"",""8985""
""focus"",""1"",""10731""
""fullscreenenter"",""1"",""10874""
","""event"",""trial"",""time""
""blur"",""1"",""8985""
","""event"",""trial"",""time""
""focus"",""1"",""10731""
","""event"",""trial"",""time""
""fullscreenenter"",""1"",""10874""
","
",,,,,,,,,,,,"[{""stimulus"":""run_exp/static/images/task_images/dig.jpg"",""time"":0.40000003576278687},{""stimulus"":""run_exp/static/images/task_images/land.jpg"",""time"":672.6999999880791},{""stimulus"":""run_exp/static/images/task_images/dig.jpg"",""time"":1343.199999988079}]",[],2,,,,,,,,,,,,,,
harvest,72,362511,0.0-25.0-4.0,"""event"",""trial"",""time""
""blur"",""1"",""8985""
""focus"",""1"",""10731""
""fullscreenenter"",""1"",""10874""
","""event"",""trial"",""time""
""blur"",""1"",""8985""
","""event"",""trial"",""time""
""focus"",""1"",""10731""
","""event"",""trial"",""time""
""fullscreenenter"",""1"",""10874""
","
",,null,run_exp/static/images/task_images/gems/91.jpg,null,,,,,,,15,,,2,,,,,91,0.167306022,0.164835165,,,,,,,
decision,73,363048,0.0-25.0-5.0,"""event"",""trial"",""time""
""blur"",""1"",""8985""
""focus"",""1"",""10731""
""fullscreenenter"",""1"",""10874""
","""event"",""trial"",""time""
""blur"",""1"",""8985""
","""event"",""trial"",""time""
""focus"",""1"",""10731""
","""event"",""trial"",""time""
""fullscreenenter"",""1"",""10874""
","
",,534.5,run_exp/static/images/task_images/land.jpg,65,,,,,,,15,,,2,,,,,,,,31687,1,0,FALSE,,,
dig,74,365525,0.0-26.0-0.0,"""event"",""trial"",""time""
""blur"",""1"",""8985""
""focus"",""1"",""10731""
""fullscreenenter"",""1"",""10874""
","""event"",""trial"",""time""
""blur"",""1"",""8985""
","""event"",""trial"",""time""
""focus"",""1"",""10731""
","""event"",""trial"",""time""
""fullscreenenter"",""1"",""10874""
","
",,,,,,,,,,,,"[{""stimulus"":""run_exp/static/images/task_images/dig.jpg"",""time"":0.30000001192092896},{""stimulus"":""run_exp/static/images/task_images/land.jpg"",""time"":836.1000000238419},{""stimulus"":""run_exp/static/images/task_images/dig.jpg"",""time"":1645.800000011921}]",[],2,,,,,,,,,,,,,,
harvest,75,366539,0.0-26.0-1.0,"""event"",""trial"",""time""
""blur"",""1"",""8985""
""focus"",""1"",""10731""
""fullscreenenter"",""1"",""10874""
","""event"",""trial"",""time""
""blur"",""1"",""8985""
","""event"",""trial"",""time""
""focus"",""1"",""10731""
","""event"",""trial"",""time""
""fullscreenenter"",""1"",""10874""
","
",,null,run_exp/static/images/task_images/gems/15.jpg,null,,,,,,,3,,,2,,,,,15,0.186831159,0.2,,,,,,,
decision,76,366709,0.0-26.0-2.0,"""event"",""trial"",""time""
""blur"",""1"",""8985""
""focus"",""1"",""10731""
""fullscreenenter"",""1"",""10874""
","""event"",""trial"",""time""
""blur"",""1"",""8985""
","""event"",""trial"",""time""
""focus"",""1"",""10731""
","""event"",""trial"",""time""
""fullscreenenter"",""1"",""10874""
","
",,167,run_exp/static/images/task_images/land.jpg,65,,,,,,,3,,,2,,,,,,,,35348,1,1,FALSE,,,
dig,77,369553,0.0-27.0-0.0,"""event"",""trial"",""time""
""blur"",""1"",""8985""
""focus"",""1"",""10731""
""fullscreenenter"",""1"",""10874""
","""event"",""trial"",""time""
""blur"",""1"",""8985""
","""event"",""trial"",""time""
""focus"",""1"",""10731""
","""event"",""trial"",""time""
""fullscreenenter"",""1"",""10874""
","
",,,,,,,,,,,,"[{""stimulus"":""run_exp/static/images/task_images/dig.jpg"",""time"":0.3999999761581421},{""stimulus"":""run_exp/static/images/task_images/land.jpg"",""time"":950.5},{""stimulus"":""run_exp/static/images/task_images/dig.jpg"",""time"":1900}]",[],2,,,,,,,,,,,,,,
harvest,78,370566,0.0-27.0-1.0,"""event"",""trial"",""time""
""blur"",""1"",""8985""
""focus"",""1"",""10731""
""fullscreenenter"",""1"",""10874""
","""event"",""trial"",""time""
""blur"",""1"",""8985""
","""event"",""trial"",""time""
""focus"",""1"",""10731""
","""event"",""trial"",""time""
""fullscreenenter"",""1"",""10874""
","
",,null,run_exp/static/images/task_images/gems/3.jpg,null,,,,,,,1,,,2,,,,,3,0.205826682,0.333333333,,,,,,,
decision,79,371415,0.0-27.0-2.0,"""event"",""trial"",""time""
""blur"",""1"",""8985""
""focus"",""1"",""10731""
""fullscreenenter"",""1"",""10874""
","""event"",""trial"",""time""
""blur"",""1"",""8985""
","""event"",""trial"",""time""
""focus"",""1"",""10731""
","""event"",""trial"",""time""
""fullscreenenter"",""1"",""10874""
","
",,847,run_exp/static/images/task_images/land.jpg,76,,,,,,,1,,,2,,,,,,,,40054,1,2,TRUE,,,
travel,80,380582,0.0-28.0-0.0,"""event"",""trial"",""time""
""blur"",""1"",""8985""
""focus"",""1"",""10731""
""fullscreenenter"",""1"",""10874""
","""event"",""trial"",""time""
""blur"",""1"",""8985""
","""event"",""trial"",""time""
""focus"",""1"",""10731""
","""event"",""trial"",""time""
""fullscreenenter"",""1"",""10874""
","
",,,,,,,,,,,,"[{""stimulus"":""run_exp/static/images/task_images/rocket-01.jpg"",""time"":0.5},{""stimulus"":""run_exp/static/images/task_images/rocket-02.jpg"",""time"":1021.8000000119209},{""stimulus"":""run_exp/static/images/task_images/rocket-03.jpg"",""time"":2047.1000000238419},{""stimulus"":""run_exp/static/images/task_images/rocket-04.jpg"",""time"":3059.199999988079},{""stimulus"":""run_exp/static/images/task_images/rocket-05.jpg"",""time"":4072.199999988079},{""stimulus"":""run_exp/static/images/task_images/rocket-06.jpg"",""time"":5089.5},{""stimulus"":""run_exp/static/images/task_images/rocket-07.jpg"",""time"":6105.300000011921},{""stimulus"":""run_exp/static/images/task_images/rocket-08.jpg"",""time"":7134.600000023842},{""stimulus"":""run_exp/static/images/task_images/rocket-09.jpg"",""time"":8144.600000023842}]",[],2,,,,,,,,,,,,,,
alien_welcome,81,385588,0.0-28.0-1.0,"""event"",""trial"",""time""
""blur"",""1"",""8985""
""focus"",""1"",""10731""
""fullscreenenter"",""1"",""10874""
","""event"",""trial"",""time""
""blur"",""1"",""8985""
","""event"",""trial"",""time""
""focus"",""1"",""10731""
","""event"",""trial"",""time""
""fullscreenenter"",""1"",""10874""
","
",,null,run_exp/static/images/task_images/aliens/old_aliens/planet/alien_planet-12.jpg,null,,,,,,,,,,,,,12,"59,5,12,27,74,26,3,45,77,39,73,17,28,14,31,56,69,49,46,9,48,78,66,19,16,43,13,58,35,4,33,11,15,42,20,76,34,62,10,41,40,36,7,8,30,1,6,32,44",,,,,,,,,,
land,82,386104,0.0-28.0-2.0,"""event"",""trial"",""time""
""blur"",""1"",""8985""
""focus"",""1"",""10731""
""fullscreenenter"",""1"",""10874""
","""event"",""trial"",""time""
""blur"",""1"",""8985""
","""event"",""trial"",""time""
""focus"",""1"",""10731""
","""event"",""trial"",""time""
""fullscreenenter"",""1"",""10874""
","
",,null,run_exp/static/images/task_images/land.jpg,null,,,,,,,98,,,3,,,,,,,,,,,,,,
dig,83,388118,0.0-28.0-3.0,"""event"",""trial"",""time""
""blur"",""1"",""8985""
""focus"",""1"",""10731""
""fullscreenenter"",""1"",""10874""
","""event"",""trial"",""time""
""blur"",""1"",""8985""
","""event"",""trial"",""time""
""focus"",""1"",""10731""
","""event"",""trial"",""time""
""fullscreenenter"",""1"",""10874""
","
",,,,,,,,,,,,"[{""stimulus"":""run_exp/static/images/task_images/dig.jpg"",""time"":0.40000003576278687},{""stimulus"":""run_exp/static/images/task_images/land.jpg"",""time"":669.8000000119209},{""stimulus"":""run_exp/static/images/task_images/dig.jpg"",""time"":1341.5}]",[],3,,,,,,,,,,,,,,
harvest,84,389136,0.0-28.0-4.0,"""event"",""trial"",""time""
""blur"",""1"",""8985""
""focus"",""1"",""10731""
""fullscreenenter"",""1"",""10874""
","""event"",""trial"",""time""
""blur"",""1"",""8985""
","""event"",""trial"",""time""
""focus"",""1"",""10731""
","""event"",""trial"",""time""
""fullscreenenter"",""1"",""10874""
","
",,null,run_exp/static/images/task_images/gems/98.jpg,null,,,,,,,50,,,3,,,,,98,0.514634357,0.510204082,,,,,,,
decision,85,389501,0.0-28.0-5.0,"""event"",""trial"",""time""
""blur"",""1"",""8985""
""focus"",""1"",""10731""
""fullscreenenter"",""1"",""10874""
","""event"",""trial"",""time""
""blur"",""1"",""8985""
","""event"",""trial"",""time""
""focus"",""1"",""10731""
","""event"",""trial"",""time""
""fullscreenenter"",""1"",""10874""
","
",,362.4,run_exp/static/images/task_images/land.jpg,65,,,,,,,50,,,3,,,,,,,,58140,1,0,FALSE,,,
dig,86,392152,0.0-29.0-0.0,"""event"",""trial"",""time""
""blur"",""1"",""8985""
""focus"",""1"",""10731""
""fullscreenenter"",""1"",""10874""
","""event"",""trial"",""time""
""blur"",""1"",""8985""
","""event"",""trial"",""time""
""focus"",""1"",""10731""
","""event"",""trial"",""time""
""fullscreenenter"",""1"",""10874""
","
",,,,,,,,,,,,"[{""stimulus"":""run_exp/static/images/task_images/dig.jpg"",""time"":0.3999999761581421},{""stimulus"":""run_exp/static/images/task_images/land.jpg"",""time"":882.3999999761581},{""stimulus"":""run_exp/static/images/task_images/dig.jpg"",""time"":1772.699999988079}]",[],3,,,,,,,,,,,,,,
harvest,87,393165,0.0-29.0-1.0,"""event"",""trial"",""time""
""blur"",""1"",""8985""
""focus"",""1"",""10731""
""fullscreenenter"",""1"",""10874""
","""event"",""trial"",""time""
""blur"",""1"",""8985""
","""event"",""trial"",""time""
""focus"",""1"",""10731""
","""event"",""trial"",""time""
""fullscreenenter"",""1"",""10874""
","
",,null,run_exp/static/images/task_images/gems/50.jpg,null,,,,,,,29,,,3,,,,,50,0.573223092,0.58,,,,,,,
decision,88,393364,0.0-29.0-2.0,"""event"",""trial"",""time""
""blur"",""1"",""8985""
""focus"",""1"",""10731""
""fullscreenenter"",""1"",""10874""
","""event"",""trial"",""time""
""blur"",""1"",""8985""
","""event"",""trial"",""time""
""focus"",""1"",""10731""
","""event"",""trial"",""time""
""fullscreenenter"",""1"",""10874""
","
",,196.8,run_exp/static/images/task_images/land.jpg,65,,,,,,,29,,,3,,,,,,,,62003,1,1,FALSE,,,
dig,89,396180,0.0-30.0-0.0,"""event"",""trial"",""time""
""blur"",""1"",""8985""
""focus"",""1"",""10731""
""fullscreenenter"",""1"",""10874""
","""event"",""trial"",""time""
""blur"",""1"",""8985""
","""event"",""trial"",""time""
""focus"",""1"",""10731""
","""event"",""trial"",""time""
""fullscreenenter"",""1"",""10874""
","
",,,,,,,,,,,,"[{""stimulus"":""run_exp/static/images/task_images/dig.jpg"",""time"":0.40000003576278687},{""stimulus"":""run_exp/static/images/task_images/land.jpg"",""time"":949},{""stimulus"":""run_exp/static/images/task_images/dig.jpg"",""time"":1884.300000011921}]",[],3,,,,,,,,,,,,,,
harvest,90,397195,0.0-30.0-1.0,"""event"",""trial"",""time""
""blur"",""1"",""8985""
""focus"",""1"",""10731""
""fullscreenenter"",""1"",""10874""
","""event"",""trial"",""time""
""blur"",""1"",""8985""
","""event"",""trial"",""time""
""focus"",""1"",""10731""
","""event"",""trial"",""time""
""fullscreenenter"",""1"",""10874""
","
",,null,run_exp/static/images/task_images/gems/29.jpg,null,,,,,,,17,,,3,,,,,29,0.601414621,0.586206897,,,,,,,
decision,91,398066,0.0-30.0-2.0,"""event"",""trial"",""time""
""blur"",""1"",""8985""
""focus"",""1"",""10731""
""fullscreenenter"",""1"",""10874""
","""event"",""trial"",""time""
""blur"",""1"",""8985""
","""event"",""trial"",""time""
""focus"",""1"",""10731""
","""event"",""trial"",""time""
""fullscreenenter"",""1"",""10874""
","
",,869,run_exp/static/images/task_images/land.jpg,76,,,,,,,17,,,3,,,,,,,,66705,1,2,TRUE,,,
travel,92,407215,0.0-31.0-0.0,"""event"",""trial"",""time""
""blur"",""1"",""8985""
""focus"",""1"",""10731""
""fullscreenenter"",""1"",""10874""
","""event"",""trial"",""time""
""blur"",""1"",""8985""
","""event"",""trial"",""time""
""focus"",""1"",""10731""
","""event"",""trial"",""time""
""fullscreenenter"",""1"",""10874""
","
",,,,,,,,,,,,"[{""stimulus"":""run_exp/static/images/task_images/rocket-01.jpg"",""time"":0.5999999642372131},{""stimulus"":""run_exp/static/images/task_images/rocket-02.jpg"",""time"":1024.2999999523163},{""stimulus"":""run_exp/static/images/task_images/rocket-03.jpg"",""time"":2037.5},{""stimulus"":""run_exp/static/images/task_images/rocket-04.jpg"",""time"":3051.099999964237},{""stimulus"":""run_exp/static/images/task_images/rocket-05.jpg"",""time"":4062.5},{""stimulus"":""run_exp/static/images/task_images/rocket-06.jpg"",""time"":5074.399999976158},{""stimulus"":""run_exp/static/images/task_images/rocket-07.jpg"",""time"":6087.299999952316},{""stimulus"":""run_exp/static/images/task_images/rocket-08.jpg"",""time"":7105.899999976158},{""stimulus"":""run_exp/static/images/task_images/rocket-09.jpg"",""time"":8117.699999988079}]",[],3,,,,,,,,,,,,,,
alien_welcome,93,412229,0.0-31.0-1.0,"""event"",""trial"",""time""
""blur"",""1"",""8985""
""focus"",""1"",""10731""
""fullscreenenter"",""1"",""10874""
","""event"",""trial"",""time""
""blur"",""1"",""8985""
","""event"",""trial"",""time""
""focus"",""1"",""10731""
","""event"",""trial"",""time""
""fullscreenenter"",""1"",""10874""
","
",,null,run_exp/static/images/task_images/aliens/old_aliens/planet/alien_planet-27.jpg,null,,,,,,,,,,,,,27,"59,5,12,27,74,26,3,45,77,39,73,17,28,14,31,56,69,49,46,9,48,78,66,19,16,43,13,58,35,4,33,11,15,42,20,76,34,62,10,41,40,36,7,8,30,1,6,32,44",,,,,,,,,,
land,94,412745,0.0-31.0-2.0,"""event"",""trial"",""time""
""blur"",""1"",""8985""
""focus"",""1"",""10731""
""fullscreenenter"",""1"",""10874""
","""event"",""trial"",""time""
""blur"",""1"",""8985""
","""event"",""trial"",""time""
""focus"",""1"",""10731""
","""event"",""trial"",""time""
""fullscreenenter"",""1"",""10874""
","
",,null,run_exp/static/images/task_images/land.jpg,null,,,,,,,104,,,4,,,,,,,,,,,,,,
dig,95,414757,0.0-31.0-3.0,"""event"",""trial"",""time""
""blur"",""1"",""8985""
""focus"",""1"",""10731""
""fullscreenenter"",""1"",""10874""
","""event"",""trial"",""time""
""blur"",""1"",""8985""
","""event"",""trial"",""time""
""focus"",""1"",""10731""
","""event"",""trial"",""time""
""fullscreenenter"",""1"",""10874""
","
",,,,,,,,,,,,"[{""stimulus"":""run_exp/static/images/task_images/dig.jpg"",""time"":0.5},{""stimulus"":""run_exp/static/images/task_images/land.jpg"",""time"":683.7999999523163},{""stimulus"":""run_exp/static/images/task_images/dig.jpg"",""time"":1337.5999999642372}]",[],4,,,,,,,,,,,,,,
harvest,96,415771,0.0-31.0-4.0,"""event"",""trial"",""time""
""blur"",""1"",""8985""
""focus"",""1"",""10731""
""fullscreenenter"",""1"",""10874""
","""event"",""trial"",""time""
""blur"",""1"",""8985""
","""event"",""trial"",""time""
""focus"",""1"",""10731""
","""event"",""trial"",""time""
""fullscreenenter"",""1"",""10874""
","
",,null,run_exp/static/images/task_images/gems/104.jpg,null,,,,,,,57,,,4,,,,,104,0.551430763,0.548076923,,,,,,,
decision,97,416116,0.0-31.0-5.0,"""event"",""trial"",""time""
""blur"",""1"",""8985""
""focus"",""1"",""10731""
""fullscreenenter"",""1"",""10874""
","""event"",""trial"",""time""
""blur"",""1"",""8985""
","""event"",""trial"",""time""
""focus"",""1"",""10731""
","""event"",""trial"",""time""
""fullscreenenter"",""1"",""10874""
","
",,342.8,run_exp/static/images/task_images/land.jpg,65,,,,,,,57,,,4,,,,,,,,84755,1,0,FALSE,,,
dig,98,418794,0.0-32.0-0.0,"""event"",""trial"",""time""
""blur"",""1"",""8985""
""focus"",""1"",""10731""
""fullscreenenter"",""1"",""10874""
","""event"",""trial"",""time""
""blur"",""1"",""8985""
","""event"",""trial"",""time""
""focus"",""1"",""10731""
","""event"",""trial"",""time""
""fullscreenenter"",""1"",""10874""
","
",,,,,,,,,,,,"[{""stimulus"":""run_exp/static/images/task_images/dig.jpg"",""time"":0.5},{""stimulus"":""run_exp/static/images/task_images/land.jpg"",""time"":896.8000000119209},{""stimulus"":""run_exp/static/images/task_images/dig.jpg"",""time"":1786.5999999642372}]",[],4,,,,,,,,,,,,,,
harvest,99,419807,0.0-32.0-1.0,"""event"",""trial"",""time""
""blur"",""1"",""8985""
""focus"",""1"",""10731""
""fullscreenenter"",""1"",""10874""
","""event"",""trial"",""time""
""blur"",""1"",""8985""
","""event"",""trial"",""time""
""focus"",""1"",""10731""
","""event"",""trial"",""time""
""fullscreenenter"",""1"",""10874""
","
",,null,run_exp/static/images/task_images/gems/57.jpg,null,,,,,,,30,,,4,,,,,57,0.518304357,0.526315789,,,,,,,
decision,100,420057,0.0-32.0-2.0,"""event"",""trial"",""time""
""blur"",""1"",""8985""
""focus"",""1"",""10731""
""fullscreenenter"",""1"",""10874""
","""event"",""trial"",""time""
""blur"",""1"",""8985""
","""event"",""trial"",""time""
""focus"",""1"",""10731""
","""event"",""trial"",""time""
""fullscreenenter"",""1"",""10874""
","
",,247,run_exp/static/images/task_images/land.jpg,65,,,,,,,30,,,4,,,,,,,,88696,1,1,FALSE,,,
dig,101,422821,0.0-33.0-0.0,"""event"",""trial"",""time""
""blur"",""1"",""8985""
""focus"",""1"",""10731""
""fullscreenenter"",""1"",""10874""
","""event"",""trial"",""time""
""blur"",""1"",""8985""
","""event"",""trial"",""time""
""focus"",""1"",""10731""
","""event"",""trial"",""time""
""fullscreenenter"",""1"",""10874""
","
",,,,,,,,,,,,"[{""stimulus"":""run_exp/static/images/task_images/dig.jpg"",""time"":0.5},{""stimulus"":""run_exp/static/images/task_images/land.jpg"",""time"":926.3000000119209},{""stimulus"":""run_exp/static/images/task_images/dig.jpg"",""time"":1845.8999999761581}]",[],4,,,,,,,,,,,,,,
harvest,102,423837,0.0-33.0-1.0,"""event"",""trial"",""time""
""blur"",""1"",""8985""
""focus"",""1"",""10731""
""fullscreenenter"",""1"",""10874""
","""event"",""trial"",""time""
""blur"",""1"",""8985""
","""event"",""trial"",""time""
""focus"",""1"",""10731""
","""event"",""trial"",""time""
""fullscreenenter"",""1"",""10874""
","
",,null,run_exp/static/images/task_images/gems/30.jpg,null,,,,,,,15,,,4,,,,,30,0.507243915,0.5,,,,,,,
decision,103,424139,0.0-33.0-2.0,"""event"",""trial"",""time""
""blur"",""1"",""8985""
""focus"",""1"",""10731""
""fullscreenenter"",""1"",""10874""
","""event"",""trial"",""time""
""blur"",""1"",""8985""
","""event"",""trial"",""time""
""focus"",""1"",""10731""
","""event"",""trial"",""time""
""fullscreenenter"",""1"",""10874""
","
",,299.2,run_exp/static/images/task_images/land.jpg,76,,,,,,,15,,,4,,,,,,,,92778,1,2,TRUE,,,
travel,104,433851,0.0-34.0-0.0,"""event"",""trial"",""time""
""blur"",""1"",""8985""
""focus"",""1"",""10731""
""fullscreenenter"",""1"",""10874""
","""event"",""trial"",""time""
""blur"",""1"",""8985""
","""event"",""trial"",""time""
""focus"",""1"",""10731""
","""event"",""trial"",""time""
""fullscreenenter"",""1"",""10874""
","
",,,,,,,,,,,,"[{""stimulus"":""run_exp/static/images/task_images/rocket-01.jpg"",""time"":0.5},{""stimulus"":""run_exp/static/images/task_images/rocket-02.jpg"",""time"":1079.800000011921},{""stimulus"":""run_exp/static/images/task_images/rocket-03.jpg"",""time"":2167.7000000476837},{""stimulus"":""run_exp/static/images/task_images/rocket-04.jpg"",""time"":3240.800000011921},{""stimulus"":""run_exp/static/images/task_images/rocket-05.jpg"",""time"":4312.400000035763},{""stimulus"":""run_exp/static/images/task_images/rocket-06.jpg"",""time"":5391.100000023842},{""stimulus"":""run_exp/static/images/task_images/rocket-07.jpg"",""time"":6478.300000011921},{""stimulus"":""run_exp/static/images/task_images/rocket-08.jpg"",""time"":7556},{""stimulus"":""run_exp/static/images/task_images/rocket-09.jpg"",""time"":8630.600000023842}]",[],4,,,,,,,,,,,,,,
alien_welcome,105,438866,0.0-34.0-1.0,"""event"",""trial"",""time""
""blur"",""1"",""8985""
""focus"",""1"",""10731""
""fullscreenenter"",""1"",""10874""
","""event"",""trial"",""time""
""blur"",""1"",""8985""
","""event"",""trial"",""time""
""focus"",""1"",""10731""
","""event"",""trial"",""time""
""fullscreenenter"",""1"",""10874""
","
",,null,run_exp/static/images/task_images/aliens/old_aliens/planet/alien_planet-74.jpg,null,,,,,,,,,,,,,74,"59,5,12,27,74,26,3,45,77,39,73,17,28,14,31,56,69,49,46,9,48,78,66,19,16,43,13,58,35,4,33,11,15,42,20,76,34,62,10,41,40,36,7,8,30,1,6,32,44",,,,,,,,,,
land,106,439381,0.0-34.0-2.0,"""event"",""trial"",""time""
""blur"",""1"",""8985""
""focus"",""1"",""10731""
""fullscreenenter"",""1"",""10874""
","""event"",""trial"",""time""
""blur"",""1"",""8985""
","""event"",""trial"",""time""
""focus"",""1"",""10731""
","""event"",""trial"",""time""
""fullscreenenter"",""1"",""10874""
","
",,null,run_exp/static/images/task_images/land.jpg,null,,,,,,,96,,,5,,,,,,,,,,,,,,
dig,107,441389,0.0-34.0-3.0,"""event"",""trial"",""time""
""blur"",""1"",""8985""
""focus"",""1"",""10731""
""fullscreenenter"",""1"",""10874""
","""event"",""trial"",""time""
""blur"",""1"",""8985""
","""event"",""trial"",""time""
""focus"",""1"",""10731""
","""event"",""trial"",""time""
""fullscreenenter"",""1"",""10874""
","
",,,,,,,,,,,,"[{""stimulus"":""run_exp/static/images/task_images/dig.jpg"",""time"":0.6000000238418579},{""stimulus"":""run_exp/static/images/task_images/land.jpg"",""time"":682},{""stimulus"":""run_exp/static/images/task_images/dig.jpg"",""time"":1350.6000000238419}]",[],5,,,,,,,,,,,,,,
harvest,108,442402,0.0-34.0-4.0,"""event"",""trial"",""time""
""blur"",""1"",""8985""
""focus"",""1"",""10731""
""fullscreenenter"",""1"",""10874""
","""event"",""trial"",""time""
""blur"",""1"",""8985""
","""event"",""trial"",""time""
""focus"",""1"",""10731""
","""event"",""trial"",""time""
""fullscreenenter"",""1"",""10874""
","
",,null,run_exp/static/images/task_images/gems/96.jpg,null,,,,,,,51,,,5,,,,,96,0.535396346,0.53125,,,,,,,
decision,109,442834,0.0-34.0-5.0,"""event"",""trial"",""time""
""blur"",""1"",""8985""
""focus"",""1"",""10731""
""fullscreenenter"",""1"",""10874""
","""event"",""trial"",""time""
""blur"",""1"",""8985""
","""event"",""trial"",""time""
""focus"",""1"",""10731""
","""event"",""trial"",""time""
""fullscreenenter"",""1"",""10874""
","
",,429.1,run_exp/static/images/task_images/land.jpg,65,,,,,,,51,,,5,,,,,,,,111473,1,0,FALSE,,,
dig,110,445413,0.0-35.0-0.0,"""event"",""trial"",""time""
""blur"",""1"",""8985""
""focus"",""1"",""10731""
""fullscreenenter"",""1"",""10874""
","""event"",""trial"",""time""
""blur"",""1"",""8985""
","""event"",""trial"",""time""
""focus"",""1"",""10731""
","""event"",""trial"",""time""
""fullscreenenter"",""1"",""10874""
","
",,,,,,,,,,,,"[{""stimulus"":""run_exp/static/images/task_images/dig.jpg"",""time"":0.3999999761581421},{""stimulus"":""run_exp/static/images/task_images/land.jpg"",""time"":870.8000000119209},{""stimulus"":""run_exp/static/images/task_images/dig.jpg"",""time"":1727.800000011921}]",[],5,,,,,,,,,,,,,,
harvest,111,446417,0.0-35.0-1.0,"""event"",""trial"",""time""
""blur"",""1"",""8985""
""focus"",""1"",""10731""
""fullscreenenter"",""1"",""10874""
","""event"",""trial"",""time""
""blur"",""1"",""8985""
","""event"",""trial"",""time""
""focus"",""1"",""10731""
","""event"",""trial"",""time""
""fullscreenenter"",""1"",""10874""
","
",,null,run_exp/static/images/task_images/gems/51.jpg,null,,,,,,,26,,,5,,,,,51,0.515487235,0.509803922,,,,,,,
decision,112,446811,0.0-35.0-2.0,"""event"",""trial"",""time""
""blur"",""1"",""8985""
""focus"",""1"",""10731""
""fullscreenenter"",""1"",""10874""
","""event"",""trial"",""time""
""blur"",""1"",""8985""
","""event"",""trial"",""time""
""focus"",""1"",""10731""
","""event"",""trial"",""time""
""fullscreenenter"",""1"",""10874""
","
",,391.9,run_exp/static/images/task_images/land.jpg,65,,,,,,,26,,,5,,,,,,,,115450,1,1,FALSE,,,
dig,113,449433,0.0-36.0-0.0,"""event"",""trial"",""time""
""blur"",""1"",""8985""
""focus"",""1"",""10731""
""fullscreenenter"",""1"",""10874""
","""event"",""trial"",""time""
""blur"",""1"",""8985""
","""event"",""trial"",""time""
""focus"",""1"",""10731""
","""event"",""trial"",""time""
""fullscreenenter"",""1"",""10874""
","
",,,,,,,,,,,,"[{""stimulus"":""run_exp/static/images/task_images/dig.jpg"",""time"":0.19999998807907104},{""stimulus"":""run_exp/static/images/task_images/land.jpg"",""time"":877.1999999880791},{""stimulus"":""run_exp/static/images/task_images/dig.jpg"",""time"":1752.1000000238419}]",[],5,,,,,,,,,,,,,,
harvest,114,450448,0.0-36.0-1.0,"""event"",""trial"",""time""
""blur"",""1"",""8985""
""focus"",""1"",""10731""
""fullscreenenter"",""1"",""10874""
","""event"",""trial"",""time""
""blur"",""1"",""8985""
","""event"",""trial"",""time""
""focus"",""1"",""10731""
","""event"",""trial"",""time""
""fullscreenenter"",""1"",""10874""
","
",,null,run_exp/static/images/task_images/gems/26.jpg,null,,,,,,,13,,,5,,,,,26,0.487415258,0.5,,,,,,,
decision,115,451347,0.0-36.0-2.0,"""event"",""trial"",""time""
""blur"",""1"",""8985""
""focus"",""1"",""10731""
""fullscreenenter"",""1"",""10874""
","""event"",""trial"",""time""
""blur"",""1"",""8985""
","""event"",""trial"",""time""
""focus"",""1"",""10731""
","""event"",""trial"",""time""
""fullscreenenter"",""1"",""10874""
","
",,893.9,run_exp/static/images/task_images/land.jpg,76,,,,,,,13,,,5,,,,,,,,119986,1,2,TRUE,,,
travel,116,460457,0.0-37.0-0.0,"""event"",""trial"",""time""
""blur"",""1"",""8985""
""focus"",""1"",""10731""
""fullscreenenter"",""1"",""10874""
","""event"",""trial"",""time""
""blur"",""1"",""8985""
","""event"",""trial"",""time""
""focus"",""1"",""10731""
","""event"",""trial"",""time""
""fullscreenenter"",""1"",""10874""
","
",,,,,,,,,,,,"[{""stimulus"":""run_exp/static/images/task_images/rocket-01.jpg"",""time"":0.40000003576278687},{""stimulus"":""run_exp/static/images/task_images/rocket-02.jpg"",""time"":1022},{""stimulus"":""run_exp/static/images/task_images/rocket-03.jpg"",""time"":2037.9000000357628},{""stimulus"":""run_exp/static/images/task_images/rocket-04.jpg"",""time"":3037.5},{""stimulus"":""run_exp/static/images/task_images/rocket-05.jpg"",""time"":4050.800000011921},{""stimulus"":""run_exp/static/images/task_images/rocket-06.jpg"",""time"":5066.5},{""stimulus"":""run_exp/static/images/task_images/rocket-07.jpg"",""time"":6081.5},{""stimulus"":""run_exp/static/images/task_images/rocket-08.jpg"",""time"":7079.900000035763},{""stimulus"":""run_exp/static/images/task_images/rocket-09.jpg"",""time"":8100.5}]",[],5,,,,,,,,,,,,,,
alien_welcome,117,465470,0.0-37.0-1.0,"""event"",""trial"",""time""
""blur"",""1"",""8985""
""focus"",""1"",""10731""
""fullscreenenter"",""1"",""10874""
","""event"",""trial"",""time""
""blur"",""1"",""8985""
","""event"",""trial"",""time""
""focus"",""1"",""10731""
","""event"",""trial"",""time""
""fullscreenenter"",""1"",""10874""
","
",,null,run_exp/static/images/task_images/aliens/old_aliens/planet/alien_planet-26.jpg,null,,,,,,,,,,,,,26,"59,5,12,27,74,26,3,45,77,39,73,17,28,14,31,56,69,49,46,9,48,78,66,19,16,43,13,58,35,4,33,11,15,42,20,76,34,62,10,41,40,36,7,8,30,1,6,32,44",,,,,,,,,,
land,118,465983,0.0-37.0-2.0,"""event"",""trial"",""time""
""blur"",""1"",""8985""
""focus"",""1"",""10731""
""fullscreenenter"",""1"",""10874""
","""event"",""trial"",""time""
""blur"",""1"",""8985""
","""event"",""trial"",""time""
""focus"",""1"",""10731""
","""event"",""trial"",""time""
""fullscreenenter"",""1"",""10874""
","
",,null,run_exp/static/images/task_images/land.jpg,null,,,,,,,98,,,6,,,,,,,,,,,,,,
dig,119,467995,0.0-37.0-3.0,"""event"",""trial"",""time""
""blur"",""1"",""8985""
""focus"",""1"",""10731""
""fullscreenenter"",""1"",""10874""
","""event"",""trial"",""time""
""blur"",""1"",""8985""
","""event"",""trial"",""time""
""focus"",""1"",""10731""
","""event"",""trial"",""time""
""fullscreenenter"",""1"",""10874""
","
",,,,,,,,,,,,"[{""stimulus"":""run_exp/static/images/task_images/dig.jpg"",""time"":0.6000000238418579},{""stimulus"":""run_exp/static/images/task_images/land.jpg"",""time"":682.4000000357628},{""stimulus"":""run_exp/static/images/task_images/dig.jpg"",""time"":1338.800000011921}]",[],6,,,,,,,,,,,,,,
harvest,120,469003,0.0-37.0-4.0,"""event"",""trial"",""time""
""blur"",""1"",""8985""
""focus"",""1"",""10731""
""fullscreenenter"",""1"",""10874""
","""event"",""trial"",""time""
""blur"",""1"",""8985""
","""event"",""trial"",""time""
""focus"",""1"",""10731""
","""event"",""trial"",""time""
""fullscreenenter"",""1"",""10874""
","
",,null,run_exp/static/images/task_images/gems/98.jpg,null,,,,,,,81,,,6,,,,,98,0.828257528,0.826530612,,,,,,,
decision,121,469568,0.0-37.0-5.0,"""event"",""trial"",""time""
""blur"",""1"",""8985""
""focus"",""1"",""10731""
""fullscreenenter"",""1"",""10874""
","""event"",""trial"",""time""
""blur"",""1"",""8985""
","""event"",""trial"",""time""
""focus"",""1"",""10731""
","""event"",""trial"",""time""
""fullscreenenter"",""1"",""10874""
","
",,562.6,run_exp/static/images/task_images/land.jpg,65,,,,,,,81,,,6,,,,,,,,138207,1,0,FALSE,,,
dig,122,472022,0.0-38.0-0.0,"""event"",""trial"",""time""
""blur"",""1"",""8985""
""focus"",""1"",""10731""
""fullscreenenter"",""1"",""10874""
","""event"",""trial"",""time""
""blur"",""1"",""8985""
","""event"",""trial"",""time""
""focus"",""1"",""10731""
","""event"",""trial"",""time""
""fullscreenenter"",""1"",""10874""
","
",,,,,,,,,,,,"[{""stimulus"":""run_exp/static/images/task_images/dig.jpg"",""time"":0.7000000476837158},{""stimulus"":""run_exp/static/images/task_images/land.jpg"",""time"":827.2000000476837},{""stimulus"":""run_exp/static/images/task_images/dig.jpg"",""time"":1627.5}]",[],6,,,,,,,,,,,,,,
harvest,123,473038,0.0-38.0-1.0,"""event"",""trial"",""time""
""blur"",""1"",""8985""
""focus"",""1"",""10731""
""fullscreenenter"",""1"",""10874""
","""event"",""trial"",""time""
""blur"",""1"",""8985""
","""event"",""trial"",""time""
""focus"",""1"",""10731""
","""event"",""trial"",""time""
""fullscreenenter"",""1"",""10874""
","
",,null,run_exp/static/images/task_images/gems/81.jpg,null,,,,,,,74,,,6,,,,,81,0.910588884,0.913580247,,,,,,,
decision,124,473240,0.0-38.0-2.0,"""event"",""trial"",""time""
""blur"",""1"",""8985""
""focus"",""1"",""10731""
""fullscreenenter"",""1"",""10874""
","""event"",""trial"",""time""
""blur"",""1"",""8985""
","""event"",""trial"",""time""
""focus"",""1"",""10731""
","""event"",""trial"",""time""
""fullscreenenter"",""1"",""10874""
","
",,199.1,run_exp/static/images/task_images/land.jpg,65,,,,,,,74,,,6,,,,,,,,141879,1,1,FALSE,,,
dig,125,476060,0.0-39.0-0.0,"""event"",""trial"",""time""
""blur"",""1"",""8985""
""focus"",""1"",""10731""
""fullscreenenter"",""1"",""10874""
","""event"",""trial"",""time""
""blur"",""1"",""8985""
","""event"",""trial"",""time""
""focus"",""1"",""10731""
","""event"",""trial"",""time""
""fullscreenenter"",""1"",""10874""
","
",,,,,,,,,,,,"[{""stimulus"":""run_exp/static/images/task_images/dig.jpg"",""time"":0.5},{""stimulus"":""run_exp/static/images/task_images/land.jpg"",""time"":940.5},{""stimulus"":""run_exp/static/images/task_images/dig.jpg"",""time"":1879}]",[],6,,,,,,,,,,,,,,
harvest,126,477076,0.0-39.0-1.0,"""event"",""trial"",""time""
""blur"",""1"",""8985""
""focus"",""1"",""10731""
""fullscreenenter"",""1"",""10874""
","""event"",""trial"",""time""
""blur"",""1"",""8985""
","""event"",""trial"",""time""
""focus"",""1"",""10731""
","""event"",""trial"",""time""
""fullscreenenter"",""1"",""10874""
","
",,null,run_exp/static/images/task_images/gems/74.jpg,null,,,,,,,55,,,6,,,,,74,0.748162679,0.743243243,,,,,,,
decision,127,477124,0.0-39.0-2.0,"""event"",""trial"",""time""
""blur"",""1"",""8985""
""focus"",""1"",""10731""
""fullscreenenter"",""1"",""10874""
","""event"",""trial"",""time""
""blur"",""1"",""8985""
","""event"",""trial"",""time""
""focus"",""1"",""10731""
","""event"",""trial"",""time""
""fullscreenenter"",""1"",""10874""
","
",,45.39999998,run_exp/static/images/task_images/land.jpg,65,,,,,,,55,,,6,,,,,,,,145763,1,2,FALSE,,,
dig,128,480091,0.0-40.0-0.0,"""event"",""trial"",""time""
""blur"",""1"",""8985""
""focus"",""1"",""10731""
""fullscreenenter"",""1"",""10874""
","""event"",""trial"",""time""
""blur"",""1"",""8985""
","""event"",""trial"",""time""
""focus"",""1"",""10731""
","""event"",""trial"",""time""
""fullscreenenter"",""1"",""10874""
","
",,,,,,,,,,,,"[{""stimulus"":""run_exp/static/images/task_images/dig.jpg"",""time"":0.5},{""stimulus"":""run_exp/static/images/task_images/land.jpg"",""time"":993},{""stimulus"":""run_exp/static/images/task_images/dig.jpg"",""time"":1979.199999988079}]",[],6,,,,,,,,,,,,,,
harvest,129,481107,0.0-40.0-1.0,"""event"",""trial"",""time""
""blur"",""1"",""8985""
""focus"",""1"",""10731""
""fullscreenenter"",""1"",""10874""
","""event"",""trial"",""time""
""blur"",""1"",""8985""
","""event"",""trial"",""time""
""focus"",""1"",""10731""
","""event"",""trial"",""time""
""fullscreenenter"",""1"",""10874""
","
",,null,run_exp/static/images/task_images/gems/55.jpg,null,,,,,,,44,,,6,,,,,55,0.802027504,0.8,,,,,,,
decision,130,481306,0.0-40.0-2.0,"""event"",""trial"",""time""
""blur"",""1"",""8985""
""focus"",""1"",""10731""
""fullscreenenter"",""1"",""10874""
","""event"",""trial"",""time""
""blur"",""1"",""8985""
","""event"",""trial"",""time""
""focus"",""1"",""10731""
","""event"",""trial"",""time""
""fullscreenenter"",""1"",""10874""
","
",,197.2,run_exp/static/images/task_images/land.jpg,65,,,,,,,44,,,6,,,,,,,,149946,1,3,FALSE,,,
dig,131,484120,0.0-41.0-0.0,"""event"",""trial"",""time""
""blur"",""1"",""8985""
""focus"",""1"",""10731""
""fullscreenenter"",""1"",""10874""
","""event"",""trial"",""time""
""blur"",""1"",""8985""
","""event"",""trial"",""time""
""focus"",""1"",""10731""
","""event"",""trial"",""time""
""fullscreenenter"",""1"",""10874""
","
",,,,,,,,,,,,"[{""stimulus"":""run_exp/static/images/task_images/dig.jpg"",""time"":0.40000003576278687},{""stimulus"":""run_exp/static/images/task_images/land.jpg"",""time"":937.4000000357628},{""stimulus"":""run_exp/static/images/task_images/dig.jpg"",""time"":1872.7000000476837}]",[],6,,,,,,,,,,,,,,
harvest,132,485136,0.0-41.0-1.0,"""event"",""trial"",""time""
""blur"",""1"",""8985""
""focus"",""1"",""10731""
""fullscreenenter"",""1"",""10874""
","""event"",""trial"",""time""
""blur"",""1"",""8985""
","""event"",""trial"",""time""
""focus"",""1"",""10731""
","""event"",""trial"",""time""
""fullscreenenter"",""1"",""10874""
","
",,null,run_exp/static/images/task_images/gems/44.jpg,null,,,,,,,35,,,6,,,,,44,0.798115709,0.795454545,,,,,,,
decision,133,485375,0.0-41.0-2.0,"""event"",""trial"",""time""
""blur"",""1"",""8985""
""focus"",""1"",""10731""
""fullscreenenter"",""1"",""10874""
","""event"",""trial"",""time""
""blur"",""1"",""8985""
","""event"",""trial"",""time""
""focus"",""1"",""10731""
","""event"",""trial"",""time""
""fullscreenenter"",""1"",""10874""
","
",,237,run_exp/static/images/task_images/land.jpg,76,,,,,,,35,,,6,,,,,,,,154014,1,4,TRUE,,,
travel,134,495152,0.0-42.0-0.0,"""event"",""trial"",""time""
""blur"",""1"",""8985""
""focus"",""1"",""10731""
""fullscreenenter"",""1"",""10874""
","""event"",""trial"",""time""
""blur"",""1"",""8985""
","""event"",""trial"",""time""
""focus"",""1"",""10731""
","""event"",""trial"",""time""
""fullscreenenter"",""1"",""10874""
","
",,,,,,,,,,,,"[{""stimulus"":""run_exp/static/images/task_images/rocket-01.jpg"",""time"":0.699999988079071},{""stimulus"":""run_exp/static/images/task_images/rocket-02.jpg"",""time"":1096.8999999761581},{""stimulus"":""run_exp/static/images/task_images/rocket-03.jpg"",""time"":2177.5},{""stimulus"":""run_exp/static/images/task_images/rocket-04.jpg"",""time"":3267.899999976158},{""stimulus"":""run_exp/static/images/task_images/rocket-05.jpg"",""time"":4343.5},{""stimulus"":""run_exp/static/images/task_images/rocket-06.jpg"",""time"":5431.800000011921},{""stimulus"":""run_exp/static/images/task_images/rocket-07.jpg"",""time"":6508.099999964237},{""stimulus"":""run_exp/static/images/task_images/rocket-08.jpg"",""time"":7597.699999988079},{""stimulus"":""run_exp/static/images/task_images/rocket-09.jpg"",""time"":8677}]",[],6,,,,,,,,,,,,,,
alien_welcome,135,500157,0.0-42.0-1.0,"""event"",""trial"",""time""
""blur"",""1"",""8985""
""focus"",""1"",""10731""
""fullscreenenter"",""1"",""10874""
","""event"",""trial"",""time""
""blur"",""1"",""8985""
","""event"",""trial"",""time""
""focus"",""1"",""10731""
","""event"",""trial"",""time""
""fullscreenenter"",""1"",""10874""
","
",,null,run_exp/static/images/task_images/aliens/old_aliens/planet/alien_planet-3.jpg,null,,,,,,,,,,,,,3,"59,5,12,27,74,26,3,45,77,39,73,17,28,14,31,56,69,49,46,9,48,78,66,19,16,43,13,58,35,4,33,11,15,42,20,76,34,62,10,41,40,36,7,8,30,1,6,32,44",,,,,,,,,,
land,136,500672,0.0-42.0-2.0,"""event"",""trial"",""time""
""blur"",""1"",""8985""
""focus"",""1"",""10731""
""fullscreenenter"",""1"",""10874""
","""event"",""trial"",""time""
""blur"",""1"",""8985""
","""event"",""trial"",""time""
""focus"",""1"",""10731""
","""event"",""trial"",""time""
""fullscreenenter"",""1"",""10874""
","
",,null,run_exp/static/images/task_images/land.jpg,null,,,,,,,109,,,7,,,,,,,,,,,,,,
dig,137,502679,0.0-42.0-3.0,"""event"",""trial"",""time""
""blur"",""1"",""8985""
""focus"",""1"",""10731""
""fullscreenenter"",""1"",""10874""
","""event"",""trial"",""time""
""blur"",""1"",""8985""
","""event"",""trial"",""time""
""focus"",""1"",""10731""
","""event"",""trial"",""time""
""fullscreenenter"",""1"",""10874""
","
",,,,,,,,,,,,"[{""stimulus"":""run_exp/static/images/task_images/dig.jpg"",""time"":0.19999998807907104},{""stimulus"":""run_exp/static/images/task_images/land.jpg"",""time"":681.3000000119209},{""stimulus"":""run_exp/static/images/task_images/dig.jpg"",""time"":1336.4000000357628}]",[],7,,,,,,,,,,,,,,
harvest,138,503690,0.0-42.0-4.0,"""event"",""trial"",""time""
""blur"",""1"",""8985""
""focus"",""1"",""10731""
""fullscreenenter"",""1"",""10874""
","""event"",""trial"",""time""
""blur"",""1"",""8985""
","""event"",""trial"",""time""
""focus"",""1"",""10731""
","""event"",""trial"",""time""
""fullscreenenter"",""1"",""10874""
","
",,null,run_exp/static/images/task_images/gems/109.jpg,null,,,,,,,92,,,7,,,,,109,0.846178535,0.844036697,,,,,,,
decision,139,504058,0.0-42.0-5.0,"""event"",""trial"",""time""
""blur"",""1"",""8985""
""focus"",""1"",""10731""
""fullscreenenter"",""1"",""10874""
","""event"",""trial"",""time""
""blur"",""1"",""8985""
","""event"",""trial"",""time""
""focus"",""1"",""10731""
","""event"",""trial"",""time""
""fullscreenenter"",""1"",""10874""
","
",,365.5,run_exp/static/images/task_images/land.jpg,65,,,,,,,92,,,7,,,,,,,,172697,1,0,FALSE,,,
dig,140,506709,0.0-43.0-0.0,"""event"",""trial"",""time""
""blur"",""1"",""8985""
""focus"",""1"",""10731""
""fullscreenenter"",""1"",""10874""
","""event"",""trial"",""time""
""blur"",""1"",""8985""
","""event"",""trial"",""time""
""focus"",""1"",""10731""
","""event"",""trial"",""time""
""fullscreenenter"",""1"",""10874""
","
",,,,,,,,,,,,"[{""stimulus"":""run_exp/static/images/task_images/dig.jpg"",""time"":0.40000003576278687},{""stimulus"":""run_exp/static/images/task_images/land.jpg"",""time"":884.8000000119209},{""stimulus"":""run_exp/static/images/task_images/dig.jpg"",""time"":1758.699999988079}]",[],7,,,,,,,,,,,,,,
harvest,141,507721,0.0-43.0-1.0,"""event"",""trial"",""time""
""blur"",""1"",""8985""
""focus"",""1"",""10731""
""fullscreenenter"",""1"",""10874""
","""event"",""trial"",""time""
""blur"",""1"",""8985""
","""event"",""trial"",""time""
""focus"",""1"",""10731""
","""event"",""trial"",""time""
""fullscreenenter"",""1"",""10874""
","
",,null,run_exp/static/images/task_images/gems/92.jpg,null,,,,,,,77,,,7,,,,,92,0.83266504,0.836956522,,,,,,,
decision,142,507880,0.0-43.0-2.0,"""event"",""trial"",""time""
""blur"",""1"",""8985""
""focus"",""1"",""10731""
""fullscreenenter"",""1"",""10874""
","""event"",""trial"",""time""
""blur"",""1"",""8985""
","""event"",""trial"",""time""
""focus"",""1"",""10731""
","""event"",""trial"",""time""
""fullscreenenter"",""1"",""10874""
","
",,156.4,run_exp/static/images/task_images/land.jpg,65,,,,,,,77,,,7,,,,,,,,176519,1,1,FALSE,,,
dig,143,510735,0.0-44.0-0.0,"""event"",""trial"",""time""
""blur"",""1"",""8985""
""focus"",""1"",""10731""
""fullscreenenter"",""1"",""10874""
","""event"",""trial"",""time""
""blur"",""1"",""8985""
","""event"",""trial"",""time""
""focus"",""1"",""10731""
","""event"",""trial"",""time""
""fullscreenenter"",""1"",""10874""
","
",,,,,,,,,,,,"[{""stimulus"":""run_exp/static/images/task_images/dig.jpg"",""time"":0.40000003576278687},{""stimulus"":""run_exp/static/images/task_images/land.jpg"",""time"":964.1999999880791},{""stimulus"":""run_exp/static/images/task_images/dig.jpg"",""time"":1911.6000000238419}]",[],7,,,,,,,,,,,,,,
harvest,144,511749,0.0-44.0-1.0,"""event"",""trial"",""time""
""blur"",""1"",""8985""
""focus"",""1"",""10731""
""fullscreenenter"",""1"",""10874""
","""event"",""trial"",""time""
""blur"",""1"",""8985""
","""event"",""trial"",""time""
""focus"",""1"",""10731""
","""event"",""trial"",""time""
""fullscreenenter"",""1"",""10874""
","
",,null,run_exp/static/images/task_images/gems/77.jpg,null,,,,,,,64,,,7,,,,,77,0.836705312,0.831168831,,,,,,,
decision,145,512288,0.0-44.0-2.0,"""event"",""trial"",""time""
""blur"",""1"",""8985""
""focus"",""1"",""10731""
""fullscreenenter"",""1"",""10874""
","""event"",""trial"",""time""
""blur"",""1"",""8985""
","""event"",""trial"",""time""
""focus"",""1"",""10731""
","""event"",""trial"",""time""
""fullscreenenter"",""1"",""10874""
","
",,534.9,run_exp/static/images/task_images/land.jpg,65,,,,,,,64,,,7,,,,,,,,180927,1,2,FALSE,,,
dig,146,514774,0.0-45.0-0.0,"""event"",""trial"",""time""
""blur"",""1"",""8985""
""focus"",""1"",""10731""
""fullscreenenter"",""1"",""10874""
","""event"",""trial"",""time""
""blur"",""1"",""8985""
","""event"",""trial"",""time""
""focus"",""1"",""10731""
","""event"",""trial"",""time""
""fullscreenenter"",""1"",""10874""
","
",,,,,,,,,,,,"[{""stimulus"":""run_exp/static/images/task_images/dig.jpg"",""time"":0.5},{""stimulus"":""run_exp/static/images/task_images/land.jpg"",""time"":825.6999999880791},{""stimulus"":""run_exp/static/images/task_images/dig.jpg"",""time"":1652.300000011921}]",[],7,,,,,,,,,,,,,,
harvest,147,515786,0.0-45.0-1.0,"""event"",""trial"",""time""
""blur"",""1"",""8985""
""focus"",""1"",""10731""
""fullscreenenter"",""1"",""10874""
","""event"",""trial"",""time""
""blur"",""1"",""8985""
","""event"",""trial"",""time""
""focus"",""1"",""10731""
","""event"",""trial"",""time""
""fullscreenenter"",""1"",""10874""
","
",,null,run_exp/static/images/task_images/gems/64.jpg,null,,,,,,,52,,,7,,,,,64,0.816510019,0.8125,,,,,,,
decision,148,515925,0.0-45.0-2.0,"""event"",""trial"",""time""
""blur"",""1"",""8985""
""focus"",""1"",""10731""
""fullscreenenter"",""1"",""10874""
","""event"",""trial"",""time""
""blur"",""1"",""8985""
","""event"",""trial"",""time""
""focus"",""1"",""10731""
","""event"",""trial"",""time""
""fullscreenenter"",""1"",""10874""
","
",,136.4,run_exp/static/images/task_images/land.jpg,65,,,,,,,52,,,7,,,,,,,,184564,1,3,FALSE,,,
dig,149,518811,0.0-46.0-0.0,"""event"",""trial"",""time""
""blur"",""1"",""8985""
""focus"",""1"",""10731""
""fullscreenenter"",""1"",""10874""
","""event"",""trial"",""time""
""blur"",""1"",""8985""
","""event"",""trial"",""time""
""focus"",""1"",""10731""
","""event"",""trial"",""time""
""fullscreenenter"",""1"",""10874""
","
",,,,,,,,,,,,"[{""stimulus"":""run_exp/static/images/task_images/dig.jpg"",""time"":0.699999988079071},{""stimulus"":""run_exp/static/images/task_images/land.jpg"",""time"":959.5},{""stimulus"":""run_exp/static/images/task_images/dig.jpg"",""time"":1914.0999999642372}]",[],7,,,,,,,,,,,,,,
harvest,150,519825,0.0-46.0-1.0,"""event"",""trial"",""time""
""blur"",""1"",""8985""
""focus"",""1"",""10731""
""fullscreenenter"",""1"",""10874""
","""event"",""trial"",""time""
""blur"",""1"",""8985""
","""event"",""trial"",""time""
""focus"",""1"",""10731""
","""event"",""trial"",""time""
""fullscreenenter"",""1"",""10874""
","
",,null,run_exp/static/images/task_images/gems/52.jpg,null,,,,,,,42,,,7,,,,,52,0.798414805,0.807692308,,,,,,,
decision,151,519910,0.0-46.0-2.0,"""event"",""trial"",""time""
""blur"",""1"",""8985""
""focus"",""1"",""10731""
""fullscreenenter"",""1"",""10874""
","""event"",""trial"",""time""
""blur"",""1"",""8985""
","""event"",""trial"",""time""
""focus"",""1"",""10731""
","""event"",""trial"",""time""
""fullscreenenter"",""1"",""10874""
","
",,82.39999998,run_exp/static/images/task_images/land.jpg,65,,,,,,,42,,,7,,,,,,,,188549,1,4,FALSE,,,
dig,152,522850,0.0-47.0-0.0,"""event"",""trial"",""time""
""blur"",""1"",""8985""
""focus"",""1"",""10731""
""fullscreenenter"",""1"",""10874""
","""event"",""trial"",""time""
""blur"",""1"",""8985""
","""event"",""trial"",""time""
""focus"",""1"",""10731""
","""event"",""trial"",""time""
""fullscreenenter"",""1"",""10874""
","
",,,,,,,,,,,,"[{""stimulus"":""run_exp/static/images/task_images/dig.jpg"",""time"":0.5},{""stimulus"":""run_exp/static/images/task_images/land.jpg"",""time"":978.3000000119209},{""stimulus"":""run_exp/static/images/task_images/dig.jpg"",""time"":1948.1000000238419}]",[],7,,,,,,,,,,,,,,
harvest,153,523868,0.0-47.0-1.0,"""event"",""trial"",""time""
""blur"",""1"",""8985""
""focus"",""1"",""10731""
""fullscreenenter"",""1"",""10874""
","""event"",""trial"",""time""
""blur"",""1"",""8985""
","""event"",""trial"",""time""
""focus"",""1"",""10731""
","""event"",""trial"",""time""
""fullscreenenter"",""1"",""10874""
","
",,null,run_exp/static/images/task_images/gems/42.jpg,null,,,,,,,36,,,7,,,,,42,0.861025115,0.857142857,,,,,,,
decision,154,524681,0.0-47.0-2.0,"""event"",""trial"",""time""
""blur"",""1"",""8985""
""focus"",""1"",""10731""
""fullscreenenter"",""1"",""10874""
","""event"",""trial"",""time""
""blur"",""1"",""8985""
","""event"",""trial"",""time""
""focus"",""1"",""10731""
","""event"",""trial"",""time""
""fullscreenenter"",""1"",""10874""
","
",,811.3,run_exp/static/images/task_images/land.jpg,76,,,,,,,36,,,7,,,,,,,,193321,1,5,TRUE,,,
travel,155,533877,0.0-48.0-0.0,"""event"",""trial"",""time""
""blur"",""1"",""8985""
""focus"",""1"",""10731""
""fullscreenenter"",""1"",""10874""
","""event"",""trial"",""time""
""blur"",""1"",""8985""
","""event"",""trial"",""time""
""focus"",""1"",""10731""
","""event"",""trial"",""time""
""fullscreenenter"",""1"",""10874""
","
",,,,,,,,,,,,"[{""stimulus"":""run_exp/static/images/task_images/rocket-01.jpg"",""time"":0.3999999761581421},{""stimulus"":""run_exp/static/images/task_images/rocket-02.jpg"",""time"":1034.199999988079},{""stimulus"":""run_exp/static/images/task_images/rocket-03.jpg"",""time"":2045.199999988079},{""stimulus"":""run_exp/static/images/task_images/rocket-04.jpg"",""time"":3075},{""stimulus"":""run_exp/static/images/task_images/rocket-05.jpg"",""time"":4086.800000011921},{""stimulus"":""run_exp/static/images/task_images/rocket-06.jpg"",""time"":5112},{""stimulus"":""run_exp/static/images/task_images/rocket-07.jpg"",""time"":6124},{""stimulus"":""run_exp/static/images/task_images/rocket-08.jpg"",""time"":7155.300000011921},{""stimulus"":""run_exp/static/images/task_images/rocket-09.jpg"",""time"":8172.399999976158}]",[],7,,,,,,,,,,,,,,
alien_welcome,156,538883,0.0-48.0-1.0,"""event"",""trial"",""time""
""blur"",""1"",""8985""
""focus"",""1"",""10731""
""fullscreenenter"",""1"",""10874""
","""event"",""trial"",""time""
""blur"",""1"",""8985""
","""event"",""trial"",""time""
""focus"",""1"",""10731""
","""event"",""trial"",""time""
""fullscreenenter"",""1"",""10874""
","
",,null,run_exp/static/images/task_images/aliens/old_aliens/planet/alien_planet-45.jpg,null,,,,,,,,,,,,,45,"59,5,12,27,74,26,3,45,77,39,73,17,28,14,31,56,69,49,46,9,48,78,66,19,16,43,13,58,35,4,33,11,15,42,20,76,34,62,10,41,40,36,7,8,30,1,6,32,44",,,,,,,,,,
land,157,539395,0.0-48.0-2.0,"""event"",""trial"",""time""
""blur"",""1"",""8985""
""focus"",""1"",""10731""
""fullscreenenter"",""1"",""10874""
","""event"",""trial"",""time""
""blur"",""1"",""8985""
","""event"",""trial"",""time""
""focus"",""1"",""10731""
","""event"",""trial"",""time""
""fullscreenenter"",""1"",""10874""
","
",,null,run_exp/static/images/task_images/land.jpg,null,,,,,,,89,,,8,,,,,,,,,,,,,,
dig,158,541407,0.0-48.0-3.0,"""event"",""trial"",""time""
""blur"",""1"",""8985""
""focus"",""1"",""10731""
""fullscreenenter"",""1"",""10874""
","""event"",""trial"",""time""
""blur"",""1"",""8985""
","""event"",""trial"",""time""
""focus"",""1"",""10731""
","""event"",""trial"",""time""
""fullscreenenter"",""1"",""10874""
","
",,,,,,,,,,,,"[{""stimulus"":""run_exp/static/images/task_images/dig.jpg"",""time"":0.3999999761581421},{""stimulus"":""run_exp/static/images/task_images/land.jpg"",""time"":670.2999999523163},{""stimulus"":""run_exp/static/images/task_images/dig.jpg"",""time"":1337.3999999761581}]",[],8,,,,,,,,,,,,,,
harvest,159,542422,0.0-48.0-4.0,"""event"",""trial"",""time""
""blur"",""1"",""8985""
""focus"",""1"",""10731""
""fullscreenenter"",""1"",""10874""
","""event"",""trial"",""time""
""blur"",""1"",""8985""
","""event"",""trial"",""time""
""focus"",""1"",""10731""
","""event"",""trial"",""time""
""fullscreenenter"",""1"",""10874""
","
",,null,run_exp/static/images/task_images/gems/89.jpg,null,,,,,,,76,,,8,,,,,89,0.855616174,0.853932584,,,,,,,
decision,160,542948,0.0-48.0-5.0,"""event"",""trial"",""time""
""blur"",""1"",""8985""
""focus"",""1"",""10731""
""fullscreenenter"",""1"",""10874""
","""event"",""trial"",""time""
""blur"",""1"",""8985""
","""event"",""trial"",""time""
""focus"",""1"",""10731""
","""event"",""trial"",""time""
""fullscreenenter"",""1"",""10874""
","
",,524.3,run_exp/static/images/task_images/land.jpg,65,,,,,,,76,,,8,,,,,,,,211587,1,0,FALSE,,,
dig,161,545435,0.0-49.0-0.0,"""event"",""trial"",""time""
""blur"",""1"",""8985""
""focus"",""1"",""10731""
""fullscreenenter"",""1"",""10874""
","""event"",""trial"",""time""
""blur"",""1"",""8985""
","""event"",""trial"",""time""
""focus"",""1"",""10731""
","""event"",""trial"",""time""
""fullscreenenter"",""1"",""10874""
","
",,,,,,,,,,,,"[{""stimulus"":""run_exp/static/images/task_images/dig.jpg"",""time"":0.40000003576278687},{""stimulus"":""run_exp/static/images/task_images/land.jpg"",""time"":840.5},{""stimulus"":""run_exp/static/images/task_images/dig.jpg"",""time"":1665.699999988079}]",[],8,,,,,,,,,,,,,,
harvest,162,546451,0.0-49.0-1.0,"""event"",""trial"",""time""
""blur"",""1"",""8985""
""focus"",""1"",""10731""
""fullscreenenter"",""1"",""10874""
","""event"",""trial"",""time""
""blur"",""1"",""8985""
","""event"",""trial"",""time""
""focus"",""1"",""10731""
","""event"",""trial"",""time""
""fullscreenenter"",""1"",""10874""
","
",,null,run_exp/static/images/task_images/gems/76.jpg,null,,,,,,,59,,,8,,,,,76,0.774806167,0.776315789,,,,,,,
decision,163,546689,0.0-49.0-2.0,"""event"",""trial"",""time""
""blur"",""1"",""8985""
""focus"",""1"",""10731""
""fullscreenenter"",""1"",""10874""
","""event"",""trial"",""time""
""blur"",""1"",""8985""
","""event"",""trial"",""time""
""focus"",""1"",""10731""
","""event"",""trial"",""time""
""fullscreenenter"",""1"",""10874""
","
",,235.1,run_exp/static/images/task_images/land.jpg,65,,,,,,,59,,,8,,,,,,,,215328,1,1,FALSE,,,
dig,164,549463,0.0-50.0-0.0,"""event"",""trial"",""time""
""blur"",""1"",""8985""
""focus"",""1"",""10731""
""fullscreenenter"",""1"",""10874""
","""event"",""trial"",""time""
""blur"",""1"",""8985""
","""event"",""trial"",""time""
""focus"",""1"",""10731""
","""event"",""trial"",""time""
""fullscreenenter"",""1"",""10874""
","
",,,,,,,,,,,,"[{""stimulus"":""run_exp/static/images/task_images/dig.jpg"",""time"":0.5},{""stimulus"":""run_exp/static/images/task_images/land.jpg"",""time"":923.8000000119209},{""stimulus"":""run_exp/static/images/task_images/dig.jpg"",""time"":1848.300000011921}]",[],8,,,,,,,,,,,,,,
harvest,165,550476,0.0-50.0-1.0,"""event"",""trial"",""time""
""blur"",""1"",""8985""
""focus"",""1"",""10731""
""fullscreenenter"",""1"",""10874""
","""event"",""trial"",""time""
""blur"",""1"",""8985""
","""event"",""trial"",""time""
""focus"",""1"",""10731""
","""event"",""trial"",""time""
""fullscreenenter"",""1"",""10874""
","
",,null,run_exp/static/images/task_images/gems/59.jpg,null,,,,,,,48,,,8,,,,,59,0.814227702,0.813559322,,,,,,,
decision,166,550692,0.0-50.0-2.0,"""event"",""trial"",""time""
""blur"",""1"",""8985""
""focus"",""1"",""10731""
""fullscreenenter"",""1"",""10874""
","""event"",""trial"",""time""
""blur"",""1"",""8985""
","""event"",""trial"",""time""
""focus"",""1"",""10731""
","""event"",""trial"",""time""
""fullscreenenter"",""1"",""10874""
","
",,213.5,run_exp/static/images/task_images/land.jpg,76,,,,,,,48,,,8,,,,,,,,219331,1,2,TRUE,,,
travel,167,560497,0.0-51.0-0.0,"""event"",""trial"",""time""
""blur"",""1"",""8985""
""focus"",""1"",""10731""
""fullscreenenter"",""1"",""10874""
","""event"",""trial"",""time""
""blur"",""1"",""8985""
","""event"",""trial"",""time""
""focus"",""1"",""10731""
","""event"",""trial"",""time""
""fullscreenenter"",""1"",""10874""
","
",,,,,,,,,,,,"[{""stimulus"":""run_exp/static/images/task_images/rocket-01.jpg"",""time"":0.5},{""stimulus"":""run_exp/static/images/task_images/rocket-02.jpg"",""time"":1102.199999988079},{""stimulus"":""run_exp/static/images/task_images/rocket-03.jpg"",""time"":2181.599999964237},{""stimulus"":""run_exp/static/images/task_images/rocket-04.jpg"",""time"":3271.300000011921},{""stimulus"":""run_exp/static/images/task_images/rocket-05.jpg"",""time"":4365.800000011921},{""stimulus"":""run_exp/static/images/task_images/rocket-06.jpg"",""time"":5445.300000011921},{""stimulus"":""run_exp/static/images/task_images/rocket-07.jpg"",""time"":6537.300000011921},{""stimulus"":""run_exp/static/images/task_images/rocket-08.jpg"",""time"":7615.099999964237},{""stimulus"":""run_exp/static/images/task_images/rocket-09.jpg"",""time"":8705.099999964237}]",[],8,,,,,,,,,,,,,,
alien_welcome,168,565501,0.0-51.0-1.0,"""event"",""trial"",""time""
""blur"",""1"",""8985""
""focus"",""1"",""10731""
""fullscreenenter"",""1"",""10874""
","""event"",""trial"",""time""
""blur"",""1"",""8985""
","""event"",""trial"",""time""
""focus"",""1"",""10731""
","""event"",""trial"",""time""
""fullscreenenter"",""1"",""10874""
","
",,null,run_exp/static/images/task_images/aliens/old_aliens/planet/alien_planet-77.jpg,null,,,,,,,,,,,,,77,"59,5,12,27,74,26,3,45,77,39,73,17,28,14,31,56,69,49,46,9,48,78,66,19,16,43,13,58,35,4,33,11,15,42,20,76,34,62,10,41,40,36,7,8,30,1,6,32,44",,,,,,,,,,
land,169,566019,0.0-51.0-2.0,"""event"",""trial"",""time""
""blur"",""1"",""8985""
""focus"",""1"",""10731""
""fullscreenenter"",""1"",""10874""
","""event"",""trial"",""time""
""blur"",""1"",""8985""
","""event"",""trial"",""time""
""focus"",""1"",""10731""
","""event"",""trial"",""time""
""fullscreenenter"",""1"",""10874""
","
",,null,run_exp/static/images/task_images/land.jpg,null,,,,,,,99,,,9,,,,,,,,,,,,,,
dig,170,568033,0.0-51.0-3.0,"""event"",""trial"",""time""
""blur"",""1"",""8985""
""focus"",""1"",""10731""
""fullscreenenter"",""1"",""10874""
","""event"",""trial"",""time""
""blur"",""1"",""8985""
","""event"",""trial"",""time""
""focus"",""1"",""10731""
","""event"",""trial"",""time""
""fullscreenenter"",""1"",""10874""
","
",,,,,,,,,,,,"[{""stimulus"":""run_exp/static/images/task_images/dig.jpg"",""time"":0.5},{""stimulus"":""run_exp/static/images/task_images/land.jpg"",""time"":683.8999999761581},{""stimulus"":""run_exp/static/images/task_images/dig.jpg"",""time"":1340.199999988079}]",[],9,,,,,,,,,,,,,,
harvest,171,569045,0.0-51.0-4.0,"""event"",""trial"",""time""
""blur"",""1"",""8985""
""focus"",""1"",""10731""
""fullscreenenter"",""1"",""10874""
","""event"",""trial"",""time""
""blur"",""1"",""8985""
","""event"",""trial"",""time""
""focus"",""1"",""10731""
","""event"",""trial"",""time""
""fullscreenenter"",""1"",""10874""
","
