trial_type,trial_index,time_elapsed,internal_node_id,success,rt,stimulus,key_press,prompt,subject_id,age,gender,button_pressed,next_reward,animation_sequence,responses,planet,curr_prac_trial,n_prac_rounds,alien,aliens,reward_received,decay_rate_actual,decay_rate_exp,time_in_block,block_num,prt,last_trial_on_planet,bonus,num_failures
pavlovia,0,4,0.0-0.0,,,,,,,,,,,,,,,,,,,,,,,,,,
fullscreen,1,5990,0.0-1.0,TRUE,,,,,,,,,,,,,,,,,,,,,,,,,
instruc_welcome,2,15717,0.0-2.0,,null,run_exp/static/audio/clip_1_welcome.m4a,null,"<p>Howdy! In this experiment, you’ll be an explorer traveling through space to collect space treasure.</p><p>Your mission is to collect as much treasure as possible.</p><br><br><p><img src='run_exp/static/images/task_images/opening_img-01.jpg' height='300' width='auto'></p>",XI4wRXgHe3P43mV_a5Ke5UddwllDBGZ_MLRP_1ziG8cfUqXOk19Q,10.74,female,,,,,,,,,,,,,,,,,,
audio-keyboard-response,3,32295,0.0-3.0,,null,run_exp/static/audio/clip_2_move.m4a,null,,,,,,,,,,,,,,,,,,,,,,
welcome_dec,4,33047,0.0-4.0,,749.38,"<p>Howdy! In this experiment, you’ll be an explorer traveling through space to collect space treasure.</p><p>Your mission is to collect as much treasure as possible.</p><br><br><p><img src='run_exp/static/images/task_images/opening_img-01.jpg' height='300' width='auto'></p>",,,,,,1,,,,,,,,,,,,,,,,,
html-keyboard-response,5,34242,0.0-5.0,,1193.195,"<p>Howdy! In this experiment, you’ll be an explorer traveling through space to collect space treasure.</p><p>Your mission is to collect as much treasure as possible.</p><br><br><p><img src='run_exp/static/images/task_images/opening_img-01.jpg' height='300' width='auto'></p><button class=""jspsych-html-btn-unchosen""><img src=""run_exp/static/images/task_images/planet-01.jpg"" height=""50""></button><button class=""jspsych-html-btn-chosen""><img src=""run_exp/static/images/task_images/planet-02.jpg"" height=""50""></button><p><b>[press the space bar to lock in your answer]<b><br></p>",32,,,,,,,,,,,,,,,,,,,,,,
instruc_goal,6,44299,0.0-6.0-0.0,,null,run_exp/static/audio/clip_3_goal.m4a,null,"<p> As a space explorer, you’ll visit different planets to dig for space treasure, these pink gems.</p> <p> The more treasure you dig up, the more bonus money you’ll win! </p><br><br><p><img src='run_exp/static/images/task_images/pink_gem.jpg' height='300' width='auto'></p>",,,,,,,,,,,,,,,,,,,,,
instruc_goal,7,45814,0.0-6.0-1.0,,1513.31,"<p> As a space explorer, you’ll visit different planets to dig for space treasure, these pink gems.</p> <p> The more treasure you dig up, the more bonus money you’ll win! </p><br><br><p><img src='run_exp/static/images/task_images/pink_gem.jpg' height='300' width='auto'></p>",,,,,,1,,,,,,,,,,,,,,,,,
html-keyboard-response,8,46571,0.0-6.0-2.0,,754.86,"<p> As a space explorer, you’ll visit different planets to dig for space treasure, these pink gems.</p> <p> The more treasure you dig up, the more bonus money you’ll win! </p><br><br><p><img src='run_exp/static/images/task_images/pink_gem.jpg' height='300' width='auto'></p><button class=""jspsych-html-btn-unchosen""><img src=""run_exp/static/images/task_images/planet-01.jpg"" height=""50""></button><button class=""jspsych-html-btn-chosen""><img src=""run_exp/static/images/task_images/planet-02.jpg"" height=""50""></button><p><b>[press the space bar to lock in your answer]<b><br></p>",32,,,,,,,,,,,,,,,,,,,,,,
instruc_dig,9,62596,0.0-7.0-0.0,,null,run_exp/static/audio/clip_4_dig.m4a,null,,,,,,100,,,,,,,,,,,,,,,,
instruc_dig_try,10,64710,0.0-7.0-1.0,,2112.875,"<p> When you’ve arrived at a new planet, you will dig once. </p> <p>Then, you get to decide if you want to stay on the planet and dig again or travel to a new planet and dig there.</p> <p> To stay and dig, press the letter <strong>‘A’</strong> on your keyboard. Try pressing it now! </p><p><img src='run_exp/static/images/task_images/land.jpg'  height='700' width='auto'></p>",65,"<p> When you’ve arrived at a new planet, you will dig once. </p> <p>Then, you get to decide if you want to stay on the planet and dig again or travel to a new planet and dig there.</p> <p> To stay and dig, press the letter <strong>‘A’</strong> on your keyboard. Try pressing it now! </p><p><img src='run_exp/static/images/task_images/land.jpg'  height='700' width='auto'></p>",,,,,100,,,,,,,,,,,,,,,,
dig_prac,11,66719,0.0-7.0-2.0,,,,,,,,,,,"[{""stimulus"":""run_exp/static/images/task_images/dig.jpg"",""time"":0.2900000035879202},{""stimulus"":""run_exp/static/images/task_images/land.jpg"",""time"":670.1749999992899},{""stimulus"":""run_exp/static/images/task_images/dig.jpg"",""time"":1340.4349999982514}]",[],,,,,,,,,,,,,,
instruc_travel,12,102928,0.0-7.0-3.0,,null,run_exp/static/audio/clip_5_travel.m4a,null,"<p>Every time you dig up gems, there are less gems on the planet, so the more you dig on a planet the fewer gems you’ll get with each dig.</p><p>When gems are running low, you may want to travel to a new planet. </p> <p>  Planets are very far apart in this galaxy, so it will take some time to travel between them. </p> <br><p>There are lots and lots of planets for you to visit, so you won’t be able to return to any planets you’ve seen before. </p><br><p>To leave this planet and travel to a new one, press the letter <strong>‘L’</strong> on your keyboard. Try pressing it now! </p><p><img src='run_exp/static/images/task_images/rocket-01.jpg'  height='600' width='auto'></p>",,,,,,,,,,,,,,,,,,,,,
instruc_travel_try,13,103086,0.0-7.0-4.0,,156.725,"<p>Every time you dig up gems, there are less gems on the planet, so the more you dig on a planet the fewer gems you’ll get with each dig.</p><p>When gems are running low, you may want to travel to a new planet. </p> <p>  Planets are very far apart in this galaxy, so it will take some time to travel between them. </p> <br><p>There are lots and lots of planets for you to visit, so you won’t be able to return to any planets you’ve seen before. </p><br><p>To leave this planet and travel to a new one, press the letter <strong>‘L’</strong> on your keyboard. Try pressing it now! </p><p><img src='run_exp/static/images/task_images/rocket-01.jpg'  height='600' width='auto'></p>",76,"<p>Every time you dig up gems, there are less gems on the planet, so the more you dig on a planet the fewer gems you’ll get with each dig.</p><p>When gems are running low, you may want to travel to a new planet. </p> <p>  Planets are very far apart in this galaxy, so it will take some time to travel between them. </p> <br><p>There are lots and lots of planets for you to visit, so you won’t be able to return to any planets you’ve seen before. </p><br><p>To leave this planet and travel to a new one, press the letter <strong>‘L’</strong> on your keyboard. Try pressing it now! </p><p><img src='run_exp/static/images/task_images/rocket-01.jpg'  height='600' width='auto'></p>",,,,,,,,,,,,,,,,,,,,,
travel_prac,14,113092,0.0-7.0-5.0,,,,,,,,,,,"[{""stimulus"":""run_exp/static/images/task_images/rocket-01.jpg"",""time"":0.2549999990151264},{""stimulus"":""run_exp/static/images/task_images/rocket-02.jpg"",""time"":1112.5150000007125},{""stimulus"":""run_exp/static/images/task_images/rocket-03.jpg"",""time"":2224.900000001071},{""stimulus"":""run_exp/static/images/task_images/rocket-04.jpg"",""time"":3337.760000002163},{""stimulus"":""run_exp/static/images/task_images/rocket-05.jpg"",""time"":4446.835000002466},{""stimulus"":""run_exp/static/images/task_images/rocket-06.jpg"",""time"":5561.535000000731},{""stimulus"":""run_exp/static/images/task_images/rocket-07.jpg"",""time"":6667.41500000353},{""stimulus"":""run_exp/static/images/task_images/rocket-08.jpg"",""time"":7781.705000001239},{""stimulus"":""run_exp/static/images/task_images/rocket-09.jpg"",""time"":8894.26000000094}]",[],0,,,,,,,,,,,,,
instruc_alien_greet,15,140287,0.0-7.0-6.0,,null,run_exp/static/audio/clip_6_alien.m4a,null,"<p>When you arrive at a new planet, the alien who owns the treasure mine on that planet will greet you!</p><p>The better an alien takes care of their mine the easier it is to dig for gems. Some aliens take better care of their mine than others. So, you won’t get exactly the same amount of gems on each planet.</p><p>What the alien looks like does not tell you anything about how many gems there are on the planet.</p><br><p><img src=""run_exp/static/images/task_images/aliens/instructions_aliens/planet/alien_planet-1.jpg""  height=""600"" width=""auto""></p>",,,,,,,,,,,,,,,,,,,,,
instruc_alien_greet,16,143500,0.0-7.0-7.0,,3210.94,"<p>When you arrive at a new planet, the alien who owns the treasure mine on that planet will greet you!</p><p>The better an alien takes care of their mine the easier it is to dig for gems. Some aliens take better care of their mine than others. So, you won’t get exactly the same amount of gems on each planet.</p><p>What the alien looks like does not tell you anything about how many gems there are on the planet.</p><br><p><img src=""run_exp/static/images/task_images/aliens/instructions_aliens/planet/alien_planet-1.jpg""  height=""600"" width=""auto""></p>",,,,,,1,,,,,,,,,,,,,,,,,
html-keyboard-response,17,144184,0.0-7.0-8.0,,682.94,"<p>When you arrive at a new planet, the alien who owns the treasure mine on that planet will greet you!</p><p>The better an alien takes care of their mine the easier it is to dig for gems. Some aliens take better care of their mine than others. So, you won’t get exactly the same amount of gems on each planet.</p><p>What the alien looks like does not tell you anything about how many gems there are on the planet.</p><br><p><img src=""run_exp/static/images/task_images/aliens/instructions_aliens/planet/alien_planet-1.jpg""  height=""600"" width=""auto""></p><button class=""jspsych-html-btn-unchosen""><img src=""run_exp/static/images/task_images/planet-01.jpg"" height=""50""></button><button class=""jspsych-html-btn-chosen""><img src=""run_exp/static/images/task_images/planet-02.jpg"" height=""50""></button><p><b>[press the space bar to lock in your answer]<b><br></p>",32,,,,,,,,,,,,,,,,,,,,,,
time_out,18,155264,0.0-8.0-0.0,,null,run_exp/static/audio/clip_7_timeout.m4a,null,"<p>If you don't make your choice fast enough, you’ll have to wait a few seconds before you can make another one.</p><p>You can’t dig for more gems or travel to new planets. You just have to sit and wait.</p><br><p><img src='run_exp/static/images/task_images/time_out.jpg'  height='600' width='auto'></p>",,,,,,,,,,,,,,,,,,,,,
time_out,19,160164,0.0-8.0-1.0,,4898.665,"<p>If you don't make your choice fast enough, you’ll have to wait a few seconds before you can make another one.</p><p>You can’t dig for more gems or travel to new planets. You just have to sit and wait.</p><br><p><img src='run_exp/static/images/task_images/time_out.jpg'  height='600' width='auto'></p>",,,,,,1,,,,,,,,,,,,,,,,,
html-keyboard-response,20,160339,0.0-8.0-2.0,,174.035,"<p>If you don't make your choice fast enough, you’ll have to wait a few seconds before you can make another one.</p><p>You can’t dig for more gems or travel to new planets. You just have to sit and wait.</p><br><p><img src='run_exp/static/images/task_images/time_out.jpg'  height='600' width='auto'></p><button class=""jspsych-html-btn-unchosen""><img src=""run_exp/static/images/task_images/planet-01.jpg"" height=""50""></button><button class=""jspsych-html-btn-chosen""><img src=""run_exp/static/images/task_images/planet-02.jpg"" height=""50""></button><p><b>[press the space bar to lock in your answer]<b><br></p>",32,,,,,,,,,,,,,,,,,,,,,,
instruc_break,21,175998,0.0-9.0-0.0,,null,run_exp/static/audio/clip_8_break.m4a,null,"<p> After digging and traveling for a while, you’ll be able to take a break at home base. </p><p>The game will last 20 minutes no matter what.</p><p>You will visit home base every 5 minutes, so, you will visit home base three times during the game.</p><br><p><img src='run_exp/static/images/task_images/home_base.jpg' height='600' width='auto'></p>",,,,,,,,,,,,,,,,,,,,,
instruc_break,22,178877,0.0-9.0-1.0,,2876.515,"<p> After digging and traveling for a while, you’ll be able to take a break at home base. </p><p>The game will last 20 minutes no matter what.</p><p>You will visit home base every 5 minutes, so, you will visit home base three times during the game.</p><br><p><img src='run_exp/static/images/task_images/home_base.jpg' height='600' width='auto'></p>",,,,,,1,,,,,,,,,,,,,,,,,
html-keyboard-response,23,179009,0.0-9.0-2.0,,131.17,"<p> After digging and traveling for a while, you’ll be able to take a break at home base. </p><p>The game will last 20 minutes no matter what.</p><p>You will visit home base every 5 minutes, so, you will visit home base three times during the game.</p><br><p><img src='run_exp/static/images/task_images/home_base.jpg' height='600' width='auto'></p><button class=""jspsych-html-btn-unchosen""><img src=""run_exp/static/images/task_images/planet-01.jpg"" height=""50""></button><button class=""jspsych-html-btn-chosen""><img src=""run_exp/static/images/task_images/planet-02.jpg"" height=""50""></button><p><b>[press the space bar to lock in your answer]<b><br></p>",32,,,,,,,,,,,,,,,,,,,,,,
instruc_prac_game,24,189140,0.0-10.0-0.0,,null,run_exp/static/audio/clip_9_practice.m4a,null,"<p> Are you ready to play a practice game? </p> <p>In this practice game, you'll be digging up barrels of gems. But, in the real game, you'll be digging up the gems themselves. </p>",,,,,,,,,,,,,,,,,,,,,
html-button-response,25,193165,0.0-10.0-1.0,,4024.04,"<p> Are you ready to play a practice game? </p> <p>In this practice game, you'll be digging up barrels of gems. But, in the real game, you'll be digging up the gems themselves. </p>",,,,,,0,,,,,,,,,,,,,,,,,
alien_welcome_prac,26,198168,0.0-11.0-0.0,,null,run_exp/static/images/task_images/aliens/practice_aliens/planet/alien_planet-5.jpg,null,,,,,,,,,,,,,,,,,,,,,,
land_prac,27,198673,0.0-11.0-1.0,,null,run_exp/static/images/task_images/land.jpg,null,,,,,,105,,,0,,,,,,,,,,,,,
dig_prac,28,200680,0.0-11.0-2.0,,,,,,,,,,,"[{""stimulus"":""run_exp/static/images/task_images/dig.jpg"",""time"":0.22000000171829015},{""stimulus"":""run_exp/static/images/task_images/land.jpg"",""time"":673.4400000059395},{""stimulus"":""run_exp/static/images/task_images/dig.jpg"",""time"":1338.385000002745}]",[],,,,,,,,,,,,,,
harvest_prac,29,201681,0.0-11.0-3.0,,null,run_exp/static/images/task_images/barrel_text.jpg,null,,,,,,,,,,,,,,,,,,,,,,
decision_prac,30,201725,0.0-11.0-4.0,,42.175,run_exp/static/images/task_images/land.jpg,65,,,,,,,,,,1,,,,,,,,,,,,
dig_prac,31,203732,0.0-12.0-0.0,,,,,,,,,,,"[{""stimulus"":""run_exp/static/images/task_images/dig.jpg"",""time"":0.13500000204658136},{""stimulus"":""run_exp/static/images/task_images/land.jpg"",""time"":670.6500000000233},{""stimulus"":""run_exp/static/images/task_images/dig.jpg"",""time"":1336.3650000028429}]",[],,,,,,,,,,,,,,
harvest_prac,32,204738,0.0-12.0-1.0,,null,run_exp/static/images/task_images/barrel_text.jpg,null,,,,,,,,,,,,,,,,,,,,,,
decision_prac,33,205391,0.0-12.0-2.0,,651.975,run_exp/static/images/task_images/land.jpg,65,,,,,,,,,,2,,,,,,,,,,,,
dig_prac,34,207401,0.0-13.0-0.0,,,,,,,,,,,"[{""stimulus"":""run_exp/static/images/task_images/dig.jpg"",""time"":0.14999999984866008},{""stimulus"":""run_exp/static/images/task_images/land.jpg"",""time"":673.0549999992945},{""stimulus"":""run_exp/static/images/task_images/dig.jpg"",""time"":1336.1000000004424}]",[],,,,,,,,,,,,,,
harvest_prac,35,208407,0.0-13.0-1.0,,null,run_exp/static/images/task_images/barrel_text.jpg,null,,,,,,,,,,,,,,,,,,,,,,
decision_prac,36,208637,0.0-13.0-2.0,,229.495,run_exp/static/images/task_images/land.jpg,65,,,,,,,,,,3,,,,,,,,,,,,
dig_prac,37,210646,0.0-14.0-0.0,,,,,,,,,,,"[{""stimulus"":""run_exp/static/images/task_images/dig.jpg"",""time"":0.13000000035390258},{""stimulus"":""run_exp/static/images/task_images/land.jpg"",""time"":673.1949999957578},{""stimulus"":""run_exp/static/images/task_images/dig.jpg"",""time"":1340.1899999953457}]",[],,,,,,,,,,,,,,
harvest_prac,38,211653,0.0-14.0-1.0,,null,run_exp/static/images/task_images/barrel_text.jpg,null,,,,,,,,,,,,,,,,,,,,,,
decision_prac,39,211671,0.0-14.0-2.0,,16.775,run_exp/static/images/task_images/land.jpg,65,,,,,,,,,,4,,,,,,,,,,,,
dig_prac,40,213679,0.0-15.0-0.0,,,,,,,,,,,"[{""stimulus"":""run_exp/static/images/task_images/dig.jpg"",""time"":0.16999999934341758},{""stimulus"":""run_exp/static/images/task_images/land.jpg"",""time"":672.8849999999511},{""stimulus"":""run_exp/static/images/task_images/dig.jpg"",""time"":1335.54500000173}]",[],,,,,,,,,,,,,,
harvest_prac,41,214681,0.0-15.0-1.0,,null,run_exp/static/images/task_images/barrel_text.jpg,null,,,,,,,,,,,,,,,,,,,,,,
decision_prac,42,214821,0.0-15.0-2.0,,138.66,run_exp/static/images/task_images/land.jpg,65,,,,,,,,,,,1,,,,,,,,,,,
quiz_instruc,43,218784,0.0-16.0-0.0,,3959.805,run_exp/static/audio/clip_10_quiz.m4a,,,,,,0,,,,,,,,,,,,,,,,,
instruc_repeat,44,261561,0.0-16.0-1.0,,null,"<p> Are you ready to play a practice game? </p> <p>In this practice game, you'll be digging up barrels of gems. But, in the real game, you'll be digging up the gems themselves. </p>",null,"<p>In this game, your goal is to collect as many gems as you can. That’s how you will win bonus money. </p> <p>The entire game will last 20 minutes no matter how many gems you collect or how many planets you visit. </p><p>To stay on a planet and dig again, press the letter A on your keyboard. To leave for a new planet, press the letter L.</p><p>The more you dig on a planet, the fewer gems you’ll get with each dig which is why you might consider leaving for a new planet. </p><p>When you arrive at a new planet, you’ll be greeted by an alien. What the alien looks like does not tell you anything about how much treasure is on the planet. </p>",,,,,,,,,,,,,,,,,,,,,
instruc_repeat_continue,45,263476,0.0-16.0-2.0,,1914,"<p> Are you ready to play a practice game? </p> <p>In this practice game, you'll be digging up barrels of gems. But, in the real game, you'll be digging up the gems themselves. </p>",,,,,,0,,,,,,,,,,,,,,,,,
quiz_q_1_ask,46,266060,0.0-16.0-3.0,,2581.815,run_exp/static/audio/clip_11_q1_ask.m4a,,,,,,2,,,,,,,,,,,,,,,,,
quiz_q_1_fb_correct,47,269920,0.0-17.0-0.0,,null,run_exp/static/audio/clip_12_q1_corrrect.m4a,null,<p>That’s correct. You win extra money by collecting more gems.</p>,,,,,,,,,,,,,,,,,,,,,
quiz_q_2_ask,48,273439,0.0-17.0-1.0,,3517.47,run_exp/static/audio/clip_14_q2_ask.m4a,,,,,,1,,,,,,,,,,,,,,,,,
quiz_q_2_fb_correct,49,277420,0.0-18.0-0.0,,null,run_exp/static/audio/clip_15_q2_correct.m4a,null,<p>That’s correct. The experiment is 20 minutes no matter what.</p>,,,,,,,,,,,,,,,,,,,,,
quiz_q_3_ask,50,281204,0.0-18.0-1.0,,3782.98,run_exp/static/audio/clip_17_q3_ask.m4a,,,,,,1,,,,,,,,,,,,,,,,,
quiz_q_3_fb_correct,51,285175,0.0-19.0-0.0,,null,run_exp/static/audio/clip_18_q3_correct.m4a,null,<p> That’s correct. You press the letter L to travel to a new planet.</p>,,,,,,,,,,,,,,,,,,,,,
quiz_q_4_ask,52,289679,0.0-19.0-1.0,,4502.49,run_exp/static/audio/clip_20_q4_ask.m4a,,,,,,0,,,,,,,,,,,,,,,,,
quiz_q_4_fb_correct,53,294997,0.0-20.0-0.0,,null,run_exp/static/audio/clip_21_q4_correct.m4a,null,<p> That’s correct. The more you dig on a planet the fewer gems you’ll get with each dig. </p>,,,,,,,,,,,,,,,,,,,,,
quiz_q_5_ask,54,298900,0.0-20.0-1.0,,3901.485,run_exp/static/audio/clip_23_q5_ask.m4a,,,,,,1,,,,,,,,,,,,,,,,,
quiz_q_5_fb_correct,55,303890,0.0-21.0-0.0,,null,run_exp/static/audio/clip_24_q5_correct.m4a,null,<p> That’s correct. The alien tells you nothing about how much treasure is on the planet.</p>,,,,,,,,,,,,,,,,,,,,,
quiz_correct,56,307351,0.0-22.0-0.0,,null,run_exp/static/audio/clip_26_correct_quiz.m4a,null,,,,,,,,,,,,,,,,,,,,,,
quiz_correct_continue,57,309500,0.0-22.0-1.0,,2148.455,<p>Good job! You're now ready to move on to the real game!</p>,,,,,,0,,,,,,,,,,,,,,,,,
audio-keyboard-response,58,319609,0.0-22.0-2.0,,null,run_exp/static/audio/clip_28_real_game.m4a,null,,,,,,,,,,,,,,,,,,,,,,
instruc_begin_exp_contine,59,320795,0.0-22.0-3.0,,1184.195,"<p>Now that you know how  to dig for space treasure and travel to new planets,you can start exploring! </p><p>Do you want to go over the instructions again or get started with the real game?</p>",,,,,,1,,,,,,1,,,,,,,,,,,
alien_welcome,60,325801,0.0-23.0-0.0,,null,run_exp/static/images/task_images/aliens/old_aliens/planet/alien_planet-29.jpg,null,,,,,,,,,,,,29,"29,28,52,8,62,22,67,78,64,10,46,77,31,13,4,12,35,63,72,65,80,33,3,25,38,70,73,21,59,40,74,27,14,2,43,71,75,15,32,16,66,30,44,34,79,48,51,1,26,61,20",,,,,,,,,
land,61,326307,0.0-23.0-1.0,,null,run_exp/static/images/task_images/land.jpg,null,,,,,,98,,,1,,,,,,,,,,,,,
dig,62,328313,0.0-23.0-2.0,,,,,,,,,,,"[{""stimulus"":""run_exp/static/images/task_images/dig.jpg"",""time"":0.22000000171829015},{""stimulus"":""run_exp/static/images/task_images/land.jpg"",""time"":673.3550000062678},{""stimulus"":""run_exp/static/images/task_images/dig.jpg"",""time"":1339.4600000028731}]",[],1,,,,,,,,,,,,,
harvest,63,329314,0.0-23.0-3.0,,null,run_exp/static/images/task_images/gems/98.jpg,null,,,,,,26,,,1,,,,,98,0.267769854,0.265306122,,,,,,
decision,64,329833,0.0-23.0-4.0,,516.365,run_exp/static/images/task_images/land.jpg,65,,,,,,26,,,1,,,,,,,,9036,1,0,FALSE,,
dig,65,332323,0.0-24.0-0.0,,,,,,,,,,,"[{""stimulus"":""run_exp/static/images/task_images/dig.jpg"",""time"":0.14999999984866008},{""stimulus"":""run_exp/static/images/task_images/land.jpg"",""time"":830.6500000035157},{""stimulus"":""run_exp/static/images/task_images/dig.jpg"",""time"":1655.2750000046217}]",[],1,,,,,,,,,,,,,
harvest,66,333326,0.0-24.0-1.0,,null,run_exp/static/images/task_images/gems/26.jpg,null,,,,,,5,,,1,,,,,26,0.179060752,0.192307692,,,,,,
decision,67,333662,0.0-24.0-2.0,,335.39,run_exp/static/images/task_images/land.jpg,65,,,,,,5,,,1,,,,,,,,12865,1,1,FALSE,,
dig,68,336332,0.0-25.0-0.0,,,,,,,,,,,"[{""stimulus"":""run_exp/static/images/task_images/dig.jpg"",""time"":0.1449999981559813},{""stimulus"":""run_exp/static/images/task_images/land.jpg"",""time"":894.1799999956856},{""stimulus"":""run_exp/static/images/task_images/dig.jpg"",""time"":1779.9049999957788}]",[],1,,,,,,,,,,,,,
harvest,69,337339,0.0-25.0-1.0,,null,run_exp/static/images/task_images/gems/5.jpg,null,,,,,,1,,,1,,,,,5,0.175561582,0.2,,,,,,
decision,70,337552,0.0-25.0-2.0,,211.89,run_exp/static/images/task_images/land.jpg,65,,,,,,1,,,1,,,,,,,,16755,1,2,FALSE,,
dig,71,340343,0.0-26.0-0.0,,,,,,,,,,,"[{""stimulus"":""run_exp/static/images/task_images/dig.jpg"",""time"":0.1849999971454963},{""stimulus"":""run_exp/static/images/task_images/land.jpg"",""time"":931.2549999958719},{""stimulus"":""run_exp/static/images/task_images/dig.jpg"",""time"":1860.0700000024517}]",[],1,,,,,,,,,,,,,
harvest,72,341348,0.0-26.0-1.0,,null,run_exp/static/images/task_images/gems/1.jpg,null,,,,,,0,,,1,,,,,1,0.169016732,0,,,,,,
decision,73,342614,0.0-26.0-2.0,,1265.565,run_exp/static/images/task_images/land.jpg,76,,,,,,0,,,1,,,,,,,,21817,1,3,TRUE,,
travel,74,351351,0.0-27.0-0.0,,,,,,,,,,,"[{""stimulus"":""run_exp/static/images/task_images/rocket-01.jpg"",""time"":0.1449999981559813},{""stimulus"":""run_exp/static/images/task_images/rocket-02.jpg"",""time"":971.2349999972503},{""stimulus"":""run_exp/static/images/task_images/rocket-03.jpg"",""time"":1946.1949999968056},{""stimulus"":""run_exp/static/images/task_images/rocket-04.jpg"",""time"":2916.2499999947613},{""stimulus"":""run_exp/static/images/task_images/rocket-05.jpg"",""time"":3886.179999994056},{""stimulus"":""run_exp/static/images/task_images/rocket-06.jpg"",""time"":4853.234999995038},{""stimulus"":""run_exp/static/images/task_images/rocket-07.jpg"",""time"":5826.179999996384},{""stimulus"":""run_exp/static/images/task_images/rocket-08.jpg"",""time"":6795.239999999467},{""stimulus"":""run_exp/static/images/task_images/rocket-09.jpg"",""time"":7763.879999998608}]",[],1,,,,,,,,,,,,,
alien_welcome,75,356358,0.0-27.0-1.0,,null,run_exp/static/images/task_images/aliens/old_aliens/planet/alien_planet-28.jpg,null,,,,,,,,,,,,28,"29,28,52,8,62,22,67,78,64,10,46,77,31,13,4,12,35,63,72,65,80,33,3,25,38,70,73,21,59,40,74,27,14,2,43,71,75,15,32,16,66,30,44,34,79,48,51,1,26,61,20",,,,,,,,,
land,76,356863,0.0-27.0-2.0,,null,run_exp/static/images/task_images/land.jpg,null,,,,,,99,,,2,,,,,,,,,,,,,
dig,77,358871,0.0-27.0-3.0,,,,,,,,,,,"[{""stimulus"":""run_exp/static/images/task_images/dig.jpg"",""time"":0.23499999952036887},{""stimulus"":""run_exp/static/images/task_images/land.jpg"",""time"":672.630000000936},{""stimulus"":""run_exp/static/images/task_images/dig.jpg"",""time"":1339.445000005071}]",[],2,,,,,,,,,,,,,
harvest,78,359877,0.0-27.0-4.0,,null,run_exp/static/images/task_images/gems/99.jpg,null,,,,,,29,,,2,,,,,99,0.293256995,0.292929293,,,,,,
decision,79,360265,0.0-27.0-5.0,,386.66,run_exp/static/images/task_images/land.jpg,65,,,,,,29,,,2,,,,,,,,39470,1,0,FALSE,,
dig,80,362887,0.0-28.0-0.0,,,,,,,,,,,"[{""stimulus"":""run_exp/static/images/task_images/dig.jpg"",""time"":0.1649999976507388},{""stimulus"":""run_exp/static/images/task_images/land.jpg"",""time"":872.7300000027753},{""stimulus"":""run_exp/static/images/task_images/dig.jpg"",""time"":1748.2049999962328}]",[],2,,,,,,,,,,,,,
harvest,81,363889,0.0-28.0-1.0,,null,run_exp/static/images/task_images/gems/29.jpg,null,,,,,,4,,,2,,,,,29,0.142491681,0.137931034,,,,,,
decision,82,365025,0.0-28.0-2.0,,1135.05,run_exp/static/images/task_images/land.jpg,65,,,,,,4,,,2,,,,,,,,44228,1,1,FALSE,,
dig,83,366896,0.0-29.0-0.0,,,,,,,,,,,"[{""stimulus"":""run_exp/static/images/task_images/dig.jpg"",""time"":0.13000000035390258},{""stimulus"":""run_exp/static/images/task_images/land.jpg"",""time"":624.7999999977765},{""stimulus"":""run_exp/static/images/task_images/dig.jpg"",""time"":1248.249999996915}]",[],2,,,,,,,,,,,,,
harvest,84,367902,0.0-29.0-1.0,,null,run_exp/static/images/task_images/gems/4.jpg,null,,,,,,0,,,2,,,,,4,0.123382915,0,,,,,,
decision,85,368626,0.0-29.0-2.0,,722.405,run_exp/static/images/task_images/land.jpg,65,,,,,,0,,,2,,,,,,,,47829,1,2,FALSE,,
dig,86,370909,0.0-30.0-0.0,,,,,,,,,,,"[{""stimulus"":""run_exp/static/images/task_images/dig.jpg"",""time"":0.1249999986612238},{""stimulus"":""run_exp/static/images/task_images/land.jpg"",""time"":760.5649999968591},{""stimulus"":""run_exp/static/images/task_images/dig.jpg"",""time"":1520.6899999975576}]",[],2,,,,,,,,,,,,,
harvest,87,371914,0.0-30.0-1.0,,null,run_exp/static/images/task_images/gems/0.jpg,null,,,,,,0,,,2,,,,,0,0.308823735,NaN,,,,,,
decision,88,372500,0.0-30.0-2.0,,584.455,run_exp/static/images/task_images/land.jpg,65,,,,,,0,,,2,,,,,,,,51703,1,3,FALSE,,
dig,89,374919,0.0-31.0-0.0,,,,,,,,,,,"[{""stimulus"":""run_exp/static/images/task_images/dig.jpg"",""time"":0.13500000204658136},{""stimulus"":""run_exp/static/images/task_images/land.jpg"",""time"":810.6299999999464},{""stimulus"":""run_exp/static/images/task_images/dig.jpg"",""time"":1616.2049999984447}]",[],2,,,,,,,,,,,,,
harvest,90,375922,0.0-31.0-1.0,,null,run_exp/static/images/task_images/gems/0.jpg,null,,,,,,0,,,2,,,,,0,0.207420948,NaN,,,,,,
decision,91,376493,0.0-31.0-2.0,,570.43,run_exp/static/images/task_images/land.jpg,76,,,,,,0,,,2,,,,,,,,55697,1,4,TRUE,,
travel,92,385923,0.0-32.0-0.0,,,,,,,,,,,"[{""stimulus"":""run_exp/static/images/task_images/rocket-01.jpg"",""time"":0.15500000154133886},{""stimulus"":""run_exp/static/images/task_images/rocket-02.jpg"",""time"":1053.2549999988987},{""stimulus"":""run_exp/static/images/task_images/rocket-03.jpg"",""time"":2100.395000001299},{""stimulus"":""run_exp/static/images/task_images/rocket-04.jpg"",""time"":3144.895000004908},{""stimulus"":""run_exp/static/images/task_images/rocket-05.jpg"",""time"":4193.655000002764},{""stimulus"":""run_exp/static/images/task_images/rocket-06.jpg"",""time"":5241.3200000009965},{""stimulus"":""run_exp/static/images/task_images/rocket-07.jpg"",""time"":6284.460000002582},{""stimulus"":""run_exp/static/images/task_images/rocket-08.jpg"",""time"":7330.034999999043},{""stimulus"":""run_exp/static/images/task_images/rocket-09.jpg"",""time"":8381.554999999935}]",[],2,,,,,,,,,,,,,
alien_welcome,93,390928,0.0-32.0-1.0,,null,run_exp/static/images/task_images/aliens/old_aliens/planet/alien_planet-52.jpg,null,,,,,,,,,,,,52,"29,28,52,8,62,22,67,78,64,10,46,77,31,13,4,12,35,63,72,65,80,33,3,25,38,70,73,21,59,40,74,27,14,2,43,71,75,15,32,16,66,30,44,34,79,48,51,1,26,61,20",,,,,,,,,
land,94,391435,0.0-32.0-2.0,,null,run_exp/static/images/task_images/land.jpg,null,,,,,,96,,,3,,,,,,,,,,,,,
dig,95,393443,0.0-32.0-3.0,,,,,,,,,,,"[{""stimulus"":""run_exp/static/images/task_images/dig.jpg"",""time"":0.22499999613501132},{""stimulus"":""run_exp/static/images/task_images/land.jpg"",""time"":673.319999994419},{""stimulus"":""run_exp/static/images/task_images/dig.jpg"",""time"":1336.8499999996857}]",[],3,,,,,,,,,,,,,
harvest,96,394448,0.0-32.0-4.0,,null,run_exp/static/images/task_images/gems/96.jpg,null,,,,,,51,,,3,,,,,96,0.532187299,0.53125,,,,,,
decision,97,394900,0.0-32.0-5.0,,450.205,run_exp/static/images/task_images/land.jpg,65,,,,,,51,,,3,,,,,,,,74103,1,0,FALSE,,
dig,98,397453,0.0-33.0-0.0,,,,,,,,,,,"[{""stimulus"":""run_exp/static/images/task_images/dig.jpg"",""time"":0.13500000204658136},{""stimulus"":""run_exp/static/images/task_images/land.jpg"",""time"":850.6650000053924},{""stimulus"":""run_exp/static/images/task_images/dig.jpg"",""time"":1701.4300000009825}]",[],3,,,,,,,,,,,,,
harvest,99,398458,0.0-33.0-1.0,,null,run_exp/static/images/task_images/gems/51.jpg,null,,,,,,27,,,3,,,,,51,0.531937914,0.529411765,,,,,,
decision,100,398637,0.0-33.0-2.0,,177.275,run_exp/static/images/task_images/land.jpg,76,,,,,,27,,,3,,,,,,,,77840,1,1,TRUE,,
travel,101,408459,0.0-34.0-0.0,,,,,,,,,,,"[{""stimulus"":""run_exp/static/images/task_images/rocket-01.jpg"",""time"":0.13499999477062374},{""stimulus"":""run_exp/static/images/task_images/rocket-02.jpg"",""time"":1094.199999999546},{""stimulus"":""run_exp/static/images/task_images/rocket-03.jpg"",""time"":2183.279999997467},{""stimulus"":""run_exp/static/images/task_images/rocket-04.jpg"",""time"":3277.3999999990338},{""stimulus"":""run_exp/static/images/task_images/rocket-05.jpg"",""time"":4370.279999995546},{""stimulus"":""run_exp/static/images/task_images/rocket-06.jpg"",""time"":5461.169999995036},{""stimulus"":""run_exp/static/images/task_images/rocket-07.jpg"",""time"":6548.549999999523},{""stimulus"":""run_exp/static/images/task_images/rocket-08.jpg"",""time"":7643.199999998615},{""stimulus"":""run_exp/static/images/task_images/rocket-09.jpg"",""time"":8731.244999995397}]",[],3,,,,,,,,,,,,,
alien_welcome,102,413461,0.0-34.0-1.0,,null,run_exp/static/images/task_images/aliens/old_aliens/planet/alien_planet-8.jpg,null,,,,,,,,,,,,8,"29,28,52,8,62,22,67,78,64,10,46,77,31,13,4,12,35,63,72,65,80,33,3,25,38,70,73,21,59,40,74,27,14,2,43,71,75,15,32,16,66,30,44,34,79,48,51,1,26,61,20",,,,,,,,,
land,103,413967,0.0-34.0-2.0,,null,run_exp/static/images/task_images/land.jpg,null,,,,,,98,,,4,,,,,,,,,,,,,
dig,104,415973,0.0-34.0-3.0,,,,,,,,,,,"[{""stimulus"":""run_exp/static/images/task_images/dig.jpg"",""time"":0.23499999952036887},{""stimulus"":""run_exp/static/images/task_images/land.jpg"",""time"":673.464999999851},{""stimulus"":""run_exp/static/images/task_images/dig.jpg"",""time"":1340.3700000053504}]",[],4,,,,,,,,,,,,,
harvest,105,416979,0.0-34.0-4.0,,null,run_exp/static/images/task_images/gems/98.jpg,null,,,,,,48,,,4,,,,,98,0.490151542,0.489795918,,,,,,
decision,106,418082,0.0-34.0-5.0,,1101.98,run_exp/static/images/task_images/land.jpg,65,,,,,,48,,,4,,,,,,,,97285,1,0,FALSE,,
dig,107,419984,0.0-35.0-0.0,,,,,,,,,,,"[{""stimulus"":""run_exp/static/images/task_images/dig.jpg"",""time"":0.1449999981559813},{""stimulus"":""run_exp/static/images/task_images/land.jpg"",""time"":638.264999994135},{""stimulus"":""run_exp/static/images/task_images/dig.jpg"",""time"":1266.0199999954784}]",[],4,,,,,,,,,,,,,
harvest,108,420990,0.0-35.0-1.0,,null,run_exp/static/images/task_images/gems/48.jpg,null,,,,,,25,,,4,,,,,48,0.52979718,0.520833333,,,,,,
decision,109,422211,0.0-35.0-2.0,,1219.385,run_exp/static/images/task_images/land.jpg,65,,,,,,25,,,4,,,,,,,,101414,1,1,FALSE,,
dig,110,423997,0.0-36.0-0.0,,,,,,,,,,,"[{""stimulus"":""run_exp/static/images/task_images/dig.jpg"",""time"":0.15500000154133886},{""stimulus"":""run_exp/static/images/task_images/land.jpg"",""time"":596.9350000013947},{""stimulus"":""run_exp/static/images/task_images/dig.jpg"",""time"":1187.4950000055833}]",[],4,,,,,,,,,,,,,
harvest,111,425001,0.0-36.0-1.0,,null,run_exp/static/images/task_images/gems/25.jpg,null,,,,,,12,,,4,,,,,25,0.499084631,0.48,,,,,,
decision,112,425169,0.0-36.0-2.0,,167.065,run_exp/static/images/task_images/land.jpg,76,,,,,,12,,,4,,,,,,,,104372,1,2,TRUE,,
travel,113,435001,0.0-37.0-0.0,,,,,,,,,,,"[{""stimulus"":""run_exp/static/images/task_images/rocket-01.jpg"",""time"":0.13499999477062374},{""stimulus"":""run_exp/static/images/task_images/rocket-02.jpg"",""time"":1096.254999996745},{""stimulus"":""run_exp/static/images/task_images/rocket-03.jpg"",""time"":2190.179999997781},{""stimulus"":""run_exp/static/images/task_images/rocket-04.jpg"",""time"":3279.6499999967637},{""stimulus"":""run_exp/static/images/task_images/rocket-05.jpg"",""time"":4374.169999995502},{""stimulus"":""run_exp/static/images/task_images/rocket-06.jpg"",""time"":5466.169999999693},{""stimulus"":""run_exp/static/images/task_images/rocket-07.jpg"",""time"":6558.239999998477},{""stimulus"":""run_exp/static/images/task_images/rocket-08.jpg"",""time"":7644.84999999695},{""stimulus"":""run_exp/static/images/task_images/rocket-09.jpg"",""time"":8742.285000000265}]",[],4,,,,,,,,,,,,,
alien_welcome,114,440007,0.0-37.0-1.0,,null,run_exp/static/images/task_images/aliens/old_aliens/planet/alien_planet-62.jpg,null,,,,,,,,,,,,62,"29,28,52,8,62,22,67,78,64,10,46,77,31,13,4,12,35,63,72,65,80,33,3,25,38,70,73,21,59,40,74,27,14,2,43,71,75,15,32,16,66,30,44,34,79,48,51,1,26,61,20",,,,,,,,,
land,115,440512,0.0-37.0-2.0,,null,run_exp/static/images/task_images/land.jpg,null,,,,,,102,,,5,,,,,,,,,,,,,
dig,116,442521,0.0-37.0-3.0,,,,,,,,,,,"[{""stimulus"":""run_exp/static/images/task_images/dig.jpg"",""time"":0.2300000051036477},{""stimulus"":""run_exp/static/images/task_images/land.jpg"",""time"":672.0800000039162},{""stimulus"":""run_exp/static/images/task_images/dig.jpg"",""time"":1340.3250000046683}]",[],5,,,,,,,,,,,,,
harvest,117,443527,0.0-37.0-4.0,,null,run_exp/static/images/task_images/gems/102.jpg,null,,,,,,57,,,5,,,,,102,0.556060213,0.558823529,,,,,,
decision,118,444233,0.0-37.0-5.0,,704.87,run_exp/static/images/task_images/land.jpg,65,,,,,,57,,,5,,,,,,,,123436,1,0,FALSE,,
dig,119,446532,0.0-38.0-0.0,,,,,,,,,,,"[{""stimulus"":""run_exp/static/images/task_images/dig.jpg"",""time"":0.16000000323401764},{""stimulus"":""run_exp/static/images/task_images/land.jpg"",""time"":767.2699999966426},{""stimulus"":""run_exp/static/images/task_images/dig.jpg"",""time"":1534.7249999977066}]",[],5,,,,,,,,,,,,,
harvest,120,447538,0.0-38.0-1.0,,null,run_exp/static/images/task_images/gems/57.jpg,null,,,,,,24,,,5,,,,,57,0.420532766,0.421052632,,,,,,
decision,121,448509,0.0-38.0-2.0,,969.625,run_exp/static/images/task_images/land.jpg,65,,,,,,24,,,5,,,,,,,,127712,1,1,FALSE,,
dig,122,450542,0.0-39.0-0.0,,,,,,,,,,,"[{""stimulus"":""run_exp/static/images/task_images/dig.jpg"",""time"":0.13000000035390258},{""stimulus"":""run_exp/static/images/task_images/land.jpg"",""time"":682.0299999963026},{""stimulus"":""run_exp/static/images/task_images/dig.jpg"",""time"":1356.9449999995413}]",[],5,,,,,,,,,,,,,
harvest,123,451548,0.0-39.0-1.0,,null,run_exp/static/images/task_images/gems/24.jpg,null,,,,,,12,,,5,,,,,24,0.518688783,0.5,,,,,,
decision,124,452709,0.0-39.0-2.0,,1158.725,run_exp/static/images/task_images/land.jpg,76,,,,,,12,,,5,,,,,,,,131912,1,2,TRUE,,
travel,125,461551,0.0-40.0-0.0,,,,,,,,,,,"[{""stimulus"":""run_exp/static/images/task_images/rocket-01.jpg"",""time"":0.17500000103609636},{""stimulus"":""run_exp/static/images/task_images/rocket-02.jpg"",""time"":987.9650000002584},{""stimulus"":""run_exp/static/images/task_images/rocket-03.jpg"",""time"":1970.3200000003562},{""stimulus"":""run_exp/static/images/task_images/rocket-04.jpg"",""time"":2952.160000000731},{""stimulus"":""run_exp/static/images/task_images/rocket-05.jpg"",""time"":3934.2350000006263},{""stimulus"":""run_exp/static/images/task_images/rocket-06.jpg"",""time"":4912.21499999665},{""stimulus"":""run_exp/static/images/task_images/rocket-07.jpg"",""time"":5895.239999998012},{""stimulus"":""run_exp/static/images/task_images/rocket-08.jpg"",""time"":6875.919999998587},{""stimulus"":""run_exp/static/images/task_images/rocket-09.jpg"",""time"":7861.059999995632}]",[],5,,,,,,,,,,,,,
alien_welcome,126,466554,0.0-40.0-1.0,,null,run_exp/static/images/task_images/aliens/old_aliens/planet/alien_planet-22.jpg,null,,,,,,,,,,,,22,"29,28,52,8,62,22,67,78,64,10,46,77,31,13,4,12,35,63,72,65,80,33,3,25,38,70,73,21,59,40,74,27,14,2,43,71,75,15,32,16,66,30,44,34,79,48,51,1,26,61,20",,,,,,,,,
land,127,467057,0.0-40.0-2.0,,null,run_exp/static/images/task_images/land.jpg,null,,,,,,107,,,6,,,,,,,,,,,,,
dig,128,469066,0.0-40.0-3.0,,,,,,,,,,,"[{""stimulus"":""run_exp/static/images/task_images/dig.jpg"",""time"":0.24000000121304765},{""stimulus"":""run_exp/static/images/task_images/land.jpg"",""time"":672.484999995504},{""stimulus"":""run_exp/static/images/task_images/dig.jpg"",""time"":1336.1599999989267}]",[],6,,,,,,,,,,,,,
harvest,129,470072,0.0-40.0-4.0,,null,run_exp/static/images/task_images/gems/107.jpg,null,,,,,,88,,,6,,,,,107,0.824150447,0.822429907,,,,,,
decision,130,471715,0.0-40.0-5.0,,1641.41,run_exp/static/images/task_images/land.jpg,65,,,,,,88,,,6,,,,,,,,150918,1,0,FALSE,,
dig,131,473074,0.0-41.0-0.0,,,,,,,,,,,"[{""stimulus"":""run_exp/static/images/task_images/dig.jpg"",""time"":0.15500000154133886},{""stimulus"":""run_exp/static/images/task_images/land.jpg"",""time"":453.9149999982328},{""stimulus"":""run_exp/static/images/task_images/dig.jpg"",""time"":906.3600000008591}]",[],6,,,,,,,,,,,,,
harvest,132,474076,0.0-41.0-1.0,,null,run_exp/static/images/task_images/gems/88.jpg,null,,,,,,71,,,6,,,,,88,0.807400326,0.806818182,,,,,,
decision,133,476016,0.0-41.0-2.0,,1938.705,run_exp/static/images/task_images/land.jpg,65,,,,,,71,,,6,,,,,,,,155219,1,1,FALSE,,
dig,134,477082,0.0-42.0-0.0,,,,,,,,,,,"[{""stimulus"":""run_exp/static/images/task_images/dig.jpg"",""time"":0.13000000035390258},{""stimulus"":""run_exp/static/images/task_images/land.jpg"",""time"":355.2300000010291},{""stimulus"":""run_exp/static/images/task_images/dig.jpg"",""time"":712.1899999983725}]",[],6,,,,,,,,,,,,,
harvest,135,478088,0.0-42.0-1.0,,null,run_exp/static/images/task_images/gems/71.jpg,null,,,,,,62,,,6,,,,,71,0.877748417,0.873239437,,,,,,
decision,136,478856,0.0-42.0-2.0,,766.755,run_exp/static/images/task_images/land.jpg,65,,,,,,62,,,6,,,,,,,,158059,1,2,FALSE,,
dig,137,481097,0.0-43.0-0.0,,,,,,,,,,,"[{""stimulus"":""run_exp/static/images/task_images/dig.jpg"",""time"":0.13000000035390258},{""stimulus"":""run_exp/static/images/task_images/land.jpg"",""time"":746.2450000020908},{""stimulus"":""run_exp/static/images/task_images/dig.jpg"",""time"":1489.7150000033434}]",[],6,,,,,,,,,,,,,
harvest,138,482103,0.0-43.0-1.0,,null,run_exp/static/images/task_images/gems/62.jpg,null,,,,,,47,,,6,,,,,62,0.762176443,0.758064516,,,,,,
decision,139,484707,0.0-43.0-2.0,,2602.595,run_exp/static/images/task_images/land.jpg,65,,,,,,47,,,6,,,,,,,,163910,1,3,FALSE,,
dig,140,485107,0.0-44.0-0.0,,,,,,,,,,,"[{""stimulus"":""run_exp/static/images/task_images/dig.jpg"",""time"":0.22000000171829015},{""stimulus"":""run_exp/static/images/task_images/land.jpg"",""time"":136.00000000587897},{""stimulus"":""run_exp/static/images/task_images/dig.jpg"",""time"":266.34000000194646}]",[],6,,,,,,,,,,,,,
harvest,141,486114,0.0-44.0-1.0,,null,run_exp/static/images/task_images/gems/47.jpg,null,,,,,,37,,,6,,,,,47,0.780839347,0.787234043,,,,,,
decision,142,486501,0.0-44.0-2.0,,385.575,run_exp/static/images/task_images/land.jpg,65,,,,,,37,,,6,,,,,,,,165704,1,4,FALSE,,
dig,143,489117,0.0-45.0-0.0,,,,,,,,,,,"[{""stimulus"":""run_exp/static/images/task_images/dig.jpg"",""time"":0.13000000035390258},{""stimulus"":""run_exp/static/images/task_images/land.jpg"",""time"":874.7149999981048},{""stimulus"":""run_exp/static/images/task_images/dig.jpg"",""time"":1744.059999997262}]",[],6,,,,,,,,,,,,,
harvest,144,490121,0.0-45.0-1.0,,null,run_exp/static/images/task_images/gems/37.jpg,null,,,,,,30,,,6,,,,,37,0.81796469,0.810810811,,,,,,
decision,145,490154,0.0-45.0-2.0,,30.58999999,run_exp/static/images/task_images/land.jpg,65,,,,,,30,,,6,,,,,,,,169357,1,5,FALSE,,
dig,146,493125,0.0-46.0-0.0,,,,,,,,,,,"[{""stimulus"":""run_exp/static/images/task_images/dig.jpg"",""time"":0.13500000204658136},{""stimulus"":""run_exp/static/images/task_images/land.jpg"",""time"":994.5650000008754},{""stimulus"":""run_exp/static/images/task_images/dig.jpg"",""time"":1984.1250000026776}]",[],6,,,,,,,,,,,,,
harvest,147,494130,0.0-46.0-1.0,,null,run_exp/static/images/task_images/gems/30.jpg,null,,,,,,23,,,6,,,,,30,0.761866139,0.766666667,,,,,,
decision,148,495494,0.0-46.0-2.0,,1362.895,run_exp/static/images/task_images/land.jpg,65,,,,,,23,,,6,,,,,,,,174697,1,6,FALSE,,
dig,149,497136,0.0-47.0-0.0,,,,,,,,,,,"[{""stimulus"":""run_exp/static/images/task_images/dig.jpg"",""time"":0.13500000204658136},{""stimulus"":""run_exp/static/images/task_images/land.jpg"",""time"":551.2450000023819},{""stimulus"":""run_exp/static/images/task_images/dig.jpg"",""time"":1091.919999998936}]",[],6,,,,,,,,,,,,,
harvest,150,498141,0.0-47.0-1.0,,null,run_exp/static/images/task_images/gems/23.jpg,null,,,,,,16,,,6,,,,,23,0.683953326,0.695652174,,,,,,
decision,151,501147,0.0-47.0-2.0,,null,run_exp/static/images/task_images/land.jpg,null,,,,,,16,,,6,,,,,,,,180351,1,7,FALSE,,
time_out,152,503151,0.0-48.0-0.0,,null,run_exp/static/images/task_images/time_out.jpg,null,,,,,,16,,,,,,,,,,,,,,,,
decision,153,503249,0.0-48.0-1.0,,96.8,run_exp/static/images/task_images/land.jpg,76,,,,,,16,,,6,,,,,,,,182452,1,7,TRUE,,
travel,154,513153,0.0-49.0-0.0,,,,,,,,,,,"[{""stimulus"":""run_exp/static/images/task_images/rocket-01.jpg"",""time"":0.13500000204658136},{""stimulus"":""run_exp/static/images/task_images/rocket-02.jpg"",""time"":1106.1100000006263},{""stimulus"":""run_exp/static/images/task_images/rocket-03.jpg"",""time"":2203.9199999999255},{""stimulus"":""run_exp/static/images/task_images/rocket-04.jpg"",""time"":3306.1799999995856},{""stimulus"":""run_exp/static/images/task_images/rocket-05.jpg"",""time"":4406.255000001693},{""stimulus"":""run_exp/static/images/task_images/rocket-06.jpg"",""time"":5501.319999995758},{""stimulus"":""run_exp/static/images/task_images/rocket-07.jpg"",""time"":6606.195000000298},{""stimulus"":""run_exp/static/images/task_images/rocket-08.jpg"",""time"":7705.529999999271},{""stimulus"":""run_exp/static/images/task_images/rocket-09.jpg"",""time"":8801.455000000715}]",[],6,,,,,,,,,,,,,
alien_welcome,155,518155,0.0-49.0-1.0,,null,run_exp/static/images/task_images/aliens/old_aliens/planet/alien_planet-67.jpg,null,,,,,,,,,,,,67,"29,28,52,8,62,22,67,78,64,10,46,77,31,13,4,12,35,63,72,65,80,33,3,25,38,70,73,21,59,40,74,27,14,2,43,71,75,15,32,16,66,30,44,34,79,48,51,1,26,61,20",,,,,,,,,
land,156,518661,0.0-49.0-2.0,,null,run_exp/static/images/task_images/land.jpg,null,,,,,,95,,,7,,,,,,,,,,,,,
dig,157,520666,0.0-49.0-3.0,,,,,,,,,,,"[{""stimulus"":""run_exp/static/images/task_images/dig.jpg"",""time"":0.22499999613501132},{""stimulus"":""run_exp/static/images/task_images/land.jpg"",""time"":668.2650000002468},{""stimulus"":""run_exp/static/images/task_images/dig.jpg"",""time"":1339.4950000002282}]",[],7,,,,,,,,,,,,,
harvest,158,521669,0.0-49.0-4.0,,null,run_exp/static/images/task_images/gems/95.jpg,null,,,,,,68,,,7,,,,,95,0.715639245,0.715789474,,,,,,
decision,159,522371,0.0-49.0-5.0,,699.83,run_exp/static/images/task_images/land.jpg,65,,,,,,68,,,7,,,,,,,,201574,1,0,FALSE,,
dig,160,524676,0.0-50.0-0.0,,,,,,,,,,,"[{""stimulus"":""run_exp/static/images/task_images/dig.jpg"",""time"":0.19500000053085387},{""stimulus"":""run_exp/static/images/task_images/land.jpg"",""time"":767.5650000019232},{""stimulus"":""run_exp/static/images/task_images/dig.jpg"",""time"":1534.6149999968475}]",[],7,,,,,,,,,,,,,
harvest,161,525680,0.0-50.0-1.0,,null,run_exp/static/images/task_images/gems/68.jpg,null,,,,,,54,,,7,,,,,68,0.793471568,0.794117647,,,,,,
decision,162,526846,0.0-50.0-2.0,,1165.41,run_exp/static/images/task_images/land.jpg,65,,,,,,54,,,7,,,,,,,,206049,1,1,FALSE,,
dig,163,528686,0.0-51.0-0.0,,,,,,,,,,,"[{""stimulus"":""run_exp/static/images/task_images/dig.jpg"",""time"":0.14999999979045242},{""stimulus"":""run_exp/static/images/task_images/land.jpg"",""time"":615.7299999976531},{""stimulus"":""run_exp/static/images/task_images/dig.jpg"",""time"":1222.8949999988545}]",[],7,,,,,,,,,,,,,
harvest,164,529693,0.0-51.0-1.0,,null,run_exp/static/images/task_images/gems/54.jpg,null,,,,,,44,,,7,,,,,54,0.816430485,0.814814815,,,,,,
decision,165,531197,0.0-51.0-2.0,,1503.345,run_exp/static/images/task_images/land.jpg,76,,,,,,44,,,7,,,,,,,,210401,1,2,TRUE,,
travel,166,539700,0.0-52.0-0.0,,,,,,,,,,,"[{""stimulus"":""run_exp/static/images/task_images/rocket-01.jpg"",""time"":0.13499999488703907},{""stimulus"":""run_exp/static/images/task_images/rocket-02.jpg"",""time"":945.9449999995995},{""stimulus"":""run_exp/static/images/task_images/rocket-03.jpg"",""time"":1894.23999999417},{""stimulus"":""run_exp/static/images/task_images/rocket-04.jpg"",""time"":2836.269999999786},{""stimulus"":""run_exp/static/images/task_images/rocket-05.jpg"",""time"":3779.5149999947753},{""stimulus"":""run_exp/static/images/task_images/rocket-06.jpg"",""time"":4723.204999994836},{""stimulus"":""run_exp/static/images/task_images/rocket-07.jpg"",""time"":5670.369999999879},{""stimulus"":""run_exp/static/images/task_images/rocket-08.jpg"",""time"":6612.639999999432},{""stimulus"":""run_exp/static/images/task_images/rocket-09.jpg"",""time"":7558.084999996936}]",[],7,,,,,,,,,,,,,
alien_welcome,167,544708,0.0-52.0-1.0,,null,run_exp/static/images/task_images/aliens/old_aliens/planet/alien_planet-78.jpg,null,,,,,,,,,,,,78,"29,28,52,8,62,22,67,78,64,10,46,77,31,13,4,12,35,63,72,65,80,33,3,25,38,70,73,21,59,40,74,27,14,2,43,71,75,15,32,16,66,30,44,34,79,48,51,1,26,61,20",,,,,,,,,
land,168,545214,0.0-52.0-2.0,,null,run_exp/static/images/task_images/land.jpg,null,,,,,,103,,,8,,,,,,,,,,,,,
dig,169,547222,0.0-52.0-3.0,,,,,,,,,,,"[{""stimulus"":""run_exp/static/images/task_images/dig.jpg"",""time"":0.26000000070780516},{""stimulus"":""run_exp/static/images/task_images/land.jpg"",""time"":673.4150000048103},{""stimulus"":""run_exp/static/images/task_images/dig.jpg"",""time"":1337.9750000021886}]",[],8,,,,,,,,,,,,,
harvest,170,548226,0.0-52.0-4.0,,null,run_exp/static/images/task_images/gems/103.jpg,null,,,,,,83,,,8,,,,,103,0.80844313,0.805825243,,,,,,
decision,171,548660,0.0-52.0-5.0,,432.91,run_exp/static/images/task_images/land.jpg,65,,,,,,83,,,8,,,,,,,,227863,1,0,FALSE,,
dig,172,551232,0.0-53.0-0.0,,,,,,,,,,,"[{""stimulus"":""run_exp/static/images/task_images/dig.jpg"",""time"":0.13499999477062374},{""stimulus"":""run_exp/static/images/task_images/land.jpg"",""time"":857.7449999939417},{""stimulus"":""run_exp/static/images/task_images/dig.jpg"",""time"":1716.3199999994831}]",[],8,,,,,,,,,,,,,
harvest,173,552239,0.0-53.0-1.0,,null,run_exp/static/images/task_images/gems/83.jpg,null,,,,,,65,,,8,,,,,83,0.778385182,0.78313253,,,,,,
decision,174,552990,0.0-53.0-2.0,,750.255,run_exp/static/images/task_images/land.jpg,65,,,,,,65,,,8,,,,,,,,232193,1,1,FALSE,,
dig,175,555245,0.0-54.0-0.0,,,,,,,,,,,"[{""stimulus"":""run_exp/static/images/task_images/dig.jpg"",""time"":0.1449999981559813},{""stimulus"":""run_exp/static/images/task_images/land.jpg"",""time"":754.0399999998044},{""stimulus"":""run_exp/static/images/task_images/dig.jpg"",""time"":1500.1750000010943}]",[],8,,,,,,,,,,,,,
harvest,176,556252,0.0-54.0-1.0,,null,run_exp/static/images/task_images/gems/65.jpg,null,,,,,,50,,,8,,,,,65,0.764278003,0.769230769,,,,,,
decision,177,556554,0.0-54.0-2.0,,300.705,run_exp/static/images/task_images/land.jpg,65,,,,,,50,,,8,,,,,,,,235757,1,2,FALSE,,
dig,178,559254,0.0-55.0-0.0,,,,,,,,,,,"[{""stimulus"":""run_exp/static/images/task_images/dig.jpg"",""time"":0.13000000035390258},{""stimulus"":""run_exp/static/images/task_images/land.jpg"",""time"":901.3149999955203},{""stimulus"":""run_exp/static/images/task_images/dig.jpg"",""time"":1804.2300000014948}]",[],8,,,,,,,,,,,,,
harvest,179,560261,0.0-55.0-1.0,,null,run_exp/static/images/task_images/gems/50.jpg,null,,,,,,42,,,8,,,,,50,0.837199162,0.84,,,,,,
decision,180,560642,0.0-55.0-2.0,,379.37,run_exp/static/images/task_images/land.jpg,65,,,,,,42,,,8,,,,,,,,239845,1,3,FALSE,,
dig,181,563265,0.0-56.0-0.0,,,,,,,,,,,"[{""stimulus"":""run_exp/static/images/task_images/dig.jpg"",""time"":0.14000000373926014},{""stimulus"":""run_exp/static/images/task_images/land.jpg"",""time"":874.3700000050012},{""stimulus"":""run_exp/static/images/task_images/dig.jpg"",""time"":1751.430000003893}]",[],8,,,,,,,,,,,,,
harvest,182,564268,0.0-56.0-1.0,,null,run_exp/static/images/task_images/gems/42.jpg,null,,,,,,36,,,8,,,,,42,0.864109682,0.857142857,,,,,,
decision,183,564558,0.0-56.0-2.0,,288.78,run_exp/static/images/task_images/land.jpg,76,,,,,,36,,,8,,,,,,,,243761,1,4,TRUE,,
travel,184,574275,0.0-57.0-0.0,,,,,,,,,,,"[{""stimulus"":""run_exp/static/images/task_images/rocket-01.jpg"",""time"":0.1449999981559813},{""stimulus"":""run_exp/static/images/task_images/rocket-02.jpg"",""time"":1080.7849999982864},{""stimulus"":""run_exp/static/images/task_images/rocket-03.jpg"",""time"":2162.864999998361},{""stimulus"":""run_exp/static/images/task_images/rocket-04.jpg"",""time"":3238.1549999990966},{""stimulus"":""run_exp/static/images/task_images/rocket-05.jpg"",""time"":4322.135000002105},{""stimulus"":""run_exp/static/images/task_images/rocket-06.jpg"",""time"":5397.6350000011735},{""stimulus"":""run_exp/static/images/task_images/rocket-07.jpg"",""time"":6480.250000000466},{""stimulus"":""run_exp/static/images/task_images/rocket-08.jpg"",""time"":7555.325000001118},{""stimulus"":""run_exp/static/images/task_images/rocket-09.jpg"",""time"":8638.330000001588}]",[],8,,,,,,,,,,,,,
alien_welcome,185,579282,0.0-57.0-1.0,,null,run_exp/static/images/task_images/aliens/old_aliens/planet/alien_planet-64.jpg,null,,,,,,,,,,,,64,"29,28,52,8,62,22,67,78,64,10,46,77,31,13,4,12,35,63,72,65,80,33,3,25,38,70,73,21,59,40,74,27,14,2,43,71,75,15,32,16,66,30,44,34,79,48,51,1,26,61,20",,,,,,,,,
land,186,579789,0.0-57.0-2.0,,null,run_exp/static/images/task_images/land.jpg,null,,,,,,95,,,9,,,,,,,,,,,,,
dig,187,581797,0.0-57.0-3.0,,,,,,,,,,,"[{""stimulus"":""run_exp/static/images/task_images/dig.jpg"",""time"":0.24000000127125531},{""stimulus"":""run_exp/static/images/task_images/land.jpg"",""time"":673.2950000005076},{""stimulus"":""run_exp/static/images/task_images/dig.jpg"",""time"":1336.44500000088}]",[],9,,,,,,,,,,,,,
harvest,188,582803,0.0-57.0-4.0,,null,run_exp/static/images/task_images/gems/95.jpg,null,,,,,,20,,,9,,,,,95,0.213563871,0.210526316,,,,,,
decision,189,584425,0.0-57.0-5.0,,1620.83,run_exp/static/images/task_images/land.jpg,65,,,,,,20,,,9,,,,,,,,263628,1,0,FALSE,,
dig,190,585809,0.0-58.0-0.0,,,,,,,,,,,"[{""stimulus"":""run_exp/static/images/task_images/dig.jpg"",""time"":0.14999999990686774},{""stimulus"":""run_exp/static/images/task_images/land.jpg"",""time"":460.3399999978719},{""stimulus"":""run_exp/static/images/task_images/dig.jpg"",""time"":923.2899999988731}]",[],9,,,,,,,,,,,,,
harvest,191,586816,0.0-58.0-1.0,,null,run_exp/static/images/task_images/gems/20.jpg,null,,,,,,4,,,9,,,,,20,0.216354409,0.2,,,,,,
decision,192,589819,0.0-58.0-2.0,,null,run_exp/static/images/task_images/land.jpg,null,,,,,,4,,,9,,,,,,,,269022,1,1,FALSE,,
time_out,193,591827,0.0-59.0-0.0,,null,run_exp/static/images/task_images/time_out.jpg,null,,,,,,4,,,,,,,,,,,,,,,,
decision,194,592129,0.0-59.0-1.0,,300.58,run_exp/static/images/task_images/land.jpg,65,,,,,,4,,,9,,,,,,,,271332,1,1,FALSE,,
dig,195,594834,0.0-60.0-0.0,,,,,,,,,,,"[{""stimulus"":""run_exp/static/images/task_images/dig.jpg"",""time"":0.16499999759253114},{""stimulus"":""run_exp/static/images/task_images/land.jpg"",""time"":904.7499999941792},{""stimulus"":""run_exp/static/images/task_images/dig.jpg"",""time"":1804.274999994901}]",[],9,,,,,,,,,,,,,
harvest,196,595837,0.0-60.0-1.0,,null,run_exp/static/images/task_images/gems/4.jpg,null,,,,,,1,,,9,,,,,4,0.193955374,0.25,,,,,,
decision,197,597022,0.0-60.0-2.0,,1184.1,run_exp/static/images/task_images/land.jpg,76,,,,,,1,,,9,,,,,,,,276225,1,2,TRUE,,
travel,198,605839,0.0-61.0-0.0,,,,,,,,,,,"[{""stimulus"":""run_exp/static/images/task_images/rocket-01.jpg"",""time"":0.13000000035390258},{""stimulus"":""run_exp/static/images/task_images/rocket-02.jpg"",""time"":984.8300000012387},{""stimulus"":""run_exp/static/images/task_images/rocket-03.jpg"",""time"":1963.7050000019372},{""stimulus"":""run_exp/static/images/task_images/rocket-04.jpg"",""time"":2943.234999998822},{""stimulus"":""run_exp/static/images/task_images/rocket-05.jpg"",""time"":3917.894999998738},{""stimulus"":""run_exp/static/images/task_images/rocket-06.jpg"",""time"":4901.26500000048},{""stimulus"":""run_exp/static/images/task_images/rocket-07.jpg"",""time"":5879.070000002743},{""stimulus"":""run_exp/static/images/task_images/rocket-08.jpg"",""time"":6857.479999998701},{""stimulus"":""run_exp/static/images/task_images/rocket-09.jpg"",""time"":7838.179999998887}]",[],9,,,,,,,,,,,,,
alien_welcome,199,610843,0.0-61.0-1.0,,null,run_exp/static/images/task_images/aliens/old_aliens/planet/alien_planet-10.jpg,null,,,,,,,,,,,,10,"29,28,52,8,62,22,67,78,64,10,46,77,31,13,4,12,35,63,72,65,80,33,3,25,38,70,73,21,59,40,74,27,14,2,43,71,75,15,32,16,66,30,44,34,79,48,51,1,26,61,20",,,,,,,,,
land,200,611349,0.0-61.0-2.0,,null,run_exp/static/images/task_images/land.jpg,null,,,,,,100,,,10,,,,,,,,,,,,,
dig,201,613355,0.0-61.0-3.0,,,,,,,,,,,"[{""stimulus"":""run_exp/static/images/task_images/dig.jpg"",""time"":0.2300000051036477},{""stimulus"":""run_exp/static/images/task_images/land.jpg"",""time"":673.3400000011316},{""stimulus"":""run_exp/static/images/task_images/dig.jpg"",""time"":1335.0700000009965}]",[],10,,,,,,,,,,,,,
harvest,202,614357,0.0-61.0-4.0,,null,run_exp/static/images/task_images/gems/100.jpg,null,,,,,,19,,,10,,,,,100,0.186621036,0.19,,,,,,
decision,203,615140,0.0-61.0-5.0,,781.84,run_exp/static/images/task_images/land.jpg,65,,,,,,19,,,10,,,,,,,,294343,1,0,FALSE,,
dig,204,617363,0.0-62.0-0.0,,,,,,,,,,,"[{""stimulus"":""run_exp/static/images/task_images/dig.jpg"",""time"":0.15500000154133886},{""stimulus"":""run_exp/static/images/task_images/land.jpg"",""time"":743.0400000012014},{""stimulus"":""run_exp/static/images/task_images/dig.jpg"",""time"":1481.4299999998184}]",[],10,,,,,,,,,,,,,
harvest,205,618366,0.0-62.0-1.0,,null,run_exp/static/images/task_images/gems/19.jpg,null,,,,,,7,,,10,,,,,19,0.357539011,0.368421053,,,,,,
decision,206,619952,0.0-62.0-2.0,,1584.275,run_exp/static/images/task_images/land.jpg,65,,,,,,7,,,10,,,,,,,,299155,1,1,FALSE,,
dig,207,621373,0.0-63.0-0.0,,,,,,,,,,,"[{""stimulus"":""run_exp/static/images/task_images/dig.jpg"",""time"":0.14000000385567546},{""stimulus"":""run_exp/static/images/task_images/land.jpg"",""time"":476.7250000005588},{""stimulus"":""run_exp/static/images/task_images/dig.jpg"",""time"":946.8350000025239}]",[],10,,,,,,,,,,,,,
harvest,208,622377,0.0-63.0-1.0,,null,run_exp/static/images/task_images/gems/7.jpg,null,,,,,,2,,,10,,,,,7,0.217007622,0.285714286,,,,,,
decision,209,623086,0.0-63.0-2.0,,707.845,run_exp/static/images/task_images/land.jpg,76,,,,,,2,,,10,,,,,,,,302289,1,2,TRUE,,
end_of_block_continue,210,631908,0.0-64.0-0.0,,null,run_exp/static/audio/clip_32_block_end.m4a,,,,,,null,,,,,,,,,,,,,,,,,
alien_welcome,211,636913,0.0-65.0-0.0,,null,run_exp/static/images/task_images/aliens/old_aliens/planet/alien_planet-46.jpg,null,,,,,,,,,,,,46,"29,28,52,8,62,22,67,78,64,10,46,77,31,13,4,12,35,63,72,65,80,33,3,25,38,70,73,21,59,40,74,27,14,2,43,71,75,15,32,16,66,30,44,34,79,48,51,1,26,61,20",,,,,,,,,
land,212,637419,0.0-65.0-1.0,,null,run_exp/static/images/task_images/land.jpg,null,,,,,,101,,,11,,,,,,,,,,,,,
dig,213,639423,0.0-65.0-2.0,,,,,,,,,,,"[{""stimulus"":""run_exp/static/images/task_images/dig.jpg"",""time"":0.2149999999674037},{""stimulus"":""run_exp/static/images/task_images/land.jpg"",""time"":673.2900000060908},{""stimulus"":""run_exp/static/images/task_images/dig.jpg"",""time"":1336.5400000037625}]",[],11,,,,,,,,,,,,,
harvest,214,640426,0.0-65.0-3.0,,null,run_exp/static/images/task_images/gems/101.jpg,null,,,,,,24,,,11,,,,,101,0.239749168,0.237623762,,,,,,
decision,215,643433,0.0-65.0-4.0,,null,run_exp/static/images/task_images/land.jpg,null,,,,,,24,,,11,,,,,,,,11522,2,0,FALSE,,
time_out,216,645442,0.0-66.0-0.0,,null,run_exp/static/images/task_images/time_out.jpg,null,,,,,,24,,,,,,,,,,,,,,,,
decision,217,648449,0.0-66.0-1.0,,null,run_exp/static/images/task_images/land.jpg,null,,,,,,24,,,11,,,,,,,,16538,2,0,FALSE,,
time_out,218,650458,0.0-67.0-0.0,,null,run_exp/static/images/task_images/time_out.jpg,null,,,,,,24,,,,,,,,,,,,,,,,
decision,219,653465,0.0-67.0-1.0,,null,run_exp/static/images/task_images/land.jpg,null,,,,,,24,,,11,,,,,,,,21554,2,0,FALSE,,
time_out,220,655469,0.0-68.0-0.0,,null,run_exp/static/images/task_images/time_out.jpg,null,,,,,,24,,,,,,,,,,,,,,,,
decision,221,658476,0.0-68.0-1.0,,null,run_exp/static/images/task_images/land.jpg,null,,,,,,24,,,11,,,,,,,,26565,2,0,FALSE,,
time_out,222,660485,0.0-69.0-0.0,,null,run_exp/static/images/task_images/time_out.jpg,null,,,,,,24,,,,,,,,,,,,,,,,
decision,223,663492,0.0-69.0-1.0,,null,run_exp/static/images/task_images/land.jpg,null,,,,,,24,,,11,,,,,,,,31581,2,0,FALSE,,
time_out,224,665501,0.0-70.0-0.0,,null,run_exp/static/images/task_images/time_out.jpg,null,,,,,,24,,,,,,,,,,,,,,,,
decision,225,668505,0.0-70.0-1.0,,null,run_exp/static/images/task_images/land.jpg,null,,,,,,24,,,11,,,,,,,,36594,2,0,FALSE,,
time_out,226,670514,0.0-71.0-0.0,,null,run_exp/static/images/task_images/time_out.jpg,null,,,,,,24,,,,,,,,,,,,,,,,
decision,227,673521,0.0-71.0-1.0,,null,run_exp/static/images/task_images/land.jpg,null,,,,,,24,,,11,,,,,,,,41610,2,0,FALSE,,
time_out,228,675530,0.0-72.0-0.0,,null,run_exp/static/images/task_images/time_out.jpg,null,,,,,,24,,,,,,,,,,,,,,,,
decision,229,678537,0.0-72.0-1.0,,null,run_exp/static/images/task_images/land.jpg,null,,,,,,24,,,11,,,,,,,,46626,2,0,FALSE,,
time_out,230,680546,0.0-73.0-0.0,,null,run_exp/static/images/task_images/time_out.jpg,null,,,,,,24,,,,,,,,,,,,,,,,
decision,231,683548,0.0-73.0-1.0,,null,run_exp/static/images/task_images/land.jpg,null,,,,,,24,,,11,,,,,,,,51638,2,0,FALSE,,
time_out,232,685558,0.0-74.0-0.0,,null,run_exp/static/images/task_images/time_out.jpg,null,,,,,,24,,,,,,,,,,,,,,,,
decision,233,688565,0.0-74.0-1.0,,null,run_exp/static/images/task_images/land.jpg,null,,,,,,24,,,11,,,,,,,,56654,2,0,FALSE,,
time_out,234,690574,0.0-75.0-0.0,,null,run_exp/static/images/task_images/time_out.jpg,null,,,,,,24,,,,,,,,,,,,,,,,
decision,235,693580,0.0-75.0-1.0,,null,run_exp/static/images/task_images/land.jpg,null,,,,,,24,,,11,,,,,,,,61669,2,0,FALSE,,
time_out,236,695589,0.0-76.0-0.0,,null,run_exp/static/images/task_images/time_out.jpg,null,,,,,,24,,,,,,,,,,,,,,,,
decision,237,698596,0.0-76.0-1.0,,null,run_exp/static/images/task_images/land.jpg,null,,,,,,24,,,11,,,,,,,,66686,2,0,FALSE,,
time_out,238,700606,0.0-77.0-0.0,,null,run_exp/static/images/task_images/time_out.jpg,null,,,,,,24,,,,,,,,,,,,,,,,
decision,239,703613,0.0-77.0-1.0,,null,run_exp/static/images/task_images/land.jpg,null,,,,,,24,,,11,,,,,,,,71702,2,0,FALSE,,
time_out,240,705619,0.0-78.0-0.0,,null,run_exp/static/images/task_images/time_out.jpg,null,,,,,,24,,,,,,,,,,,,,,,,
decision,241,707783,0.0-78.0-1.0,,2162.295,run_exp/static/images/task_images/land.jpg,65,,,,,,24,,,11,,,,,,,,75872,2,0,FALSE,,
dig,242,708626,0.0-79.0-0.0,,,,,,,,,,,"[{""stimulus"":""run_exp/static/images/task_images/dig.jpg"",""time"":0.14999999979045242},{""stimulus"":""run_exp/static/images/task_images/land.jpg"",""time"":281.28499999723863},{""stimulus"":""run_exp/static/images/task_images/dig.jpg"",""time"":559.240000002319}]",[],11,,,,,,,,,,,,,
harvest,243,709630,0.0-79.0-1.0,,null,run_exp/static/images/task_images/gems/24.jpg,null,,,,,,6,,,11,,,,,24,0.232388185,0.25,,,,,,
decision,244,710378,0.0-79.0-2.0,,746.48,run_exp/static/images/task_images/land.jpg,76,,,,,,6,,,11,,,,,,,,78467,2,1,TRUE,,
travel,245,719640,0.0-80.0-0.0,,,,,,,,,,,"[{""stimulus"":""run_exp/static/images/task_images/rocket-01.jpg"",""time"":0.15500000154133886},{""stimulus"":""run_exp/static/images/task_images/rocket-02.jpg"",""time"":1034.0649999998277},{""stimulus"":""run_exp/static/images/task_images/rocket-03.jpg"",""time"":2059.8750000062864},{""stimulus"":""run_exp/static/images/task_images/rocket-04.jpg"",""time"":3090.0949999995064},{""stimulus"":""run_exp/static/images/task_images/rocket-05.jpg"",""time"":4117.485000002431},{""stimulus"":""run_exp/static/images/task_images/rocket-06.jpg"",""time"":5142.975000002421},{""stimulus"":""run_exp/static/images/task_images/rocket-07.jpg"",""time"":6171.375000005355},{""stimulus"":""run_exp/static/images/task_images/rocket-08.jpg"",""time"":7197.449999999721},{""stimulus"":""run_exp/static/images/task_images/rocket-09.jpg"",""time"":8230.125000001863}]",[],11,,,,,,,,,,,,,
alien_welcome,246,724647,0.0-80.0-1.0,,null,run_exp/static/images/task_images/aliens/old_aliens/planet/alien_planet-77.jpg,null,,,,,,,,,,,,77,"29,28,52,8,62,22,67,78,64,10,46,77,31,13,4,12,35,63,72,65,80,33,3,25,38,70,73,21,59,40,74,27,14,2,43,71,75,15,32,16,66,30,44,34,79,48,51,1,26,61,20",,,,,,,,,
land,247,725150,0.0-80.0-2.0,,null,run_exp/static/images/task_images/land.jpg,null,,,,,,93,,,12,,,,,,,,,,,,,
dig,248,727153,0.0-80.0-3.0,,,,,,,,,,,"[{""stimulus"":""run_exp/static/images/task_images/dig.jpg"",""time"":0.22499999613501132},{""stimulus"":""run_exp/static/images/task_images/land.jpg"",""time"":673.2149999951944},{""stimulus"":""run_exp/static/images/task_images/dig.jpg"",""time"":1339.1649999974761}]",[],12,,,,,,,,,,,,,
harvest,249,728157,0.0-80.0-4.0,,null,run_exp/static/images/task_images/gems/93.jpg,null,,,,,,13,,,12,,,,,93,0.137082413,0.139784946,,,,,,
decision,250,728774,0.0-80.0-5.0,,615.605,run_exp/static/images/task_images/land.jpg,76,,,,,,13,,,12,,,,,,,,96863,2,0,TRUE,,
travel,251,738160,0.0-81.0-0.0,,,,,,,,,,,"[{""stimulus"":""run_exp/static/images/task_images/rocket-01.jpg"",""time"":0.13000000035390258},{""stimulus"":""run_exp/static/images/task_images/rocket-02.jpg"",""time"":1044.3450000020675},{""stimulus"":""run_exp/static/images/task_images/rocket-03.jpg"",""time"":2090.2549999954645},{""stimulus"":""run_exp/static/images/task_images/rocket-04.jpg"",""time"":3131.50499999756},{""stimulus"":""run_exp/static/images/task_images/rocket-05.jpg"",""time"":4170.124999996973},{""stimulus"":""run_exp/static/images/task_images/rocket-06.jpg"",""time"":5215.07500000007},{""stimulus"":""run_exp/static/images/task_images/rocket-07.jpg"",""time"":6258.209999999963},{""stimulus"":""run_exp/static/images/task_images/rocket-08.jpg"",""time"":7300.145000001066},{""stimulus"":""run_exp/static/images/task_images/rocket-09.jpg"",""time"":8342.094999999972}]",[],12,,,,,,,,,,,,,
alien_welcome,252,743163,0.0-81.0-1.0,,null,run_exp/static/images/task_images/aliens/old_aliens/planet/alien_planet-31.jpg,null,,,,,,,,,,,,31,"29,28,52,8,62,22,67,78,64,10,46,77,31,13,4,12,35,63,72,65,80,33,3,25,38,70,73,21,59,40,74,27,14,2,43,71,75,15,32,16,66,30,44,34,79,48,51,1,26,61,20",,,,,,,,,
land,253,743670,0.0-81.0-2.0,,null,run_exp/static/images/task_images/land.jpg,null,,,,,,104,,,13,,,,,,,,,,,,,
dig,254,745679,0.0-81.0-3.0,,,,,,,,,,,"[{""stimulus"":""run_exp/static/images/task_images/dig.jpg"",""time"":0.22999999776948243},{""stimulus"":""run_exp/static/images/task_images/land.jpg"",""time"":673.3749999983702},{""stimulus"":""run_exp/static/images/task_images/dig.jpg"",""time"":1338.4699999950826}]",[],13,,,,,,,,,,,,,
harvest,255,746684,0.0-81.0-4.0,,null,run_exp/static/images/task_images/gems/104.jpg,null,,,,,,13,,,13,,,,,104,0.129460495,0.125,,,,,,
decision,256,749686,0.0-81.0-5.0,,null,run_exp/static/images/task_images/land.jpg,null,,,,,,13,,,13,,,,,,,,117775,2,0,FALSE,,
time_out,257,751691,0.0-82.0-0.0,,null,run_exp/static/images/task_images/time_out.jpg,null,,,,,,13,,,,,,,,,,,,,,,,
decision,258,751693,0.0-82.0-1.0,,0.13,run_exp/static/images/task_images/land.jpg,65,,,,,,13,,,13,,,,,,,,119782,2,0,FALSE,,
dig,259,754694,0.0-83.0-0.0,,,,,,,,,,,"[{""stimulus"":""run_exp/static/images/task_images/dig.jpg"",""time"":0.13000000035390258},{""stimulus"":""run_exp/static/images/task_images/land.jpg"",""time"":1005.1449999955948},{""stimulus"":""run_exp/static/images/task_images/dig.jpg"",""time"":1998.8049999957439}]",[],13,,,,,,,,,,,,,
harvest,260,755696,0.0-83.0-1.0,,null,run_exp/static/images/task_images/gems/13.jpg,null,,,,,,3,,,13,,,,,13,0.26789476,0.230769231,,,,,,
decision,261,756317,0.0-83.0-2.0,,619.335,run_exp/static/images/task_images/land.jpg,76,,,,,,3,,,13,,,,,,,,124406,2,1,TRUE,,
travel,262,765705,0.0-84.0-0.0,,,,,,,,,,,"[{""stimulus"":""run_exp/static/images/task_images/rocket-01.jpg"",""time"":0.13500000210478902},{""stimulus"":""run_exp/static/images/task_images/rocket-02.jpg"",""time"":1048.2249999986961},{""stimulus"":""run_exp/static/images/task_images/rocket-03.jpg"",""time"":2090.1650000014342},{""stimulus"":""run_exp/static/images/task_images/rocket-04.jpg"",""time"":3132.1899999966845},{""stimulus"":""run_exp/static/images/task_images/rocket-05.jpg"",""time"":4174.15500000061},{""stimulus"":""run_exp/static/images/task_images/rocket-06.jpg"",""time"":5212.299999999232},{""stimulus"":""run_exp/static/images/task_images/rocket-07.jpg"",""time"":6254.204999997513},{""stimulus"":""run_exp/static/images/task_images/rocket-08.jpg"",""time"":7296.49999999674},{""stimulus"":""run_exp/static/images/task_images/rocket-09.jpg"",""time"":8339.110000000801}]",[],13,,,,,,,,,,,,,
alien_welcome,263,770711,0.0-84.0-1.0,,null,run_exp/static/images/task_images/aliens/old_aliens/planet/alien_planet-13.jpg,null,,,,,,,,,,,,13,"29,28,52,8,62,22,67,78,64,10,46,77,31,13,4,12,35,63,72,65,80,33,3,25,38,70,73,21,59,40,74,27,14,2,43,71,75,15,32,16,66,30,44,34,79,48,51,1,26,61,20",,,,,,,,,
land,264,771213,0.0-84.0-2.0,,null,run_exp/static/images/task_images/land.jpg,null,,,,,,103,,,14,,,,,,,,,,,,,
dig,265,773220,0.0-84.0-3.0,,,,,,,,,,,"[{""stimulus"":""run_exp/static/images/task_images/dig.jpg"",""time"":0.22499999613501132},{""stimulus"":""run_exp/static/images/task_images/land.jpg"",""time"":670.2450000010431},{""stimulus"":""run_exp/static/images/task_images/dig.jpg"",""time"":1335.2799999993294}]",[],14,,,,,,,,,,,,,
harvest,266,774225,0.0-84.0-4.0,,null,run_exp/static/images/task_images/gems/103.jpg,null,,,,,,86,,,14,,,,,103,0.831905509,0.834951456,,,,,,
decision,267,774543,0.0-84.0-5.0,,316.14,run_exp/static/images/task_images/land.jpg,65,,,,,,86,,,14,,,,,,,,142632,2,0,FALSE,,
dig,268,777232,0.0-85.0-0.0,,,,,,,,,,,"[{""stimulus"":""run_exp/static/images/task_images/dig.jpg"",""time"":0.14999999990686774},{""stimulus"":""run_exp/static/images/task_images/land.jpg"",""time"":900.119999998482},{""stimulus"":""run_exp/static/images/task_images/dig.jpg"",""time"":1790.390000001993}]",[],14,,,,,,,,,,,,,
harvest,269,778236,0.0-85.0-1.0,,null,run_exp/static/images/task_images/gems/86.jpg,null,,,,,,70,,,14,,,,,86,0.817459771,0.813953488,,,,,,
decision,270,778853,0.0-85.0-2.0,,616.02,run_exp/static/images/task_images/land.jpg,65,,,,,,70,,,14,,,,,,,,146942,2,1,FALSE,,
dig,271,781241,0.0-86.0-0.0,,,,,,,,,,,"[{""stimulus"":""run_exp/static/images/task_images/dig.jpg"",""time"":0.16499999770894647},{""stimulus"":""run_exp/static/images/task_images/land.jpg"",""time"":800.169999995036},{""stimulus"":""run_exp/static/images/task_images/dig.jpg"",""time"":1594.2549999963958}]",[],14,,,,,,,,,,,,,
harvest,272,782248,0.0-86.0-1.0,,null,run_exp/static/images/task_images/gems/70.jpg,null,,,,,,57,,,14,,,,,70,0.817145244,0.814285714,,,,,,
decision,273,782428,0.0-86.0-2.0,,177.945,run_exp/static/images/task_images/land.jpg,76,,,,,,57,,,14,,,,,,,,150517,2,2,TRUE,,
travel,274,792255,0.0-87.0-0.0,,,,,,,,,,,"[{""stimulus"":""run_exp/static/images/task_images/rocket-01.jpg"",""time"":0.13500000210478902},{""stimulus"":""run_exp/static/images/task_images/rocket-02.jpg"",""time"":1097.2350000011502},{""stimulus"":""run_exp/static/images/task_images/rocket-03.jpg"",""time"":2187.040000004461},{""stimulus"":""run_exp/static/images/task_images/rocket-04.jpg"",""time"":3277.255000000936},{""stimulus"":""run_exp/static/images/task_images/rocket-05.jpg"",""time"":4367.045000006445},{""stimulus"":""run_exp/static/images/task_images/rocket-06.jpg"",""time"":5457.845000004512},{""stimulus"":""run_exp/static/images/task_images/rocket-07.jpg"",""time"":6552.155000004917},{""stimulus"":""run_exp/static/images/task_images/rocket-08.jpg"",""time"":7639.5250000059605},{""stimulus"":""run_exp/static/images/task_images/rocket-09.jpg"",""time"":8734.190000002971}]",[],14,,,,,,,,,,,,,
alien_welcome,275,797262,0.0-87.0-1.0,,null,run_exp/static/images/task_images/aliens/old_aliens/planet/alien_planet-4.jpg,null,,,,,,,,,,,,4,"29,28,52,8,62,22,67,78,64,10,46,77,31,13,4,12,35,63,72,65,80,33,3,25,38,70,73,21,59,40,74,27,14,2,43,71,75,15,32,16,66,30,44,34,79,48,51,1,26,61,20",,,,,,,,,
land,276,797769,0.0-87.0-2.0,,null,run_exp/static/images/task_images/land.jpg,null,,,,,,98,,,15,,,,,,,,,,,,,
dig,277,799773,0.0-87.0-3.0,,,,,,,,,,,"[{""stimulus"":""run_exp/static/images/task_images/dig.jpg"",""time"":0.2300000051036477},{""stimulus"":""run_exp/static/images/task_images/land.jpg"",""time"":668.3899999989662},{""stimulus"":""run_exp/static/images/task_images/dig.jpg"",""time"":1335.2900000028312}]",[],15,,,,,,,,,,,,,
harvest,278,800775,0.0-87.0-4.0,,null,run_exp/static/images/task_images/gems/98.jpg,null,,,,,,78,,,15,,,,,98,0.792648377,0.795918367,,,,,,
decision,279,802266,0.0-87.0-5.0,,1489.895,run_exp/static/images/task_images/land.jpg,65,,,,,,78,,,15,,,,,,,,170355,2,0,FALSE,,
dig,280,803779,0.0-88.0-0.0,,,,,,,,,,,"[{""stimulus"":""run_exp/static/images/task_images/dig.jpg"",""time"":0.13000000035390258},{""stimulus"":""run_exp/static/images/task_images/land.jpg"",""time"":504.65499999700114},{""stimulus"":""run_exp/static/images/task_images/dig.jpg"",""time"":1007.2450000008103}]",[],15,,,,,,,,,,,,,
harvest,281,804783,0.0-88.0-1.0,,null,run_exp/static/images/task_images/gems/78.jpg,null,,,,,,68,,,15,,,,,78,0.878025604,0.871794872,,,,,,
decision,282,805404,0.0-88.0-2.0,,619.89,run_exp/static/images/task_images/land.jpg,76,,,,,,68,,,15,,,,,,,,173494,2,1,TRUE,,
travel,283,814792,0.0-89.0-0.0,,,,,,,,,,,"[{""stimulus"":""run_exp/static/images/task_images/rocket-01.jpg"",""time"":0.13000000035390258},{""stimulus"":""run_exp/static/images/task_images/rocket-02.jpg"",""time"":1045.245000001276},{""stimulus"":""run_exp/static/images/task_images/rocket-03.jpg"",""time"":2089.740000003134},{""stimulus"":""run_exp/static/images/task_images/rocket-04.jpg"",""time"":3129.6199999997625},{""stimulus"":""run_exp/static/images/task_images/rocket-05.jpg"",""time"":4174.1949999995995},{""stimulus"":""run_exp/static/images/task_images/rocket-06.jpg"",""time"":5216.165000005392},{""stimulus"":""run_exp/static/images/task_images/rocket-07.jpg"",""time"":6258.190000000526},{""stimulus"":""run_exp/static/images/task_images/rocket-08.jpg"",""time"":7297.3550000025425},{""stimulus"":""run_exp/static/images/task_images/rocket-09.jpg"",""time"":8342.270000001066}]",[],15,,,,,,,,,,,,,
alien_welcome,284,819799,0.0-89.0-1.0,,null,run_exp/static/images/task_images/aliens/old_aliens/planet/alien_planet-12.jpg,null,,,,,,,,,,,,12,"29,28,52,8,62,22,67,78,64,10,46,77,31,13,4,12,35,63,72,65,80,33,3,25,38,70,73,21,59,40,74,27,14,2,43,71,75,15,32,16,66,30,44,34,79,48,51,1,26,61,20",,,,,,,,,
land,285,820305,0.0-89.0-2.0,,null,run_exp/static/images/task_images/land.jpg,null,,,,,,97,,,16,,,,,,,,,,,,,
dig,286,822314,0.0-89.0-3.0,,,,,,,,,,,"[{""stimulus"":""run_exp/static/images/task_images/dig.jpg"",""time"":0.21999999438412488},{""stimulus"":""run_exp/static/images/task_images/land.jpg"",""time"":673.3049999965588},{""stimulus"":""run_exp/static/images/task_images/dig.jpg"",""time"":1337.09999999695}]",[],16,,,,,,,,,,,,,
harvest,287,823316,0.0-89.0-4.0,,null,run_exp/static/images/task_images/gems/97.jpg,null,,,,,,69,,,16,,,,,97,0.711341009,0.711340206,,,,,,
decision,288,823908,0.0-89.0-5.0,,590.27,run_exp/static/images/task_images/land.jpg,76,,,,,,69,,,16,,,,,,,,191997,2,0,TRUE,,
travel,289,833322,0.0-90.0-0.0,,,,,,,,,,,"[{""stimulus"":""run_exp/static/images/task_images/rocket-01.jpg"",""time"":0.1350000019883737},{""stimulus"":""run_exp/static/images/task_images/rocket-02.jpg"",""time"":1051.1949999999488},{""stimulus"":""run_exp/static/images/task_images/rocket-03.jpg"",""time"":2094.1099999981234},{""stimulus"":""run_exp/static/images/task_images/rocket-04.jpg"",""time"":3141.199999998207},{""stimulus"":""run_exp/static/images/task_images/rocket-05.jpg"",""time"":4181.259999997565},{""stimulus"":""run_exp/static/images/task_images/rocket-06.jpg"",""time"":5226.755000003264},{""stimulus"":""run_exp/static/images/task_images/rocket-07.jpg"",""time"":6272.904999998049},{""stimulus"":""run_exp/static/images/task_images/rocket-08.jpg"",""time"":7321.2599999969825},{""stimulus"":""run_exp/static/images/task_images/rocket-09.jpg"",""time"":8362.045000001672}]",[],16,,,,,,,,,,,,,
alien_welcome,290,838329,0.0-90.0-1.0,,null,run_exp/static/images/task_images/aliens/old_aliens/planet/alien_planet-35.jpg,null,,,,,,,,,,,,35,"29,28,52,8,62,22,67,78,64,10,46,77,31,13,4,12,35,63,72,65,80,33,3,25,38,70,73,21,59,40,74,27,14,2,43,71,75,15,32,16,66,30,44,34,79,48,51,1,26,61,20",,,,,,,,,
land,291,838836,0.0-90.0-2.0,,null,run_exp/static/images/task_images/land.jpg,null,,,,,,98,,,17,,,,,,,,,,,,,
dig,292,840844,0.0-90.0-3.0,,,,,,,,,,,"[{""stimulus"":""run_exp/static/images/task_images/dig.jpg"",""time"":0.2099999983329326},{""stimulus"":""run_exp/static/images/task_images/land.jpg"",""time"":669.2899999980582},{""stimulus"":""run_exp/static/images/task_images/dig.jpg"",""time"":1336.2400000041816}]",[],17,,,,,,,,,,,,,
harvest,293,841851,0.0-90.0-4.0,,null,run_exp/static/images/task_images/gems/98.jpg,null,,,,,,82,,,17,,,,,98,0.833922525,0.836734694,,,,,,
decision,294,843340,0.0-90.0-5.0,,1487.77,run_exp/static/images/task_images/land.jpg,65,,,,,,82,,,17,,,,,,,,211429,2,0,FALSE,,
dig,295,844862,0.0-91.0-0.0,,,,,,,,,,,"[{""stimulus"":""run_exp/static/images/task_images/dig.jpg"",""time"":0.16499999759253114},{""stimulus"":""run_exp/static/images/task_images/land.jpg"",""time"":506.9450000009965},{""stimulus"":""run_exp/static/images/task_images/dig.jpg"",""time"":1009.0399999971269}]",[],17,,,,,,,,,,,,,
harvest,296,845869,0.0-91.0-1.0,,null,run_exp/static/images/task_images/gems/82.jpg,null,,,,,,68,,,17,,,,,82,0.832330461,0.829268293,,,,,,
decision,297,846242,0.0-91.0-2.0,,371.435,run_exp/static/images/task_images/land.jpg,76,,,,,,68,,,17,,,,,,,,214331,2,1,TRUE,,
travel,298,855869,0.0-92.0-0.0,,,,,,,,,,,"[{""stimulus"":""run_exp/static/images/task_images/rocket-01.jpg"",""time"":0.15999999595806003},{""stimulus"":""run_exp/static/images/task_images/rocket-02.jpg"",""time"":1075.299999996787},{""stimulus"":""run_exp/static/images/task_images/rocket-03.jpg"",""time"":2139.2350000023143},{""stimulus"":""run_exp/static/images/task_images/rocket-04.jpg"",""time"":3213.230000001262},{""stimulus"":""run_exp/static/images/task_images/rocket-05.jpg"",""time"":4280.155000000377},{""stimulus"":""run_exp/static/images/task_images/rocket-06.jpg"",""time"":5349.045000002603},{""stimulus"":""run_exp/static/images/task_images/rocket-07.jpg"",""time"":6419.21999999613},{""stimulus"":""run_exp/static/images/task_images/rocket-08.jpg"",""time"":7487.374999996973},{""stimulus"":""run_exp/static/images/task_images/rocket-09.jpg"",""time"":8556.984999995562}]",[],17,,,,,,,,,,,,,
alien_welcome,299,860873,0.0-92.0-1.0,,null,run_exp/static/images/task_images/aliens/old_aliens/planet/alien_planet-63.jpg,null,,,,,,,,,,,,63,"29,28,52,8,62,22,67,78,64,10,46,77,31,13,4,12,35,63,72,65,80,33,3,25,38,70,73,21,59,40,74,27,14,2,43,71,75,15,32,16,66,30,44,34,79,48,51,1,26,61,20",,,,,,,,,
land,300,861380,0.0-92.0-2.0,,null,run_exp/static/images/task_images/land.jpg,null,,,,,,97,,,18,,,,,,,,,,,,,
dig,301,863386,0.0-92.0-3.0,,,,,,,,,,,"[{""stimulus"":""run_exp/static/images/task_images/dig.jpg"",""time"":0.22999999776948243},{""stimulus"":""run_exp/static/images/task_images/land.jpg"",""time"":673.5150000022259},{""stimulus"":""run_exp/static/images/task_images/dig.jpg"",""time"":1337.7849999960745}]",[],18,,,,,,,,,,,,,
harvest,302,864391,0.0-92.0-4.0,,null,run_exp/static/images/task_images/gems/97.jpg,null,,,,,,72,,,18,,,,,97,0.738600869,0.742268041,,,,,,
decision,303,864768,0.0-92.0-5.0,,375.825,run_exp/static/images/task_images/land.jpg,65,,,,,,72,,,18,,,,,,,,232857,2,0,FALSE,,
dig,304,867398,0.0-93.0-0.0,,,,,,,,,,,"[{""stimulus"":""run_exp/static/images/task_images/dig.jpg"",""time"":0.13499999465420842},{""stimulus"":""run_exp/static/images/task_images/land.jpg"",""time"":877.8600000004517},{""stimulus"":""run_exp/static/images/task_images/dig.jpg"",""time"":1754.2350000003353}]",[],18,,,,,,,,,,,,,
harvest,305,868405,0.0-93.0-1.0,,null,run_exp/static/images/task_images/gems/72.jpg,null,,,,,,59,,,18,,,,,72,0.813001888,0.819444444,,,,,,
decision,306,868690,0.0-93.0-2.0,,283.715,run_exp/static/images/task_images/land.jpg,76,,,,,,59,,,18,,,,,,,,236779,2,1,TRUE,,
travel,307,878405,0.0-94.0-0.0,,,,,,,,,,,"[{""stimulus"":""run_exp/static/images/task_images/rocket-01.jpg"",""time"":0.13000000035390258},{""stimulus"":""run_exp/static/images/task_images/rocket-02.jpg"",""time"":1083.1400000024587},{""stimulus"":""run_exp/static/images/task_images/rocket-03.jpg"",""time"":2162.01500000176},{""stimulus"":""run_exp/static/images/task_images/rocket-04.jpg"",""time"":3239.8699999975506},{""stimulus"":""run_exp/static/images/task_images/rocket-05.jpg"",""time"":4322.265000002459},{""stimulus"":""run_exp/static/images/task_images/rocket-06.jpg"",""time"":5396.419999997364},{""stimulus"":""run_exp/static/images/task_images/rocket-07.jpg"",""time"":6475.16500000353},{""stimulus"":""run_exp/static/images/task_images/rocket-08.jpg"",""time"":7558.010000000708},{""stimulus"":""run_exp/static/images/task_images/rocket-09.jpg"",""time"":8635.360000000219}]",[],18,,,,,,,,,,,,,
alien_welcome,308,883408,0.0-94.0-1.0,,null,run_exp/static/images/task_images/aliens/old_aliens/planet/alien_planet-72.jpg,null,,,,,,,,,,,,72,"29,28,52,8,62,22,67,78,64,10,46,77,31,13,4,12,35,63,72,65,80,33,3,25,38,70,73,21,59,40,74,27,14,2,43,71,75,15,32,16,66,30,44,34,79,48,51,1,26,61,20",,,,,,,,,
land,309,883910,0.0-94.0-2.0,,null,run_exp/static/images/task_images/land.jpg,null,,,,,,104,,,19,,,,,,,,,,,,,
dig,310,885915,0.0-94.0-3.0,,,,,,,,,,,"[{""stimulus"":""run_exp/static/images/task_images/dig.jpg"",""time"":0.24500000290572643},{""stimulus"":""run_exp/static/images/task_images/land.jpg"",""time"":669.0850000013597},{""stimulus"":""run_exp/static/images/task_images/dig.jpg"",""time"":1340.3099999995902}]",[],19,,,,,,,,,,,,,
harvest,311,886919,0.0-94.0-4.0,,null,run_exp/static/images/task_images/gems/104.jpg,null,,,,,,50,,,19,,,,,104,0.483319789,0.480769231,,,,,,
decision,312,887075,0.0-94.0-5.0,,154.32,run_exp/static/images/task_images/land.jpg,65,,,,,,50,,,19,,,,,,,,255164,2,0,FALSE,,
dig,313,889926,0.0-95.0-0.0,,,,,,,,,,,"[{""stimulus"":""run_exp/static/images/task_images/dig.jpg"",""time"":0.13000000035390258},{""stimulus"":""run_exp/static/images/task_images/land.jpg"",""time"":950.2750000029337},{""stimulus"":""run_exp/static/images/task_images/dig.jpg"",""time"":1898.5400000020163}]",[],19,,,,,,,,,,,,,
harvest,314,890930,0.0-95.0-1.0,,null,run_exp/static/images/task_images/gems/50.jpg,null,,,,,,24,,,19,,,,,50,0.489425473,0.48,,,,,,
decision,315,891406,0.0-95.0-2.0,,474.595,run_exp/static/images/task_images/land.jpg,76,,,,,,24,,,19,,,,,,,,259495,2,1,TRUE,,
travel,316,900936,0.0-96.0-0.0,,,,,,,,,,,"[{""stimulus"":""run_exp/static/images/task_images/rocket-01.jpg"",""time"":0.13999999640509486},{""stimulus"":""run_exp/static/images/task_images/rocket-02.jpg"",""time"":1064.1899999972666},{""stimulus"":""run_exp/static/images/task_images/rocket-03.jpg"",""time"":2121.1499999989755},{""stimulus"":""run_exp/static/images/task_images/rocket-04.jpg"",""time"":3180.174999993993},{""stimulus"":""run_exp/static/images/task_images/rocket-05.jpg"",""time"":4234.114999999292},{""stimulus"":""run_exp/static/images/task_images/rocket-06.jpg"",""time"":5291.784999993863},{""stimulus"":""run_exp/static/images/task_images/rocket-07.jpg"",""time"":6354.169999998645},{""stimulus"":""run_exp/static/images/task_images/rocket-08.jpg"",""time"":7412.109999997425},{""stimulus"":""run_exp/static/images/task_images/rocket-09.jpg"",""time"":8470.114999996382}]",[],19,,,,,,,,,,,,,
alien_welcome,317,905940,0.0-96.0-1.0,,null,run_exp/static/images/task_images/aliens/old_aliens/planet/alien_planet-65.jpg,null,,,,,,,,,,,,65,"29,28,52,8,62,22,67,78,64,10,46,77,31,13,4,12,35,63,72,65,80,33,3,25,38,70,73,21,59,40,74,27,14,2,43,71,75,15,32,16,66,30,44,34,79,48,51,1,26,61,20",,,,,,,,,
land,318,906443,0.0-96.0-2.0,,null,run_exp/static/images/task_images/land.jpg,null,,,,,,104,,,20,,,,,,,,,,,,,
dig,319,908453,0.0-96.0-3.0,,,,,,,,,,,"[{""stimulus"":""run_exp/static/images/task_images/dig.jpg"",""time"":0.22500000335276127},{""stimulus"":""run_exp/static/images/task_images/land.jpg"",""time"":668.9200000036508},{""stimulus"":""run_exp/static/images/task_images/dig.jpg"",""time"":1339.3800000047777}]",[],20,,,,,,,,,,,,,
harvest,320,909458,0.0-96.0-4.0,,null,run_exp/static/images/task_images/gems/104.jpg,null,,,,,,87,,,20,,,,,104,0.837238308,0.836538462,,,,,,
decision,321,909638,0.0-96.0-5.0,,178.055,run_exp/static/images/task_images/land.jpg,65,,,,,,87,,,20,,,,,,,,277727,2,0,FALSE,,
dig,322,912465,0.0-97.0-0.0,,,,,,,,,,,"[{""stimulus"":""run_exp/static/images/task_images/dig.jpg"",""time"":0.13999999652151018},{""stimulus"":""run_exp/static/images/task_images/land.jpg"",""time"":943.8299999964656},{""stimulus"":""run_exp/static/images/task_images/dig.jpg"",""time"":1884.5099999961676}]",[],20,,,,,,,,,,,,,
harvest,323,913468,0.0-97.0-1.0,,null,run_exp/static/images/task_images/gems/87.jpg,null,,,,,,65,,,20,,,,,87,0.750913723,0.747126437,,,,,,
decision,324,914059,0.0-97.0-2.0,,589.19,run_exp/static/images/task_images/land.jpg,65,,,,,,65,,,20,,,,,,,,282148,2,1,FALSE,,
dig,325,916472,0.0-98.0-0.0,,,,,,,,,,,"[{""stimulus"":""run_exp/static/images/task_images/dig.jpg"",""time"":0.17499999376013875},{""stimulus"":""run_exp/static/images/task_images/land.jpg"",""time"":805.7699999989709},{""stimulus"":""run_exp/static/images/task_images/dig.jpg"",""time"":1612.2599999944214}]",[],20,,,,,,,,,,,,,
harvest,326,917474,0.0-98.0-1.0,,null,run_exp/static/images/task_images/gems/65.jpg,null,,,,,,51,,,20,,,,,65,0.778572298,0.784615385,,,,,,
decision,327,918165,0.0-98.0-2.0,,689.695,run_exp/static/images/task_images/land.jpg,76,,,,,,51,,,20,,,,,,,,286254,2,2,TRUE,,
travel,328,927478,0.0-99.0-0.0,,,,,,,,,,,"[{""stimulus"":""run_exp/static/images/task_images/rocket-01.jpg"",""time"":0.13999999640509486},{""stimulus"":""run_exp/static/images/task_images/rocket-02.jpg"",""time"":1040.2949999987613},{""stimulus"":""run_exp/static/images/task_images/rocket-03.jpg"",""time"":2072.099999997532},{""stimulus"":""run_exp/static/images/task_images/rocket-04.jpg"",""time"":3108.16999999946},{""stimulus"":""run_exp/static/images/task_images/rocket-05.jpg"",""time"":4142.199999994715},{""stimulus"":""run_exp/static/images/task_images/rocket-06.jpg"",""time"":5174.520000000484},{""stimulus"":""run_exp/static/images/task_images/rocket-07.jpg"",""time"":6210.289999995381},{""stimulus"":""run_exp/static/images/task_images/rocket-08.jpg"",""time"":7239.434999995865},{""stimulus"":""run_exp/static/images/task_images/rocket-09.jpg"",""time"":8275.555000000168}]",[],20,,,,,,,,,,,,,
alien_welcome,329,932484,0.0-99.0-1.0,,null,run_exp/static/images/task_images/aliens/old_aliens/planet/alien_planet-80.jpg,null,,,,,,,,,,,,80,"29,28,52,8,62,22,67,78,64,10,46,77,31,13,4,12,35,63,72,65,80,33,3,25,38,70,73,21,59,40,74,27,14,2,43,71,75,15,32,16,66,30,44,34,79,48,51,1,26,61,20",,,,,,,,,
land,330,932990,0.0-99.0-2.0,,null,run_exp/static/images/task_images/land.jpg,null,,,,,,100,,,21,,,,,,,,,,,,,
dig,331,934996,0.0-99.0-3.0,,,,,,,,,,,"[{""stimulus"":""run_exp/static/images/task_images/dig.jpg"",""time"":0.30999999574851245},{""stimulus"":""run_exp/static/images/task_images/land.jpg"",""time"":669.5649999964517},{""stimulus"":""run_exp/static/images/task_images/dig.jpg"",""time"":1340.550000000745}]",[],21,,,,,,,,,,,,,
harvest,332,935999,0.0-99.0-4.0,,null,run_exp/static/images/task_images/gems/100.jpg,null,,,,,,81,,,21,,,,,100,0.813795939,0.81,,,,,,
decision,333,937387,0.0-99.0-5.0,,1385.755,run_exp/static/images/task_images/land.jpg,76,,,,,,81,,,21,,,,,,,,305476,2,0,TRUE,,
end_of_block_continue,334,940425,0.0-100.0-0.0,,3034.345,run_exp/static/audio/clip_32_block_end.m4a,,,,,,0,,,,,,,,,,,,,,,,,
alien_welcome,335,945430,0.0-101.0-0.0,,null,run_exp/static/images/task_images/aliens/old_aliens/planet/alien_planet-33.jpg,null,,,,,,,,,,,,33,"29,28,52,8,62,22,67,78,64,10,46,77,31,13,4,12,35,63,72,65,80,33,3,25,38,70,73,21,59,40,74,27,14,2,43,71,75,15,32,16,66,30,44,34,79,48,51,1,26,61,20",,,,,,,,,
land,336,945937,0.0-101.0-1.0,,null,run_exp/static/images/task_images/land.jpg,null,,,,,,104,,,22,,,,,,,,,,,,,
dig,337,947946,0.0-101.0-2.0,,,,,,,,,,,"[{""stimulus"":""run_exp/static/images/task_images/dig.jpg"",""time"":0.22499999613501132},{""stimulus"":""run_exp/static/images/task_images/land.jpg"",""time"":669.9049999952549},{""stimulus"":""run_exp/static/images/task_images/dig.jpg"",""time"":1340.4449999944773}]",[],22,,,,,,,,,,,,,
harvest,338,948952,0.0-101.0-3.0,,null,run_exp/static/images/task_images/gems/104.jpg,null,,,,,,57,,,22,,,,,104,0.546656959,0.548076923,,,,,,
decision,339,951244,0.0-101.0-4.0,,2291.015,run_exp/static/images/task_images/land.jpg,65,,,,,,57,,,22,,,,,,,,10816,3,0,FALSE,,
dig,340,951958,0.0-102.0-0.0,,,,,,,,,,,"[{""stimulus"":""run_exp/static/images/task_images/dig.jpg"",""time"":0.13999999640509486},{""stimulus"":""run_exp/static/images/task_images/land.jpg"",""time"":238.4600000004284},{""stimulus"":""run_exp/static/images/task_images/dig.jpg"",""time"":476.2550000012852}]",[],22,,,,,,,,,,,,,
harvest,341,952964,0.0-102.0-1.0,,null,run_exp/static/images/task_images/gems/57.jpg,null,,,,,,29,,,22,,,,,57,0.504167814,0.50877193,,,,,,
decision,342,953373,0.0-102.0-2.0,,407.61,run_exp/static/images/task_images/land.jpg,76,,,,,,29,,,22,,,,,,,,12945,3,1,TRUE,,
travel,343,962965,0.0-103.0-0.0,,,,,,,,,,,"[{""stimulus"":""run_exp/static/images/task_images/rocket-01.jpg"",""time"":0.12499999860301614},{""stimulus"":""run_exp/static/images/task_images/rocket-02.jpg"",""time"":1071.105000002659},{""stimulus"":""run_exp/static/images/task_images/rocket-03.jpg"",""time"":2131.200000003446},{""stimulus"":""run_exp/static/images/task_images/rocket-04.jpg"",""time"":3200.904999997816},{""stimulus"":""run_exp/static/images/task_images/rocket-05.jpg"",""time"":4262.045000003069},{""stimulus"":""run_exp/static/images/task_images/rocket-06.jpg"",""time"":5328.175000002375},{""stimulus"":""run_exp/static/images/task_images/rocket-07.jpg"",""time"":6396.1899999994785},{""stimulus"":""run_exp/static/images/task_images/rocket-08.jpg"",""time"":7459.045000003185},{""stimulus"":""run_exp/static/images/task_images/rocket-09.jpg"",""time"":8522.77999999933}]",[],22,,,,,,,,,,,,,
alien_welcome,344,967972,0.0-103.0-1.0,,null,run_exp/static/images/task_images/aliens/old_aliens/planet/alien_planet-3.jpg,null,,,,,,,,,,,,3,"29,28,52,8,62,22,67,78,64,10,46,77,31,13,4,12,35,63,72,65,80,33,3,25,38,70,73,21,59,40,74,27,14,2,43,71,75,15,32,16,66,30,44,34,79,48,51,1,26,61,20",,,,,,,,,
land,345,968479,0.0-103.0-2.0,,null,run_exp/static/images/task_images/land.jpg,null,,,,,,103,,,23,,,,,,,,,,,,,
dig,346,970488,0.0-103.0-3.0,,,,,,,,,,,"[{""stimulus"":""run_exp/static/images/task_images/dig.jpg"",""time"":0.24000000115484},{""stimulus"":""run_exp/static/images/task_images/land.jpg"",""time"":669.8200000027427},{""stimulus"":""run_exp/static/images/task_images/dig.jpg"",""time"":1339.1199999968521}]",[],23,,,,,,,,,,,,,
harvest,347,971494,0.0-103.0-4.0,,null,run_exp/static/images/task_images/gems/103.jpg,null,,,,,,86,,,23,,,,,103,0.830428516,0.834951456,,,,,,
decision,348,972911,0.0-103.0-5.0,,1415.27,run_exp/static/images/task_images/land.jpg,65,,,,,,86,,,23,,,,,,,,32483,3,0,FALSE,,
dig,349,974500,0.0-104.0-0.0,,,,,,,,,,,"[{""stimulus"":""run_exp/static/images/task_images/dig.jpg"",""time"":0.1449999981559813},{""stimulus"":""run_exp/static/images/task_images/land.jpg"",""time"":533.2500000004657},{""stimulus"":""run_exp/static/images/task_images/dig.jpg"",""time"":1062.1099999989383}]",[],23,,,,,,,,,,,,,
harvest,350,975507,0.0-104.0-1.0,,null,run_exp/static/images/task_images/gems/86.jpg,null,,,,,,71,,,23,,,,,86,0.826489627,0.825581395,,,,,,
decision,351,976552,0.0-104.0-2.0,,1043.32,run_exp/static/images/task_images/land.jpg,76,,,,,,71,,,23,,,,,,,,36124,3,1,TRUE,,
travel,352,985516,0.0-105.0-0.0,,,,,,,,,,,"[{""stimulus"":""run_exp/static/images/task_images/rocket-01.jpg"",""time"":0.13000000035390258},{""stimulus"":""run_exp/static/images/task_images/rocket-02.jpg"",""time"":1001.1650000014342},{""stimulus"":""run_exp/static/images/task_images/rocket-03.jpg"",""time"":1991.114999996964},{""stimulus"":""run_exp/static/images/task_images/rocket-04.jpg"",""time"":2991.2800000018906},{""stimulus"":""run_exp/static/images/task_images/rocket-05.jpg"",""time"":3986.1299999974435},{""stimulus"":""run_exp/static/images/task_images/rocket-06.jpg"",""time"":4980.739999999059},{""stimulus"":""run_exp/static/images/task_images/rocket-07.jpg"",""time"":5973.434999999823},{""stimulus"":""run_exp/static/images/task_images/rocket-08.jpg"",""time"":6971.095000000671},{""stimulus"":""run_exp/static/images/task_images/rocket-09.jpg"",""time"":7966.130000000587}]",[],23,,,,,,,,,,,,,
alien_welcome,353,990523,0.0-105.0-1.0,,null,run_exp/static/images/task_images/aliens/old_aliens/planet/alien_planet-25.jpg,null,,,,,,,,,,,,25,"29,28,52,8,62,22,67,78,64,10,46,77,31,13,4,12,35,63,72,65,80,33,3,25,38,70,73,21,59,40,74,27,14,2,43,71,75,15,32,16,66,30,44,34,79,48,51,1,26,61,20",,,,,,,,,
land,354,991026,0.0-105.0-2.0,,null,run_exp/static/images/task_images/land.jpg,null,,,,,,101,,,24,,,,,,,,,,,,,
dig,355,993031,0.0-105.0-3.0,,,,,,,,,,,"[{""stimulus"":""run_exp/static/images/task_images/dig.jpg"",""time"":0.24000000115484},{""stimulus"":""run_exp/static/images/task_images/land.jpg"",""time"":670.9999999948777},{""stimulus"":""run_exp/static/images/task_images/dig.jpg"",""time"":1338.0099999995437}]",[],24,,,,,,,,,,,,,
harvest,356,994037,0.0-105.0-4.0,,null,run_exp/static/images/task_images/gems/101.jpg,null,,,,,,51,,,24,,,,,101,0.502679226,0.504950495,,,,,,
decision,357,994690,0.0-105.0-5.0,,651.38,run_exp/static/images/task_images/land.jpg,76,,,,,,51,,,24,,,,,,,,54262,3,0,TRUE,,
travel,358,1004041,0.0-106.0-0.0,,,,,,,,,,,"[{""stimulus"":""run_exp/static/images/task_images/rocket-01.jpg"",""time"":0.13000000035390258},{""stimulus"":""run_exp/static/images/task_images/rocket-02.jpg"",""time"":1044.1050000007963},{""stimulus"":""run_exp/static/images/task_images/rocket-03.jpg"",""time"":2082.15999999817},{""stimulus"":""run_exp/static/images/task_images/rocket-04.jpg"",""time"":3117.224999994505},{""stimulus"":""run_exp/static/images/task_images/rocket-05.jpg"",""time"":4158.230000000913},{""stimulus"":""run_exp/static/images/task_images/rocket-06.jpg"",""time"":5193.419999995967},{""stimulus"":""run_exp/static/images/task_images/rocket-07.jpg"",""time"":6230.899999995017},{""stimulus"":""run_exp/static/images/task_images/rocket-08.jpg"",""time"":7267.849999996484},{""stimulus"":""run_exp/static/images/task_images/rocket-09.jpg"",""time"":8307.749999999884}]",[],24,,,,,,,,,,,,,
alien_welcome,359,1009047,0.0-106.0-1.0,,null,run_exp/static/images/task_images/aliens/old_aliens/planet/alien_planet-38.jpg,null,,,,,,,,,,,,38,"29,28,52,8,62,22,67,78,64,10,46,77,31,13,4,12,35,63,72,65,80,33,3,25,38,70,73,21,59,40,74,27,14,2,43,71,75,15,32,16,66,30,44,34,79,48,51,1,26,61,20",,,,,,,,,
land,360,1009554,0.0-106.0-2.0,,null,run_exp/static/images/task_images/land.jpg,null,,,,,,97,,,25,,,,,,,,,,,,,
dig,361,1011562,0.0-106.0-3.0,,,,,,,,,,,"[{""stimulus"":""run_exp/static/images/task_images/dig.jpg"",""time"":0.2300000051036477},{""stimulus"":""run_exp/static/images/task_images/land.jpg"",""time"":673.3450000029989},{""stimulus"":""run_exp/static/images/task_images/dig.jpg"",""time"":1340.300000003539}]",[],25,,,,,,,,,,,,,
harvest,362,1012564,0.0-106.0-4.0,,null,run_exp/static/images/task_images/gems/97.jpg,null,,,,,,47,,,25,,,,,97,0.483019929,0.484536082,,,,,,
decision,363,1015354,0.0-106.0-5.0,,2788.42,run_exp/static/images/task_images/land.jpg,65,,,,,,47,,,25,,,,,,,,74926,3,0,FALSE,,
dig,364,1015570,0.0-107.0-0.0,,,,,,,,,,,"[{""stimulus"":""run_exp/static/images/task_images/dig.jpg"",""time"":0.14999999990686774},{""stimulus"":""run_exp/static/images/task_images/land.jpg"",""time"":73.04999999911524},{""stimulus"":""run_exp/static/images/task_images/dig.jpg"",""time"":144.42499999864958}]",[],25,,,,,,,,,,,,,
harvest,365,1016573,0.0-107.0-1.0,,null,run_exp/static/images/task_images/gems/47.jpg,null,,,,,,24,,,25,,,,,47,0.500053182,0.510638298,,,,,,
decision,366,1017410,0.0-107.0-2.0,,835.61,run_exp/static/images/task_images/land.jpg,76,,,,,,24,,,25,,,,,,,,76982,3,1,TRUE,,
travel,367,1026577,0.0-108.0-0.0,,,,,,,,,,,"[{""stimulus"":""run_exp/static/images/task_images/rocket-01.jpg"",""time"":0.12499999871943146},{""stimulus"":""run_exp/static/images/task_images/rocket-02.jpg"",""time"":1021.3799999983748},{""stimulus"":""run_exp/static/images/task_images/rocket-03.jpg"",""time"":2039.9749999997439},{""stimulus"":""run_exp/static/images/task_images/rocket-04.jpg"",""time"":3057.319999999949},{""stimulus"":""run_exp/static/images/task_images/rocket-05.jpg"",""time"":4073.854999995092},{""stimulus"":""run_exp/static/images/task_images/rocket-06.jpg"",""time"":5094.054999994114},{""stimulus"":""run_exp/static/images/task_images/rocket-07.jpg"",""time"":6111.534999996307},{""stimulus"":""run_exp/static/images/task_images/rocket-08.jpg"",""time"":7129.634999997565},{""stimulus"":""run_exp/static/images/task_images/rocket-09.jpg"",""time"":8147.694999999716}]",[],25,,,,,,,,,,,,,
alien_welcome,368,1031582,0.0-108.0-1.0,,null,run_exp/static/images/task_images/aliens/old_aliens/planet/alien_planet-70.jpg,null,,,,,,,,,,,,70,"29,28,52,8,62,22,67,78,64,10,46,77,31,13,4,12,35,63,72,65,80,33,3,25,38,70,73,21,59,40,74,27,14,2,43,71,75,15,32,16,66,30,44,34,79,48,51,1,26,61,20",,,,,,,,,
land,369,1032085,0.0-108.0-2.0,,null,run_exp/static/images/task_images/land.jpg,null,,,,,,97,,,26,,,,,,,,,,,,,
dig,370,1034089,0.0-108.0-3.0,,,,,,,,,,,"[{""stimulus"":""run_exp/static/images/task_images/dig.jpg"",""time"":0.2300000051036477},{""stimulus"":""run_exp/static/images/task_images/land.jpg"",""time"":672.1450000042096},{""stimulus"":""run_exp/static/images/task_images/dig.jpg"",""time"":1340.360000001965}]",[],26,,,,,,,,,,,,,
harvest,371,1035094,0.0-108.0-4.0,,null,run_exp/static/images/task_images/gems/97.jpg,null,,,,,,49,,,26,,,,,97,0.509493442,0.505154639,,,,,,
decision,372,1035240,0.0-108.0-5.0,,144.245,run_exp/static/images/task_images/land.jpg,76,,,,,,49,,,26,,,,,,,,94812,3,0,TRUE,,
travel,373,1045104,0.0-109.0-0.0,,,,,,,,,,,"[{""stimulus"":""run_exp/static/images/task_images/rocket-01.jpg"",""time"":0.14999999979045242},{""stimulus"":""run_exp/static/images/task_images/rocket-02.jpg"",""time"":1101.2649999974528},{""stimulus"":""run_exp/static/images/task_images/rocket-03.jpg"",""time"":2196.2449999991804},{""stimulus"":""run_exp/static/images/task_images/rocket-04.jpg"",""time"":3291.545000000042},{""stimulus"":""run_exp/static/images/task_images/rocket-05.jpg"",""time"":4382.7999999994645},{""stimulus"":""run_exp/static/images/task_images/rocket-06.jpg"",""time"":5480.705000001821},{""stimulus"":""run_exp/static/images/task_images/rocket-07.jpg"",""time"":6570.914999996661},{""stimulus"":""run_exp/static/images/task_images/rocket-08.jpg"",""time"":7671.2249999982305},{""stimulus"":""run_exp/static/images/task_images/rocket-09.jpg"",""time"":8764.26999999967}]",[],26,,,,,,,,,,,,,
alien_welcome,374,1050111,0.0-109.0-1.0,,null,run_exp/static/images/task_images/aliens/old_aliens/planet/alien_planet-73.jpg,null,,,,,,,,,,,,73,"29,28,52,8,62,22,67,78,64,10,46,77,31,13,4,12,35,63,72,65,80,33,3,25,38,70,73,21,59,40,74,27,14,2,43,71,75,15,32,16,66,30,44,34,79,48,51,1,26,61,20",,,,,,,,,
land,375,1050618,0.0-109.0-2.0,,null,run_exp/static/images/task_images/land.jpg,null,,,,,,97,,,27,,,,,,,,,,,,,
dig,376,1052621,0.0-109.0-3.0,,,,,,,,,,,"[{""stimulus"":""run_exp/static/images/task_images/dig.jpg"",""time"":0.22500000335276127},{""stimulus"":""run_exp/static/images/task_images/land.jpg"",""time"":673.3800000001211},{""stimulus"":""run_exp/static/images/task_images/dig.jpg"",""time"":1336.7450000005774}]",[],27,,,,,,,,,,,,,
harvest,377,1053626,0.0-109.0-4.0,,null,run_exp/static/images/task_images/gems/97.jpg,null,,,,,,52,,,27,,,,,97,0.538390808,0.536082474,,,,,,
decision,378,1056383,0.0-109.0-5.0,,2755.665,run_exp/static/images/task_images/land.jpg,65,,,,,,52,,,27,,,,,,,,115956,3,0,FALSE,,
dig,379,1056633,0.0-110.0-0.0,,,,,,,,,,,"[{""stimulus"":""run_exp/static/images/task_images/dig.jpg"",""time"":0.14000000362284482},{""stimulus"":""run_exp/static/images/task_images/land.jpg"",""time"":87.19500000006519},{""stimulus"":""run_exp/static/images/task_images/dig.jpg"",""time"":164.17999999970198}]",[],27,,,,,,,,,,,,,
harvest,380,1057635,0.0-110.0-1.0,,null,run_exp/static/images/task_images/gems/52.jpg,null,,,,,,30,,,27,,,,,52,0.568068298,0.576923077,,,,,,
decision,381,1058616,0.0-110.0-2.0,,979.345,run_exp/static/images/task_images/land.jpg,76,,,,,,30,,,27,,,,,,,,118188,3,1,TRUE,,
travel,382,1067643,0.0-111.0-0.0,,,,,,,,,,,"[{""stimulus"":""run_exp/static/images/task_images/rocket-01.jpg"",""time"":0.14999999990686774},{""stimulus"":""run_exp/static/images/task_images/rocket-02.jpg"",""time"":1003.1299999973271},{""stimulus"":""run_exp/static/images/task_images/rocket-03.jpg"",""time"":2005.0249999985099},{""stimulus"":""run_exp/static/images/task_images/rocket-04.jpg"",""time"":3011.6149999957997},{""stimulus"":""run_exp/static/images/task_images/rocket-05.jpg"",""time"":4009.0199999976903},{""stimulus"":""run_exp/static/images/task_images/rocket-06.jpg"",""time"":5012.875000000233},{""stimulus"":""run_exp/static/images/task_images/rocket-07.jpg"",""time"":6014.52499999851},{""stimulus"":""run_exp/static/images/task_images/rocket-08.jpg"",""time"":7015.484999996144},{""stimulus"":""run_exp/static/images/task_images/rocket-09.jpg"",""time"":8017.439999995986}]",[],27,,,,,,,,,,,,,
alien_welcome,383,1072649,0.0-111.0-1.0,,null,run_exp/static/images/task_images/aliens/old_aliens/planet/alien_planet-21.jpg,null,,,,,,,,,,,,21,"29,28,52,8,62,22,67,78,64,10,46,77,31,13,4,12,35,63,72,65,80,33,3,25,38,70,73,21,59,40,74,27,14,2,43,71,75,15,32,16,66,30,44,34,79,48,51,1,26,61,20",,,,,,,,,
land,384,1073154,0.0-111.0-2.0,,null,run_exp/static/images/task_images/land.jpg,null,,,,,,105,,,28,,,,,,,,,,,,,
