trial_type,trial_index,time_elapsed,internal_node_id,interactions,blur_events,focus_events,fullscreenenter_events,fullscreenexit_events,success,rt,stimulus,key_press,prompt,subject_id,participant_id,age,gender,button_pressed,next_reward,animation_sequence,responses,planet,curr_prac_trial,n_prac_rounds,alien,aliens,reward_received,decay_rate_actual,decay_rate_exp,time_in_block,block_num,prt,last_trial_on_planet,button_html,bonus,num_failures
pavlovia,0,4,0.0-0.0,"""event"",""trial"",""time""
""fullscreenenter"",""1"",""101441""
","
","
","""event"",""trial"",""time""
""fullscreenenter"",""1"",""101441""
","
",,,,,,,,,,,,,,,,,,,,,,,,,,,,
fullscreen,1,102386,0.0-1.0,"""event"",""trial"",""time""
""fullscreenenter"",""1"",""101441""
","
","
","""event"",""trial"",""time""
""fullscreenenter"",""1"",""101441""
","
",TRUE,,,,,,,,,,,,,,,,,,,,,,,,,,,
instruc_welcome,2,113026,0.0-2.0,"""event"",""trial"",""time""
""fullscreenenter"",""1"",""101441""
","
","
","""event"",""trial"",""time""
""fullscreenenter"",""1"",""101441""
","
",,null,run_exp/static/audio/clip_1_welcome.m4a,null,"<p>Howdy! In this experiment, you’ll be an explorer traveling through space to collect space treasure.</p><p>Your mission is to collect as much treasure as possible.</p><br><br><p><img src='run_exp/static/images/task_images/opening_img-01.jpg' height='300' width='auto'></p>",9192,3944,25.73,Male,,,,,,,,,,,,,,,,,,,
audio-keyboard-response,3,129644,0.0-3.0,"""event"",""trial"",""time""
""fullscreenenter"",""1"",""101441""
","
","
","""event"",""trial"",""time""
""fullscreenenter"",""1"",""101441""
","
",,null,run_exp/static/audio/clip_2_move.m4a,null,,,,,,,,,,,,,,,,,,,,,,,,
welcome_dec,4,131194,0.0-4.0,"""event"",""trial"",""time""
""fullscreenenter"",""1"",""101441""
","
","
","""event"",""trial"",""time""
""fullscreenenter"",""1"",""101441""
","
",,1545.8,"<p>Howdy! In this experiment, you’ll be an explorer traveling through space to collect space treasure.</p><p>Your mission is to collect as much treasure as possible.</p><br><br><p><img src='run_exp/static/images/task_images/opening_img-01.jpg' height='300' width='auto'></p>",,,,,,,1,,,,,,,,,,,,,,,,,,
html-keyboard-response,5,131849,0.0-5.0,"""event"",""trial"",""time""
""fullscreenenter"",""1"",""101441""
","
","
","""event"",""trial"",""time""
""fullscreenenter"",""1"",""101441""
","
",,652.3,"<p>Howdy! In this experiment, you’ll be an explorer traveling through space to collect space treasure.</p><p>Your mission is to collect as much treasure as possible.</p><br><br><p><img src='run_exp/static/images/task_images/opening_img-01.jpg' height='300' width='auto'></p><button class=""jspsych-html-btn-unchosen""><img src=""run_exp/static/images/task_images/planet-01.jpg"" height=""50""></button><button class=""jspsych-html-btn-chosen""><img src=""run_exp/static/images/task_images/planet-02.jpg"" height=""50""></button><p><b>[press the space bar to lock in your answer]<b><br></p>",32,,,,,,,,,,,,,,,,,,,,,,,,
instruc_goal,6,141911,0.0-6.0-0.0,"""event"",""trial"",""time""
""fullscreenenter"",""1"",""101441""
","
","
","""event"",""trial"",""time""
""fullscreenenter"",""1"",""101441""
","
",,null,run_exp/static/audio/clip_3_goal.m4a,null,"<p> As a space explorer, you’ll visit different planets to dig for space treasure, these pink gems.</p> <p> The more treasure you dig up, the more bonus money you’ll win! </p><br><br><p><img src='run_exp/static/images/task_images/pink_gem.jpg' height='300' width='auto'></p>",,,,,,,,,,,,,,,,,,,,,,,
instruc_goal,7,143810,0.0-6.0-1.0,"""event"",""trial"",""time""
""fullscreenenter"",""1"",""101441""
","
","
","""event"",""trial"",""time""
""fullscreenenter"",""1"",""101441""
","
",,1896.9,"<p> As a space explorer, you’ll visit different planets to dig for space treasure, these pink gems.</p> <p> The more treasure you dig up, the more bonus money you’ll win! </p><br><br><p><img src='run_exp/static/images/task_images/pink_gem.jpg' height='300' width='auto'></p>",,,,,,,1,,,,,,,,,,,,,,,,,,
html-keyboard-response,8,144108,0.0-6.0-2.0,"""event"",""trial"",""time""
""fullscreenenter"",""1"",""101441""
","
","
","""event"",""trial"",""time""
""fullscreenenter"",""1"",""101441""
","
",,297.1,"<p> As a space explorer, you’ll visit different planets to dig for space treasure, these pink gems.</p> <p> The more treasure you dig up, the more bonus money you’ll win! </p><br><br><p><img src='run_exp/static/images/task_images/pink_gem.jpg' height='300' width='auto'></p><button class=""jspsych-html-btn-unchosen""><img src=""run_exp/static/images/task_images/planet-01.jpg"" height=""50""></button><button class=""jspsych-html-btn-chosen""><img src=""run_exp/static/images/task_images/planet-02.jpg"" height=""50""></button><p><b>[press the space bar to lock in your answer]<b><br></p>",32,,,,,,,,,,,,,,,,,,,,,,,,
instruc_dig,9,160129,0.0-7.0-0.0,"""event"",""trial"",""time""
""fullscreenenter"",""1"",""101441""
","
","
","""event"",""trial"",""time""
""fullscreenenter"",""1"",""101441""
","
",,null,run_exp/static/audio/clip_4_dig.m4a,null,,,,,,,100,,,,,,,,,,,,,,,,,
instruc_dig_try,10,160429,0.0-7.0-1.0,"""event"",""trial"",""time""
""fullscreenenter"",""1"",""101441""
","
","
","""event"",""trial"",""time""
""fullscreenenter"",""1"",""101441""
","
",,298.3,"<p> When you’ve arrived at a new planet, you will dig once. </p> <p>Then, you get to decide if you want to stay on the planet and dig again or travel to a new planet and dig there.</p> <p> To stay and dig, press the letter <strong>‘A’</strong> on your keyboard. Try pressing it now! </p><p><img src='run_exp/static/images/task_images/land.jpg'  height='700' width='auto'></p>",65,"<p> When you’ve arrived at a new planet, you will dig once. </p> <p>Then, you get to decide if you want to stay on the planet and dig again or travel to a new planet and dig there.</p> <p> To stay and dig, press the letter <strong>‘A’</strong> on your keyboard. Try pressing it now! </p><p><img src='run_exp/static/images/task_images/land.jpg'  height='700' width='auto'></p>",,,,,,100,,,,,,,,,,,,,,,,,
dig_prac,11,162478,0.0-7.0-2.0,"""event"",""trial"",""time""
""fullscreenenter"",""1"",""101441""
","
","
","""event"",""trial"",""time""
""fullscreenenter"",""1"",""101441""
","
",,,,,,,,,,,,"[{""stimulus"":""run_exp/static/images/task_images/dig.jpg"",""time"":0.30000001192092896},{""stimulus"":""run_exp/static/images/task_images/land.jpg"",""time"":670.6999999880791},{""stimulus"":""run_exp/static/images/task_images/dig.jpg"",""time"":1339.4000000357628}]",[],,,,,,,,,,,,,,,
instruc_travel,12,198737,0.0-7.0-3.0,"""event"",""trial"",""time""
""fullscreenenter"",""1"",""101441""
","
","
","""event"",""trial"",""time""
""fullscreenenter"",""1"",""101441""
","
",,null,run_exp/static/audio/clip_5_travel.m4a,null,"<p>Every time you dig up gems, there are less gems on the planet, so the more you dig on a planet the fewer gems you’ll get with each dig.</p><p>When gems are running low, you may want to travel to a new planet. </p> <p>  Planets are very far apart in this galaxy, so it will take some time to travel between them. </p> <br><p>There are lots and lots of planets for you to visit, so you won’t be able to return to any planets you’ve seen before. </p><br><p>To leave this planet and travel to a new one, press the letter <strong>‘L’</strong> on your keyboard. Try pressing it now! </p><p><img src='run_exp/static/images/task_images/rocket-01.jpg'  height='600' width='auto'></p>",,,,,,,,,,,,,,,,,,,,,,,
instruc_travel_try,13,199352,0.0-7.0-4.0,"""event"",""trial"",""time""
""fullscreenenter"",""1"",""101441""
","
","
","""event"",""trial"",""time""
""fullscreenenter"",""1"",""101441""
","
",,613.6,"<p>Every time you dig up gems, there are less gems on the planet, so the more you dig on a planet the fewer gems you’ll get with each dig.</p><p>When gems are running low, you may want to travel to a new planet. </p> <p>  Planets are very far apart in this galaxy, so it will take some time to travel between them. </p> <br><p>There are lots and lots of planets for you to visit, so you won’t be able to return to any planets you’ve seen before. </p><br><p>To leave this planet and travel to a new one, press the letter <strong>‘L’</strong> on your keyboard. Try pressing it now! </p><p><img src='run_exp/static/images/task_images/rocket-01.jpg'  height='600' width='auto'></p>",76,"<p>Every time you dig up gems, there are less gems on the planet, so the more you dig on a planet the fewer gems you’ll get with each dig.</p><p>When gems are running low, you may want to travel to a new planet. </p> <p>  Planets are very far apart in this galaxy, so it will take some time to travel between them. </p> <br><p>There are lots and lots of planets for you to visit, so you won’t be able to return to any planets you’ve seen before. </p><br><p>To leave this planet and travel to a new one, press the letter <strong>‘L’</strong> on your keyboard. Try pressing it now! </p><p><img src='run_exp/static/images/task_images/rocket-01.jpg'  height='600' width='auto'></p>",,,,,,,,,,,,,,,,,,,,,,,
travel_prac,14,209359,0.0-7.0-5.0,"""event"",""trial"",""time""
""fullscreenenter"",""1"",""101441""
","
","
","""event"",""trial"",""time""
""fullscreenenter"",""1"",""101441""
","
",,,,,,,,,,,,"[{""stimulus"":""run_exp/static/images/task_images/rocket-01.jpg"",""time"":0.30000001192092896},{""stimulus"":""run_exp/static/images/task_images/rocket-02.jpg"",""time"":1119.5},{""stimulus"":""run_exp/static/images/task_images/rocket-03.jpg"",""time"":2226.2000000476837},{""stimulus"":""run_exp/static/images/task_images/rocket-04.jpg"",""time"":3340.100000023842},{""stimulus"":""run_exp/static/images/task_images/rocket-05.jpg"",""time"":4447.600000023842},{""stimulus"":""run_exp/static/images/task_images/rocket-06.jpg"",""time"":5557.300000011921},{""stimulus"":""run_exp/static/images/task_images/rocket-07.jpg"",""time"":6677.400000035763},{""stimulus"":""run_exp/static/images/task_images/rocket-08.jpg"",""time"":7785.800000011921},{""stimulus"":""run_exp/static/images/task_images/rocket-09.jpg"",""time"":8895.700000047684}]",[],0,,,,,,,,,,,,,,
instruc_alien_greet,15,236578,0.0-7.0-6.0,"""event"",""trial"",""time""
""fullscreenenter"",""1"",""101441""
","
","
","""event"",""trial"",""time""
""fullscreenenter"",""1"",""101441""
","
",,null,run_exp/static/audio/clip_6_alien.m4a,null,"<p>When you arrive at a new planet, the alien who owns the treasure mine on that planet will greet you!</p><p>The better an alien takes care of their mine the easier it is to dig for gems. Some aliens take better care of their mine than others. So, you won’t get exactly the same amount of gems on each planet.</p><p>What the alien looks like does not tell you anything about how many gems there are on the planet.</p><br><p><img src=""run_exp/static/images/task_images/aliens/instructions_aliens/planet/alien_planet-1.jpg""  height=""600"" width=""auto""></p>",,,,,,,,,,,,,,,,,,,,,,,
instruc_alien_greet,16,239611,0.0-7.0-7.0,"""event"",""trial"",""time""
""fullscreenenter"",""1"",""101441""
","
","
","""event"",""trial"",""time""
""fullscreenenter"",""1"",""101441""
","
",,3027.4,"<p>When you arrive at a new planet, the alien who owns the treasure mine on that planet will greet you!</p><p>The better an alien takes care of their mine the easier it is to dig for gems. Some aliens take better care of their mine than others. So, you won’t get exactly the same amount of gems on each planet.</p><p>What the alien looks like does not tell you anything about how many gems there are on the planet.</p><br><p><img src=""run_exp/static/images/task_images/aliens/instructions_aliens/planet/alien_planet-1.jpg""  height=""600"" width=""auto""></p>",,,,,,,1,,,,,,,,,,,,,,,,,,
html-keyboard-response,17,240318,0.0-7.0-8.0,"""event"",""trial"",""time""
""fullscreenenter"",""1"",""101441""
","
","
","""event"",""trial"",""time""
""fullscreenenter"",""1"",""101441""
","
",,705.3,"<p>When you arrive at a new planet, the alien who owns the treasure mine on that planet will greet you!</p><p>The better an alien takes care of their mine the easier it is to dig for gems. Some aliens take better care of their mine than others. So, you won’t get exactly the same amount of gems on each planet.</p><p>What the alien looks like does not tell you anything about how many gems there are on the planet.</p><br><p><img src=""run_exp/static/images/task_images/aliens/instructions_aliens/planet/alien_planet-1.jpg""  height=""600"" width=""auto""></p><button class=""jspsych-html-btn-unchosen""><img src=""run_exp/static/images/task_images/planet-01.jpg"" height=""50""></button><button class=""jspsych-html-btn-chosen""><img src=""run_exp/static/images/task_images/planet-02.jpg"" height=""50""></button><p><b>[press the space bar to lock in your answer]<b><br></p>",32,,,,,,,,,,,,,,,,,,,,,,,,
time_out,18,251428,0.0-8.0-0.0,"""event"",""trial"",""time""
""fullscreenenter"",""1"",""101441""
","
","
","""event"",""trial"",""time""
""fullscreenenter"",""1"",""101441""
","
",,null,run_exp/static/audio/clip_7_timeout.m4a,null,"<p>If you don't make your choice fast enough, you’ll have to wait a few seconds before you can make another one.</p><p>You can’t dig for more gems or travel to new planets. You just have to sit and wait.</p><br><p><img src='run_exp/static/images/task_images/time_out.jpg'  height='600' width='auto'></p>",,,,,,,,,,,,,,,,,,,,,,,
time_out,19,252494,0.0-8.0-1.0,"""event"",""trial"",""time""
""fullscreenenter"",""1"",""101441""
","
","
","""event"",""trial"",""time""
""fullscreenenter"",""1"",""101441""
","
",,1064.5,"<p>If you don't make your choice fast enough, you’ll have to wait a few seconds before you can make another one.</p><p>You can’t dig for more gems or travel to new planets. You just have to sit and wait.</p><br><p><img src='run_exp/static/images/task_images/time_out.jpg'  height='600' width='auto'></p>",,,,,,,1,,,,,,,,,,,,,,,,,,
html-keyboard-response,20,253057,0.0-8.0-2.0,"""event"",""trial"",""time""
""fullscreenenter"",""1"",""101441""
","
","
","""event"",""trial"",""time""
""fullscreenenter"",""1"",""101441""
","
",,562.3,"<p>If you don't make your choice fast enough, you’ll have to wait a few seconds before you can make another one.</p><p>You can’t dig for more gems or travel to new planets. You just have to sit and wait.</p><br><p><img src='run_exp/static/images/task_images/time_out.jpg'  height='600' width='auto'></p><button class=""jspsych-html-btn-unchosen""><img src=""run_exp/static/images/task_images/planet-01.jpg"" height=""50""></button><button class=""jspsych-html-btn-chosen""><img src=""run_exp/static/images/task_images/planet-02.jpg"" height=""50""></button><p><b>[press the space bar to lock in your answer]<b><br></p>",32,,,,,,,,,,,,,,,,,,,,,,,,
instruc_break,21,268751,0.0-9.0-0.0,"""event"",""trial"",""time""
""fullscreenenter"",""1"",""101441""
","
","
","""event"",""trial"",""time""
""fullscreenenter"",""1"",""101441""
","
",,null,run_exp/static/audio/clip_8_break.m4a,null,"<p> After digging and traveling for a while, you’ll be able to take a break at home base. </p><p>The game will last 20 minutes no matter what.</p><p>You will visit home base every 5 minutes, so, you will visit home base three times during the game.</p><br><p><img src='run_exp/static/images/task_images/home_base.jpg' height='600' width='auto'></p>",,,,,,,,,,,,,,,,,,,,,,,
instruc_break,22,270639,0.0-9.0-1.0,"""event"",""trial"",""time""
""fullscreenenter"",""1"",""101441""
","
","
","""event"",""trial"",""time""
""fullscreenenter"",""1"",""101441""
","
",,1886.2,"<p> After digging and traveling for a while, you’ll be able to take a break at home base. </p><p>The game will last 20 minutes no matter what.</p><p>You will visit home base every 5 minutes, so, you will visit home base three times during the game.</p><br><p><img src='run_exp/static/images/task_images/home_base.jpg' height='600' width='auto'></p>",,,,,,,1,,,,,,,,,,,,,,,,,,
html-keyboard-response,23,271324,0.0-9.0-2.0,"""event"",""trial"",""time""
""fullscreenenter"",""1"",""101441""
","
","
","""event"",""trial"",""time""
""fullscreenenter"",""1"",""101441""
","
",,683.2,"<p> After digging and traveling for a while, you’ll be able to take a break at home base. </p><p>The game will last 20 minutes no matter what.</p><p>You will visit home base every 5 minutes, so, you will visit home base three times during the game.</p><br><p><img src='run_exp/static/images/task_images/home_base.jpg' height='600' width='auto'></p><button class=""jspsych-html-btn-unchosen""><img src=""run_exp/static/images/task_images/planet-01.jpg"" height=""50""></button><button class=""jspsych-html-btn-chosen""><img src=""run_exp/static/images/task_images/planet-02.jpg"" height=""50""></button><p><b>[press the space bar to lock in your answer]<b><br></p>",32,,,,,,,,,,,,,,,,,,,,,,,,
instruc_prac_game,24,281442,0.0-10.0-0.0,"""event"",""trial"",""time""
""fullscreenenter"",""1"",""101441""
","
","
","""event"",""trial"",""time""
""fullscreenenter"",""1"",""101441""
","
",,null,run_exp/static/audio/clip_9_practice.m4a,null,"<p> Are you ready to play a practice game? </p> <p>In this practice game, you'll be digging up barrels of gems. But, in the real game, you'll be digging up the gems themselves. </p>",,,,,,,,,,,,,,,,,,,,,,,
html-button-response,25,284504,0.0-10.0-1.0,"""event"",""trial"",""time""
""fullscreenenter"",""1"",""101441""
","
","
","""event"",""trial"",""time""
""fullscreenenter"",""1"",""101441""
","
",,3060.5,"<p> Are you ready to play a practice game? </p> <p>In this practice game, you'll be digging up barrels of gems. But, in the real game, you'll be digging up the gems themselves. </p>",,,,,,,0,,,,,,,,,,,,,,,,,,
alien_welcome_prac,26,289518,0.0-11.0-0.0,"""event"",""trial"",""time""
""fullscreenenter"",""1"",""101441""
","
","
","""event"",""trial"",""time""
""fullscreenenter"",""1"",""101441""
","
",,null,run_exp/static/images/task_images/aliens/practice_aliens/planet/alien_planet-5.jpg,null,,,,,,,,,,,,,,,,,,,,,,,,
land_prac,27,290027,0.0-11.0-1.0,"""event"",""trial"",""time""
""fullscreenenter"",""1"",""101441""
","
","
","""event"",""trial"",""time""
""fullscreenenter"",""1"",""101441""
","
",,null,run_exp/static/images/task_images/land.jpg,null,,,,,,,100,,,0,,,,,,,,,,,,,,
dig_prac,28,292043,0.0-11.0-2.0,"""event"",""trial"",""time""
""fullscreenenter"",""1"",""101441""
","
","
","""event"",""trial"",""time""
""fullscreenenter"",""1"",""101441""
","
",,,,,,,,,,,,"[{""stimulus"":""run_exp/static/images/task_images/dig.jpg"",""time"":0.19999998807907104},{""stimulus"":""run_exp/static/images/task_images/land.jpg"",""time"":669.8999999761581},{""stimulus"":""run_exp/static/images/task_images/dig.jpg"",""time"":1340.8999999761581}]",[],,,,,,,,,,,,,,,
harvest_prac,29,293046,0.0-11.0-3.0,"""event"",""trial"",""time""
""fullscreenenter"",""1"",""101441""
","
","
","""event"",""trial"",""time""
""fullscreenenter"",""1"",""101441""
","
",,null,run_exp/static/images/task_images/barrel_text.jpg,null,,,,,,,,,,,,,,,,,,,,,,,,
decision_prac,30,293582,0.0-11.0-4.0,"""event"",""trial"",""time""
""fullscreenenter"",""1"",""101441""
","
","
","""event"",""trial"",""time""
""fullscreenenter"",""1"",""101441""
","
",,534.8,run_exp/static/images/task_images/land.jpg,65,,,,,,,,,,,1,,,,,,,,,,,,,
dig_prac,31,295595,0.0-12.0-0.0,"""event"",""trial"",""time""
""fullscreenenter"",""1"",""101441""
","
","
","""event"",""trial"",""time""
""fullscreenenter"",""1"",""101441""
","
",,,,,,,,,,,,"[{""stimulus"":""run_exp/static/images/task_images/dig.jpg"",""time"":0.30000001192092896},{""stimulus"":""run_exp/static/images/task_images/land.jpg"",""time"":672.3999999761581},{""stimulus"":""run_exp/static/images/task_images/dig.jpg"",""time"":1339.3999999761581}]",[],,,,,,,,,,,,,,,
harvest_prac,32,296599,0.0-12.0-1.0,"""event"",""trial"",""time""
""fullscreenenter"",""1"",""101441""
","
","
","""event"",""trial"",""time""
""fullscreenenter"",""1"",""101441""
","
",,null,run_exp/static/images/task_images/barrel_text.jpg,null,,,,,,,,,,,,,,,,,,,,,,,,
decision_prac,33,298034,0.0-12.0-2.0,"""event"",""trial"",""time""
""fullscreenenter"",""1"",""101441""
","
","
","""event"",""trial"",""time""
""fullscreenenter"",""1"",""101441""
","
",,1434.3,run_exp/static/images/task_images/land.jpg,65,,,,,,,,,,,2,,,,,,,,,,,,,
dig_prac,34,300052,0.0-13.0-0.0,"""event"",""trial"",""time""
""fullscreenenter"",""1"",""101441""
","
","
","""event"",""trial"",""time""
""fullscreenenter"",""1"",""101441""
","
",,,,,,,,,,,,"[{""stimulus"":""run_exp/static/images/task_images/dig.jpg"",""time"":0.19999998807907104},{""stimulus"":""run_exp/static/images/task_images/land.jpg"",""time"":668.5},{""stimulus"":""run_exp/static/images/task_images/dig.jpg"",""time"":1341.199999988079}]",[],,,,,,,,,,,,,,,
harvest_prac,35,301064,0.0-13.0-1.0,"""event"",""trial"",""time""
""fullscreenenter"",""1"",""101441""
","
","
","""event"",""trial"",""time""
""fullscreenenter"",""1"",""101441""
","
",,null,run_exp/static/images/task_images/barrel_text.jpg,null,,,,,,,,,,,,,,,,,,,,,,,,
decision_prac,36,301785,0.0-13.0-2.0,"""event"",""trial"",""time""
""fullscreenenter"",""1"",""101441""
","
","
","""event"",""trial"",""time""
""fullscreenenter"",""1"",""101441""
","
",,719.2,run_exp/static/images/task_images/land.jpg,65,,,,,,,,,,,3,,,,,,,,,,,,,
dig_prac,37,303796,0.0-14.0-0.0,"""event"",""trial"",""time""
""fullscreenenter"",""1"",""101441""
","
","
","""event"",""trial"",""time""
""fullscreenenter"",""1"",""101441""
","
",,,,,,,,,,,,"[{""stimulus"":""run_exp/static/images/task_images/dig.jpg"",""time"":0.09999996423721313},{""stimulus"":""run_exp/static/images/task_images/land.jpg"",""time"":674.0999999642372},{""stimulus"":""run_exp/static/images/task_images/dig.jpg"",""time"":1345.5999999642372}]",[],,,,,,,,,,,,,,,
harvest_prac,38,304807,0.0-14.0-1.0,"""event"",""trial"",""time""
""fullscreenenter"",""1"",""101441""
","
","
","""event"",""trial"",""time""
""fullscreenenter"",""1"",""101441""
","
",,null,run_exp/static/images/task_images/barrel_text.jpg,null,,,,,,,,,,,,,,,,,,,,,,,,
decision_prac,39,306608,0.0-14.0-2.0,"""event"",""trial"",""time""
""fullscreenenter"",""1"",""101441""
","
","
","""event"",""trial"",""time""
""fullscreenenter"",""1"",""101441""
","
",,1799.7,run_exp/static/images/task_images/land.jpg,65,,,,,,,,,,,4,,,,,,,,,,,,,
dig_prac,40,308627,0.0-15.0-0.0,"""event"",""trial"",""time""
""fullscreenenter"",""1"",""101441""
","
","
","""event"",""trial"",""time""
""fullscreenenter"",""1"",""101441""
","
",,,,,,,,,,,,"[{""stimulus"":""run_exp/static/images/task_images/dig.jpg"",""time"":0.19999998807907104},{""stimulus"":""run_exp/static/images/task_images/land.jpg"",""time"":671.9000000357628},{""stimulus"":""run_exp/static/images/task_images/dig.jpg"",""time"":1344.300000011921}]",[],,,,,,,,,,,,,,,
harvest_prac,41,309637,0.0-15.0-1.0,"""event"",""trial"",""time""
""fullscreenenter"",""1"",""101441""
","
","
","""event"",""trial"",""time""
""fullscreenenter"",""1"",""101441""
","
",,null,run_exp/static/images/task_images/barrel_text.jpg,null,,,,,,,,,,,,,,,,,,,,,,,,
decision_prac,42,310313,0.0-15.0-2.0,"""event"",""trial"",""time""
""fullscreenenter"",""1"",""101441""
","
","
","""event"",""trial"",""time""
""fullscreenenter"",""1"",""101441""
","
",,674.8,run_exp/static/images/task_images/land.jpg,65,,,,,,,,,,,,1,,,,,,,,,,,,
quiz_instruc,43,313658,0.0-16.0-0.0,"""event"",""trial"",""time""
""fullscreenenter"",""1"",""101441""
","
","
","""event"",""trial"",""time""
""fullscreenenter"",""1"",""101441""
","
",,3341.7,run_exp/static/audio/clip_10_quiz.m4a,,,,,,,0,,,,,,,,,,,,,,,,,,
instruc_repeat,44,356437,0.0-16.0-1.0,"""event"",""trial"",""time""
""fullscreenenter"",""1"",""101441""
","
","
","""event"",""trial"",""time""
""fullscreenenter"",""1"",""101441""
","
",,null,"<p> Are you ready to play a practice game? </p> <p>In this practice game, you'll be digging up barrels of gems. But, in the real game, you'll be digging up the gems themselves. </p>",null,"<p>In this game, your goal is to collect as many gems as you can. That’s how you will win bonus money. </p> <p>The entire game will last 20 minutes no matter how many gems you collect or how many planets you visit. </p><p>To stay on a planet and dig again, press the letter A on your keyboard. To leave for a new planet, press the letter L.</p><p>The more you dig on a planet, the fewer gems you’ll get with each dig which is why you might consider leaving for a new planet. </p><p>When you arrive at a new planet, you’ll be greeted by an alien. What the alien looks like does not tell you anything about how much treasure is on the planet. </p>",,,,,,,,,,,,,,,,,,,,,,,
instruc_repeat_continue,45,358757,0.0-16.0-2.0,"""event"",""trial"",""time""
""fullscreenenter"",""1"",""101441""
","
","
","""event"",""trial"",""time""
""fullscreenenter"",""1"",""101441""
","
",,2319.1,"<p> Are you ready to play a practice game? </p> <p>In this practice game, you'll be digging up barrels of gems. But, in the real game, you'll be digging up the gems themselves. </p>",,,,,,,0,,,,,,,,,,,,,,,,,,
quiz_q_1_ask,46,361130,0.0-16.0-3.0,"""event"",""trial"",""time""
""fullscreenenter"",""1"",""101441""
","
","
","""event"",""trial"",""time""
""fullscreenenter"",""1"",""101441""
","
",,2371.3,run_exp/static/audio/clip_11_q1_ask.m4a,,,,,,,2,,,,,,,,,,,,,,,,,,
quiz_q_1_fb_correct,47,364990,0.0-17.0-0.0,"""event"",""trial"",""time""
""fullscreenenter"",""1"",""101441""
","
","
","""event"",""trial"",""time""
""fullscreenenter"",""1"",""101441""
","
",,null,run_exp/static/audio/clip_12_q1_correct.m4a,null,<p>That’s correct. You win extra money by collecting more gems.</p>,,,,,,,,,,,,,,,,,,,,,,,
quiz_q_2_ask,48,366571,0.0-17.0-1.0,"""event"",""trial"",""time""
""fullscreenenter"",""1"",""101441""
","
","
","""event"",""trial"",""time""
""fullscreenenter"",""1"",""101441""
","
",,1578.8,run_exp/static/audio/clip_14_q2_ask.m4a,,,,,,,1,,,,,,,,,,,,,,,,,,
quiz_q_2_fb_correct,49,370579,0.0-18.0-0.0,"""event"",""trial"",""time""
""fullscreenenter"",""1"",""101441""
","
","
","""event"",""trial"",""time""
""fullscreenenter"",""1"",""101441""
","
",,null,run_exp/static/audio/clip_15_q2_correct.m4a,null,<p>That’s correct. The experiment is 20 minutes no matter what.</p>,,,,,,,,,,,,,,,,,,,,,,,
quiz_q_3_ask,50,372748,0.0-18.0-1.0,"""event"",""trial"",""time""
""fullscreenenter"",""1"",""101441""
","
","
","""event"",""trial"",""time""
""fullscreenenter"",""1"",""101441""
","
",,2166.3,run_exp/static/audio/clip_17_q3_ask.m4a,,,,,,,1,,,,,,,,,,,,,,,,,,
quiz_q_3_fb_correct,51,376744,0.0-19.0-0.0,"""event"",""trial"",""time""
""fullscreenenter"",""1"",""101441""
","
","
","""event"",""trial"",""time""
""fullscreenenter"",""1"",""101441""
","
",,null,run_exp/static/audio/clip_18_q3_correct.m4a,null,<p> That’s correct. You press the letter L to travel to a new planet.</p>,,,,,,,,,,,,,,,,,,,,,,,
quiz_q_4_ask,52,380361,0.0-19.0-1.0,"""event"",""trial"",""time""
""fullscreenenter"",""1"",""101441""
","
","
","""event"",""trial"",""time""
""fullscreenenter"",""1"",""101441""
","
",,3614.8,run_exp/static/audio/clip_20_q4_ask.m4a,,,,,,,0,,,,,,,,,,,,,,,,,,
quiz_q_4_fb_correct,53,385683,0.0-20.0-0.0,"""event"",""trial"",""time""
""fullscreenenter"",""1"",""101441""
","
","
","""event"",""trial"",""time""
""fullscreenenter"",""1"",""101441""
","
",,null,run_exp/static/audio/clip_21_q4_correct.m4a,null,<p> That’s correct. The more you dig on a planet the fewer gems you’ll get with each dig. </p>,,,,,,,,,,,,,,,,,,,,,,,
quiz_q_5_ask,54,388281,0.0-20.0-1.0,"""event"",""trial"",""time""
""fullscreenenter"",""1"",""101441""
","
","
","""event"",""trial"",""time""
""fullscreenenter"",""1"",""101441""
","
",,2594.5,run_exp/static/audio/clip_23_q5_ask.m4a,,,,,,,1,,,,,,,,,,,,,,,,,,
quiz_q_5_fb_correct,55,393278,0.0-21.0-0.0,"""event"",""trial"",""time""
""fullscreenenter"",""1"",""101441""
","
","
","""event"",""trial"",""time""
""fullscreenenter"",""1"",""101441""
","
",,null,run_exp/static/audio/clip_24_q5_correct.m4a,null,<p> That’s correct. The alien tells you nothing about how much treasure is on the planet.</p>,,,,,,,,,,,,,,,,,,,,,,,
quiz_correct,56,396756,0.0-22.0-0.0,"""event"",""trial"",""time""
""fullscreenenter"",""1"",""101441""
","
","
","""event"",""trial"",""time""
""fullscreenenter"",""1"",""101441""
","
",,null,run_exp/static/audio/clip_26_correct_quiz.m4a,null,,,,,,,,,,,,,,,,,,,,,,,,
quiz_correct_continue,57,397693,0.0-22.0-1.0,"""event"",""trial"",""time""
""fullscreenenter"",""1"",""101441""
","
","
","""event"",""trial"",""time""
""fullscreenenter"",""1"",""101441""
","
",,936,<p>Good job! You're now ready to move on to the real game!</p>,,,,,,,0,,,,,,,,,,,,,,,,,,
audio-keyboard-response,58,407827,0.0-22.0-2.0,"""event"",""trial"",""time""
""fullscreenenter"",""1"",""101441""
","
","
","""event"",""trial"",""time""
""fullscreenenter"",""1"",""101441""
","
",,null,run_exp/static/audio/clip_28_real_game.m4a,null,,,,,,,,,,,,,,,,,,,,,,,,
instruc_begin_exp_contine,59,409098,0.0-22.0-3.0,"""event"",""trial"",""time""
""fullscreenenter"",""1"",""101441""
","
","
","""event"",""trial"",""time""
""fullscreenenter"",""1"",""101441""
","
",,1268.6,"<p>Now that you know how  to dig for space treasure and travel to new planets,you can start exploring! </p><p>Do you want to go over the instructions again or get started with the real game?</p>",,,,,,,1,,,,,,1,,,,,,,,,,,,
alien_welcome,60,414108,0.0-23.0-0.0,"""event"",""trial"",""time""
""fullscreenenter"",""1"",""101441""
","
","
","""event"",""trial"",""time""
""fullscreenenter"",""1"",""101441""
","
",,null,run_exp/static/images/task_images/aliens/old_aliens/planet/alien_planet-15.jpg,null,,,,,,,,,,,,,15,"15,54,23,19,79,61,31,24,20,75,5,52,2,11,57,58,74,56,3,71,35,39,65,21,6,73",,,,,,,,,,
land,61,414619,0.0-23.0-1.0,"""event"",""trial"",""time""
""fullscreenenter"",""1"",""101441""
","
","
","""event"",""trial"",""time""
""fullscreenenter"",""1"",""101441""
","
",,null,run_exp/static/images/task_images/land.jpg,null,,,,,,,100,,,1,,,,,,,,,,,,,,
dig,62,416625,0.0-23.0-2.0,"""event"",""trial"",""time""
""fullscreenenter"",""1"",""101441""
","
","
","""event"",""trial"",""time""
""fullscreenenter"",""1"",""101441""
","
",,,,,,,,,,,,"[{""stimulus"":""run_exp/static/images/task_images/dig.jpg"",""time"":0.19999998807907104},{""stimulus"":""run_exp/static/images/task_images/land.jpg"",""time"":672.5},{""stimulus"":""run_exp/static/images/task_images/dig.jpg"",""time"":1344.699999988079}]",[],1,,,,,,,,,,,,,,
harvest,63,417645,0.0-23.0-3.0,"""event"",""trial"",""time""
""fullscreenenter"",""1"",""101441""
","
","
","""event"",""trial"",""time""
""fullscreenenter"",""1"",""101441""
","
",,null,run_exp/static/images/task_images/gems/100.jpg,null,,,,,,,34,,,1,,,,,100,0.342569182,0.34,,,,,,,
decision,64,418312,0.0-23.0-4.0,"""event"",""trial"",""time""
""fullscreenenter"",""1"",""101441""
","
","
","""event"",""trial"",""time""
""fullscreenenter"",""1"",""101441""
","
",,665.6,run_exp/static/images/task_images/land.jpg,65,,,,,,,34,,,1,,,,,,,,9214,1,0,FALSE,,,
dig,65,420650,0.0-24.0-0.0,"""event"",""trial"",""time""
""fullscreenenter"",""1"",""101441""
","
","
","""event"",""trial"",""time""
""fullscreenenter"",""1"",""101441""
","
",,,,,,,,,,,,"[{""stimulus"":""run_exp/static/images/task_images/dig.jpg"",""time"":0.19999998807907104},{""stimulus"":""run_exp/static/images/task_images/land.jpg"",""time"":788.5999999642372},{""stimulus"":""run_exp/static/images/task_images/dig.jpg"",""time"":1557}]",[],1,,,,,,,,,,,,,,
harvest,66,421653,0.0-24.0-1.0,"""event"",""trial"",""time""
""fullscreenenter"",""1"",""101441""
","
","
","""event"",""trial"",""time""
""fullscreenenter"",""1"",""101441""
","
",,null,run_exp/static/images/task_images/gems/34.jpg,null,,,,,,,10,,,1,,,,,34,0.296198277,0.294117647,,,,,,,
decision,67,422870,0.0-24.0-2.0,"""event"",""trial"",""time""
""fullscreenenter"",""1"",""101441""
","
","
","""event"",""trial"",""time""
""fullscreenenter"",""1"",""101441""
","
",,1215.6,run_exp/static/images/task_images/land.jpg,65,,,,,,,10,,,1,,,,,,,,13771,1,1,FALSE,,,
dig,68,424663,0.0-25.0-0.0,"""event"",""trial"",""time""
""fullscreenenter"",""1"",""101441""
","
","
","""event"",""trial"",""time""
""fullscreenenter"",""1"",""101441""
","
",,,,,,,,,,,,"[{""stimulus"":""run_exp/static/images/task_images/dig.jpg"",""time"":0.30000001192092896},{""stimulus"":""run_exp/static/images/task_images/land.jpg"",""time"":604.3000000119209},{""stimulus"":""run_exp/static/images/task_images/dig.jpg"",""time"":1191}]",[],1,,,,,,,,,,,,,,
harvest,69,425665,0.0-25.0-1.0,"""event"",""trial"",""time""
""fullscreenenter"",""1"",""101441""
","
","
","""event"",""trial"",""time""
""fullscreenenter"",""1"",""101441""
","
",,null,run_exp/static/images/task_images/gems/10.jpg,null,,,,,,,3,,,1,,,,,10,0.259854009,0.3,,,,,,,
decision,70,427420,0.0-25.0-2.0,"""event"",""trial"",""time""
""fullscreenenter"",""1"",""101441""
","
","
","""event"",""trial"",""time""
""fullscreenenter"",""1"",""101441""
","
",,1753.8,run_exp/static/images/task_images/land.jpg,65,,,,,,,3,,,1,,,,,,,,18321,1,2,FALSE,,,
dig,71,428671,0.0-26.0-0.0,"""event"",""trial"",""time""
""fullscreenenter"",""1"",""101441""
","
","
","""event"",""trial"",""time""
""fullscreenenter"",""1"",""101441""
","
",,,,,,,,,,,,"[{""stimulus"":""run_exp/static/images/task_images/dig.jpg"",""time"":0.30000001192092896},{""stimulus"":""run_exp/static/images/task_images/land.jpg"",""time"":417.5999999642372},{""stimulus"":""run_exp/static/images/task_images/dig.jpg"",""time"":833.8999999761581}]",[],1,,,,,,,,,,,,,,
harvest,72,429677,0.0-26.0-1.0,"""event"",""trial"",""time""
""fullscreenenter"",""1"",""101441""
","
","
","""event"",""trial"",""time""
""fullscreenenter"",""1"",""101441""
","
",,null,run_exp/static/images/task_images/gems/3.jpg,null,,,,,,,1,,,1,,,,,3,0.211266261,0.333333333,,,,,,,
decision,73,430115,0.0-26.0-2.0,"""event"",""trial"",""time""
""fullscreenenter"",""1"",""101441""
","
","
","""event"",""trial"",""time""
""fullscreenenter"",""1"",""101441""
","
",,436.9,run_exp/static/images/task_images/land.jpg,65,,,,,,,1,,,1,,,,,,,,21016,1,3,FALSE,,,
dig,74,432684,0.0-27.0-0.0,"""event"",""trial"",""time""
""fullscreenenter"",""1"",""101441""
","
","
","""event"",""trial"",""time""
""fullscreenenter"",""1"",""101441""
","
",,,,,,,,,,,,"[{""stimulus"":""run_exp/static/images/task_images/dig.jpg"",""time"":0.10000002384185791},{""stimulus"":""run_exp/static/images/task_images/land.jpg"",""time"":857.8000000119209},{""stimulus"":""run_exp/static/images/task_images/dig.jpg"",""time"":1714.5}]",[],1,,,,,,,,,,,,,,
harvest,75,433697,0.0-27.0-1.0,"""event"",""trial"",""time""
""fullscreenenter"",""1"",""101441""
","
","
","""event"",""trial"",""time""
""fullscreenenter"",""1"",""101441""
","
",,null,run_exp/static/images/task_images/gems/1.jpg,null,,,,,,,0,,,1,,,,,1,0.262580884,0,,,,,,,
decision,76,435275,0.0-27.0-2.0,"""event"",""trial"",""time""
""fullscreenenter"",""1"",""101441""
","
","
","""event"",""trial"",""time""
""fullscreenenter"",""1"",""101441""
","
",,1577,run_exp/static/images/task_images/land.jpg,65,,,,,,,0,,,1,,,,,,,,26176,1,4,FALSE,,,
dig,77,436705,0.0-28.0-0.0,"""event"",""trial"",""time""
""fullscreenenter"",""1"",""101441""
","
","
","""event"",""trial"",""time""
""fullscreenenter"",""1"",""101441""
","
",,,,,,,,,,,,"[{""stimulus"":""run_exp/static/images/task_images/dig.jpg"",""time"":0.19999998807907104},{""stimulus"":""run_exp/static/images/task_images/land.jpg"",""time"":476},{""stimulus"":""run_exp/static/images/task_images/dig.jpg"",""time"":957.6000000238419}]",[],1,,,,,,,,,,,,,,
harvest,78,437710,0.0-28.0-1.0,"""event"",""trial"",""time""
""fullscreenenter"",""1"",""101441""
","
","
","""event"",""trial"",""time""
""fullscreenenter"",""1"",""101441""
","
",,null,run_exp/static/images/task_images/gems/0.jpg,null,,,,,,,0,,,1,,,,,0,0.232840738,NaN,,,,,,,
decision,79,438009,0.0-28.0-2.0,"""event"",""trial"",""time""
""fullscreenenter"",""1"",""101441""
","
","
","""event"",""trial"",""time""
""fullscreenenter"",""1"",""101441""
","
",,297.7,run_exp/static/images/task_images/land.jpg,65,,,,,,,0,,,1,,,,,,,,28910,1,5,FALSE,,,
dig,80,440716,0.0-29.0-0.0,"""event"",""trial"",""time""
""fullscreenenter"",""1"",""101441""
","
","
","""event"",""trial"",""time""
""fullscreenenter"",""1"",""101441""
","
",,,,,,,,,,,,"[{""stimulus"":""run_exp/static/images/task_images/dig.jpg"",""time"":0.40000003576278687},{""stimulus"":""run_exp/static/images/task_images/land.jpg"",""time"":911.1000000238419},{""stimulus"":""run_exp/static/images/task_images/dig.jpg"",""time"":1807.4000000357628}]",[],1,,,,,,,,,,,,,,
harvest,81,441719,0.0-29.0-1.0,"""event"",""trial"",""time""
""fullscreenenter"",""1"",""101441""
","
","
","""event"",""trial"",""time""
""fullscreenenter"",""1"",""101441""
","
",,null,run_exp/static/images/task_images/gems/0.jpg,null,,,,,,,0,,,1,,,,,0,0.231946949,NaN,,,,,,,
decision,82,442684,0.0-29.0-2.0,"""event"",""trial"",""time""
""fullscreenenter"",""1"",""101441""
","
","
","""event"",""trial"",""time""
""fullscreenenter"",""1"",""101441""
","
",,961.4,run_exp/static/images/task_images/land.jpg,76,,,,,,,0,,,1,,,,,,,,33585,1,6,TRUE,,,
travel,83,451736,0.0-30.0-0.0,"""event"",""trial"",""time""
""fullscreenenter"",""1"",""101441""
","
","
","""event"",""trial"",""time""
""fullscreenenter"",""1"",""101441""
","
",,,,,,,,,,,,"[{""stimulus"":""run_exp/static/images/task_images/rocket-01.jpg"",""time"":0.30000001192092896},{""stimulus"":""run_exp/static/images/task_images/rocket-02.jpg"",""time"":1014.1000000238419},{""stimulus"":""run_exp/static/images/task_images/rocket-03.jpg"",""time"":2016.800000011921},{""stimulus"":""run_exp/static/images/task_images/rocket-04.jpg"",""time"":3020.300000011921},{""stimulus"":""run_exp/static/images/task_images/rocket-05.jpg"",""time"":4022.800000011921},{""stimulus"":""run_exp/static/images/task_images/rocket-06.jpg"",""time"":5025.100000023842},{""stimulus"":""run_exp/static/images/task_images/rocket-07.jpg"",""time"":6030},{""stimulus"":""run_exp/static/images/task_images/rocket-08.jpg"",""time"":7030},{""stimulus"":""run_exp/static/images/task_images/rocket-09.jpg"",""time"":8035}]",[],1,,,,,,,,,,,,,,
alien_welcome,84,456748,0.0-30.0-1.0,"""event"",""trial"",""time""
""fullscreenenter"",""1"",""101441""
","
","
","""event"",""trial"",""time""
""fullscreenenter"",""1"",""101441""
","
",,null,run_exp/static/images/task_images/aliens/old_aliens/planet/alien_planet-54.jpg,null,,,,,,,,,,,,,54,"15,54,23,19,79,61,31,24,20,75,5,52,2,11,57,58,74,56,3,71,35,39,65,21,6,73",,,,,,,,,,
land,85,457250,0.0-30.0-2.0,"""event"",""trial"",""time""
""fullscreenenter"",""1"",""101441""
","
","
","""event"",""trial"",""time""
""fullscreenenter"",""1"",""101441""
","
",,null,run_exp/static/images/task_images/land.jpg,null,,,,,,,97,,,2,,,,,,,,,,,,,,
dig,86,459256,0.0-30.0-3.0,"""event"",""trial"",""time""
""fullscreenenter"",""1"",""101441""
","
","
","""event"",""trial"",""time""
""fullscreenenter"",""1"",""101441""
","
",,,,,,,,,,,,"[{""stimulus"":""run_exp/static/images/task_images/dig.jpg"",""time"":0.30000001192092896},{""stimulus"":""run_exp/static/images/task_images/land.jpg"",""time"":670.6999999880791},{""stimulus"":""run_exp/static/images/task_images/dig.jpg"",""time"":1340}]",[],2,,,,,,,,,,,,,,
harvest,87,460270,0.0-30.0-4.0,"""event"",""trial"",""time""
""fullscreenenter"",""1"",""101441""
","
","
","""event"",""trial"",""time""
""fullscreenenter"",""1"",""101441""
","
",,null,run_exp/static/images/task_images/gems/97.jpg,null,,,,,,,22,,,2,,,,,97,0.223093232,0.226804124,,,,,,,
decision,88,461324,0.0-30.0-5.0,"""event"",""trial"",""time""
""fullscreenenter"",""1"",""101441""
","
","
","""event"",""trial"",""time""
""fullscreenenter"",""1"",""101441""
","
",,1052.6,run_exp/static/images/task_images/land.jpg,65,,,,,,,22,,,2,,,,,,,,52225,1,0,FALSE,,,
dig,89,463276,0.0-31.0-0.0,"""event"",""trial"",""time""
""fullscreenenter"",""1"",""101441""
","
","
","""event"",""trial"",""time""
""fullscreenenter"",""1"",""101441""
","
",,,,,,,,,,,,"[{""stimulus"":""run_exp/static/images/task_images/dig.jpg"",""time"":0.10000002384185791},{""stimulus"":""run_exp/static/images/task_images/land.jpg"",""time"":657.6999999880791},{""stimulus"":""run_exp/static/images/task_images/dig.jpg"",""time"":1308.3999999761581}]",[],2,,,,,,,,,,,,,,
harvest,90,464279,0.0-31.0-1.0,"""event"",""trial"",""time""
""fullscreenenter"",""1"",""101441""
","
","
","""event"",""trial"",""time""
""fullscreenenter"",""1"",""101441""
","
",,null,run_exp/static/images/task_images/gems/22.jpg,null,,,,,,,6,,,2,,,,,22,0.25499344,0.272727273,,,,,,,
decision,91,465141,0.0-31.0-2.0,"""event"",""trial"",""time""
""fullscreenenter"",""1"",""101441""
","
","
","""event"",""trial"",""time""
""fullscreenenter"",""1"",""101441""
","
",,861,run_exp/static/images/task_images/land.jpg,65,,,,,,,6,,,2,,,,,,,,56043,1,1,FALSE,,,
dig,92,467285,0.0-32.0-0.0,"""event"",""trial"",""time""
""fullscreenenter"",""1"",""101441""
","
","
","""event"",""trial"",""time""
""fullscreenenter"",""1"",""101441""
","
",,,,,,,,,,,,"[{""stimulus"":""run_exp/static/images/task_images/dig.jpg"",""time"":0.10000002384185791},{""stimulus"":""run_exp/static/images/task_images/land.jpg"",""time"":724.3000000119209},{""stimulus"":""run_exp/static/images/task_images/dig.jpg"",""time"":1438.1000000238419}]",[],2,,,,,,,,,,,,,,
harvest,93,468288,0.0-32.0-1.0,"""event"",""trial"",""time""
""fullscreenenter"",""1"",""101441""
","
","
","""event"",""trial"",""time""
""fullscreenenter"",""1"",""101441""
","
",,null,run_exp/static/images/task_images/gems/6.jpg,null,,,,,,,1,,,2,,,,,6,0.21210244,0.166666667,,,,,,,
decision,94,468521,0.0-32.0-2.0,"""event"",""trial"",""time""
""fullscreenenter"",""1"",""101441""
","
","
","""event"",""trial"",""time""
""fullscreenenter"",""1"",""101441""
","
",,231.4,run_exp/static/images/task_images/land.jpg,65,,,,,,,1,,,2,,,,,,,,59423,1,2,FALSE,,,
dig,95,471296,0.0-33.0-0.0,"""event"",""trial"",""time""
""fullscreenenter"",""1"",""101441""
","
","
","""event"",""trial"",""time""
""fullscreenenter"",""1"",""101441""
","
",,,,,,,,,,,,"[{""stimulus"":""run_exp/static/images/task_images/dig.jpg"",""time"":0.19999998807907104},{""stimulus"":""run_exp/static/images/task_images/land.jpg"",""time"":925.5999999642372},{""stimulus"":""run_exp/static/images/task_images/dig.jpg"",""time"":1854.2999999523163}]",[],2,,,,,,,,,,,,,,
harvest,96,472298,0.0-33.0-1.0,"""event"",""trial"",""time""
""fullscreenenter"",""1"",""101441""
","
","
","""event"",""trial"",""time""
""fullscreenenter"",""1"",""101441""
","
",,null,run_exp/static/images/task_images/gems/1.jpg,null,,,,,,,0,,,2,,,,,1,0.154010768,0,,,,,,,
decision,97,472983,0.0-33.0-2.0,"""event"",""trial"",""time""
""fullscreenenter"",""1"",""101441""
","
","
","""event"",""trial"",""time""
""fullscreenenter"",""1"",""101441""
","
",,683.9,run_exp/static/images/task_images/land.jpg,76,,,,,,,0,,,2,,,,,,,,63884,1,3,TRUE,,,
travel,98,482303,0.0-34.0-0.0,"""event"",""trial"",""time""
""fullscreenenter"",""1"",""101441""
","
","
","""event"",""trial"",""time""
""fullscreenenter"",""1"",""101441""
","
",,,,,,,,,,,,"[{""stimulus"":""run_exp/static/images/task_images/rocket-01.jpg"",""time"":0.10000002384185791},{""stimulus"":""run_exp/static/images/task_images/rocket-02.jpg"",""time"":1040.3999999761581},{""stimulus"":""run_exp/static/images/task_images/rocket-03.jpg"",""time"":2075.800000011921},{""stimulus"":""run_exp/static/images/task_images/rocket-04.jpg"",""time"":3112.600000023842},{""stimulus"":""run_exp/static/images/task_images/rocket-05.jpg"",""time"":4147.300000011921},{""stimulus"":""run_exp/static/images/task_images/rocket-06.jpg"",""time"":5177.800000011921},{""stimulus"":""run_exp/static/images/task_images/rocket-07.jpg"",""time"":6214.899999976158},{""stimulus"":""run_exp/static/images/task_images/rocket-08.jpg"",""time"":7250.600000023842},{""stimulus"":""run_exp/static/images/task_images/rocket-09.jpg"",""time"":8283.699999988079}]",[],2,,,,,,,,,,,,,,
alien_welcome,99,487315,0.0-34.0-1.0,"""event"",""trial"",""time""
""fullscreenenter"",""1"",""101441""
","
","
","""event"",""trial"",""time""
""fullscreenenter"",""1"",""101441""
","
",,null,run_exp/static/images/task_images/aliens/old_aliens/planet/alien_planet-23.jpg,null,,,,,,,,,,,,,23,"15,54,23,19,79,61,31,24,20,75,5,52,2,11,57,58,74,56,3,71,35,39,65,21,6,73",,,,,,,,,,
land,100,487819,0.0-34.0-2.0,"""event"",""trial"",""time""
""fullscreenenter"",""1"",""101441""
","
","
","""event"",""trial"",""time""
""fullscreenenter"",""1"",""101441""
","
",,null,run_exp/static/images/task_images/land.jpg,null,,,,,,,97,,,3,,,,,,,,,,,,,,
dig,101,489833,0.0-34.0-3.0,"""event"",""trial"",""time""
""fullscreenenter"",""1"",""101441""
","
","
","""event"",""trial"",""time""
""fullscreenenter"",""1"",""101441""
","
",,,,,,,,,,,,"[{""stimulus"":""run_exp/static/images/task_images/dig.jpg"",""time"":0.30000001192092896},{""stimulus"":""run_exp/static/images/task_images/land.jpg"",""time"":679.1000000238419},{""stimulus"":""run_exp/static/images/task_images/dig.jpg"",""time"":1338.699999988079}]",[],3,,,,,,,,,,,,,,
harvest,102,490837,0.0-34.0-4.0,"""event"",""trial"",""time""
""fullscreenenter"",""1"",""101441""
","
","
","""event"",""trial"",""time""
""fullscreenenter"",""1"",""101441""
","
",,null,run_exp/static/images/task_images/gems/97.jpg,null,,,,,,,46,,,3,,,,,97,0.476123137,0.474226804,,,,,,,
decision,103,491361,0.0-34.0-5.0,"""event"",""trial"",""time""
""fullscreenenter"",""1"",""101441""
","
","
","""event"",""trial"",""time""
""fullscreenenter"",""1"",""101441""
","
",,522,run_exp/static/images/task_images/land.jpg,65,,,,,,,46,,,3,,,,,,,,82262,1,0,FALSE,,,
dig,104,493844,0.0-35.0-0.0,"""event"",""trial"",""time""
""fullscreenenter"",""1"",""101441""
","
","
","""event"",""trial"",""time""
""fullscreenenter"",""1"",""101441""
","
",,,,,,,,,,,,"[{""stimulus"":""run_exp/static/images/task_images/dig.jpg"",""time"":0.09999996423721313},{""stimulus"":""run_exp/static/images/task_images/land.jpg"",""time"":837.5999999642372},{""stimulus"":""run_exp/static/images/task_images/dig.jpg"",""time"":1660.699999988079}]",[],3,,,,,,,,,,,,,,
harvest,105,494846,0.0-35.0-1.0,"""event"",""trial"",""time""
""fullscreenenter"",""1"",""101441""
","
","
","""event"",""trial"",""time""
""fullscreenenter"",""1"",""101441""
","
",,null,run_exp/static/images/task_images/gems/46.jpg,null,,,,,,,22,,,3,,,,,46,0.472282171,0.47826087,,,,,,,
decision,106,495923,0.0-35.0-2.0,"""event"",""trial"",""time""
""fullscreenenter"",""1"",""101441""
","
","
","""event"",""trial"",""time""
""fullscreenenter"",""1"",""101441""
","
",,1075.8,run_exp/static/images/task_images/land.jpg,65,,,,,,,22,,,3,,,,,,,,86824,1,1,FALSE,,,
dig,107,497856,0.0-36.0-0.0,"""event"",""trial"",""time""
""fullscreenenter"",""1"",""101441""
","
","
","""event"",""trial"",""time""
""fullscreenenter"",""1"",""101441""
","
",,,,,,,,,,,,"[{""stimulus"":""run_exp/static/images/task_images/dig.jpg"",""time"":0.20000004768371582},{""stimulus"":""run_exp/static/images/task_images/land.jpg"",""time"":648.6000000238419},{""stimulus"":""run_exp/static/images/task_images/dig.jpg"",""time"":1284.9000000357628}]",[],3,,,,,,,,,,,,,,
harvest,108,498859,0.0-36.0-1.0,"""event"",""trial"",""time""
""fullscreenenter"",""1"",""101441""
","
","
","""event"",""trial"",""time""
""fullscreenenter"",""1"",""101441""
","
",,null,run_exp/static/images/task_images/gems/22.jpg,null,,,,,,,11,,,3,,,,,22,0.500027867,0.5,,,,,,,
decision,109,499678,0.0-36.0-2.0,"""event"",""trial"",""time""
""fullscreenenter"",""1"",""101441""
","
","
","""event"",""trial"",""time""
""fullscreenenter"",""1"",""101441""
","
",,818.3,run_exp/static/images/task_images/land.jpg,65,,,,,,,11,,,3,,,,,,,,90580,1,2,FALSE,,,
dig,110,501864,0.0-37.0-0.0,"""event"",""trial"",""time""
""fullscreenenter"",""1"",""101441""
","
","
","""event"",""trial"",""time""
""fullscreenenter"",""1"",""101441""
","
",,,,,,,,,,,,"[{""stimulus"":""run_exp/static/images/task_images/dig.jpg"",""time"":0.40000003576278687},{""stimulus"":""run_exp/static/images/task_images/land.jpg"",""time"":733.8000000119209},{""stimulus"":""run_exp/static/images/task_images/dig.jpg"",""time"":1469}]",[],3,,,,,,,,,,,,,,
harvest,111,502867,0.0-37.0-1.0,"""event"",""trial"",""time""
""fullscreenenter"",""1"",""101441""
","
","
","""event"",""trial"",""time""
""fullscreenenter"",""1"",""101441""
","
",,null,run_exp/static/images/task_images/gems/11.jpg,null,,,,,,,6,,,3,,,,,11,0.510167376,0.545454545,,,,,,,
decision,112,503856,0.0-37.0-2.0,"""event"",""trial"",""time""
""fullscreenenter"",""1"",""101441""
","
","
","""event"",""trial"",""time""
""fullscreenenter"",""1"",""101441""
","
",,987.9,run_exp/static/images/task_images/land.jpg,65,,,,,,,6,,,3,,,,,,,,94758,1,3,FALSE,,,
dig,113,505875,0.0-38.0-0.0,"""event"",""trial"",""time""
""fullscreenenter"",""1"",""101441""
","
","
","""event"",""trial"",""time""
""fullscreenenter"",""1"",""101441""
","
",,,,,,,,,,,,"[{""stimulus"":""run_exp/static/images/task_images/dig.jpg"",""time"":1.800000011920929},{""stimulus"":""run_exp/static/images/task_images/land.jpg"",""time"":685.9000000357628},{""stimulus"":""run_exp/static/images/task_images/dig.jpg"",""time"":1355.4000000357628}]",[],3,,,,,,,,,,,,,,
harvest,114,506888,0.0-38.0-1.0,"""event"",""trial"",""time""
""fullscreenenter"",""1"",""101441""
","
","
","""event"",""trial"",""time""
""fullscreenenter"",""1"",""101441""
","
",,null,run_exp/static/images/task_images/gems/6.jpg,null,,,,,,,3,,,3,,,,,6,0.508258633,0.5,,,,,,,
decision,115,509541,0.0-38.0-2.0,"""event"",""trial"",""time""
""fullscreenenter"",""1"",""101441""
","
","
","""event"",""trial"",""time""
""fullscreenenter"",""1"",""101441""
","
",,2651.5,run_exp/static/images/task_images/land.jpg,65,,,,,,,3,,,3,,,,,,,,100442,1,4,FALSE,,,
dig,116,509898,0.0-39.0-0.0,"""event"",""trial"",""time""
""fullscreenenter"",""1"",""101441""
","
","
","""event"",""trial"",""time""
""fullscreenenter"",""1"",""101441""
","
",,,,,,,,,,,,"[{""stimulus"":""run_exp/static/images/task_images/dig.jpg"",""time"":0.10000002384185791},{""stimulus"":""run_exp/static/images/task_images/land.jpg"",""time"":120.89999997615814},{""stimulus"":""run_exp/static/images/task_images/dig.jpg"",""time"":237.30000001192093}]",[],3,,,,,,,,,,,,,,
harvest,117,510899,0.0-39.0-1.0,"""event"",""trial"",""time""
""fullscreenenter"",""1"",""101441""
","
","
","""event"",""trial"",""time""
""fullscreenenter"",""1"",""101441""
","
",,null,run_exp/static/images/task_images/gems/3.jpg,null,,,,,,,2,,,3,,,,,3,0.534555211,0.666666667,,,,,,,
decision,118,511404,0.0-39.0-2.0,"""event"",""trial"",""time""
""fullscreenenter"",""1"",""101441""
","
","
","""event"",""trial"",""time""
""fullscreenenter"",""1"",""101441""
","
",,502.9,run_exp/static/images/task_images/land.jpg,76,,,,,,,2,,,3,,,,,,,,102305,1,5,TRUE,,,
travel,119,520907,0.0-40.0-0.0,"""event"",""trial"",""time""
""fullscreenenter"",""1"",""101441""
","
","
","""event"",""trial"",""time""
""fullscreenenter"",""1"",""101441""
","
",,,,,,,,,,,,"[{""stimulus"":""run_exp/static/images/task_images/rocket-01.jpg"",""time"":0.10000002384185791},{""stimulus"":""run_exp/static/images/task_images/rocket-02.jpg"",""time"":1057.300000011921},{""stimulus"":""run_exp/static/images/task_images/rocket-03.jpg"",""time"":2117.199999988079},{""stimulus"":""run_exp/static/images/task_images/rocket-04.jpg"",""time"":3175.100000023842},{""stimulus"":""run_exp/static/images/task_images/rocket-05.jpg"",""time"":4230.300000011921},{""stimulus"":""run_exp/static/images/task_images/rocket-06.jpg"",""time"":5281.199999988079},{""stimulus"":""run_exp/static/images/task_images/rocket-07.jpg"",""time"":6332.800000011921},{""stimulus"":""run_exp/static/images/task_images/rocket-08.jpg"",""time"":7397.100000023842},{""stimulus"":""run_exp/static/images/task_images/rocket-09.jpg"",""time"":8443.899999976158}]",[],3,,,,,,,,,,,,,,
alien_welcome,120,525909,0.0-40.0-1.0,"""event"",""trial"",""time""
""fullscreenenter"",""1"",""101441""
","
","
","""event"",""trial"",""time""
""fullscreenenter"",""1"",""101441""
","
",,null,run_exp/static/images/task_images/aliens/old_aliens/planet/alien_planet-19.jpg,null,,,,,,,,,,,,,19,"15,54,23,19,79,61,31,24,20,75,5,52,2,11,57,58,74,56,3,71,35,39,65,21,6,73",,,,,,,,,,
land,121,526418,0.0-40.0-2.0,"""event"",""trial"",""time""
""fullscreenenter"",""1"",""101441""
","
","
","""event"",""trial"",""time""
""fullscreenenter"",""1"",""101441""
","
",,null,run_exp/static/images/task_images/land.jpg,null,,,,,,,95,,,4,,,,,,,,,,,,,,
dig,122,528435,0.0-40.0-3.0,"""event"",""trial"",""time""
""fullscreenenter"",""1"",""101441""
","
","
","""event"",""trial"",""time""
""fullscreenenter"",""1"",""101441""
","
",,,,,,,,,,,,"[{""stimulus"":""run_exp/static/images/task_images/dig.jpg"",""time"":0.19999998807907104},{""stimulus"":""run_exp/static/images/task_images/land.jpg"",""time"":678.5},{""stimulus"":""run_exp/static/images/task_images/dig.jpg"",""time"":1344.2999999523163}]",[],4,,,,,,,,,,,,,,
harvest,123,529438,0.0-40.0-4.0,"""event"",""trial"",""time""
""fullscreenenter"",""1"",""101441""
","
","
","""event"",""trial"",""time""
""fullscreenenter"",""1"",""101441""
","
",,null,run_exp/static/images/task_images/gems/95.jpg,null,,,,,,,43,,,4,,,,,95,0.449714632,0.452631579,,,,,,,
decision,124,530060,0.0-40.0-5.0,"""event"",""trial"",""time""
""fullscreenenter"",""1"",""101441""
","
","
","""event"",""trial"",""time""
""fullscreenenter"",""1"",""101441""
","
",,620.8,run_exp/static/images/task_images/land.jpg,65,,,,,,,43,,,4,,,,,,,,120961,1,0,FALSE,,,
dig,125,532446,0.0-41.0-0.0,"""event"",""trial"",""time""
""fullscreenenter"",""1"",""101441""
","
","
","""event"",""trial"",""time""
""fullscreenenter"",""1"",""101441""
","
",,,,,,,,,,,,"[{""stimulus"":""run_exp/static/images/task_images/dig.jpg"",""time"":0.10000002384185791},{""stimulus"":""run_exp/static/images/task_images/land.jpg"",""time"":805.9000000357628},{""stimulus"":""run_exp/static/images/task_images/dig.jpg"",""time"":1594}]",[],4,,,,,,,,,,,,,,
harvest,126,533452,0.0-41.0-1.0,"""event"",""trial"",""time""
""fullscreenenter"",""1"",""101441""
","
","
","""event"",""trial"",""time""
""fullscreenenter"",""1"",""101441""
","
",,null,run_exp/static/images/task_images/gems/43.jpg,null,,,,,,,20,,,4,,,,,43,0.470298212,0.465116279,,,,,,,
decision,127,535233,0.0-41.0-2.0,"""event"",""trial"",""time""
""fullscreenenter"",""1"",""101441""
","
","
","""event"",""trial"",""time""
""fullscreenenter"",""1"",""101441""
","
",,1779.5,run_exp/static/images/task_images/land.jpg,65,,,,,,,20,,,4,,,,,,,,126134,1,1,FALSE,,,
dig,128,536457,0.0-42.0-0.0,"""event"",""trial"",""time""
""fullscreenenter"",""1"",""101441""
","
","
","""event"",""trial"",""time""
""fullscreenenter"",""1"",""101441""
","
",,,,,,,,,,,,"[{""stimulus"":""run_exp/static/images/task_images/dig.jpg"",""time"":0.19999998807907104},{""stimulus"":""run_exp/static/images/task_images/land.jpg"",""time"":409.9000000357628},{""stimulus"":""run_exp/static/images/task_images/dig.jpg"",""time"":813.8000000119209}]",[],4,,,,,,,,,,,,,,
harvest,129,537459,0.0-42.0-1.0,"""event"",""trial"",""time""
""fullscreenenter"",""1"",""101441""
","
","
","""event"",""trial"",""time""
""fullscreenenter"",""1"",""101441""
","
",,null,run_exp/static/images/task_images/gems/20.jpg,null,,,,,,,13,,,4,,,,,20,0.652911582,0.65,,,,,,,
decision,130,537564,0.0-42.0-2.0,"""event"",""trial"",""time""
""fullscreenenter"",""1"",""101441""
","
","
","""event"",""trial"",""time""
""fullscreenenter"",""1"",""101441""
","
",,103.5,run_exp/static/images/task_images/land.jpg,65,,,,,,,13,,,4,,,,,,,,128465,1,2,FALSE,,,
dig,131,540470,0.0-43.0-0.0,"""event"",""trial"",""time""
""fullscreenenter"",""1"",""101441""
","
","
","""event"",""trial"",""time""
""fullscreenenter"",""1"",""101441""
","
",,,,,,,,,,,,"[{""stimulus"":""run_exp/static/images/task_images/dig.jpg"",""time"":0.09999996423721313},{""stimulus"":""run_exp/static/images/task_images/land.jpg"",""time"":967.7999999523163},{""stimulus"":""run_exp/static/images/task_images/dig.jpg"",""time"":1931.699999988079}]",[],4,,,,,,,,,,,,,,
harvest,132,541477,0.0-43.0-1.0,"""event"",""trial"",""time""
""fullscreenenter"",""1"",""101441""
","
","
","""event"",""trial"",""time""
""fullscreenenter"",""1"",""101441""
","
",,null,run_exp/static/images/task_images/gems/13.jpg,null,,,,,,,7,,,4,,,,,13,0.546345928,0.538461538,,,,,,,
decision,133,542054,0.0-43.0-2.0,"""event"",""trial"",""time""
""fullscreenenter"",""1"",""101441""
","
","
","""event"",""trial"",""time""
""fullscreenenter"",""1"",""101441""
","
",,576.3,run_exp/static/images/task_images/land.jpg,65,,,,,,,7,,,4,,,,,,,,132956,1,3,FALSE,,,
dig,134,544484,0.0-44.0-0.0,"""event"",""trial"",""time""
""fullscreenenter"",""1"",""101441""
","
","
","""event"",""trial"",""time""
""fullscreenenter"",""1"",""101441""
","
",,,,,,,,,,,,"[{""stimulus"":""run_exp/static/images/task_images/dig.jpg"",""time"":0.2999999523162842},{""stimulus"":""run_exp/static/images/task_images/land.jpg"",""time"":812.0999999642372},{""stimulus"":""run_exp/static/images/task_images/dig.jpg"",""time"":1620.5}]",[],4,,,,,,,,,,,,,,
harvest,135,545493,0.0-44.0-1.0,"""event"",""trial"",""time""
""fullscreenenter"",""1"",""101441""
","
","
","""event"",""trial"",""time""
""fullscreenenter"",""1"",""101441""
","
",,null,run_exp/static/images/task_images/gems/7.jpg,null,,,,,,,3,,,4,,,,,7,0.471403606,0.428571429,,,,,,,
decision,136,546911,0.0-44.0-2.0,"""event"",""trial"",""time""
""fullscreenenter"",""1"",""101441""
","
","
","""event"",""trial"",""time""
""fullscreenenter"",""1"",""101441""
","
",,1415.8,run_exp/static/images/task_images/land.jpg,65,,,,,,,3,,,4,,,,,,,,137812,1,4,FALSE,,,
dig,137,548500,0.0-45.0-0.0,"""event"",""trial"",""time""
""fullscreenenter"",""1"",""101441""
","
","
","""event"",""trial"",""time""
""fullscreenenter"",""1"",""101441""
","
",,,,,,,,,,,,"[{""stimulus"":""run_exp/static/images/task_images/dig.jpg"",""time"":0.10000002384185791},{""stimulus"":""run_exp/static/images/task_images/land.jpg"",""time"":530.9000000357628},{""stimulus"":""run_exp/static/images/task_images/dig.jpg"",""time"":1058}]",[],4,,,,,,,,,,,,,,
harvest,138,549514,0.0-45.0-1.0,"""event"",""trial"",""time""
""fullscreenenter"",""1"",""101441""
","
","
","""event"",""trial"",""time""
""fullscreenenter"",""1"",""101441""
","
",,null,run_exp/static/images/task_images/gems/3.jpg,null,,,,,,,2,,,4,,,,,3,0.537732843,0.666666667,,,,,,,
decision,139,549586,0.0-45.0-2.0,"""event"",""trial"",""time""
""fullscreenenter"",""1"",""101441""
","
","
","""event"",""trial"",""time""
""fullscreenenter"",""1"",""101441""
","
",,69.69999999,run_exp/static/images/task_images/land.jpg,76,,,,,,,2,,,4,,,,,,,,140487,1,5,TRUE,,,
travel,140,559518,0.0-46.0-0.0,"""event"",""trial"",""time""
""fullscreenenter"",""1"",""101441""
","
","
","""event"",""trial"",""time""
""fullscreenenter"",""1"",""101441""
","
",,,,,,,,,,,,"[{""stimulus"":""run_exp/static/images/task_images/rocket-01.jpg"",""time"":0.20000004768371582},{""stimulus"":""run_exp/static/images/task_images/rocket-02.jpg"",""time"":1108.7000000476837},{""stimulus"":""run_exp/static/images/task_images/rocket-03.jpg"",""time"":2208.100000023842},{""stimulus"":""run_exp/static/images/task_images/rocket-04.jpg"",""time"":3316.800000011921},{""stimulus"":""run_exp/static/images/task_images/rocket-05.jpg"",""time"":4416.800000011921},{""stimulus"":""run_exp/static/images/task_images/rocket-06.jpg"",""time"":5525.800000011921},{""stimulus"":""run_exp/static/images/task_images/rocket-07.jpg"",""time"":6624.100000023842},{""stimulus"":""run_exp/static/images/task_images/rocket-08.jpg"",""time"":7725},{""stimulus"":""run_exp/static/images/task_images/rocket-09.jpg"",""time"":8827.700000047684}]",[],4,,,,,,,,,,,,,,
alien_welcome,141,564523,0.0-46.0-1.0,"""event"",""trial"",""time""
""fullscreenenter"",""1"",""101441""
","
","
","""event"",""trial"",""time""
""fullscreenenter"",""1"",""101441""
","
",,null,run_exp/static/images/task_images/aliens/old_aliens/planet/alien_planet-79.jpg,null,,,,,,,,,,,,,79,"15,54,23,19,79,61,31,24,20,75,5,52,2,11,57,58,74,56,3,71,35,39,65,21,6,73",,,,,,,,,,
land,142,565034,0.0-46.0-2.0,"""event"",""trial"",""time""
""fullscreenenter"",""1"",""101441""
","
","
","""event"",""trial"",""time""
""fullscreenenter"",""1"",""101441""
","
",,null,run_exp/static/images/task_images/land.jpg,null,,,,,,,108,,,5,,,,,,,,,,,,,,
dig,143,567040,0.0-46.0-3.0,"""event"",""trial"",""time""
""fullscreenenter"",""1"",""101441""
","
","
","""event"",""trial"",""time""
""fullscreenenter"",""1"",""101441""
","
",,,,,,,,,,,,"[{""stimulus"":""run_exp/static/images/task_images/dig.jpg"",""time"":0.19999998807907104},{""stimulus"":""run_exp/static/images/task_images/land.jpg"",""time"":670.3000000119209},{""stimulus"":""run_exp/static/images/task_images/dig.jpg"",""time"":1344.3999999761581}]",[],5,,,,,,,,,,,,,,
harvest,144,568051,0.0-46.0-4.0,"""event"",""trial"",""time""
""fullscreenenter"",""1"",""101441""
","
","
","""event"",""trial"",""time""
""fullscreenenter"",""1"",""101441""
","
",,null,run_exp/static/images/task_images/gems/108.jpg,null,,,,,,,59,,,5,,,,,108,0.542614612,0.546296296,,,,,,,
decision,145,569094,0.0-46.0-5.0,"""event"",""trial"",""time""
""fullscreenenter"",""1"",""101441""
","
","
","""event"",""trial"",""time""
""fullscreenenter"",""1"",""101441""
","
",,1040.8,run_exp/static/images/task_images/land.jpg,65,,,,,,,59,,,5,,,,,,,,159995,1,0,FALSE,,,
dig,146,571060,0.0-47.0-0.0,"""event"",""trial"",""time""
""fullscreenenter"",""1"",""101441""
","
","
","""event"",""trial"",""time""
""fullscreenenter"",""1"",""101441""
","
",,,,,,,,,,,,"[{""stimulus"":""run_exp/static/images/task_images/dig.jpg"",""time"":0.19999998807907104},{""stimulus"":""run_exp/static/images/task_images/land.jpg"",""time"":663},{""stimulus"":""run_exp/static/images/task_images/dig.jpg"",""time"":1311.300000011921}]",[],5,,,,,,,,,,,,,,
harvest,147,572075,0.0-47.0-1.0,"""event"",""trial"",""time""
""fullscreenenter"",""1"",""101441""
","
","
","""event"",""trial"",""time""
""fullscreenenter"",""1"",""101441""
","
",,null,run_exp/static/images/task_images/gems/59.jpg,null,,,,,,,35,,,5,,,,,59,0.586838632,0.593220339,,,,,,,
decision,148,572920,0.0-47.0-2.0,"""event"",""trial"",""time""
""fullscreenenter"",""1"",""101441""
","
","
","""event"",""trial"",""time""
""fullscreenenter"",""1"",""101441""
","
",,843.4,run_exp/static/images/task_images/land.jpg,65,,,,,,,35,,,5,,,,,,,,163821,1,1,FALSE,,,
dig,149,575081,0.0-48.0-0.0,"""event"",""trial"",""time""
""fullscreenenter"",""1"",""101441""
","
","
","""event"",""trial"",""time""
""fullscreenenter"",""1"",""101441""
","
",,,,,,,,,,,,"[{""stimulus"":""run_exp/static/images/task_images/dig.jpg"",""time"":0.09999996423721313},{""stimulus"":""run_exp/static/images/task_images/land.jpg"",""time"":719.3999999761581},{""stimulus"":""run_exp/static/images/task_images/dig.jpg"",""time"":1444.699999988079}]",[],5,,,,,,,,,,,,,,
harvest,150,576084,0.0-48.0-1.0,"""event"",""trial"",""time""
""fullscreenenter"",""1"",""101441""
","
","
","""event"",""trial"",""time""
""fullscreenenter"",""1"",""101441""
","
",,null,run_exp/static/images/task_images/gems/35.jpg,null,,,,,,,17,,,5,,,,,35,0.48082921,0.485714286,,,,,,,
decision,151,578127,0.0-48.0-2.0,"""event"",""trial"",""time""
""fullscreenenter"",""1"",""101441""
","
","
","""event"",""trial"",""time""
""fullscreenenter"",""1"",""101441""
","
",,2041.7,run_exp/static/images/task_images/land.jpg,65,,,,,,,17,,,5,,,,,,,,169028,1,2,FALSE,,,
dig,152,579092,0.0-49.0-0.0,"""event"",""trial"",""time""
""fullscreenenter"",""1"",""101441""
","
","
","""event"",""trial"",""time""
""fullscreenenter"",""1"",""101441""
","
",,,,,,,,,,,,"[{""stimulus"":""run_exp/static/images/task_images/dig.jpg"",""time"":0.2999999523162842},{""stimulus"":""run_exp/static/images/task_images/land.jpg"",""time"":321.2999999523163},{""stimulus"":""run_exp/static/images/task_images/dig.jpg"",""time"":652.2999999523163}]",[],5,,,,,,,,,,,,,,
harvest,153,580094,0.0-49.0-1.0,"""event"",""trial"",""time""
""fullscreenenter"",""1"",""101441""
","
","
","""event"",""trial"",""time""
""fullscreenenter"",""1"",""101441""
","
",,null,run_exp/static/images/task_images/gems/17.jpg,null,,,,,,,8,,,5,,,,,17,0.483754645,0.470588235,,,,,,,
decision,154,580859,0.0-49.0-2.0,"""event"",""trial"",""time""
""fullscreenenter"",""1"",""101441""
","
","
","""event"",""trial"",""time""
""fullscreenenter"",""1"",""101441""
","
",,764.8,run_exp/static/images/task_images/land.jpg,65,,,,,,,8,,,5,,,,,,,,171761,1,3,FALSE,,,
dig,155,583102,0.0-50.0-0.0,"""event"",""trial"",""time""
""fullscreenenter"",""1"",""101441""
","
","
","""event"",""trial"",""time""
""fullscreenenter"",""1"",""101441""
","
",,,,,,,,,,,,"[{""stimulus"":""run_exp/static/images/task_images/dig.jpg"",""time"":0.10000002384185791},{""stimulus"":""run_exp/static/images/task_images/land.jpg"",""time"":760.1000000238419},{""stimulus"":""run_exp/static/images/task_images/dig.jpg"",""time"":1504.300000011921}]",[],5,,,,,,,,,,,,,,
harvest,156,584105,0.0-50.0-1.0,"""event"",""trial"",""time""
""fullscreenenter"",""1"",""101441""
","
","
","""event"",""trial"",""time""
""fullscreenenter"",""1"",""101441""
","
",,null,run_exp/static/images/task_images/gems/8.jpg,null,,,,,,,4,,,5,,,,,8,0.507337596,0.5,,,,,,,
decision,157,585108,0.0-50.0-2.0,"""event"",""trial"",""time""
""fullscreenenter"",""1"",""101441""
","
","
","""event"",""trial"",""time""
""fullscreenenter"",""1"",""101441""
","
",,1001.6,run_exp/static/images/task_images/land.jpg,65,,,,,,,4,,,5,,,,,,,,176009,1,4,FALSE,,,
dig,158,587114,0.0-51.0-0.0,"""event"",""trial"",""time""
""fullscreenenter"",""1"",""101441""
","
","
","""event"",""trial"",""time""
""fullscreenenter"",""1"",""101441""
","
",,,,,,,,,,,,"[{""stimulus"":""run_exp/static/images/task_images/dig.jpg"",""time"":0.09999996423721313},{""stimulus"":""run_exp/static/images/task_images/land.jpg"",""time"":682},{""stimulus"":""run_exp/static/images/task_images/dig.jpg"",""time"":1340.8999999761581}]",[],5,,,,,,,,,,,,,,
harvest,159,588126,0.0-51.0-1.0,"""event"",""trial"",""time""
""fullscreenenter"",""1"",""101441""
","
","
","""event"",""trial"",""time""
""fullscreenenter"",""1"",""101441""
","
",,null,run_exp/static/images/task_images/gems/4.jpg,null,,,,,,,2,,,5,,,,,4,0.501578528,0.5,,,,,,,
decision,160,588782,0.0-51.0-2.0,"""event"",""trial"",""time""
""fullscreenenter"",""1"",""101441""
","
","
","""event"",""trial"",""time""
""fullscreenenter"",""1"",""101441""
","
",,654.6,run_exp/static/images/task_images/land.jpg,65,,,,,,,2,,,5,,,,,,,,179684,1,5,FALSE,,,
dig,161,591135,0.0-52.0-0.0,"""event"",""trial"",""time""
""fullscreenenter"",""1"",""101441""
","
","
","""event"",""trial"",""time""
""fullscreenenter"",""1"",""101441""
","
",,,,,,,,,,,,"[{""stimulus"":""run_exp/static/images/task_images/dig.jpg"",""time"":0.10000002384185791},{""stimulus"":""run_exp/static/images/task_images/land.jpg"",""time"":785.6000000238419},{""stimulus"":""run_exp/static/images/task_images/dig.jpg"",""time"":1572.4000000357628}]",[],5,,,,,,,,,,,,,,
harvest,162,592139,0.0-52.0-1.0,"""event"",""trial"",""time""
""fullscreenenter"",""1"",""101441""
","
","
","""event"",""trial"",""time""
""fullscreenenter"",""1"",""101441""
","
",,null,run_exp/static/images/task_images/gems/2.jpg,null,,,,,,,1,,,5,,,,,2,0.454546568,0.5,,,,,,,
decision,163,593034,0.0-52.0-2.0,"""event"",""trial"",""time""
""fullscreenenter"",""1"",""101441""
","
","
","""event"",""trial"",""time""
""fullscreenenter"",""1"",""101441""
","
",,894,run_exp/static/images/task_images/land.jpg,76,,,,,,,1,,,5,,,,,,,,183935,1,6,TRUE,,,
travel,164,602144,0.0-53.0-0.0,"""event"",""trial"",""time""
""fullscreenenter"",""1"",""101441""
","
","
","""event"",""trial"",""time""
""fullscreenenter"",""1"",""101441""
","
",,,,,,,,,,,,"[{""stimulus"":""run_exp/static/images/task_images/rocket-01.jpg"",""time"":0.19999998807907104},{""stimulus"":""run_exp/static/images/task_images/rocket-02.jpg"",""time"":1020.3000000119209},{""stimulus"":""run_exp/static/images/task_images/rocket-03.jpg"",""time"":2034},{""stimulus"":""run_exp/static/images/task_images/rocket-04.jpg"",""time"":3038.600000023842},{""stimulus"":""run_exp/static/images/task_images/rocket-05.jpg"",""time"":4048.399999976158},{""stimulus"":""run_exp/static/images/task_images/rocket-06.jpg"",""time"":5063.600000023842},{""stimulus"":""run_exp/static/images/task_images/rocket-07.jpg"",""time"":6076.5},{""stimulus"":""run_exp/static/images/task_images/rocket-08.jpg"",""time"":7080.899999976158},{""stimulus"":""run_exp/static/images/task_images/rocket-09.jpg"",""time"":8094.800000011921}]",[],5,,,,,,,,,,,,,,
alien_welcome,165,607158,0.0-53.0-1.0,"""event"",""trial"",""time""
""fullscreenenter"",""1"",""101441""
","
","
","""event"",""trial"",""time""
""fullscreenenter"",""1"",""101441""
","
",,null,run_exp/static/images/task_images/aliens/old_aliens/planet/alien_planet-61.jpg,null,,,,,,,,,,,,,61,"15,54,23,19,79,61,31,24,20,75,5,52,2,11,57,58,74,56,3,71,35,39,65,21,6,73",,,,,,,,,,
land,166,607680,0.0-53.0-2.0,"""event"",""trial"",""time""
""fullscreenenter"",""1"",""101441""
","
","
","""event"",""trial"",""time""
""fullscreenenter"",""1"",""101441""
","
",,null,run_exp/static/images/task_images/land.jpg,null,,,,,,,97,,,6,,,,,,,,,,,,,,
dig,167,609708,0.0-53.0-3.0,"""event"",""trial"",""time""
""fullscreenenter"",""1"",""101441""
","
","
","""event"",""trial"",""time""
""fullscreenenter"",""1"",""101441""
","
",,,,,,,,,,,,"[{""stimulus"":""run_exp/static/images/task_images/dig.jpg"",""time"":0.5},{""stimulus"":""run_exp/static/images/task_images/land.jpg"",""time"":668.8999999761581},{""stimulus"":""run_exp/static/images/task_images/dig.jpg"",""time"":1348.199999988079}]",[],6,,,,,,,,,,,,,,
harvest,168,610721,0.0-53.0-4.0,"""event"",""trial"",""time""
""fullscreenenter"",""1"",""101441""
","
","
","""event"",""trial"",""time""
""fullscreenenter"",""1"",""101441""
","
",,null,run_exp/static/images/task_images/gems/97.jpg,null,,,,,,,81,,,6,,,,,97,0.837608727,0.835051546,,,,,,,
decision,169,610733,0.0-53.0-5.0,"""event"",""trial"",""time""
""fullscreenenter"",""1"",""101441""
","
","
","""event"",""trial"",""time""
""fullscreenenter"",""1"",""101441""
","
",,10.40000004,run_exp/static/images/task_images/land.jpg,65,,,,,,,81,,,6,,,,,,,,201634,1,0,FALSE,,,
dig,170,613728,0.0-54.0-0.0,"""event"",""trial"",""time""
""fullscreenenter"",""1"",""101441""
","
","
","""event"",""trial"",""time""
""fullscreenenter"",""1"",""101441""
","
",,,,,,,,,,,,"[{""stimulus"":""run_exp/static/images/task_images/dig.jpg"",""time"":0.09999996423721313},{""stimulus"":""run_exp/static/images/task_images/land.jpg"",""time"":1009.8999999761581},{""stimulus"":""run_exp/static/images/task_images/dig.jpg"",""time"":2000.5}]",[],6,,,,,,,,,,,,,,
harvest,171,614730,0.0-54.0-1.0,"""event"",""trial"",""time""
""fullscreenenter"",""1"",""101441""
","
","
","""event"",""trial"",""time""
""fullscreenenter"",""1"",""101441""
","
",,null,run_exp/static/images/task_images/gems/81.jpg,null,,,,,,,63,,,6,,,,,81,0.773512655,0.777777778,,,,,,,
decision,172,615598,0.0-54.0-2.0,"""event"",""trial"",""time""
""fullscreenenter"",""1"",""101441""
","
","
","""event"",""trial"",""time""
""fullscreenenter"",""1"",""101441""
","
",,866.6,run_exp/static/images/task_images/land.jpg,65,,,,,,,63,,,6,,,,,,,,206499,1,1,FALSE,,,
dig,173,617738,0.0-55.0-0.0,"""event"",""trial"",""time""
""fullscreenenter"",""1"",""101441""
","
","
","""event"",""trial"",""time""
""fullscreenenter"",""1"",""101441""
","
",,,,,,,,,,,,"[{""stimulus"":""run_exp/static/images/task_images/dig.jpg"",""time"":0.10000002384185791},{""stimulus"":""run_exp/static/images/task_images/land.jpg"",""time"":715.4000000357628},{""stimulus"":""run_exp/static/images/task_images/dig.jpg"",""time"":1433.7000000476837}]",[],6,,,,,,,,,,,,,,
harvest,174,618740,0.0-55.0-1.0,"""event"",""trial"",""time""
""fullscreenenter"",""1"",""101441""
","
","
","""event"",""trial"",""time""
""fullscreenenter"",""1"",""101441""
","
",,null,run_exp/static/images/task_images/gems/63.jpg,null,,,,,,,50,,,6,,,,,63,0.801355275,0.793650794,,,,,,,
decision,175,620119,0.0-55.0-2.0,"""event"",""trial"",""time""
""fullscreenenter"",""1"",""101441""
","
","
","""event"",""trial"",""time""
""fullscreenenter"",""1"",""101441""
","
",,1377.6,run_exp/static/images/task_images/land.jpg,65,,,,,,,50,,,6,,,,,,,,211021,1,2,FALSE,,,
dig,176,621748,0.0-56.0-0.0,"""event"",""trial"",""time""
""fullscreenenter"",""1"",""101441""
","
","
","""event"",""trial"",""time""
""fullscreenenter"",""1"",""101441""
","
",,,,,,,,,,,,"[{""stimulus"":""run_exp/static/images/task_images/dig.jpg"",""time"":0.2999999523162842},{""stimulus"":""run_exp/static/images/task_images/land.jpg"",""time"":548.8999999761581},{""stimulus"":""run_exp/static/images/task_images/dig.jpg"",""time"":1082.7999999523163}]",[],6,,,,,,,,,,,,,,
harvest,177,622750,0.0-56.0-1.0,"""event"",""trial"",""time""
""fullscreenenter"",""1"",""101441""
","
","
","""event"",""trial"",""time""
""fullscreenenter"",""1"",""101441""
","
",,null,run_exp/static/images/task_images/gems/50.jpg,null,,,,,,,45,,,6,,,,,50,0.897055434,0.9,,,,,,,
decision,178,624488,0.0-56.0-2.0,"""event"",""trial"",""time""
""fullscreenenter"",""1"",""101441""
","
","
","""event"",""trial"",""time""
""fullscreenenter"",""1"",""101441""
","
",,1736.8,run_exp/static/images/task_images/land.jpg,65,,,,,,,45,,,6,,,,,,,,215389,1,3,FALSE,,,
dig,179,625758,0.0-57.0-0.0,"""event"",""trial"",""time""
""fullscreenenter"",""1"",""101441""
","
","
","""event"",""trial"",""time""
""fullscreenenter"",""1"",""101441""
","
",,,,,,,,,,,,"[{""stimulus"":""run_exp/static/images/task_images/dig.jpg"",""time"":0.19999998807907104},{""stimulus"":""run_exp/static/images/task_images/land.jpg"",""time"":426.5},{""stimulus"":""run_exp/static/images/task_images/dig.jpg"",""time"":854.6999999880791}]",[],6,,,,,,,,,,,,,,
harvest,180,626761,0.0-57.0-1.0,"""event"",""trial"",""time""
""fullscreenenter"",""1"",""101441""
","
","
","""event"",""trial"",""time""
""fullscreenenter"",""1"",""101441""
","
",,null,run_exp/static/images/task_images/gems/45.jpg,null,,,,,,,36,,,6,,,,,45,0.795304936,0.8,,,,,,,
decision,181,628471,0.0-57.0-2.0,"""event"",""trial"",""time""
""fullscreenenter"",""1"",""101441""
","
","
","""event"",""trial"",""time""
""fullscreenenter"",""1"",""101441""
","
",,1707.8,run_exp/static/images/task_images/land.jpg,65,,,,,,,36,,,6,,,,,,,,219372,1,4,FALSE,,,
dig,182,629770,0.0-58.0-0.0,"""event"",""trial"",""time""
""fullscreenenter"",""1"",""101441""
","
","
","""event"",""trial"",""time""
""fullscreenenter"",""1"",""101441""
","
",,,,,,,,,,,,"[{""stimulus"":""run_exp/static/images/task_images/dig.jpg"",""time"":0.10000002384185791},{""stimulus"":""run_exp/static/images/task_images/land.jpg"",""time"":432.9000000357628},{""stimulus"":""run_exp/static/images/task_images/dig.jpg"",""time"":861.8000000119209}]",[],6,,,,,,,,,,,,,,
harvest,183,630773,0.0-58.0-1.0,"""event"",""trial"",""time""
""fullscreenenter"",""1"",""101441""
","
","
","""event"",""trial"",""time""
""fullscreenenter"",""1"",""101441""
","
",,null,run_exp/static/images/task_images/gems/36.jpg,null,,,,,,,25,,,6,,,,,36,0.692570579,0.694444444,,,,,,,
decision,184,632988,0.0-58.0-2.0,"""event"",""trial"",""time""
""fullscreenenter"",""1"",""101441""
","
","
","""event"",""trial"",""time""
""fullscreenenter"",""1"",""101441""
","
",,2213.3,run_exp/static/images/task_images/land.jpg,65,,,,,,,25,,,6,,,,,,,,223889,1,5,FALSE,,,
dig,185,633780,0.0-59.0-0.0,"""event"",""trial"",""time""
""fullscreenenter"",""1"",""101441""
","
","
","""event"",""trial"",""time""
""fullscreenenter"",""1"",""101441""
","
",,,,,,,,,,,,"[{""stimulus"":""run_exp/static/images/task_images/dig.jpg"",""time"":0.19999998807907104},{""stimulus"":""run_exp/static/images/task_images/land.jpg"",""time"":266.39999997615814},{""stimulus"":""run_exp/static/images/task_images/dig.jpg"",""time"":534.1000000238419}]",[],6,,,,,,,,,,,,,,
harvest,186,634785,0.0-59.0-1.0,"""event"",""trial"",""time""
""fullscreenenter"",""1"",""101441""
","
","
","""event"",""trial"",""time""
""fullscreenenter"",""1"",""101441""
","
",,null,run_exp/static/images/task_images/gems/25.jpg,null,,,,,,,20,,,6,,,,,25,0.791383659,0.8,,,,,,,
decision,187,634947,0.0-59.0-2.0,"""event"",""trial"",""time""
""fullscreenenter"",""1"",""101441""
","
","
","""event"",""trial"",""time""
""fullscreenenter"",""1"",""101441""
","
",,160.2,run_exp/static/images/task_images/land.jpg,65,,,,,,,20,,,6,,,,,,,,225848,1,6,FALSE,,,
dig,188,637801,0.0-60.0-0.0,"""event"",""trial"",""time""
""fullscreenenter"",""1"",""101441""
","
","
","""event"",""trial"",""time""
""fullscreenenter"",""1"",""101441""
","
",,,,,,,,,,,,"[{""stimulus"":""run_exp/static/images/task_images/dig.jpg"",""time"":0.10000002384185791},{""stimulus"":""run_exp/static/images/task_images/land.jpg"",""time"":955},{""stimulus"":""run_exp/static/images/task_images/dig.jpg"",""time"":1898.800000011921}]",[],6,,,,,,,,,,,,,,
harvest,189,638804,0.0-60.0-1.0,"""event"",""trial"",""time""
""fullscreenenter"",""1"",""101441""
","
","
","""event"",""trial"",""time""
""fullscreenenter"",""1"",""101441""
","
",,null,run_exp/static/images/task_images/gems/20.jpg,null,,,,,,,17,,,6,,,,,20,0.862318225,0.85,,,,,,,
decision,190,640534,0.0-60.0-2.0,"""event"",""trial"",""time""
""fullscreenenter"",""1"",""101441""
","
","
","""event"",""trial"",""time""
""fullscreenenter"",""1"",""101441""
","
",,1728,run_exp/static/images/task_images/land.jpg,65,,,,,,,17,,,6,,,,,,,,231435,1,7,FALSE,,,
dig,191,641812,0.0-61.0-0.0,"""event"",""trial"",""time""
""fullscreenenter"",""1"",""101441""
","
","
","""event"",""trial"",""time""
""fullscreenenter"",""1"",""101441""
","
",,,,,,,,,,,,"[{""stimulus"":""run_exp/static/images/task_images/dig.jpg"",""time"":0.09999996423721313},{""stimulus"":""run_exp/static/images/task_images/land.jpg"",""time"":429.19999998807907},{""stimulus"":""run_exp/static/images/task_images/dig.jpg"",""time"":849.0999999642372}]",[],6,,,,,,,,,,,,,,
harvest,192,642817,0.0-61.0-1.0,"""event"",""trial"",""time""
""fullscreenenter"",""1"",""101441""
","
","
","""event"",""trial"",""time""
""fullscreenenter"",""1"",""101441""
","
",,null,run_exp/static/images/task_images/gems/17.jpg,null,,,,,,,14,,,6,,,,,17,0.829440098,0.823529412,,,,,,,
decision,193,645525,0.0-61.0-2.0,"""event"",""trial"",""time""
""fullscreenenter"",""1"",""101441""
","
","
","""event"",""trial"",""time""
""fullscreenenter"",""1"",""101441""
","
",,2705.6,run_exp/static/images/task_images/land.jpg,65,,,,,,,14,,,6,,,,,,,,236426,1,8,FALSE,,,
dig,194,645825,0.0-62.0-0.0,"""event"",""trial"",""time""
""fullscreenenter"",""1"",""101441""
","
","
","""event"",""trial"",""time""
""fullscreenenter"",""1"",""101441""
","
",,,,,,,,,,,,"[{""stimulus"":""run_exp/static/images/task_images/dig.jpg"",""time"":0.5},{""stimulus"":""run_exp/static/images/task_images/land.jpg"",""time"":103.30000001192093},{""stimulus"":""run_exp/static/images/task_images/dig.jpg"",""time"":199.5}]",[],6,,,,,,,,,,,,,,
harvest,195,646837,0.0-62.0-1.0,"""event"",""trial"",""time""
""fullscreenenter"",""1"",""101441""
","
","
","""event"",""trial"",""time""
""fullscreenenter"",""1"",""101441""
","
",,null,run_exp/static/images/task_images/gems/14.jpg,null,,,,,,,12,,,6,,,,,14,0.844922159,0.857142857,,,,,,,
decision,196,647161,0.0-62.0-2.0,"""event"",""trial"",""time""
""fullscreenenter"",""1"",""101441""
","
","
","""event"",""trial"",""time""
""fullscreenenter"",""1"",""101441""
","
",,323.1,run_exp/static/images/task_images/land.jpg,65,,,,,,,12,,,6,,,,,,,,238063,1,9,FALSE,,,
dig,197,649844,0.0-63.0-0.0,"""event"",""trial"",""time""
""fullscreenenter"",""1"",""101441""
","
","
","""event"",""trial"",""time""
""fullscreenenter"",""1"",""101441""
","
",,,,,,,,,,,,"[{""stimulus"":""run_exp/static/images/task_images/dig.jpg"",""time"":0.10000002384185791},{""stimulus"":""run_exp/static/images/task_images/land.jpg"",""time"":900.5},{""stimulus"":""run_exp/static/images/task_images/dig.jpg"",""time"":1785.8999999761581}]",[],6,,,,,,,,,,,,,,
harvest,198,650847,0.0-63.0-1.0,"""event"",""trial"",""time""
""fullscreenenter"",""1"",""101441""
","
","
","""event"",""trial"",""time""
""fullscreenenter"",""1"",""101441""
","
",,null,run_exp/static/images/task_images/gems/12.jpg,null,,,,,,,9,,,6,,,,,12,0.72740572,0.75,,,,,,,
decision,199,651626,0.0-63.0-2.0,"""event"",""trial"",""time""
""fullscreenenter"",""1"",""101441""
","
","
","""event"",""trial"",""time""
""fullscreenenter"",""1"",""101441""
","
",,777.9,run_exp/static/images/task_images/land.jpg,65,,,,,,,9,,,6,,,,,,,,242527,1,10,FALSE,,,
dig,200,653855,0.0-64.0-0.0,"""event"",""trial"",""time""
""fullscreenenter"",""1"",""101441""
","
","
","""event"",""trial"",""time""
""fullscreenenter"",""1"",""101441""
","
",,,,,,,,,,,,"[{""stimulus"":""run_exp/static/images/task_images/dig.jpg"",""time"":0.19999998807907104},{""stimulus"":""run_exp/static/images/task_images/land.jpg"",""time"":754.8000000119209},{""stimulus"":""run_exp/static/images/task_images/dig.jpg"",""time"":1490.8999999761581}]",[],6,,,,,,,,,,,,,,
harvest,201,654857,0.0-64.0-1.0,"""event"",""trial"",""time""
""fullscreenenter"",""1"",""101441""
","
","
","""event"",""trial"",""time""
""fullscreenenter"",""1"",""101441""
","
",,null,run_exp/static/images/task_images/gems/9.jpg,null,,,,,,,7,,,6,,,,,9,0.821259307,0.777777778,,,,,,,
decision,202,656145,0.0-64.0-2.0,"""event"",""trial"",""time""
""fullscreenenter"",""1"",""101441""
","
","
","""event"",""trial"",""time""
""fullscreenenter"",""1"",""101441""
","
",,1286.1,run_exp/static/images/task_images/land.jpg,65,,,,,,,7,,,6,,,,,,,,247046,1,11,FALSE,,,
dig,203,657864,0.0-65.0-0.0,"""event"",""trial"",""time""
""fullscreenenter"",""1"",""101441""
","
","
","""event"",""trial"",""time""
""fullscreenenter"",""1"",""101441""
","
",,,,,,,,,,,,"[{""stimulus"":""run_exp/static/images/task_images/dig.jpg"",""time"":0.10000002384185791},{""stimulus"":""run_exp/static/images/task_images/land.jpg"",""time"":574},{""stimulus"":""run_exp/static/images/task_images/dig.jpg"",""time"":1143.7000000476837}]",[],6,,,,,,,,,,,,,,
harvest,204,658869,0.0-65.0-1.0,"""event"",""trial"",""time""
""fullscreenenter"",""1"",""101441""
","
","
","""event"",""trial"",""time""
""fullscreenenter"",""1"",""101441""
","
",,null,run_exp/static/images/task_images/gems/7.jpg,null,,,,,,,5,,,6,,,,,7,0.754130797,0.714285714,,,,,,,
decision,205,658939,0.0-65.0-2.0,"""event"",""trial"",""time""
""fullscreenenter"",""1"",""101441""
","
","
","""event"",""trial"",""time""
""fullscreenenter"",""1"",""101441""
","
",,68.29999995,run_exp/static/images/task_images/land.jpg,65,,,,,,,5,,,6,,,,,,,,249840,1,12,FALSE,,,
dig,206,661877,0.0-66.0-0.0,"""event"",""trial"",""time""
""fullscreenenter"",""1"",""101441""
","
","
","""event"",""trial"",""time""
""fullscreenenter"",""1"",""101441""
","
",,,,,,,,,,,,"[{""stimulus"":""run_exp/static/images/task_images/dig.jpg"",""time"":0.10000002384185791},{""stimulus"":""run_exp/static/images/task_images/land.jpg"",""time"":982.4000000357628},{""stimulus"":""run_exp/static/images/task_images/dig.jpg"",""time"":1965.6000000238419}]",[],6,,,,,,,,,,,,,,
harvest,207,662890,0.0-66.0-1.0,"""event"",""trial"",""time""
""fullscreenenter"",""1"",""101441""
","
","
","""event"",""trial"",""time""
""fullscreenenter"",""1"",""101441""
","
",,null,run_exp/static/images/task_images/gems/5.jpg,null,,,,,,,4,,,6,,,,,5,0.850305703,0.8,,,,,,,
decision,208,664464,0.0-66.0-2.0,"""event"",""trial"",""time""
""fullscreenenter"",""1"",""101441""
","
","
","""event"",""trial"",""time""
""fullscreenenter"",""1"",""101441""
","
",,1572.7,run_exp/static/images/task_images/land.jpg,76,,,,,,,4,,,6,,,,,,,,255365,1,13,TRUE,,,
travel,209,672895,0.0-67.0-0.0,"""event"",""trial"",""time""
""fullscreenenter"",""1"",""101441""
","
","
","""event"",""trial"",""time""
""fullscreenenter"",""1"",""101441""
","
",,,,,,,,,,,,"[{""stimulus"":""run_exp/static/images/task_images/rocket-01.jpg"",""time"":0.19999998807907104},{""stimulus"":""run_exp/static/images/task_images/rocket-02.jpg"",""time"":941.7999999523163},{""stimulus"":""run_exp/static/images/task_images/rocket-03.jpg"",""time"":1889.5},{""stimulus"":""run_exp/static/images/task_images/rocket-04.jpg"",""time"":2818.899999976158},{""stimulus"":""run_exp/static/images/task_images/rocket-05.jpg"",""time"":3745.5},{""stimulus"":""run_exp/static/images/task_images/rocket-06.jpg"",""time"":4684.799999952316},{""stimulus"":""run_exp/static/images/task_images/rocket-07.jpg"",""time"":5623.299999952316},{""stimulus"":""run_exp/static/images/task_images/rocket-08.jpg"",""time"":6562.199999988079},{""stimulus"":""run_exp/static/images/task_images/rocket-09.jpg"",""time"":7490.399999976158}]",[],6,,,,,,,,,,,,,,
alien_welcome,210,677898,0.0-67.0-1.0,"""event"",""trial"",""time""
""fullscreenenter"",""1"",""101441""
","
","
","""event"",""trial"",""time""
""fullscreenenter"",""1"",""101441""
","
",,null,run_exp/static/images/task_images/aliens/old_aliens/planet/alien_planet-31.jpg,null,,,,,,,,,,,,,31,"15,54,23,19,79,61,31,24,20,75,5,52,2,11,57,58,74,56,3,71,35,39,65,21,6,73",,,,,,,,,,
land,211,678410,0.0-67.0-2.0,"""event"",""trial"",""time""
""fullscreenenter"",""1"",""101441""
","
","
","""event"",""trial"",""time""
""fullscreenenter"",""1"",""101441""
","
",,null,run_exp/static/images/task_images/land.jpg,null,,,,,,,103,,,7,,,,,,,,,,,,,,
dig,212,680428,0.0-67.0-3.0,"""event"",""trial"",""time""
""fullscreenenter"",""1"",""101441""
","
","
","""event"",""trial"",""time""
""fullscreenenter"",""1"",""101441""
","
",,,,,,,,,,,,"[{""stimulus"":""run_exp/static/images/task_images/dig.jpg"",""time"":0.19999998807907104},{""stimulus"":""run_exp/static/images/task_images/land.jpg"",""time"":671.5999999642372},{""stimulus"":""run_exp/static/images/task_images/dig.jpg"",""time"":1344.3999999761581}]",[],7,,,,,,,,,,,,,,
harvest,213,681441,0.0-67.0-4.0,"""event"",""trial"",""time""
""fullscreenenter"",""1"",""101441""
","
","
","""event"",""trial"",""time""
""fullscreenenter"",""1"",""101441""
","
",,null,run_exp/static/images/task_images/gems/103.jpg,null,,,,,,,81,,,7,,,,,103,0.790762058,0.786407767,,,,,,,
decision,214,683234,0.0-67.0-5.0,"""event"",""trial"",""time""
""fullscreenenter"",""1"",""101441""
","
","
","""event"",""trial"",""time""
""fullscreenenter"",""1"",""101441""
","
",,1791.8,run_exp/static/images/task_images/land.jpg,65,,,,,,,81,,,7,,,,,,,,274136,1,0,FALSE,,,
dig,215,684447,0.0-68.0-0.0,"""event"",""trial"",""time""
""fullscreenenter"",""1"",""101441""
","
","
","""event"",""trial"",""time""
""fullscreenenter"",""1"",""101441""
","
",,,,,,,,,,,,"[{""stimulus"":""run_exp/static/images/task_images/dig.jpg"",""time"":0.19999998807907104},{""stimulus"":""run_exp/static/images/task_images/land.jpg"",""time"":410.60000002384186},{""stimulus"":""run_exp/static/images/task_images/dig.jpg"",""time"":805.4000000357628}]",[],7,,,,,,,,,,,,,,
harvest,216,685451,0.0-68.0-1.0,"""event"",""trial"",""time""
""fullscreenenter"",""1"",""101441""
","
","
","""event"",""trial"",""time""
""fullscreenenter"",""1"",""101441""
","
",,null,run_exp/static/images/task_images/gems/81.jpg,null,,,,,,,69,,,7,,,,,81,0.85449889,0.851851852,,,,,,,
decision,217,687386,0.0-68.0-2.0,"""event"",""trial"",""time""
""fullscreenenter"",""1"",""101441""
","
","
","""event"",""trial"",""time""
""fullscreenenter"",""1"",""101441""
","
",,1933.7,run_exp/static/images/task_images/land.jpg,65,,,,,,,69,,,7,,,,,,,,278288,1,1,FALSE,,,
dig,218,688458,0.0-69.0-0.0,"""event"",""trial"",""time""
""fullscreenenter"",""1"",""101441""
","
","
","""event"",""trial"",""time""
""fullscreenenter"",""1"",""101441""
","
",,,,,,,,,,,,"[{""stimulus"":""run_exp/static/images/task_images/dig.jpg"",""time"":0.30000001192092896},{""stimulus"":""run_exp/static/images/task_images/land.jpg"",""time"":363.89999997615814},{""stimulus"":""run_exp/static/images/task_images/dig.jpg"",""time"":717.3999999761581}]",[],7,,,,,,,,,,,,,,
harvest,219,689461,0.0-69.0-1.0,"""event"",""trial"",""time""
""fullscreenenter"",""1"",""101441""
","
","
","""event"",""trial"",""time""
""fullscreenenter"",""1"",""101441""
","
",,null,run_exp/static/images/task_images/gems/69.jpg,null,,,,,,,52,,,7,,,,,69,0.760717942,0.753623188,,,,,,,
decision,220,690825,0.0-69.0-2.0,"""event"",""trial"",""time""
""fullscreenenter"",""1"",""101441""
","
","
","""event"",""trial"",""time""
""fullscreenenter"",""1"",""101441""
","
",,1363.1,run_exp/static/images/task_images/land.jpg,65,,,,,,,52,,,7,,,,,,,,281727,1,2,FALSE,,,
dig,221,692477,0.0-70.0-0.0,"""event"",""trial"",""time""
""fullscreenenter"",""1"",""101441""
","
","
","""event"",""trial"",""time""
""fullscreenenter"",""1"",""101441""
","
",,,,,,,,,,,,"[{""stimulus"":""run_exp/static/images/task_images/dig.jpg"",""time"":0.30000001192092896},{""stimulus"":""run_exp/static/images/task_images/land.jpg"",""time"":554.0999999642372},{""stimulus"":""run_exp/static/images/task_images/dig.jpg"",""time"":1096.800000011921}]",[],7,,,,,,,,,,,,,,
harvest,222,693482,0.0-70.0-1.0,"""event"",""trial"",""time""
""fullscreenenter"",""1"",""101441""
","
","
","""event"",""trial"",""time""
""fullscreenenter"",""1"",""101441""
","
",,null,run_exp/static/images/task_images/gems/52.jpg,null,,,,,,,41,,,7,,,,,52,0.788538059,0.788461538,,,,,,,
decision,223,694596,0.0-70.0-2.0,"""event"",""trial"",""time""
""fullscreenenter"",""1"",""101441""
","
","
","""event"",""trial"",""time""
""fullscreenenter"",""1"",""101441""
","
",,1112.2,run_exp/static/images/task_images/land.jpg,65,,,,,,,41,,,7,,,,,,,,285497,1,3,FALSE,,,
dig,224,696491,0.0-71.0-0.0,"""event"",""trial"",""time""
""fullscreenenter"",""1"",""101441""
","
","
","""event"",""trial"",""time""
""fullscreenenter"",""1"",""101441""
","
",,,,,,,,,,,,"[{""stimulus"":""run_exp/static/images/task_images/dig.jpg"",""time"":0.699999988079071},{""stimulus"":""run_exp/static/images/task_images/land.jpg"",""time"":634.8999999761581},{""stimulus"":""run_exp/static/images/task_images/dig.jpg"",""time"":1260.8999999761581}]",[],7,,,,,,,,,,,,,,
harvest,225,697505,0.0-71.0-1.0,"""event"",""trial"",""time""
""fullscreenenter"",""1"",""101441""
","
","
","""event"",""trial"",""time""
""fullscreenenter"",""1"",""101441""
","
",,null,run_exp/static/images/task_images/gems/41.jpg,null,,,,,,,28,,,7,,,,,41,0.681510655,0.682926829,,,,,,,
decision,226,698689,0.0-71.0-2.0,"""event"",""trial"",""time""
""fullscreenenter"",""1"",""101441""
","
","
","""event"",""trial"",""time""
""fullscreenenter"",""1"",""101441""
","
",,1182.8,run_exp/static/images/task_images/land.jpg,65,,,,,,,28,,,7,,,,,,,,289591,1,4,FALSE,,,
dig,227,700509,0.0-72.0-0.0,"""event"",""trial"",""time""
""fullscreenenter"",""1"",""101441""
","
","
","""event"",""trial"",""time""
""fullscreenenter"",""1"",""101441""
","
",,,,,,,,,,,,"[{""stimulus"":""run_exp/static/images/task_images/dig.jpg"",""time"":0.10000002384185791},{""stimulus"":""run_exp/static/images/task_images/land.jpg"",""time"":614.6000000238419},{""stimulus"":""run_exp/static/images/task_images/dig.jpg"",""time"":1223.699999988079}]",[],7,,,,,,,,,,,,,,
harvest,228,701516,0.0-72.0-1.0,"""event"",""trial"",""time""
""fullscreenenter"",""1"",""101441""
","
","
","""event"",""trial"",""time""
""fullscreenenter"",""1"",""101441""
","
",,null,run_exp/static/images/task_images/gems/28.jpg,null,,,,,,,24,,,7,,,,,28,0.842104113,0.857142857,,,,,,,
decision,229,702154,0.0-72.0-2.0,"""event"",""trial"",""time""
""fullscreenenter"",""1"",""101441""
","
","
","""event"",""trial"",""time""
""fullscreenenter"",""1"",""101441""
","
",,635.9,run_exp/static/images/task_images/land.jpg,65,,,,,,,24,,,7,,,,,,,,293055,1,5,FALSE,,,
dig,230,704524,0.0-73.0-0.0,"""event"",""trial"",""time""
""fullscreenenter"",""1"",""101441""
","
","
","""event"",""trial"",""time""
""fullscreenenter"",""1"",""101441""
","
",,,,,,,,,,,,"[{""stimulus"":""run_exp/static/images/task_images/dig.jpg"",""time"":0.19999998807907104},{""stimulus"":""run_exp/static/images/task_images/land.jpg"",""time"":797.5999999642372},{""stimulus"":""run_exp/static/images/task_images/dig.jpg"",""time"":1587.5}]",[],7,,,,,,,,,,,,,,
harvest,231,705527,0.0-73.0-1.0,"""event"",""trial"",""time""
""fullscreenenter"",""1"",""101441""
","
","
","""event"",""trial"",""time""
""fullscreenenter"",""1"",""101441""
","
",,null,run_exp/static/images/task_images/gems/24.jpg,null,,,,,,,20,,,7,,,,,24,0.830858605,0.833333333,,,,,,,
decision,232,707126,0.0-73.0-2.0,"""event"",""trial"",""time""
""fullscreenenter"",""1"",""101441""
","
","
","""event"",""trial"",""time""
""fullscreenenter"",""1"",""101441""
","
",,1597.9,run_exp/static/images/task_images/land.jpg,65,,,,,,,20,,,7,,,,,,,,298027,1,6,FALSE,,,
dig,233,708534,0.0-74.0-0.0,"""event"",""trial"",""time""
""fullscreenenter"",""1"",""101441""
","
","
","""event"",""trial"",""time""
""fullscreenenter"",""1"",""101441""
","
",,,,,,,,,,,,"[{""stimulus"":""run_exp/static/images/task_images/dig.jpg"",""time"":0.09999996423721313},{""stimulus"":""run_exp/static/images/task_images/land.jpg"",""time"":475.69999998807907},{""stimulus"":""run_exp/static/images/task_images/dig.jpg"",""time"":945.0999999642372}]",[],7,,,,,,,,,,,,,,
harvest,234,709535,0.0-74.0-1.0,"""event"",""trial"",""time""
""fullscreenenter"",""1"",""101441""
","
","
","""event"",""trial"",""time""
""fullscreenenter"",""1"",""101441""
","
",,null,run_exp/static/images/task_images/gems/20.jpg,null,,,,,,,15,,,7,,,,,20,0.771382613,0.75,,,,,,,
decision,235,710286,0.0-74.0-2.0,"""event"",""trial"",""time""
""fullscreenenter"",""1"",""101441""
","
","
","""event"",""trial"",""time""
""fullscreenenter"",""1"",""101441""
","
",,748.8,run_exp/static/images/task_images/land.jpg,65,,,,,,,15,,,7,,,,,,,,301187,1,7,TRUE,,,
end_of_block_continue,236,719148,0.0-75.0-0.0,"""event"",""trial"",""time""
""fullscreenenter"",""1"",""101441""
","
","
","""event"",""trial"",""time""
""fullscreenenter"",""1"",""101441""
","
",,null,run_exp/static/audio/clip_32_block_end.m4a,,,,,,,null,,,,,,,,,,,,,,,,,,
alien_welcome,237,724161,0.0-76.0-0.0,"""event"",""trial"",""time""
""fullscreenenter"",""1"",""101441""
","
","
","""event"",""trial"",""time""
""fullscreenenter"",""1"",""101441""
","
",,null,run_exp/static/images/task_images/aliens/old_aliens/planet/alien_planet-24.jpg,null,,,,,,,,,,,,,24,"15,54,23,19,79,61,31,24,20,75,5,52,2,11,57,58,74,56,3,71,35,39,65,21,6,73",,,,,,,,,,
land,238,724674,0.0-76.0-1.0,"""event"",""trial"",""time""
""fullscreenenter"",""1"",""101441""
","
","
","""event"",""trial"",""time""
""fullscreenenter"",""1"",""101441""
","
",,null,run_exp/static/images/task_images/land.jpg,null,,,,,,,100,,,8,,,,,,,,,,,,,,
dig,239,726689,0.0-76.0-2.0,"""event"",""trial"",""time""
""fullscreenenter"",""1"",""101441""
","
","
","""event"",""trial"",""time""
""fullscreenenter"",""1"",""101441""
","
",,,,,,,,,,,,"[{""stimulus"":""run_exp/static/images/task_images/dig.jpg"",""time"":0.19999998807907104},{""stimulus"":""run_exp/static/images/task_images/land.jpg"",""time"":671.3999999761581},{""stimulus"":""run_exp/static/images/task_images/dig.jpg"",""time"":1336.5999999642372}]",[],8,,,,,,,,,,,,,,
harvest,240,727701,0.0-76.0-3.0,"""event"",""trial"",""time""
""fullscreenenter"",""1"",""101441""
","
","
","""event"",""trial"",""time""
""fullscreenenter"",""1"",""101441""
","
",,null,run_exp/static/images/task_images/gems/100.jpg,null,,,,,,,8,,,8,,,,,100,0.076648722,0.08,,,,,,,
decision,241,728207,0.0-76.0-4.0,"""event"",""trial"",""time""
""fullscreenenter"",""1"",""101441""
","
","
","""event"",""trial"",""time""
""fullscreenenter"",""1"",""101441""
","
",,503.8,run_exp/static/images/task_images/land.jpg,65,,,,,,,8,,,8,,,,,,,,9056,2,0,FALSE,,,
dig,242,730710,0.0-77.0-0.0,"""event"",""trial"",""time""
""fullscreenenter"",""1"",""101441""
","
","
","""event"",""trial"",""time""
""fullscreenenter"",""1"",""101441""
","
",,,,,,,,,,,,"[{""stimulus"":""run_exp/static/images/task_images/dig.jpg"",""time"":0.20000004768371582},{""stimulus"":""run_exp/static/images/task_images/land.jpg"",""time"":834.3000000119209},{""stimulus"":""run_exp/static/images/task_images/dig.jpg"",""time"":1671.5}]",[],8,,,,,,,,,,,,,,
harvest,243,731722,0.0-77.0-1.0,"""event"",""trial"",""time""
""fullscreenenter"",""1"",""101441""
","
","
","""event"",""trial"",""time""
""fullscreenenter"",""1"",""101441""
","
",,null,run_exp/static/images/task_images/gems/8.jpg,null,,,,,,,2,,,8,,,,,8,0.196959086,0.25,,,,,,,
decision,244,733025,0.0-77.0-2.0,"""event"",""trial"",""time""
""fullscreenenter"",""1"",""101441""
","
","
","""event"",""trial"",""time""
""fullscreenenter"",""1"",""101441""
","
",,1301.3,run_exp/static/images/task_images/land.jpg,76,,,,,,,2,,,8,,,,,,,,13874,2,1,TRUE,,,
travel,245,741727,0.0-78.0-0.0,"""event"",""trial"",""time""
""fullscreenenter"",""1"",""101441""
","
","
","""event"",""trial"",""time""
""fullscreenenter"",""1"",""101441""
","
",,,,,,,,,,,,"[{""stimulus"":""run_exp/static/images/task_images/rocket-01.jpg"",""time"":0.19999998807907104},{""stimulus"":""run_exp/static/images/task_images/rocket-02.jpg"",""time"":980.0999999642372},{""stimulus"":""run_exp/static/images/task_images/rocket-03.jpg"",""time"":1937.5},{""stimulus"":""run_exp/static/images/task_images/rocket-04.jpg"",""time"":2910.300000011921},{""stimulus"":""run_exp/static/images/task_images/rocket-05.jpg"",""time"":3879.599999964237},{""stimulus"":""run_exp/static/images/task_images/rocket-06.jpg"",""time"":4839.099999964237},{""stimulus"":""run_exp/static/images/task_images/rocket-07.jpg"",""time"":5798.899999976158},{""stimulus"":""run_exp/static/images/task_images/rocket-08.jpg"",""time"":6769.399999976158},{""stimulus"":""run_exp/static/images/task_images/rocket-09.jpg"",""time"":7729.899999976158}]",[],8,,,,,,,,,,,,,,
alien_welcome,246,746730,0.0-78.0-1.0,"""event"",""trial"",""time""
""fullscreenenter"",""1"",""101441""
","
","
","""event"",""trial"",""time""
""fullscreenenter"",""1"",""101441""
","
",,null,run_exp/static/images/task_images/aliens/old_aliens/planet/alien_planet-20.jpg,null,,,,,,,,,,,,,20,"15,54,23,19,79,61,31,24,20,75,5,52,2,11,57,58,74,56,3,71,35,39,65,21,6,73",,,,,,,,,,
land,247,747243,0.0-78.0-2.0,"""event"",""trial"",""time""
""fullscreenenter"",""1"",""101441""
","
","
","""event"",""trial"",""time""
""fullscreenenter"",""1"",""101441""
","
",,null,run_exp/static/images/task_images/land.jpg,null,,,,,,,101,,,9,,,,,,,,,,,,,,
dig,248,749259,0.0-78.0-3.0,"""event"",""trial"",""time""
""fullscreenenter"",""1"",""101441""
","
","
","""event"",""trial"",""time""
""fullscreenenter"",""1"",""101441""
","
",,,,,,,,,,,,"[{""stimulus"":""run_exp/static/images/task_images/dig.jpg"",""time"":0.30000001192092896},{""stimulus"":""run_exp/static/images/task_images/land.jpg"",""time"":669.9000000357628},{""stimulus"":""run_exp/static/images/task_images/dig.jpg"",""time"":1341.699999988079}]",[],9,,,,,,,,,,,,,,
harvest,249,750271,0.0-78.0-4.0,"""event"",""trial"",""time""
""fullscreenenter"",""1"",""101441""
","
","
","""event"",""trial"",""time""
""fullscreenenter"",""1"",""101441""
","
",,null,run_exp/static/images/task_images/gems/101.jpg,null,,,,,,,26,,,9,,,,,101,0.254058637,0.257425743,,,,,,,
decision,250,750425,0.0-78.0-5.0,"""event"",""trial"",""time""
""fullscreenenter"",""1"",""101441""
","
","
","""event"",""trial"",""time""
""fullscreenenter"",""1"",""101441""
","
",,152.1,run_exp/static/images/task_images/land.jpg,65,,,,,,,26,,,9,,,,,,,,31274,2,0,FALSE,,,
dig,251,753280,0.0-79.0-0.0,"""event"",""trial"",""time""
""fullscreenenter"",""1"",""101441""
","
","
","""event"",""trial"",""time""
""fullscreenenter"",""1"",""101441""
","
