trial_type,trial_index,time_elapsed,internal_node_id,interactions,blur_events,focus_events,fullscreenenter_events,fullscreenexit_events,success,rt,stimulus,key_press,prompt,subject_id,participant_id,age,gender,button_pressed,next_reward,animation_sequence,responses,planet,curr_prac_trial,n_prac_rounds,alien,aliens,reward_received,decay_rate_actual,decay_rate_exp,time_in_block,block_num,prt,last_trial_on_planet,button_html,bonus,num_failures
pavlovia,0,10,0.0-0.0,"""event"",""trial"",""time""
""fullscreenenter"",""1"",""5531""
","
","
","""event"",""trial"",""time""
""fullscreenenter"",""1"",""5531""
","
",,,,,,,,,,,,,,,,,,,,,,,,,,,,
fullscreen,1,6254,0.0-1.0,"""event"",""trial"",""time""
""fullscreenenter"",""1"",""5531""
","
","
","""event"",""trial"",""time""
""fullscreenenter"",""1"",""5531""
","
",TRUE,,,,,,,,,,,,,,,,,,,,,,,,,,,
instruc_welcome,2,17425,0.0-2.0,"""event"",""trial"",""time""
""fullscreenenter"",""1"",""5531""
","
","
","""event"",""trial"",""time""
""fullscreenenter"",""1"",""5531""
","
",,null,run_exp/static/audio/clip_1_welcome.m4a,null,"<p>Howdy! In this experiment, you’ll be an explorer traveling through space to collect space treasure.</p><p>Your mission is to collect as much treasure as possible.</p><br><br><p><img src='run_exp/static/images/task_images/opening_img-01.jpg' height='300' width='auto'></p>",9368,2617,9.82,Male,,,,,,,,,,,,,,,,,,,
audio-keyboard-response,3,34277,0.0-3.0,"""event"",""trial"",""time""
""fullscreenenter"",""1"",""5531""
","
","
","""event"",""trial"",""time""
""fullscreenenter"",""1"",""5531""
","
",,null,run_exp/static/audio/clip_2_move.m4a,null,,,,,,,,,,,,,,,,,,,,,,,,
welcome_dec,4,294364,0.0-4.0,"""event"",""trial"",""time""
""fullscreenenter"",""1"",""5531""
","
","
","""event"",""trial"",""time""
""fullscreenenter"",""1"",""5531""
","
",,260080.7,"<p>Howdy! In this experiment, you’ll be an explorer traveling through space to collect space treasure.</p><p>Your mission is to collect as much treasure as possible.</p><br><br><p><img src='run_exp/static/images/task_images/opening_img-01.jpg' height='300' width='auto'></p>",,,,,,,1,,,,,,,,,,,,,,,,,,
html-keyboard-response,5,299284,0.0-5.0,"""event"",""trial"",""time""
""fullscreenenter"",""1"",""5531""
","
","
","""event"",""trial"",""time""
""fullscreenenter"",""1"",""5531""
","
",,3233.8,"<p>Howdy! In this experiment, you’ll be an explorer traveling through space to collect space treasure.</p><p>Your mission is to collect as much treasure as possible.</p><br><br><p><img src='run_exp/static/images/task_images/opening_img-01.jpg' height='300' width='auto'></p><button class=""jspsych-html-btn-unchosen""><img src=""run_exp/static/images/task_images/planet-01.jpg"" height=""50""></button><button class=""jspsych-html-btn-chosen""><img src=""run_exp/static/images/task_images/planet-02.jpg"" height=""50""></button><p><b>[press the space bar to lock in your answer]<b><br></p>",32,,,,,,,,,,,,,,,,,,,,,,,,
instruc_goal,6,312478,0.0-6.0-0.0,"""event"",""trial"",""time""
""fullscreenenter"",""1"",""5531""
","
","
","""event"",""trial"",""time""
""fullscreenenter"",""1"",""5531""
","
",,null,run_exp/static/audio/clip_3_goal.m4a,null,"<p> As a space explorer, you’ll visit different planets to dig for space treasure, these pink gems.</p> <p> The more treasure you dig up, the more bonus money you’ll win! </p><br><br><p><img src='run_exp/static/images/task_images/pink_gem.jpg' height='300' width='auto'></p>",,,,,,,,,,,,,,,,,,,,,,,
instruc_goal,7,317321,0.0-6.0-1.0,"""event"",""trial"",""time""
""fullscreenenter"",""1"",""5531""
","
","
","""event"",""trial"",""time""
""fullscreenenter"",""1"",""5531""
","
",,4823,"<p> As a space explorer, you’ll visit different planets to dig for space treasure, these pink gems.</p> <p> The more treasure you dig up, the more bonus money you’ll win! </p><br><br><p><img src='run_exp/static/images/task_images/pink_gem.jpg' height='300' width='auto'></p>",,,,,,,1,,,,,,,,,,,,,,,,,,
html-keyboard-response,8,318778,0.0-6.0-2.0,"""event"",""trial"",""time""
""fullscreenenter"",""1"",""5531""
","
","
","""event"",""trial"",""time""
""fullscreenenter"",""1"",""5531""
","
",,1454.2,"<p> As a space explorer, you’ll visit different planets to dig for space treasure, these pink gems.</p> <p> The more treasure you dig up, the more bonus money you’ll win! </p><br><br><p><img src='run_exp/static/images/task_images/pink_gem.jpg' height='300' width='auto'></p><button class=""jspsych-html-btn-unchosen""><img src=""run_exp/static/images/task_images/planet-01.jpg"" height=""50""></button><button class=""jspsych-html-btn-chosen""><img src=""run_exp/static/images/task_images/planet-02.jpg"" height=""50""></button><p><b>[press the space bar to lock in your answer]<b><br></p>",32,,,,,,,,,,,,,,,,,,,,,,,,
instruc_dig,9,335490,0.0-7.0-0.0,"""event"",""trial"",""time""
""fullscreenenter"",""1"",""5531""
","
","
","""event"",""trial"",""time""
""fullscreenenter"",""1"",""5531""
","
",,null,run_exp/static/audio/clip_4_dig.m4a,null,,,,,,,100,,,,,,,,,,,,,,,,,
instruc_dig_try,10,337869,0.0-7.0-1.0,"""event"",""trial"",""time""
""fullscreenenter"",""1"",""5531""
","
","
","""event"",""trial"",""time""
""fullscreenenter"",""1"",""5531""
","
",,2376.3,"<p> When you’ve arrived at a new planet, you will dig once. </p> <p>Then, you get to decide if you want to stay on the planet and dig again or travel to a new planet and dig there.</p> <p> To stay and dig, press the letter <strong>‘A’</strong> on your keyboard. Try pressing it now! </p><p><img src='run_exp/static/images/task_images/land.jpg'  height='700' width='auto'></p>",65,"<p> When you’ve arrived at a new planet, you will dig once. </p> <p>Then, you get to decide if you want to stay on the planet and dig again or travel to a new planet and dig there.</p> <p> To stay and dig, press the letter <strong>‘A’</strong> on your keyboard. Try pressing it now! </p><p><img src='run_exp/static/images/task_images/land.jpg'  height='700' width='auto'></p>",,,,,,100,,,,,,,,,,,,,,,,,
dig_prac,11,339914,0.0-7.0-2.0,"""event"",""trial"",""time""
""fullscreenenter"",""1"",""5531""
","
","
","""event"",""trial"",""time""
""fullscreenenter"",""1"",""5531""
","
",,,,,,,,,,,,"[{""stimulus"":""run_exp/static/images/task_images/dig.jpg"",""time"":0.5},{""stimulus"":""run_exp/static/images/task_images/land.jpg"",""time"":721},{""stimulus"":""run_exp/static/images/task_images/dig.jpg"",""time"":1348.4000000000233}]",[],,,,,,,,,,,,,,,
instruc_travel,12,376252,0.0-7.0-3.0,"""event"",""trial"",""time""
""fullscreenenter"",""1"",""5531""
","
","
","""event"",""trial"",""time""
""fullscreenenter"",""1"",""5531""
","
",,null,run_exp/static/audio/clip_5_travel.m4a,null,"<p>Every time you dig up gems, there are less gems on the planet, so the more you dig on a planet the fewer gems you’ll get with each dig.</p><p>When gems are running low, you may want to travel to a new planet. </p> <p>  Planets are very far apart in this galaxy, so it will take some time to travel between them. </p> <br><p>There are lots and lots of planets for you to visit, so you won’t be able to return to any planets you’ve seen before. </p><br><p>To leave this planet and travel to a new one, press the letter <strong>‘L’</strong> on your keyboard. Try pressing it now! </p><p><img src='run_exp/static/images/task_images/rocket-01.jpg'  height='600' width='auto'></p>",,,,,,,,,,,,,,,,,,,,,,,
instruc_travel_try,13,378507,0.0-7.0-4.0,"""event"",""trial"",""time""
""fullscreenenter"",""1"",""5531""
","
","
","""event"",""trial"",""time""
""fullscreenenter"",""1"",""5531""
","
",,2251.1,"<p>Every time you dig up gems, there are less gems on the planet, so the more you dig on a planet the fewer gems you’ll get with each dig.</p><p>When gems are running low, you may want to travel to a new planet. </p> <p>  Planets are very far apart in this galaxy, so it will take some time to travel between them. </p> <br><p>There are lots and lots of planets for you to visit, so you won’t be able to return to any planets you’ve seen before. </p><br><p>To leave this planet and travel to a new one, press the letter <strong>‘L’</strong> on your keyboard. Try pressing it now! </p><p><img src='run_exp/static/images/task_images/rocket-01.jpg'  height='600' width='auto'></p>",76,"<p>Every time you dig up gems, there are less gems on the planet, so the more you dig on a planet the fewer gems you’ll get with each dig.</p><p>When gems are running low, you may want to travel to a new planet. </p> <p>  Planets are very far apart in this galaxy, so it will take some time to travel between them. </p> <br><p>There are lots and lots of planets for you to visit, so you won’t be able to return to any planets you’ve seen before. </p><br><p>To leave this planet and travel to a new one, press the letter <strong>‘L’</strong> on your keyboard. Try pressing it now! </p><p><img src='run_exp/static/images/task_images/rocket-01.jpg'  height='600' width='auto'></p>",,,,,,,,,,,,,,,,,,,,,,,
travel_prac,14,388543,0.0-7.0-5.0,"""event"",""trial"",""time""
""fullscreenenter"",""1"",""5531""
","
","
","""event"",""trial"",""time""
""fullscreenenter"",""1"",""5531""
","
",,,,,,,,,,,,"[{""stimulus"":""run_exp/static/images/task_images/rocket-01.jpg"",""time"":0.40000000002328306},{""stimulus"":""run_exp/static/images/task_images/rocket-02.jpg"",""time"":1112.5999999999767},{""stimulus"":""run_exp/static/images/task_images/rocket-03.jpg"",""time"":2241.9000000000233},{""stimulus"":""run_exp/static/images/task_images/rocket-04.jpg"",""time"":3346.5},{""stimulus"":""run_exp/static/images/task_images/rocket-05.jpg"",""time"":4457.5},{""stimulus"":""run_exp/static/images/task_images/rocket-06.jpg"",""time"":5570.699999999953},{""stimulus"":""run_exp/static/images/task_images/rocket-07.jpg"",""time"":6683.5},{""stimulus"":""run_exp/static/images/task_images/rocket-08.jpg"",""time"":7791.900000000023},{""stimulus"":""run_exp/static/images/task_images/rocket-09.jpg"",""time"":8902.599999999977}]",[],0,,,,,,,,,,,,,,
instruc_alien_greet,15,415884,0.0-7.0-6.0,"""event"",""trial"",""time""
""fullscreenenter"",""1"",""5531""
","
","
","""event"",""trial"",""time""
""fullscreenenter"",""1"",""5531""
","
",,null,run_exp/static/audio/clip_6_alien.m4a,null,"<p>When you arrive at a new planet, the alien who owns the treasure mine on that planet will greet you!</p><p>The better an alien takes care of their mine the easier it is to dig for gems. Some aliens take better care of their mine than others. So, you won’t get exactly the same amount of gems on each planet.</p><p>What the alien looks like does not tell you anything about how many gems there are on the planet.</p><br><p><img src=""run_exp/static/images/task_images/aliens/instructions_aliens/planet/alien_planet-1.jpg""  height=""600"" width=""auto""></p>",,,,,,,,,,,,,,,,,,,,,,,
instruc_alien_greet,16,423971,0.0-7.0-7.0,"""event"",""trial"",""time""
""fullscreenenter"",""1"",""5531""
","
","
","""event"",""trial"",""time""
""fullscreenenter"",""1"",""5531""
","
",,8081.4,"<p>When you arrive at a new planet, the alien who owns the treasure mine on that planet will greet you!</p><p>The better an alien takes care of their mine the easier it is to dig for gems. Some aliens take better care of their mine than others. So, you won’t get exactly the same amount of gems on each planet.</p><p>What the alien looks like does not tell you anything about how many gems there are on the planet.</p><br><p><img src=""run_exp/static/images/task_images/aliens/instructions_aliens/planet/alien_planet-1.jpg""  height=""600"" width=""auto""></p>",,,,,,,1,,,,,,,,,,,,,,,,,,
html-keyboard-response,17,426650,0.0-7.0-8.0,"""event"",""trial"",""time""
""fullscreenenter"",""1"",""5531""
","
","
","""event"",""trial"",""time""
""fullscreenenter"",""1"",""5531""
","
",,2676,"<p>When you arrive at a new planet, the alien who owns the treasure mine on that planet will greet you!</p><p>The better an alien takes care of their mine the easier it is to dig for gems. Some aliens take better care of their mine than others. So, you won’t get exactly the same amount of gems on each planet.</p><p>What the alien looks like does not tell you anything about how many gems there are on the planet.</p><br><p><img src=""run_exp/static/images/task_images/aliens/instructions_aliens/planet/alien_planet-1.jpg""  height=""600"" width=""auto""></p><button class=""jspsych-html-btn-unchosen""><img src=""run_exp/static/images/task_images/planet-01.jpg"" height=""50""></button><button class=""jspsych-html-btn-chosen""><img src=""run_exp/static/images/task_images/planet-02.jpg"" height=""50""></button><p><b>[press the space bar to lock in your answer]<b><br></p>",32,,,,,,,,,,,,,,,,,,,,,,,,
time_out,18,437758,0.0-8.0-0.0,"""event"",""trial"",""time""
""fullscreenenter"",""1"",""5531""
","
","
","""event"",""trial"",""time""
""fullscreenenter"",""1"",""5531""
","
",,null,run_exp/static/audio/clip_7_timeout.m4a,null,"<p>If you don't make your choice fast enough, you’ll have to wait a few seconds before you can make another one.</p><p>You can’t dig for more gems or travel to new planets. You just have to sit and wait.</p><br><p><img src='run_exp/static/images/task_images/time_out.jpg'  height='600' width='auto'></p>",,,,,,,,,,,,,,,,,,,,,,,
time_out,19,444832,0.0-8.0-1.0,"""event"",""trial"",""time""
""fullscreenenter"",""1"",""5531""
","
","
","""event"",""trial"",""time""
""fullscreenenter"",""1"",""5531""
","
",,7066.4,"<p>If you don't make your choice fast enough, you’ll have to wait a few seconds before you can make another one.</p><p>You can’t dig for more gems or travel to new planets. You just have to sit and wait.</p><br><p><img src='run_exp/static/images/task_images/time_out.jpg'  height='600' width='auto'></p>",,,,,,,1,,,,,,,,,,,,,,,,,,
html-keyboard-response,20,447215,0.0-8.0-2.0,"""event"",""trial"",""time""
""fullscreenenter"",""1"",""5531""
","
","
","""event"",""trial"",""time""
""fullscreenenter"",""1"",""5531""
","
",,2379.1,"<p>If you don't make your choice fast enough, you’ll have to wait a few seconds before you can make another one.</p><p>You can’t dig for more gems or travel to new planets. You just have to sit and wait.</p><br><p><img src='run_exp/static/images/task_images/time_out.jpg'  height='600' width='auto'></p><button class=""jspsych-html-btn-unchosen""><img src=""run_exp/static/images/task_images/planet-01.jpg"" height=""50""></button><button class=""jspsych-html-btn-chosen""><img src=""run_exp/static/images/task_images/planet-02.jpg"" height=""50""></button><p><b>[press the space bar to lock in your answer]<b><br></p>",32,,,,,,,,,,,,,,,,,,,,,,,,
instruc_break,21,462964,0.0-9.0-0.0,"""event"",""trial"",""time""
""fullscreenenter"",""1"",""5531""
","
","
","""event"",""trial"",""time""
""fullscreenenter"",""1"",""5531""
","
",,null,run_exp/static/audio/clip_8_break.m4a,null,"<p> After digging and traveling for a while, you’ll be able to take a break at home base. </p><p>The game will last 20 minutes no matter what.</p><p>You will visit home base every 5 minutes, so, you will visit home base three times during the game.</p><br><p><img src='run_exp/static/images/task_images/home_base.jpg' height='600' width='auto'></p>",,,,,,,,,,,,,,,,,,,,,,,
instruc_break,22,468417,0.0-9.0-1.0,"""event"",""trial"",""time""
""fullscreenenter"",""1"",""5531""
","
","
","""event"",""trial"",""time""
""fullscreenenter"",""1"",""5531""
","
",,5448,"<p> After digging and traveling for a while, you’ll be able to take a break at home base. </p><p>The game will last 20 minutes no matter what.</p><p>You will visit home base every 5 minutes, so, you will visit home base three times during the game.</p><br><p><img src='run_exp/static/images/task_images/home_base.jpg' height='600' width='auto'></p>",,,,,,,1,,,,,,,,,,,,,,,,,,
html-keyboard-response,23,468917,0.0-9.0-2.0,"""event"",""trial"",""time""
""fullscreenenter"",""1"",""5531""
","
","
","""event"",""trial"",""time""
""fullscreenenter"",""1"",""5531""
","
",,497.5,"<p> After digging and traveling for a while, you’ll be able to take a break at home base. </p><p>The game will last 20 minutes no matter what.</p><p>You will visit home base every 5 minutes, so, you will visit home base three times during the game.</p><br><p><img src='run_exp/static/images/task_images/home_base.jpg' height='600' width='auto'></p><button class=""jspsych-html-btn-unchosen""><img src=""run_exp/static/images/task_images/planet-01.jpg"" height=""50""></button><button class=""jspsych-html-btn-chosen""><img src=""run_exp/static/images/task_images/planet-02.jpg"" height=""50""></button><p><b>[press the space bar to lock in your answer]<b><br></p>",32,,,,,,,,,,,,,,,,,,,,,,,,
instruc_prac_game,24,479062,0.0-10.0-0.0,"""event"",""trial"",""time""
""fullscreenenter"",""1"",""5531""
","
","
","""event"",""trial"",""time""
""fullscreenenter"",""1"",""5531""
","
",,null,run_exp/static/audio/clip_9_practice.m4a,null,"<p> Are you ready to play a practice game? </p> <p>In this practice game, you'll be digging up barrels of gems. But, in the real game, you'll be digging up the gems themselves. </p>",,,,,,,,,,,,,,,,,,,,,,,
html-button-response,25,482204,0.0-10.0-1.0,"""event"",""trial"",""time""
""fullscreenenter"",""1"",""5531""
","
","
","""event"",""trial"",""time""
""fullscreenenter"",""1"",""5531""
","
",,3139.7,"<p> Are you ready to play a practice game? </p> <p>In this practice game, you'll be digging up barrels of gems. But, in the real game, you'll be digging up the gems themselves. </p>",,,,,,,0,,,,,,,,,,,,,,,,,,
alien_welcome_prac,26,487227,0.0-11.0-0.0,"""event"",""trial"",""time""
""fullscreenenter"",""1"",""5531""
","
","
","""event"",""trial"",""time""
""fullscreenenter"",""1"",""5531""
","
",,null,run_exp/static/images/task_images/aliens/practice_aliens/planet/alien_planet-5.jpg,null,,,,,,,,,,,,,,,,,,,,,,,,
land_prac,27,487731,0.0-11.0-1.0,"""event"",""trial"",""time""
""fullscreenenter"",""1"",""5531""
","
","
","""event"",""trial"",""time""
""fullscreenenter"",""1"",""5531""
","
",,null,run_exp/static/images/task_images/land.jpg,null,,,,,,,93,,,0,,,,,,,,,,,,,,
dig_prac,28,489738,0.0-11.0-2.0,"""event"",""trial"",""time""
""fullscreenenter"",""1"",""5531""
","
","
","""event"",""trial"",""time""
""fullscreenenter"",""1"",""5531""
","
",,,,,,,,,,,,"[{""stimulus"":""run_exp/static/images/task_images/dig.jpg"",""time"":0.30000000004656613},{""stimulus"":""run_exp/static/images/task_images/land.jpg"",""time"":668.6000000000931},{""stimulus"":""run_exp/static/images/task_images/dig.jpg"",""time"":1342.3000000000466}]",[],,,,,,,,,,,,,,,
harvest_prac,29,490777,0.0-11.0-3.0,"""event"",""trial"",""time""
""fullscreenenter"",""1"",""5531""
","
","
","""event"",""trial"",""time""
""fullscreenenter"",""1"",""5531""
","
",,null,run_exp/static/images/task_images/barrel_text.jpg,null,,,,,,,,,,,,,,,,,,,,,,,,
decision_prac,30,491618,0.0-11.0-4.0,"""event"",""trial"",""time""
""fullscreenenter"",""1"",""5531""
","
","
","""event"",""trial"",""time""
""fullscreenenter"",""1"",""5531""
","
",,839.4,run_exp/static/images/task_images/land.jpg,65,,,,,,,,,,,1,,,,,,,,,,,,,
dig_prac,31,493653,0.0-12.0-0.0,"""event"",""trial"",""time""
""fullscreenenter"",""1"",""5531""
","
","
","""event"",""trial"",""time""
""fullscreenenter"",""1"",""5531""
","
",,,,,,,,,,,,"[{""stimulus"":""run_exp/static/images/task_images/dig.jpg"",""time"":0.19999999995343387},{""stimulus"":""run_exp/static/images/task_images/land.jpg"",""time"":683.1999999999534},{""stimulus"":""run_exp/static/images/task_images/dig.jpg"",""time"":1339.6999999999534}]",[],,,,,,,,,,,,,,,
harvest_prac,32,494662,0.0-12.0-1.0,"""event"",""trial"",""time""
""fullscreenenter"",""1"",""5531""
","
","
","""event"",""trial"",""time""
""fullscreenenter"",""1"",""5531""
","
",,null,run_exp/static/images/task_images/barrel_text.jpg,null,,,,,,,,,,,,,,,,,,,,,,,,
decision_prac,33,495182,0.0-12.0-2.0,"""event"",""trial"",""time""
""fullscreenenter"",""1"",""5531""
","
","
","""event"",""trial"",""time""
""fullscreenenter"",""1"",""5531""
","
",,517.4,run_exp/static/images/task_images/land.jpg,65,,,,,,,,,,,2,,,,,,,,,,,,,
dig_prac,34,497195,0.0-13.0-0.0,"""event"",""trial"",""time""
""fullscreenenter"",""1"",""5531""
","
","
","""event"",""trial"",""time""
""fullscreenenter"",""1"",""5531""
","
",,,,,,,,,,,,"[{""stimulus"":""run_exp/static/images/task_images/dig.jpg"",""time"":0.30000000004656613},{""stimulus"":""run_exp/static/images/task_images/land.jpg"",""time"":696.5},{""stimulus"":""run_exp/static/images/task_images/dig.jpg"",""time"":1339.2000000001863}]",[],,,,,,,,,,,,,,,
harvest_prac,35,498210,0.0-13.0-1.0,"""event"",""trial"",""time""
""fullscreenenter"",""1"",""5531""
","
","
","""event"",""trial"",""time""
""fullscreenenter"",""1"",""5531""
","
",,null,run_exp/static/images/task_images/barrel_text.jpg,null,,,,,,,,,,,,,,,,,,,,,,,,
decision_prac,36,499131,0.0-13.0-2.0,"""event"",""trial"",""time""
""fullscreenenter"",""1"",""5531""
","
","
","""event"",""trial"",""time""
""fullscreenenter"",""1"",""5531""
","
",,919.6,run_exp/static/images/task_images/land.jpg,65,,,,,,,,,,,3,,,,,,,,,,,,,
dig_prac,37,501144,0.0-14.0-0.0,"""event"",""trial"",""time""
""fullscreenenter"",""1"",""5531""
","
","
","""event"",""trial"",""time""
""fullscreenenter"",""1"",""5531""
","
",,,,,,,,,,,,"[{""stimulus"":""run_exp/static/images/task_images/dig.jpg"",""time"":0.30000000004656613},{""stimulus"":""run_exp/static/images/task_images/land.jpg"",""time"":673.6999999999534},{""stimulus"":""run_exp/static/images/task_images/dig.jpg"",""time"":1351.6999999999534}]",[],,,,,,,,,,,,,,,
harvest_prac,38,502151,0.0-14.0-1.0,"""event"",""trial"",""time""
""fullscreenenter"",""1"",""5531""
","
","
","""event"",""trial"",""time""
""fullscreenenter"",""1"",""5531""
","
",,null,run_exp/static/images/task_images/barrel_text.jpg,null,,,,,,,,,,,,,,,,,,,,,,,,
decision_prac,39,502710,0.0-14.0-2.0,"""event"",""trial"",""time""
""fullscreenenter"",""1"",""5531""
","
","
","""event"",""trial"",""time""
""fullscreenenter"",""1"",""5531""
","
",,557.5,run_exp/static/images/task_images/land.jpg,65,,,,,,,,,,,4,,,,,,,,,,,,,
dig_prac,40,504721,0.0-15.0-0.0,"""event"",""trial"",""time""
""fullscreenenter"",""1"",""5531""
","
","
","""event"",""trial"",""time""
""fullscreenenter"",""1"",""5531""
","
",,,,,,,,,,,,"[{""stimulus"":""run_exp/static/images/task_images/dig.jpg"",""time"":0.39999999990686774},{""stimulus"":""run_exp/static/images/task_images/land.jpg"",""time"":675.6999999999534},{""stimulus"":""run_exp/static/images/task_images/dig.jpg"",""time"":1350}]",[],,,,,,,,,,,,,,,
harvest_prac,41,505740,0.0-15.0-1.0,"""event"",""trial"",""time""
""fullscreenenter"",""1"",""5531""
","
","
","""event"",""trial"",""time""
""fullscreenenter"",""1"",""5531""
","
",,null,run_exp/static/images/task_images/barrel_text.jpg,null,,,,,,,,,,,,,,,,,,,,,,,,
decision_prac,42,506028,0.0-15.0-2.0,"""event"",""trial"",""time""
""fullscreenenter"",""1"",""5531""
","
","
","""event"",""trial"",""time""
""fullscreenenter"",""1"",""5531""
","
",,285.2,run_exp/static/images/task_images/land.jpg,65,,,,,,,,,,,,1,,,,,,,,,,,,
quiz_instruc,43,520258,0.0-16.0-0.0,"""event"",""trial"",""time""
""fullscreenenter"",""1"",""5531""
","
","
","""event"",""trial"",""time""
""fullscreenenter"",""1"",""5531""
","
",,14223.7,run_exp/static/audio/clip_10_quiz.m4a,,,,,,,0,,,,,,,,,,,,,,,,,,
instruc_repeat,44,563072,0.0-16.0-1.0,"""event"",""trial"",""time""
""fullscreenenter"",""1"",""5531""
","
","
","""event"",""trial"",""time""
""fullscreenenter"",""1"",""5531""
","
",,null,"<p> Are you ready to play a practice game? </p> <p>In this practice game, you'll be digging up barrels of gems. But, in the real game, you'll be digging up the gems themselves. </p>",null,"<p>In this game, your goal is to collect as many gems as you can. That’s how you will win bonus money. </p> <p>The entire game will last 20 minutes no matter how many gems you collect or how many planets you visit. </p><p>To stay on a planet and dig again, press the letter A on your keyboard. To leave for a new planet, press the letter L.</p><p>The more you dig on a planet, the fewer gems you’ll get with each dig which is why you might consider leaving for a new planet. </p><p>When you arrive at a new planet, you’ll be greeted by an alien. What the alien looks like does not tell you anything about how much treasure is on the planet. </p>",,,,,,,,,,,,,,,,,,,,,,,
instruc_repeat_continue,45,567708,0.0-16.0-2.0,"""event"",""trial"",""time""
""fullscreenenter"",""1"",""5531""
","
","
","""event"",""trial"",""time""
""fullscreenenter"",""1"",""5531""
","
",,4633.5,"<p> Are you ready to play a practice game? </p> <p>In this practice game, you'll be digging up barrels of gems. But, in the real game, you'll be digging up the gems themselves. </p>",,,,,,,0,,,,,,,,,,,,,,,,,,
quiz_q_1_ask,46,578862,0.0-16.0-3.0,"""event"",""trial"",""time""
""fullscreenenter"",""1"",""5531""
","
","
","""event"",""trial"",""time""
""fullscreenenter"",""1"",""5531""
","
",,11147.2,run_exp/static/audio/clip_11_q1_ask.m4a,,,,,,,2,,,,,,,,,,,,,,,,,,
quiz_q_1_fb_correct,47,582708,0.0-17.0-0.0,"""event"",""trial"",""time""
""fullscreenenter"",""1"",""5531""
","
","
","""event"",""trial"",""time""
""fullscreenenter"",""1"",""5531""
","
",,null,run_exp/static/audio/clip_12_q1_correct.m4a,null,<p>That’s correct. You win extra money by collecting more gems.</p>,,,,,,,,,,,,,,,,,,,,,,,
quiz_q_2_ask,48,587930,0.0-17.0-1.0,"""event"",""trial"",""time""
""fullscreenenter"",""1"",""5531""
","
","
","""event"",""trial"",""time""
""fullscreenenter"",""1"",""5531""
","
",,5216.7,run_exp/static/audio/clip_14_q2_ask.m4a,,,,,,,1,,,,,,,,,,,,,,,,,,
quiz_q_2_fb_correct,49,591967,0.0-18.0-0.0,"""event"",""trial"",""time""
""fullscreenenter"",""1"",""5531""
","
","
","""event"",""trial"",""time""
""fullscreenenter"",""1"",""5531""
","
",,null,run_exp/static/audio/clip_15_q2_correct.m4a,null,<p>That’s correct. The experiment is 20 minutes no matter what.</p>,,,,,,,,,,,,,,,,,,,,,,,
quiz_q_3_ask,50,596156,0.0-18.0-1.0,"""event"",""trial"",""time""
""fullscreenenter"",""1"",""5531""
","
","
","""event"",""trial"",""time""
""fullscreenenter"",""1"",""5531""
","
",,4186.3,run_exp/static/audio/clip_17_q3_ask.m4a,,,,,,,1,,,,,,,,,,,,,,,,,,
quiz_q_3_fb_correct,51,600167,0.0-19.0-0.0,"""event"",""trial"",""time""
""fullscreenenter"",""1"",""5531""
","
","
","""event"",""trial"",""time""
""fullscreenenter"",""1"",""5531""
","
",,null,run_exp/static/audio/clip_18_q3_correct.m4a,null,<p> That’s correct. You press the letter L to travel to a new planet.</p>,,,,,,,,,,,,,,,,,,,,,,,
quiz_q_4_ask,52,606322,0.0-19.0-1.0,"""event"",""trial"",""time""
""fullscreenenter"",""1"",""5531""
","
","
","""event"",""trial"",""time""
""fullscreenenter"",""1"",""5531""
","
",,6153.1,run_exp/static/audio/clip_20_q4_ask.m4a,,,,,,,0,,,,,,,,,,,,,,,,,,
quiz_q_4_fb_correct,53,611667,0.0-20.0-0.0,"""event"",""trial"",""time""
""fullscreenenter"",""1"",""5531""
","
","
","""event"",""trial"",""time""
""fullscreenenter"",""1"",""5531""
","
",,null,run_exp/static/audio/clip_21_q4_correct.m4a,null,<p> That’s correct. The more you dig on a planet the fewer gems you’ll get with each dig. </p>,,,,,,,,,,,,,,,,,,,,,,,
quiz_q_5_ask,54,615497,0.0-20.0-1.0,"""event"",""trial"",""time""
""fullscreenenter"",""1"",""5531""
","
","
","""event"",""trial"",""time""
""fullscreenenter"",""1"",""5531""
","
",,3827.1,run_exp/static/audio/clip_23_q5_ask.m4a,,,,,,,1,,,,,,,,,,,,,,,,,,
quiz_q_5_fb_correct,55,620507,0.0-21.0-0.0,"""event"",""trial"",""time""
""fullscreenenter"",""1"",""5531""
","
","
","""event"",""trial"",""time""
""fullscreenenter"",""1"",""5531""
","
",,null,run_exp/static/audio/clip_24_q5_correct.m4a,null,<p> That’s correct. The alien tells you nothing about how much treasure is on the planet.</p>,,,,,,,,,,,,,,,,,,,,,,,
quiz_correct,56,623967,0.0-22.0-0.0,"""event"",""trial"",""time""
""fullscreenenter"",""1"",""5531""
","
","
","""event"",""trial"",""time""
""fullscreenenter"",""1"",""5531""
","
",,null,run_exp/static/audio/clip_26_correct_quiz.m4a,null,,,,,,,,,,,,,,,,,,,,,,,,
quiz_correct_continue,57,627821,0.0-22.0-1.0,"""event"",""trial"",""time""
""fullscreenenter"",""1"",""5531""
","
","
","""event"",""trial"",""time""
""fullscreenenter"",""1"",""5531""
","
",,3852.7,<p>Good job! You're now ready to move on to the real game!</p>,,,,,,,0,,,,,,,,,,,,,,,,,,
audio-keyboard-response,58,637966,0.0-22.0-2.0,"""event"",""trial"",""time""
""fullscreenenter"",""1"",""5531""
","
","
","""event"",""trial"",""time""
""fullscreenenter"",""1"",""5531""
","
",,null,run_exp/static/audio/clip_28_real_game.m4a,null,,,,,,,,,,,,,,,,,,,,,,,,
instruc_begin_exp_contine,59,639951,0.0-22.0-3.0,"""event"",""trial"",""time""
""fullscreenenter"",""1"",""5531""
","
","
","""event"",""trial"",""time""
""fullscreenenter"",""1"",""5531""
","
",,1984,"<p>Now that you know how  to dig for space treasure and travel to new planets,you can start exploring! </p><p>Do you want to go over the instructions again or get started with the real game?</p>",,,,,,,1,,,,,,1,,,,,,,,,,,,
alien_welcome,60,644965,0.0-23.0-0.0,"""event"",""trial"",""time""
""fullscreenenter"",""1"",""5531""
","
","
","""event"",""trial"",""time""
""fullscreenenter"",""1"",""5531""
","
",,null,run_exp/static/images/task_images/aliens/old_aliens/planet/alien_planet-30.jpg,null,,,,,,,,,,,,,30,"30,27,16,19,18,37,23,78,52,17,46,44,32,76,70,12,53,71,39,77,50",,,,,,,,,,
land,61,645482,0.0-23.0-1.0,"""event"",""trial"",""time""
""fullscreenenter"",""1"",""5531""
","
","
","""event"",""trial"",""time""
""fullscreenenter"",""1"",""5531""
","
",,null,run_exp/static/images/task_images/land.jpg,null,,,,,,,104,,,1,,,,,,,,,,,,,,
dig,62,647492,0.0-23.0-2.0,"""event"",""trial"",""time""
""fullscreenenter"",""1"",""5531""
","
","
","""event"",""trial"",""time""
""fullscreenenter"",""1"",""5531""
","
",,,,,,,,,,,,"[{""stimulus"":""run_exp/static/images/task_images/dig.jpg"",""time"":0.39999999990686774},{""stimulus"":""run_exp/static/images/task_images/land.jpg"",""time"":676.8999999999069},{""stimulus"":""run_exp/static/images/task_images/dig.jpg"",""time"":1337.8000000000466}]",[],1,,,,,,,,,,,,,,
harvest,63,648498,0.0-23.0-3.0,"""event"",""trial"",""time""
""fullscreenenter"",""1"",""5531""
","
","
","""event"",""trial"",""time""
""fullscreenenter"",""1"",""5531""
","
",,null,run_exp/static/images/task_images/gems/104.jpg,null,,,,,,,18,,,1,,,,,104,0.176906534,0.173076923,,,,,,,
decision,64,649267,0.0-23.0-4.0,"""event"",""trial"",""time""
""fullscreenenter"",""1"",""5531""
","
","
","""event"",""trial"",""time""
""fullscreenenter"",""1"",""5531""
","
",,767.5,run_exp/static/images/task_images/land.jpg,65,,,,,,,18,,,1,,,,,,,,9314,1,0,FALSE,,,
dig,65,651509,0.0-24.0-0.0,"""event"",""trial"",""time""
""fullscreenenter"",""1"",""5531""
","
","
","""event"",""trial"",""time""
""fullscreenenter"",""1"",""5531""
","
",,,,,,,,,,,,"[{""stimulus"":""run_exp/static/images/task_images/dig.jpg"",""time"":0.8000000000465661},{""stimulus"":""run_exp/static/images/task_images/land.jpg"",""time"":758},{""stimulus"":""run_exp/static/images/task_images/dig.jpg"",""time"":1505.5}]",[],1,,,,,,,,,,,,,,
harvest,66,652517,0.0-24.0-1.0,"""event"",""trial"",""time""
""fullscreenenter"",""1"",""5531""
","
","
","""event"",""trial"",""time""
""fullscreenenter"",""1"",""5531""
","
",,null,run_exp/static/images/task_images/gems/18.jpg,null,,,,,,,3,,,1,,,,,18,0.17483423,0.166666667,,,,,,,
decision,67,653090,0.0-24.0-2.0,"""event"",""trial"",""time""
""fullscreenenter"",""1"",""5531""
","
","
","""event"",""trial"",""time""
""fullscreenenter"",""1"",""5531""
","
",,570.9,run_exp/static/images/task_images/land.jpg,65,,,,,,,3,,,1,,,,,,,,13136,1,1,FALSE,,,
dig,68,655530,0.0-25.0-0.0,"""event"",""trial"",""time""
""fullscreenenter"",""1"",""5531""
","
","
","""event"",""trial"",""time""
""fullscreenenter"",""1"",""5531""
","
",,,,,,,,,,,,"[{""stimulus"":""run_exp/static/images/task_images/dig.jpg"",""time"":0.30000000004656613},{""stimulus"":""run_exp/static/images/task_images/land.jpg"",""time"":821.8999999999069},{""stimulus"":""run_exp/static/images/task_images/dig.jpg"",""time"":1623.8999999999069}]",[],1,,,,,,,,,,,,,,
harvest,69,656547,0.0-25.0-1.0,"""event"",""trial"",""time""
""fullscreenenter"",""1"",""5531""
","
","
","""event"",""trial"",""time""
""fullscreenenter"",""1"",""5531""
","
",,null,run_exp/static/images/task_images/gems/3.jpg,null,,,,,,,1,,,1,,,,,3,0.242660897,0.333333333,,,,,,,
decision,70,656946,0.0-25.0-2.0,"""event"",""trial"",""time""
""fullscreenenter"",""1"",""5531""
","
","
","""event"",""trial"",""time""
""fullscreenenter"",""1"",""5531""
","
",,397.3,run_exp/static/images/task_images/land.jpg,65,,,,,,,1,,,1,,,,,,,,16992,1,2,FALSE,,,
dig,71,659553,0.0-26.0-0.0,"""event"",""trial"",""time""
""fullscreenenter"",""1"",""5531""
","
","
","""event"",""trial"",""time""
""fullscreenenter"",""1"",""5531""
","
",,,,,,,,,,,,"[{""stimulus"":""run_exp/static/images/task_images/dig.jpg"",""time"":0.30000000004656613},{""stimulus"":""run_exp/static/images/task_images/land.jpg"",""time"":873.0999999998603},{""stimulus"":""run_exp/static/images/task_images/dig.jpg"",""time"":1742.0999999998603}]",[],1,,,,,,,,,,,,,,
harvest,72,660567,0.0-26.0-1.0,"""event"",""trial"",""time""
""fullscreenenter"",""1"",""5531""
","
","
","""event"",""trial"",""time""
""fullscreenenter"",""1"",""5531""
","
",,null,run_exp/static/images/task_images/gems/1.jpg,null,,,,,,,0,,,1,,,,,1,0.249398657,0,,,,,,,
decision,73,660987,0.0-26.0-2.0,"""event"",""trial"",""time""
""fullscreenenter"",""1"",""5531""
","
","
","""event"",""trial"",""time""
""fullscreenenter"",""1"",""5531""
","
",,419.2,run_exp/static/images/task_images/land.jpg,65,,,,,,,0,,,1,,,,,,,,21033,1,3,FALSE,,,
dig,74,663579,0.0-27.0-0.0,"""event"",""trial"",""time""
""fullscreenenter"",""1"",""5531""
","
","
","""event"",""trial"",""time""
""fullscreenenter"",""1"",""5531""
","
",,,,,,,,,,,,"[{""stimulus"":""run_exp/static/images/task_images/dig.jpg"",""time"":0.30000000004656613},{""stimulus"":""run_exp/static/images/task_images/land.jpg"",""time"":875.6999999999534},{""stimulus"":""run_exp/static/images/task_images/dig.jpg"",""time"":1745.5}]",[],1,,,,,,,,,,,,,,
harvest,75,664583,0.0-27.0-1.0,"""event"",""trial"",""time""
""fullscreenenter"",""1"",""5531""
","
","
","""event"",""trial"",""time""
""fullscreenenter"",""1"",""5531""
","
",,null,run_exp/static/images/task_images/gems/0.jpg,null,,,,,,,0,,,1,,,,,0,0.150820795,NaN,,,,,,,
decision,76,665219,0.0-27.0-2.0,"""event"",""trial"",""time""
""fullscreenenter"",""1"",""5531""
","
","
","""event"",""trial"",""time""
""fullscreenenter"",""1"",""5531""
","
",,634.7,run_exp/static/images/task_images/land.jpg,65,,,,,,,0,,,1,,,,,,,,25265,1,4,FALSE,,,
dig,77,667595,0.0-28.0-0.0,"""event"",""trial"",""time""
""fullscreenenter"",""1"",""5531""
","
","
","""event"",""trial"",""time""
""fullscreenenter"",""1"",""5531""
","
",,,,,,,,,,,,"[{""stimulus"":""run_exp/static/images/task_images/dig.jpg"",""time"":0.30000000004656613},{""stimulus"":""run_exp/static/images/task_images/land.jpg"",""time"":795.8000000000466},{""stimulus"":""run_exp/static/images/task_images/dig.jpg"",""time"":1589.1999999999534}]",[],1,,,,,,,,,,,,,,
harvest,78,668601,0.0-28.0-1.0,"""event"",""trial"",""time""
""fullscreenenter"",""1"",""5531""
","
","
","""event"",""trial"",""time""
""fullscreenenter"",""1"",""5531""
","
",,null,run_exp/static/images/task_images/gems/0.jpg,null,,,,,,,0,,,1,,,,,0,0.28021162,NaN,,,,,,,
decision,79,669270,0.0-28.0-2.0,"""event"",""trial"",""time""
""fullscreenenter"",""1"",""5531""
","
","
","""event"",""trial"",""time""
""fullscreenenter"",""1"",""5531""
","
",,667.7,run_exp/static/images/task_images/land.jpg,65,,,,,,,0,,,1,,,,,,,,29316,1,5,FALSE,,,
dig,80,671611,0.0-29.0-0.0,"""event"",""trial"",""time""
""fullscreenenter"",""1"",""5531""
","
","
","""event"",""trial"",""time""
""fullscreenenter"",""1"",""5531""
","
",,,,,,,,,,,,"[{""stimulus"":""run_exp/static/images/task_images/dig.jpg"",""time"":0.20000000018626451},{""stimulus"":""run_exp/static/images/task_images/land.jpg"",""time"":786.2000000001863},{""stimulus"":""run_exp/static/images/task_images/dig.jpg"",""time"":1565.1000000000931}]",[],1,,,,,,,,,,,,,,
harvest,81,672620,0.0-29.0-1.0,"""event"",""trial"",""time""
""fullscreenenter"",""1"",""5531""
","
","
","""event"",""trial"",""time""
""fullscreenenter"",""1"",""5531""
","
",,null,run_exp/static/images/task_images/gems/0.jpg,null,,,,,,,0,,,1,,,,,0,0.241455831,NaN,,,,,,,
decision,82,672689,0.0-29.0-2.0,"""event"",""trial"",""time""
""fullscreenenter"",""1"",""5531""
","
","
","""event"",""trial"",""time""
""fullscreenenter"",""1"",""5531""
","
",,65.3,run_exp/static/images/task_images/land.jpg,76,,,,,,,0,,,1,,,,,,,,32735,1,6,TRUE,,,
travel,83,682627,0.0-30.0-0.0,"""event"",""trial"",""time""
""fullscreenenter"",""1"",""5531""
","
","
","""event"",""trial"",""time""
""fullscreenenter"",""1"",""5531""
","
",,,,,,,,,,,,"[{""stimulus"":""run_exp/static/images/task_images/rocket-01.jpg"",""time"":0.09999999986030161},{""stimulus"":""run_exp/static/images/task_images/rocket-02.jpg"",""time"":1111},{""stimulus"":""run_exp/static/images/task_images/rocket-03.jpg"",""time"":2227.1999999999534},{""stimulus"":""run_exp/static/images/task_images/rocket-04.jpg"",""time"":3311.5},{""stimulus"":""run_exp/static/images/task_images/rocket-05.jpg"",""time"":4425.299999999814},{""stimulus"":""run_exp/static/images/task_images/rocket-06.jpg"",""time"":5520.09999999986},{""stimulus"":""run_exp/static/images/task_images/rocket-07.jpg"",""time"":6630.899999999907},{""stimulus"":""run_exp/static/images/task_images/rocket-08.jpg"",""time"":7727},{""stimulus"":""run_exp/static/images/task_images/rocket-09.jpg"",""time"":8838.59999999986}]",[],1,,,,,,,,,,,,,,
alien_welcome,84,687638,0.0-30.0-1.0,"""event"",""trial"",""time""
""fullscreenenter"",""1"",""5531""
","
","
","""event"",""trial"",""time""
""fullscreenenter"",""1"",""5531""
","
",,null,run_exp/static/images/task_images/aliens/old_aliens/planet/alien_planet-27.jpg,null,,,,,,,,,,,,,27,"30,27,16,19,18,37,23,78,52,17,46,44,32,76,70,12,53,71,39,77,50",,,,,,,,,,
land,85,688151,0.0-30.0-2.0,"""event"",""trial"",""time""
""fullscreenenter"",""1"",""5531""
","
","
","""event"",""trial"",""time""
""fullscreenenter"",""1"",""5531""
","
",,null,run_exp/static/images/task_images/land.jpg,null,,,,,,,101,,,2,,,,,,,,,,,,,,
dig,86,690163,0.0-30.0-3.0,"""event"",""trial"",""time""
""fullscreenenter"",""1"",""5531""
","
","
","""event"",""trial"",""time""
""fullscreenenter"",""1"",""5531""
","
",,,,,,,,,,,,"[{""stimulus"":""run_exp/static/images/task_images/dig.jpg"",""time"":0.30000000004656613},{""stimulus"":""run_exp/static/images/task_images/land.jpg"",""time"":678.4000000001397},{""stimulus"":""run_exp/static/images/task_images/dig.jpg"",""time"":1336.5}]",[],2,,,,,,,,,,,,,,
harvest,87,691176,0.0-30.0-4.0,"""event"",""trial"",""time""
""fullscreenenter"",""1"",""5531""
","
","
","""event"",""trial"",""time""
""fullscreenenter"",""1"",""5531""
","
",,null,run_exp/static/images/task_images/gems/101.jpg,null,,,,,,,18,,,2,,,,,101,0.178290867,0.178217822,,,,,,,
decision,88,691548,0.0-30.0-5.0,"""event"",""trial"",""time""
""fullscreenenter"",""1"",""5531""
","
","
","""event"",""trial"",""time""
""fullscreenenter"",""1"",""5531""
","
",,370,run_exp/static/images/task_images/land.jpg,65,,,,,,,18,,,2,,,,,,,,51594,1,0,FALSE,,,
dig,89,694182,0.0-31.0-0.0,"""event"",""trial"",""time""
""fullscreenenter"",""1"",""5531""
","
","
","""event"",""trial"",""time""
""fullscreenenter"",""1"",""5531""
","
",,,,,,,,,,,,"[{""stimulus"":""run_exp/static/images/task_images/dig.jpg"",""time"":0.19999999995343387},{""stimulus"":""run_exp/static/images/task_images/land.jpg"",""time"":880.1999999999534},{""stimulus"":""run_exp/static/images/task_images/dig.jpg"",""time"":1756.8999999999069}]",[],2,,,,,,,,,,,,,,
harvest,90,695191,0.0-31.0-1.0,"""event"",""trial"",""time""
""fullscreenenter"",""1"",""5531""
","
","
","""event"",""trial"",""time""
""fullscreenenter"",""1"",""5531""
","
",,null,run_exp/static/images/task_images/gems/18.jpg,null,,,,,,,4,,,2,,,,,18,0.220239578,0.222222222,,,,,,,
decision,91,695883,0.0-31.0-2.0,"""event"",""trial"",""time""
""fullscreenenter"",""1"",""5531""
","
","
","""event"",""trial"",""time""
""fullscreenenter"",""1"",""5531""
","
",,690.7,run_exp/static/images/task_images/land.jpg,65,,,,,,,4,,,2,,,,,,,,55929,1,1,FALSE,,,
dig,92,698212,0.0-32.0-0.0,"""event"",""trial"",""time""
""fullscreenenter"",""1"",""5531""
","
","
","""event"",""trial"",""time""
""fullscreenenter"",""1"",""5531""
","
",,,,,,,,,,,,"[{""stimulus"":""run_exp/static/images/task_images/dig.jpg"",""time"":0.30000000004656613},{""stimulus"":""run_exp/static/images/task_images/land.jpg"",""time"":770.6999999999534},{""stimulus"":""run_exp/static/images/task_images/dig.jpg"",""time"":1540.1999999999534}]",[],2,,,,,,,,,,,,,,
harvest,93,699242,0.0-32.0-1.0,"""event"",""trial"",""time""
""fullscreenenter"",""1"",""5531""
","
","
","""event"",""trial"",""time""
""fullscreenenter"",""1"",""5531""
","
",,null,run_exp/static/images/task_images/gems/4.jpg,null,,,,,,,1,,,2,,,,,4,0.217842411,0.25,,,,,,,
decision,94,699840,0.0-32.0-2.0,"""event"",""trial"",""time""
""fullscreenenter"",""1"",""5531""
","
","
","""event"",""trial"",""time""
""fullscreenenter"",""1"",""5531""
","
",,595.4,run_exp/static/images/task_images/land.jpg,65,,,,,,,1,,,2,,,,,,,,59886,1,2,FALSE,,,
dig,95,702257,0.0-33.0-0.0,"""event"",""trial"",""time""
""fullscreenenter"",""1"",""5531""
","
","
","""event"",""trial"",""time""
""fullscreenenter"",""1"",""5531""
","
",,,,,,,,,,,,"[{""stimulus"":""run_exp/static/images/task_images/dig.jpg"",""time"":0.19999999995343387},{""stimulus"":""run_exp/static/images/task_images/land.jpg"",""time"":815.1999999999534},{""stimulus"":""run_exp/static/images/task_images/dig.jpg"",""time"":1616.3000000000466}]",[],2,,,,,,,,,,,,,,
harvest,96,703278,0.0-33.0-1.0,"""event"",""trial"",""time""
""fullscreenenter"",""1"",""5531""
","
","
","""event"",""trial"",""time""
""fullscreenenter"",""1"",""5531""
","
",,null,run_exp/static/images/task_images/gems/1.jpg,null,,,,,,,0,,,2,,,,,1,0.203792839,0,,,,,,,
decision,97,704291,0.0-33.0-2.0,"""event"",""trial"",""time""
""fullscreenenter"",""1"",""5531""
","
","
","""event"",""trial"",""time""
""fullscreenenter"",""1"",""5531""
","
",,1011.1,run_exp/static/images/task_images/land.jpg,65,,,,,,,0,,,2,,,,,,,,64337,1,3,FALSE,,,
dig,98,706290,0.0-34.0-0.0,"""event"",""trial"",""time""
""fullscreenenter"",""1"",""5531""
","
","
","""event"",""trial"",""time""
""fullscreenenter"",""1"",""5531""
","
",,,,,,,,,,,,"[{""stimulus"":""run_exp/static/images/task_images/dig.jpg"",""time"":0.30000000004656613},{""stimulus"":""run_exp/static/images/task_images/land.jpg"",""time"":663.4000000001397},{""stimulus"":""run_exp/static/images/task_images/dig.jpg"",""time"":1335.3000000000466}]",[],2,,,,,,,,,,,,,,
harvest,99,707304,0.0-34.0-1.0,"""event"",""trial"",""time""
""fullscreenenter"",""1"",""5531""
","
","
","""event"",""trial"",""time""
""fullscreenenter"",""1"",""5531""
","
",,null,run_exp/static/images/task_images/gems/0.jpg,null,,,,,,,0,,,2,,,,,0,0.257946177,NaN,,,,,,,
decision,100,708069,0.0-34.0-2.0,"""event"",""trial"",""time""
""fullscreenenter"",""1"",""5531""
","
","
","""event"",""trial"",""time""
""fullscreenenter"",""1"",""5531""
","
",,763.2,run_exp/static/images/task_images/land.jpg,65,,,,,,,0,,,2,,,,,,,,68115,1,4,FALSE,,,
dig,101,710323,0.0-35.0-0.0,"""event"",""trial"",""time""
""fullscreenenter"",""1"",""5531""
","
","
","""event"",""trial"",""time""
""fullscreenenter"",""1"",""5531""
","
",,,,,,,,,,,,"[{""stimulus"":""run_exp/static/images/task_images/dig.jpg"",""time"":0.30000000004656613},{""stimulus"":""run_exp/static/images/task_images/land.jpg"",""time"":749.2000000001863},{""stimulus"":""run_exp/static/images/task_images/dig.jpg"",""time"":1502}]",[],2,,,,,,,,,,,,,,
harvest,102,711335,0.0-35.0-1.0,"""event"",""trial"",""time""
""fullscreenenter"",""1"",""5531""
","
","
","""event"",""trial"",""time""
""fullscreenenter"",""1"",""5531""
","
",,null,run_exp/static/images/task_images/gems/0.jpg,null,,,,,,,0,,,2,,,,,0,0.221117096,NaN,,,,,,,
decision,103,711447,0.0-35.0-2.0,"""event"",""trial"",""time""
""fullscreenenter"",""1"",""5531""
","
","
","""event"",""trial"",""time""
""fullscreenenter"",""1"",""5531""
","
",,109.5,run_exp/static/images/task_images/land.jpg,65,,,,,,,0,,,2,,,,,,,,71493,1,5,FALSE,,,
dig,104,714349,0.0-36.0-0.0,"""event"",""trial"",""time""
""fullscreenenter"",""1"",""5531""
","
","
","""event"",""trial"",""time""
""fullscreenenter"",""1"",""5531""
","
",,,,,,,,,,,,"[{""stimulus"":""run_exp/static/images/task_images/dig.jpg"",""time"":0.4000000001396984},{""stimulus"":""run_exp/static/images/task_images/land.jpg"",""time"":967},{""stimulus"":""run_exp/static/images/task_images/dig.jpg"",""time"":1944.7000000001863}]",[],2,,,,,,,,,,,,,,
harvest,105,715367,0.0-36.0-1.0,"""event"",""trial"",""time""
""fullscreenenter"",""1"",""5531""
","
","
","""event"",""trial"",""time""
""fullscreenenter"",""1"",""5531""
","
",,null,run_exp/static/images/task_images/gems/0.jpg,null,,,,,,,0,,,2,,,,,0,0.125690179,NaN,,,,,,,
decision,106,715980,0.0-36.0-2.0,"""event"",""trial"",""time""
""fullscreenenter"",""1"",""5531""
","
","
","""event"",""trial"",""time""
""fullscreenenter"",""1"",""5531""
","
",,611.8,run_exp/static/images/task_images/land.jpg,65,,,,,,,0,,,2,,,,,,,,76026,1,6,FALSE,,,
dig,107,718383,0.0-37.0-0.0,"""event"",""trial"",""time""
""fullscreenenter"",""1"",""5531""
","
","
","""event"",""trial"",""time""
""fullscreenenter"",""1"",""5531""
","
",,,,,,,,,,,,"[{""stimulus"":""run_exp/static/images/task_images/dig.jpg"",""time"":0.30000000004656613},{""stimulus"":""run_exp/static/images/task_images/land.jpg"",""time"":808},{""stimulus"":""run_exp/static/images/task_images/dig.jpg"",""time"":1600.5999999998603}]",[],2,,,,,,,,,,,,,,
harvest,108,719390,0.0-37.0-1.0,"""event"",""trial"",""time""
""fullscreenenter"",""1"",""5531""
","
","
","""event"",""trial"",""time""
""fullscreenenter"",""1"",""5531""
","
",,null,run_exp/static/images/task_images/gems/0.jpg,null,,,,,,,0,,,2,,,,,0,0.093810998,NaN,,,,,,,
decision,109,720417,0.0-37.0-2.0,"""event"",""trial"",""time""
""fullscreenenter"",""1"",""5531""
","
","
","""event"",""trial"",""time""
""fullscreenenter"",""1"",""5531""
","
",,1025,run_exp/static/images/task_images/land.jpg,76,,,,,,,0,,,2,,,,,,,,80463,1,7,TRUE,,,
travel,110,729400,0.0-38.0-0.0,"""event"",""trial"",""time""
""fullscreenenter"",""1"",""5531""
","
","
","""event"",""trial"",""time""
""fullscreenenter"",""1"",""5531""
","
",,,,,,,,,,,,"[{""stimulus"":""run_exp/static/images/task_images/rocket-01.jpg"",""time"":0.39999999990686774},{""stimulus"":""run_exp/static/images/task_images/rocket-02.jpg"",""time"":1012},{""stimulus"":""run_exp/static/images/task_images/rocket-03.jpg"",""time"":2000.8000000000466},{""stimulus"":""run_exp/static/images/task_images/rocket-04.jpg"",""time"":2993.8000000000466},{""stimulus"":""run_exp/static/images/task_images/rocket-05.jpg"",""time"":3993.6999999999534},{""stimulus"":""run_exp/static/images/task_images/rocket-06.jpg"",""time"":5009.199999999953},{""stimulus"":""run_exp/static/images/task_images/rocket-07.jpg"",""time"":5999.899999999907},{""stimulus"":""run_exp/static/images/task_images/rocket-08.jpg"",""time"":6989.600000000093},{""stimulus"":""run_exp/static/images/task_images/rocket-09.jpg"",""time"":7992.699999999953}]",[],2,,,,,,,,,,,,,,
alien_welcome,111,734419,0.0-38.0-1.0,"""event"",""trial"",""time""
""fullscreenenter"",""1"",""5531""
","
","
","""event"",""trial"",""time""
""fullscreenenter"",""1"",""5531""
","
",,null,run_exp/static/images/task_images/aliens/old_aliens/planet/alien_planet-16.jpg,null,,,,,,,,,,,,,16,"30,27,16,19,18,37,23,78,52,17,46,44,32,76,70,12,53,71,39,77,50",,,,,,,,,,
land,112,734930,0.0-38.0-2.0,"""event"",""trial"",""time""
""fullscreenenter"",""1"",""5531""
","
","
","""event"",""trial"",""time""
""fullscreenenter"",""1"",""5531""
","
",,null,run_exp/static/images/task_images/land.jpg,null,,,,,,,102,,,3,,,,,,,,,,,,,,
dig,113,736949,0.0-38.0-3.0,"""event"",""trial"",""time""
""fullscreenenter"",""1"",""5531""
","
","
","""event"",""trial"",""time""
""fullscreenenter"",""1"",""5531""
","
",,,,,,,,,,,,"[{""stimulus"":""run_exp/static/images/task_images/dig.jpg"",""time"":0.2999999998137355},{""stimulus"":""run_exp/static/images/task_images/land.jpg"",""time"":674.8999999999069},{""stimulus"":""run_exp/static/images/task_images/dig.jpg"",""time"":1348.6999999999534}]",[],3,,,,,,,,,,,,,,
harvest,114,737959,0.0-38.0-4.0,"""event"",""trial"",""time""
""fullscreenenter"",""1"",""5531""
","
","
","""event"",""trial"",""time""
""fullscreenenter"",""1"",""5531""
","
",,null,run_exp/static/images/task_images/gems/102.jpg,null,,,,,,,46,,,3,,,,,102,0.44898391,0.450980392,,,,,,,
decision,115,738653,0.0-38.0-5.0,"""event"",""trial"",""time""
""fullscreenenter"",""1"",""5531""
","
","
","""event"",""trial"",""time""
""fullscreenenter"",""1"",""5531""
","
",,692.1,run_exp/static/images/task_images/land.jpg,65,,,,,,,46,,,3,,,,,,,,98699,1,0,FALSE,,,
dig,116,740977,0.0-39.0-0.0,"""event"",""trial"",""time""
""fullscreenenter"",""1"",""5531""
","
","
","""event"",""trial"",""time""
""fullscreenenter"",""1"",""5531""
","
",,,,,,,,,,,,"[{""stimulus"":""run_exp/static/images/task_images/dig.jpg"",""time"":0.30000000004656613},{""stimulus"":""run_exp/static/images/task_images/land.jpg"",""time"":772.2000000001863},{""stimulus"":""run_exp/static/images/task_images/dig.jpg"",""time"":1541}]",[],3,,,,,,,,,,,,,,
harvest,117,741988,0.0-39.0-1.0,"""event"",""trial"",""time""
""fullscreenenter"",""1"",""5531""
","
","
","""event"",""trial"",""time""
""fullscreenenter"",""1"",""5531""
","
",,null,run_exp/static/images/task_images/gems/46.jpg,null,,,,,,,25,,,3,,,,,46,0.542545744,0.543478261,,,,,,,
decision,118,742584,0.0-39.0-2.0,"""event"",""trial"",""time""
""fullscreenenter"",""1"",""5531""
","
","
","""event"",""trial"",""time""
""fullscreenenter"",""1"",""5531""
","
",,594,run_exp/static/images/task_images/land.jpg,65,,,,,,,25,,,3,,,,,,,,102630,1,1,FALSE,,,
dig,119,745001,0.0-40.0-0.0,"""event"",""trial"",""time""
""fullscreenenter"",""1"",""5531""
","
","
","""event"",""trial"",""time""
""fullscreenenter"",""1"",""5531""
","
",,,,,,,,,,,,"[{""stimulus"":""run_exp/static/images/task_images/dig.jpg"",""time"":0.2999999998137355},{""stimulus"":""run_exp/static/images/task_images/land.jpg"",""time"":803.7999999998137},{""stimulus"":""run_exp/static/images/task_images/dig.jpg"",""time"":1611.5}]",[],3,,,,,,,,,,,,,,
harvest,120,746026,0.0-40.0-1.0,"""event"",""trial"",""time""
""fullscreenenter"",""1"",""5531""
","
","
","""event"",""trial"",""time""
""fullscreenenter"",""1"",""5531""
","
",,null,run_exp/static/images/task_images/gems/25.jpg,null,,,,,,,13,,,3,,,,,25,0.503246395,0.52,,,,,,,
decision,121,746590,0.0-40.0-2.0,"""event"",""trial"",""time""
""fullscreenenter"",""1"",""5531""
","
","
","""event"",""trial"",""time""
""fullscreenenter"",""1"",""5531""
","
",,560.4,run_exp/static/images/task_images/land.jpg,65,,,,,,,13,,,3,,,,,,,,106636,1,2,FALSE,,,
dig,122,749038,0.0-41.0-0.0,"""event"",""trial"",""time""
""fullscreenenter"",""1"",""5531""
","
","
","""event"",""trial"",""time""
""fullscreenenter"",""1"",""5531""
","
",,,,,,,,,,,,"[{""stimulus"":""run_exp/static/images/task_images/dig.jpg"",""time"":0.09999999986030161},{""stimulus"":""run_exp/static/images/task_images/land.jpg"",""time"":815.1999999999534},{""stimulus"":""run_exp/static/images/task_images/dig.jpg"",""time"":1628.6999999999534}]",[],3,,,,,,,,,,,,,,
harvest,123,750044,0.0-41.0-1.0,"""event"",""trial"",""time""
""fullscreenenter"",""1"",""5531""
","
","
","""event"",""trial"",""time""
""fullscreenenter"",""1"",""5531""
","
",,null,run_exp/static/images/task_images/gems/13.jpg,null,,,,,,,7,,,3,,,,,13,0.509647076,0.538461538,,,,,,,
decision,124,750428,0.0-41.0-2.0,"""event"",""trial"",""time""
""fullscreenenter"",""1"",""5531""
","
","
","""event"",""trial"",""time""
""fullscreenenter"",""1"",""5531""
","
",,382.2,run_exp/static/images/task_images/land.jpg,65,,,,,,,7,,,3,,,,,,,,110474,1,3,FALSE,,,
dig,125,753065,0.0-42.0-0.0,"""event"",""trial"",""time""
""fullscreenenter"",""1"",""5531""
","
","
","""event"",""trial"",""time""
""fullscreenenter"",""1"",""5531""
","
",,,,,,,,,,,,"[{""stimulus"":""run_exp/static/images/task_images/dig.jpg"",""time"":0.2999999998137355},{""stimulus"":""run_exp/static/images/task_images/land.jpg"",""time"":885.0999999998603},{""stimulus"":""run_exp/static/images/task_images/dig.jpg"",""time"":1746.5999999998603}]",[],3,,,,,,,,,,,,,,
harvest,126,754079,0.0-42.0-1.0,"""event"",""trial"",""time""
""fullscreenenter"",""1"",""5531""
","
","
","""event"",""trial"",""time""
""fullscreenenter"",""1"",""5531""
","
",,null,run_exp/static/images/task_images/gems/7.jpg,null,,,,,,,4,,,3,,,,,7,0.500919646,0.571428571,,,,,,,
decision,127,754460,0.0-42.0-2.0,"""event"",""trial"",""time""
""fullscreenenter"",""1"",""5531""
","
","
","""event"",""trial"",""time""
""fullscreenenter"",""1"",""5531""
","
",,379.3,run_exp/static/images/task_images/land.jpg,65,,,,,,,4,,,3,,,,,,,,114506,1,4,FALSE,,,
dig,128,757098,0.0-43.0-0.0,"""event"",""trial"",""time""
""fullscreenenter"",""1"",""5531""
","
","
","""event"",""trial"",""time""
""fullscreenenter"",""1"",""5531""
","
",,,,,,,,,,,,"[{""stimulus"":""run_exp/static/images/task_images/dig.jpg"",""time"":0.30000000004656613},{""stimulus"":""run_exp/static/images/task_images/land.jpg"",""time"":876.0999999998603},{""stimulus"":""run_exp/static/images/task_images/dig.jpg"",""time"":1755.3999999999069}]",[],3,,,,,,,,,,,,,,
harvest,129,758116,0.0-43.0-1.0,"""event"",""trial"",""time""
""fullscreenenter"",""1"",""5531""
","
","
","""event"",""trial"",""time""
""fullscreenenter"",""1"",""5531""
","
",,null,run_exp/static/images/task_images/gems/4.jpg,null,,,,,,,2,,,3,,,,,4,0.542206451,0.5,,,,,,,
decision,130,758506,0.0-43.0-2.0,"""event"",""trial"",""time""
""fullscreenenter"",""1"",""5531""
","
","
","""event"",""trial"",""time""
""fullscreenenter"",""1"",""5531""
","
",,388.5,run_exp/static/images/task_images/land.jpg,65,,,,,,,2,,,3,,,,,,,,118552,1,5,FALSE,,,
dig,131,761123,0.0-44.0-0.0,"""event"",""trial"",""time""
""fullscreenenter"",""1"",""5531""
","
","
","""event"",""trial"",""time""
""fullscreenenter"",""1"",""5531""
","
",,,,,,,,,,,,"[{""stimulus"":""run_exp/static/images/task_images/dig.jpg"",""time"":0.30000000004656613},{""stimulus"":""run_exp/static/images/task_images/land.jpg"",""time"":875.8000000000466},{""stimulus"":""run_exp/static/images/task_images/dig.jpg"",""time"":1751.9000000001397}]",[],3,,,,,,,,,,,,,,
harvest,132,762161,0.0-44.0-1.0,"""event"",""trial"",""time""
""fullscreenenter"",""1"",""5531""
","
","
","""event"",""trial"",""time""
""fullscreenenter"",""1"",""5531""
","
",,null,run_exp/static/images/task_images/gems/2.jpg,null,,,,,,,1,,,3,,,,,2,0.446940119,0.5,,,,,,,
decision,133,762637,0.0-44.0-2.0,"""event"",""trial"",""time""
""fullscreenenter"",""1"",""5531""
","
","
","""event"",""trial"",""time""
""fullscreenenter"",""1"",""5531""
","
",,473.8,run_exp/static/images/task_images/land.jpg,65,,,,,,,1,,,3,,,,,,,,122683,1,6,FALSE,,,
dig,134,765178,0.0-45.0-0.0,"""event"",""trial"",""time""
""fullscreenenter"",""1"",""5531""
","
","
","""event"",""trial"",""time""
""fullscreenenter"",""1"",""5531""
","
",,,,,,,,,,,,"[{""stimulus"":""run_exp/static/images/task_images/dig.jpg"",""time"":0.30000000004656613},{""stimulus"":""run_exp/static/images/task_images/land.jpg"",""time"":853.8999999999069},{""stimulus"":""run_exp/static/images/task_images/dig.jpg"",""time"":1736}]",[],3,,,,,,,,,,,,,,
harvest,135,766185,0.0-45.0-1.0,"""event"",""trial"",""time""
""fullscreenenter"",""1"",""5531""
","
","
","""event"",""trial"",""time""
""fullscreenenter"",""1"",""5531""
","
",,null,run_exp/static/images/task_images/gems/1.jpg,null,,,,,,,1,,,3,,,,,1,0.592741287,1,,,,,,,
decision,136,767068,0.0-45.0-2.0,"""event"",""trial"",""time""
""fullscreenenter"",""1"",""5531""
","
","
","""event"",""trial"",""time""
""fullscreenenter"",""1"",""5531""
","
",,881.7,run_exp/static/images/task_images/land.jpg,65,,,,,,,1,,,3,,,,,,,,127114,1,7,FALSE,,,
dig,137,769209,0.0-46.0-0.0,"""event"",""trial"",""time""
""fullscreenenter"",""1"",""5531""
","
","
","""event"",""trial"",""time""
""fullscreenenter"",""1"",""5531""
","
",,,,,,,,,,,,"[{""stimulus"":""run_exp/static/images/task_images/dig.jpg"",""time"":0.30000000004656613},{""stimulus"":""run_exp/static/images/task_images/land.jpg"",""time"":720.8000000000466},{""stimulus"":""run_exp/static/images/task_images/dig.jpg"",""time"":1421.2000000001863}]",[],3,,,,,,,,,,,,,,
harvest,138,770218,0.0-46.0-1.0,"""event"",""trial"",""time""
""fullscreenenter"",""1"",""5531""
","
","
","""event"",""trial"",""time""
""fullscreenenter"",""1"",""5531""
","
",,null,run_exp/static/images/task_images/gems/1.jpg,null,,,,,,,1,,,3,,,,,1,0.542982603,1,,,,,,,
decision,139,770240,0.0-46.0-2.0,"""event"",""trial"",""time""
""fullscreenenter"",""1"",""5531""
","
","
","""event"",""trial"",""time""
""fullscreenenter"",""1"",""5531""
","
",,21.3,run_exp/static/images/task_images/land.jpg,65,,,,,,,0,,,3,,,,,,,,130286,1,8,FALSE,,,
dig,140,773225,0.0-47.0-0.0,"""event"",""trial"",""time""
""fullscreenenter"",""1"",""5531""
","
","
","""event"",""trial"",""time""
""fullscreenenter"",""1"",""5531""
","
",,,,,,,,,,,,"[{""stimulus"":""run_exp/static/images/task_images/dig.jpg"",""time"":0.2999999998137355},{""stimulus"":""run_exp/static/images/task_images/land.jpg"",""time"":996.7999999998137},{""stimulus"":""run_exp/static/images/task_images/dig.jpg"",""time"":1997.7999999998137}]",[],3,,,,,,,,,,,,,,
harvest,141,774237,0.0-47.0-1.0,"""event"",""trial"",""time""
""fullscreenenter"",""1"",""5531""
","
","
","""event"",""trial"",""time""
""fullscreenenter"",""1"",""5531""
","
",,null,run_exp/static/images/task_images/gems/0.jpg,null,,,,,,,0,,,3,,,,,0,0.483877456,NaN,,,,,,,
decision,142,775251,0.0-47.0-2.0,"""event"",""trial"",""time""
""fullscreenenter"",""1"",""5531""
","
","
","""event"",""trial"",""time""
""fullscreenenter"",""1"",""5531""
","
",,1012.3,run_exp/static/images/task_images/land.jpg,65,,,,,,,0,,,3,,,,,,,,135297,1,9,FALSE,,,
dig,143,777242,0.0-48.0-0.0,"""event"",""trial"",""time""
""fullscreenenter"",""1"",""5531""
","
","
","""event"",""trial"",""time""
""fullscreenenter"",""1"",""5531""
","
",,,,,,,,,,,,"[{""stimulus"":""run_exp/static/images/task_images/dig.jpg"",""time"":0.30000000004656613},{""stimulus"":""run_exp/static/images/task_images/land.jpg"",""time"":669.8000000000466},{""stimulus"":""run_exp/static/images/task_images/dig.jpg"",""time"":1335.8999999999069}]",[],3,,,,,,,,,,,,,,
harvest,144,778253,0.0-48.0-1.0,"""event"",""trial"",""time""
""fullscreenenter"",""1"",""5531""
","
","
","""event"",""trial"",""time""
""fullscreenenter"",""1"",""5531""
","
",,null,run_exp/static/images/task_images/gems/0.jpg,null,,,,,,,0,,,3,,,,,0,0.44461075,NaN,,,,,,,
decision,145,778614,0.0-48.0-2.0,"""event"",""trial"",""time""
""fullscreenenter"",""1"",""5531""
","
","
","""event"",""trial"",""time""
""fullscreenenter"",""1"",""5531""
","
",,359.8,run_exp/static/images/task_images/land.jpg,65,,,,,,,0,,,3,,,,,,,,138660,1,10,FALSE,,,
dig,146,781283,0.0-49.0-0.0,"""event"",""trial"",""time""
""fullscreenenter"",""1"",""5531""
","
","
","""event"",""trial"",""time""
""fullscreenenter"",""1"",""5531""
","
",,,,,,,,,,,,"[{""stimulus"":""run_exp/static/images/task_images/dig.jpg"",""time"":0.2999999998137355},{""stimulus"":""run_exp/static/images/task_images/land.jpg"",""time"":893.1999999999534},{""stimulus"":""run_exp/static/images/task_images/dig.jpg"",""time"":1771.1999999999534}]",[],3,,,,,,,,,,,,,,
harvest,147,782296,0.0-49.0-1.0,"""event"",""trial"",""time""
""fullscreenenter"",""1"",""5531""
","
","
","""event"",""trial"",""time""
""fullscreenenter"",""1"",""5531""
","
",,null,run_exp/static/images/task_images/gems/0.jpg,null,,,,,,,0,,,3,,,,,0,0.490629387,NaN,,,,,,,
decision,148,783743,0.0-49.0-2.0,"""event"",""trial"",""time""
""fullscreenenter"",""1"",""5531""
","
","
","""event"",""trial"",""time""
""fullscreenenter"",""1"",""5531""
","
",,1445.2,run_exp/static/images/task_images/land.jpg,76,,,,,,,0,,,3,,,,,,,,143789,1,11,TRUE,,,
travel,149,792316,0.0-50.0-0.0,"""event"",""trial"",""time""
""fullscreenenter"",""1"",""5531""
","
","
","""event"",""trial"",""time""
""fullscreenenter"",""1"",""5531""
","
",,,,,,,,,,,,"[{""stimulus"":""run_exp/static/images/task_images/rocket-01.jpg"",""time"":0.30000000004656613},{""stimulus"":""run_exp/static/images/task_images/rocket-02.jpg"",""time"":957.4000000001397},{""stimulus"":""run_exp/static/images/task_images/rocket-03.jpg"",""time"":1916.6000000000931},{""stimulus"":""run_exp/static/images/task_images/rocket-04.jpg"",""time"":2856.9000000001397},{""stimulus"":""run_exp/static/images/task_images/rocket-05.jpg"",""time"":3817},{""stimulus"":""run_exp/static/images/task_images/rocket-06.jpg"",""time"":4766.90000000014},{""stimulus"":""run_exp/static/images/task_images/rocket-07.jpg"",""time"":5706.5},{""stimulus"":""run_exp/static/images/task_images/rocket-08.jpg"",""time"":6664.700000000186},{""stimulus"":""run_exp/static/images/task_images/rocket-09.jpg"",""time"":7612.700000000186}]",[],3,,,,,,,,,,,,,,
alien_welcome,150,797335,0.0-50.0-1.0,"""event"",""trial"",""time""
""fullscreenenter"",""1"",""5531""
","
","
","""event"",""trial"",""time""
""fullscreenenter"",""1"",""5531""
","
",,null,run_exp/static/images/task_images/aliens/old_aliens/planet/alien_planet-19.jpg,null,,,,,,,,,,,,,19,"30,27,16,19,18,37,23,78,52,17,46,44,32,76,70,12,53,71,39,77,50",,,,,,,,,,
land,151,797847,0.0-50.0-2.0,"""event"",""trial"",""time""
""fullscreenenter"",""1"",""5531""
","
","
","""event"",""trial"",""time""
""fullscreenenter"",""1"",""5531""
","
",,null,run_exp/static/images/task_images/land.jpg,null,,,,,,,99,,,4,,,,,,,,,,,,,,
dig,152,799854,0.0-50.0-3.0,"""event"",""trial"",""time""
""fullscreenenter"",""1"",""5531""
","
","
","""event"",""trial"",""time""
""fullscreenenter"",""1"",""5531""
","
",,,,,,,,,,,,"[{""stimulus"":""run_exp/static/images/task_images/dig.jpg"",""time"":0.30000000004656613},{""stimulus"":""run_exp/static/images/task_images/land.jpg"",""time"":679.3000000000466},{""stimulus"":""run_exp/static/images/task_images/dig.jpg"",""time"":1349}]",[],4,,,,,,,,,,,,,,
harvest,153,800867,0.0-50.0-4.0,"""event"",""trial"",""time""
""fullscreenenter"",""1"",""5531""
","
","
","""event"",""trial"",""time""
""fullscreenenter"",""1"",""5531""
","
",,null,run_exp/static/images/task_images/gems/99.jpg,null,,,,,,,44,,,4,,,,,99,0.44877037,0.444444444,,,,,,,
decision,154,801635,0.0-50.0-5.0,"""event"",""trial"",""time""
""fullscreenenter"",""1"",""5531""
","
","
","""event"",""trial"",""time""
""fullscreenenter"",""1"",""5531""
","
",,765.2,run_exp/static/images/task_images/land.jpg,65,,,,,,,44,,,4,,,,,,,,161681,1,0,FALSE,,,
dig,155,803873,0.0-51.0-0.0,"""event"",""trial"",""time""
""fullscreenenter"",""1"",""5531""
","
","
","""event"",""trial"",""time""
""fullscreenenter"",""1"",""5531""
","
",,,,,,,,,,,,"[{""stimulus"":""run_exp/static/images/task_images/dig.jpg"",""time"":0.39999999990686774},{""stimulus"":""run_exp/static/images/task_images/land.jpg"",""time"":746.1999999999534},{""stimulus"":""run_exp/static/images/task_images/dig.jpg"",""time"":1497}]",[],4,,,,,,,,,,,,,,
harvest,156,804883,0.0-51.0-1.0,"""event"",""trial"",""time""
""fullscreenenter"",""1"",""5531""
","
","
","""event"",""trial"",""time""
""fullscreenenter"",""1"",""5531""
","
",,null,run_exp/static/images/task_images/gems/44.jpg,null,,,,,,,23,,,4,,,,,44,0.533729189,0.522727273,,,,,,,
decision,157,805247,0.0-51.0-2.0,"""event"",""trial"",""time""
""fullscreenenter"",""1"",""5531""
","
","
","""event"",""trial"",""time""
""fullscreenenter"",""1"",""5531""
","
",,362.1,run_exp/static/images/task_images/land.jpg,65,,,,,,,23,,,4,,,,,,,,165293,1,1,FALSE,,,
dig,158,807903,0.0-52.0-0.0,"""event"",""trial"",""time""
""fullscreenenter"",""1"",""5531""
","
","
","""event"",""trial"",""time""
""fullscreenenter"",""1"",""5531""
","
",,,,,,,,,,,,"[{""stimulus"":""run_exp/static/images/task_images/dig.jpg"",""time"":0.39999999990686774},{""stimulus"":""run_exp/static/images/task_images/land.jpg"",""time"":882},{""stimulus"":""run_exp/static/images/task_images/dig.jpg"",""time"":1773.5}]",[],4,,,,,,,,,,,,,,
harvest,159,808918,0.0-52.0-1.0,"""event"",""trial"",""time""
""fullscreenenter"",""1"",""5531""
","
","
","""event"",""trial"",""time""
""fullscreenenter"",""1"",""5531""
","
",,null,run_exp/static/images/task_images/gems/23.jpg,null,,,,,,,11,,,4,,,,,23,0.483618547,0.47826087,,,,,,,
decision,160,809778,0.0-52.0-2.0,"""event"",""trial"",""time""
""fullscreenenter"",""1"",""5531""
","
","
","""event"",""trial"",""time""
""fullscreenenter"",""1"",""5531""
","
",,858.9,run_exp/static/images/task_images/land.jpg,65,,,,,,,11,,,4,,,,,,,,169824,1,2,FALSE,,,
dig,161,811934,0.0-53.0-0.0,"""event"",""trial"",""time""
""fullscreenenter"",""1"",""5531""
","
","
","""event"",""trial"",""time""
""fullscreenenter"",""1"",""5531""
","
",,,,,,,,,,,,"[{""stimulus"":""run_exp/static/images/task_images/dig.jpg"",""time"":0.8000000000465661},{""stimulus"":""run_exp/static/images/task_images/land.jpg"",""time"":731.1999999999534},{""stimulus"":""run_exp/static/images/task_images/dig.jpg"",""time"":1435.6000000000931}]",[],4,,,,,,,,,,,,,,
harvest,162,812951,0.0-53.0-1.0,"""event"",""trial"",""time""
""fullscreenenter"",""1"",""5531""
","
","
","""event"",""trial"",""time""
""fullscreenenter"",""1"",""5531""
","
",,null,run_exp/static/images/task_images/gems/11.jpg,null,,,,,,,6,,,4,,,,,11,0.551354592,0.545454545,,,,,,,
decision,163,813734,0.0-53.0-2.0,"""event"",""trial"",""time""
""fullscreenenter"",""1"",""5531""
","
","
","""event"",""trial"",""time""
""fullscreenenter"",""1"",""5531""
","
",,781.9,run_exp/static/images/task_images/land.jpg,65,,,,,,,6,,,4,,,,,,,,173780,1,3,FALSE,,,
dig,164,815968,0.0-54.0-0.0,"""event"",""trial"",""time""
""fullscreenenter"",""1"",""5531""
","
","
","""event"",""trial"",""time""
""fullscreenenter"",""1"",""5531""
","
",,,,,,,,,,,,"[{""stimulus"":""run_exp/static/images/task_images/dig.jpg"",""time"":0.2999999998137355},{""stimulus"":""run_exp/static/images/task_images/land.jpg"",""time"":748},{""stimulus"":""run_exp/static/images/task_images/dig.jpg"",""time"":1480.0999999998603}]",[],4,,,,,,,,,,,,,,
harvest,165,816970,0.0-54.0-1.0,"""event"",""trial"",""time""
""fullscreenenter"",""1"",""5531""
","
","
","""event"",""trial"",""time""
""fullscreenenter"",""1"",""5531""
","
",,null,run_exp/static/images/task_images/gems/6.jpg,null,,,,,,,3,,,4,,,,,6,0.556648876,0.5,,,,,,,
decision,166,817067,0.0-54.0-2.0,"""event"",""trial"",""time""
""fullscreenenter"",""1"",""5531""
","
","
","""event"",""trial"",""time""
""fullscreenenter"",""1"",""5531""
","
",,92.9,run_exp/static/images/task_images/land.jpg,65,,,,,,,3,,,4,,,,,,,,177113,1,4,FALSE,,,
dig,167,819980,0.0-55.0-0.0,"""event"",""trial"",""time""
""fullscreenenter"",""1"",""5531""
","
","
","""event"",""trial"",""time""
""fullscreenenter"",""1"",""5531""
","
",,,,,,,,,,,,"[{""stimulus"":""run_exp/static/images/task_images/dig.jpg"",""time"":0.30000000004656613},{""stimulus"":""run_exp/static/images/task_images/land.jpg"",""time"":981.1999999999534},{""stimulus"":""run_exp/static/images/task_images/dig.jpg"",""time"":1952.8000000000466}]",[],4,,,,,,,,,,,,,,
harvest,168,820985,0.0-55.0-1.0,"""event"",""trial"",""time""
""fullscreenenter"",""1"",""5531""
","
","
","""event"",""trial"",""time""
""fullscreenenter"",""1"",""5531""
","
",,null,run_exp/static/images/task_images/gems/3.jpg,null,,,,,,,1,,,4,,,,,3,0.459018714,0.333333333,,,,,,,
decision,169,821518,0.0-55.0-2.0,"""event"",""trial"",""time""
""fullscreenenter"",""1"",""5531""
","
","
","""event"",""trial"",""time""
""fullscreenenter"",""1"",""5531""
","
",,530.8,run_exp/static/images/task_images/land.jpg,65,,,,,,,1,,,4,,,,,,,,181564,1,5,FALSE,,,
dig,170,824000,0.0-56.0-0.0,"""event"",""trial"",""time""
""fullscreenenter"",""1"",""5531""
","
","
","""event"",""trial"",""time""
""fullscreenenter"",""1"",""5531""
","
",,,,,,,,,,,,"[{""stimulus"":""run_exp/static/images/task_images/dig.jpg"",""time"":0.39999999990686774},{""stimulus"":""run_exp/static/images/task_images/land.jpg"",""time"":836.8000000000466},{""stimulus"":""run_exp/static/images/task_images/dig.jpg"",""time"":1648.6000000000931}]",[],4,,,,,,,,,,,,,,
harvest,171,825012,0.0-56.0-1.0,"""event"",""trial"",""time""
""fullscreenenter"",""1"",""5531""
","
","
","""event"",""trial"",""time""
""fullscreenenter"",""1"",""5531""
","
",,null,run_exp/static/images/task_images/gems/1.jpg,null,,,,,,,1,,,4,,,,,1,0.574793483,1,,,,,,,
decision,172,825020,0.0-56.0-2.0,"""event"",""trial"",""time""
""fullscreenenter"",""1"",""5531""
","
","
","""event"",""trial"",""time""
""fullscreenenter"",""1"",""5531""
","
",,6.3,run_exp/static/images/task_images/land.jpg,65,,,,,,,1,,,4,,,,,,,,185066,1,6,FALSE,,,
dig,173,828018,0.0-57.0-0.0,"""event"",""trial"",""time""
""fullscreenenter"",""1"",""5531""
","
","
","""event"",""trial"",""time""
""fullscreenenter"",""1"",""5531""
","
",,,,,,,,,,,,"[{""stimulus"":""run_exp/static/images/task_images/dig.jpg"",""time"":0.30000000004656613},{""stimulus"":""run_exp/static/images/task_images/land.jpg"",""time"":1014},{""stimulus"":""run_exp/static/images/task_images/dig.jpg"",""time"":1996}]",[],4,,,,,,,,,,,,,,
harvest,174,829021,0.0-57.0-1.0,"""event"",""trial"",""time""
""fullscreenenter"",""1"",""5531""
","
","
","""event"",""trial"",""time""
""fullscreenenter"",""1"",""5531""
","
",,null,run_exp/static/images/task_images/gems/1.jpg,null,,,,,,,1,,,4,,,,,1,0.515710404,1,,,,,,,
decision,175,829426,0.0-57.0-2.0,"""event"",""trial"",""time""
""fullscreenenter"",""1"",""5531""
","
","
","""event"",""trial"",""time""
""fullscreenenter"",""1"",""5531""
","
",,403.8,run_exp/static/images/task_images/land.jpg,65,,,,,,,0,,,4,,,,,,,,189472,1,7,FALSE,,,
dig,176,832041,0.0-58.0-0.0,"""event"",""trial"",""time""
""fullscreenenter"",""1"",""5531""
","
","
","""event"",""trial"",""time""
""fullscreenenter"",""1"",""5531""
","
",,,,,,,,,,,,"[{""stimulus"":""run_exp/static/images/task_images/dig.jpg"",""time"":0.30000000004656613},{""stimulus"":""run_exp/static/images/task_images/land.jpg"",""time"":875.1000000000931},{""stimulus"":""run_exp/static/images/task_images/dig.jpg"",""time"":1736.3000000000466}]",[],4,,,,,,,,,,,,,,
harvest,177,833050,0.0-58.0-1.0,"""event"",""trial"",""time""
""fullscreenenter"",""1"",""5531""
","
","
","""event"",""trial"",""time""
""fullscreenenter"",""1"",""5531""
","
",,null,run_exp/static/images/task_images/gems/0.jpg,null,,,,,,,0,,,4,,,,,0,0.444752258,NaN,,,,,,,
decision,178,833727,0.0-58.0-2.0,"""event"",""trial"",""time""
""fullscreenenter"",""1"",""5531""
","
","
","""event"",""trial"",""time""
""fullscreenenter"",""1"",""5531""
","
",,675.2,run_exp/static/images/task_images/land.jpg,65,,,,,,,0,,,4,,,,,,,,193773,1,8,FALSE,,,
dig,179,836066,0.0-59.0-0.0,"""event"",""trial"",""time""
""fullscreenenter"",""1"",""5531""
","
","
","""event"",""trial"",""time""
""fullscreenenter"",""1"",""5531""
","
",,,,,,,,,,,,"[{""stimulus"":""run_exp/static/images/task_images/dig.jpg"",""time"":0.39999999990686774},{""stimulus"":""run_exp/static/images/task_images/land.jpg"",""time"":801.8999999999069},{""stimulus"":""run_exp/static/images/task_images/dig.jpg"",""time"":1562.8999999999069}]",[],4,,,,,,,,,,,,,,
harvest,180,837083,0.0-59.0-1.0,"""event"",""trial"",""time""
""fullscreenenter"",""1"",""5531""
","
","
","""event"",""trial"",""time""
""fullscreenenter"",""1"",""5531""
","
",,null,run_exp/static/images/task_images/gems/0.jpg,null,,,,,,,0,,,4,,,,,0,0.505793385,NaN,,,,,,,
decision,181,837554,0.0-59.0-2.0,"""event"",""trial"",""time""
""fullscreenenter"",""1"",""5531""
","
","
","""event"",""trial"",""time""
""fullscreenenter"",""1"",""5531""
","
",,470,run_exp/static/images/task_images/land.jpg,76,,,,,,,0,,,4,,,,,,,,197600,1,9,TRUE,,,
travel,182,847095,0.0-60.0-0.0,"""event"",""trial"",""time""
""fullscreenenter"",""1"",""5531""
","
","
","""event"",""trial"",""time""
""fullscreenenter"",""1"",""5531""
","
",,,,,,,,,,,,"[{""stimulus"":""run_exp/static/images/task_images/rocket-01.jpg"",""time"":0.2999999998137355},{""stimulus"":""run_exp/static/images/task_images/rocket-02.jpg"",""time"":1078.5},{""stimulus"":""run_exp/static/images/task_images/rocket-03.jpg"",""time"":2123.399999999907},{""stimulus"":""run_exp/static/images/task_images/rocket-04.jpg"",""time"":3190.5},{""stimulus"":""run_exp/static/images/task_images/rocket-05.jpg"",""time"":4238.5},{""stimulus"":""run_exp/static/images/task_images/rocket-06.jpg"",""time"":5300},{""stimulus"":""run_exp/static/images/task_images/rocket-07.jpg"",""time"":6364.299999999814},{""stimulus"":""run_exp/static/images/task_images/rocket-08.jpg"",""time"":7420.09999999986},{""stimulus"":""run_exp/static/images/task_images/rocket-09.jpg"",""time"":8472.59999999986}]",[],4,,,,,,,,,,,,,,
alien_welcome,183,852131,0.0-60.0-1.0,"""event"",""trial"",""time""
""fullscreenenter"",""1"",""5531""
","
","
","""event"",""trial"",""time""
""fullscreenenter"",""1"",""5531""
","
",,null,run_exp/static/images/task_images/aliens/old_aliens/planet/alien_planet-18.jpg,null,,,,,,,,,,,,,18,"30,27,16,19,18,37,23,78,52,17,46,44,32,76,70,12,53,71,39,77,50",,,,,,,,,,
land,184,852641,0.0-60.0-2.0,"""event"",""trial"",""time""
""fullscreenenter"",""1"",""5531""
","
","
","""event"",""trial"",""time""
""fullscreenenter"",""1"",""5531""
","
",,null,run_exp/static/images/task_images/land.jpg,null,,,,,,,105,,,5,,,,,,,,,,,,,,
dig,185,854661,0.0-60.0-3.0,"""event"",""trial"",""time""
""fullscreenenter"",""1"",""5531""
","
","
","""event"",""trial"",""time""
""fullscreenenter"",""1"",""5531""
","
",,,,,,,,,,,,"[{""stimulus"":""run_exp/static/images/task_images/dig.jpg"",""time"":0.39999999990686774},{""stimulus"":""run_exp/static/images/task_images/land.jpg"",""time"":675},{""stimulus"":""run_exp/static/images/task_images/dig.jpg"",""time"":1344.5999999998603}]",[],5,,,,,,,,,,,,,,
harvest,186,855702,0.0-60.0-4.0,"""event"",""trial"",""time""
""fullscreenenter"",""1"",""5531""
","
","
","""event"",""trial"",""time""
""fullscreenenter"",""1"",""5531""
","
",,null,run_exp/static/images/task_images/gems/105.jpg,null,,,,,,,50,,,5,,,,,105,0.480016483,0.476190476,,,,,,,
decision,187,856231,0.0-60.0-5.0,"""event"",""trial"",""time""
""fullscreenenter"",""1"",""5531""
","
","
","""event"",""trial"",""time""
""fullscreenenter"",""1"",""5531""
","
",,527.8,run_exp/static/images/task_images/land.jpg,65,,,,,,,50,,,5,,,,,,,,216277,1,0,FALSE,,,
dig,188,858709,0.0-61.0-0.0,"""event"",""trial"",""time""
""fullscreenenter"",""1"",""5531""
","
","
","""event"",""trial"",""time""
""fullscreenenter"",""1"",""5531""
","
",,,,,,,,,,,,"[{""stimulus"":""run_exp/static/images/task_images/dig.jpg"",""time"":0.19999999995343387},{""stimulus"":""run_exp/static/images/task_images/land.jpg"",""time"":838.6999999999534},{""stimulus"":""run_exp/static/images/task_images/dig.jpg"",""time"":1661}]",[],5,,,,,,,,,,,,,,
harvest,189,859719,0.0-61.0-1.0,"""event"",""trial"",""time""
""fullscreenenter"",""1"",""5531""
","
","
","""event"",""trial"",""time""
""fullscreenenter"",""1"",""5531""
","
",,null,run_exp/static/images/task_images/gems/50.jpg,null,,,,,,,26,,,5,,,,,50,0.513139521,0.52,,,,,,,
decision,190,860138,0.0-61.0-2.0,"""event"",""trial"",""time""
""fullscreenenter"",""1"",""5531""
","
","
","""event"",""trial"",""time""
""fullscreenenter"",""1"",""5531""
","
",,416.9,run_exp/static/images/task_images/land.jpg,65,,,,,,,26,,,5,,,,,,,,220184,1,1,FALSE,,,
dig,191,862732,0.0-62.0-0.0,"""event"",""trial"",""time""
""fullscreenenter"",""1"",""5531""
","
","
","""event"",""trial"",""time""
""fullscreenenter"",""1"",""5531""
","
",,,,,,,,,,,,"[{""stimulus"":""run_exp/static/images/task_images/dig.jpg"",""time"":0.20000000018626451},{""stimulus"":""run_exp/static/images/task_images/land.jpg"",""time"":874.6000000000931},{""stimulus"":""run_exp/static/images/task_images/dig.jpg"",""time"":1734.2000000001863}]",[],5,,,,,,,,,,,,,,
harvest,192,863745,0.0-62.0-1.0,"""event"",""trial"",""time""
""fullscreenenter"",""1"",""5531""
","
","
","""event"",""trial"",""time""
""fullscreenenter"",""1"",""5531""
","
",,null,run_exp/static/images/task_images/gems/26.jpg,null,,,,,,,15,,,5,,,,,26,0.562997329,0.576923077,,,,,,,
decision,193,864040,0.0-62.0-2.0,"""event"",""trial"",""time""
""fullscreenenter"",""1"",""5531""
","
","
","""event"",""trial"",""time""
""fullscreenenter"",""1"",""5531""
","
",,293.5,run_exp/static/images/task_images/land.jpg,65,,,,,,,15,,,5,,,,,,,,224086,1,2,FALSE,,,
dig,194,866762,0.0-63.0-0.0,"""event"",""trial"",""time""
""fullscreenenter"",""1"",""5531""
","
","
","""event"",""trial"",""time""
""fullscreenenter"",""1"",""5531""
","
",,,,,,,,,,,,"[{""stimulus"":""run_exp/static/images/task_images/dig.jpg"",""time"":0.30000000004656613},{""stimulus"":""run_exp/static/images/task_images/land.jpg"",""time"":914.0999999998603},{""stimulus"":""run_exp/static/images/task_images/dig.jpg"",""time"":1812.5999999998603}]",[],5,,,,,,,,,,,,,,
harvest,195,867772,0.0-63.0-1.0,"""event"",""trial"",""time""
""fullscreenenter"",""1"",""5531""
","
","
","""event"",""trial"",""time""
""fullscreenenter"",""1"",""5531""
","
",,null,run_exp/static/images/task_images/gems/15.jpg,null,,,,,,,8,,,5,,,,,15,0.565681354,0.533333333,,,,,,,
decision,196,868231,0.0-63.0-2.0,"""event"",""trial"",""time""
""fullscreenenter"",""1"",""5531""
","
","
","""event"",""trial"",""time""
""fullscreenenter"",""1"",""5531""
","
",,458,run_exp/static/images/task_images/land.jpg,65,,,,,,,8,,,5,,,,,,,,228277,1,3,FALSE,,,
dig,197,870782,0.0-64.0-0.0,"""event"",""trial"",""time""
""fullscreenenter"",""1"",""5531""
","
","
","""event"",""trial"",""time""
""fullscreenenter"",""1"",""5531""
","
",,,,,,,,,,,,"[{""stimulus"":""run_exp/static/images/task_images/dig.jpg"",""time"":0.30000000004656613},{""stimulus"":""run_exp/static/images/task_images/land.jpg"",""time"":862.6999999999534},{""stimulus"":""run_exp/static/images/task_images/dig.jpg"",""time"":1704.9000000001397}]",[],5,,,,,,,,,,,,,,
harvest,198,871794,0.0-64.0-1.0,"""event"",""trial"",""time""
""fullscreenenter"",""1"",""5531""
","
","
","""event"",""trial"",""time""
""fullscreenenter"",""1"",""5531""
","
",,null,run_exp/static/images/task_images/gems/8.jpg,null,,,,,,,4,,,5,,,,,8,0.48993729,0.5,,,,,,,
decision,199,872287,0.0-64.0-2.0,"""event"",""trial"",""time""
""fullscreenenter"",""1"",""5531""
","
","
","""event"",""trial"",""time""
""fullscreenenter"",""1"",""5531""
","
",,489.1,run_exp/static/images/task_images/land.jpg,65,,,,,,,4,,,5,,,,,,,,232333,1,4,FALSE,,,
dig,200,874837,0.0-65.0-0.0,"""event"",""trial"",""time""
""fullscreenenter"",""1"",""5531""
","
","
","""event"",""trial"",""time""
""fullscreenenter"",""1"",""5531""
","
",,,,,,,,,,,,"[{""stimulus"":""run_exp/static/images/task_images/dig.jpg"",""time"":0.20000000018626451},{""stimulus"":""run_exp/static/images/task_images/land.jpg"",""time"":837.4000000001397},{""stimulus"":""run_exp/static/images/task_images/dig.jpg"",""time"":1683.8000000000466}]",[],5,,,,,,,,,,,,,,
harvest,201,875841,0.0-65.0-1.0,"""event"",""trial"",""time""
""fullscreenenter"",""1"",""5531""
","
","
","""event"",""trial"",""time""
""fullscreenenter"",""1"",""5531""
","
",,null,run_exp/static/images/task_images/gems/4.jpg,null,,,,,,,2,,,5,,,,,4,0.484796859,0.5,,,,,,,
decision,202,876678,0.0-65.0-2.0,"""event"",""trial"",""time""
""fullscreenenter"",""1"",""5531""
","
","
","""event"",""trial"",""time""
""fullscreenenter"",""1"",""5531""
","
",,835.3,run_exp/static/images/task_images/land.jpg,65,,,,,,,2,,,5,,,,,,,,236724,1,5,FALSE,,,
dig,203,878856,0.0-66.0-0.0,"""event"",""trial"",""time""
""fullscreenenter"",""1"",""5531""
","
","
","""event"",""trial"",""time""
""fullscreenenter"",""1"",""5531""
","
",,,,,,,,,,,,"[{""stimulus"":""run_exp/static/images/task_images/dig.jpg"",""time"":0.19999999995343387},{""stimulus"":""run_exp/static/images/task_images/land.jpg"",""time"":726.8999999999069},{""stimulus"":""run_exp/static/images/task_images/dig.jpg"",""time"":1444}]",[],5,,,,,,,,,,,,,,
harvest,204,879874,0.0-66.0-1.0,"""event"",""trial"",""time""
""fullscreenenter"",""1"",""5531""
","
","
","""event"",""trial"",""time""
""fullscreenenter"",""1"",""5531""
","
",,null,run_exp/static/images/task_images/gems/2.jpg,null,,,,,,,1,,,5,,,,,2,0.460903453,0.5,,,,,,,
decision,205,880246,0.0-66.0-2.0,"""event"",""trial"",""time""
""fullscreenenter"",""1"",""5531""
","
","
","""event"",""trial"",""time""
""fullscreenenter"",""1"",""5531""
","
",,371.4,run_exp/static/images/task_images/land.jpg,65,,,,,,,1,,,5,,,,,,,,240292,1,6,FALSE,,,
dig,206,882881,0.0-67.0-0.0,"""event"",""trial"",""time""
""fullscreenenter"",""1"",""5531""
","
","
","""event"",""trial"",""time""
""fullscreenenter"",""1"",""5531""
","
",,,,,,,,,,,,"[{""stimulus"":""run_exp/static/images/task_images/dig.jpg"",""time"":0.30000000004656613},{""stimulus"":""run_exp/static/images/task_images/land.jpg"",""time"":883.6000000000931},{""stimulus"":""run_exp/static/images/task_images/dig.jpg"",""time"":1758.2000000001863}]",[],5,,,,,,,,,,,,,,
harvest,207,883889,0.0-67.0-1.0,"""event"",""trial"",""time""
""fullscreenenter"",""1"",""5531""
","
","
","""event"",""trial"",""time""
""fullscreenenter"",""1"",""5531""
","
",,null,run_exp/static/images/task_images/gems/1.jpg,null,,,,,,,1,,,5,,,,,1,0.542974691,1,,,,,,,
decision,208,883953,0.0-67.0-2.0,"""event"",""trial"",""time""
""fullscreenenter"",""1"",""5531""
","
","
","""event"",""trial"",""time""
""fullscreenenter"",""1"",""5531""
","
",,62.3,run_exp/static/images/task_images/land.jpg,65,,,,,,,1,,,5,,,,,,,,243999,1,7,FALSE,,,
dig,209,886900,0.0-68.0-0.0,"""event"",""trial"",""time""
""fullscreenenter"",""1"",""5531""
","
","
","""event"",""trial"",""time""
""fullscreenenter"",""1"",""5531""
","
",,,,,,,,,,,,"[{""stimulus"":""run_exp/static/images/task_images/dig.jpg"",""time"":0.19999999995343387},{""stimulus"":""run_exp/static/images/task_images/land.jpg"",""time"":983.6999999999534},{""stimulus"":""run_exp/static/images/task_images/dig.jpg"",""time"":1964.5}]",[],5,,,,,,,,,,,,,,
harvest,210,887930,0.0-68.0-1.0,"""event"",""trial"",""time""
""fullscreenenter"",""1"",""5531""
","
","
","""event"",""trial"",""time""
""fullscreenenter"",""1"",""5531""
","
",,null,run_exp/static/images/task_images/gems/1.jpg,null,,,,,,,0,,,5,,,,,1,0.40494947,0,,,,,,,
decision,211,888518,0.0-68.0-2.0,"""event"",""trial"",""time""
""fullscreenenter"",""1"",""5531""
","
","
","""event"",""trial"",""time""
""fullscreenenter"",""1"",""5531""
","
",,586.8,run_exp/static/images/task_images/land.jpg,65,,,,,,,0,,,5,,,,,,,,248564,1,8,FALSE,,,
dig,212,890968,0.0-69.0-0.0,"""event"",""trial"",""time""
""fullscreenenter"",""1"",""5531""
","
","
","""event"",""trial"",""time""
""fullscreenenter"",""1"",""5531""
","
",,,,,,,,,,,,"[{""stimulus"":""run_exp/static/images/task_images/dig.jpg"",""time"":0.19999999995343387},{""stimulus"":""run_exp/static/images/task_images/land.jpg"",""time"":810.1000000000931},{""stimulus"":""run_exp/static/images/task_images/dig.jpg"",""time"":1611.1000000000931}]",[],5,,,,,,,,,,,,,,
harvest,213,891992,0.0-69.0-1.0,"""event"",""trial"",""time""
""fullscreenenter"",""1"",""5531""
","
","
","""event"",""trial"",""time""
""fullscreenenter"",""1"",""5531""
","
",,null,run_exp/static/images/task_images/gems/0.jpg,null,,,,,,,0,,,5,,,,,0,0.506685021,NaN,,,,,,,
decision,214,892335,0.0-69.0-2.0,"""event"",""trial"",""time""
""fullscreenenter"",""1"",""5531""
","
","
","""event"",""trial"",""time""
""fullscreenenter"",""1"",""5531""
","
",,341.8,run_exp/static/images/task_images/land.jpg,65,,,,,,,0,,,5,,,,,,,,252381,1,9,FALSE,,,
dig,215,895007,0.0-70.0-0.0,"""event"",""trial"",""time""
""fullscreenenter"",""1"",""5531""
","
","
","""event"",""trial"",""time""
""fullscreenenter"",""1"",""5531""
","
",,,,,,,,,,,,"[{""stimulus"":""run_exp/static/images/task_images/dig.jpg"",""time"":0.2999999998137355},{""stimulus"":""run_exp/static/images/task_images/land.jpg"",""time"":891.8999999999069},{""stimulus"":""run_exp/static/images/task_images/dig.jpg"",""time"":1789}]",[],5,,,,,,,,,,,,,,
harvest,216,896021,0.0-70.0-1.0,"""event"",""trial"",""time""
""fullscreenenter"",""1"",""5531""
","
","
","""event"",""trial"",""time""
""fullscreenenter"",""1"",""5531""
","
",,null,run_exp/static/images/task_images/gems/0.jpg,null,,,,,,,0,,,5,,,,,0,0.387430085,NaN,,,,,,,
decision,217,897199,0.0-70.0-2.0,"""event"",""trial"",""time""
""fullscreenenter"",""1"",""5531""
","
","
","""event"",""trial"",""time""
""fullscreenenter"",""1"",""5531""
","
",,1175.8,run_exp/static/images/task_images/land.jpg,76,,,,,,,0,,,5,,,,,,,,257246,1,10,TRUE,,,
travel,218,906036,0.0-71.0-0.0,"""event"",""trial"",""time""
""fullscreenenter"",""1"",""5531""
","
","
","""event"",""trial"",""time""
""fullscreenenter"",""1"",""5531""
","
",,,,,,,,,,,,"[{""stimulus"":""run_exp/static/images/task_images/rocket-01.jpg"",""time"":0.39999999990686774},{""stimulus"":""run_exp/static/images/task_images/rocket-02.jpg"",""time"":989.1999999999534},{""stimulus"":""run_exp/static/images/task_images/rocket-03.jpg"",""time"":1976.8000000000466},{""stimulus"":""run_exp/static/images/task_images/rocket-04.jpg"",""time"":2945.899999999907},{""stimulus"":""run_exp/static/images/task_images/rocket-05.jpg"",""time"":3943},{""stimulus"":""run_exp/static/images/task_images/rocket-06.jpg"",""time"":4902.600000000093},{""stimulus"":""run_exp/static/images/task_images/rocket-07.jpg"",""time"":5889.300000000047},{""stimulus"":""run_exp/static/images/task_images/rocket-08.jpg"",""time"":6879},{""stimulus"":""run_exp/static/images/task_images/rocket-09.jpg"",""time"":7849.399999999907}]",[],5,,,,,,,,,,,,,,
alien_welcome,219,911047,0.0-71.0-1.0,"""event"",""trial"",""time""
""fullscreenenter"",""1"",""5531""
","
","
","""event"",""trial"",""time""
""fullscreenenter"",""1"",""5531""
","
",,null,run_exp/static/images/task_images/aliens/old_aliens/planet/alien_planet-37.jpg,null,,,,,,,,,,,,,37,"30,27,16,19,18,37,23,78,52,17,46,44,32,76,70,12,53,71,39,77,50",,,,,,,,,,
land,220,911559,0.0-71.0-2.0,"""event"",""trial"",""time""
""fullscreenenter"",""1"",""5531""
","
","
","""event"",""trial"",""time""
""fullscreenenter"",""1"",""5531""
","
",,null,run_exp/static/images/task_images/land.jpg,null,,,,,,,100,,,6,,,,,,,,,,,,,,
dig,221,913570,0.0-71.0-3.0,"""event"",""trial"",""time""
""fullscreenenter"",""1"",""5531""
","
","
","""event"",""trial"",""time""
""fullscreenenter"",""1"",""5531""
","
",,,,,,,,,,,,"[{""stimulus"":""run_exp/static/images/task_images/dig.jpg"",""time"":0.39999999990686774},{""stimulus"":""run_exp/static/images/task_images/land.jpg"",""time"":684.6999999999534},{""stimulus"":""run_exp/static/images/task_images/dig.jpg"",""time"":1339.8999999999069}]",[],6,,,,,,,,,,,,,,
harvest,222,914576,0.0-71.0-4.0,"""event"",""trial"",""time""
""fullscreenenter"",""1"",""5531""
","
","
","""event"",""trial"",""time""
""fullscreenenter"",""1"",""5531""
","
",,null,run_exp/static/images/task_images/gems/100.jpg,null,,,,,,,89,,,6,,,,,100,0.885015926,0.89,,,,,,,
decision,223,914978,0.0-71.0-5.0,"""event"",""trial"",""time""
""fullscreenenter"",""1"",""5531""
","
","
","""event"",""trial"",""time""
""fullscreenenter"",""1"",""5531""
","
",,399.8,run_exp/static/images/task_images/land.jpg,65,,,,,,,89,,,6,,,,,,,,275024,1,0,FALSE,,,
dig,224,917592,0.0-72.0-0.0,"""event"",""trial"",""time""
""fullscreenenter"",""1"",""5531""
","
","
","""event"",""trial"",""time""
""fullscreenenter"",""1"",""5531""
","
",,,,,,,,,,,,"[{""stimulus"":""run_exp/static/images/task_images/dig.jpg"",""time"":0.19999999995343387},{""stimulus"":""run_exp/static/images/task_images/land.jpg"",""time"":885},{""stimulus"":""run_exp/static/images/task_images/dig.jpg"",""time"":1738.1999999999534}]",[],6,,,,,,,,,,,,,,
harvest,225,918609,0.0-72.0-1.0,"""event"",""trial"",""time""
""fullscreenenter"",""1"",""5531""
","
","
","""event"",""trial"",""time""
""fullscreenenter"",""1"",""5531""
","
",,null,run_exp/static/images/task_images/gems/89.jpg,null,,,,,,,63,,,6,,,,,89,0.706195355,0.707865169,,,,,,,
decision,226,918954,0.0-72.0-2.0,"""event"",""trial"",""time""
""fullscreenenter"",""1"",""5531""
","
","
","""event"",""trial"",""time""
""fullscreenenter"",""1"",""5531""
","
",,342.1,run_exp/static/images/task_images/land.jpg,65,,,,,,,63,,,6,,,,,,,,279000,1,1,FALSE,,,
dig,227,921619,0.0-73.0-0.0,"""event"",""trial"",""time""
""fullscreenenter"",""1"",""5531""
","
","
","""event"",""trial"",""time""
""fullscreenenter"",""1"",""5531""
","
",,,,,,,,,,,,"[{""stimulus"":""run_exp/static/images/task_images/dig.jpg"",""time"":0.30000000004656613},{""stimulus"":""run_exp/static/images/task_images/land.jpg"",""time"":893.3999999999069},{""stimulus"":""run_exp/static/images/task_images/dig.jpg"",""time"":1788.1999999999534}]",[],6,,,,,,,,,,,,,,
harvest,228,922631,0.0-73.0-1.0,"""event"",""trial"",""time""
""fullscreenenter"",""1"",""5531""
","
","
","""event"",""trial"",""time""
""fullscreenenter"",""1"",""5531""
","
",,null,run_exp/static/images/task_images/gems/63.jpg,null,,,,,,,54,,,6,,,,,63,0.858705885,0.857142857,,,,,,,
decision,229,922916,0.0-73.0-2.0,"""event"",""trial"",""time""
""fullscreenenter"",""1"",""5531""
","
","
","""event"",""trial"",""time""
""fullscreenenter"",""1"",""5531""
","
",,283.7,run_exp/static/images/task_images/land.jpg,65,,,,,,,54,,,6,,,,,,,,282962,1,2,FALSE,,,
dig,230,925642,0.0-74.0-0.0,"""event"",""trial"",""time""
""fullscreenenter"",""1"",""5531""
","
","
","""event"",""trial"",""time""
""fullscreenenter"",""1"",""5531""
","
",,,,,,,,,,,,"[{""stimulus"":""run_exp/static/images/task_images/dig.jpg"",""time"":0.30000000004656613},{""stimulus"":""run_exp/static/images/task_images/land.jpg"",""time"":917},{""stimulus"":""run_exp/static/images/task_images/dig.jpg"",""time"":1823.8000000000466}]",[],6,,,,,,,,,,,,,,
harvest,231,926656,0.0-74.0-1.0,"""event"",""trial"",""time""
""fullscreenenter"",""1"",""5531""
","
","
","""event"",""trial"",""time""
""fullscreenenter"",""1"",""5531""
","
",,null,run_exp/static/images/task_images/gems/54.jpg,null,,,,,,,43,,,6,,,,,54,0.805415971,0.796296296,,,,,,,
decision,232,926828,0.0-74.0-2.0,"""event"",""trial"",""time""
""fullscreenenter"",""1"",""5531""
","
","
","""event"",""trial"",""time""
""fullscreenenter"",""1"",""5531""
","
",,170.4,run_exp/static/images/task_images/land.jpg,65,,,,,,,43,,,6,,,,,,,,286874,1,3,FALSE,,,
dig,233,929665,0.0-75.0-0.0,"""event"",""trial"",""time""
""fullscreenenter"",""1"",""5531""
","
","
","""event"",""trial"",""time""
""fullscreenenter"",""1"",""5531""
","
",,,,,,,,,,,,"[{""stimulus"":""run_exp/static/images/task_images/dig.jpg"",""time"":0.30000000004656613},{""stimulus"":""run_exp/static/images/task_images/land.jpg"",""time"":959.1000000000931},{""stimulus"":""run_exp/static/images/task_images/dig.jpg"",""time"":1894.4000000001397}]",[],6,,,,,,,,,,,,,,
harvest,234,930683,0.0-75.0-1.0,"""event"",""trial"",""time""
""fullscreenenter"",""1"",""5531""
","
","
","""event"",""trial"",""time""
""fullscreenenter"",""1"",""5531""
","
",,null,run_exp/static/images/task_images/gems/43.jpg,null,,,,,,,35,,,6,,,,,43,0.824443446,0.813953488,,,,,,,
decision,235,931168,0.0-75.0-2.0,"""event"",""trial"",""time""
""fullscreenenter"",""1"",""5531""
","
","
","""event"",""trial"",""time""
""fullscreenenter"",""1"",""5531""
","
",,483,run_exp/static/images/task_images/land.jpg,65,,,,,,,35,,,6,,,,,,,,291215,1,4,FALSE,,,
dig,236,933693,0.0-76.0-0.0,"""event"",""trial"",""time""
""fullscreenenter"",""1"",""5531""
","
","
","""event"",""trial"",""time""
""fullscreenenter"",""1"",""5531""
","
",,,,,,,,,,,,"[{""stimulus"":""run_exp/static/images/task_images/dig.jpg"",""time"":0.19999999995343387},{""stimulus"":""run_exp/static/images/task_images/land.jpg"",""time"":853.8000000000466},{""stimulus"":""run_exp/static/images/task_images/dig.jpg"",""time"":1683.8000000000466}]",[],6,,,,,,,,,,,,,,
harvest,237,934701,0.0-76.0-1.0,"""event"",""trial"",""time""
""fullscreenenter"",""1"",""5531""
","
","
","""event"",""trial"",""time""
""fullscreenenter"",""1"",""5531""
","
",,null,run_exp/static/images/task_images/gems/35.jpg,null,,,,,,,30,,,6,,,,,35,0.865908992,0.857142857,,,,,,,
decision,238,934956,0.0-76.0-2.0,"""event"",""trial"",""time""
""fullscreenenter"",""1"",""5531""
","
","
","""event"",""trial"",""time""
""fullscreenenter"",""1"",""5531""
","
",,252.6,run_exp/static/images/task_images/land.jpg,65,,,,,,,30,,,6,,,,,,,,295002,1,5,FALSE,,,
dig,239,937726,0.0-77.0-0.0,"""event"",""trial"",""time""
""fullscreenenter"",""1"",""5531""
","
","
","""event"",""trial"",""time""
""fullscreenenter"",""1"",""5531""
","
",,,,,,,,,,,,"[{""stimulus"":""run_exp/static/images/task_images/dig.jpg"",""time"":0.30000000004656613},{""stimulus"":""run_exp/static/images/task_images/land.jpg"",""time"":928.8000000000466},{""stimulus"":""run_exp/static/images/task_images/dig.jpg"",""time"":1845.1000000000931}]",[],6,,,,,,,,,,,,,,
harvest,240,938738,0.0-77.0-1.0,"""event"",""trial"",""time""
""fullscreenenter"",""1"",""5531""
","
","
","""event"",""trial"",""time""
""fullscreenenter"",""1"",""5531""
","
",,null,run_exp/static/images/task_images/gems/30.jpg,null,,,,,,,24,,,6,,,,,30,0.802045605,0.8,,,,,,,
decision,241,939147,0.0-77.0-2.0,"""event"",""trial"",""time""
""fullscreenenter"",""1"",""5531""
","
","
","""event"",""trial"",""time""
""fullscreenenter"",""1"",""5531""
","
",,406.7,run_exp/static/images/task_images/land.jpg,65,,,,,,,24,,,6,,,,,,,,299193,1,6,FALSE,,,
dig,242,941754,0.0-78.0-0.0,"""event"",""trial"",""time""
""fullscreenenter"",""1"",""5531""
","
","
","""event"",""trial"",""time""
""fullscreenenter"",""1"",""5531""
","
",,,,,,,,,,,,"[{""stimulus"":""run_exp/static/images/task_images/dig.jpg"",""time"":0.30000000004656613},{""stimulus"":""run_exp/static/images/task_images/land.jpg"",""time"":882.5},{""stimulus"":""run_exp/static/images/task_images/dig.jpg"",""time"":1732.5999999998603}]",[],6,,,,,,,,,,,,,,
harvest,243,942769,0.0-78.0-1.0,"""event"",""trial"",""time""
""fullscreenenter"",""1"",""5531""
","
","
","""event"",""trial"",""time""
""fullscreenenter"",""1"",""5531""
","
",,null,run_exp/static/images/task_images/gems/24.jpg,null,,,,,,,20,,,6,,,,,24,0.836387246,0.833333333,,,,,,,
decision,244,942954,0.0-78.0-2.0,"""event"",""trial"",""time""
""fullscreenenter"",""1"",""5531""
","
","
","""event"",""trial"",""time""
""fullscreenenter"",""1"",""5531""
","
",,183.1,run_exp/static/images/task_images/land.jpg,65,,,,,,,20,,,6,,,,,,,,303000,1,7,TRUE,,,
end_of_block_continue,245,952252,0.0-79.0-0.0,"""event"",""trial"",""time""
""fullscreenenter"",""1"",""5531""
","
","
","""event"",""trial"",""time""
""fullscreenenter"",""1"",""5531""
","
",,null,run_exp/static/audio/clip_32_block_end.m4a,,,,,,,null,,,,,,,,,,,,,,,,,,
alien_welcome,246,957269,0.0-80.0-0.0,"""event"",""trial"",""time""
""fullscreenenter"",""1"",""5531""
","
","
","""event"",""trial"",""time""
""fullscreenenter"",""1"",""5531""
","
",,null,run_exp/static/images/task_images/aliens/old_aliens/planet/alien_planet-23.jpg,null,,,,,,,,,,,,,23,"30,27,16,19,18,37,23,78,52,17,46,44,32,76,70,12,53,71,39,77,50",,,,,,,,,,
land,247,957773,0.0-80.0-1.0,"""event"",""trial"",""time""
""fullscreenenter"",""1"",""5531""
","
","
","""event"",""trial"",""time""
""fullscreenenter"",""1"",""5531""
","
",,null,run_exp/static/images/task_images/land.jpg,null,,,,,,,99,,,7,,,,,,,,,,,,,,
dig,248,959781,0.0-80.0-2.0,"""event"",""trial"",""time""
""fullscreenenter"",""1"",""5531""
","
","
","""event"",""trial"",""time""
""fullscreenenter"",""1"",""5531""
","
",,,,,,,,,,,,"[{""stimulus"":""run_exp/static/images/task_images/dig.jpg"",""time"":1.2000000001862645},{""stimulus"":""run_exp/static/images/task_images/land.jpg"",""time"":683.2000000001863},{""stimulus"":""run_exp/static/images/task_images/dig.jpg"",""time"":1336.9000000001397}]",[],7,,,,,,,,,,,,,,
harvest,249,960798,0.0-80.0-3.0,"""event"",""trial"",""time""
""fullscreenenter"",""1"",""5531""
","
","
","""event"",""trial"",""time""
""fullscreenenter"",""1"",""5531""
","
",,null,run_exp/static/images/task_images/gems/99.jpg,null,,,,,,,22,,,7,,,,,99,0.219168551,0.222222222,,,,,,,
decision,250,961583,0.0-80.0-4.0,"""event"",""trial"",""time""
""fullscreenenter"",""1"",""5531""
","
","
","""event"",""trial"",""time""
""fullscreenenter"",""1"",""5531""
","
",,784.2,run_exp/static/images/task_images/land.jpg,65,,,,,,,22,,,7,,,,,,,,9327,2,0,FALSE,,,
dig,251,963812,0.0-81.0-0.0,"""event"",""trial"",""time""
""fullscreenenter"",""1"",""5531""
","
","
","""event"",""trial"",""time""
""fullscreenenter"",""1"",""5531""
","
",,,,,,,,,,,,"[{""stimulus"":""run_exp/static/images/task_images/dig.jpg"",""time"":0.2999999998137355},{""stimulus"":""run_exp/static/images/task_images/land.jpg"",""time"":756.5},{""stimulus"":""run_exp/static/images/task_images/dig.jpg"",""time"":1486.1999999999534}]",[],7,,,,,,,,,,,,,,
harvest,252,964823,0.0-81.0-1.0,"""event"",""trial"",""time""
""fullscreenenter"",""1"",""5531""
","
","
","""event"",""trial"",""time""
""fullscreenenter"",""1"",""5531""
","
",,null,run_exp/static/images/task_images/gems/22.jpg,null,,,,,,,3,,,7,,,,,22,0.120157391,0.136363636,,,,,,,
decision,253,965161,0.0-81.0-2.0,"""event"",""trial"",""time""
""fullscreenenter"",""1"",""5531""
","
","
","""event"",""trial"",""time""
""fullscreenenter"",""1"",""5531""
","
",,336.2,run_exp/static/images/task_images/land.jpg,65,,,,,,,3,,,7,,,,,,,,12904,2,1,FALSE,,,
dig,254,967841,0.0-82.0-0.0,"""event"",""trial"",""time""
""fullscreenenter"",""1"",""5531""
","
","
","""event"",""trial"",""time""
""fullscreenenter"",""1"",""5531""
","
",,,,,,,,,,,,"[{""stimulus"":""run_exp/static/images/task_images/dig.jpg"",""time"":0.4000000001396984},{""stimulus"":""run_exp/static/images/task_images/land.jpg"",""time"":895.7000000001863},{""stimulus"":""run_exp/static/images/task_images/dig.jpg"",""time"":1784.9000000001397}]",[],7,,,,,,,,,,,,,,
harvest,255,968847,0.0-82.0-1.0,"""event"",""trial"",""time""
""fullscreenenter"",""1"",""5531""
","
","
","""event"",""trial"",""time""
""fullscreenenter"",""1"",""5531""
","
",,null,run_exp/static/images/task_images/gems/3.jpg,null,,,,,,,1,,,7,,,,,3,0.171579279,0.333333333,,,,,,,
decision,256,969178,0.0-82.0-2.0,"""event"",""trial"",""time""
""fullscreenenter"",""1"",""5531""
","
","
","""event"",""trial"",""time""
""fullscreenenter"",""1"",""5531""
","
",,329,run_exp/static/images/task_images/land.jpg,65,,,,,,,1,,,7,,,,,,,,16921,2,2,FALSE,,,
dig,257,971867,0.0-83.0-0.0,"""event"",""trial"",""time""
""fullscreenenter"",""1"",""5531""
","
","
","""event"",""trial"",""time""
""fullscreenenter"",""1"",""5531""
","
",,,,,,,,,,,,"[{""stimulus"":""run_exp/static/images/task_images/dig.jpg"",""time"":0.19999999995343387},{""stimulus"":""run_exp/static/images/task_images/land.jpg"",""time"":893.8000000000466},{""stimulus"":""run_exp/static/images/task_images/dig.jpg"",""time"":1783.5}]",[],7,,,,,,,,,,,,,,
harvest,258,972880,0.0-83.0-1.0,"""event"",""trial"",""time""
""fullscreenenter"",""1"",""5531""
","
","
","""event"",""trial"",""time""
""fullscreenenter"",""1"",""5531""
","
",,null,run_exp/static/images/task_images/gems/1.jpg,null,,,,,,,0,,,7,,,,,1,0.184991538,0,,,,,,,
decision,259,973311,0.0-83.0-2.0,"""event"",""trial"",""time""
""fullscreenenter"",""1"",""5531""
","
","
","""event"",""trial"",""time""
""fullscreenenter"",""1"",""5531""
","
