trial_type,trial_index,time_elapsed,internal_node_id,interactions,blur_events,focus_events,fullscreenenter_events,fullscreenexit_events,success,rt,stimulus,key_press,prompt,subject_id,participant_id,age,gender,button_pressed,next_reward,animation_sequence,responses,planet,curr_prac_trial,n_prac_rounds,alien,aliens,reward_received,decay_rate_actual,decay_rate_exp,time_in_block,block_num,prt,last_trial_on_planet,button_html,bonus,num_failures
pavlovia,0,11,0.0-0.0,"""event"",""trial"",""time""
""fullscreenenter"",""1"",""3700""
","
","
","""event"",""trial"",""time""
""fullscreenenter"",""1"",""3700""
","
",,,,,,,,,,,,,,,,,,,,,,,,,,,,
fullscreen,1,4622,0.0-1.0,"""event"",""trial"",""time""
""fullscreenenter"",""1"",""3700""
","
","
","""event"",""trial"",""time""
""fullscreenenter"",""1"",""3700""
","
",TRUE,,,,,,,,,,,,,,,,,,,,,,,,,,,
instruc_welcome,2,14419,0.0-2.0,"""event"",""trial"",""time""
""fullscreenenter"",""1"",""3700""
","
","
","""event"",""trial"",""time""
""fullscreenenter"",""1"",""3700""
","
",,null,run_exp/static/audio/clip_1_welcome.m4a,null,"<p>Howdy! In this experiment, you’ll be an explorer traveling through space to collect space treasure.</p><p>Your mission is to collect as much treasure as possible.</p><br><br><p><img src='run_exp/static/images/task_images/opening_img-01.jpg' height='300' width='auto'></p>",10113,4815,18,Male,,,,,,,,,,,,,,,,,,,
audio-keyboard-response,3,31037,0.0-3.0,"""event"",""trial"",""time""
""fullscreenenter"",""1"",""3700""
","
","
","""event"",""trial"",""time""
""fullscreenenter"",""1"",""3700""
","
",,null,run_exp/static/audio/clip_2_move.m4a,null,,,,,,,,,,,,,,,,,,,,,,,,
welcome_dec,4,32690,0.0-4.0,"""event"",""trial"",""time""
""fullscreenenter"",""1"",""3700""
","
","
","""event"",""trial"",""time""
""fullscreenenter"",""1"",""3700""
","
",,1649.2,"<p>Howdy! In this experiment, you’ll be an explorer traveling through space to collect space treasure.</p><p>Your mission is to collect as much treasure as possible.</p><br><br><p><img src='run_exp/static/images/task_images/opening_img-01.jpg' height='300' width='auto'></p>",,,,,,,1,,,,,,,,,,,,,,,,,,
html-keyboard-response,5,33100,0.0-5.0,"""event"",""trial"",""time""
""fullscreenenter"",""1"",""3700""
","
","
","""event"",""trial"",""time""
""fullscreenenter"",""1"",""3700""
","
",,405.9000001,"<p>Howdy! In this experiment, you’ll be an explorer traveling through space to collect space treasure.</p><p>Your mission is to collect as much treasure as possible.</p><br><br><p><img src='run_exp/static/images/task_images/opening_img-01.jpg' height='300' width='auto'></p><button class=""jspsych-html-btn-unchosen""><img src=""run_exp/static/images/task_images/planet-01.jpg"" height=""50""></button><button class=""jspsych-html-btn-chosen""><img src=""run_exp/static/images/task_images/planet-02.jpg"" height=""50""></button><p><b>[press the space bar to lock in your answer]<b><br></p>",32,,,,,,,,,,,,,,,,,,,,,,,,
instruc_goal,6,43178,0.0-6.0-0.0,"""event"",""trial"",""time""
""fullscreenenter"",""1"",""3700""
","
","
","""event"",""trial"",""time""
""fullscreenenter"",""1"",""3700""
","
",,null,run_exp/static/audio/clip_3_goal.m4a,null,"<p> As a space explorer, you’ll visit different planets to dig for space treasure, these pink gems.</p> <p> The more treasure you dig up, the more bonus money you’ll win! </p><br><br><p><img src='run_exp/static/images/task_images/pink_gem.jpg' height='300' width='auto'></p>",,,,,,,,,,,,,,,,,,,,,,,
instruc_goal,7,44282,0.0-6.0-1.0,"""event"",""trial"",""time""
""fullscreenenter"",""1"",""3700""
","
","
","""event"",""trial"",""time""
""fullscreenenter"",""1"",""3700""
","
",,1097.2,"<p> As a space explorer, you’ll visit different planets to dig for space treasure, these pink gems.</p> <p> The more treasure you dig up, the more bonus money you’ll win! </p><br><br><p><img src='run_exp/static/images/task_images/pink_gem.jpg' height='300' width='auto'></p>",,,,,,,1,,,,,,,,,,,,,,,,,,
html-keyboard-response,8,44463,0.0-6.0-2.0,"""event"",""trial"",""time""
""fullscreenenter"",""1"",""3700""
","
","
","""event"",""trial"",""time""
""fullscreenenter"",""1"",""3700""
","
",,177.5999999,"<p> As a space explorer, you’ll visit different planets to dig for space treasure, these pink gems.</p> <p> The more treasure you dig up, the more bonus money you’ll win! </p><br><br><p><img src='run_exp/static/images/task_images/pink_gem.jpg' height='300' width='auto'></p><button class=""jspsych-html-btn-unchosen""><img src=""run_exp/static/images/task_images/planet-01.jpg"" height=""50""></button><button class=""jspsych-html-btn-chosen""><img src=""run_exp/static/images/task_images/planet-02.jpg"" height=""50""></button><p><b>[press the space bar to lock in your answer]<b><br></p>",32,,,,,,,,,,,,,,,,,,,,,,,,
instruc_dig,9,60499,0.0-7.0-0.0,"""event"",""trial"",""time""
""fullscreenenter"",""1"",""3700""
","
","
","""event"",""trial"",""time""
""fullscreenenter"",""1"",""3700""
","
",,null,run_exp/static/audio/clip_4_dig.m4a,null,,,,,,,100,,,,,,,,,,,,,,,,,
instruc_dig_try,10,61422,0.0-7.0-1.0,"""event"",""trial"",""time""
""fullscreenenter"",""1"",""3700""
","
","
","""event"",""trial"",""time""
""fullscreenenter"",""1"",""3700""
","
",,918.4000001,"<p> When you’ve arrived at a new planet, you will dig once. </p> <p>Then, you get to decide if you want to stay on the planet and dig again or travel to a new planet and dig there.</p> <p> To stay and dig, press the letter <strong>‘A’</strong> on your keyboard. Try pressing it now! </p><p><img src='run_exp/static/images/task_images/land.jpg'  height='700' width='auto'></p>",65,"<p> When you’ve arrived at a new planet, you will dig once. </p> <p>Then, you get to decide if you want to stay on the planet and dig again or travel to a new planet and dig there.</p> <p> To stay and dig, press the letter <strong>‘A’</strong> on your keyboard. Try pressing it now! </p><p><img src='run_exp/static/images/task_images/land.jpg'  height='700' width='auto'></p>",,,,,,100,,,,,,,,,,,,,,,,,
dig_prac,11,63462,0.0-7.0-2.0,"""event"",""trial"",""time""
""fullscreenenter"",""1"",""3700""
","
","
","""event"",""trial"",""time""
""fullscreenenter"",""1"",""3700""
","
",,,,,,,,,,,,"[{""stimulus"":""run_exp/static/images/task_images/dig.jpg"",""time"":1},{""stimulus"":""run_exp/static/images/task_images/land.jpg"",""time"":920.2000000476837},{""stimulus"":""run_exp/static/images/task_images/dig.jpg"",""time"":1347.9000000953674}]",[],,,,,,,,,,,,,,,
instruc_travel,12,99760,0.0-7.0-3.0,"""event"",""trial"",""time""
""fullscreenenter"",""1"",""3700""
","
","
","""event"",""trial"",""time""
""fullscreenenter"",""1"",""3700""
","
",,null,run_exp/static/audio/clip_5_travel.m4a,null,"<p>Every time you dig up gems, there are less gems on the planet, so the more you dig on a planet the fewer gems you’ll get with each dig.</p><p>When gems are running low, you may want to travel to a new planet. </p> <p>  Planets are very far apart in this galaxy, so it will take some time to travel between them. </p> <br><p>There are lots and lots of planets for you to visit, so you won’t be able to return to any planets you’ve seen before. </p><br><p>To leave this planet and travel to a new one, press the letter <strong>‘L’</strong> on your keyboard. Try pressing it now! </p><p><img src='run_exp/static/images/task_images/rocket-01.jpg'  height='600' width='auto'></p>",,,,,,,,,,,,,,,,,,,,,,,
instruc_travel_try,13,101770,0.0-7.0-4.0,"""event"",""trial"",""time""
""fullscreenenter"",""1"",""3700""
","
","
","""event"",""trial"",""time""
""fullscreenenter"",""1"",""3700""
","
",,2004.7,"<p>Every time you dig up gems, there are less gems on the planet, so the more you dig on a planet the fewer gems you’ll get with each dig.</p><p>When gems are running low, you may want to travel to a new planet. </p> <p>  Planets are very far apart in this galaxy, so it will take some time to travel between them. </p> <br><p>There are lots and lots of planets for you to visit, so you won’t be able to return to any planets you’ve seen before. </p><br><p>To leave this planet and travel to a new one, press the letter <strong>‘L’</strong> on your keyboard. Try pressing it now! </p><p><img src='run_exp/static/images/task_images/rocket-01.jpg'  height='600' width='auto'></p>",76,"<p>Every time you dig up gems, there are less gems on the planet, so the more you dig on a planet the fewer gems you’ll get with each dig.</p><p>When gems are running low, you may want to travel to a new planet. </p> <p>  Planets are very far apart in this galaxy, so it will take some time to travel between them. </p> <br><p>There are lots and lots of planets for you to visit, so you won’t be able to return to any planets you’ve seen before. </p><br><p>To leave this planet and travel to a new one, press the letter <strong>‘L’</strong> on your keyboard. Try pressing it now! </p><p><img src='run_exp/static/images/task_images/rocket-01.jpg'  height='600' width='auto'></p>",,,,,,,,,,,,,,,,,,,,,,,
travel_prac,14,111778,0.0-7.0-5.0,"""event"",""trial"",""time""
""fullscreenenter"",""1"",""3700""
","
","
","""event"",""trial"",""time""
""fullscreenenter"",""1"",""3700""
","
",,,,,,,,,,,,"[{""stimulus"":""run_exp/static/images/task_images/rocket-01.jpg"",""time"":0.6999998092651367},{""stimulus"":""run_exp/static/images/task_images/rocket-02.jpg"",""time"":1123.2999999523163},{""stimulus"":""run_exp/static/images/task_images/rocket-03.jpg"",""time"":2232.2999999523163},{""stimulus"":""run_exp/static/images/task_images/rocket-04.jpg"",""time"":3344.699999809265},{""stimulus"":""run_exp/static/images/task_images/rocket-05.jpg"",""time"":4452.5},{""stimulus"":""run_exp/static/images/task_images/rocket-06.jpg"",""time"":5563.5},{""stimulus"":""run_exp/static/images/task_images/rocket-07.jpg"",""time"":6672.5},{""stimulus"":""run_exp/static/images/task_images/rocket-08.jpg"",""time"":7783.099999904633},{""stimulus"":""run_exp/static/images/task_images/rocket-09.jpg"",""time"":8892.299999952316}]",[],0,,,,,,,,,,,,,,
instruc_alien_greet,15,138988,0.0-7.0-6.0,"""event"",""trial"",""time""
""fullscreenenter"",""1"",""3700""
","
","
","""event"",""trial"",""time""
""fullscreenenter"",""1"",""3700""
","
",,null,run_exp/static/audio/clip_6_alien.m4a,null,"<p>When you arrive at a new planet, the alien who owns the treasure mine on that planet will greet you!</p><p>The better an alien takes care of their mine the easier it is to dig for gems. Some aliens take better care of their mine than others. So, you won’t get exactly the same amount of gems on each planet.</p><p>What the alien looks like does not tell you anything about how many gems there are on the planet.</p><br><p><img src=""run_exp/static/images/task_images/aliens/instructions_aliens/planet/alien_planet-1.jpg""  height=""600"" width=""auto""></p>",,,,,,,,,,,,,,,,,,,,,,,
instruc_alien_greet,16,143907,0.0-7.0-7.0,"""event"",""trial"",""time""
""fullscreenenter"",""1"",""3700""
","
","
","""event"",""trial"",""time""
""fullscreenenter"",""1"",""3700""
","
",,4913.6,"<p>When you arrive at a new planet, the alien who owns the treasure mine on that planet will greet you!</p><p>The better an alien takes care of their mine the easier it is to dig for gems. Some aliens take better care of their mine than others. So, you won’t get exactly the same amount of gems on each planet.</p><p>What the alien looks like does not tell you anything about how many gems there are on the planet.</p><br><p><img src=""run_exp/static/images/task_images/aliens/instructions_aliens/planet/alien_planet-1.jpg""  height=""600"" width=""auto""></p>",,,,,,,1,,,,,,,,,,,,,,,,,,
html-keyboard-response,17,145050,0.0-7.0-8.0,"""event"",""trial"",""time""
""fullscreenenter"",""1"",""3700""
","
","
","""event"",""trial"",""time""
""fullscreenenter"",""1"",""3700""
","
",,1139.6,"<p>When you arrive at a new planet, the alien who owns the treasure mine on that planet will greet you!</p><p>The better an alien takes care of their mine the easier it is to dig for gems. Some aliens take better care of their mine than others. So, you won’t get exactly the same amount of gems on each planet.</p><p>What the alien looks like does not tell you anything about how many gems there are on the planet.</p><br><p><img src=""run_exp/static/images/task_images/aliens/instructions_aliens/planet/alien_planet-1.jpg""  height=""600"" width=""auto""></p><button class=""jspsych-html-btn-unchosen""><img src=""run_exp/static/images/task_images/planet-01.jpg"" height=""50""></button><button class=""jspsych-html-btn-chosen""><img src=""run_exp/static/images/task_images/planet-02.jpg"" height=""50""></button><p><b>[press the space bar to lock in your answer]<b><br></p>",32,,,,,,,,,,,,,,,,,,,,,,,,
time_out,18,156167,0.0-8.0-0.0,"""event"",""trial"",""time""
""fullscreenenter"",""1"",""3700""
","
","
","""event"",""trial"",""time""
""fullscreenenter"",""1"",""3700""
","
",,null,run_exp/static/audio/clip_7_timeout.m4a,null,"<p>If you don't make your choice fast enough, you’ll have to wait a few seconds before you can make another one.</p><p>You can’t dig for more gems or travel to new planets. You just have to sit and wait.</p><br><p><img src='run_exp/static/images/task_images/time_out.jpg'  height='600' width='auto'></p>",,,,,,,,,,,,,,,,,,,,,,,
time_out,19,161280,0.0-8.0-1.0,"""event"",""trial"",""time""
""fullscreenenter"",""1"",""3700""
","
","
","""event"",""trial"",""time""
""fullscreenenter"",""1"",""3700""
","
",,5107.6,"<p>If you don't make your choice fast enough, you’ll have to wait a few seconds before you can make another one.</p><p>You can’t dig for more gems or travel to new planets. You just have to sit and wait.</p><br><p><img src='run_exp/static/images/task_images/time_out.jpg'  height='600' width='auto'></p>",,,,,,,0,,,,,,,,,,,,,,,,,,
html-keyboard-response,20,161942,0.0-8.0-2.0,"""event"",""trial"",""time""
""fullscreenenter"",""1"",""3700""
","
","
","""event"",""trial"",""time""
""fullscreenenter"",""1"",""3700""
","
",,658.4000001,"<p>If you don't make your choice fast enough, you’ll have to wait a few seconds before you can make another one.</p><p>You can’t dig for more gems or travel to new planets. You just have to sit and wait.</p><br><p><img src='run_exp/static/images/task_images/time_out.jpg'  height='600' width='auto'></p><button class=""jspsych-html-btn-chosen""><img src=""run_exp/static/images/task_images/planet-01.jpg"" height=""50""></button><button class=""jspsych-html-btn-unchosen""><img src=""run_exp/static/images/task_images/planet-02.jpg"" height=""50""></button><p><b>[press the space bar to lock in your answer]<b><br></p>",32,,,,,,,,,,,,,,,,,,,,,,,,
instruc_alien_greet,21,189207,0.0-9.0-0.0,"""event"",""trial"",""time""
""fullscreenenter"",""1"",""3700""
","
","
","""event"",""trial"",""time""
""fullscreenenter"",""1"",""3700""
","
",,null,run_exp/static/audio/clip_6_alien.m4a,null,"<p>When you arrive at a new planet, the alien who owns the treasure mine on that planet will greet you!</p><p>The better an alien takes care of their mine the easier it is to dig for gems. Some aliens take better care of their mine than others. So, you won’t get exactly the same amount of gems on each planet.</p><p>What the alien looks like does not tell you anything about how many gems there are on the planet.</p><br><p><img src=""run_exp/static/images/task_images/aliens/instructions_aliens/planet/alien_planet-1.jpg""  height=""600"" width=""auto""></p>",,,,,,,,,,,,,,,,,,,,,,,
instruc_alien_greet,22,197507,0.0-9.0-1.0,"""event"",""trial"",""time""
""fullscreenenter"",""1"",""3700""
","
","
","""event"",""trial"",""time""
""fullscreenenter"",""1"",""3700""
","
",,8294.1,"<p>When you arrive at a new planet, the alien who owns the treasure mine on that planet will greet you!</p><p>The better an alien takes care of their mine the easier it is to dig for gems. Some aliens take better care of their mine than others. So, you won’t get exactly the same amount of gems on each planet.</p><p>What the alien looks like does not tell you anything about how many gems there are on the planet.</p><br><p><img src=""run_exp/static/images/task_images/aliens/instructions_aliens/planet/alien_planet-1.jpg""  height=""600"" width=""auto""></p>",,,,,,,1,,,,,,,,,,,,,,,,,,
html-keyboard-response,23,198003,0.0-9.0-2.0,"""event"",""trial"",""time""
""fullscreenenter"",""1"",""3700""
","
","
","""event"",""trial"",""time""
""fullscreenenter"",""1"",""3700""
","
",,491.8999999,"<p>When you arrive at a new planet, the alien who owns the treasure mine on that planet will greet you!</p><p>The better an alien takes care of their mine the easier it is to dig for gems. Some aliens take better care of their mine than others. So, you won’t get exactly the same amount of gems on each planet.</p><p>What the alien looks like does not tell you anything about how many gems there are on the planet.</p><br><p><img src=""run_exp/static/images/task_images/aliens/instructions_aliens/planet/alien_planet-1.jpg""  height=""600"" width=""auto""></p><button class=""jspsych-html-btn-unchosen""><img src=""run_exp/static/images/task_images/planet-01.jpg"" height=""50""></button><button class=""jspsych-html-btn-chosen""><img src=""run_exp/static/images/task_images/planet-02.jpg"" height=""50""></button><p><b>[press the space bar to lock in your answer]<b><br></p>",32,,,,,,,,,,,,,,,,,,,,,,,,
time_out,24,209127,0.0-10.0-0.0,"""event"",""trial"",""time""
""fullscreenenter"",""1"",""3700""
","
","
","""event"",""trial"",""time""
""fullscreenenter"",""1"",""3700""
","
",,null,run_exp/static/audio/clip_7_timeout.m4a,null,"<p>If you don't make your choice fast enough, you’ll have to wait a few seconds before you can make another one.</p><p>You can’t dig for more gems or travel to new planets. You just have to sit and wait.</p><br><p><img src='run_exp/static/images/task_images/time_out.jpg'  height='600' width='auto'></p>",,,,,,,,,,,,,,,,,,,,,,,
time_out,25,210506,0.0-10.0-1.0,"""event"",""trial"",""time""
""fullscreenenter"",""1"",""3700""
","
","
","""event"",""trial"",""time""
""fullscreenenter"",""1"",""3700""
","
",,1373.7,"<p>If you don't make your choice fast enough, you’ll have to wait a few seconds before you can make another one.</p><p>You can’t dig for more gems or travel to new planets. You just have to sit and wait.</p><br><p><img src='run_exp/static/images/task_images/time_out.jpg'  height='600' width='auto'></p>",,,,,,,1,,,,,,,,,,,,,,,,,,
html-keyboard-response,26,215439,0.0-10.0-2.0,"""event"",""trial"",""time""
""fullscreenenter"",""1"",""3700""
","
","
","""event"",""trial"",""time""
""fullscreenenter"",""1"",""3700""
","
",,4928.8,"<p>If you don't make your choice fast enough, you’ll have to wait a few seconds before you can make another one.</p><p>You can’t dig for more gems or travel to new planets. You just have to sit and wait.</p><br><p><img src='run_exp/static/images/task_images/time_out.jpg'  height='600' width='auto'></p><button class=""jspsych-html-btn-unchosen""><img src=""run_exp/static/images/task_images/planet-01.jpg"" height=""50""></button><button class=""jspsych-html-btn-chosen""><img src=""run_exp/static/images/task_images/planet-02.jpg"" height=""50""></button><p><b>[press the space bar to lock in your answer]<b><br></p>",32,,,,,,,,,,,,,,,,,,,,,,,,
instruc_break,27,231148,0.0-11.0-0.0,"""event"",""trial"",""time""
""fullscreenenter"",""1"",""3700""
","
","
","""event"",""trial"",""time""
""fullscreenenter"",""1"",""3700""
","
",,null,run_exp/static/audio/clip_8_break.m4a,null,"<p> After digging and traveling for a while, you’ll be able to take a break at home base. </p><p>The game will last 20 minutes no matter what.</p><p>You will visit home base every 5 minutes, so, you will visit home base three times during the game.</p><br><p><img src='run_exp/static/images/task_images/home_base.jpg' height='600' width='auto'></p>",,,,,,,,,,,,,,,,,,,,,,,
instruc_break,28,236684,0.0-11.0-1.0,"""event"",""trial"",""time""
""fullscreenenter"",""1"",""3700""
","
","
","""event"",""trial"",""time""
""fullscreenenter"",""1"",""3700""
","
",,5531.6,"<p> After digging and traveling for a while, you’ll be able to take a break at home base. </p><p>The game will last 20 minutes no matter what.</p><p>You will visit home base every 5 minutes, so, you will visit home base three times during the game.</p><br><p><img src='run_exp/static/images/task_images/home_base.jpg' height='600' width='auto'></p>",,,,,,,1,,,,,,,,,,,,,,,,,,
html-keyboard-response,29,239350,0.0-11.0-2.0,"""event"",""trial"",""time""
""fullscreenenter"",""1"",""3700""
","
","
","""event"",""trial"",""time""
""fullscreenenter"",""1"",""3700""
","
",,2663.1,"<p> After digging and traveling for a while, you’ll be able to take a break at home base. </p><p>The game will last 20 minutes no matter what.</p><p>You will visit home base every 5 minutes, so, you will visit home base three times during the game.</p><br><p><img src='run_exp/static/images/task_images/home_base.jpg' height='600' width='auto'></p><button class=""jspsych-html-btn-unchosen""><img src=""run_exp/static/images/task_images/planet-01.jpg"" height=""50""></button><button class=""jspsych-html-btn-chosen""><img src=""run_exp/static/images/task_images/planet-02.jpg"" height=""50""></button><p><b>[press the space bar to lock in your answer]<b><br></p>",32,,,,,,,,,,,,,,,,,,,,,,,,
instruc_prac_game,30,249507,0.0-12.0-0.0,"""event"",""trial"",""time""
""fullscreenenter"",""1"",""3700""
","
","
","""event"",""trial"",""time""
""fullscreenenter"",""1"",""3700""
","
",,null,run_exp/static/audio/clip_9_practice.m4a,null,"<p> Are you ready to play a practice game? </p> <p>In this practice game, you'll be digging up barrels of gems. But, in the real game, you'll be digging up the gems themselves. </p>",,,,,,,,,,,,,,,,,,,,,,,
html-button-response,31,251653,0.0-12.0-1.0,"""event"",""trial"",""time""
""fullscreenenter"",""1"",""3700""
","
","
","""event"",""trial"",""time""
""fullscreenenter"",""1"",""3700""
","
",,2142.6,"<p> Are you ready to play a practice game? </p> <p>In this practice game, you'll be digging up barrels of gems. But, in the real game, you'll be digging up the gems themselves. </p>",,,,,,,0,,,,,,,,,,,,,,,,,,
alien_welcome_prac,32,256660,0.0-13.0-0.0,"""event"",""trial"",""time""
""fullscreenenter"",""1"",""3700""
","
","
","""event"",""trial"",""time""
""fullscreenenter"",""1"",""3700""
","
",,null,run_exp/static/images/task_images/aliens/practice_aliens/planet/alien_planet-5.jpg,null,,,,,,,,,,,,,,,,,,,,,,,,
land_prac,33,257168,0.0-13.0-1.0,"""event"",""trial"",""time""
""fullscreenenter"",""1"",""3700""
","
","
","""event"",""trial"",""time""
""fullscreenenter"",""1"",""3700""
","
",,null,run_exp/static/images/task_images/land.jpg,null,,,,,,,102,,,0,,,,,,,,,,,,,,
dig_prac,34,259176,0.0-13.0-2.0,"""event"",""trial"",""time""
""fullscreenenter"",""1"",""3700""
","
","
","""event"",""trial"",""time""
""fullscreenenter"",""1"",""3700""
","
",,,,,,,,,,,,"[{""stimulus"":""run_exp/static/images/task_images/dig.jpg"",""time"":0.40000009536743164},{""stimulus"":""run_exp/static/images/task_images/land.jpg"",""time"":669},{""stimulus"":""run_exp/static/images/task_images/dig.jpg"",""time"":1345.2000000476837}]",[],,,,,,,,,,,,,,,
harvest_prac,35,260186,0.0-13.0-3.0,"""event"",""trial"",""time""
""fullscreenenter"",""1"",""3700""
","
","
","""event"",""trial"",""time""
""fullscreenenter"",""1"",""3700""
","
",,null,run_exp/static/images/task_images/barrel_text.jpg,null,,,,,,,,,,,,,,,,,,,,,,,,
decision_prac,36,261951,0.0-13.0-4.0,"""event"",""trial"",""time""
""fullscreenenter"",""1"",""3700""
","
","
","""event"",""trial"",""time""
""fullscreenenter"",""1"",""3700""
","
",,1763.2,run_exp/static/images/task_images/land.jpg,65,,,,,,,,,,,1,,,,,,,,,,,,,
dig_prac,37,263977,0.0-14.0-0.0,"""event"",""trial"",""time""
""fullscreenenter"",""1"",""3700""
","
","
","""event"",""trial"",""time""
""fullscreenenter"",""1"",""3700""
","
",,,,,,,,,,,,"[{""stimulus"":""run_exp/static/images/task_images/dig.jpg"",""time"":0.6999998092651367},{""stimulus"":""run_exp/static/images/task_images/land.jpg"",""time"":675},{""stimulus"":""run_exp/static/images/task_images/dig.jpg"",""time"":1344.1999998092651}]",[],,,,,,,,,,,,,,,
harvest_prac,38,264986,0.0-14.0-1.0,"""event"",""trial"",""time""
""fullscreenenter"",""1"",""3700""
","
","
","""event"",""trial"",""time""
""fullscreenenter"",""1"",""3700""
","
",,null,run_exp/static/images/task_images/barrel_text.jpg,null,,,,,,,,,,,,,,,,,,,,,,,,
decision_prac,39,266117,0.0-14.0-2.0,"""event"",""trial"",""time""
""fullscreenenter"",""1"",""3700""
","
","
","""event"",""trial"",""time""
""fullscreenenter"",""1"",""3700""
","
",,1128,run_exp/static/images/task_images/land.jpg,65,,,,,,,,,,,2,,,,,,,,,,,,,
dig_prac,40,268137,0.0-15.0-0.0,"""event"",""trial"",""time""
""fullscreenenter"",""1"",""3700""
","
","
","""event"",""trial"",""time""
""fullscreenenter"",""1"",""3700""
","
",,,,,,,,,,,,"[{""stimulus"":""run_exp/static/images/task_images/dig.jpg"",""time"":0.20000004768371582},{""stimulus"":""run_exp/static/images/task_images/land.jpg"",""time"":678.0999999046326},{""stimulus"":""run_exp/static/images/task_images/dig.jpg"",""time"":1343.2999999523163}]",[],,,,,,,,,,,,,,,
harvest_prac,41,269146,0.0-15.0-1.0,"""event"",""trial"",""time""
""fullscreenenter"",""1"",""3700""
","
","
","""event"",""trial"",""time""
""fullscreenenter"",""1"",""3700""
","
",,null,run_exp/static/images/task_images/barrel_text.jpg,null,,,,,,,,,,,,,,,,,,,,,,,,
decision_prac,42,269822,0.0-15.0-2.0,"""event"",""trial"",""time""
""fullscreenenter"",""1"",""3700""
","
","
","""event"",""trial"",""time""
""fullscreenenter"",""1"",""3700""
","
",,672.6999998,run_exp/static/images/task_images/land.jpg,65,,,,,,,,,,,3,,,,,,,,,,,,,
dig_prac,43,271836,0.0-16.0-0.0,"""event"",""trial"",""time""
""fullscreenenter"",""1"",""3700""
","
","
","""event"",""trial"",""time""
""fullscreenenter"",""1"",""3700""
","
",,,,,,,,,,,,"[{""stimulus"":""run_exp/static/images/task_images/dig.jpg"",""time"":0.5999999046325684},{""stimulus"":""run_exp/static/images/task_images/land.jpg"",""time"":674.5999999046326},{""stimulus"":""run_exp/static/images/task_images/dig.jpg"",""time"":1344}]",[],,,,,,,,,,,,,,,
harvest_prac,44,272845,0.0-16.0-1.0,"""event"",""trial"",""time""
""fullscreenenter"",""1"",""3700""
","
","
","""event"",""trial"",""time""
""fullscreenenter"",""1"",""3700""
","
",,null,run_exp/static/images/task_images/barrel_text.jpg,null,,,,,,,,,,,,,,,,,,,,,,,,
decision_prac,45,273471,0.0-16.0-2.0,"""event"",""trial"",""time""
""fullscreenenter"",""1"",""3700""
","
","
","""event"",""trial"",""time""
""fullscreenenter"",""1"",""3700""
","
",,624.2,run_exp/static/images/task_images/land.jpg,65,,,,,,,,,,,4,,,,,,,,,,,,,
dig_prac,46,275487,0.0-17.0-0.0,"""event"",""trial"",""time""
""fullscreenenter"",""1"",""3700""
","
","
","""event"",""trial"",""time""
""fullscreenenter"",""1"",""3700""
","
",,,,,,,,,,,,"[{""stimulus"":""run_exp/static/images/task_images/dig.jpg"",""time"":0.7000000476837158},{""stimulus"":""run_exp/static/images/task_images/land.jpg"",""time"":675.3999998569489},{""stimulus"":""run_exp/static/images/task_images/dig.jpg"",""time"":1344}]",[],,,,,,,,,,,,,,,
harvest_prac,47,276492,0.0-17.0-1.0,"""event"",""trial"",""time""
""fullscreenenter"",""1"",""3700""
","
","
","""event"",""trial"",""time""
""fullscreenenter"",""1"",""3700""
","
",,null,run_exp/static/images/task_images/barrel_text.jpg,null,,,,,,,,,,,,,,,,,,,,,,,,
decision_prac,48,276813,0.0-17.0-2.0,"""event"",""trial"",""time""
""fullscreenenter"",""1"",""3700""
","
","
","""event"",""trial"",""time""
""fullscreenenter"",""1"",""3700""
","
",,317.9000001,run_exp/static/images/task_images/land.jpg,65,,,,,,,,,,,,1,,,,,,,,,,,,
quiz_instruc,49,279552,0.0-18.0-0.0,"""event"",""trial"",""time""
""fullscreenenter"",""1"",""3700""
","
","
","""event"",""trial"",""time""
""fullscreenenter"",""1"",""3700""
","
",,2726.3,run_exp/static/audio/clip_10_quiz.m4a,,,,,,,0,,,,,,,,,,,,,,,,,,
instruc_repeat,50,322328,0.0-18.0-1.0,"""event"",""trial"",""time""
""fullscreenenter"",""1"",""3700""
","
","
","""event"",""trial"",""time""
""fullscreenenter"",""1"",""3700""
","
",,null,"<p> Are you ready to play a practice game? </p> <p>In this practice game, you'll be digging up barrels of gems. But, in the real game, you'll be digging up the gems themselves. </p>",null,"<p>In this game, your goal is to collect as many gems as you can. That’s how you will win bonus money. </p> <p>The entire game will last 20 minutes no matter how many gems you collect or how many planets you visit. </p><p>To stay on a planet and dig again, press the letter A on your keyboard. To leave for a new planet, press the letter L.</p><p>The more you dig on a planet, the fewer gems you’ll get with each dig which is why you might consider leaving for a new planet. </p><p>When you arrive at a new planet, you’ll be greeted by an alien. What the alien looks like does not tell you anything about how much treasure is on the planet. </p>",,,,,,,,,,,,,,,,,,,,,,,
instruc_repeat_continue,51,323193,0.0-18.0-2.0,"""event"",""trial"",""time""
""fullscreenenter"",""1"",""3700""
","
","
","""event"",""trial"",""time""
""fullscreenenter"",""1"",""3700""
","
",,861.4000001,"<p> Are you ready to play a practice game? </p> <p>In this practice game, you'll be digging up barrels of gems. But, in the real game, you'll be digging up the gems themselves. </p>",,,,,,,0,,,,,,,,,,,,,,,,,,
quiz_q_1_ask,52,325946,0.0-18.0-3.0,"""event"",""trial"",""time""
""fullscreenenter"",""1"",""3700""
","
","
","""event"",""trial"",""time""
""fullscreenenter"",""1"",""3700""
","
",,2748.5,run_exp/static/audio/clip_11_q1_ask.m4a,,,,,,,2,,,,,,,,,,,,,,,,,,
quiz_q_1_fb_correct,53,329827,0.0-19.0-0.0,"""event"",""trial"",""time""
""fullscreenenter"",""1"",""3700""
","
","
","""event"",""trial"",""time""
""fullscreenenter"",""1"",""3700""
","
",,null,run_exp/static/audio/clip_12_q1_correct.m4a,null,<p>That’s correct. You win extra money by collecting more gems.</p>,,,,,,,,,,,,,,,,,,,,,,,
quiz_q_2_ask,54,331535,0.0-19.0-1.0,"""event"",""trial"",""time""
""fullscreenenter"",""1"",""3700""
","
","
","""event"",""trial"",""time""
""fullscreenenter"",""1"",""3700""
","
",,1705.3,run_exp/static/audio/clip_14_q2_ask.m4a,,,,,,,1,,,,,,,,,,,,,,,,,,
quiz_q_2_fb_correct,55,335587,0.0-20.0-0.0,"""event"",""trial"",""time""
""fullscreenenter"",""1"",""3700""
","
","
","""event"",""trial"",""time""
""fullscreenenter"",""1"",""3700""
","
",,null,run_exp/static/audio/clip_15_q2_correct.m4a,null,<p>That’s correct. The experiment is 20 minutes no matter what.</p>,,,,,,,,,,,,,,,,,,,,,,,
quiz_q_3_ask,56,337301,0.0-20.0-1.0,"""event"",""trial"",""time""
""fullscreenenter"",""1"",""3700""
","
","
","""event"",""trial"",""time""
""fullscreenenter"",""1"",""3700""
","
",,1711.7,run_exp/static/audio/clip_17_q3_ask.m4a,,,,,,,1,,,,,,,,,,,,,,,,,,
quiz_q_3_fb_correct,57,341328,0.0-21.0-0.0,"""event"",""trial"",""time""
""fullscreenenter"",""1"",""3700""
","
","
","""event"",""trial"",""time""
""fullscreenenter"",""1"",""3700""
","
",,null,run_exp/static/audio/clip_18_q3_correct.m4a,null,<p> That’s correct. You press the letter L to travel to a new planet.</p>,,,,,,,,,,,,,,,,,,,,,,,
quiz_q_4_ask,58,344501,0.0-21.0-1.0,"""event"",""trial"",""time""
""fullscreenenter"",""1"",""3700""
","
","
","""event"",""trial"",""time""
""fullscreenenter"",""1"",""3700""
","
",,3169.7,run_exp/static/audio/clip_20_q4_ask.m4a,,,,,,,0,,,,,,,,,,,,,,,,,,
quiz_q_4_fb_correct,59,349867,0.0-22.0-0.0,"""event"",""trial"",""time""
""fullscreenenter"",""1"",""3700""
","
","
","""event"",""trial"",""time""
""fullscreenenter"",""1"",""3700""
","
",,null,run_exp/static/audio/clip_21_q4_correct.m4a,null,<p> That’s correct. The more you dig on a planet the fewer gems you’ll get with each dig. </p>,,,,,,,,,,,,,,,,,,,,,,,
quiz_q_5_ask,60,351932,0.0-22.0-1.0,"""event"",""trial"",""time""
""fullscreenenter"",""1"",""3700""
","
","
","""event"",""trial"",""time""
""fullscreenenter"",""1"",""3700""
","
",,2060.5,run_exp/static/audio/clip_23_q5_ask.m4a,,,,,,,1,,,,,,,,,,,,,,,,,,
quiz_q_5_fb_correct,61,356987,0.0-23.0-0.0,"""event"",""trial"",""time""
""fullscreenenter"",""1"",""3700""
","
","
","""event"",""trial"",""time""
""fullscreenenter"",""1"",""3700""
","
",,null,run_exp/static/audio/clip_24_q5_correct.m4a,null,<p> That’s correct. The alien tells you nothing about how much treasure is on the planet.</p>,,,,,,,,,,,,,,,,,,,,,,,
quiz_correct,62,360486,0.0-24.0-0.0,"""event"",""trial"",""time""
""fullscreenenter"",""1"",""3700""
","
","
","""event"",""trial"",""time""
""fullscreenenter"",""1"",""3700""
","
",,null,run_exp/static/audio/clip_26_correct_quiz.m4a,null,,,,,,,,,,,,,,,,,,,,,,,,
quiz_correct_continue,63,361868,0.0-24.0-1.0,"""event"",""trial"",""time""
""fullscreenenter"",""1"",""3700""
","
","
","""event"",""trial"",""time""
""fullscreenenter"",""1"",""3700""
","
",,1380,<p>Good job! You're now ready to move on to the real game!</p>,,,,,,,0,,,,,,,,,,,,,,,,,,
audio-keyboard-response,64,372026,0.0-24.0-2.0,"""event"",""trial"",""time""
""fullscreenenter"",""1"",""3700""
","
","
","""event"",""trial"",""time""
""fullscreenenter"",""1"",""3700""
","
",,null,run_exp/static/audio/clip_28_real_game.m4a,null,,,,,,,,,,,,,,,,,,,,,,,,
instruc_begin_exp_contine,65,373652,0.0-24.0-3.0,"""event"",""trial"",""time""
""fullscreenenter"",""1"",""3700""
","
","
","""event"",""trial"",""time""
""fullscreenenter"",""1"",""3700""
","
",,1622.4,"<p>Now that you know how  to dig for space treasure and travel to new planets,you can start exploring! </p><p>Do you want to go over the instructions again or get started with the real game?</p>",,,,,,,1,,,,,,1,,,,,,,,,,,,
alien_welcome,66,378672,0.0-25.0-0.0,"""event"",""trial"",""time""
""fullscreenenter"",""1"",""3700""
","
","
","""event"",""trial"",""time""
""fullscreenenter"",""1"",""3700""
","
",,null,run_exp/static/images/task_images/aliens/old_aliens/planet/alien_planet-11.jpg,null,,,,,,,,,,,,,11,"11,73,44,42,64,7,5,57,20,60,2,46,10,23,16,49,1,65,69,78,35,14,6,72,8,55,39,29,47,22,75,71,31,9,41,18,40",,,,,,,,,,
land,67,379186,0.0-25.0-1.0,"""event"",""trial"",""time""
""fullscreenenter"",""1"",""3700""
","
","
","""event"",""trial"",""time""
""fullscreenenter"",""1"",""3700""
","
",,null,run_exp/static/images/task_images/land.jpg,null,,,,,,,98,,,1,,,,,,,,,,,,,,
dig,68,381196,0.0-25.0-2.0,"""event"",""trial"",""time""
""fullscreenenter"",""1"",""3700""
","
","
","""event"",""trial"",""time""
""fullscreenenter"",""1"",""3700""
","
",,,,,,,,,,,,"[{""stimulus"":""run_exp/static/images/task_images/dig.jpg"",""time"":0.7000000476837158},{""stimulus"":""run_exp/static/images/task_images/land.jpg"",""time"":676},{""stimulus"":""run_exp/static/images/task_images/dig.jpg"",""time"":1345.9000000953674}]",[],1,,,,,,,,,,,,,,
harvest,69,382199,0.0-25.0-3.0,"""event"",""trial"",""time""
""fullscreenenter"",""1"",""3700""
","
","
","""event"",""trial"",""time""
""fullscreenenter"",""1"",""3700""
","
",,null,run_exp/static/images/task_images/gems/98.jpg,null,,,,,,,15,,,1,,,,,98,0.156676081,0.153061224,,,,,,,
decision,70,382926,0.0-25.0-4.0,"""event"",""trial"",""time""
""fullscreenenter"",""1"",""3700""
","
","
","""event"",""trial"",""time""
""fullscreenenter"",""1"",""3700""
","
",,725.5999999,run_exp/static/images/task_images/land.jpg,65,,,,,,,15,,,1,,,,,,,,9270,1,0,FALSE,,,
dig,71,385215,0.0-26.0-0.0,"""event"",""trial"",""time""
""fullscreenenter"",""1"",""3700""
","
","
","""event"",""trial"",""time""
""fullscreenenter"",""1"",""3700""
","
",,,,,,,,,,,,"[{""stimulus"":""run_exp/static/images/task_images/dig.jpg"",""time"":0.7999999523162842},{""stimulus"":""run_exp/static/images/task_images/land.jpg"",""time"":763.5999999046326},{""stimulus"":""run_exp/static/images/task_images/dig.jpg"",""time"":1529}]",[],1,,,,,,,,,,,,,,
harvest,72,386218,0.0-26.0-1.0,"""event"",""trial"",""time""
""fullscreenenter"",""1"",""3700""
","
","
","""event"",""trial"",""time""
""fullscreenenter"",""1"",""3700""
","
",,null,run_exp/static/images/task_images/gems/15.jpg,null,,,,,,,2,,,1,,,,,15,0.150902571,0.133333333,,,,,,,
decision,73,386872,0.0-26.0-2.0,"""event"",""trial"",""time""
""fullscreenenter"",""1"",""3700""
","
","
","""event"",""trial"",""time""
""fullscreenenter"",""1"",""3700""
","
",,652.1000001,run_exp/static/images/task_images/land.jpg,65,,,,,,,2,,,1,,,,,,,,13214,1,1,FALSE,,,
dig,74,389232,0.0-27.0-0.0,"""event"",""trial"",""time""
""fullscreenenter"",""1"",""3700""
","
","
","""event"",""trial"",""time""
""fullscreenenter"",""1"",""3700""
","
",,,,,,,,,,,,"[{""stimulus"":""run_exp/static/images/task_images/dig.jpg"",""time"":0.5},{""stimulus"":""run_exp/static/images/task_images/land.jpg"",""time"":793.7000000476837},{""stimulus"":""run_exp/static/images/task_images/dig.jpg"",""time"":1573.2000000476837}]",[],1,,,,,,,,,,,,,,
harvest,75,390234,0.0-27.0-1.0,"""event"",""trial"",""time""
""fullscreenenter"",""1"",""3700""
","
","
","""event"",""trial"",""time""
""fullscreenenter"",""1"",""3700""
","
",,null,run_exp/static/images/task_images/gems/2.jpg,null,,,,,,,0,,,1,,,,,2,0.134956076,0,,,,,,,
decision,76,390501,0.0-27.0-2.0,"""event"",""trial"",""time""
""fullscreenenter"",""1"",""3700""
","
","
","""event"",""trial"",""time""
""fullscreenenter"",""1"",""3700""
","
",,265.5999999,run_exp/static/images/task_images/land.jpg,65,,,,,,,0,,,1,,,,,,,,16844,1,2,FALSE,,,
dig,77,393244,0.0-28.0-0.0,"""event"",""trial"",""time""
""fullscreenenter"",""1"",""3700""
","
","
","""event"",""trial"",""time""
""fullscreenenter"",""1"",""3700""
","
",,,,,,,,,,,,"[{""stimulus"":""run_exp/static/images/task_images/dig.jpg"",""time"":0.2999999523162842},{""stimulus"":""run_exp/static/images/task_images/land.jpg"",""time"":920.0999999046326},{""stimulus"":""run_exp/static/images/task_images/dig.jpg"",""time"":1831.2000000476837}]",[],1,,,,,,,,,,,,,,
harvest,78,394251,0.0-28.0-1.0,"""event"",""trial"",""time""
""fullscreenenter"",""1"",""3700""
","
","
","""event"",""trial"",""time""
""fullscreenenter"",""1"",""3700""
","
",,null,run_exp/static/images/task_images/gems/0.jpg,null,,,,,,,0,,,1,,,,,0,0.303563072,NaN,,,,,,,
decision,79,394720,0.0-28.0-2.0,"""event"",""trial"",""time""
""fullscreenenter"",""1"",""3700""
","
","
","""event"",""trial"",""time""
""fullscreenenter"",""1"",""3700""
","
",,465.8,run_exp/static/images/task_images/land.jpg,76,,,,,,,0,,,1,,,,,,,,21062,1,3,TRUE,,,
travel,80,404266,0.0-29.0-0.0,"""event"",""trial"",""time""
""fullscreenenter"",""1"",""3700""
","
","
","""event"",""trial"",""time""
""fullscreenenter"",""1"",""3700""
","
",,,,,,,,,,,,"[{""stimulus"":""run_exp/static/images/task_images/rocket-01.jpg"",""time"":0.09999990463256836},{""stimulus"":""run_exp/static/images/task_images/rocket-02.jpg"",""time"":1063.0999999046326},{""stimulus"":""run_exp/static/images/task_images/rocket-03.jpg"",""time"":2122.2999999523163},{""stimulus"":""run_exp/static/images/task_images/rocket-04.jpg"",""time"":3182.199999809265},{""stimulus"":""run_exp/static/images/task_images/rocket-05.jpg"",""time"":4241.099999904633},{""stimulus"":""run_exp/static/images/task_images/rocket-06.jpg"",""time"":5298.699999809265},{""stimulus"":""run_exp/static/images/task_images/rocket-07.jpg"",""time"":6362.799999952316},{""stimulus"":""run_exp/static/images/task_images/rocket-08.jpg"",""time"":7421.899999856949},{""stimulus"":""run_exp/static/images/task_images/rocket-09.jpg"",""time"":8482.299999952316}]",[],1,,,,,,,,,,,,,,
alien_welcome,81,409275,0.0-29.0-1.0,"""event"",""trial"",""time""
""fullscreenenter"",""1"",""3700""
","
","
","""event"",""trial"",""time""
""fullscreenenter"",""1"",""3700""
","
",,null,run_exp/static/images/task_images/aliens/old_aliens/planet/alien_planet-73.jpg,null,,,,,,,,,,,,,73,"11,73,44,42,64,7,5,57,20,60,2,46,10,23,16,49,1,65,69,78,35,14,6,72,8,55,39,29,47,22,75,71,31,9,41,18,40",,,,,,,,,,
land,82,409787,0.0-29.0-2.0,"""event"",""trial"",""time""
""fullscreenenter"",""1"",""3700""
","
","
","""event"",""trial"",""time""
""fullscreenenter"",""1"",""3700""
","
",,null,run_exp/static/images/task_images/land.jpg,null,,,,,,,104,,,2,,,,,,,,,,,,,,
dig,83,411807,0.0-29.0-3.0,"""event"",""trial"",""time""
""fullscreenenter"",""1"",""3700""
","
","
","""event"",""trial"",""time""
""fullscreenenter"",""1"",""3700""
","
",,,,,,,,,,,,"[{""stimulus"":""run_exp/static/images/task_images/dig.jpg"",""time"":0.7000000476837158},{""stimulus"":""run_exp/static/images/task_images/land.jpg"",""time"":670.3000001907349},{""stimulus"":""run_exp/static/images/task_images/dig.jpg"",""time"":1343.7000000476837}]",[],2,,,,,,,,,,,,,,
harvest,84,412823,0.0-29.0-4.0,"""event"",""trial"",""time""
""fullscreenenter"",""1"",""3700""
","
","
","""event"",""trial"",""time""
""fullscreenenter"",""1"",""3700""
","
",,null,run_exp/static/images/task_images/gems/104.jpg,null,,,,,,,29,,,2,,,,,104,0.280544548,0.278846154,,,,,,,
decision,85,414121,0.0-29.0-5.0,"""event"",""trial"",""time""
""fullscreenenter"",""1"",""3700""
","
","
","""event"",""trial"",""time""
""fullscreenenter"",""1"",""3700""
","
",,1295.8,run_exp/static/images/task_images/land.jpg,65,,,,,,,29,,,2,,,,,,,,40464,1,0,FALSE,,,
dig,86,415842,0.0-30.0-0.0,"""event"",""trial"",""time""
""fullscreenenter"",""1"",""3700""
","
","
","""event"",""trial"",""time""
""fullscreenenter"",""1"",""3700""
","
",,,,,,,,,,,,"[{""stimulus"":""run_exp/static/images/task_images/dig.jpg"",""time"":0.7000000476837158},{""stimulus"":""run_exp/static/images/task_images/land.jpg"",""time"":577.1000001430511},{""stimulus"":""run_exp/static/images/task_images/dig.jpg"",""time"":1139.3000001907349}]",[],2,,,,,,,,,,,,,,
harvest,87,417489,0.0-30.0-1.0,"""event"",""trial"",""time""
""fullscreenenter"",""1"",""3700""
","
","
","""event"",""trial"",""time""
""fullscreenenter"",""1"",""3700""
","
",,null,run_exp/static/images/task_images/gems/29.jpg,null,,,,,,,8,,,2,,,,,29,0.261685378,0.275862069,,,,,,,
decision,88,417702,0.0-30.0-2.0,"""event"",""trial"",""time""
""fullscreenenter"",""1"",""3700""
","
","
","""event"",""trial"",""time""
""fullscreenenter"",""1"",""3700""
","
",,210.7,run_exp/static/images/task_images/land.jpg,65,,,,,,,8,,,2,,,,,,,,44044,1,1,FALSE,,,
dig,89,420508,0.0-31.0-0.0,"""event"",""trial"",""time""
""fullscreenenter"",""1"",""3700""
","
","
","""event"",""trial"",""time""
""fullscreenenter"",""1"",""3700""
","
",,,,,,,,,,,,"[{""stimulus"":""run_exp/static/images/task_images/dig.jpg"",""time"":0.7000000476837158},{""stimulus"":""run_exp/static/images/task_images/land.jpg"",""time"":936.2000000476837},{""stimulus"":""run_exp/static/images/task_images/dig.jpg"",""time"":1865.8999998569489}]",[],2,,,,,,,,,,,,,,
harvest,90,421512,0.0-31.0-1.0,"""event"",""trial"",""time""
""fullscreenenter"",""1"",""3700""
","
","
","""event"",""trial"",""time""
""fullscreenenter"",""1"",""3700""
","
",,null,run_exp/static/images/task_images/gems/8.jpg,null,,,,,,,1,,,2,,,,,8,0.183160304,0.125,,,,,,,
decision,91,421994,0.0-31.0-2.0,"""event"",""trial"",""time""
""fullscreenenter"",""1"",""3700""
","
","
","""event"",""trial"",""time""
""fullscreenenter"",""1"",""3700""
","
",,480.5,run_exp/static/images/task_images/land.jpg,76,,,,,,,1,,,2,,,,,,,,48336,1,2,TRUE,,,
travel,92,431518,0.0-32.0-0.0,"""event"",""trial"",""time""
""fullscreenenter"",""1"",""3700""
","
","
","""event"",""trial"",""time""
""fullscreenenter"",""1"",""3700""
","
",,,,,,,,,,,,"[{""stimulus"":""run_exp/static/images/task_images/rocket-01.jpg"",""time"":0.20000004768371582},{""stimulus"":""run_exp/static/images/task_images/rocket-02.jpg"",""time"":1072.5},{""stimulus"":""run_exp/static/images/task_images/rocket-03.jpg"",""time"":2121},{""stimulus"":""run_exp/static/images/task_images/rocket-04.jpg"",""time"":3181.5},{""stimulus"":""run_exp/static/images/task_images/rocket-05.jpg"",""time"":4232},{""stimulus"":""run_exp/static/images/task_images/rocket-06.jpg"",""time"":5291.200000047684},{""stimulus"":""run_exp/static/images/task_images/rocket-07.jpg"",""time"":6351.700000047684},{""stimulus"":""run_exp/static/images/task_images/rocket-08.jpg"",""time"":7401.200000047684},{""stimulus"":""run_exp/static/images/task_images/rocket-09.jpg"",""time"":8472.5}]",[],2,,,,,,,,,,,,,,
alien_welcome,93,436528,0.0-32.0-1.0,"""event"",""trial"",""time""
""fullscreenenter"",""1"",""3700""
","
","
","""event"",""trial"",""time""
""fullscreenenter"",""1"",""3700""
","
",,null,run_exp/static/images/task_images/aliens/old_aliens/planet/alien_planet-44.jpg,null,,,,,,,,,,,,,44,"11,73,44,42,64,7,5,57,20,60,2,46,10,23,16,49,1,65,69,78,35,14,6,72,8,55,39,29,47,22,75,71,31,9,41,18,40",,,,,,,,,,
land,94,437039,0.0-32.0-2.0,"""event"",""trial"",""time""
""fullscreenenter"",""1"",""3700""
","
","
","""event"",""trial"",""time""
""fullscreenenter"",""1"",""3700""
","
",,null,run_exp/static/images/task_images/land.jpg,null,,,,,,,92,,,3,,,,,,,,,,,,,,
dig,95,439047,0.0-32.0-3.0,"""event"",""trial"",""time""
""fullscreenenter"",""1"",""3700""
","
","
","""event"",""trial"",""time""
""fullscreenenter"",""1"",""3700""
","
",,,,,,,,,,,,"[{""stimulus"":""run_exp/static/images/task_images/dig.jpg"",""time"":0.7000000476837158},{""stimulus"":""run_exp/static/images/task_images/land.jpg"",""time"":676},{""stimulus"":""run_exp/static/images/task_images/dig.jpg"",""time"":1346}]",[],3,,,,,,,,,,,,,,
harvest,96,440057,0.0-32.0-4.0,"""event"",""trial"",""time""
""fullscreenenter"",""1"",""3700""
","
","
","""event"",""trial"",""time""
""fullscreenenter"",""1"",""3700""
","
",,null,run_exp/static/images/task_images/gems/92.jpg,null,,,,,,,49,,,3,,,,,92,0.529553187,0.532608696,,,,,,,
decision,97,440243,0.0-32.0-5.0,"""event"",""trial"",""time""
""fullscreenenter"",""1"",""3700""
","
","
","""event"",""trial"",""time""
""fullscreenenter"",""1"",""3700""
","
",,184.6000001,run_exp/static/images/task_images/land.jpg,65,,,,,,,49,,,3,,,,,,,,66585,1,0,FALSE,,,
dig,98,443068,0.0-33.0-0.0,"""event"",""trial"",""time""
""fullscreenenter"",""1"",""3700""
","
","
","""event"",""trial"",""time""
""fullscreenenter"",""1"",""3700""
","
",,,,,,,,,,,,"[{""stimulus"":""run_exp/static/images/task_images/dig.jpg"",""time"":0.5},{""stimulus"":""run_exp/static/images/task_images/land.jpg"",""time"":946.6000001430511},{""stimulus"":""run_exp/static/images/task_images/dig.jpg"",""time"":1886.7999999523163}]",[],3,,,,,,,,,,,,,,
harvest,99,444077,0.0-33.0-1.0,"""event"",""trial"",""time""
""fullscreenenter"",""1"",""3700""
","
","
","""event"",""trial"",""time""
""fullscreenenter"",""1"",""3700""
","
",,null,run_exp/static/images/task_images/gems/49.jpg,null,,,,,,,25,,,3,,,,,49,0.508336662,0.510204082,,,,,,,
decision,100,444575,0.0-33.0-2.0,"""event"",""trial"",""time""
""fullscreenenter"",""1"",""3700""
","
","
","""event"",""trial"",""time""
""fullscreenenter"",""1"",""3700""
","
",,496.3,run_exp/static/images/task_images/land.jpg,65,,,,,,,25,,,3,,,,,,,,70917,1,1,FALSE,,,
dig,101,447090,0.0-34.0-0.0,"""event"",""trial"",""time""
""fullscreenenter"",""1"",""3700""
","
","
","""event"",""trial"",""time""
""fullscreenenter"",""1"",""3700""
","
",,,,,,,,,,,,"[{""stimulus"":""run_exp/static/images/task_images/dig.jpg"",""time"":0.2999999523162842},{""stimulus"":""run_exp/static/images/task_images/land.jpg"",""time"":838.5999999046326},{""stimulus"":""run_exp/static/images/task_images/dig.jpg"",""time"":1678}]",[],3,,,,,,,,,,,,,,
harvest,102,448092,0.0-34.0-1.0,"""event"",""trial"",""time""
""fullscreenenter"",""1"",""3700""
","
","
","""event"",""trial"",""time""
""fullscreenenter"",""1"",""3700""
","
",,null,run_exp/static/images/task_images/gems/25.jpg,null,,,,,,,13,,,3,,,,,25,0.521262046,0.52,,,,,,,
decision,103,449125,0.0-34.0-2.0,"""event"",""trial"",""time""
""fullscreenenter"",""1"",""3700""
","
","
","""event"",""trial"",""time""
""fullscreenenter"",""1"",""3700""
","
",,1031.7,run_exp/static/images/task_images/land.jpg,65,,,,,,,13,,,3,,,,,,,,75468,1,2,FALSE,,,
dig,104,451104,0.0-35.0-0.0,"""event"",""trial"",""time""
""fullscreenenter"",""1"",""3700""
","
","
","""event"",""trial"",""time""
""fullscreenenter"",""1"",""3700""
","
",,,,,,,,,,,,"[{""stimulus"":""run_exp/static/images/task_images/dig.jpg"",""time"":0.20000004768371582},{""stimulus"":""run_exp/static/images/task_images/land.jpg"",""time"":659.7000000476837},{""stimulus"":""run_exp/static/images/task_images/dig.jpg"",""time"":1318.8000001907349}]",[],3,,,,,,,,,,,,,,
harvest,105,452376,0.0-35.0-1.0,"""event"",""trial"",""time""
""fullscreenenter"",""1"",""3700""
","
","
","""event"",""trial"",""time""
""fullscreenenter"",""1"",""3700""
","
",,null,run_exp/static/images/task_images/gems/13.jpg,null,,,,,,,7,,,3,,,,,13,0.50211187,0.538461538,,,,,,,
decision,106,452630,0.0-35.0-2.0,"""event"",""trial"",""time""
""fullscreenenter"",""1"",""3700""
","
","
","""event"",""trial"",""time""
""fullscreenenter"",""1"",""3700""
","
",,251.9000001,run_exp/static/images/task_images/land.jpg,76,,,,,,,7,,,3,,,,,,,,78972,1,3,TRUE,,,
travel,107,462397,0.0-36.0-0.0,"""event"",""trial"",""time""
""fullscreenenter"",""1"",""3700""
","
","
","""event"",""trial"",""time""
""fullscreenenter"",""1"",""3700""
","
",,,,,,,,,,,,"[{""stimulus"":""run_exp/static/images/task_images/rocket-01.jpg"",""time"":0.5999999046325684},{""stimulus"":""run_exp/static/images/task_images/rocket-02.jpg"",""time"":1087.6999998092651},{""stimulus"":""run_exp/static/images/task_images/rocket-03.jpg"",""time"":2178.5999999046326},{""stimulus"":""run_exp/static/images/task_images/rocket-04.jpg"",""time"":3258.899999856949},{""stimulus"":""run_exp/static/images/task_images/rocket-05.jpg"",""time"":4338.399999856949},{""stimulus"":""run_exp/static/images/task_images/rocket-06.jpg"",""time"":5428.699999809265},{""stimulus"":""run_exp/static/images/task_images/rocket-07.jpg"",""time"":6510.899999856949},{""stimulus"":""run_exp/static/images/task_images/rocket-08.jpg"",""time"":7589.299999952316},{""stimulus"":""run_exp/static/images/task_images/rocket-09.jpg"",""time"":8669.299999952316}]",[],3,,,,,,,,,,,,,,
alien_welcome,108,467408,0.0-36.0-1.0,"""event"",""trial"",""time""
""fullscreenenter"",""1"",""3700""
","
","
","""event"",""trial"",""time""
""fullscreenenter"",""1"",""3700""
","
",,null,run_exp/static/images/task_images/aliens/old_aliens/planet/alien_planet-42.jpg,null,,,,,,,,,,,,,42,"11,73,44,42,64,7,5,57,20,60,2,46,10,23,16,49,1,65,69,78,35,14,6,72,8,55,39,29,47,22,75,71,31,9,41,18,40",,,,,,,,,,
land,109,467917,0.0-36.0-2.0,"""event"",""trial"",""time""
""fullscreenenter"",""1"",""3700""
","
","
","""event"",""trial"",""time""
""fullscreenenter"",""1"",""3700""
","
",,null,run_exp/static/images/task_images/land.jpg,null,,,,,,,101,,,4,,,,,,,,,,,,,,
dig,110,469929,0.0-36.0-3.0,"""event"",""trial"",""time""
""fullscreenenter"",""1"",""3700""
","
","
","""event"",""trial"",""time""
""fullscreenenter"",""1"",""3700""
","
",,,,,,,,,,,,"[{""stimulus"":""run_exp/static/images/task_images/dig.jpg"",""time"":0.7000000476837158},{""stimulus"":""run_exp/static/images/task_images/land.jpg"",""time"":678},{""stimulus"":""run_exp/static/images/task_images/dig.jpg"",""time"":1344}]",[],4,,,,,,,,,,,,,,
harvest,111,470929,0.0-36.0-4.0,"""event"",""trial"",""time""
""fullscreenenter"",""1"",""3700""
","
","
","""event"",""trial"",""time""
""fullscreenenter"",""1"",""3700""
","
",,null,run_exp/static/images/task_images/gems/101.jpg,null,,,,,,,52,,,4,,,,,101,0.510798705,0.514851485,,,,,,,
decision,112,471739,0.0-36.0-5.0,"""event"",""trial"",""time""
""fullscreenenter"",""1"",""3700""
","
","
","""event"",""trial"",""time""
""fullscreenenter"",""1"",""3700""
","
",,807.8000002,run_exp/static/images/task_images/land.jpg,65,,,,,,,52,,,4,,,,,,,,98081,1,0,FALSE,,,
dig,113,473945,0.0-37.0-0.0,"""event"",""trial"",""time""
""fullscreenenter"",""1"",""3700""
","
","
","""event"",""trial"",""time""
""fullscreenenter"",""1"",""3700""
","
",,,,,,,,,,,,"[{""stimulus"":""run_exp/static/images/task_images/dig.jpg"",""time"":0.5999999046325684},{""stimulus"":""run_exp/static/images/task_images/land.jpg"",""time"":738.7000000476837},{""stimulus"":""run_exp/static/images/task_images/dig.jpg"",""time"":1473.5}]",[],4,,,,,,,,,,,,,,
harvest,114,474947,0.0-37.0-1.0,"""event"",""trial"",""time""
""fullscreenenter"",""1"",""3700""
","
","
","""event"",""trial"",""time""
""fullscreenenter"",""1"",""3700""
","
",,null,run_exp/static/images/task_images/gems/52.jpg,null,,,,,,,28,,,4,,,,,52,0.542750953,0.538461538,,,,,,,
decision,115,475149,0.0-37.0-2.0,"""event"",""trial"",""time""
""fullscreenenter"",""1"",""3700""
","
","
","""event"",""trial"",""time""
""fullscreenenter"",""1"",""3700""
","
",,200.3000002,run_exp/static/images/task_images/land.jpg,65,,,,,,,28,,,4,,,,,,,,101491,1,1,FALSE,,,
dig,116,477965,0.0-38.0-0.0,"""event"",""trial"",""time""
""fullscreenenter"",""1"",""3700""
","
","
","""event"",""trial"",""time""
""fullscreenenter"",""1"",""3700""
","
",,,,,,,,,,,,"[{""stimulus"":""run_exp/static/images/task_images/dig.jpg"",""time"":0.9000000953674316},{""stimulus"":""run_exp/static/images/task_images/land.jpg"",""time"":944.5999999046326},{""stimulus"":""run_exp/static/images/task_images/dig.jpg"",""time"":1875.2999999523163}]",[],4,,,,,,,,,,,,,,
harvest,117,478967,0.0-38.0-1.0,"""event"",""trial"",""time""
""fullscreenenter"",""1"",""3700""
","
","
","""event"",""trial"",""time""
""fullscreenenter"",""1"",""3700""
","
",,null,run_exp/static/images/task_images/gems/28.jpg,null,,,,,,,18,,,4,,,,,28,0.632218144,0.642857143,,,,,,,
decision,118,480295,0.0-38.0-2.0,"""event"",""trial"",""time""
""fullscreenenter"",""1"",""3700""
","
","
","""event"",""trial"",""time""
""fullscreenenter"",""1"",""3700""
","
",,1325.9,run_exp/static/images/task_images/land.jpg,76,,,,,,,18,,,4,,,,,,,,106637,1,2,TRUE,,,
travel,119,488975,0.0-39.0-0.0,"""event"",""trial"",""time""
""fullscreenenter"",""1"",""3700""
","
","
","""event"",""trial"",""time""
""fullscreenenter"",""1"",""3700""
","
",,,,,,,,,,,,"[{""stimulus"":""run_exp/static/images/task_images/rocket-01.jpg"",""time"":0.5},{""stimulus"":""run_exp/static/images/task_images/rocket-02.jpg"",""time"":967.2000000476837},{""stimulus"":""run_exp/static/images/task_images/rocket-03.jpg"",""time"":1937.2000000476837},{""stimulus"":""run_exp/static/images/task_images/rocket-04.jpg"",""time"":2908.0999999046326},{""stimulus"":""run_exp/static/images/task_images/rocket-05.jpg"",""time"":3856.2000000476837},{""stimulus"":""run_exp/static/images/task_images/rocket-06.jpg"",""time"":4827.700000047684},{""stimulus"":""run_exp/static/images/task_images/rocket-07.jpg"",""time"":5787.5},{""stimulus"":""run_exp/static/images/task_images/rocket-08.jpg"",""time"":6747.599999904633},{""stimulus"":""run_exp/static/images/task_images/rocket-09.jpg"",""time"":7707.599999904633}]",[],4,,,,,,,,,,,,,,
alien_welcome,120,493989,0.0-39.0-1.0,"""event"",""trial"",""time""
""fullscreenenter"",""1"",""3700""
","
","
","""event"",""trial"",""time""
""fullscreenenter"",""1"",""3700""
","
",,null,run_exp/static/images/task_images/aliens/old_aliens/planet/alien_planet-64.jpg,null,,,,,,,,,,,,,64,"11,73,44,42,64,7,5,57,20,60,2,46,10,23,16,49,1,65,69,78,35,14,6,72,8,55,39,29,47,22,75,71,31,9,41,18,40",,,,,,,,,,
land,121,494496,0.0-39.0-2.0,"""event"",""trial"",""time""
""fullscreenenter"",""1"",""3700""
","
","
","""event"",""trial"",""time""
""fullscreenenter"",""1"",""3700""
","
",,null,run_exp/static/images/task_images/land.jpg,null,,,,,,,95,,,5,,,,,,,,,,,,,,
dig,122,496505,0.0-39.0-3.0,"""event"",""trial"",""time""
""fullscreenenter"",""1"",""3700""
","
","
","""event"",""trial"",""time""
""fullscreenenter"",""1"",""3700""
","
",,,,,,,,,,,,"[{""stimulus"":""run_exp/static/images/task_images/dig.jpg"",""time"":0.8000001907348633},{""stimulus"":""run_exp/static/images/task_images/land.jpg"",""time"":676.4000000953674},{""stimulus"":""run_exp/static/images/task_images/dig.jpg"",""time"":1347}]",[],5,,,,,,,,,,,,,,
harvest,123,497507,0.0-39.0-4.0,"""event"",""trial"",""time""
""fullscreenenter"",""1"",""3700""
","
","
","""event"",""trial"",""time""
""fullscreenenter"",""1"",""3700""
","
",,null,run_exp/static/images/task_images/gems/95.jpg,null,,,,,,,47,,,5,,,,,95,0.493983101,0.494736842,,,,,,,
decision,124,498220,0.0-39.0-5.0,"""event"",""trial"",""time""
""fullscreenenter"",""1"",""3700""
","
","
","""event"",""trial"",""time""
""fullscreenenter"",""1"",""3700""
","
",,711.4000001,run_exp/static/images/task_images/land.jpg,65,,,,,,,47,,,5,,,,,,,,124562,1,0,FALSE,,,
dig,125,500525,0.0-40.0-0.0,"""event"",""trial"",""time""
""fullscreenenter"",""1"",""3700""
","
","
","""event"",""trial"",""time""
""fullscreenenter"",""1"",""3700""
","
",,,,,,,,,,,,"[{""stimulus"":""run_exp/static/images/task_images/dig.jpg"",""time"":0.20000004768371582},{""stimulus"":""run_exp/static/images/task_images/land.jpg"",""time"":767},{""stimulus"":""run_exp/static/images/task_images/dig.jpg"",""time"":1531.7000000476837}]",[],5,,,,,,,,,,,,,,
harvest,126,501598,0.0-40.0-1.0,"""event"",""trial"",""time""
""fullscreenenter"",""1"",""3700""
","
","
","""event"",""trial"",""time""
""fullscreenenter"",""1"",""3700""
","
",,null,run_exp/static/images/task_images/gems/47.jpg,null,,,,,,,23,,,5,,,,,47,0.499709631,0.489361702,,,,,,,
decision,127,501850,0.0-40.0-2.0,"""event"",""trial"",""time""
""fullscreenenter"",""1"",""3700""
","
","
","""event"",""trial"",""time""
""fullscreenenter"",""1"",""3700""
","
",,250.1000001,run_exp/static/images/task_images/land.jpg,65,,,,,,,23,,,5,,,,,,,,128192,1,1,FALSE,,,
dig,128,504615,0.0-41.0-0.0,"""event"",""trial"",""time""
""fullscreenenter"",""1"",""3700""
","
","
","""event"",""trial"",""time""
""fullscreenenter"",""1"",""3700""
","
",,,,,,,,,,,,"[{""stimulus"":""run_exp/static/images/task_images/dig.jpg"",""time"":0.7000000476837158},{""stimulus"":""run_exp/static/images/task_images/land.jpg"",""time"":925.9000000953674},{""stimulus"":""run_exp/static/images/task_images/dig.jpg"",""time"":1835.1000001430511}]",[],5,,,,,,,,,,,,,,
harvest,129,506094,0.0-41.0-1.0,"""event"",""trial"",""time""
""fullscreenenter"",""1"",""3700""
","
","
","""event"",""trial"",""time""
""fullscreenenter"",""1"",""3700""
","
",,null,run_exp/static/images/task_images/gems/23.jpg,null,,,,,,,12,,,5,,,,,23,0.518443817,0.52173913,,,,,,,
decision,130,506318,0.0-41.0-2.0,"""event"",""trial"",""time""
""fullscreenenter"",""1"",""3700""
","
","
","""event"",""trial"",""time""
""fullscreenenter"",""1"",""3700""
","
",,221.3,run_exp/static/images/task_images/land.jpg,65,,,,,,,12,,,5,,,,,,,,132660,1,2,FALSE,,,
dig,131,509115,0.0-42.0-0.0,"""event"",""trial"",""time""
""fullscreenenter"",""1"",""3700""
","
","
","""event"",""trial"",""time""
""fullscreenenter"",""1"",""3700""
","
",,,,,,,,,,,,"[{""stimulus"":""run_exp/static/images/task_images/dig.jpg"",""time"":0.6999998092651367},{""stimulus"":""run_exp/static/images/task_images/land.jpg"",""time"":938.0999999046326},{""stimulus"":""run_exp/static/images/task_images/dig.jpg"",""time"":1865}]",[],5,,,,,,,,,,,,,,
harvest,132,510118,0.0-42.0-1.0,"""event"",""trial"",""time""
""fullscreenenter"",""1"",""3700""
","
","
","""event"",""trial"",""time""
""fullscreenenter"",""1"",""3700""
","
",,null,run_exp/static/images/task_images/gems/12.jpg,null,,,,,,,6,,,5,,,,,12,0.499164277,0.5,,,,,,,
decision,133,510563,0.0-42.0-2.0,"""event"",""trial"",""time""
""fullscreenenter"",""1"",""3700""
","
","
","""event"",""trial"",""time""
""fullscreenenter"",""1"",""3700""
","
",,443.3999999,run_exp/static/images/task_images/land.jpg,76,,,,,,,6,,,5,,,,,,,,136905,1,3,TRUE,,,
travel,134,520126,0.0-43.0-0.0,"""event"",""trial"",""time""
""fullscreenenter"",""1"",""3700""
","
","
","""event"",""trial"",""time""
""fullscreenenter"",""1"",""3700""
","
",,,,,,,,,,,,"[{""stimulus"":""run_exp/static/images/task_images/rocket-01.jpg"",""time"":0.2999999523162842},{""stimulus"":""run_exp/static/images/task_images/rocket-02.jpg"",""time"":1069},{""stimulus"":""run_exp/static/images/task_images/rocket-03.jpg"",""time"":2134.4000000953674},{""stimulus"":""run_exp/static/images/task_images/rocket-04.jpg"",""time"":3188.600000143051},{""stimulus"":""run_exp/static/images/task_images/rocket-05.jpg"",""time"":4255.5},{""stimulus"":""run_exp/static/images/task_images/rocket-06.jpg"",""time"":5319.799999952316},{""stimulus"":""run_exp/static/images/task_images/rocket-07.jpg"",""time"":6379.600000143051},{""stimulus"":""run_exp/static/images/task_images/rocket-08.jpg"",""time"":7429.200000047684},{""stimulus"":""run_exp/static/images/task_images/rocket-09.jpg"",""time"":8499.299999952316}]",[],5,,,,,,,,,,,,,,
alien_welcome,135,525135,0.0-43.0-1.0,"""event"",""trial"",""time""
""fullscreenenter"",""1"",""3700""
","
","
","""event"",""trial"",""time""
""fullscreenenter"",""1"",""3700""
","
",,null,run_exp/static/images/task_images/aliens/old_aliens/planet/alien_planet-7.jpg,null,,,,,,,,,,,,,7,"11,73,44,42,64,7,5,57,20,60,2,46,10,23,16,49,1,65,69,78,35,14,6,72,8,55,39,29,47,22,75,71,31,9,41,18,40",,,,,,,,,,
land,136,525642,0.0-43.0-2.0,"""event"",""trial"",""time""
""fullscreenenter"",""1"",""3700""
","
","
","""event"",""trial"",""time""
""fullscreenenter"",""1"",""3700""
","
",,null,run_exp/static/images/task_images/land.jpg,null,,,,,,,98,,,6,,,,,,,,,,,,,,
dig,137,527654,0.0-43.0-3.0,"""event"",""trial"",""time""
""fullscreenenter"",""1"",""3700""
","
","
","""event"",""trial"",""time""
""fullscreenenter"",""1"",""3700""
","
",,,,,,,,,,,,"[{""stimulus"":""run_exp/static/images/task_images/dig.jpg"",""time"":0.7000000476837158},{""stimulus"":""run_exp/static/images/task_images/land.jpg"",""time"":676.5},{""stimulus"":""run_exp/static/images/task_images/dig.jpg"",""time"":1350.1000001430511}]",[],6,,,,,,,,,,,,,,
harvest,138,528668,0.0-43.0-4.0,"""event"",""trial"",""time""
""fullscreenenter"",""1"",""3700""
","
","
","""event"",""trial"",""time""
""fullscreenenter"",""1"",""3700""
","
",,null,run_exp/static/images/task_images/gems/98.jpg,null,,,,,,,79,,,6,,,,,98,0.805807302,0.806122449,,,,,,,
decision,139,528959,0.0-43.0-5.0,"""event"",""trial"",""time""
""fullscreenenter"",""1"",""3700""
","
","
","""event"",""trial"",""time""
""fullscreenenter"",""1"",""3700""
","
",,286.7,run_exp/static/images/task_images/land.jpg,65,,,,,,,79,,,6,,,,,,,,155301,1,0,FALSE,,,
dig,140,531687,0.0-44.0-0.0,"""event"",""trial"",""time""
""fullscreenenter"",""1"",""3700""
","
","
","""event"",""trial"",""time""
""fullscreenenter"",""1"",""3700""
","
",,,,,,,,,,,,"[{""stimulus"":""run_exp/static/images/task_images/dig.jpg"",""time"":0.5},{""stimulus"":""run_exp/static/images/task_images/land.jpg"",""time"":917.0999999046326},{""stimulus"":""run_exp/static/images/task_images/dig.jpg"",""time"":1817}]",[],6,,,,,,,,,,,,,,
harvest,141,532796,0.0-44.0-1.0,"""event"",""trial"",""time""
""fullscreenenter"",""1"",""3700""
","
","
","""event"",""trial"",""time""
""fullscreenenter"",""1"",""3700""
","
",,null,run_exp/static/images/task_images/gems/79.jpg,null,,,,,,,61,,,6,,,,,79,0.767307972,0.772151899,,,,,,,
decision,142,533283,0.0-44.0-2.0,"""event"",""trial"",""time""
""fullscreenenter"",""1"",""3700""
","
","
","""event"",""trial"",""time""
""fullscreenenter"",""1"",""3700""
","
",,485,run_exp/static/images/task_images/land.jpg,65,,,,,,,61,,,6,,,,,,,,159626,1,1,FALSE,,,
dig,143,535817,0.0-45.0-0.0,"""event"",""trial"",""time""
""fullscreenenter"",""1"",""3700""
","
","
","""event"",""trial"",""time""
""fullscreenenter"",""1"",""3700""
","
",,,,,,,,,,,,"[{""stimulus"":""run_exp/static/images/task_images/dig.jpg"",""time"":0.5999999046325684},{""stimulus"":""run_exp/static/images/task_images/land.jpg"",""time"":851.2999999523163},{""stimulus"":""run_exp/static/images/task_images/dig.jpg"",""time"":1681.3999998569489}]",[],6,,,,,,,,,,,,,,
harvest,144,536820,0.0-45.0-1.0,"""event"",""trial"",""time""
""fullscreenenter"",""1"",""3700""
","
","
","""event"",""trial"",""time""
""fullscreenenter"",""1"",""3700""
","
",,null,run_exp/static/images/task_images/gems/61.jpg,null,,,,,,,49,,,6,,,,,61,0.803616706,0.803278689,,,,,,,
decision,145,537366,0.0-45.0-2.0,"""event"",""trial"",""time""
""fullscreenenter"",""1"",""3700""
","
","
","""event"",""trial"",""time""
""fullscreenenter"",""1"",""3700""
","
",,544.0999999,run_exp/static/images/task_images/land.jpg,65,,,,,,,49,,,6,,,,,,,,163708,1,2,FALSE,,,
dig,146,539837,0.0-46.0-0.0,"""event"",""trial"",""time""
""fullscreenenter"",""1"",""3700""
","
","
","""event"",""trial"",""time""
""fullscreenenter"",""1"",""3700""
","
",,,,,,,,,,,,"[{""stimulus"":""run_exp/static/images/task_images/dig.jpg"",""time"":0.6000001430511475},{""stimulus"":""run_exp/static/images/task_images/land.jpg"",""time"":822.2000000476837},{""stimulus"":""run_exp/static/images/task_images/dig.jpg"",""time"":1653}]",[],6,,,,,,,,,,,,,,
harvest,147,540846,0.0-46.0-1.0,"""event"",""trial"",""time""
""fullscreenenter"",""1"",""3700""
","
","
","""event"",""trial"",""time""
""fullscreenenter"",""1"",""3700""
","
",,null,run_exp/static/images/task_images/gems/49.jpg,null,,,,,,,44,,,6,,,,,49,0.903861611,0.897959184,,,,,,,
decision,148,541260,0.0-46.0-2.0,"""event"",""trial"",""time""
""fullscreenenter"",""1"",""3700""
","
","
","""event"",""trial"",""time""
""fullscreenenter"",""1"",""3700""
","
",,412.4000001,run_exp/static/images/task_images/land.jpg,65,,,,,,,44,,,6,,,,,,,,167603,1,3,FALSE,,,
dig,149,543857,0.0-47.0-0.0,"""event"",""trial"",""time""
""fullscreenenter"",""1"",""3700""
","
","
","""event"",""trial"",""time""
""fullscreenenter"",""1"",""3700""
","
",,,,,,,,,,,,"[{""stimulus"":""run_exp/static/images/task_images/dig.jpg"",""time"":0.40000009536743164},{""stimulus"":""run_exp/static/images/task_images/land.jpg"",""time"":873.7000000476837},{""stimulus"":""run_exp/static/images/task_images/dig.jpg"",""time"":1733.2000000476837}]",[],6,,,,,,,,,,,,,,
harvest,150,544860,0.0-47.0-1.0,"""event"",""trial"",""time""
""fullscreenenter"",""1"",""3700""
","
","
","""event"",""trial"",""time""
""fullscreenenter"",""1"",""3700""
","
",,null,run_exp/static/images/task_images/gems/44.jpg,null,,,,,,,32,,,6,,,,,44,0.722976343,0.727272727,,,,,,,
decision,151,545480,0.0-47.0-2.0,"""event"",""trial"",""time""
""fullscreenenter"",""1"",""3700""
","
","
","""event"",""trial"",""time""
""fullscreenenter"",""1"",""3700""
","
",,616.8,run_exp/static/images/task_images/land.jpg,65,,,,,,,32,,,6,,,,,,,,171822,1,4,FALSE,,,
dig,152,547877,0.0-48.0-0.0,"""event"",""trial"",""time""
""fullscreenenter"",""1"",""3700""
","
","
","""event"",""trial"",""time""
""fullscreenenter"",""1"",""3700""
","
",,,,,,,,,,,,"[{""stimulus"":""run_exp/static/images/task_images/dig.jpg"",""time"":0.5999999046325684},{""stimulus"":""run_exp/static/images/task_images/land.jpg"",""time"":804.7000000476837},{""stimulus"":""run_exp/static/images/task_images/dig.jpg"",""time"":1597.2999999523163}]",[],6,,,,,,,,,,,,,,
harvest,153,548880,0.0-48.0-1.0,"""event"",""trial"",""time""
""fullscreenenter"",""1"",""3700""
","
","
","""event"",""trial"",""time""
""fullscreenenter"",""1"",""3700""
","
",,null,run_exp/static/images/task_images/gems/32.jpg,null,,,,,,,24,,,6,,,,,32,0.76264871,0.75,,,,,,,
decision,154,549498,0.0-48.0-2.0,"""event"",""trial"",""time""
""fullscreenenter"",""1"",""3700""
","
","
","""event"",""trial"",""time""
""fullscreenenter"",""1"",""3700""
","
",,615.8,run_exp/static/images/task_images/land.jpg,65,,,,,,,24,,,6,,,,,,,,175840,1,5,FALSE,,,
dig,155,551887,0.0-49.0-0.0,"""event"",""trial"",""time""
""fullscreenenter"",""1"",""3700""
","
","
","""event"",""trial"",""time""
""fullscreenenter"",""1"",""3700""
","
",,,,,,,,,,,,"[{""stimulus"":""run_exp/static/images/task_images/dig.jpg"",""time"":0.2999999523162842},{""stimulus"":""run_exp/static/images/task_images/land.jpg"",""time"":805.3999998569489},{""stimulus"":""run_exp/static/images/task_images/dig.jpg"",""time"":1595.0999999046326}]",[],6,,,,,,,,,,,,,,
harvest,156,553174,0.0-49.0-1.0,"""event"",""trial"",""time""
""fullscreenenter"",""1"",""3700""
","
","
","""event"",""trial"",""time""
""fullscreenenter"",""1"",""3700""
","
",,null,run_exp/static/images/task_images/gems/24.jpg,null,,,,,,,17,,,6,,,,,24,0.727017882,0.708333333,,,,,,,
decision,157,553635,0.0-49.0-2.0,"""event"",""trial"",""time""
""fullscreenenter"",""1"",""3700""
","
","
","""event"",""trial"",""time""
""fullscreenenter"",""1"",""3700""
","
",,458.6000001,run_exp/static/images/task_images/land.jpg,76,,,,,,,17,,,6,,,,,,,,179977,1,6,TRUE,,,
travel,158,563187,0.0-50.0-0.0,"""event"",""trial"",""time""
""fullscreenenter"",""1"",""3700""
","
","
","""event"",""trial"",""time""
""fullscreenenter"",""1"",""3700""
","
",,,,,,,,,,,,"[{""stimulus"":""run_exp/static/images/task_images/rocket-01.jpg"",""time"":0.6000001430511475},{""stimulus"":""run_exp/static/images/task_images/rocket-02.jpg"",""time"":1064.4000000953674},{""stimulus"":""run_exp/static/images/task_images/rocket-03.jpg"",""time"":2123.7999999523163},{""stimulus"":""run_exp/static/images/task_images/rocket-04.jpg"",""time"":3184},{""stimulus"":""run_exp/static/images/task_images/rocket-05.jpg"",""time"":4249.5},{""stimulus"":""run_exp/static/images/task_images/rocket-06.jpg"",""time"":5313.400000095367},{""stimulus"":""run_exp/static/images/task_images/rocket-07.jpg"",""time"":6363.400000095367},{""stimulus"":""run_exp/static/images/task_images/rocket-08.jpg"",""time"":7430.100000143051},{""stimulus"":""run_exp/static/images/task_images/rocket-09.jpg"",""time"":8483.5}]",[],6,,,,,,,,,,,,,,
alien_welcome,159,568197,0.0-50.0-1.0,"""event"",""trial"",""time""
""fullscreenenter"",""1"",""3700""
","
","
","""event"",""trial"",""time""
""fullscreenenter"",""1"",""3700""
","
",,null,run_exp/static/images/task_images/aliens/old_aliens/planet/alien_planet-5.jpg,null,,,,,,,,,,,,,5,"11,73,44,42,64,7,5,57,20,60,2,46,10,23,16,49,1,65,69,78,35,14,6,72,8,55,39,29,47,22,75,71,31,9,41,18,40",,,,,,,,,,
land,160,568709,0.0-50.0-2.0,"""event"",""trial"",""time""
""fullscreenenter"",""1"",""3700""
","
","
","""event"",""trial"",""time""
""fullscreenenter"",""1"",""3700""
","
",,null,run_exp/static/images/task_images/land.jpg,null,,,,,,,100,,,7,,,,,,,,,,,,,,
dig,161,570719,0.0-50.0-3.0,"""event"",""trial"",""time""
""fullscreenenter"",""1"",""3700""
","
","
","""event"",""trial"",""time""
""fullscreenenter"",""1"",""3700""
","
",,,,,,,,,,,,"[{""stimulus"":""run_exp/static/images/task_images/dig.jpg"",""time"":0.7000000476837158},{""stimulus"":""run_exp/static/images/task_images/land.jpg"",""time"":676.0999999046326},{""stimulus"":""run_exp/static/images/task_images/dig.jpg"",""time"":1345.2000000476837}]",[],7,,,,,,,,,,,,,,
harvest,162,571728,0.0-50.0-4.0,"""event"",""trial"",""time""
""fullscreenenter"",""1"",""3700""
","
","
","""event"",""trial"",""time""
""fullscreenenter"",""1"",""3700""
","
",,null,run_exp/static/images/task_images/gems/100.jpg,null,,,,,,,88,,,7,,,,,100,0.883377229,0.88,,,,,,,
decision,163,571985,0.0-50.0-5.0,"""event"",""trial"",""time""
""fullscreenenter"",""1"",""3700""
","
","
","""event"",""trial"",""time""
""fullscreenenter"",""1"",""3700""
","
",,253.5,run_exp/static/images/task_images/land.jpg,65,,,,,,,88,,,7,,,,,,,,198327,1,0,FALSE,,,
dig,164,574742,0.0-51.0-0.0,"""event"",""trial"",""time""
""fullscreenenter"",""1"",""3700""
","
","
","""event"",""trial"",""time""
""fullscreenenter"",""1"",""3700""
","
",,,,,,,,,,,,"[{""stimulus"":""run_exp/static/images/task_images/dig.jpg"",""time"":0.5},{""stimulus"":""run_exp/static/images/task_images/land.jpg"",""time"":932.5},{""stimulus"":""run_exp/static/images/task_images/dig.jpg"",""time"":1833.0999999046326}]",[],7,,,,,,,,,,,,,,
harvest,165,575745,0.0-51.0-1.0,"""event"",""trial"",""time""
""fullscreenenter"",""1"",""3700""
","
","
","""event"",""trial"",""time""
""fullscreenenter"",""1"",""3700""
","
",,null,run_exp/static/images/task_images/gems/88.jpg,null,,,,,,,71,,,7,,,,,88,0.803041607,0.806818182,,,,,,,
decision,166,576711,0.0-51.0-2.0,"""event"",""trial"",""time""
""fullscreenenter"",""1"",""3700""
","
","
","""event"",""trial"",""time""
""fullscreenenter"",""1"",""3700""
","
",,964.5,run_exp/static/images/task_images/land.jpg,65,,,,,,,71,,,7,,,,,,,,203053,1,1,FALSE,,,
dig,167,578759,0.0-52.0-0.0,"""event"",""trial"",""time""
""fullscreenenter"",""1"",""3700""
","
","
","""event"",""trial"",""time""
""fullscreenenter"",""1"",""3700""
","
",,,,,,,,,,,,"[{""stimulus"":""run_exp/static/images/task_images/dig.jpg"",""time"":0.5},{""stimulus"":""run_exp/static/images/task_images/land.jpg"",""time"":686},{""stimulus"":""run_exp/static/images/task_images/dig.jpg"",""time"":1365.4000000953674}]",[],7,,,,,,,,,,,,,,
harvest,168,579762,0.0-52.0-1.0,"""event"",""trial"",""time""
""fullscreenenter"",""1"",""3700""
","
","
","""event"",""trial"",""time""
""fullscreenenter"",""1"",""3700""
","
",,null,run_exp/static/images/task_images/gems/71.jpg,null,,,,,,,52,,,7,,,,,71,0.735808819,0.732394366,,,,,,,
decision,169,580411,0.0-52.0-2.0,"""event"",""trial"",""time""
""fullscreenenter"",""1"",""3700""
","
","
","""event"",""trial"",""time""
""fullscreenenter"",""1"",""3700""
","
",,647,run_exp/static/images/task_images/land.jpg,65,,,,,,,52,,,7,,,,,,,,206753,1,2,FALSE,,,
dig,170,582777,0.0-53.0-0.0,"""event"",""trial"",""time""
""fullscreenenter"",""1"",""3700""
","
","
","""event"",""trial"",""time""
""fullscreenenter"",""1"",""3700""
","
",,,,,,,,,,,,"[{""stimulus"":""run_exp/static/images/task_images/dig.jpg"",""time"":0.5},{""stimulus"":""run_exp/static/images/task_images/land.jpg"",""time"":801.3999998569489},{""stimulus"":""run_exp/static/images/task_images/dig.jpg"",""time"":1576.0999999046326}]",[],7,,,,,,,,,,,,,,
harvest,171,583788,0.0-53.0-1.0,"""event"",""trial"",""time""
""fullscreenenter"",""1"",""3700""
","
","
","""event"",""trial"",""time""
""fullscreenenter"",""1"",""3700""
","
",,null,run_exp/static/images/task_images/gems/52.jpg,null,,,,,,,45,,,7,,,,,52,0.869677508,0.865384615,,,,,,,
decision,172,584241,0.0-53.0-2.0,"""event"",""trial"",""time""
""fullscreenenter"",""1"",""3700""
","
","
","""event"",""trial"",""time""
""fullscreenenter"",""1"",""3700""
","
",,448.1000001,run_exp/static/images/task_images/land.jpg,65,,,,,,,45,,,7,,,,,,,,210583,1,3,FALSE,,,
dig,173,586808,0.0-54.0-0.0,"""event"",""trial"",""time""
""fullscreenenter"",""1"",""3700""
","
","
","""event"",""trial"",""time""
""fullscreenenter"",""1"",""3700""
","
",,,,,,,,,,,,"[{""stimulus"":""run_exp/static/images/task_images/dig.jpg"",""time"":0.7000000476837158},{""stimulus"":""run_exp/static/images/task_images/land.jpg"",""time"":867},{""stimulus"":""run_exp/static/images/task_images/dig.jpg"",""time"":1702.8000001907349}]",[],7,,,,,,,,,,,,,,
harvest,174,587811,0.0-54.0-1.0,"""event"",""trial"",""time""
""fullscreenenter"",""1"",""3700""
","
","
","""event"",""trial"",""time""
""fullscreenenter"",""1"",""3700""
","
",,null,run_exp/static/images/task_images/gems/45.jpg,null,,,,,,,34,,,7,,,,,45,0.753603791,0.755555556,,,,,,,
decision,175,588360,0.0-54.0-2.0,"""event"",""trial"",""time""
""fullscreenenter"",""1"",""3700""
","
","
","""event"",""trial"",""time""
""fullscreenenter"",""1"",""3700""
","
",,546.8,run_exp/static/images/task_images/land.jpg,65,,,,,,,34,,,7,,,,,,,,214702,1,4,FALSE,,,
dig,176,590827,0.0-55.0-0.0,"""event"",""trial"",""time""
""fullscreenenter"",""1"",""3700""
","
","
","""event"",""trial"",""time""
""fullscreenenter"",""1"",""3700""
","
",,,,,,,,,,,,"[{""stimulus"":""run_exp/static/images/task_images/dig.jpg"",""time"":0.39999985694885254},{""stimulus"":""run_exp/static/images/task_images/land.jpg"",""time"":824.8999998569489},{""stimulus"":""run_exp/static/images/task_images/dig.jpg"",""time"":1644.3999998569489}]",[],7,,,,,,,,,,,,,,
harvest,177,591830,0.0-55.0-1.0,"""event"",""trial"",""time""
""fullscreenenter"",""1"",""3700""
","
","
","""event"",""trial"",""time""
""fullscreenenter"",""1"",""3700""
","
",,null,run_exp/static/images/task_images/gems/34.jpg,null,,,,,,,26,,,7,,,,,34,0.760189089,0.764705882,,,,,,,
decision,178,592100,0.0-55.0-2.0,"""event"",""trial"",""time""
""fullscreenenter"",""1"",""3700""
","
","
","""event"",""trial"",""time""
""fullscreenenter"",""1"",""3700""
","
",,268.3,run_exp/static/images/task_images/land.jpg,65,,,,,,,26,,,7,,,,,,,,218442,1,5,FALSE,,,
dig,179,594837,0.0-56.0-0.0,"""event"",""trial"",""time""
""fullscreenenter"",""1"",""3700""
","
","
","""event"",""trial"",""time""
""fullscreenenter"",""1"",""3700""
","
",,,,,,,,,,,,"[{""stimulus"":""run_exp/static/images/task_images/dig.jpg"",""time"":0.40000009536743164},{""stimulus"":""run_exp/static/images/task_images/land.jpg"",""time"":912.2999999523163},{""stimulus"":""run_exp/static/images/task_images/dig.jpg"",""time"":1823.7999999523163}]",[],7,,,,,,,,,,,,,,
harvest,180,596339,0.0-56.0-1.0,"""event"",""trial"",""time""
""fullscreenenter"",""1"",""3700""
","
","
","""event"",""trial"",""time""
""fullscreenenter"",""1"",""3700""
","
",,null,run_exp/static/images/task_images/gems/26.jpg,null,,,,,,,21,,,7,,,,,26,0.790097437,0.807692308,,,,,,,
decision,181,596844,0.0-56.0-2.0,"""event"",""trial"",""time""
""fullscreenenter"",""1"",""3700""
","
","
","""event"",""trial"",""time""
""fullscreenenter"",""1"",""3700""
","
",,502.9000001,run_exp/static/images/task_images/land.jpg,65,,,,,,,21,,,7,,,,,,,,223186,1,6,FALSE,,,
dig,182,599358,0.0-57.0-0.0,"""event"",""trial"",""time""
""fullscreenenter"",""1"",""3700""
","
","
","""event"",""trial"",""time""
""fullscreenenter"",""1"",""3700""
","
",,,,,,,,,,,,"[{""stimulus"":""run_exp/static/images/task_images/dig.jpg"",""time"":0.5},{""stimulus"":""run_exp/static/images/task_images/land.jpg"",""time"":844.5},{""stimulus"":""run_exp/static/images/task_images/dig.jpg"",""time"":1673.9000000953674}]",[],7,,,,,,,,,,,,,,
harvest,183,600361,0.0-57.0-1.0,"""event"",""trial"",""time""
""fullscreenenter"",""1"",""3700""
","
","
","""event"",""trial"",""time""
""fullscreenenter"",""1"",""3700""
","
",,null,run_exp/static/images/task_images/gems/21.jpg,null,,,,,,,18,,,7,,,,,21,0.83827691,0.857142857,,,,,,,
decision,184,600639,0.0-57.0-2.0,"""event"",""trial"",""time""
""fullscreenenter"",""1"",""3700""
","
","
","""event"",""trial"",""time""
""fullscreenenter"",""1"",""3700""
","
",,276.4000001,run_exp/static/images/task_images/land.jpg,76,,,,,,,18,,,7,,,,,,,,226981,1,7,TRUE,,,
travel,185,610368,0.0-58.0-0.0,"""event"",""trial"",""time""
""fullscreenenter"",""1"",""3700""
","
","
","""event"",""trial"",""time""
""fullscreenenter"",""1"",""3700""
","
",,,,,,,,,,,,"[{""stimulus"":""run_exp/static/images/task_images/rocket-01.jpg"",""time"":0.2999999523162842},{""stimulus"":""run_exp/static/images/task_images/rocket-02.jpg"",""time"":1090.6000001430511},{""stimulus"":""run_exp/static/images/task_images/rocket-03.jpg"",""time"":2164.2000000476837},{""stimulus"":""run_exp/static/images/task_images/rocket-04.jpg"",""time"":3245.100000143051},{""stimulus"":""run_exp/static/images/task_images/rocket-05.jpg"",""time"":4333.799999952316},{""stimulus"":""run_exp/static/images/task_images/rocket-06.jpg"",""time"":5413.600000143051},{""stimulus"":""run_exp/static/images/task_images/rocket-07.jpg"",""time"":6483.799999952316},{""stimulus"":""run_exp/static/images/task_images/rocket-08.jpg"",""time"":7573.5},{""stimulus"":""run_exp/static/images/task_images/rocket-09.jpg"",""time"":8643.900000095367}]",[],7,,,,,,,,,,,,,,
alien_welcome,186,615378,0.0-58.0-1.0,"""event"",""trial"",""time""
""fullscreenenter"",""1"",""3700""
","
","
","""event"",""trial"",""time""
""fullscreenenter"",""1"",""3700""
","
",,null,run_exp/static/images/task_images/aliens/old_aliens/planet/alien_planet-57.jpg,null,,,,,,,,,,,,,57,"11,73,44,42,64,7,5,57,20,60,2,46,10,23,16,49,1,65,69,78,35,14,6,72,8,55,39,29,47,22,75,71,31,9,41,18,40",,,,,,,,,,
land,187,615888,0.0-58.0-2.0,"""event"",""trial"",""time""
""fullscreenenter"",""1"",""3700""
","
","
","""event"",""trial"",""time""
""fullscreenenter"",""1"",""3700""
","
",,null,run_exp/static/images/task_images/land.jpg,null,,,,,,,102,,,8,,,,,,,,,,,,,,
dig,188,617898,0.0-58.0-3.0,"""event"",""trial"",""time""
""fullscreenenter"",""1"",""3700""
","
","
","""event"",""trial"",""time""
""fullscreenenter"",""1"",""3700""
","
",,,,,,,,,,,,"[{""stimulus"":""run_exp/static/images/task_images/dig.jpg"",""time"":0.7999999523162842},{""stimulus"":""run_exp/static/images/task_images/land.jpg"",""time"":677.2000000476837},{""stimulus"":""run_exp/static/images/task_images/dig.jpg"",""time"":1346.7000000476837}]",[],8,,,,,,,,,,,,,,
harvest,189,619335,0.0-58.0-4.0,"""event"",""trial"",""time""
""fullscreenenter"",""1"",""3700""
","
","
","""event"",""trial"",""time""
""fullscreenenter"",""1"",""3700""
","
",,null,run_exp/static/images/task_images/gems/102.jpg,null,,,,,,,77,,,8,,,,,102,0.7558646,0.754901961,,,,,,,
decision,190,619680,0.0-58.0-5.0,"""event"",""trial"",""time""
""fullscreenenter"",""1"",""3700""
","
","
","""event"",""trial"",""time""
""fullscreenenter"",""1"",""3700""
","
",,343.9000001,run_exp/static/images/task_images/land.jpg,65,,,,,,,77,,,8,,,,,,,,246023,1,0,FALSE,,,
dig,191,622348,0.0-59.0-0.0,"""event"",""trial"",""time""
""fullscreenenter"",""1"",""3700""
","
","
","""event"",""trial"",""time""
""fullscreenenter"",""1"",""3700""
","
",,,,,,,,,,,,"[{""stimulus"":""run_exp/static/images/task_images/dig.jpg"",""time"":0.2999999523162842},{""stimulus"":""run_exp/static/images/task_images/land.jpg"",""time"":893.7000000476837},{""stimulus"":""run_exp/static/images/task_images/dig.jpg"",""time"":1774}]",[],8,,,,,,,,,,,,,,
harvest,192,623350,0.0-59.0-1.0,"""event"",""trial"",""time""
""fullscreenenter"",""1"",""3700""
","
","
","""event"",""trial"",""time""
""fullscreenenter"",""1"",""3700""
","
",,null,run_exp/static/images/task_images/gems/77.jpg,null,,,,,,,65,,,8,,,,,77,0.838823937,0.844155844,,,,,,,
decision,193,623868,0.0-59.0-2.0,"""event"",""trial"",""time""
""fullscreenenter"",""1"",""3700""
","
","
","""event"",""trial"",""time""
""fullscreenenter"",""1"",""3700""
","
",,517,run_exp/static/images/task_images/land.jpg,65,,,,,,,65,,,8,,,,,,,,250211,1,1,FALSE,,,
dig,194,626358,0.0-60.0-0.0,"""event"",""trial"",""time""
""fullscreenenter"",""1"",""3700""
","
","
","""event"",""trial"",""time""
""fullscreenenter"",""1"",""3700""
","
",,,,,,,,,,,,"[{""stimulus"":""run_exp/static/images/task_images/dig.jpg"",""time"":0.20000004768371582},{""stimulus"":""run_exp/static/images/task_images/land.jpg"",""time"":836.2999999523163},{""stimulus"":""run_exp/static/images/task_images/dig.jpg"",""time"":1666.1000001430511}]",[],8,,,,,,,,,,,,,,
harvest,195,627360,0.0-60.0-1.0,"""event"",""trial"",""time""
""fullscreenenter"",""1"",""3700""
","
","
","""event"",""trial"",""time""
""fullscreenenter"",""1"",""3700""
","
",,null,run_exp/static/images/task_images/gems/65.jpg,null,,,,,,,51,,,8,,,,,65,0.786575651,0.784615385,,,,,,,
decision,196,627806,0.0-60.0-2.0,"""event"",""trial"",""time""
""fullscreenenter"",""1"",""3700""
","
","
","""event"",""trial"",""time""
""fullscreenenter"",""1"",""3700""
","
",,444.3999999,run_exp/static/images/task_images/land.jpg,65,,,,,,,51,,,8,,,,,,,,254148,1,2,FALSE,,,
dig,197,630378,0.0-61.0-0.0,"""event"",""trial"",""time""
""fullscreenenter"",""1"",""3700""
","
","
","""event"",""trial"",""time""
""fullscreenenter"",""1"",""3700""
","
",,,,,,,,,,,,"[{""stimulus"":""run_exp/static/images/task_images/dig.jpg"",""time"":0.40000009536743164},{""stimulus"":""run_exp/static/images/task_images/land.jpg"",""time"":858.0999999046326},{""stimulus"":""run_exp/static/images/task_images/dig.jpg"",""time"":1718.2000000476837}]",[],8,,,,,,,,,,,,,,
harvest,198,631655,0.0-61.0-1.0,"""event"",""trial"",""time""
""fullscreenenter"",""1"",""3700""
","
","
","""event"",""trial"",""time""
""fullscreenenter"",""1"",""3700""
","
",,null,run_exp/static/images/task_images/gems/51.jpg,null,,,,,,,36,,,8,,,,,51,0.697662135,0.705882353,,,,,,,
decision,199,631687,0.0-61.0-2.0,"""event"",""trial"",""time""
""fullscreenenter"",""1"",""3700""
","
","
","""event"",""trial"",""time""
""fullscreenenter"",""1"",""3700""
","
",,29.70000005,run_exp/static/images/task_images/land.jpg,65,,,,,,,36,,,8,,,,,,,,258029,1,3,FALSE,,,
dig,200,634667,0.0-62.0-0.0,"""event"",""trial"",""time""
""fullscreenenter"",""1"",""3700""
","
","
","""event"",""trial"",""time""
""fullscreenenter"",""1"",""3700""
","
",,,,,,,,,,,,"[{""stimulus"":""run_exp/static/images/task_images/dig.jpg"",""time"":0.2999999523162842},{""stimulus"":""run_exp/static/images/task_images/land.jpg"",""time"":997.5},{""stimulus"":""run_exp/static/images/task_images/dig.jpg"",""time"":1986.5999999046326}]",[],8,,,,,,,,,,,,,,
harvest,201,636123,0.0-62.0-1.0,"""event"",""trial"",""time""
""fullscreenenter"",""1"",""3700""
","
","
","""event"",""trial"",""time""
""fullscreenenter"",""1"",""3700""
","
",,null,run_exp/static/images/task_images/gems/36.jpg,null,,,,,,,33,,,8,,,,,36,0.905379501,0.916666667,,,,,,,
decision,202,636281,0.0-62.0-2.0,"""event"",""trial"",""time""
""fullscreenenter"",""1"",""3700""
","
","
","""event"",""trial"",""time""
""fullscreenenter"",""1"",""3700""
","
",,155.5,run_exp/static/images/task_images/land.jpg,65,,,,,,,33,,,8,,,,,,,,262624,1,4,FALSE,,,
dig,203,639143,0.0-63.0-0.0,"""event"",""trial"",""time""
""fullscreenenter"",""1"",""3700""
","
","
","""event"",""trial"",""time""
""fullscreenenter"",""1"",""3700""
","
",,,,,,,,,,,,"[{""stimulus"":""run_exp/static/images/task_images/dig.jpg"",""time"":0.5},{""stimulus"":""run_exp/static/images/task_images/land.jpg"",""time"":955.7000000476837},{""stimulus"":""run_exp/static/images/task_images/dig.jpg"",""time"":1905.7000000476837}]",[],8,,,,,,,,,,,,,,
harvest,204,640146,0.0-63.0-1.0,"""event"",""trial"",""time""
""fullscreenenter"",""1"",""3700""
","
","
","""event"",""trial"",""time""
""fullscreenenter"",""1"",""3700""
","
",,null,run_exp/static/images/task_images/gems/33.jpg,null,,,,,,,26,,,8,,,,,33,0.790429846,0.787878788,,,,,,,
decision,205,640655,0.0-63.0-2.0,"""event"",""trial"",""time""
""fullscreenenter"",""1"",""3700""
","
","
","""event"",""trial"",""time""
""fullscreenenter"",""1"",""3700""
","
",,507.3,run_exp/static/images/task_images/land.jpg,65,,,,,,,26,,,8,,,,,,,,266998,1,5,FALSE,,,
dig,206,643168,0.0-64.0-0.0,"""event"",""trial"",""time""
""fullscreenenter"",""1"",""3700""
","
","
","""event"",""trial"",""time""
""fullscreenenter"",""1"",""3700""
","
",,,,,,,,,,,,"[{""stimulus"":""run_exp/static/images/task_images/dig.jpg"",""time"":0.6000001430511475},{""stimulus"":""run_exp/static/images/task_images/land.jpg"",""time"":842.9000000953674},{""stimulus"":""run_exp/static/images/task_images/dig.jpg"",""time"":1669}]",[],8,,,,,,,,,,,,,,
harvest,207,644178,0.0-64.0-1.0,"""event"",""trial"",""time""
""fullscreenenter"",""1"",""3700""
","
","
","""event"",""trial"",""time""
""fullscreenenter"",""1"",""3700""
","
",,null,run_exp/static/images/task_images/gems/26.jpg,null,,,,,,,20,,,8,,,,,26,0.7667578,0.769230769,,,,,,,
decision,208,644235,0.0-64.0-2.0,"""event"",""trial"",""time""
""fullscreenenter"",""1"",""3700""
","
","
","""event"",""trial"",""time""
""fullscreenenter"",""1"",""3700""
","
",,54.79999995,run_exp/static/images/task_images/land.jpg,65,,,,,,,20,,,8,,,,,,,,270578,1,6,FALSE,,,
dig,209,647198,0.0-65.0-0.0,"""event"",""trial"",""time""
""fullscreenenter"",""1"",""3700""
","
","
","""event"",""trial"",""time""
""fullscreenenter"",""1"",""3700""
","
",,,,,,,,,,,,"[{""stimulus"":""run_exp/static/images/task_images/dig.jpg"",""time"":0.6000001430511475},{""stimulus"":""run_exp/static/images/task_images/land.jpg"",""time"":992.2000000476837},{""stimulus"":""run_exp/static/images/task_images/dig.jpg"",""time"":1972.7000000476837}]",[],8,,,,,,,,,,,,,,
harvest,210,648200,0.0-65.0-1.0,"""event"",""trial"",""time""
""fullscreenenter"",""1"",""3700""
","
","
","""event"",""trial"",""time""
""fullscreenenter"",""1"",""3700""
","
",,null,run_exp/static/images/task_images/gems/20.jpg,null,,,,,,,15,,,8,,,,,20,0.751483731,0.75,,,,,,,
decision,211,648664,0.0-65.0-2.0,"""event"",""trial"",""time""
""fullscreenenter"",""1"",""3700""
","
","
","""event"",""trial"",""time""
""fullscreenenter"",""1"",""3700""
","
",,462.3999999,run_exp/static/images/task_images/land.jpg,76,,,,,,,15,,,8,,,,,,,,275007,1,7,TRUE,,,
travel,212,658204,0.0-66.0-0.0,"""event"",""trial"",""time""
""fullscreenenter"",""1"",""3700""
","
","
","""event"",""trial"",""time""
""fullscreenenter"",""1"",""3700""
","
",,,,,,,,,,,,"[{""stimulus"":""run_exp/static/images/task_images/rocket-01.jpg"",""time"":0.5},{""stimulus"":""run_exp/static/images/task_images/rocket-02.jpg"",""time"":1068},{""stimulus"":""run_exp/static/images/task_images/rocket-03.jpg"",""time"":2123.399999856949},{""stimulus"":""run_exp/static/images/task_images/rocket-04.jpg"",""time"":3187.5},{""stimulus"":""run_exp/static/images/task_images/rocket-05.jpg"",""time"":4247.799999952316},{""stimulus"":""run_exp/static/images/task_images/rocket-06.jpg"",""time"":5297.599999904633},{""stimulus"":""run_exp/static/images/task_images/rocket-07.jpg"",""time"":6358.599999904633},{""stimulus"":""run_exp/static/images/task_images/rocket-08.jpg"",""time"":7418.799999952316},{""stimulus"":""run_exp/static/images/task_images/rocket-09.jpg"",""time"":8477.5}]",[],8,,,,,,,,,,,,,,
alien_welcome,213,663217,0.0-66.0-1.0,"""event"",""trial"",""time""
""fullscreenenter"",""1"",""3700""
","
","
","""event"",""trial"",""time""
""fullscreenenter"",""1"",""3700""
","
",,null,run_exp/static/images/task_images/aliens/old_aliens/planet/alien_planet-20.jpg,null,,,,,,,,,,,,,20,"11,73,44,42,64,7,5,57,20,60,2,46,10,23,16,49,1,65,69,78,35,14,6,72,8,55,39,29,47,22,75,71,31,9,41,18,40",,,,,,,,,,
land,214,663727,0.0-66.0-2.0,"""event"",""trial"",""time""
""fullscreenenter"",""1"",""3700""
","
","
","""event"",""trial"",""time""
""fullscreenenter"",""1"",""3700""
","
",,null,run_exp/static/images/task_images/land.jpg,null,,,,,,,110,,,9,,,,,,,,,,,,,,
dig,215,665737,0.0-66.0-3.0,"""event"",""trial"",""time""
""fullscreenenter"",""1"",""3700""
","
","
","""event"",""trial"",""time""
""fullscreenenter"",""1"",""3700""
","
",,,,,,,,,,,,"[{""stimulus"":""run_exp/static/images/task_images/dig.jpg"",""time"":0.7999999523162842},{""stimulus"":""run_exp/static/images/task_images/land.jpg"",""time"":676.7999999523163},{""stimulus"":""run_exp/static/images/task_images/dig.jpg"",""time"":1344.7999999523163}]",[],9,,,,,,,,,,,,,,
harvest,216,666740,0.0-66.0-4.0,"""event"",""trial"",""time""
""fullscreenenter"",""1"",""3700""
","
","
","""event"",""trial"",""time""
""fullscreenenter"",""1"",""3700""
","
",,null,run_exp/static/images/task_images/gems/110.jpg,null,,,,,,,34,,,9,,,,,110,0.310984533,0.309090909,,,,,,,
decision,217,667694,0.0-66.0-5.0,"""event"",""trial"",""time""
""fullscreenenter"",""1"",""3700""
","
","
","""event"",""trial"",""time""
""fullscreenenter"",""1"",""3700""
","
",,952.5999999,run_exp/static/images/task_images/land.jpg,65,,,,,,,34,,,9,,,,,,,,294037,1,0,FALSE,,,
dig,218,669757,0.0-67.0-0.0,"""event"",""trial"",""time""
""fullscreenenter"",""1"",""3700""
","
","
","""event"",""trial"",""time""
""fullscreenenter"",""1"",""3700""
","
",,,,,,,,,,,,"[{""stimulus"":""run_exp/static/images/task_images/dig.jpg"",""time"":0.5},{""stimulus"":""run_exp/static/images/task_images/land.jpg"",""time"":692},{""stimulus"":""run_exp/static/images/task_images/dig.jpg"",""time"":1372.7000000476837}]",[],9,,,,,,,,,,,,,,
harvest,219,670760,0.0-67.0-1.0,"""event"",""trial"",""time""
""fullscreenenter"",""1"",""3700""
","
","
","""event"",""trial"",""time""
""fullscreenenter"",""1"",""3700""
","
",,null,run_exp/static/images/task_images/gems/34.jpg,null,,,,,,,9,,,9,,,,,34,0.266500118,0.264705882,,,,,,,
decision,220,670906,0.0-67.0-2.0,"""event"",""trial"",""time""
""fullscreenenter"",""1"",""3700""
","
","
","""event"",""trial"",""time""
""fullscreenenter"",""1"",""3700""
","
",,144.1999998,run_exp/static/images/task_images/land.jpg,65,,,,,,,9,,,9,,,,,,,,297248,1,1,FALSE,,,
dig,221,673767,0.0-68.0-0.0,"""event"",""trial"",""time""
""fullscreenenter"",""1"",""3700""
","
","
","""event"",""trial"",""time""
""fullscreenenter"",""1"",""3700""
","
",,,,,,,,,,,,"[{""stimulus"":""run_exp/static/images/task_images/dig.jpg"",""time"":0.20000004768371582},{""stimulus"":""run_exp/static/images/task_images/land.jpg"",""time"":957.6000001430511},{""stimulus"":""run_exp/static/images/task_images/dig.jpg"",""time"":1908.1000001430511}]",[],9,,,,,,,,,,,,,,
harvest,222,674769,0.0-68.0-1.0,"""event"",""trial"",""time""
""fullscreenenter"",""1"",""3700""
","
","
","""event"",""trial"",""time""
""fullscreenenter"",""1"",""3700""
","
",,null,run_exp/static/images/task_images/gems/9.jpg,null,,,,,,,2,,,9,,,,,9,0.238424323,0.222222222,,,,,,,
decision,223,675229,0.0-68.0-2.0,"""event"",""trial"",""time""
""fullscreenenter"",""1"",""3700""
","
","
","""event"",""trial"",""time""
""fullscreenenter"",""1"",""3700""
","
",,458.0999999,run_exp/static/images/task_images/land.jpg,65,,,,,,,2,,,9,,,,,,,,301571,1,2,TRUE,,,
end_of_block_continue,224,682038,0.0-69.0-0.0,"""event"",""trial"",""time""
""fullscreenenter"",""1"",""3700""
","
","
","""event"",""trial"",""time""
""fullscreenenter"",""1"",""3700""
","
",,6804,run_exp/static/audio/clip_32_block_end.m4a,,,,,,,0,,,,,,,,,,,,,,,,,,
alien_welcome,225,687048,0.0-70.0-0.0,"""event"",""trial"",""time""
""fullscreenenter"",""1"",""3700""
","
","
","""event"",""trial"",""time""
""fullscreenenter"",""1"",""3700""
","
",,null,run_exp/static/images/task_images/aliens/old_aliens/planet/alien_planet-60.jpg,null,,,,,,,,,,,,,60,"11,73,44,42,64,7,5,57,20,60,2,46,10,23,16,49,1,65,69,78,35,14,6,72,8,55,39,29,47,22,75,71,31,9,41,18,40",,,,,,,,,,
land,226,687558,0.0-70.0-1.0,"""event"",""trial"",""time""
""fullscreenenter"",""1"",""3700""
","
","
","""event"",""trial"",""time""
""fullscreenenter"",""1"",""3700""
","
",,null,run_exp/static/images/task_images/land.jpg,null,,,,,,,95,,,10,,,,,,,,,,,,,,
dig,227,689567,0.0-70.0-2.0,"""event"",""trial"",""time""
""fullscreenenter"",""1"",""3700""
","
","
","""event"",""trial"",""time""
""fullscreenenter"",""1"",""3700""
","
",,,,,,,,,,,,"[{""stimulus"":""run_exp/static/images/task_images/dig.jpg"",""time"":0.6999998092651367},{""stimulus"":""run_exp/static/images/task_images/land.jpg"",""time"":676.2999999523163},{""stimulus"":""run_exp/static/images/task_images/dig.jpg"",""time"":1342.5999999046326}]",[],10,,,,,,,,,,,,,,
harvest,228,690577,0.0-70.0-3.0,"""event"",""trial"",""time""
""fullscreenenter"",""1"",""3700""
","
","
","""event"",""trial"",""time""
""fullscreenenter"",""1"",""3700""
","
",,null,run_exp/static/images/task_images/gems/95.jpg,null,,,,,,,30,,,10,,,,,95,0.31989755,0.315789474,,,,,,,
decision,229,690860,0.0-70.0-4.0,"""event"",""trial"",""time""
""fullscreenenter"",""1"",""3700""
","
","
","""event"",""trial"",""time""
""fullscreenenter"",""1"",""3700""
","
",,279.6000001,run_exp/static/images/task_images/land.jpg,65,,,,,,,30,,,10,,,,,,,,8819,2,0,FALSE,,,
dig,230,693597,0.0-71.0-0.0,"""event"",""trial"",""time""
""fullscreenenter"",""1"",""3700""
","
","
","""event"",""trial"",""time""
""fullscreenenter"",""1"",""3700""
","
",,,,,,,,,,,,"[{""stimulus"":""run_exp/static/images/task_images/dig.jpg"",""time"":0.7000000476837158},{""stimulus"":""run_exp/static/images/task_images/land.jpg"",""time"":917.4000000953674},{""stimulus"":""run_exp/static/images/task_images/dig.jpg"",""time"":1815.9000000953674}]",[],10,,,,,,,,,,,,,,
harvest,231,694600,0.0-71.0-1.0,"""event"",""trial"",""time""
""fullscreenenter"",""1"",""3700""
","
","
","""event"",""trial"",""time""
""fullscreenenter"",""1"",""3700""
","
",,null,run_exp/static/images/task_images/gems/30.jpg,null,,,,,,,7,,,10,,,,,30,0.237243255,0.233333333,,,,,,,
decision,232,695115,0.0-71.0-2.0,"""event"",""trial"",""time""
""fullscreenenter"",""1"",""3700""
","
","
","""event"",""trial"",""time""
""fullscreenenter"",""1"",""3700""
","
",,513.4000001,run_exp/static/images/task_images/land.jpg,65,,,,,,,7,,,10,,,,,,,,13074,2,1,FALSE,,,
dig,233,697614,0.0-72.0-0.0,"""event"",""trial"",""time""
""fullscreenenter"",""1"",""3700""
","
","
","""event"",""trial"",""time""
""fullscreenenter"",""1"",""3700""
","
",,,,,,,,,,,,"[{""stimulus"":""run_exp/static/images/task_images/dig.jpg"",""time"":0.39999985694885254},{""stimulus"":""run_exp/static/images/task_images/land.jpg"",""time"":838.2999999523163},{""stimulus"":""run_exp/static/images/task_images/dig.jpg"",""time"":1668.7999999523163}]",[],10,,,,,,,,,,,,,,
harvest,234,698877,0.0-72.0-1.0,"""event"",""trial"",""time""
""fullscreenenter"",""1"",""3700""
","
","
","""event"",""trial"",""time""
""fullscreenenter"",""1"",""3700""
","
",,null,run_exp/static/images/task_images/gems/7.jpg,null,,,,,,,2,,,10,,,,,7,0.289276576,0.285714286,,,,,,,
decision,235,699079,0.0-72.0-2.0,"""event"",""trial"",""time""
""fullscreenenter"",""1"",""3700""
","
","
","""event"",""trial"",""time""
""fullscreenenter"",""1"",""3700""
","
",,199.6000001,run_exp/static/images/task_images/land.jpg,76,,,,,,,2,,,10,,,,,,,,17038,2,2,TRUE,,,
travel,236,708889,0.0-73.0-0.0,"""event"",""trial"",""time""
""fullscreenenter"",""1"",""3700""
","
","
","""event"",""trial"",""time""
""fullscreenenter"",""1"",""3700""
","
",,,,,,,,,,,,"[{""stimulus"":""run_exp/static/images/task_images/rocket-01.jpg"",""time"":0.7999999523162842},{""stimulus"":""run_exp/static/images/task_images/rocket-02.jpg"",""time"":1097.5999999046326},{""stimulus"":""run_exp/static/images/task_images/rocket-03.jpg"",""time"":2186.0999999046326},{""stimulus"":""run_exp/static/images/task_images/rocket-04.jpg"",""time"":3277.2000000476837},{""stimulus"":""run_exp/static/images/task_images/rocket-05.jpg"",""time"":4363.700000047684},{""stimulus"":""run_exp/static/images/task_images/rocket-06.jpg"",""time"":5446.700000047684},{""stimulus"":""run_exp/static/images/task_images/rocket-07.jpg"",""time"":6537.5},{""stimulus"":""run_exp/static/images/task_images/rocket-08.jpg"",""time"":7626.5},{""stimulus"":""run_exp/static/images/task_images/rocket-09.jpg"",""time"":8713.299999952316}]",[],10,,,,,,,,,,,,,,
alien_welcome,237,713892,0.0-73.0-1.0,"""event"",""trial"",""time""
""fullscreenenter"",""1"",""3700""
","
","
","""event"",""trial"",""time""
""fullscreenenter"",""1"",""3700""
","
",,null,run_exp/static/images/task_images/aliens/old_aliens/planet/alien_planet-2.jpg,null,,,,,,,,,,,,,2,"11,73,44,42,64,7,5,57,20,60,2,46,10,23,16,49,1,65,69,78,35,14,6,72,8,55,39,29,47,22,75,71,31,9,41,18,40",,,,,,,,,,
land,238,714397,0.0-73.0-2.0,"""event"",""trial"",""time""
""fullscreenenter"",""1"",""3700""
","
","
","""event"",""trial"",""time""
""fullscreenenter"",""1"",""3700""
","
",,null,run_exp/static/images/task_images/land.jpg,null,,,,,,,106,,,11,,,,,,,,,,,,,,
dig,239,716407,0.0-73.0-3.0,"""event"",""trial"",""time""
""fullscreenenter"",""1"",""3700""
","
","
","""event"",""trial"",""time""
""fullscreenenter"",""1"",""3700""
","
",,,,,,,,,,,,"[{""stimulus"":""run_exp/static/images/task_images/dig.jpg"",""time"":0.7999999523162842},{""stimulus"":""run_exp/static/images/task_images/land.jpg"",""time"":675.7000000476837},{""stimulus"":""run_exp/static/images/task_images/dig.jpg"",""time"":1346.6000001430511}]",[],11,,,,,,,,,,,,,,
harvest,240,717410,0.0-73.0-4.0,"""event"",""trial"",""time""
""fullscreenenter"",""1"",""3700""
","
","
","""event"",""trial"",""time""
""fullscreenenter"",""1"",""3700""
","
",,null,run_exp/static/images/task_images/gems/106.jpg,null,,,,,,,16,,,11,,,,,106,0.148032738,0.150943396,,,,,,,
decision,241,718387,0.0-73.0-5.0,"""event"",""trial"",""time""
""fullscreenenter"",""1"",""3700""
","
","
","""event"",""trial"",""time""
""fullscreenenter"",""1"",""3700""
","
",,975.6999998,run_exp/static/images/task_images/land.jpg,65,,,,,,,16,,,11,,,,,,,,36347,2,0,FALSE,,,
dig,242,720428,0.0-74.0-0.0,"""event"",""trial"",""time""
""fullscreenenter"",""1"",""3700""
","
","
","""event"",""trial"",""time""
""fullscreenenter"",""1"",""3700""
","
