trial_type,trial_index,time_elapsed,internal_node_id,interactions,blur_events,focus_events,fullscreenenter_events,fullscreenexit_events,success,rt,stimulus,key_press,prompt,subject_id,participant_id,age,gender,button_pressed,next_reward,animation_sequence,responses,planet,curr_prac_trial,n_prac_rounds,alien,aliens,reward_received,decay_rate_actual,decay_rate_exp,time_in_block,block_num,prt,last_trial_on_planet,button_html,bonus,num_failures
pavlovia,0,9,0.0-0.0,"""event"",""trial"",""time""
""fullscreenenter"",""1"",""46281""
","
","
","""event"",""trial"",""time""
""fullscreenenter"",""1"",""46281""
","
",,,,,,,,,,,,,,,,,,,,,,,,,,,,
fullscreen,1,47271,0.0-1.0,"""event"",""trial"",""time""
""fullscreenenter"",""1"",""46281""
","
","
","""event"",""trial"",""time""
""fullscreenenter"",""1"",""46281""
","
",TRUE,,,,,,,,,,,,,,,,,,,,,,,,,,,
instruc_welcome,2,57156,0.0-2.0,"""event"",""trial"",""time""
""fullscreenenter"",""1"",""46281""
","
","
","""event"",""trial"",""time""
""fullscreenenter"",""1"",""46281""
","
",,null,run_exp/static/audio/clip_1_welcome.m4a,null,"<p>Howdy! In this experiment, you’ll be an explorer traveling through space to collect space treasure.</p><p>Your mission is to collect as much treasure as possible.</p><br><br><p><img src='run_exp/static/images/task_images/opening_img-01.jpg' height='300' width='auto'></p>",9536,357,14.42,Male,,,,,,,,,,,,,,,,,,,
audio-keyboard-response,3,74175,0.0-3.0,"""event"",""trial"",""time""
""fullscreenenter"",""1"",""46281""
","
","
","""event"",""trial"",""time""
""fullscreenenter"",""1"",""46281""
","
",,null,run_exp/static/audio/clip_2_move.m4a,null,,,,,,,,,,,,,,,,,,,,,,,,
welcome_dec,4,75423,0.0-4.0,"""event"",""trial"",""time""
""fullscreenenter"",""1"",""46281""
","
","
","""event"",""trial"",""time""
""fullscreenenter"",""1"",""46281""
","
",,1241.6,"<p>Howdy! In this experiment, you’ll be an explorer traveling through space to collect space treasure.</p><p>Your mission is to collect as much treasure as possible.</p><br><br><p><img src='run_exp/static/images/task_images/opening_img-01.jpg' height='300' width='auto'></p>",,,,,,,1,,,,,,,,,,,,,,,,,,
html-keyboard-response,5,76108,0.0-5.0,"""event"",""trial"",""time""
""fullscreenenter"",""1"",""46281""
","
","
","""event"",""trial"",""time""
""fullscreenenter"",""1"",""46281""
","
",,680.1,"<p>Howdy! In this experiment, you’ll be an explorer traveling through space to collect space treasure.</p><p>Your mission is to collect as much treasure as possible.</p><br><br><p><img src='run_exp/static/images/task_images/opening_img-01.jpg' height='300' width='auto'></p><button class=""jspsych-html-btn-unchosen""><img src=""run_exp/static/images/task_images/planet-01.jpg"" height=""50""></button><button class=""jspsych-html-btn-chosen""><img src=""run_exp/static/images/task_images/planet-02.jpg"" height=""50""></button><p><b>[press the space bar to lock in your answer]<b><br></p>",32,,,,,,,,,,,,,,,,,,,,,,,,
instruc_goal,6,86594,0.0-6.0-0.0,"""event"",""trial"",""time""
""fullscreenenter"",""1"",""46281""
","
","
","""event"",""trial"",""time""
""fullscreenenter"",""1"",""46281""
","
",,null,run_exp/static/audio/clip_3_goal.m4a,null,"<p> As a space explorer, you’ll visit different planets to dig for space treasure, these pink gems.</p> <p> The more treasure you dig up, the more bonus money you’ll win! </p><br><br><p><img src='run_exp/static/images/task_images/pink_gem.jpg' height='300' width='auto'></p>",,,,,,,,,,,,,,,,,,,,,,,
instruc_goal,7,87784,0.0-6.0-1.0,"""event"",""trial"",""time""
""fullscreenenter"",""1"",""46281""
","
","
","""event"",""trial"",""time""
""fullscreenenter"",""1"",""46281""
","
",,1183.3,"<p> As a space explorer, you’ll visit different planets to dig for space treasure, these pink gems.</p> <p> The more treasure you dig up, the more bonus money you’ll win! </p><br><br><p><img src='run_exp/static/images/task_images/pink_gem.jpg' height='300' width='auto'></p>",,,,,,,0,,,,,,,,,,,,,,,,,,
html-keyboard-response,8,87876,0.0-6.0-2.0,"""event"",""trial"",""time""
""fullscreenenter"",""1"",""46281""
","
","
","""event"",""trial"",""time""
""fullscreenenter"",""1"",""46281""
","
",,87.5,"<p> As a space explorer, you’ll visit different planets to dig for space treasure, these pink gems.</p> <p> The more treasure you dig up, the more bonus money you’ll win! </p><br><br><p><img src='run_exp/static/images/task_images/pink_gem.jpg' height='300' width='auto'></p><button class=""jspsych-html-btn-chosen""><img src=""run_exp/static/images/task_images/planet-01.jpg"" height=""50""></button><button class=""jspsych-html-btn-unchosen""><img src=""run_exp/static/images/task_images/planet-02.jpg"" height=""50""></button><p><b>[press the space bar to lock in your answer]<b><br></p>",32,,,,,,,,,,,,,,,,,,,,,,,,
instruc_welcome,9,97986,0.0-7.0-0.0,"""event"",""trial"",""time""
""fullscreenenter"",""1"",""46281""
","
","
","""event"",""trial"",""time""
""fullscreenenter"",""1"",""46281""
","
",,null,run_exp/static/audio/clip_1_welcome.m4a,null,"<p>Howdy! In this experiment, you’ll be an explorer traveling through space to collect space treasure.</p><p>Your mission is to collect as much treasure as possible.</p><br><br><p><img src='run_exp/static/images/task_images/opening_img-01.jpg' height='300' width='auto'></p>",9536,357,14,Male,,,,,,,,,,,,,,,,,,,
audio-keyboard-response,10,115008,0.0-7.0-1.0,"""event"",""trial"",""time""
""fullscreenenter"",""1"",""46281""
","
","
","""event"",""trial"",""time""
""fullscreenenter"",""1"",""46281""
","
",,null,run_exp/static/audio/clip_2_move.m4a,null,,,,,,,,,,,,,,,,,,,,,,,,
welcome_dec,11,115531,0.0-7.0-2.0,"""event"",""trial"",""time""
""fullscreenenter"",""1"",""46281""
","
","
","""event"",""trial"",""time""
""fullscreenenter"",""1"",""46281""
","
",,516.5,"<p>Howdy! In this experiment, you’ll be an explorer traveling through space to collect space treasure.</p><p>Your mission is to collect as much treasure as possible.</p><br><br><p><img src='run_exp/static/images/task_images/opening_img-01.jpg' height='300' width='auto'></p>",,,,,,,1,,,,,,,,,,,,,,,,,,
html-keyboard-response,12,115864,0.0-7.0-3.0,"""event"",""trial"",""time""
""fullscreenenter"",""1"",""46281""
","
","
","""event"",""trial"",""time""
""fullscreenenter"",""1"",""46281""
","
",,328,"<p>Howdy! In this experiment, you’ll be an explorer traveling through space to collect space treasure.</p><p>Your mission is to collect as much treasure as possible.</p><br><br><p><img src='run_exp/static/images/task_images/opening_img-01.jpg' height='300' width='auto'></p><button class=""jspsych-html-btn-unchosen""><img src=""run_exp/static/images/task_images/planet-01.jpg"" height=""50""></button><button class=""jspsych-html-btn-chosen""><img src=""run_exp/static/images/task_images/planet-02.jpg"" height=""50""></button><p><b>[press the space bar to lock in your answer]<b><br></p>",32,,,,,,,,,,,,,,,,,,,,,,,,
instruc_goal,13,126274,0.0-8.0-0.0,"""event"",""trial"",""time""
""fullscreenenter"",""1"",""46281""
","
","
","""event"",""trial"",""time""
""fullscreenenter"",""1"",""46281""
","
",,null,run_exp/static/audio/clip_3_goal.m4a,null,"<p> As a space explorer, you’ll visit different planets to dig for space treasure, these pink gems.</p> <p> The more treasure you dig up, the more bonus money you’ll win! </p><br><br><p><img src='run_exp/static/images/task_images/pink_gem.jpg' height='300' width='auto'></p>",,,,,,,,,,,,,,,,,,,,,,,
instruc_goal,14,130626,0.0-8.0-1.0,"""event"",""trial"",""time""
""fullscreenenter"",""1"",""46281""
","
","
","""event"",""trial"",""time""
""fullscreenenter"",""1"",""46281""
","
",,4347.2,"<p> As a space explorer, you’ll visit different planets to dig for space treasure, these pink gems.</p> <p> The more treasure you dig up, the more bonus money you’ll win! </p><br><br><p><img src='run_exp/static/images/task_images/pink_gem.jpg' height='300' width='auto'></p>",,,,,,,1,,,,,,,,,,,,,,,,,,
html-keyboard-response,15,130731,0.0-8.0-2.0,"""event"",""trial"",""time""
""fullscreenenter"",""1"",""46281""
","
","
","""event"",""trial"",""time""
""fullscreenenter"",""1"",""46281""
","
",,101.5,"<p> As a space explorer, you’ll visit different planets to dig for space treasure, these pink gems.</p> <p> The more treasure you dig up, the more bonus money you’ll win! </p><br><br><p><img src='run_exp/static/images/task_images/pink_gem.jpg' height='300' width='auto'></p><button class=""jspsych-html-btn-unchosen""><img src=""run_exp/static/images/task_images/planet-01.jpg"" height=""50""></button><button class=""jspsych-html-btn-chosen""><img src=""run_exp/static/images/task_images/planet-02.jpg"" height=""50""></button><p><b>[press the space bar to lock in your answer]<b><br></p>",32,,,,,,,,,,,,,,,,,,,,,,,,
instruc_dig,16,147008,0.0-9.0-0.0,"""event"",""trial"",""time""
""fullscreenenter"",""1"",""46281""
","
","
","""event"",""trial"",""time""
""fullscreenenter"",""1"",""46281""
","
",,null,run_exp/static/audio/clip_4_dig.m4a,null,,,,,,,100,,,,,,,,,,,,,,,,,
instruc_dig_try,17,147543,0.0-9.0-1.0,"""event"",""trial"",""time""
""fullscreenenter"",""1"",""46281""
","
","
","""event"",""trial"",""time""
""fullscreenenter"",""1"",""46281""
","
",,531.6,"<p> When you’ve arrived at a new planet, you will dig once. </p> <p>Then, you get to decide if you want to stay on the planet and dig again or travel to a new planet and dig there.</p> <p> To stay and dig, press the letter <strong>‘A’</strong> on your keyboard. Try pressing it now! </p><p><img src='run_exp/static/images/task_images/land.jpg'  height='700' width='auto'></p>",65,"<p> When you’ve arrived at a new planet, you will dig once. </p> <p>Then, you get to decide if you want to stay on the planet and dig again or travel to a new planet and dig there.</p> <p> To stay and dig, press the letter <strong>‘A’</strong> on your keyboard. Try pressing it now! </p><p><img src='run_exp/static/images/task_images/land.jpg'  height='700' width='auto'></p>",,,,,,100,,,,,,,,,,,,,,,,,
dig_prac,18,149559,0.0-9.0-2.0,"""event"",""trial"",""time""
""fullscreenenter"",""1"",""46281""
","
","
","""event"",""trial"",""time""
""fullscreenenter"",""1"",""46281""
","
",,,,,,,,,,,,"[{""stimulus"":""run_exp/static/images/task_images/dig.jpg"",""time"":0.5},{""stimulus"":""run_exp/static/images/task_images/land.jpg"",""time"":668.8999999761581},{""stimulus"":""run_exp/static/images/task_images/dig.jpg"",""time"":1336.800000011921}]",[],,,,,,,,,,,,,,,
instruc_travel,19,186176,0.0-9.0-3.0,"""event"",""trial"",""time""
""fullscreenenter"",""1"",""46281""
","
","
","""event"",""trial"",""time""
""fullscreenenter"",""1"",""46281""
","
",,null,run_exp/static/audio/clip_5_travel.m4a,null,"<p>Every time you dig up gems, there are less gems on the planet, so the more you dig on a planet the fewer gems you’ll get with each dig.</p><p>When gems are running low, you may want to travel to a new planet. </p> <p>  Planets are very far apart in this galaxy, so it will take some time to travel between them. </p> <br><p>There are lots and lots of planets for you to visit, so you won’t be able to return to any planets you’ve seen before. </p><br><p>To leave this planet and travel to a new one, press the letter <strong>‘L’</strong> on your keyboard. Try pressing it now! </p><p><img src='run_exp/static/images/task_images/rocket-01.jpg'  height='600' width='auto'></p>",,,,,,,,,,,,,,,,,,,,,,,
instruc_travel_try,20,186787,0.0-9.0-4.0,"""event"",""trial"",""time""
""fullscreenenter"",""1"",""46281""
","
","
","""event"",""trial"",""time""
""fullscreenenter"",""1"",""46281""
","
",,606.5,"<p>Every time you dig up gems, there are less gems on the planet, so the more you dig on a planet the fewer gems you’ll get with each dig.</p><p>When gems are running low, you may want to travel to a new planet. </p> <p>  Planets are very far apart in this galaxy, so it will take some time to travel between them. </p> <br><p>There are lots and lots of planets for you to visit, so you won’t be able to return to any planets you’ve seen before. </p><br><p>To leave this planet and travel to a new one, press the letter <strong>‘L’</strong> on your keyboard. Try pressing it now! </p><p><img src='run_exp/static/images/task_images/rocket-01.jpg'  height='600' width='auto'></p>",76,"<p>Every time you dig up gems, there are less gems on the planet, so the more you dig on a planet the fewer gems you’ll get with each dig.</p><p>When gems are running low, you may want to travel to a new planet. </p> <p>  Planets are very far apart in this galaxy, so it will take some time to travel between them. </p> <br><p>There are lots and lots of planets for you to visit, so you won’t be able to return to any planets you’ve seen before. </p><br><p>To leave this planet and travel to a new one, press the letter <strong>‘L’</strong> on your keyboard. Try pressing it now! </p><p><img src='run_exp/static/images/task_images/rocket-01.jpg'  height='600' width='auto'></p>",,,,,,,,,,,,,,,,,,,,,,,
travel_prac,21,196795,0.0-9.0-5.0,"""event"",""trial"",""time""
""fullscreenenter"",""1"",""46281""
","
","
","""event"",""trial"",""time""
""fullscreenenter"",""1"",""46281""
","
",,,,,,,,,,,,"[{""stimulus"":""run_exp/static/images/task_images/rocket-01.jpg"",""time"":0.6000000238418579},{""stimulus"":""run_exp/static/images/task_images/rocket-02.jpg"",""time"":1114.4000000357628},{""stimulus"":""run_exp/static/images/task_images/rocket-03.jpg"",""time"":2224.600000023842},{""stimulus"":""run_exp/static/images/task_images/rocket-04.jpg"",""time"":3335.7000000476837},{""stimulus"":""run_exp/static/images/task_images/rocket-05.jpg"",""time"":4446.800000011921},{""stimulus"":""run_exp/static/images/task_images/rocket-06.jpg"",""time"":5557.700000047684},{""stimulus"":""run_exp/static/images/task_images/rocket-07.jpg"",""time"":6669},{""stimulus"":""run_exp/static/images/task_images/rocket-08.jpg"",""time"":7780.5},{""stimulus"":""run_exp/static/images/task_images/rocket-09.jpg"",""time"":8890.700000047684}]",[],0,,,,,,,,,,,,,,
instruc_alien_greet,22,224239,0.0-9.0-6.0,"""event"",""trial"",""time""
""fullscreenenter"",""1"",""46281""
","
","
","""event"",""trial"",""time""
""fullscreenenter"",""1"",""46281""
","
",,null,run_exp/static/audio/clip_6_alien.m4a,null,"<p>When you arrive at a new planet, the alien who owns the treasure mine on that planet will greet you!</p><p>The better an alien takes care of their mine the easier it is to dig for gems. Some aliens take better care of their mine than others. So, you won’t get exactly the same amount of gems on each planet.</p><p>What the alien looks like does not tell you anything about how many gems there are on the planet.</p><br><p><img src=""run_exp/static/images/task_images/aliens/instructions_aliens/planet/alien_planet-1.jpg""  height=""600"" width=""auto""></p>",,,,,,,,,,,,,,,,,,,,,,,
instruc_alien_greet,23,229190,0.0-9.0-7.0,"""event"",""trial"",""time""
""fullscreenenter"",""1"",""46281""
","
","
","""event"",""trial"",""time""
""fullscreenenter"",""1"",""46281""
","
",,4944.5,"<p>When you arrive at a new planet, the alien who owns the treasure mine on that planet will greet you!</p><p>The better an alien takes care of their mine the easier it is to dig for gems. Some aliens take better care of their mine than others. So, you won’t get exactly the same amount of gems on each planet.</p><p>What the alien looks like does not tell you anything about how many gems there are on the planet.</p><br><p><img src=""run_exp/static/images/task_images/aliens/instructions_aliens/planet/alien_planet-1.jpg""  height=""600"" width=""auto""></p>",,,,,,,1,,,,,,,,,,,,,,,,,,
html-keyboard-response,24,229227,0.0-9.0-8.0,"""event"",""trial"",""time""
""fullscreenenter"",""1"",""46281""
","
","
","""event"",""trial"",""time""
""fullscreenenter"",""1"",""46281""
","
",,31.5,"<p>When you arrive at a new planet, the alien who owns the treasure mine on that planet will greet you!</p><p>The better an alien takes care of their mine the easier it is to dig for gems. Some aliens take better care of their mine than others. So, you won’t get exactly the same amount of gems on each planet.</p><p>What the alien looks like does not tell you anything about how many gems there are on the planet.</p><br><p><img src=""run_exp/static/images/task_images/aliens/instructions_aliens/planet/alien_planet-1.jpg""  height=""600"" width=""auto""></p><button class=""jspsych-html-btn-unchosen""><img src=""run_exp/static/images/task_images/planet-01.jpg"" height=""50""></button><button class=""jspsych-html-btn-chosen""><img src=""run_exp/static/images/task_images/planet-02.jpg"" height=""50""></button><p><b>[press the space bar to lock in your answer]<b><br></p>",32,,,,,,,,,,,,,,,,,,,,,,,,
time_out,25,240751,0.0-10.0-0.0,"""event"",""trial"",""time""
""fullscreenenter"",""1"",""46281""
","
","
","""event"",""trial"",""time""
""fullscreenenter"",""1"",""46281""
","
",,null,run_exp/static/audio/clip_7_timeout.m4a,null,"<p>If you don't make your choice fast enough, you’ll have to wait a few seconds before you can make another one.</p><p>You can’t dig for more gems or travel to new planets. You just have to sit and wait.</p><br><p><img src='run_exp/static/images/task_images/time_out.jpg'  height='600' width='auto'></p>",,,,,,,,,,,,,,,,,,,,,,,
time_out,26,243345,0.0-10.0-1.0,"""event"",""trial"",""time""
""fullscreenenter"",""1"",""46281""
","
","
","""event"",""trial"",""time""
""fullscreenenter"",""1"",""46281""
","
",,2589.1,"<p>If you don't make your choice fast enough, you’ll have to wait a few seconds before you can make another one.</p><p>You can’t dig for more gems or travel to new planets. You just have to sit and wait.</p><br><p><img src='run_exp/static/images/task_images/time_out.jpg'  height='600' width='auto'></p>",,,,,,,1,,,,,,,,,,,,,,,,,,
html-keyboard-response,27,243424,0.0-10.0-2.0,"""event"",""trial"",""time""
""fullscreenenter"",""1"",""46281""
","
","
","""event"",""trial"",""time""
""fullscreenenter"",""1"",""46281""
","
",,75.30000001,"<p>If you don't make your choice fast enough, you’ll have to wait a few seconds before you can make another one.</p><p>You can’t dig for more gems or travel to new planets. You just have to sit and wait.</p><br><p><img src='run_exp/static/images/task_images/time_out.jpg'  height='600' width='auto'></p><button class=""jspsych-html-btn-unchosen""><img src=""run_exp/static/images/task_images/planet-01.jpg"" height=""50""></button><button class=""jspsych-html-btn-chosen""><img src=""run_exp/static/images/task_images/planet-02.jpg"" height=""50""></button><p><b>[press the space bar to lock in your answer]<b><br></p>",32,,,,,,,,,,,,,,,,,,,,,,,,
instruc_break,28,259313,0.0-11.0-0.0,"""event"",""trial"",""time""
""fullscreenenter"",""1"",""46281""
","
","
","""event"",""trial"",""time""
""fullscreenenter"",""1"",""46281""
","
",,null,run_exp/static/audio/clip_8_break.m4a,null,"<p> After digging and traveling for a while, you’ll be able to take a break at home base. </p><p>The game will last 20 minutes no matter what.</p><p>You will visit home base every 5 minutes, so, you will visit home base three times during the game.</p><br><p><img src='run_exp/static/images/task_images/home_base.jpg' height='600' width='auto'></p>",,,,,,,,,,,,,,,,,,,,,,,
instruc_break,29,264821,0.0-11.0-1.0,"""event"",""trial"",""time""
""fullscreenenter"",""1"",""46281""
","
","
","""event"",""trial"",""time""
""fullscreenenter"",""1"",""46281""
","
",,5502.1,"<p> After digging and traveling for a while, you’ll be able to take a break at home base. </p><p>The game will last 20 minutes no matter what.</p><p>You will visit home base every 5 minutes, so, you will visit home base three times during the game.</p><br><p><img src='run_exp/static/images/task_images/home_base.jpg' height='600' width='auto'></p>",,,,,,,1,,,,,,,,,,,,,,,,,,
html-keyboard-response,30,264939,0.0-11.0-2.0,"""event"",""trial"",""time""
""fullscreenenter"",""1"",""46281""
","
","
","""event"",""trial"",""time""
""fullscreenenter"",""1"",""46281""
","
",,112.9,"<p> After digging and traveling for a while, you’ll be able to take a break at home base. </p><p>The game will last 20 minutes no matter what.</p><p>You will visit home base every 5 minutes, so, you will visit home base three times during the game.</p><br><p><img src='run_exp/static/images/task_images/home_base.jpg' height='600' width='auto'></p><button class=""jspsych-html-btn-unchosen""><img src=""run_exp/static/images/task_images/planet-01.jpg"" height=""50""></button><button class=""jspsych-html-btn-chosen""><img src=""run_exp/static/images/task_images/planet-02.jpg"" height=""50""></button><p><b>[press the space bar to lock in your answer]<b><br></p>",32,,,,,,,,,,,,,,,,,,,,,,,,
instruc_prac_game,31,275442,0.0-12.0-0.0,"""event"",""trial"",""time""
""fullscreenenter"",""1"",""46281""
","
","
","""event"",""trial"",""time""
""fullscreenenter"",""1"",""46281""
","
",,null,run_exp/static/audio/clip_9_practice.m4a,null,"<p> Are you ready to play a practice game? </p> <p>In this practice game, you'll be digging up barrels of gems. But, in the real game, you'll be digging up the gems themselves. </p>",,,,,,,,,,,,,,,,,,,,,,,
html-button-response,32,278256,0.0-12.0-1.0,"""event"",""trial"",""time""
""fullscreenenter"",""1"",""46281""
","
","
","""event"",""trial"",""time""
""fullscreenenter"",""1"",""46281""
","
",,2810.1,"<p> Are you ready to play a practice game? </p> <p>In this practice game, you'll be digging up barrels of gems. But, in the real game, you'll be digging up the gems themselves. </p>",,,,,,,0,,,,,,,,,,,,,,,,,,
alien_welcome_prac,33,283266,0.0-13.0-0.0,"""event"",""trial"",""time""
""fullscreenenter"",""1"",""46281""
","
","
","""event"",""trial"",""time""
""fullscreenenter"",""1"",""46281""
","
",,null,run_exp/static/images/task_images/aliens/practice_aliens/planet/alien_planet-5.jpg,null,,,,,,,,,,,,,,,,,,,,,,,,
land_prac,34,283770,0.0-13.0-1.0,"""event"",""trial"",""time""
""fullscreenenter"",""1"",""46281""
","
","
","""event"",""trial"",""time""
""fullscreenenter"",""1"",""46281""
","
",,null,run_exp/static/images/task_images/land.jpg,null,,,,,,,98,,,0,,,,,,,,,,,,,,
dig_prac,35,285783,0.0-13.0-2.0,"""event"",""trial"",""time""
""fullscreenenter"",""1"",""46281""
","
","
","""event"",""trial"",""time""
""fullscreenenter"",""1"",""46281""
","
",,,,,,,,,,,,"[{""stimulus"":""run_exp/static/images/task_images/dig.jpg"",""time"":0.5},{""stimulus"":""run_exp/static/images/task_images/land.jpg"",""time"":670.3999999761581},{""stimulus"":""run_exp/static/images/task_images/dig.jpg"",""time"":1337.800000011921}]",[],,,,,,,,,,,,,,,
harvest_prac,36,286787,0.0-13.0-3.0,"""event"",""trial"",""time""
""fullscreenenter"",""1"",""46281""
","
","
","""event"",""trial"",""time""
""fullscreenenter"",""1"",""46281""
","
",,null,run_exp/static/images/task_images/barrel_text.jpg,null,,,,,,,,,,,,,,,,,,,,,,,,
decision_prac,37,288600,0.0-13.0-4.0,"""event"",""trial"",""time""
""fullscreenenter"",""1"",""46281""
","
","
","""event"",""trial"",""time""
""fullscreenenter"",""1"",""46281""
","
",,1809.5,run_exp/static/images/task_images/land.jpg,65,,,,,,,,,,,1,,,,,,,,,,,,,
dig_prac,38,290616,0.0-14.0-0.0,"""event"",""trial"",""time""
""fullscreenenter"",""1"",""46281""
","
","
","""event"",""trial"",""time""
""fullscreenenter"",""1"",""46281""
","
",,,,,,,,,,,,"[{""stimulus"":""run_exp/static/images/task_images/dig.jpg"",""time"":0.7999999523162842},{""stimulus"":""run_exp/static/images/task_images/land.jpg"",""time"":670.8999999761581},{""stimulus"":""run_exp/static/images/task_images/dig.jpg"",""time"":1337.699999988079}]",[],,,,,,,,,,,,,,,
harvest_prac,39,291619,0.0-14.0-1.0,"""event"",""trial"",""time""
""fullscreenenter"",""1"",""46281""
","
","
","""event"",""trial"",""time""
""fullscreenenter"",""1"",""46281""
","
",,null,run_exp/static/images/task_images/barrel_text.jpg,null,,,,,,,,,,,,,,,,,,,,,,,,
decision_prac,40,293302,0.0-14.0-2.0,"""event"",""trial"",""time""
""fullscreenenter"",""1"",""46281""
","
","
","""event"",""trial"",""time""
""fullscreenenter"",""1"",""46281""
","
",,1679.7,run_exp/static/images/task_images/land.jpg,76,,,,,,,,,,,2,,,,,,,,,,,,,
travel,41,301631,0.0-15.0-0.0,"""event"",""trial"",""time""
""fullscreenenter"",""1"",""46281""
","
","
","""event"",""trial"",""time""
""fullscreenenter"",""1"",""46281""
","
",,,,,,,,,,,,"[{""stimulus"":""run_exp/static/images/task_images/rocket-01.jpg"",""time"":0.5},{""stimulus"":""run_exp/static/images/task_images/rocket-02.jpg"",""time"":926.8999999761581},{""stimulus"":""run_exp/static/images/task_images/rocket-03.jpg"",""time"":1851.3999999761581},{""stimulus"":""run_exp/static/images/task_images/rocket-04.jpg"",""time"":2775.099999964237},{""stimulus"":""run_exp/static/images/task_images/rocket-05.jpg"",""time"":3698.899999976158},{""stimulus"":""run_exp/static/images/task_images/rocket-06.jpg"",""time"":4623},{""stimulus"":""run_exp/static/images/task_images/rocket-07.jpg"",""time"":5546.899999976158},{""stimulus"":""run_exp/static/images/task_images/rocket-08.jpg"",""time"":6471},{""stimulus"":""run_exp/static/images/task_images/rocket-09.jpg"",""time"":7394.799999952316}]",[],0,,,,,,,,,,,,,,
alien_welcome_prac,42,306635,0.0-15.0-1.0,"""event"",""trial"",""time""
""fullscreenenter"",""1"",""46281""
","
","
","""event"",""trial"",""time""
""fullscreenenter"",""1"",""46281""
","
",,null,run_exp/static/images/task_images/aliens/practice_aliens/planet/alien_planet-4.jpg,null,,,,,,,,,,,,,,,,,,,,,,,,
land_prac,43,307140,0.0-15.0-2.0,"""event"",""trial"",""time""
""fullscreenenter"",""1"",""46281""
","
","
","""event"",""trial"",""time""
""fullscreenenter"",""1"",""46281""
","
",,null,run_exp/static/images/task_images/land.jpg,null,,,,,,,102,,,0,,,,,,,,,,,,,,
dig_prac,44,309152,0.0-15.0-3.0,"""event"",""trial"",""time""
""fullscreenenter"",""1"",""46281""
","
","
","""event"",""trial"",""time""
""fullscreenenter"",""1"",""46281""
","
",,,,,,,,,,,,"[{""stimulus"":""run_exp/static/images/task_images/dig.jpg"",""time"":0.3999999761581421},{""stimulus"":""run_exp/static/images/task_images/land.jpg"",""time"":669.8999999761581},{""stimulus"":""run_exp/static/images/task_images/dig.jpg"",""time"":1337.2999999523163}]",[],,,,,,,,,,,,,,,
harvest_prac,45,310155,0.0-15.0-4.0,"""event"",""trial"",""time""
""fullscreenenter"",""1"",""46281""
","
","
","""event"",""trial"",""time""
""fullscreenenter"",""1"",""46281""
","
",,null,run_exp/static/images/task_images/barrel_text.jpg,null,,,,,,,,,,,,,,,,,,,,,,,,
decision_prac,46,310486,0.0-15.0-5.0,"""event"",""trial"",""time""
""fullscreenenter"",""1"",""46281""
","
","
","""event"",""trial"",""time""
""fullscreenenter"",""1"",""46281""
","
",,327.1,run_exp/static/images/task_images/land.jpg,65,,,,,,,,,,,3,,,,,,,,,,,,,
dig_prac,47,312501,0.0-16.0-0.0,"""event"",""trial"",""time""
""fullscreenenter"",""1"",""46281""
","
","
","""event"",""trial"",""time""
""fullscreenenter"",""1"",""46281""
","
",,,,,,,,,,,,"[{""stimulus"":""run_exp/static/images/task_images/dig.jpg"",""time"":0.5},{""stimulus"":""run_exp/static/images/task_images/land.jpg"",""time"":670.4000000357628},{""stimulus"":""run_exp/static/images/task_images/dig.jpg"",""time"":1337.1000000238419}]",[],,,,,,,,,,,,,,,
harvest_prac,48,313504,0.0-16.0-1.0,"""event"",""trial"",""time""
""fullscreenenter"",""1"",""46281""
","
","
","""event"",""trial"",""time""
""fullscreenenter"",""1"",""46281""
","
",,null,run_exp/static/images/task_images/barrel_text.jpg,null,,,,,,,,,,,,,,,,,,,,,,,,
decision_prac,49,313764,0.0-16.0-2.0,"""event"",""trial"",""time""
""fullscreenenter"",""1"",""46281""
","
","
","""event"",""trial"",""time""
""fullscreenenter"",""1"",""46281""
","
",,255.9,run_exp/static/images/task_images/land.jpg,65,,,,,,,,,,,4,,,,,,,,,,,,,
dig_prac,50,315777,0.0-17.0-0.0,"""event"",""trial"",""time""
""fullscreenenter"",""1"",""46281""
","
","
","""event"",""trial"",""time""
""fullscreenenter"",""1"",""46281""
","
",,,,,,,,,,,,"[{""stimulus"":""run_exp/static/images/task_images/dig.jpg"",""time"":0.5},{""stimulus"":""run_exp/static/images/task_images/land.jpg"",""time"":671.3000000119209},{""stimulus"":""run_exp/static/images/task_images/dig.jpg"",""time"":1337.5}]",[],,,,,,,,,,,,,,,
harvest_prac,51,316780,0.0-17.0-1.0,"""event"",""trial"",""time""
""fullscreenenter"",""1"",""46281""
","
","
","""event"",""trial"",""time""
""fullscreenenter"",""1"",""46281""
","
",,null,run_exp/static/images/task_images/barrel_text.jpg,null,,,,,,,,,,,,,,,,,,,,,,,,
decision_prac,52,316928,0.0-17.0-2.0,"""event"",""trial"",""time""
""fullscreenenter"",""1"",""46281""
","
","
","""event"",""trial"",""time""
""fullscreenenter"",""1"",""46281""
","
",,143.8,run_exp/static/images/task_images/land.jpg,65,,,,,,,,,,,,1,,,,,,,,,,,,
quiz_instruc,53,323168,0.0-18.0-0.0,"""event"",""trial"",""time""
""fullscreenenter"",""1"",""46281""
","
","
","""event"",""trial"",""time""
""fullscreenenter"",""1"",""46281""
","
",,6231.1,run_exp/static/audio/clip_10_quiz.m4a,,,,,,,0,,,,,,,,,,,,,,,,,,
instruc_repeat,54,366236,0.0-18.0-1.0,"""event"",""trial"",""time""
""fullscreenenter"",""1"",""46281""
","
","
","""event"",""trial"",""time""
""fullscreenenter"",""1"",""46281""
","
",,null,"<p> Are you ready to play a practice game? </p> <p>In this practice game, you'll be digging up barrels of gems. But, in the real game, you'll be digging up the gems themselves. </p>",null,"<p>In this game, your goal is to collect as many gems as you can. That’s how you will win bonus money. </p> <p>The entire game will last 20 minutes no matter how many gems you collect or how many planets you visit. </p><p>To stay on a planet and dig again, press the letter A on your keyboard. To leave for a new planet, press the letter L.</p><p>The more you dig on a planet, the fewer gems you’ll get with each dig which is why you might consider leaving for a new planet. </p><p>When you arrive at a new planet, you’ll be greeted by an alien. What the alien looks like does not tell you anything about how much treasure is on the planet. </p>",,,,,,,,,,,,,,,,,,,,,,,
instruc_repeat_continue,55,366858,0.0-18.0-2.0,"""event"",""trial"",""time""
""fullscreenenter"",""1"",""46281""
","
","
","""event"",""trial"",""time""
""fullscreenenter"",""1"",""46281""
","
",,618,"<p> Are you ready to play a practice game? </p> <p>In this practice game, you'll be digging up barrels of gems. But, in the real game, you'll be digging up the gems themselves. </p>",,,,,,,0,,,,,,,,,,,,,,,,,,
quiz_q_1_ask,56,380665,0.0-18.0-3.0,"""event"",""trial"",""time""
""fullscreenenter"",""1"",""46281""
","
","
","""event"",""trial"",""time""
""fullscreenenter"",""1"",""46281""
","
",,13800.9,run_exp/static/audio/clip_11_q1_ask.m4a,,,,,,,2,,,,,,,,,,,,,,,,,,
quiz_q_1_fb_correct,57,384792,0.0-19.0-0.0,"""event"",""trial"",""time""
""fullscreenenter"",""1"",""46281""
","
","
","""event"",""trial"",""time""
""fullscreenenter"",""1"",""46281""
","
",,null,run_exp/static/audio/clip_12_q1_correct.m4a,null,<p>That’s correct. You win extra money by collecting more gems.</p>,,,,,,,,,,,,,,,,,,,,,,,
quiz_q_2_ask,58,396855,0.0-19.0-1.0,"""event"",""trial"",""time""
""fullscreenenter"",""1"",""46281""
","
","
","""event"",""trial"",""time""
""fullscreenenter"",""1"",""46281""
","
",,12052.4,run_exp/static/audio/clip_14_q2_ask.m4a,,,,,,,1,,,,,,,,,,,,,,,,,,
quiz_q_2_fb_correct,59,401050,0.0-20.0-0.0,"""event"",""trial"",""time""
""fullscreenenter"",""1"",""46281""
","
","
","""event"",""trial"",""time""
""fullscreenenter"",""1"",""46281""
","
",,null,run_exp/static/audio/clip_15_q2_correct.m4a,null,<p>That’s correct. The experiment is 20 minutes no matter what.</p>,,,,,,,,,,,,,,,,,,,,,,,
quiz_q_3_ask,60,403799,0.0-20.0-1.0,"""event"",""trial"",""time""
""fullscreenenter"",""1"",""46281""
","
","
","""event"",""trial"",""time""
""fullscreenenter"",""1"",""46281""
","
",,2745.2,run_exp/static/audio/clip_17_q3_ask.m4a,,,,,,,1,,,,,,,,,,,,,,,,,,
quiz_q_3_fb_correct,61,408088,0.0-21.0-0.0,"""event"",""trial"",""time""
""fullscreenenter"",""1"",""46281""
","
","
","""event"",""trial"",""time""
""fullscreenenter"",""1"",""46281""
","
",,null,run_exp/static/audio/clip_18_q3_correct.m4a,null,<p> That’s correct. You press the letter L to travel to a new planet.</p>,,,,,,,,,,,,,,,,,,,,,,,
quiz_q_4_ask,62,415368,0.0-21.0-1.0,"""event"",""trial"",""time""
""fullscreenenter"",""1"",""46281""
","
","
","""event"",""trial"",""time""
""fullscreenenter"",""1"",""46281""
","
",,7274.8,run_exp/static/audio/clip_20_q4_ask.m4a,,,,,,,0,,,,,,,,,,,,,,,,,,
quiz_q_4_fb_correct,63,421018,0.0-22.0-0.0,"""event"",""trial"",""time""
""fullscreenenter"",""1"",""46281""
","
","
","""event"",""trial"",""time""
""fullscreenenter"",""1"",""46281""
","
",,null,run_exp/static/audio/clip_21_q4_correct.m4a,null,<p> That’s correct. The more you dig on a planet the fewer gems you’ll get with each dig. </p>,,,,,,,,,,,,,,,,,,,,,,,
quiz_q_5_ask,64,423879,0.0-22.0-1.0,"""event"",""trial"",""time""
""fullscreenenter"",""1"",""46281""
","
","
","""event"",""trial"",""time""
""fullscreenenter"",""1"",""46281""
","
",,2854.7,run_exp/static/audio/clip_23_q5_ask.m4a,,,,,,,1,,,,,,,,,,,,,,,,,,
quiz_q_5_fb_correct,65,429208,0.0-23.0-0.0,"""event"",""trial"",""time""
""fullscreenenter"",""1"",""46281""
","
","
","""event"",""trial"",""time""
""fullscreenenter"",""1"",""46281""
","
",,null,run_exp/static/audio/clip_24_q5_correct.m4a,null,<p> That’s correct. The alien tells you nothing about how much treasure is on the planet.</p>,,,,,,,,,,,,,,,,,,,,,,,
quiz_correct,66,433048,0.0-24.0-0.0,"""event"",""trial"",""time""
""fullscreenenter"",""1"",""46281""
","
","
","""event"",""trial"",""time""
""fullscreenenter"",""1"",""46281""
","
",,null,run_exp/static/audio/clip_26_correct_quiz.m4a,null,,,,,,,,,,,,,,,,,,,,,,,,
quiz_correct_continue,67,433948,0.0-24.0-1.0,"""event"",""trial"",""time""
""fullscreenenter"",""1"",""46281""
","
","
","""event"",""trial"",""time""
""fullscreenenter"",""1"",""46281""
","
",,897.6,<p>Good job! You're now ready to move on to the real game!</p>,,,,,,,0,,,,,,,,,,,,,,,,,,
audio-keyboard-response,68,444440,0.0-24.0-2.0,"""event"",""trial"",""time""
""fullscreenenter"",""1"",""46281""
","
","
","""event"",""trial"",""time""
""fullscreenenter"",""1"",""46281""
","
",,null,run_exp/static/audio/clip_28_real_game.m4a,null,,,,,,,,,,,,,,,,,,,,,,,,
instruc_begin_exp_contine,69,447322,0.0-24.0-3.0,"""event"",""trial"",""time""
""fullscreenenter"",""1"",""46281""
","
","
","""event"",""trial"",""time""
""fullscreenenter"",""1"",""46281""
","
",,2876.8,"<p>Now that you know how  to dig for space treasure and travel to new planets,you can start exploring! </p><p>Do you want to go over the instructions again or get started with the real game?</p>",,,,,,,1,,,,,,1,,,,,,,,,,,,
alien_welcome,70,452330,0.0-25.0-0.0,"""event"",""trial"",""time""
""fullscreenenter"",""1"",""46281""
","
","
","""event"",""trial"",""time""
""fullscreenenter"",""1"",""46281""
","
",,null,run_exp/static/images/task_images/aliens/old_aliens/planet/alien_planet-29.jpg,null,,,,,,,,,,,,,29,"29,71,25,36,31,14,53,39,59,61,56,15,74,42,21,65,62,13,33,35,20,34,2,7,72,28,16,73,6,43,38,9,18,76,11,40,54,46,78,45",,,,,,,,,,
land,71,452834,0.0-25.0-1.0,"""event"",""trial"",""time""
""fullscreenenter"",""1"",""46281""
","
","
","""event"",""trial"",""time""
""fullscreenenter"",""1"",""46281""
","
",,null,run_exp/static/images/task_images/land.jpg,null,,,,,,,98,,,1,,,,,,,,,,,,,,
dig,72,454841,0.0-25.0-2.0,"""event"",""trial"",""time""
""fullscreenenter"",""1"",""46281""
","
","
","""event"",""trial"",""time""
""fullscreenenter"",""1"",""46281""
","
",,,,,,,,,,,,"[{""stimulus"":""run_exp/static/images/task_images/dig.jpg"",""time"":0.699999988079071},{""stimulus"":""run_exp/static/images/task_images/land.jpg"",""time"":669.9000000357628},{""stimulus"":""run_exp/static/images/task_images/dig.jpg"",""time"":1336.6000000238419}]",[],1,,,,,,,,,,,,,,
harvest,73,455844,0.0-25.0-3.0,"""event"",""trial"",""time""
""fullscreenenter"",""1"",""46281""
","
","
","""event"",""trial"",""time""
""fullscreenenter"",""1"",""46281""
","
",,null,run_exp/static/images/task_images/gems/98.jpg,null,,,,,,,16,,,1,,,,,98,0.163641018,0.163265306,,,,,,,
decision,74,455894,0.0-25.0-4.0,"""event"",""trial"",""time""
""fullscreenenter"",""1"",""46281""
","
","
","""event"",""trial"",""time""
""fullscreenenter"",""1"",""46281""
","
",,46.20000005,run_exp/static/images/task_images/land.jpg,65,,,,,,,16,,,1,,,,,,,,8567,1,0,FALSE,,,
dig,75,458856,0.0-26.0-0.0,"""event"",""trial"",""time""
""fullscreenenter"",""1"",""46281""
","
","
","""event"",""trial"",""time""
""fullscreenenter"",""1"",""46281""
","
",,,,,,,,,,,,"[{""stimulus"":""run_exp/static/images/task_images/dig.jpg"",""time"":0.2999999523162842},{""stimulus"":""run_exp/static/images/task_images/land.jpg"",""time"":985.6999999880791},{""stimulus"":""run_exp/static/images/task_images/dig.jpg"",""time"":1969.8999999761581}]",[],1,,,,,,,,,,,,,,
harvest,76,459858,0.0-26.0-1.0,"""event"",""trial"",""time""
""fullscreenenter"",""1"",""46281""
","
","
","""event"",""trial"",""time""
""fullscreenenter"",""1"",""46281""
","
",,null,run_exp/static/images/task_images/gems/16.jpg,null,,,,,,,4,,,1,,,,,16,0.278508352,0.25,,,,,,,
decision,77,460514,0.0-26.0-2.0,"""event"",""trial"",""time""
""fullscreenenter"",""1"",""46281""
","
","
","""event"",""trial"",""time""
""fullscreenenter"",""1"",""46281""
","
",,653.1,run_exp/static/images/task_images/land.jpg,65,,,,,,,4,,,1,,,,,,,,13186,1,1,FALSE,,,
dig,78,462871,0.0-27.0-0.0,"""event"",""trial"",""time""
""fullscreenenter"",""1"",""46281""
","
","
","""event"",""trial"",""time""
""fullscreenenter"",""1"",""46281""
","
",,,,,,,,,,,,"[{""stimulus"":""run_exp/static/images/task_images/dig.jpg"",""time"":0.5},{""stimulus"":""run_exp/static/images/task_images/land.jpg"",""time"":784.5},{""stimulus"":""run_exp/static/images/task_images/dig.jpg"",""time"":1566.7999999523163}]",[],1,,,,,,,,,,,,,,
harvest,79,463873,0.0-27.0-1.0,"""event"",""trial"",""time""
""fullscreenenter"",""1"",""46281""
","
","
","""event"",""trial"",""time""
""fullscreenenter"",""1"",""46281""
","
",,null,run_exp/static/images/task_images/gems/4.jpg,null,,,,,,,1,,,1,,,,,4,0.311475828,0.25,,,,,,,
decision,80,464454,0.0-27.0-2.0,"""event"",""trial"",""time""
""fullscreenenter"",""1"",""46281""
","
","
","""event"",""trial"",""time""
""fullscreenenter"",""1"",""46281""
","
",,578.8,run_exp/static/images/task_images/land.jpg,65,,,,,,,1,,,1,,,,,,,,17127,1,2,FALSE,,,
dig,81,466884,0.0-28.0-0.0,"""event"",""trial"",""time""
""fullscreenenter"",""1"",""46281""
","
","
","""event"",""trial"",""time""
""fullscreenenter"",""1"",""46281""
","
",,,,,,,,,,,,"[{""stimulus"":""run_exp/static/images/task_images/dig.jpg"",""time"":0.30000001192092896},{""stimulus"":""run_exp/static/images/task_images/land.jpg"",""time"":808.8999999761581},{""stimulus"":""run_exp/static/images/task_images/dig.jpg"",""time"":1616.0999999642372}]",[],1,,,,,,,,,,,,,,
harvest,82,467887,0.0-28.0-1.0,"""event"",""trial"",""time""
""fullscreenenter"",""1"",""46281""
","
","
","""event"",""trial"",""time""
""fullscreenenter"",""1"",""46281""
","
",,null,run_exp/static/images/task_images/gems/1.jpg,null,,,,,,,0,,,1,,,,,1,0.177194977,0,,,,,,,
decision,83,468697,0.0-28.0-2.0,"""event"",""trial"",""time""
""fullscreenenter"",""1"",""46281""
","
","
","""event"",""trial"",""time""
""fullscreenenter"",""1"",""46281""
","
",,807.7,run_exp/static/images/task_images/land.jpg,65,,,,,,,0,,,1,,,,,,,,21370,1,3,FALSE,,,
dig,84,470896,0.0-29.0-0.0,"""event"",""trial"",""time""
""fullscreenenter"",""1"",""46281""
","
","
","""event"",""trial"",""time""
""fullscreenenter"",""1"",""46281""
","
",,,,,,,,,,,,"[{""stimulus"":""run_exp/static/images/task_images/dig.jpg"",""time"":0.30000001192092896},{""stimulus"":""run_exp/static/images/task_images/land.jpg"",""time"":732.1999999880791},{""stimulus"":""run_exp/static/images/task_images/dig.jpg"",""time"":1462}]",[],1,,,,,,,,,,,,,,
harvest,85,471898,0.0-29.0-1.0,"""event"",""trial"",""time""
""fullscreenenter"",""1"",""46281""
","
","
","""event"",""trial"",""time""
""fullscreenenter"",""1"",""46281""
","
",,null,run_exp/static/images/task_images/gems/0.jpg,null,,,,,,,0,,,1,,,,,0,0.142908529,NaN,,,,,,,
decision,86,473992,0.0-29.0-2.0,"""event"",""trial"",""time""
""fullscreenenter"",""1"",""46281""
","
","
","""event"",""trial"",""time""
""fullscreenenter"",""1"",""46281""
","
",,2090.9,run_exp/static/images/task_images/land.jpg,76,,,,,,,0,,,1,,,,,,,,26665,1,4,TRUE,,,
travel,87,481904,0.0-30.0-0.0,"""event"",""trial"",""time""
""fullscreenenter"",""1"",""46281""
","
","
","""event"",""trial"",""time""
""fullscreenenter"",""1"",""46281""
","
",,,,,,,,,,,,"[{""stimulus"":""run_exp/static/images/task_images/rocket-01.jpg"",""time"":0.30000001192092896},{""stimulus"":""run_exp/static/images/task_images/rocket-02.jpg"",""time"":880.1999999880791},{""stimulus"":""run_exp/static/images/task_images/rocket-03.jpg"",""time"":1758},{""stimulus"":""run_exp/static/images/task_images/rocket-04.jpg"",""time"":2635.899999976158},{""stimulus"":""run_exp/static/images/task_images/rocket-05.jpg"",""time"":3513.699999988079},{""stimulus"":""run_exp/static/images/task_images/rocket-06.jpg"",""time"":4392},{""stimulus"":""run_exp/static/images/task_images/rocket-07.jpg"",""time"":5269.699999988079},{""stimulus"":""run_exp/static/images/task_images/rocket-08.jpg"",""time"":6148.100000023842},{""stimulus"":""run_exp/static/images/task_images/rocket-09.jpg"",""time"":7025.800000011921}]",[],1,,,,,,,,,,,,,,
alien_welcome,88,486907,0.0-30.0-1.0,"""event"",""trial"",""time""
""fullscreenenter"",""1"",""46281""
","
","
","""event"",""trial"",""time""
""fullscreenenter"",""1"",""46281""
","
",,null,run_exp/static/images/task_images/aliens/old_aliens/planet/alien_planet-71.jpg,null,,,,,,,,,,,,,71,"29,71,25,36,31,14,53,39,59,61,56,15,74,42,21,65,62,13,33,35,20,34,2,7,72,28,16,73,6,43,38,9,18,76,11,40,54,46,78,45",,,,,,,,,,
land,89,487410,0.0-30.0-2.0,"""event"",""trial"",""time""
""fullscreenenter"",""1"",""46281""
","
","
","""event"",""trial"",""time""
""fullscreenenter"",""1"",""46281""
","
",,null,run_exp/static/images/task_images/land.jpg,null,,,,,,,101,,,2,,,,,,,,,,,,,,
dig,90,489417,0.0-30.0-3.0,"""event"",""trial"",""time""
""fullscreenenter"",""1"",""46281""
","
","
","""event"",""trial"",""time""
""fullscreenenter"",""1"",""46281""
","
",,,,,,,,,,,,"[{""stimulus"":""run_exp/static/images/task_images/dig.jpg"",""time"":0.6000000238418579},{""stimulus"":""run_exp/static/images/task_images/land.jpg"",""time"":669.8000000119209},{""stimulus"":""run_exp/static/images/task_images/dig.jpg"",""time"":1336.7000000476837}]",[],2,,,,,,,,,,,,,,
harvest,91,490420,0.0-30.0-4.0,"""event"",""trial"",""time""
""fullscreenenter"",""1"",""46281""
","
","
","""event"",""trial"",""time""
""fullscreenenter"",""1"",""46281""
","
",,null,run_exp/static/images/task_images/gems/101.jpg,null,,,,,,,20,,,2,,,,,101,0.196627591,0.198019802,,,,,,,
decision,92,490861,0.0-30.0-5.0,"""event"",""trial"",""time""
""fullscreenenter"",""1"",""46281""
","
","
","""event"",""trial"",""time""
""fullscreenenter"",""1"",""46281""
","
",,436.8,run_exp/static/images/task_images/land.jpg,65,,,,,,,20,,,2,,,,,,,,43533,1,0,FALSE,,,
dig,93,493433,0.0-31.0-0.0,"""event"",""trial"",""time""
""fullscreenenter"",""1"",""46281""
","
","
","""event"",""trial"",""time""
""fullscreenenter"",""1"",""46281""
","
",,,,,,,,,,,,"[{""stimulus"":""run_exp/static/images/task_images/dig.jpg"",""time"":0.30000001192092896},{""stimulus"":""run_exp/static/images/task_images/land.jpg"",""time"":855.9000000357628},{""stimulus"":""run_exp/static/images/task_images/dig.jpg"",""time"":1710}]",[],2,,,,,,,,,,,,,,
harvest,94,494435,0.0-31.0-1.0,"""event"",""trial"",""time""
""fullscreenenter"",""1"",""46281""
","
","
","""event"",""trial"",""time""
""fullscreenenter"",""1"",""46281""
","
",,null,run_exp/static/images/task_images/gems/20.jpg,null,,,,,,,4,,,2,,,,,20,0.184911252,0.2,,,,,,,
decision,95,494695,0.0-31.0-2.0,"""event"",""trial"",""time""
""fullscreenenter"",""1"",""46281""
","
","
","""event"",""trial"",""time""
""fullscreenenter"",""1"",""46281""
","
",,257.2,run_exp/static/images/task_images/land.jpg,65,,,,,,,4,,,2,,,,,,,,47367,1,1,FALSE,,,
dig,96,497447,0.0-32.0-0.0,"""event"",""trial"",""time""
""fullscreenenter"",""1"",""46281""
","
","
","""event"",""trial"",""time""
""fullscreenenter"",""1"",""46281""
","
",,,,,,,,,,,,"[{""stimulus"":""run_exp/static/images/task_images/dig.jpg"",""time"":0.40000003576278687},{""stimulus"":""run_exp/static/images/task_images/land.jpg"",""time"":915.9000000357628},{""stimulus"":""run_exp/static/images/task_images/dig.jpg"",""time"":1829.9000000357628}]",[],2,,,,,,,,,,,,,,
harvest,97,498449,0.0-32.0-1.0,"""event"",""trial"",""time""
""fullscreenenter"",""1"",""46281""
","
","
","""event"",""trial"",""time""
""fullscreenenter"",""1"",""46281""
","
",,null,run_exp/static/images/task_images/gems/4.jpg,null,,,,,,,1,,,2,,,,,4,0.25253829,0.25,,,,,,,
decision,98,498645,0.0-32.0-2.0,"""event"",""trial"",""time""
""fullscreenenter"",""1"",""46281""
","
","
","""event"",""trial"",""time""
""fullscreenenter"",""1"",""46281""
","
",,193.6,run_exp/static/images/task_images/land.jpg,65,,,,,,,1,,,2,,,,,,,,51318,1,2,FALSE,,,
dig,99,501459,0.0-33.0-0.0,"""event"",""trial"",""time""
""fullscreenenter"",""1"",""46281""
","
","
","""event"",""trial"",""time""
""fullscreenenter"",""1"",""46281""
","
",,,,,,,,,,,,"[{""stimulus"":""run_exp/static/images/task_images/dig.jpg"",""time"":0.699999988079071},{""stimulus"":""run_exp/static/images/task_images/land.jpg"",""time"":937.5},{""stimulus"":""run_exp/static/images/task_images/dig.jpg"",""time"":1872.699999988079}]",[],2,,,,,,,,,,,,,,
harvest,100,502462,0.0-33.0-1.0,"""event"",""trial"",""time""
""fullscreenenter"",""1"",""46281""
","
","
","""event"",""trial"",""time""
""fullscreenenter"",""1"",""46281""
","
",,null,run_exp/static/images/task_images/gems/1.jpg,null,,,,,,,0,,,2,,,,,1,0.121932467,0,,,,,,,
decision,101,503839,0.0-33.0-2.0,"""event"",""trial"",""time""
""fullscreenenter"",""1"",""46281""
","
","
","""event"",""trial"",""time""
""fullscreenenter"",""1"",""46281""
","
",,1373.8,run_exp/static/images/task_images/land.jpg,65,,,,,,,0,,,2,,,,,,,,56511,1,3,FALSE,,,
dig,102,505476,0.0-34.0-0.0,"""event"",""trial"",""time""
""fullscreenenter"",""1"",""46281""
","
","
","""event"",""trial"",""time""
""fullscreenenter"",""1"",""46281""
","
",,,,,,,,,,,,"[{""stimulus"":""run_exp/static/images/task_images/dig.jpg"",""time"":0.7000000476837158},{""stimulus"":""run_exp/static/images/task_images/land.jpg"",""time"":544.8000000119209},{""stimulus"":""run_exp/static/images/task_images/dig.jpg"",""time"":1086.6000000238419}]",[],2,,,,,,,,,,,,,,
harvest,103,506479,0.0-34.0-1.0,"""event"",""trial"",""time""
""fullscreenenter"",""1"",""46281""
","
","
","""event"",""trial"",""time""
""fullscreenenter"",""1"",""46281""
","
",,null,run_exp/static/images/task_images/gems/0.jpg,null,,,,,,,0,,,2,,,,,0,0.276140223,NaN,,,,,,,
decision,104,506556,0.0-34.0-2.0,"""event"",""trial"",""time""
""fullscreenenter"",""1"",""46281""
","
","
","""event"",""trial"",""time""
""fullscreenenter"",""1"",""46281""
","
",,73.19999999,run_exp/static/images/task_images/land.jpg,76,,,,,,,0,,,2,,,,,,,,59229,1,4,TRUE,,,
travel,105,516487,0.0-35.0-0.0,"""event"",""trial"",""time""
""fullscreenenter"",""1"",""46281""
","
","
","""event"",""trial"",""time""
""fullscreenenter"",""1"",""46281""
","
",,,,,,,,,,,,"[{""stimulus"":""run_exp/static/images/task_images/rocket-01.jpg"",""time"":0.2999999523162842},{""stimulus"":""run_exp/static/images/task_images/rocket-02.jpg"",""time"":1103.8999999761581},{""stimulus"":""run_exp/static/images/task_images/rocket-03.jpg"",""time"":2206.099999964237},{""stimulus"":""run_exp/static/images/task_images/rocket-04.jpg"",""time"":3307.7999999523163},{""stimulus"":""run_exp/static/images/task_images/rocket-05.jpg"",""time"":4410.299999952316},{""stimulus"":""run_exp/static/images/task_images/rocket-06.jpg"",""time"":5511.699999988079},{""stimulus"":""run_exp/static/images/task_images/rocket-07.jpg"",""time"":6613.799999952316},{""stimulus"":""run_exp/static/images/task_images/rocket-08.jpg"",""time"":7716},{""stimulus"":""run_exp/static/images/task_images/rocket-09.jpg"",""time"":8818.199999988079}]",[],2,,,,,,,,,,,,,,
alien_welcome,106,521491,0.0-35.0-1.0,"""event"",""trial"",""time""
""fullscreenenter"",""1"",""46281""
","
","
","""event"",""trial"",""time""
""fullscreenenter"",""1"",""46281""
","
",,null,run_exp/static/images/task_images/aliens/old_aliens/planet/alien_planet-25.jpg,null,,,,,,,,,,,,,25,"29,71,25,36,31,14,53,39,59,61,56,15,74,42,21,65,62,13,33,35,20,34,2,7,72,28,16,73,6,43,38,9,18,76,11,40,54,46,78,45",,,,,,,,,,
land,107,521993,0.0-35.0-2.0,"""event"",""trial"",""time""
""fullscreenenter"",""1"",""46281""
","
","
","""event"",""trial"",""time""
""fullscreenenter"",""1"",""46281""
","
",,null,run_exp/static/images/task_images/land.jpg,null,,,,,,,96,,,3,,,,,,,,,,,,,,
dig,108,524001,0.0-35.0-3.0,"""event"",""trial"",""time""
""fullscreenenter"",""1"",""46281""
","
","
","""event"",""trial"",""time""
""fullscreenenter"",""1"",""46281""
","
",,,,,,,,,,,,"[{""stimulus"":""run_exp/static/images/task_images/dig.jpg"",""time"":0.5999999642372131},{""stimulus"":""run_exp/static/images/task_images/land.jpg"",""time"":669.5999999642372},{""stimulus"":""run_exp/static/images/task_images/dig.jpg"",""time"":1336.5999999642372}]",[],3,,,,,,,,,,,,,,
harvest,109,525003,0.0-35.0-4.0,"""event"",""trial"",""time""
""fullscreenenter"",""1"",""46281""
","
","
","""event"",""trial"",""time""
""fullscreenenter"",""1"",""46281""
","
",,null,run_exp/static/images/task_images/gems/96.jpg,null,,,,,,,47,,,3,,,,,96,0.494571413,0.489583333,,,,,,,
decision,110,525766,0.0-35.0-5.0,"""event"",""trial"",""time""
""fullscreenenter"",""1"",""46281""
","
","
","""event"",""trial"",""time""
""fullscreenenter"",""1"",""46281""
","
",,760.5,run_exp/static/images/task_images/land.jpg,65,,,,,,,47,,,3,,,,,,,,78438,1,0,FALSE,,,
dig,111,528011,0.0-36.0-0.0,"""event"",""trial"",""time""
""fullscreenenter"",""1"",""46281""
","
","
","""event"",""trial"",""time""
""fullscreenenter"",""1"",""46281""
","
",,,,,,,,,,,,"[{""stimulus"":""run_exp/static/images/task_images/dig.jpg"",""time"":0.3999999761581421},{""stimulus"":""run_exp/static/images/task_images/land.jpg"",""time"":748.1999999880791},{""stimulus"":""run_exp/static/images/task_images/dig.jpg"",""time"":1494.199999988079}]",[],3,,,,,,,,,,,,,,
harvest,112,529013,0.0-36.0-1.0,"""event"",""trial"",""time""
""fullscreenenter"",""1"",""46281""
","
","
","""event"",""trial"",""time""
""fullscreenenter"",""1"",""46281""
","
",,null,run_exp/static/images/task_images/gems/47.jpg,null,,,,,,,23,,,3,,,,,47,0.481740753,0.489361702,,,,,,,
decision,113,529093,0.0-36.0-2.0,"""event"",""trial"",""time""
""fullscreenenter"",""1"",""46281""
","
","
","""event"",""trial"",""time""
""fullscreenenter"",""1"",""46281""
","
",,77.19999999,run_exp/static/images/task_images/land.jpg,65,,,,,,,23,,,3,,,,,,,,81765,1,1,FALSE,,,
dig,114,532024,0.0-37.0-0.0,"""event"",""trial"",""time""
""fullscreenenter"",""1"",""46281""
","
","
","""event"",""trial"",""time""
""fullscreenenter"",""1"",""46281""
","
",,,,,,,,,,,,"[{""stimulus"":""run_exp/static/images/task_images/dig.jpg"",""time"":0.30000001192092896},{""stimulus"":""run_exp/static/images/task_images/land.jpg"",""time"":976.1000000238419},{""stimulus"":""run_exp/static/images/task_images/dig.jpg"",""time"":1949.8999999761581}]",[],3,,,,,,,,,,,,,,
harvest,115,533027,0.0-37.0-1.0,"""event"",""trial"",""time""
""fullscreenenter"",""1"",""46281""
","
","
","""event"",""trial"",""time""
""fullscreenenter"",""1"",""46281""
","
",,null,run_exp/static/images/task_images/gems/23.jpg,null,,,,,,,12,,,3,,,,,23,0.540288919,0.52173913,,,,,,,
decision,116,533946,0.0-37.0-2.0,"""event"",""trial"",""time""
""fullscreenenter"",""1"",""46281""
","
","
","""event"",""trial"",""time""
""fullscreenenter"",""1"",""46281""
","
",,916.3,run_exp/static/images/task_images/land.jpg,65,,,,,,,12,,,3,,,,,,,,86618,1,2,FALSE,,,
dig,117,536038,0.0-38.0-0.0,"""event"",""trial"",""time""
""fullscreenenter"",""1"",""46281""
","
","
","""event"",""trial"",""time""
""fullscreenenter"",""1"",""46281""
","
",,,,,,,,,,,,"[{""stimulus"":""run_exp/static/images/task_images/dig.jpg"",""time"":0.2999999523162842},{""stimulus"":""run_exp/static/images/task_images/land.jpg"",""time"":695.8999999761581},{""stimulus"":""run_exp/static/images/task_images/dig.jpg"",""time"":1389.8999999761581}]",[],3,,,,,,,,,,,,,,
harvest,118,537043,0.0-38.0-1.0,"""event"",""trial"",""time""
""fullscreenenter"",""1"",""46281""
","
","
","""event"",""trial"",""time""
""fullscreenenter"",""1"",""46281""
","
",,null,run_exp/static/images/task_images/gems/12.jpg,null,,,,,,,6,,,3,,,,,12,0.538909723,0.5,,,,,,,
decision,119,538161,0.0-38.0-2.0,"""event"",""trial"",""time""
""fullscreenenter"",""1"",""46281""
","
","
","""event"",""trial"",""time""
""fullscreenenter"",""1"",""46281""
","
",,1114,run_exp/static/images/task_images/land.jpg,65,,,,,,,6,,,3,,,,,,,,90833,1,3,FALSE,,,
dig,120,540054,0.0-39.0-0.0,"""event"",""trial"",""time""
""fullscreenenter"",""1"",""46281""
","
","
","""event"",""trial"",""time""
""fullscreenenter"",""1"",""46281""
","
",,,,,,,,,,,,"[{""stimulus"":""run_exp/static/images/task_images/dig.jpg"",""time"":0.40000003576278687},{""stimulus"":""run_exp/static/images/task_images/land.jpg"",""time"":630.4000000357628},{""stimulus"":""run_exp/static/images/task_images/dig.jpg"",""time"":1258}]",[],3,,,,,,,,,,,,,,
harvest,121,541056,0.0-39.0-1.0,"""event"",""trial"",""time""
""fullscreenenter"",""1"",""46281""
","
","
","""event"",""trial"",""time""
""fullscreenenter"",""1"",""46281""
","
",,null,run_exp/static/images/task_images/gems/6.jpg,null,,,,,,,3,,,3,,,,,6,0.500201632,0.5,,,,,,,
decision,122,542241,0.0-39.0-2.0,"""event"",""trial"",""time""
""fullscreenenter"",""1"",""46281""
","
","
","""event"",""trial"",""time""
""fullscreenenter"",""1"",""46281""
","
",,1180.8,run_exp/static/images/task_images/land.jpg,65,,,,,,,3,,,3,,,,,,,,94913,1,4,FALSE,,,
dig,123,544068,0.0-40.0-0.0,"""event"",""trial"",""time""
""fullscreenenter"",""1"",""46281""
","
","
","""event"",""trial"",""time""
""fullscreenenter"",""1"",""46281""
","
",,,,,,,,,,,,"[{""stimulus"":""run_exp/static/images/task_images/dig.jpg"",""time"":0.3999999761581421},{""stimulus"":""run_exp/static/images/task_images/land.jpg"",""time"":608},{""stimulus"":""run_exp/static/images/task_images/dig.jpg"",""time"":1213.8999999761581}]",[],3,,,,,,,,,,,,,,
harvest,124,545071,0.0-40.0-1.0,"""event"",""trial"",""time""
""fullscreenenter"",""1"",""46281""
","
","
","""event"",""trial"",""time""
""fullscreenenter"",""1"",""46281""
","
",,null,run_exp/static/images/task_images/gems/3.jpg,null,,,,,,,2,,,3,,,,,3,0.530459089,0.666666667,,,,,,,
decision,125,546245,0.0-40.0-2.0,"""event"",""trial"",""time""
""fullscreenenter"",""1"",""46281""
","
","
","""event"",""trial"",""time""
""fullscreenenter"",""1"",""46281""
","
",,1171.1,run_exp/static/images/task_images/land.jpg,65,,,,,,,2,,,3,,,,,,,,98917,1,5,FALSE,,,
dig,126,548081,0.0-41.0-0.0,"""event"",""trial"",""time""
""fullscreenenter"",""1"",""46281""
","
","
","""event"",""trial"",""time""
""fullscreenenter"",""1"",""46281""
","
",,,,,,,,,,,,"[{""stimulus"":""run_exp/static/images/task_images/dig.jpg"",""time"":0.40000003576278687},{""stimulus"":""run_exp/static/images/task_images/land.jpg"",""time"":611.2000000476837},{""stimulus"":""run_exp/static/images/task_images/dig.jpg"",""time"":1220.300000011921}]",[],3,,,,,,,,,,,,,,
harvest,127,549086,0.0-41.0-1.0,"""event"",""trial"",""time""
""fullscreenenter"",""1"",""46281""
","
","
","""event"",""trial"",""time""
""fullscreenenter"",""1"",""46281""
","
",,null,run_exp/static/images/task_images/gems/2.jpg,null,,,,,,,1,,,3,,,,,2,0.562131056,0.5,,,,,,,
decision,128,550121,0.0-41.0-2.0,"""event"",""trial"",""time""
""fullscreenenter"",""1"",""46281""
","
","
","""event"",""trial"",""time""
""fullscreenenter"",""1"",""46281""
","
",,1030.4,run_exp/static/images/task_images/land.jpg,65,,,,,,,1,,,3,,,,,,,,102793,1,6,FALSE,,,
dig,129,552099,0.0-42.0-0.0,"""event"",""trial"",""time""
""fullscreenenter"",""1"",""46281""
","
","
","""event"",""trial"",""time""
""fullscreenenter"",""1"",""46281""
","
",,,,,,,,,,,,"[{""stimulus"":""run_exp/static/images/task_images/dig.jpg"",""time"":0.40000003576278687},{""stimulus"":""run_exp/static/images/task_images/land.jpg"",""time"":658.3000000119209},{""stimulus"":""run_exp/static/images/task_images/dig.jpg"",""time"":1314.1000000238419}]",[],3,,,,,,,,,,,,,,
harvest,130,553102,0.0-42.0-1.0,"""event"",""trial"",""time""
""fullscreenenter"",""1"",""46281""
","
","
","""event"",""trial"",""time""
""fullscreenenter"",""1"",""46281""
","
",,null,run_exp/static/images/task_images/gems/1.jpg,null,,,,,,,1,,,3,,,,,1,0.521872678,1,,,,,,,
decision,131,553844,0.0-42.0-2.0,"""event"",""trial"",""time""
""fullscreenenter"",""1"",""46281""
","
","
","""event"",""trial"",""time""
""fullscreenenter"",""1"",""46281""
","
",,739,run_exp/static/images/task_images/land.jpg,76,,,,,,,1,,,3,,,,,,,,106516,1,7,TRUE,,,
travel,132,563116,0.0-43.0-0.0,"""event"",""trial"",""time""
""fullscreenenter"",""1"",""46281""
","
","
","""event"",""trial"",""time""
""fullscreenenter"",""1"",""46281""
","
",,,,,,,,,,,,"[{""stimulus"":""run_exp/static/images/task_images/rocket-01.jpg"",""time"":0.3999999761581421},{""stimulus"":""run_exp/static/images/task_images/rocket-02.jpg"",""time"":1031.300000011921},{""stimulus"":""run_exp/static/images/task_images/rocket-03.jpg"",""time"":2060.399999976158},{""stimulus"":""run_exp/static/images/task_images/rocket-04.jpg"",""time"":3089.300000011921},{""stimulus"":""run_exp/static/images/task_images/rocket-05.jpg"",""time"":4118.099999964237},{""stimulus"":""run_exp/static/images/task_images/rocket-06.jpg"",""time"":5147.300000011921},{""stimulus"":""run_exp/static/images/task_images/rocket-07.jpg"",""time"":6176.099999964237},{""stimulus"":""run_exp/static/images/task_images/rocket-08.jpg"",""time"":7205.199999988079},{""stimulus"":""run_exp/static/images/task_images/rocket-09.jpg"",""time"":8234.300000011921}]",[],3,,,,,,,,,,,,,,
alien_welcome,133,568120,0.0-43.0-1.0,"""event"",""trial"",""time""
""fullscreenenter"",""1"",""46281""
","
","
","""event"",""trial"",""time""
""fullscreenenter"",""1"",""46281""
","
",,null,run_exp/static/images/task_images/aliens/old_aliens/planet/alien_planet-36.jpg,null,,,,,,,,,,,,,36,"29,71,25,36,31,14,53,39,59,61,56,15,74,42,21,65,62,13,33,35,20,34,2,7,72,28,16,73,6,43,38,9,18,76,11,40,54,46,78,45",,,,,,,,,,
land,134,568623,0.0-43.0-2.0,"""event"",""trial"",""time""
""fullscreenenter"",""1"",""46281""
","
","
","""event"",""trial"",""time""
""fullscreenenter"",""1"",""46281""
","
",,null,run_exp/static/images/task_images/land.jpg,null,,,,,,,85,,,4,,,,,,,,,,,,,,
dig,135,570628,0.0-43.0-3.0,"""event"",""trial"",""time""
""fullscreenenter"",""1"",""46281""
","
","
","""event"",""trial"",""time""
""fullscreenenter"",""1"",""46281""
","
",,,,,,,,,,,,"[{""stimulus"":""run_exp/static/images/task_images/dig.jpg"",""time"":0.3999999761581421},{""stimulus"":""run_exp/static/images/task_images/land.jpg"",""time"":669.1999999880791},{""stimulus"":""run_exp/static/images/task_images/dig.jpg"",""time"":1336.199999988079}]",[],4,,,,,,,,,,,,,,
harvest,136,571631,0.0-43.0-4.0,"""event"",""trial"",""time""
""fullscreenenter"",""1"",""46281""
","
","
","""event"",""trial"",""time""
""fullscreenenter"",""1"",""46281""
","
",,null,run_exp/static/images/task_images/gems/85.jpg,null,,,,,,,46,,,4,,,,,85,0.542412717,0.541176471,,,,,,,
decision,137,572194,0.0-43.0-5.0,"""event"",""trial"",""time""
""fullscreenenter"",""1"",""46281""
","
","
","""event"",""trial"",""time""
""fullscreenenter"",""1"",""46281""
","
",,560.7,run_exp/static/images/task_images/land.jpg,65,,,,,,,46,,,4,,,,,,,,124866,1,0,FALSE,,,
dig,138,574644,0.0-44.0-0.0,"""event"",""trial"",""time""
""fullscreenenter"",""1"",""46281""
","
","
","""event"",""trial"",""time""
""fullscreenenter"",""1"",""46281""
","
",,,,,,,,,,,,"[{""stimulus"":""run_exp/static/images/task_images/dig.jpg"",""time"":0.6000000238418579},{""stimulus"":""run_exp/static/images/task_images/land.jpg"",""time"":815.6000000238419},{""stimulus"":""run_exp/static/images/task_images/dig.jpg"",""time"":1628.5}]",[],4,,,,,,,,,,,,,,
harvest,139,575647,0.0-44.0-1.0,"""event"",""trial"",""time""
""fullscreenenter"",""1"",""46281""
","
","
","""event"",""trial"",""time""
""fullscreenenter"",""1"",""46281""
","
",,null,run_exp/static/images/task_images/gems/46.jpg,null,,,,,,,25,,,4,,,,,46,0.547622306,0.543478261,,,,,,,
decision,140,576150,0.0-44.0-2.0,"""event"",""trial"",""time""
""fullscreenenter"",""1"",""46281""
","
","
","""event"",""trial"",""time""
""fullscreenenter"",""1"",""46281""
","
",,499.7,run_exp/static/images/task_images/land.jpg,65,,,,,,,25,,,4,,,,,,,,128822,1,1,FALSE,,,
dig,141,578660,0.0-45.0-0.0,"""event"",""trial"",""time""
""fullscreenenter"",""1"",""46281""
","
","
","""event"",""trial"",""time""
""fullscreenenter"",""1"",""46281""
","
",,,,,,,,,,,,"[{""stimulus"":""run_exp/static/images/task_images/dig.jpg"",""time"":0.5999999642372131},{""stimulus"":""run_exp/static/images/task_images/land.jpg"",""time"":835.5},{""stimulus"":""run_exp/static/images/task_images/dig.jpg"",""time"":1668.699999988079}]",[],4,,,,,,,,,,,,,,
harvest,142,579663,0.0-45.0-1.0,"""event"",""trial"",""time""
""fullscreenenter"",""1"",""46281""
","
","
","""event"",""trial"",""time""
""fullscreenenter"",""1"",""46281""
","
",,null,run_exp/static/images/task_images/gems/25.jpg,null,,,,,,,12,,,4,,,,,25,0.464370812,0.48,,,,,,,
decision,143,579967,0.0-45.0-2.0,"""event"",""trial"",""time""
""fullscreenenter"",""1"",""46281""
","
","
","""event"",""trial"",""time""
""fullscreenenter"",""1"",""46281""
","
",,301.3,run_exp/static/images/task_images/land.jpg,65,,,,,,,12,,,4,,,,,,,,132639,1,2,FALSE,,,
dig,144,582676,0.0-46.0-0.0,"""event"",""trial"",""time""
""fullscreenenter"",""1"",""46281""
","
","
","""event"",""trial"",""time""
""fullscreenenter"",""1"",""46281""
","
",,,,,,,,,,,,"[{""stimulus"":""run_exp/static/images/task_images/dig.jpg"",""time"":0.40000003576278687},{""stimulus"":""run_exp/static/images/task_images/land.jpg"",""time"":901.2000000476837},{""stimulus"":""run_exp/static/images/task_images/dig.jpg"",""time"":1800.300000011921}]",[],4,,,,,,,,,,,,,,
harvest,145,583679,0.0-46.0-1.0,"""event"",""trial"",""time""
""fullscreenenter"",""1"",""46281""
","
","
","""event"",""trial"",""time""
""fullscreenenter"",""1"",""46281""
","
",,null,run_exp/static/images/task_images/gems/12.jpg,null,,,,,,,6,,,4,,,,,12,0.506882057,0.5,,,,,,,
decision,146,584246,0.0-46.0-2.0,"""event"",""trial"",""time""
""fullscreenenter"",""1"",""46281""
","
","
","""event"",""trial"",""time""
""fullscreenenter"",""1"",""46281""
","
",,563.9,run_exp/static/images/task_images/land.jpg,65,,,,,,,6,,,4,,,,,,,,136918,1,3,FALSE,,,
dig,147,586693,0.0-47.0-0.0,"""event"",""trial"",""time""
""fullscreenenter"",""1"",""46281""
","
","
","""event"",""trial"",""time""
""fullscreenenter"",""1"",""46281""
","
",,,,,,,,,,,,"[{""stimulus"":""run_exp/static/images/task_images/dig.jpg"",""time"":0.7999999523162842},{""stimulus"":""run_exp/static/images/task_images/land.jpg"",""time"":814.8999999761581},{""stimulus"":""run_exp/static/images/task_images/dig.jpg"",""time"":1626.7999999523163}]",[],4,,,,,,,,,,,,,,
harvest,148,587696,0.0-47.0-1.0,"""event"",""trial"",""time""
""fullscreenenter"",""1"",""46281""
","
","
","""event"",""trial"",""time""
""fullscreenenter"",""1"",""46281""
","
",,null,run_exp/static/images/task_images/gems/6.jpg,null,,,,,,,3,,,4,,,,,6,0.496732191,0.5,,,,,,,
decision,149,588441,0.0-47.0-2.0,"""event"",""trial"",""time""
""fullscreenenter"",""1"",""46281""
","
","
","""event"",""trial"",""time""
""fullscreenenter"",""1"",""46281""
","
",,742.8,run_exp/static/images/task_images/land.jpg,65,,,,,,,3,,,4,,,,,,,,141114,1,4,FALSE,,,
dig,150,590708,0.0-48.0-0.0,"""event"",""trial"",""time""
""fullscreenenter"",""1"",""46281""
","
","
","""event"",""trial"",""time""
""fullscreenenter"",""1"",""46281""
","
",,,,,,,,,,,,"[{""stimulus"":""run_exp/static/images/task_images/dig.jpg"",""time"":0.5},{""stimulus"":""run_exp/static/images/task_images/land.jpg"",""time"":754.6999999880791},{""stimulus"":""run_exp/static/images/task_images/dig.jpg"",""time"":1506.3999999761581}]",[],4,,,,,,,,,,,,,,
harvest,151,591710,0.0-48.0-1.0,"""event"",""trial"",""time""
""fullscreenenter"",""1"",""46281""
","
","
","""event"",""trial"",""time""
""fullscreenenter"",""1"",""46281""
","
",,null,run_exp/static/images/task_images/gems/3.jpg,null,,,,,,,2,,,4,,,,,3,0.50913105,0.666666667,,,,,,,
decision,152,591716,0.0-48.0-2.0,"""event"",""trial"",""time""
""fullscreenenter"",""1"",""46281""
","
","
","""event"",""trial"",""time""
""fullscreenenter"",""1"",""46281""
","
",,2.299999952,run_exp/static/images/task_images/land.jpg,65,,,,,,,2,,,4,,,,,,,,144388,1,5,FALSE,,,
dig,153,594721,0.0-49.0-0.0,"""event"",""trial"",""time""
""fullscreenenter"",""1"",""46281""
","
","
","""event"",""trial"",""time""
""fullscreenenter"",""1"",""46281""
","
",,,,,,,,,,,,"[{""stimulus"":""run_exp/static/images/task_images/dig.jpg"",""time"":0.3999999761581421},{""stimulus"":""run_exp/static/images/task_images/land.jpg"",""time"":1001.1000000238419},{""stimulus"":""run_exp/static/images/task_images/dig.jpg"",""time"":2001.300000011921}]",[],4,,,,,,,,,,,,,,
harvest,154,595724,0.0-49.0-1.0,"""event"",""trial"",""time""
""fullscreenenter"",""1"",""46281""
","
","
","""event"",""trial"",""time""
""fullscreenenter"",""1"",""46281""
","
",,null,run_exp/static/images/task_images/gems/2.jpg,null,,,,,,,1,,,4,,,,,2,0.563113046,0.5,,,,,,,
decision,155,596380,0.0-49.0-2.0,"""event"",""trial"",""time""
""fullscreenenter"",""1"",""46281""
","
","
","""event"",""trial"",""time""
""fullscreenenter"",""1"",""46281""
","
",,652.6,run_exp/static/images/task_images/land.jpg,65,,,,,,,1,,,4,,,,,,,,149052,1,6,FALSE,,,
dig,156,598737,0.0-50.0-0.0,"""event"",""trial"",""time""
""fullscreenenter"",""1"",""46281""
","
","
","""event"",""trial"",""time""
""fullscreenenter"",""1"",""46281""
","
",,,,,,,,,,,,"[{""stimulus"":""run_exp/static/images/task_images/dig.jpg"",""time"":0.3999999761581421},{""stimulus"":""run_exp/static/images/task_images/land.jpg"",""time"":784.3999999761581},{""stimulus"":""run_exp/static/images/task_images/dig.jpg"",""time"":1566.199999988079}]",[],4,,,,,,,,,,,,,,
harvest,157,599739,0.0-50.0-1.0,"""event"",""trial"",""time""
""fullscreenenter"",""1"",""46281""
","
","
","""event"",""trial"",""time""
""fullscreenenter"",""1"",""46281""
","
",,null,run_exp/static/images/task_images/gems/1.jpg,null,,,,,,,0,,,4,,,,,1,0.489860223,0,,,,,,,
decision,158,599878,0.0-50.0-2.0,"""event"",""trial"",""time""
""fullscreenenter"",""1"",""46281""
","
","
","""event"",""trial"",""time""
""fullscreenenter"",""1"",""46281""
","
",,135.2,run_exp/static/images/task_images/land.jpg,65,,,,,,,0,,,4,,,,,,,,152550,1,7,FALSE,,,
dig,159,602752,0.0-51.0-0.0,"""event"",""trial"",""time""
""fullscreenenter"",""1"",""46281""
","
","
","""event"",""trial"",""time""
""fullscreenenter"",""1"",""46281""
","
",,,,,,,,,,,,"[{""stimulus"":""run_exp/static/images/task_images/dig.jpg"",""time"":0.40000003576278687},{""stimulus"":""run_exp/static/images/task_images/land.jpg"",""time"":958.6000000238419},{""stimulus"":""run_exp/static/images/task_images/dig.jpg"",""time"":1909.9000000357628}]",[],4,,,,,,,,,,,,,,
harvest,160,603755,0.0-51.0-1.0,"""event"",""trial"",""time""
""fullscreenenter"",""1"",""46281""
","
","
","""event"",""trial"",""time""
""fullscreenenter"",""1"",""46281""
","
",,null,run_exp/static/images/task_images/gems/0.jpg,null,,,,,,,0,,,4,,,,,0,0.521911613,NaN,,,,,,,
decision,161,604594,0.0-51.0-2.0,"""event"",""trial"",""time""
""fullscreenenter"",""1"",""46281""
","
","
","""event"",""trial"",""time""
""fullscreenenter"",""1"",""46281""
","
",,836.5,run_exp/static/images/task_images/land.jpg,65,,,,,,,0,,,4,,,,,,,,157267,1,8,FALSE,,,
dig,162,606770,0.0-52.0-0.0,"""event"",""trial"",""time""
""fullscreenenter"",""1"",""46281""
","
","
","""event"",""trial"",""time""
""fullscreenenter"",""1"",""46281""
","
",,,,,,,,,,,,"[{""stimulus"":""run_exp/static/images/task_images/dig.jpg"",""time"":0.5},{""stimulus"":""run_exp/static/images/task_images/land.jpg"",""time"":723.2999999523163},{""stimulus"":""run_exp/static/images/task_images/dig.jpg"",""time"":1444.3999999761581}]",[],4,,,,,,,,,,,,,,
harvest,163,607772,0.0-52.0-1.0,"""event"",""trial"",""time""
""fullscreenenter"",""1"",""46281""
","
","
","""event"",""trial"",""time""
""fullscreenenter"",""1"",""46281""
","
",,null,run_exp/static/images/task_images/gems/0.jpg,null,,,,,,,0,,,4,,,,,0,0.403676174,NaN,,,,,,,
decision,164,608201,0.0-52.0-2.0,"""event"",""trial"",""time""
""fullscreenenter"",""1"",""46281""
","
","
","""event"",""trial"",""time""
""fullscreenenter"",""1"",""46281""
","
",,425.4,run_exp/static/images/task_images/land.jpg,76,,,,,,,0,,,4,,,,,,,,160873,1,9,TRUE,,,
travel,165,617788,0.0-53.0-0.0,"""event"",""trial"",""time""
""fullscreenenter"",""1"",""46281""
","
","
","""event"",""trial"",""time""
""fullscreenenter"",""1"",""46281""
","
",,,,,,,,,,,,"[{""stimulus"":""run_exp/static/images/task_images/rocket-01.jpg"",""time"":0.30000001192092896},{""stimulus"":""run_exp/static/images/task_images/rocket-02.jpg"",""time"":1065.300000011921},{""stimulus"":""run_exp/static/images/task_images/rocket-03.jpg"",""time"":2128.400000035763},{""stimulus"":""run_exp/static/images/task_images/rocket-04.jpg"",""time"":3191.199999988079},{""stimulus"":""run_exp/static/images/task_images/rocket-05.jpg"",""time"":4254.5},{""stimulus"":""run_exp/static/images/task_images/rocket-06.jpg"",""time"":5317.300000011921},{""stimulus"":""run_exp/static/images/task_images/rocket-07.jpg"",""time"":6380.400000035763},{""stimulus"":""run_exp/static/images/task_images/rocket-08.jpg"",""time"":7443.600000023842},{""stimulus"":""run_exp/static/images/task_images/rocket-09.jpg"",""time"":8506.199999988079}]",[],4,,,,,,,,,,,,,,
alien_welcome,166,622792,0.0-53.0-1.0,"""event"",""trial"",""time""
""fullscreenenter"",""1"",""46281""
","
","
","""event"",""trial"",""time""
""fullscreenenter"",""1"",""46281""
","
",,null,run_exp/static/images/task_images/aliens/old_aliens/planet/alien_planet-31.jpg,null,,,,,,,,,,,,,31,"29,71,25,36,31,14,53,39,59,61,56,15,74,42,21,65,62,13,33,35,20,34,2,7,72,28,16,73,6,43,38,9,18,76,11,40,54,46,78,45",,,,,,,,,,
land,167,623295,0.0-53.0-2.0,"""event"",""trial"",""time""
""fullscreenenter"",""1"",""46281""
","
","
","""event"",""trial"",""time""
""fullscreenenter"",""1"",""46281""
","
",,null,run_exp/static/images/task_images/land.jpg,null,,,,,,,111,,,5,,,,,,,,,,,,,,
dig,168,625306,0.0-53.0-3.0,"""event"",""trial"",""time""
""fullscreenenter"",""1"",""46281""
","
","
","""event"",""trial"",""time""
""fullscreenenter"",""1"",""46281""
","
",,,,,,,,,,,,"[{""stimulus"":""run_exp/static/images/task_images/dig.jpg"",""time"":0.699999988079071},{""stimulus"":""run_exp/static/images/task_images/land.jpg"",""time"":671.6999999880791},{""stimulus"":""run_exp/static/images/task_images/dig.jpg"",""time"":1336.5}]",[],5,,,,,,,,,,,,,,
harvest,169,626308,0.0-53.0-4.0,"""event"",""trial"",""time""
""fullscreenenter"",""1"",""46281""
","
","
","""event"",""trial"",""time""
""fullscreenenter"",""1"",""46281""
","
",,null,run_exp/static/images/task_images/gems/111.jpg,null,,,,,,,56,,,5,,,,,111,0.504255052,0.504504505,,,,,,,
decision,170,626881,0.0-53.0-5.0,"""event"",""trial"",""time""
""fullscreenenter"",""1"",""46281""
","
","
","""event"",""trial"",""time""
""fullscreenenter"",""1"",""46281""
","
",,569,run_exp/static/images/task_images/land.jpg,65,,,,,,,56,,,5,,,,,,,,179553,1,0,FALSE,,,
dig,171,629323,0.0-54.0-0.0,"""event"",""trial"",""time""
""fullscreenenter"",""1"",""46281""
","
","
","""event"",""trial"",""time""
""fullscreenenter"",""1"",""46281""
","
",,,,,,,,,,,,"[{""stimulus"":""run_exp/static/images/task_images/dig.jpg"",""time"":0.3999999761581421},{""stimulus"":""run_exp/static/images/task_images/land.jpg"",""time"":812.3000000119209},{""stimulus"":""run_exp/static/images/task_images/dig.jpg"",""time"":1622.3999999761581}]",[],5,,,,,,,,,,,,,,
harvest,172,630327,0.0-54.0-1.0,"""event"",""trial"",""time""
""fullscreenenter"",""1"",""46281""
","
","
","""event"",""trial"",""time""
""fullscreenenter"",""1"",""46281""
","
",,null,run_exp/static/images/task_images/gems/56.jpg,null,,,,,,,28,,,5,,,,,56,0.493342018,0.5,,,,,,,
decision,173,630576,0.0-54.0-2.0,"""event"",""trial"",""time""
""fullscreenenter"",""1"",""46281""
","
","
","""event"",""trial"",""time""
""fullscreenenter"",""1"",""46281""
","
",,245.7,run_exp/static/images/task_images/land.jpg,65,,,,,,,28,,,5,,,,,,,,183249,1,1,FALSE,,,
dig,174,633340,0.0-55.0-0.0,"""event"",""trial"",""time""
""fullscreenenter"",""1"",""46281""
","
","
","""event"",""trial"",""time""
""fullscreenenter"",""1"",""46281""
","
",,,,,,,,,,,,"[{""stimulus"":""run_exp/static/images/task_images/dig.jpg"",""time"":0.30000001192092896},{""stimulus"":""run_exp/static/images/task_images/land.jpg"",""time"":920.1000000238419},{""stimulus"":""run_exp/static/images/task_images/dig.jpg"",""time"":1838.300000011921}]",[],5,,,,,,,,,,,,,,
harvest,175,634343,0.0-55.0-1.0,"""event"",""trial"",""time""
""fullscreenenter"",""1"",""46281""
","
","
","""event"",""trial"",""time""
""fullscreenenter"",""1"",""46281""
","
",,null,run_exp/static/images/task_images/gems/28.jpg,null,,,,,,,14,,,5,,,,,28,0.495204683,0.5,,,,,,,
decision,176,634553,0.0-55.0-2.0,"""event"",""trial"",""time""
""fullscreenenter"",""1"",""46281""
","
","
","""event"",""trial"",""time""
""fullscreenenter"",""1"",""46281""
","
",,206.5,run_exp/static/images/task_images/land.jpg,65,,,,,,,14,,,5,,,,,,,,187225,1,2,FALSE,,,
dig,177,637358,0.0-56.0-0.0,"""event"",""trial"",""time""
""fullscreenenter"",""1"",""46281""
","
","
","""event"",""trial"",""time""
""fullscreenenter"",""1"",""46281""
","
",,,,,,,,,,,,"[{""stimulus"":""run_exp/static/images/task_images/dig.jpg"",""time"":0.3999999761581421},{""stimulus"":""run_exp/static/images/task_images/land.jpg"",""time"":933.3000000119209},{""stimulus"":""run_exp/static/images/task_images/dig.jpg"",""time"":1864.699999988079}]",[],5,,,,,,,,,,,,,,
harvest,178,638360,0.0-56.0-1.0,"""event"",""trial"",""time""
""fullscreenenter"",""1"",""46281""
","
","
","""event"",""trial"",""time""
""fullscreenenter"",""1"",""46281""
","
",,null,run_exp/static/images/task_images/gems/14.jpg,null,,,,,,,6,,,5,,,,,14,0.449482196,0.428571429,,,,,,,
decision,179,638470,0.0-56.0-2.0,"""event"",""trial"",""time""
""fullscreenenter"",""1"",""46281""
","
","
","""event"",""trial"",""time""
""fullscreenenter"",""1"",""46281""
","
",,106.2,run_exp/static/images/task_images/land.jpg,65,,,,,,,6,,,5,,,,,,,,191142,1,3,FALSE,,,
dig,180,641374,0.0-57.0-0.0,"""event"",""trial"",""time""
""fullscreenenter"",""1"",""46281""
","
","
","""event"",""trial"",""time""
""fullscreenenter"",""1"",""46281""
","
",,,,,,,,,,,,"[{""stimulus"":""run_exp/static/images/task_images/dig.jpg"",""time"":0.2999999523162842},{""stimulus"":""run_exp/static/images/task_images/land.jpg"",""time"":966.2999999523163},{""stimulus"":""run_exp/static/images/task_images/dig.jpg"",""time"":1930.0999999642372}]",[],5,,,,,,,,,,,,,,
harvest,181,642377,0.0-57.0-1.0,"""event"",""trial"",""time""
""fullscreenenter"",""1"",""46281""
","
","
","""event"",""trial"",""time""
""fullscreenenter"",""1"",""46281""
","
",,null,run_exp/static/images/task_images/gems/6.jpg,null,,,,,,,3,,,5,,,,,6,0.489290275,0.5,,,,,,,
decision,182,643263,0.0-57.0-2.0,"""event"",""trial"",""time""
""fullscreenenter"",""1"",""46281""
","
","
","""event"",""trial"",""time""
""fullscreenenter"",""1"",""46281""
","
",,883,run_exp/static/images/task_images/land.jpg,65,,,,,,,3,,,5,,,,,,,,195935,1,4,FALSE,,,
dig,183,645390,0.0-58.0-0.0,"""event"",""trial"",""time""
""fullscreenenter"",""1"",""46281""
","
","
","""event"",""trial"",""time""
""fullscreenenter"",""1"",""46281""
","
",,,,,,,,,,,,"[{""stimulus"":""run_exp/static/images/task_images/dig.jpg"",""time"":0.3999999761581421},{""stimulus"":""run_exp/static/images/task_images/land.jpg"",""time"":707.5},{""stimulus"":""run_exp/static/images/task_images/dig.jpg"",""time"":1414.2999999523163}]",[],5,,,,,,,,,,,,,,
harvest,184,646393,0.0-58.0-1.0,"""event"",""trial"",""time""
""fullscreenenter"",""1"",""46281""
","
","
","""event"",""trial"",""time""
""fullscreenenter"",""1"",""46281""
","
",,null,run_exp/static/images/task_images/gems/3.jpg,null,,,,,,,2,,,5,,,,,3,0.500077783,0.666666667,,,,,,,
decision,185,647899,0.0-58.0-2.0,"""event"",""trial"",""time""
""fullscreenenter"",""1"",""46281""
","
","
","""event"",""trial"",""time""
""fullscreenenter"",""1"",""46281""
","
",,1503.3,run_exp/static/images/task_images/land.jpg,65,,,,,,,2,,,5,,,,,,,,200572,1,5,FALSE,,,
dig,186,649406,0.0-59.0-0.0,"""event"",""trial"",""time""
""fullscreenenter"",""1"",""46281""
","
","
","""event"",""trial"",""time""
""fullscreenenter"",""1"",""46281""
","
",,,,,,,,,,,,"[{""stimulus"":""run_exp/static/images/task_images/dig.jpg"",""time"":0.8999999761581421},{""stimulus"":""run_exp/static/images/task_images/land.jpg"",""time"":501.39999997615814},{""stimulus"":""run_exp/static/images/task_images/dig.jpg"",""time"":999.1999999880791}]",[],5,,,,,,,,,,,,,,
harvest,187,650409,0.0-59.0-1.0,"""event"",""trial"",""time""
""fullscreenenter"",""1"",""46281""
","
","
","""event"",""trial"",""time""
""fullscreenenter"",""1"",""46281""
","
",,null,run_exp/static/images/task_images/gems/2.jpg,null,,,,,,,1,,,5,,,,,2,0.527008609,0.5,,,,,,,
decision,188,650887,0.0-59.0-2.0,"""event"",""trial"",""time""
""fullscreenenter"",""1"",""46281""
","
","
","""event"",""trial"",""time""
""fullscreenenter"",""1"",""46281""
","
",,474.6,run_exp/static/images/task_images/land.jpg,76,,,,,,,1,,,5,,,,,,,,203559,1,6,TRUE,,,
travel,189,660420,0.0-60.0-0.0,"""event"",""trial"",""time""
""fullscreenenter"",""1"",""46281""
","
","
","""event"",""trial"",""time""
""fullscreenenter"",""1"",""46281""
","
",,,,,,,,,,,,"[{""stimulus"":""run_exp/static/images/task_images/rocket-01.jpg"",""time"":0.5},{""stimulus"":""run_exp/static/images/task_images/rocket-02.jpg"",""time"":1060.6000000238419},{""stimulus"":""run_exp/static/images/task_images/rocket-03.jpg"",""time"":2118.400000035763},{""stimulus"":""run_exp/static/images/task_images/rocket-04.jpg"",""time"":3176.7000000476837},{""stimulus"":""run_exp/static/images/task_images/rocket-05.jpg"",""time"":4234.800000011921},{""stimulus"":""run_exp/static/images/task_images/rocket-06.jpg"",""time"":5292.400000035763},{""stimulus"":""run_exp/static/images/task_images/rocket-07.jpg"",""time"":6350.5},{""stimulus"":""run_exp/static/images/task_images/rocket-08.jpg"",""time"":7408.600000023842},{""stimulus"":""run_exp/static/images/task_images/rocket-09.jpg"",""time"":8466.5}]",[],5,,,,,,,,,,,,,,
alien_welcome,190,665423,0.0-60.0-1.0,"""event"",""trial"",""time""
""fullscreenenter"",""1"",""46281""
","
","
","""event"",""trial"",""time""
""fullscreenenter"",""1"",""46281""
","
",,null,run_exp/static/images/task_images/aliens/old_aliens/planet/alien_planet-14.jpg,null,,,,,,,,,,,,,14,"29,71,25,36,31,14,53,39,59,61,56,15,74,42,21,65,62,13,33,35,20,34,2,7,72,28,16,73,6,43,38,9,18,76,11,40,54,46,78,45",,,,,,,,,,
land,191,665927,0.0-60.0-2.0,"""event"",""trial"",""time""
""fullscreenenter"",""1"",""46281""
","
","
","""event"",""trial"",""time""
""fullscreenenter"",""1"",""46281""
","
",,null,run_exp/static/images/task_images/land.jpg,null,,,,,,,103,,,6,,,,,,,,,,,,,,
dig,192,667937,0.0-60.0-3.0,"""event"",""trial"",""time""
""fullscreenenter"",""1"",""46281""
","
","
","""event"",""trial"",""time""
""fullscreenenter"",""1"",""46281""
","
",,,,,,,,,,,,"[{""stimulus"":""run_exp/static/images/task_images/dig.jpg"",""time"":0.699999988079071},{""stimulus"":""run_exp/static/images/task_images/land.jpg"",""time"":671.1000000238419},{""stimulus"":""run_exp/static/images/task_images/dig.jpg"",""time"":1337.300000011921}]",[],6,,,,,,,,,,,,,,
harvest,193,668940,0.0-60.0-4.0,"""event"",""trial"",""time""
""fullscreenenter"",""1"",""46281""
","
","
","""event"",""trial"",""time""
""fullscreenenter"",""1"",""46281""
","
",,null,run_exp/static/images/task_images/gems/103.jpg,null,,,,,,,83,,,6,,,,,103,0.807984748,0.805825243,,,,,,,
decision,194,669430,0.0-60.0-5.0,"""event"",""trial"",""time""
""fullscreenenter"",""1"",""46281""
","
","
","""event"",""trial"",""time""
""fullscreenenter"",""1"",""46281""
","
",,486,run_exp/static/images/task_images/land.jpg,65,,,,,,,83,,,6,,,,,,,,222102,1,0,FALSE,,,
dig,195,671956,0.0-61.0-0.0,"""event"",""trial"",""time""
""fullscreenenter"",""1"",""46281""
","
","
","""event"",""trial"",""time""
""fullscreenenter"",""1"",""46281""
","
",,,,,,,,,,,,"[{""stimulus"":""run_exp/static/images/task_images/dig.jpg"",""time"":0.3999999761581421},{""stimulus"":""run_exp/static/images/task_images/land.jpg"",""time"":840.6999999880791},{""stimulus"":""run_exp/static/images/task_images/dig.jpg"",""time"":1678.3999999761581}]",[],6,,,,,,,,,,,,,,
harvest,196,672958,0.0-61.0-1.0,"""event"",""trial"",""time""
""fullscreenenter"",""1"",""46281""
","
","
","""event"",""trial"",""time""
""fullscreenenter"",""1"",""46281""
","
",,null,run_exp/static/images/task_images/gems/83.jpg,null,,,,,,,66,,,6,,,,,83,0.795486746,0.795180723,,,,,,,
decision,197,673417,0.0-61.0-2.0,"""event"",""trial"",""time""
""fullscreenenter"",""1"",""46281""
","
","
","""event"",""trial"",""time""
""fullscreenenter"",""1"",""46281""
","
",,455.2,run_exp/static/images/task_images/land.jpg,65,,,,,,,66,,,6,,,,,,,,226089,1,1,FALSE,,,
dig,198,675975,0.0-62.0-0.0,"""event"",""trial"",""time""
""fullscreenenter"",""1"",""46281""
","
","
","""event"",""trial"",""time""
""fullscreenenter"",""1"",""46281""
","
",,,,,,,,,,,,"[{""stimulus"":""run_exp/static/images/task_images/dig.jpg"",""time"":0.5},{""stimulus"":""run_exp/static/images/task_images/land.jpg"",""time"":850.5},{""stimulus"":""run_exp/static/images/task_images/dig.jpg"",""time"":1698.800000011921}]",[],6,,,,,,,,,,,,,,
harvest,199,676978,0.0-62.0-1.0,"""event"",""trial"",""time""
""fullscreenenter"",""1"",""46281""
","
","
","""event"",""trial"",""time""
""fullscreenenter"",""1"",""46281""
","
",,null,run_exp/static/images/task_images/gems/66.jpg,null,,,,,,,54,,,6,,,,,66,0.817341309,0.818181818,,,,,,,
decision,200,677637,0.0-62.0-2.0,"""event"",""trial"",""time""
""fullscreenenter"",""1"",""46281""
","
","
","""event"",""trial"",""time""
""fullscreenenter"",""1"",""46281""
","
",,656.2,run_exp/static/images/task_images/land.jpg,65,,,,,,,54,,,6,,,,,,,,230309,1,2,FALSE,,,
dig,201,679994,0.0-63.0-0.0,"""event"",""trial"",""time""
""fullscreenenter"",""1"",""46281""
","
","
","""event"",""trial"",""time""
""fullscreenenter"",""1"",""46281""
","
",,,,,,,,,,,,"[{""stimulus"":""run_exp/static/images/task_images/dig.jpg"",""time"":0.30000001192092896},{""stimulus"":""run_exp/static/images/task_images/land.jpg"",""time"":783.4000000357628},{""stimulus"":""run_exp/static/images/task_images/dig.jpg"",""time"":1564.6000000238419}]",[],6,,,,,,,,,,,,,,
harvest,202,680997,0.0-63.0-1.0,"""event"",""trial"",""time""
""fullscreenenter"",""1"",""46281""
","
","
","""event"",""trial"",""time""
""fullscreenenter"",""1"",""46281""
","
",,null,run_exp/static/images/task_images/gems/54.jpg,null,,,,,,,39,,,6,,,,,54,0.724326639,0.722222222,,,,,,,
decision,203,681777,0.0-63.0-2.0,"""event"",""trial"",""time""
""fullscreenenter"",""1"",""46281""
","
","
","""event"",""trial"",""time""
""fullscreenenter"",""1"",""46281""
","
",,776.6,run_exp/static/images/task_images/land.jpg,65,,,,,,,39,,,6,,,,,,,,234449,1,3,FALSE,,,
dig,204,684011,0.0-64.0-0.0,"""event"",""trial"",""time""
""fullscreenenter"",""1"",""46281""
","
","
","""event"",""trial"",""time""
""fullscreenenter"",""1"",""46281""
","
",,,,,,,,,,,,"[{""stimulus"":""run_exp/static/images/task_images/dig.jpg"",""time"":0.30000001192092896},{""stimulus"":""run_exp/static/images/task_images/land.jpg"",""time"":743.3999999761581},{""stimulus"":""run_exp/static/images/task_images/dig.jpg"",""time"":1484.3999999761581}]",[],6,,,,,,,,,,,,,,
harvest,205,685016,0.0-64.0-1.0,"""event"",""trial"",""time""
""fullscreenenter"",""1"",""46281""
","
","
","""event"",""trial"",""time""
""fullscreenenter"",""1"",""46281""
","
",,null,run_exp/static/images/task_images/gems/39.jpg,null,,,,,,,31,,,6,,,,,39,0.79739005,0.794871795,,,,,,,
decision,206,685605,0.0-64.0-2.0,"""event"",""trial"",""time""
""fullscreenenter"",""1"",""46281""
","
","
","""event"",""trial"",""time""
""fullscreenenter"",""1"",""46281""
","
",,585.3,run_exp/static/images/task_images/land.jpg,65,,,,,,,31,,,6,,,,,,,,238277,1,4,FALSE,,,
dig,207,688037,0.0-65.0-0.0,"""event"",""trial"",""time""
""fullscreenenter"",""1"",""46281""
","
","
","""event"",""trial"",""time""
""fullscreenenter"",""1"",""46281""
","
",,,,,,,,,,,,"[{""stimulus"":""run_exp/static/images/task_images/dig.jpg"",""time"":0.5},{""stimulus"":""run_exp/static/images/task_images/land.jpg"",""time"":806.3999999761581},{""stimulus"":""run_exp/static/images/task_images/dig.jpg"",""time"":1610.1000000238419}]",[],6,,,,,,,,,,,,,,
harvest,208,689039,0.0-65.0-1.0,"""event"",""trial"",""time""
""fullscreenenter"",""1"",""46281""
","
","
","""event"",""trial"",""time""
""fullscreenenter"",""1"",""46281""
","
",,null,run_exp/static/images/task_images/gems/31.jpg,null,,,,,,,24,,,6,,,,,31,0.781943961,0.774193548,,,,,,,
decision,209,689457,0.0-65.0-2.0,"""event"",""trial"",""time""
""fullscreenenter"",""1"",""46281""
","
","
","""event"",""trial"",""time""
""fullscreenenter"",""1"",""46281""
","
",,415.5,run_exp/static/images/task_images/land.jpg,65,,,,,,,24,,,6,,,,,,,,242129,1,5,FALSE,,,
dig,210,692050,0.0-66.0-0.0,"""event"",""trial"",""time""
""fullscreenenter"",""1"",""46281""
","
","
","""event"",""trial"",""time""
""fullscreenenter"",""1"",""46281""
","
",,,,,,,,,,,,"[{""stimulus"":""run_exp/static/images/task_images/dig.jpg"",""time"":0.5},{""stimulus"":""run_exp/static/images/task_images/land.jpg"",""time"":862.8999999761581},{""stimulus"":""run_exp/static/images/task_images/dig.jpg"",""time"":1724.199999988079}]",[],6,,,,,,,,,,,,,,
harvest,211,693052,0.0-66.0-1.0,"""event"",""trial"",""time""
""fullscreenenter"",""1"",""46281""
","
","
","""event"",""trial"",""time""
""fullscreenenter"",""1"",""46281""
","
",,null,run_exp/static/images/task_images/gems/24.jpg,null,,,,,,,19,,,6,,,,,24,0.812017201,0.791666667,,,,,,,
decision,212,693507,0.0-66.0-2.0,"""event"",""trial"",""time""
""fullscreenenter"",""1"",""46281""
","
","
","""event"",""trial"",""time""
""fullscreenenter"",""1"",""46281""
","
",,451.6,run_exp/static/images/task_images/land.jpg,65,,,,,,,19,,,6,,,,,,,,246179,1,6,FALSE,,,
dig,213,696060,0.0-67.0-0.0,"""event"",""trial"",""time""
""fullscreenenter"",""1"",""46281""
","
","
","""event"",""trial"",""time""
""fullscreenenter"",""1"",""46281""
","
",,,,,,,,,,,,"[{""stimulus"":""run_exp/static/images/task_images/dig.jpg"",""time"":0.30000001192092896},{""stimulus"":""run_exp/static/images/task_images/land.jpg"",""time"":850.6999999880791},{""stimulus"":""run_exp/static/images/task_images/dig.jpg"",""time"":1699.699999988079}]",[],6,,,,,,,,,,,,,,
harvest,214,697063,0.0-67.0-1.0,"""event"",""trial"",""time""
""fullscreenenter"",""1"",""46281""
","
","
","""event"",""trial"",""time""
""fullscreenenter"",""1"",""46281""
","
",,null,run_exp/static/images/task_images/gems/19.jpg,null,,,,,,,15,,,6,,,,,19,0.779142723,0.789473684,,,,,,,
decision,215,697350,0.0-67.0-2.0,"""event"",""trial"",""time""
""fullscreenenter"",""1"",""46281""
","
","
","""event"",""trial"",""time""
""fullscreenenter"",""1"",""46281""
","
",,284.6,run_exp/static/images/task_images/land.jpg,65,,,,,,,15,,,6,,,,,,,,250022,1,7,FALSE,,,
dig,216,700072,0.0-68.0-0.0,"""event"",""trial"",""time""
""fullscreenenter"",""1"",""46281""
","
","
","""event"",""trial"",""time""
""fullscreenenter"",""1"",""46281""
","
",,,,,,,,,,,,"[{""stimulus"":""run_exp/static/images/task_images/dig.jpg"",""time"":0.19999998807907104},{""stimulus"":""run_exp/static/images/task_images/land.jpg"",""time"":906.6999999880791},{""stimulus"":""run_exp/static/images/task_images/dig.jpg"",""time"":1811.5999999642372}]",[],6,,,,,,,,,,,,,,
harvest,217,701074,0.0-68.0-1.0,"""event"",""trial"",""time""
""fullscreenenter"",""1"",""46281""
","
","
","""event"",""trial"",""time""
""fullscreenenter"",""1"",""46281""
","
",,null,run_exp/static/images/task_images/gems/15.jpg,null,,,,,,,11,,,6,,,,,15,0.716700148,0.733333333,,,,,,,
decision,218,701106,0.0-68.0-2.0,"""event"",""trial"",""time""
""fullscreenenter"",""1"",""46281""
","
","
","""event"",""trial"",""time""
""fullscreenenter"",""1"",""46281""
","
",,29.10000002,run_exp/static/images/task_images/land.jpg,65,,,,,,,11,,,6,,,,,,,,253778,1,8,FALSE,,,
dig,219,704086,0.0-69.0-0.0,"""event"",""trial"",""time""
""fullscreenenter"",""1"",""46281""
","
","
","""event"",""trial"",""time""
""fullscreenenter"",""1"",""46281""
","
",,,,,,,,,,,,"[{""stimulus"":""run_exp/static/images/task_images/dig.jpg"",""time"":0.3999999761581421},{""stimulus"":""run_exp/static/images/task_images/land.jpg"",""time"":992.0999999642372},{""stimulus"":""run_exp/static/images/task_images/dig.jpg"",""time"":1981.800000011921}]",[],6,,,,,,,,,,,,,,
harvest,220,705088,0.0-69.0-1.0,"""event"",""trial"",""time""
""fullscreenenter"",""1"",""46281""
","
","
","""event"",""trial"",""time""
""fullscreenenter"",""1"",""46281""
","
",,null,run_exp/static/images/task_images/gems/11.jpg,null,,,,,,,8,,,6,,,,,11,0.732161653,0.727272727,,,,,,,
decision,221,705257,0.0-69.0-2.0,"""event"",""trial"",""time""
""fullscreenenter"",""1"",""46281""
","
","
","""event"",""trial"",""time""
""fullscreenenter"",""1"",""46281""
","
",,166.2,run_exp/static/images/task_images/land.jpg,65,,,,,,,8,,,6,,,,,,,,257930,1,9,FALSE,,,
dig,222,708098,0.0-70.0-0.0,"""event"",""trial"",""time""
""fullscreenenter"",""1"",""46281""
","
","
","""event"",""trial"",""time""
""fullscreenenter"",""1"",""46281""
","
",,,,,,,,,,,,"[{""stimulus"":""run_exp/static/images/task_images/dig.jpg"",""time"":0.5},{""stimulus"":""run_exp/static/images/task_images/land.jpg"",""time"":946.5},{""stimulus"":""run_exp/static/images/task_images/dig.jpg"",""time"":1890.1000000238419}]",[],6,,,,,,,,,,,,,,
harvest,223,709100,0.0-70.0-1.0,"""event"",""trial"",""time""
""fullscreenenter"",""1"",""46281""
","
","
","""event"",""trial"",""time""
""fullscreenenter"",""1"",""46281""
","
",,null,run_exp/static/images/task_images/gems/8.jpg,null,,,,,,,7,,,6,,,,,8,0.847110908,0.875,,,,,,,
decision,224,710087,0.0-70.0-2.0,"""event"",""trial"",""time""
""fullscreenenter"",""1"",""46281""
","
","
","""event"",""trial"",""time""
""fullscreenenter"",""1"",""46281""
","
",,983.6,run_exp/static/images/task_images/land.jpg,76,,,,,,,7,,,6,,,,,,,,262759,1,10,TRUE,,,
travel,225,719106,0.0-71.0-0.0,"""event"",""trial"",""time""
""fullscreenenter"",""1"",""46281""
","
","
","""event"",""trial"",""time""
""fullscreenenter"",""1"",""46281""
","
",,,,,,,,,,,,"[{""stimulus"":""run_exp/static/images/task_images/rocket-01.jpg"",""time"":0.6000000238418579},{""stimulus"":""run_exp/static/images/task_images/rocket-02.jpg"",""time"":1003.4000000357628},{""stimulus"":""run_exp/static/images/task_images/rocket-03.jpg"",""time"":2004.199999988079},{""stimulus"":""run_exp/static/images/task_images/rocket-04.jpg"",""time"":3005.199999988079},{""stimulus"":""run_exp/static/images/task_images/rocket-05.jpg"",""time"":4006.100000023842},{""stimulus"":""run_exp/static/images/task_images/rocket-06.jpg"",""time"":5007.100000023842},{""stimulus"":""run_exp/static/images/task_images/rocket-07.jpg"",""time"":6008.100000023842},{""stimulus"":""run_exp/static/images/task_images/rocket-08.jpg"",""time"":7009.100000023842},{""stimulus"":""run_exp/static/images/task_images/rocket-09.jpg"",""time"":8010}]",[],6,,,,,,,,,,,,,,
alien_welcome,226,724109,0.0-71.0-1.0,"""event"",""trial"",""time""
""fullscreenenter"",""1"",""46281""
","
","
","""event"",""trial"",""time""
""fullscreenenter"",""1"",""46281""
","
",,null,run_exp/static/images/task_images/aliens/old_aliens/planet/alien_planet-53.jpg,null,,,,,,,,,,,,,53,"29,71,25,36,31,14,53,39,59,61,56,15,74,42,21,65,62,13,33,35,20,34,2,7,72,28,16,73,6,43,38,9,18,76,11,40,54,46,78,45",,,,,,,,,,
land,227,724612,0.0-71.0-2.0,"""event"",""trial"",""time""
""fullscreenenter"",""1"",""46281""
","
","
","""event"",""trial"",""time""
""fullscreenenter"",""1"",""46281""
","
",,null,run_exp/static/images/task_images/land.jpg,null,,,,,,,106,,,7,,,,,,,,,,,,,,
dig,228,726618,0.0-71.0-3.0,"""event"",""trial"",""time""
""fullscreenenter"",""1"",""46281""
","
","
","""event"",""trial"",""time""
""fullscreenenter"",""1"",""46281""
","
",,,,,,,,,,,,"[{""stimulus"":""run_exp/static/images/task_images/dig.jpg"",""time"":0.5999999642372131},{""stimulus"":""run_exp/static/images/task_images/land.jpg"",""time"":669.5},{""stimulus"":""run_exp/static/images/task_images/dig.jpg"",""time"":1336.5}]",[],7,,,,,,,,,,,,,,
harvest,229,727620,0.0-71.0-4.0,"""event"",""trial"",""time""
""fullscreenenter"",""1"",""46281""
","
","
","""event"",""trial"",""time""
""fullscreenenter"",""1"",""46281""
","
",,null,run_exp/static/images/task_images/gems/106.jpg,null,,,,,,,95,,,7,,,,,106,0.895519858,0.896226415,,,,,,,
decision,230,727968,0.0-71.0-5.0,"""event"",""trial"",""time""
""fullscreenenter"",""1"",""46281""
","
","
","""event"",""trial"",""time""
""fullscreenenter"",""1"",""46281""
","
",,344.6,run_exp/static/images/task_images/land.jpg,65,,,,,,,95,,,7,,,,,,,,280640,1,0,FALSE,,,
dig,231,730631,0.0-72.0-0.0,"""event"",""trial"",""time""
""fullscreenenter"",""1"",""46281""
","
","
","""event"",""trial"",""time""
""fullscreenenter"",""1"",""46281""
","
",,,,,,,,,,,,"[{""stimulus"":""run_exp/static/images/task_images/dig.jpg"",""time"":0.30000001192092896},{""stimulus"":""run_exp/static/images/task_images/land.jpg"",""time"":886.5},{""stimulus"":""run_exp/static/images/task_images/dig.jpg"",""time"":1771.699999988079}]",[],7,,,,,,,,,,,,,,
harvest,232,731633,0.0-72.0-1.0,"""event"",""trial"",""time""
""fullscreenenter"",""1"",""46281""
","
","
","""event"",""trial"",""time""
""fullscreenenter"",""1"",""46281""
","
",,null,run_exp/static/images/task_images/gems/95.jpg,null,,,,,,,77,,,7,,,,,95,0.809731643,0.810526316,,,,,,,
decision,233,731696,0.0-72.0-2.0,"""event"",""trial"",""time""
""fullscreenenter"",""1"",""46281""
","
","
","""event"",""trial"",""time""
""fullscreenenter"",""1"",""46281""
","
",,60.30000001,run_exp/static/images/task_images/land.jpg,65,,,,,,,77,,,7,,,,,,,,284369,1,1,FALSE,,,
dig,234,734643,0.0-73.0-0.0,"""event"",""trial"",""time""
""fullscreenenter"",""1"",""46281""
","
","
","""event"",""trial"",""time""
""fullscreenenter"",""1"",""46281""
","
",,,,,,,,,,,,"[{""stimulus"":""run_exp/static/images/task_images/dig.jpg"",""time"":0.40000003576278687},{""stimulus"":""run_exp/static/images/task_images/land.jpg"",""time"":981},{""stimulus"":""run_exp/static/images/task_images/dig.jpg"",""time"":1960.2000000476837}]",[],7,,,,,,,,,,,,,,
harvest,235,735645,0.0-73.0-1.0,"""event"",""trial"",""time""
""fullscreenenter"",""1"",""46281""
","
","
","""event"",""trial"",""time""
""fullscreenenter"",""1"",""46281""
","
",,null,run_exp/static/images/task_images/gems/77.jpg,null,,,,,,,68,,,7,,,,,77,0.877408012,0.883116883,,,,,,,
decision,236,737381,0.0-73.0-2.0,"""event"",""trial"",""time""
""fullscreenenter"",""1"",""46281""
","
","
","""event"",""trial"",""time""
""fullscreenenter"",""1"",""46281""
","
",,1733.6,run_exp/static/images/task_images/land.jpg,65,,,,,,,68,,,7,,,,,,,,290054,1,2,FALSE,,,
dig,237,738657,0.0-74.0-0.0,"""event"",""trial"",""time""
""fullscreenenter"",""1"",""46281""
","
","
","""event"",""trial"",""time""
""fullscreenenter"",""1"",""46281""
","
",,,,,,,,,,,,"[{""stimulus"":""run_exp/static/images/task_images/dig.jpg"",""time"":0.3999999761581421},{""stimulus"":""run_exp/static/images/task_images/land.jpg"",""time"":423.80000001192093},{""stimulus"":""run_exp/static/images/task_images/dig.jpg"",""time"":845.6999999880791}]",[],7,,,,,,,,,,,,,,
harvest,238,739659,0.0-74.0-1.0,"""event"",""trial"",""time""
""fullscreenenter"",""1"",""46281""
","
","
","""event"",""trial"",""time""
""fullscreenenter"",""1"",""46281""
","
",,null,run_exp/static/images/task_images/gems/68.jpg,null,,,,,,,49,,,7,,,,,68,0.725696077,0.720588235,,,,,,,
decision,239,740724,0.0-74.0-2.0,"""event"",""trial"",""time""
""fullscreenenter"",""1"",""46281""
","
","
","""event"",""trial"",""time""
""fullscreenenter"",""1"",""46281""
","
",,1052.5,run_exp/static/images/task_images/land.jpg,65,,,,,,,49,,,7,,,,,,,,293396,1,3,FALSE,,,
dig,240,742679,0.0-75.0-0.0,"""event"",""trial"",""time""
""fullscreenenter"",""1"",""46281""
","
","
","""event"",""trial"",""time""
""fullscreenenter"",""1"",""46281""
","
",,,,,,,,,,,,"[{""stimulus"":""run_exp/static/images/task_images/dig.jpg"",""time"":0.2999999523162842},{""stimulus"":""run_exp/static/images/task_images/land.jpg"",""time"":650.7999999523163},{""stimulus"":""run_exp/static/images/task_images/dig.jpg"",""time"":1299.699999988079}]",[],7,,,,,,,,,,,,,,
harvest,241,743681,0.0-75.0-1.0,"""event"",""trial"",""time""
""fullscreenenter"",""1"",""46281""
","
","
","""event"",""trial"",""time""
""fullscreenenter"",""1"",""46281""
","
",,null,run_exp/static/images/task_images/gems/49.jpg,null,,,,,,,42,,,7,,,,,49,0.856561729,0.857142857,,,,,,,
decision,242,744308,0.0-75.0-2.0,"""event"",""trial"",""time""
""fullscreenenter"",""1"",""46281""
","
","
","""event"",""trial"",""time""
""fullscreenenter"",""1"",""46281""
","
",,624,run_exp/static/images/task_images/land.jpg,65,,,,,,,42,,,7,,,,,,,,296980,1,4,FALSE,,,
dig,243,746696,0.0-76.0-0.0,"""event"",""trial"",""time""
""fullscreenenter"",""1"",""46281""
","
","
","""event"",""trial"",""time""
""fullscreenenter"",""1"",""46281""
","
",,,,,,,,,,,,"[{""stimulus"":""run_exp/static/images/task_images/dig.jpg"",""time"":0.30000001192092896},{""stimulus"":""run_exp/static/images/task_images/land.jpg"",""time"":793.7000000476837},{""stimulus"":""run_exp/static/images/task_images/dig.jpg"",""time"":1585.800000011921}]",[],7,,,,,,,,,,,,,,
harvest,244,747698,0.0-76.0-1.0,"""event"",""trial"",""time""
""fullscreenenter"",""1"",""46281""
","
","
","""event"",""trial"",""time""
""fullscreenenter"",""1"",""46281""
","
",,null,run_exp/static/images/task_images/gems/42.jpg,null,,,,,,,35,,,7,,,,,42,0.827439842,0.833333333,,,,,,,
decision,245,748085,0.0-76.0-2.0,"""event"",""trial"",""time""
""fullscreenenter"",""1"",""46281""
","
","
","""event"",""trial"",""time""
""fullscreenenter"",""1"",""46281""
","
",,384.7,run_exp/static/images/task_images/land.jpg,65,,,,,,,35,,,7,,,,,,,,300757,1,5,TRUE,,,
end_of_block_continue,246,757115,0.0-77.0-0.0,"""event"",""trial"",""time""
""fullscreenenter"",""1"",""46281""
","
","
","""event"",""trial"",""time""
""fullscreenenter"",""1"",""46281""
","
",,null,run_exp/static/audio/clip_32_block_end.m4a,,,,,,,null,,,,,,,,,,,,,,,,,,
alien_welcome,247,762124,0.0-78.0-0.0,"""event"",""trial"",""time""
""fullscreenenter"",""1"",""46281""
","
","
","""event"",""trial"",""time""
""fullscreenenter"",""1"",""46281""
","
",,null,run_exp/static/images/task_images/aliens/old_aliens/planet/alien_planet-39.jpg,null,,,,,,,,,,,,,39,"29,71,25,36,31,14,53,39,59,61,56,15,74,42,21,65,62,13,33,35,20,34,2,7,72,28,16,73,6,43,38,9,18,76,11,40,54,46,78,45",,,,,,,,,,
land,248,762626,0.0-78.0-1.0,"""event"",""trial"",""time""
""fullscreenenter"",""1"",""46281""
","
","
