trial_type,trial_index,time_elapsed,internal_node_id,interactions,blur_events,focus_events,fullscreenenter_events,fullscreenexit_events,success,rt,stimulus,key_press,prompt,subject_id,participant_id,age,gender,button_pressed,next_reward,animation_sequence,responses,planet,curr_prac_trial,n_prac_rounds,alien,aliens,reward_received,decay_rate_actual,decay_rate_exp,time_in_block,block_num,prt,last_trial_on_planet,button_html,bonus,num_failures
pavlovia,0,4,0.0-0.0,"""event"",""trial"",""time""
""fullscreenenter"",""1"",""20086""
","
","
","""event"",""trial"",""time""
""fullscreenenter"",""1"",""20086""
","
",,,,,,,,,,,,,,,,,,,,,,,,,,,,
fullscreen,1,21070,0.0-1.0,"""event"",""trial"",""time""
""fullscreenenter"",""1"",""20086""
","
","
","""event"",""trial"",""time""
""fullscreenenter"",""1"",""20086""
","
",TRUE,,,,,,,,,,,,,,,,,,,,,,,,,,,
instruc_welcome,2,31124,0.0-2.0,"""event"",""trial"",""time""
""fullscreenenter"",""1"",""20086""
","
","
","""event"",""trial"",""time""
""fullscreenenter"",""1"",""20086""
","
",,null,run_exp/static/audio/clip_1_welcome.m4a,null,"<p>Howdy! In this experiment, you’ll be an explorer traveling through space to collect space treasure.</p><p>Your mission is to collect as much treasure as possible.</p><br><br><p><img src='run_exp/static/images/task_images/opening_img-01.jpg' height='300' width='auto'></p>",10259,1826,25.83,Male,,,,,,,,,,,,,,,,,,,
audio-keyboard-response,3,47764,0.0-3.0,"""event"",""trial"",""time""
""fullscreenenter"",""1"",""20086""
","
","
","""event"",""trial"",""time""
""fullscreenenter"",""1"",""20086""
","
",,null,run_exp/static/audio/clip_2_move.m4a,null,,,,,,,,,,,,,,,,,,,,,,,,
welcome_dec,4,50823,0.0-4.0,"""event"",""trial"",""time""
""fullscreenenter"",""1"",""20086""
","
","
","""event"",""trial"",""time""
""fullscreenenter"",""1"",""20086""
","
",,3056,"<p>Howdy! In this experiment, you’ll be an explorer traveling through space to collect space treasure.</p><p>Your mission is to collect as much treasure as possible.</p><br><br><p><img src='run_exp/static/images/task_images/opening_img-01.jpg' height='300' width='auto'></p>",,,,,,,1,,,,,,,,,,,,,,,,,,
html-keyboard-response,5,52360,0.0-5.0,"""event"",""trial"",""time""
""fullscreenenter"",""1"",""20086""
","
","
","""event"",""trial"",""time""
""fullscreenenter"",""1"",""20086""
","
",,1534,"<p>Howdy! In this experiment, you’ll be an explorer traveling through space to collect space treasure.</p><p>Your mission is to collect as much treasure as possible.</p><br><br><p><img src='run_exp/static/images/task_images/opening_img-01.jpg' height='300' width='auto'></p><button class=""jspsych-html-btn-unchosen""><img src=""run_exp/static/images/task_images/planet-01.jpg"" height=""50""></button><button class=""jspsych-html-btn-chosen""><img src=""run_exp/static/images/task_images/planet-02.jpg"" height=""50""></button><p><b>[press the space bar to lock in your answer]<b><br></p>",32,,,,,,,,,,,,,,,,,,,,,,,,
instruc_goal,6,62444,0.0-6.0-0.0,"""event"",""trial"",""time""
""fullscreenenter"",""1"",""20086""
","
","
","""event"",""trial"",""time""
""fullscreenenter"",""1"",""20086""
","
",,null,run_exp/static/audio/clip_3_goal.m4a,null,"<p> As a space explorer, you’ll visit different planets to dig for space treasure, these pink gems.</p> <p> The more treasure you dig up, the more bonus money you’ll win! </p><br><br><p><img src='run_exp/static/images/task_images/pink_gem.jpg' height='300' width='auto'></p>",,,,,,,,,,,,,,,,,,,,,,,
instruc_goal,7,66231,0.0-6.0-1.0,"""event"",""trial"",""time""
""fullscreenenter"",""1"",""20086""
","
","
","""event"",""trial"",""time""
""fullscreenenter"",""1"",""20086""
","
",,3781,"<p> As a space explorer, you’ll visit different planets to dig for space treasure, these pink gems.</p> <p> The more treasure you dig up, the more bonus money you’ll win! </p><br><br><p><img src='run_exp/static/images/task_images/pink_gem.jpg' height='300' width='auto'></p>",,,,,,,0,,,,,,,,,,,,,,,,,,
html-keyboard-response,8,67183,0.0-6.0-2.0,"""event"",""trial"",""time""
""fullscreenenter"",""1"",""20086""
","
","
","""event"",""trial"",""time""
""fullscreenenter"",""1"",""20086""
","
",,948,"<p> As a space explorer, you’ll visit different planets to dig for space treasure, these pink gems.</p> <p> The more treasure you dig up, the more bonus money you’ll win! </p><br><br><p><img src='run_exp/static/images/task_images/pink_gem.jpg' height='300' width='auto'></p><button class=""jspsych-html-btn-chosen""><img src=""run_exp/static/images/task_images/planet-01.jpg"" height=""50""></button><button class=""jspsych-html-btn-unchosen""><img src=""run_exp/static/images/task_images/planet-02.jpg"" height=""50""></button><p><b>[press the space bar to lock in your answer]<b><br></p>",32,,,,,,,,,,,,,,,,,,,,,,,,
instruc_welcome,9,76951,0.0-7.0-0.0,"""event"",""trial"",""time""
""fullscreenenter"",""1"",""20086""
","
","
","""event"",""trial"",""time""
""fullscreenenter"",""1"",""20086""
","
",,null,run_exp/static/audio/clip_1_welcome.m4a,null,"<p>Howdy! In this experiment, you’ll be an explorer traveling through space to collect space treasure.</p><p>Your mission is to collect as much treasure as possible.</p><br><br><p><img src='run_exp/static/images/task_images/opening_img-01.jpg' height='300' width='auto'></p>",10259,1826,25,Male,,,,,,,,,,,,,,,,,,,
audio-keyboard-response,10,93585,0.0-7.0-1.0,"""event"",""trial"",""time""
""fullscreenenter"",""1"",""20086""
","
","
","""event"",""trial"",""time""
""fullscreenenter"",""1"",""20086""
","
",,null,run_exp/static/audio/clip_2_move.m4a,null,,,,,,,,,,,,,,,,,,,,,,,,
welcome_dec,11,99891,0.0-7.0-2.0,"""event"",""trial"",""time""
""fullscreenenter"",""1"",""20086""
","
","
","""event"",""trial"",""time""
""fullscreenenter"",""1"",""20086""
","
",,6302,"<p>Howdy! In this experiment, you’ll be an explorer traveling through space to collect space treasure.</p><p>Your mission is to collect as much treasure as possible.</p><br><br><p><img src='run_exp/static/images/task_images/opening_img-01.jpg' height='300' width='auto'></p>",,,,,,,1,,,,,,,,,,,,,,,,,,
html-keyboard-response,12,100813,0.0-7.0-3.0,"""event"",""trial"",""time""
""fullscreenenter"",""1"",""20086""
","
","
","""event"",""trial"",""time""
""fullscreenenter"",""1"",""20086""
","
",,917,"<p>Howdy! In this experiment, you’ll be an explorer traveling through space to collect space treasure.</p><p>Your mission is to collect as much treasure as possible.</p><br><br><p><img src='run_exp/static/images/task_images/opening_img-01.jpg' height='300' width='auto'></p><button class=""jspsych-html-btn-unchosen""><img src=""run_exp/static/images/task_images/planet-01.jpg"" height=""50""></button><button class=""jspsych-html-btn-chosen""><img src=""run_exp/static/images/task_images/planet-02.jpg"" height=""50""></button><p><b>[press the space bar to lock in your answer]<b><br></p>",32,,,,,,,,,,,,,,,,,,,,,,,,
instruc_goal,13,110903,0.0-8.0-0.0,"""event"",""trial"",""time""
""fullscreenenter"",""1"",""20086""
","
","
","""event"",""trial"",""time""
""fullscreenenter"",""1"",""20086""
","
",,null,run_exp/static/audio/clip_3_goal.m4a,null,"<p> As a space explorer, you’ll visit different planets to dig for space treasure, these pink gems.</p> <p> The more treasure you dig up, the more bonus money you’ll win! </p><br><br><p><img src='run_exp/static/images/task_images/pink_gem.jpg' height='300' width='auto'></p>",,,,,,,,,,,,,,,,,,,,,,,
instruc_goal,14,118141,0.0-8.0-1.0,"""event"",""trial"",""time""
""fullscreenenter"",""1"",""20086""
","
","
","""event"",""trial"",""time""
""fullscreenenter"",""1"",""20086""
","
",,7237,"<p> As a space explorer, you’ll visit different planets to dig for space treasure, these pink gems.</p> <p> The more treasure you dig up, the more bonus money you’ll win! </p><br><br><p><img src='run_exp/static/images/task_images/pink_gem.jpg' height='300' width='auto'></p>",,,,,,,1,,,,,,,,,,,,,,,,,,
html-keyboard-response,15,118706,0.0-8.0-2.0,"""event"",""trial"",""time""
""fullscreenenter"",""1"",""20086""
","
","
","""event"",""trial"",""time""
""fullscreenenter"",""1"",""20086""
","
",,563,"<p> As a space explorer, you’ll visit different planets to dig for space treasure, these pink gems.</p> <p> The more treasure you dig up, the more bonus money you’ll win! </p><br><br><p><img src='run_exp/static/images/task_images/pink_gem.jpg' height='300' width='auto'></p><button class=""jspsych-html-btn-unchosen""><img src=""run_exp/static/images/task_images/planet-01.jpg"" height=""50""></button><button class=""jspsych-html-btn-chosen""><img src=""run_exp/static/images/task_images/planet-02.jpg"" height=""50""></button><p><b>[press the space bar to lock in your answer]<b><br></p>",32,,,,,,,,,,,,,,,,,,,,,,,,
instruc_dig,16,134743,0.0-9.0-0.0,"""event"",""trial"",""time""
""fullscreenenter"",""1"",""20086""
","
","
","""event"",""trial"",""time""
""fullscreenenter"",""1"",""20086""
","
",,null,run_exp/static/audio/clip_4_dig.m4a,null,,,,,,,100,,,,,,,,,,,,,,,,,
instruc_dig_try,17,135687,0.0-9.0-1.0,"""event"",""trial"",""time""
""fullscreenenter"",""1"",""20086""
","
","
","""event"",""trial"",""time""
""fullscreenenter"",""1"",""20086""
","
",,942,"<p> When you’ve arrived at a new planet, you will dig once. </p> <p>Then, you get to decide if you want to stay on the planet and dig again or travel to a new planet and dig there.</p> <p> To stay and dig, press the letter <strong>‘A’</strong> on your keyboard. Try pressing it now! </p><p><img src='run_exp/static/images/task_images/land.jpg'  height='700' width='auto'></p>",65,"<p> When you’ve arrived at a new planet, you will dig once. </p> <p>Then, you get to decide if you want to stay on the planet and dig again or travel to a new planet and dig there.</p> <p> To stay and dig, press the letter <strong>‘A’</strong> on your keyboard. Try pressing it now! </p><p><img src='run_exp/static/images/task_images/land.jpg'  height='700' width='auto'></p>",,,,,,100,,,,,,,,,,,,,,,,,
dig_prac,18,137709,0.0-9.0-2.0,"""event"",""trial"",""time""
""fullscreenenter"",""1"",""20086""
","
","
","""event"",""trial"",""time""
""fullscreenenter"",""1"",""20086""
","
",,,,,,,,,,,,"[{""stimulus"":""run_exp/static/images/task_images/dig.jpg"",""time"":0},{""stimulus"":""run_exp/static/images/task_images/land.jpg"",""time"":684},{""stimulus"":""run_exp/static/images/task_images/dig.jpg"",""time"":1348}]",[],,,,,,,,,,,,,,,
instruc_travel,19,174004,0.0-9.0-3.0,"""event"",""trial"",""time""
""fullscreenenter"",""1"",""20086""
","
","
","""event"",""trial"",""time""
""fullscreenenter"",""1"",""20086""
","
",,null,run_exp/static/audio/clip_5_travel.m4a,null,"<p>Every time you dig up gems, there are less gems on the planet, so the more you dig on a planet the fewer gems you’ll get with each dig.</p><p>When gems are running low, you may want to travel to a new planet. </p> <p>  Planets are very far apart in this galaxy, so it will take some time to travel between them. </p> <br><p>There are lots and lots of planets for you to visit, so you won’t be able to return to any planets you’ve seen before. </p><br><p>To leave this planet and travel to a new one, press the letter <strong>‘L’</strong> on your keyboard. Try pressing it now! </p><p><img src='run_exp/static/images/task_images/rocket-01.jpg'  height='600' width='auto'></p>",,,,,,,,,,,,,,,,,,,,,,,
instruc_travel_try,20,175905,0.0-9.0-4.0,"""event"",""trial"",""time""
""fullscreenenter"",""1"",""20086""
","
","
","""event"",""trial"",""time""
""fullscreenenter"",""1"",""20086""
","
",,1898,"<p>Every time you dig up gems, there are less gems on the planet, so the more you dig on a planet the fewer gems you’ll get with each dig.</p><p>When gems are running low, you may want to travel to a new planet. </p> <p>  Planets are very far apart in this galaxy, so it will take some time to travel between them. </p> <br><p>There are lots and lots of planets for you to visit, so you won’t be able to return to any planets you’ve seen before. </p><br><p>To leave this planet and travel to a new one, press the letter <strong>‘L’</strong> on your keyboard. Try pressing it now! </p><p><img src='run_exp/static/images/task_images/rocket-01.jpg'  height='600' width='auto'></p>",76,"<p>Every time you dig up gems, there are less gems on the planet, so the more you dig on a planet the fewer gems you’ll get with each dig.</p><p>When gems are running low, you may want to travel to a new planet. </p> <p>  Planets are very far apart in this galaxy, so it will take some time to travel between them. </p> <br><p>There are lots and lots of planets for you to visit, so you won’t be able to return to any planets you’ve seen before. </p><br><p>To leave this planet and travel to a new one, press the letter <strong>‘L’</strong> on your keyboard. Try pressing it now! </p><p><img src='run_exp/static/images/task_images/rocket-01.jpg'  height='600' width='auto'></p>",,,,,,,,,,,,,,,,,,,,,,,
travel_prac,21,185921,0.0-9.0-5.0,"""event"",""trial"",""time""
""fullscreenenter"",""1"",""20086""
","
","
","""event"",""trial"",""time""
""fullscreenenter"",""1"",""20086""
","
",,,,,,,,,,,,"[{""stimulus"":""run_exp/static/images/task_images/rocket-01.jpg"",""time"":0},{""stimulus"":""run_exp/static/images/task_images/rocket-02.jpg"",""time"":1125},{""stimulus"":""run_exp/static/images/task_images/rocket-03.jpg"",""time"":2232},{""stimulus"":""run_exp/static/images/task_images/rocket-04.jpg"",""time"":3335},{""stimulus"":""run_exp/static/images/task_images/rocket-05.jpg"",""time"":4451},{""stimulus"":""run_exp/static/images/task_images/rocket-06.jpg"",""time"":5568},{""stimulus"":""run_exp/static/images/task_images/rocket-07.jpg"",""time"":6670},{""stimulus"":""run_exp/static/images/task_images/rocket-08.jpg"",""time"":7789},{""stimulus"":""run_exp/static/images/task_images/rocket-09.jpg"",""time"":8900}]",[],0,,,,,,,,,,,,,,
instruc_alien_greet,22,213129,0.0-9.0-6.0,"""event"",""trial"",""time""
""fullscreenenter"",""1"",""20086""
","
","
","""event"",""trial"",""time""
""fullscreenenter"",""1"",""20086""
","
",,null,run_exp/static/audio/clip_6_alien.m4a,null,"<p>When you arrive at a new planet, the alien who owns the treasure mine on that planet will greet you!</p><p>The better an alien takes care of their mine the easier it is to dig for gems. Some aliens take better care of their mine than others. So, you won’t get exactly the same amount of gems on each planet.</p><p>What the alien looks like does not tell you anything about how many gems there are on the planet.</p><br><p><img src=""run_exp/static/images/task_images/aliens/instructions_aliens/planet/alien_planet-1.jpg""  height=""600"" width=""auto""></p>",,,,,,,,,,,,,,,,,,,,,,,
instruc_alien_greet,23,217109,0.0-9.0-7.0,"""event"",""trial"",""time""
""fullscreenenter"",""1"",""20086""
","
","
","""event"",""trial"",""time""
""fullscreenenter"",""1"",""20086""
","
",,3977,"<p>When you arrive at a new planet, the alien who owns the treasure mine on that planet will greet you!</p><p>The better an alien takes care of their mine the easier it is to dig for gems. Some aliens take better care of their mine than others. So, you won’t get exactly the same amount of gems on each planet.</p><p>What the alien looks like does not tell you anything about how many gems there are on the planet.</p><br><p><img src=""run_exp/static/images/task_images/aliens/instructions_aliens/planet/alien_planet-1.jpg""  height=""600"" width=""auto""></p>",,,,,,,1,,,,,,,,,,,,,,,,,,
html-keyboard-response,24,217745,0.0-9.0-8.0,"""event"",""trial"",""time""
""fullscreenenter"",""1"",""20086""
","
","
","""event"",""trial"",""time""
""fullscreenenter"",""1"",""20086""
","
",,634,"<p>When you arrive at a new planet, the alien who owns the treasure mine on that planet will greet you!</p><p>The better an alien takes care of their mine the easier it is to dig for gems. Some aliens take better care of their mine than others. So, you won’t get exactly the same amount of gems on each planet.</p><p>What the alien looks like does not tell you anything about how many gems there are on the planet.</p><br><p><img src=""run_exp/static/images/task_images/aliens/instructions_aliens/planet/alien_planet-1.jpg""  height=""600"" width=""auto""></p><button class=""jspsych-html-btn-unchosen""><img src=""run_exp/static/images/task_images/planet-01.jpg"" height=""50""></button><button class=""jspsych-html-btn-chosen""><img src=""run_exp/static/images/task_images/planet-02.jpg"" height=""50""></button><p><b>[press the space bar to lock in your answer]<b><br></p>",32,,,,,,,,,,,,,,,,,,,,,,,,
time_out,25,228870,0.0-10.0-0.0,"""event"",""trial"",""time""
""fullscreenenter"",""1"",""20086""
","
","
","""event"",""trial"",""time""
""fullscreenenter"",""1"",""20086""
","
",,null,run_exp/static/audio/clip_7_timeout.m4a,null,"<p>If you don't make your choice fast enough, you’ll have to wait a few seconds before you can make another one.</p><p>You can’t dig for more gems or travel to new planets. You just have to sit and wait.</p><br><p><img src='run_exp/static/images/task_images/time_out.jpg'  height='600' width='auto'></p>",,,,,,,,,,,,,,,,,,,,,,,
time_out,26,230905,0.0-10.0-1.0,"""event"",""trial"",""time""
""fullscreenenter"",""1"",""20086""
","
","
","""event"",""trial"",""time""
""fullscreenenter"",""1"",""20086""
","
",,2033,"<p>If you don't make your choice fast enough, you’ll have to wait a few seconds before you can make another one.</p><p>You can’t dig for more gems or travel to new planets. You just have to sit and wait.</p><br><p><img src='run_exp/static/images/task_images/time_out.jpg'  height='600' width='auto'></p>",,,,,,,1,,,,,,,,,,,,,,,,,,
html-keyboard-response,27,231559,0.0-10.0-2.0,"""event"",""trial"",""time""
""fullscreenenter"",""1"",""20086""
","
","
","""event"",""trial"",""time""
""fullscreenenter"",""1"",""20086""
","
",,653,"<p>If you don't make your choice fast enough, you’ll have to wait a few seconds before you can make another one.</p><p>You can’t dig for more gems or travel to new planets. You just have to sit and wait.</p><br><p><img src='run_exp/static/images/task_images/time_out.jpg'  height='600' width='auto'></p><button class=""jspsych-html-btn-unchosen""><img src=""run_exp/static/images/task_images/planet-01.jpg"" height=""50""></button><button class=""jspsych-html-btn-chosen""><img src=""run_exp/static/images/task_images/planet-02.jpg"" height=""50""></button><p><b>[press the space bar to lock in your answer]<b><br></p>",32,,,,,,,,,,,,,,,,,,,,,,,,
instruc_break,28,247249,0.0-11.0-0.0,"""event"",""trial"",""time""
""fullscreenenter"",""1"",""20086""
","
","
","""event"",""trial"",""time""
""fullscreenenter"",""1"",""20086""
","
",,null,run_exp/static/audio/clip_8_break.m4a,null,"<p> After digging and traveling for a while, you’ll be able to take a break at home base. </p><p>The game will last 20 minutes no matter what.</p><p>You will visit home base every 5 minutes, so, you will visit home base three times during the game.</p><br><p><img src='run_exp/static/images/task_images/home_base.jpg' height='600' width='auto'></p>",,,,,,,,,,,,,,,,,,,,,,,
instruc_break,29,250264,0.0-11.0-1.0,"""event"",""trial"",""time""
""fullscreenenter"",""1"",""20086""
","
","
","""event"",""trial"",""time""
""fullscreenenter"",""1"",""20086""
","
",,3012,"<p> After digging and traveling for a while, you’ll be able to take a break at home base. </p><p>The game will last 20 minutes no matter what.</p><p>You will visit home base every 5 minutes, so, you will visit home base three times during the game.</p><br><p><img src='run_exp/static/images/task_images/home_base.jpg' height='600' width='auto'></p>",,,,,,,1,,,,,,,,,,,,,,,,,,
html-keyboard-response,30,251228,0.0-11.0-2.0,"""event"",""trial"",""time""
""fullscreenenter"",""1"",""20086""
","
","
","""event"",""trial"",""time""
""fullscreenenter"",""1"",""20086""
","
",,962,"<p> After digging and traveling for a while, you’ll be able to take a break at home base. </p><p>The game will last 20 minutes no matter what.</p><p>You will visit home base every 5 minutes, so, you will visit home base three times during the game.</p><br><p><img src='run_exp/static/images/task_images/home_base.jpg' height='600' width='auto'></p><button class=""jspsych-html-btn-unchosen""><img src=""run_exp/static/images/task_images/planet-01.jpg"" height=""50""></button><button class=""jspsych-html-btn-chosen""><img src=""run_exp/static/images/task_images/planet-02.jpg"" height=""50""></button><p><b>[press the space bar to lock in your answer]<b><br></p>",32,,,,,,,,,,,,,,,,,,,,,,,,
instruc_prac_game,31,261367,0.0-12.0-0.0,"""event"",""trial"",""time""
""fullscreenenter"",""1"",""20086""
","
","
","""event"",""trial"",""time""
""fullscreenenter"",""1"",""20086""
","
",,null,run_exp/static/audio/clip_9_practice.m4a,null,"<p> Are you ready to play a practice game? </p> <p>In this practice game, you'll be digging up barrels of gems. But, in the real game, you'll be digging up the gems themselves. </p>",,,,,,,,,,,,,,,,,,,,,,,
html-button-response,32,264889,0.0-12.0-1.0,"""event"",""trial"",""time""
""fullscreenenter"",""1"",""20086""
","
","
","""event"",""trial"",""time""
""fullscreenenter"",""1"",""20086""
","
",,3520,"<p> Are you ready to play a practice game? </p> <p>In this practice game, you'll be digging up barrels of gems. But, in the real game, you'll be digging up the gems themselves. </p>",,,,,,,0,,,,,,,,,,,,,,,,,,
alien_welcome_prac,33,269893,0.0-13.0-0.0,"""event"",""trial"",""time""
""fullscreenenter"",""1"",""20086""
","
","
","""event"",""trial"",""time""
""fullscreenenter"",""1"",""20086""
","
",,null,run_exp/static/images/task_images/aliens/practice_aliens/planet/alien_planet-5.jpg,null,,,,,,,,,,,,,,,,,,,,,,,,
land_prac,34,270444,0.0-13.0-1.0,"""event"",""trial"",""time""
""fullscreenenter"",""1"",""20086""
","
","
","""event"",""trial"",""time""
""fullscreenenter"",""1"",""20086""
","
",,null,run_exp/static/images/task_images/land.jpg,null,,,,,,,97,,,0,,,,,,,,,,,,,,
dig_prac,35,272452,0.0-13.0-2.0,"""event"",""trial"",""time""
""fullscreenenter"",""1"",""20086""
","
","
","""event"",""trial"",""time""
""fullscreenenter"",""1"",""20086""
","
",,,,,,,,,,,,"[{""stimulus"":""run_exp/static/images/task_images/dig.jpg"",""time"":0},{""stimulus"":""run_exp/static/images/task_images/land.jpg"",""time"":670},{""stimulus"":""run_exp/static/images/task_images/dig.jpg"",""time"":1351}]",[],,,,,,,,,,,,,,,
harvest_prac,36,273475,0.0-13.0-3.0,"""event"",""trial"",""time""
""fullscreenenter"",""1"",""20086""
","
","
","""event"",""trial"",""time""
""fullscreenenter"",""1"",""20086""
","
",,null,run_exp/static/images/task_images/barrel_text.jpg,null,,,,,,,,,,,,,,,,,,,,,,,,
decision_prac,37,274466,0.0-13.0-4.0,"""event"",""trial"",""time""
""fullscreenenter"",""1"",""20086""
","
","
","""event"",""trial"",""time""
""fullscreenenter"",""1"",""20086""
","
",,988,run_exp/static/images/task_images/land.jpg,65,,,,,,,,,,,1,,,,,,,,,,,,,
dig_prac,38,276484,0.0-14.0-0.0,"""event"",""trial"",""time""
""fullscreenenter"",""1"",""20086""
","
","
","""event"",""trial"",""time""
""fullscreenenter"",""1"",""20086""
","
",,,,,,,,,,,,"[{""stimulus"":""run_exp/static/images/task_images/dig.jpg"",""time"":0},{""stimulus"":""run_exp/static/images/task_images/land.jpg"",""time"":672},{""stimulus"":""run_exp/static/images/task_images/dig.jpg"",""time"":1344}]",[],,,,,,,,,,,,,,,
harvest_prac,39,277525,0.0-14.0-1.0,"""event"",""trial"",""time""
""fullscreenenter"",""1"",""20086""
","
","
","""event"",""trial"",""time""
""fullscreenenter"",""1"",""20086""
","
",,null,run_exp/static/images/task_images/barrel_text.jpg,null,,,,,,,,,,,,,,,,,,,,,,,,
decision_prac,40,278059,0.0-14.0-2.0,"""event"",""trial"",""time""
""fullscreenenter"",""1"",""20086""
","
","
","""event"",""trial"",""time""
""fullscreenenter"",""1"",""20086""
","
",,533,run_exp/static/images/task_images/land.jpg,65,,,,,,,,,,,2,,,,,,,,,,,,,
dig_prac,41,280072,0.0-15.0-0.0,"""event"",""trial"",""time""
""fullscreenenter"",""1"",""20086""
","
","
","""event"",""trial"",""time""
""fullscreenenter"",""1"",""20086""
","
",,,,,,,,,,,,"[{""stimulus"":""run_exp/static/images/task_images/dig.jpg"",""time"":1},{""stimulus"":""run_exp/static/images/task_images/land.jpg"",""time"":672},{""stimulus"":""run_exp/static/images/task_images/dig.jpg"",""time"":1346}]",[],,,,,,,,,,,,,,,
harvest_prac,42,281084,0.0-15.0-1.0,"""event"",""trial"",""time""
""fullscreenenter"",""1"",""20086""
","
","
","""event"",""trial"",""time""
""fullscreenenter"",""1"",""20086""
","
",,null,run_exp/static/images/task_images/barrel_text.jpg,null,,,,,,,,,,,,,,,,,,,,,,,,
decision_prac,43,281119,0.0-15.0-2.0,"""event"",""trial"",""time""
""fullscreenenter"",""1"",""20086""
","
","
","""event"",""trial"",""time""
""fullscreenenter"",""1"",""20086""
","
",,33,run_exp/static/images/task_images/land.jpg,65,,,,,,,,,,,3,,,,,,,,,,,,,
dig_prac,44,283129,0.0-16.0-0.0,"""event"",""trial"",""time""
""fullscreenenter"",""1"",""20086""
","
","
","""event"",""trial"",""time""
""fullscreenenter"",""1"",""20086""
","
",,,,,,,,,,,,"[{""stimulus"":""run_exp/static/images/task_images/dig.jpg"",""time"":0},{""stimulus"":""run_exp/static/images/task_images/land.jpg"",""time"":687},{""stimulus"":""run_exp/static/images/task_images/dig.jpg"",""time"":1343}]",[],,,,,,,,,,,,,,,
harvest_prac,45,284187,0.0-16.0-1.0,"""event"",""trial"",""time""
""fullscreenenter"",""1"",""20086""
","
","
","""event"",""trial"",""time""
""fullscreenenter"",""1"",""20086""
","
",,null,run_exp/static/images/task_images/barrel_text.jpg,null,,,,,,,,,,,,,,,,,,,,,,,,
decision_prac,46,287199,0.0-16.0-2.0,"""event"",""trial"",""time""
""fullscreenenter"",""1"",""20086""
","
","
","""event"",""trial"",""time""
""fullscreenenter"",""1"",""20086""
","
",,null,run_exp/static/images/task_images/land.jpg,null,,,,,,,,,,,4,,,,,,,,,,,,,
time_out,47,289254,0.0-17.0-0.0,"""event"",""trial"",""time""
""fullscreenenter"",""1"",""20086""
","
","
","""event"",""trial"",""time""
""fullscreenenter"",""1"",""20086""
","
",,null,run_exp/static/images/task_images/time_out.jpg,null,,,,,,,,,,,,,,,,,,,,,,,,
decision_prac,48,290048,0.0-17.0-1.0,"""event"",""trial"",""time""
""fullscreenenter"",""1"",""20086""
","
","
","""event"",""trial"",""time""
""fullscreenenter"",""1"",""20086""
","
",,792,run_exp/static/images/task_images/land.jpg,65,,,,,,,,,,,,1,,,,,,,,,,,,
quiz_instruc,49,294861,0.0-18.0-0.0,"""event"",""trial"",""time""
""fullscreenenter"",""1"",""20086""
","
","
","""event"",""trial"",""time""
""fullscreenenter"",""1"",""20086""
","
",,4808,run_exp/static/audio/clip_10_quiz.m4a,,,,,,,0,,,,,,,,,,,,,,,,,,
instruc_repeat,50,337633,0.0-18.0-1.0,"""event"",""trial"",""time""
""fullscreenenter"",""1"",""20086""
","
","
","""event"",""trial"",""time""
""fullscreenenter"",""1"",""20086""
","
",,null,"<p> Are you ready to play a practice game? </p> <p>In this practice game, you'll be digging up barrels of gems. But, in the real game, you'll be digging up the gems themselves. </p>",null,"<p>In this game, your goal is to collect as many gems as you can. That’s how you will win bonus money. </p> <p>The entire game will last 20 minutes no matter how many gems you collect or how many planets you visit. </p><p>To stay on a planet and dig again, press the letter A on your keyboard. To leave for a new planet, press the letter L.</p><p>The more you dig on a planet, the fewer gems you’ll get with each dig which is why you might consider leaving for a new planet. </p><p>When you arrive at a new planet, you’ll be greeted by an alien. What the alien looks like does not tell you anything about how much treasure is on the planet. </p>",,,,,,,,,,,,,,,,,,,,,,,
instruc_repeat_continue,51,339853,0.0-18.0-2.0,"""event"",""trial"",""time""
""fullscreenenter"",""1"",""20086""
","
","
","""event"",""trial"",""time""
""fullscreenenter"",""1"",""20086""
","
",,2214,"<p> Are you ready to play a practice game? </p> <p>In this practice game, you'll be digging up barrels of gems. But, in the real game, you'll be digging up the gems themselves. </p>",,,,,,,0,,,,,,,,,,,,,,,,,,
quiz_q_1_ask,52,344060,0.0-18.0-3.0,"""event"",""trial"",""time""
""fullscreenenter"",""1"",""20086""
","
","
","""event"",""trial"",""time""
""fullscreenenter"",""1"",""20086""
","
",,4205,run_exp/static/audio/clip_11_q1_ask.m4a,,,,,,,2,,,,,,,,,,,,,,,,,,
quiz_q_1_fb_correct,53,347933,0.0-19.0-0.0,"""event"",""trial"",""time""
""fullscreenenter"",""1"",""20086""
","
","
","""event"",""trial"",""time""
""fullscreenenter"",""1"",""20086""
","
",,null,run_exp/static/audio/clip_12_q1_correct.m4a,null,<p>That’s correct. You win extra money by collecting more gems.</p>,,,,,,,,,,,,,,,,,,,,,,,
quiz_q_2_ask,54,351936,0.0-19.0-1.0,"""event"",""trial"",""time""
""fullscreenenter"",""1"",""20086""
","
","
","""event"",""trial"",""time""
""fullscreenenter"",""1"",""20086""
","
",,4001,run_exp/static/audio/clip_14_q2_ask.m4a,,,,,,,1,,,,,,,,,,,,,,,,,,
quiz_q_2_fb_correct,55,355955,0.0-20.0-0.0,"""event"",""trial"",""time""
""fullscreenenter"",""1"",""20086""
","
","
","""event"",""trial"",""time""
""fullscreenenter"",""1"",""20086""
","
",,null,run_exp/static/audio/clip_15_q2_correct.m4a,null,<p>That’s correct. The experiment is 20 minutes no matter what.</p>,,,,,,,,,,,,,,,,,,,,,,,
quiz_q_3_ask,56,359897,0.0-20.0-1.0,"""event"",""trial"",""time""
""fullscreenenter"",""1"",""20086""
","
","
","""event"",""trial"",""time""
""fullscreenenter"",""1"",""20086""
","
",,3940,run_exp/static/audio/clip_17_q3_ask.m4a,,,,,,,1,,,,,,,,,,,,,,,,,,
quiz_q_3_fb_correct,57,363894,0.0-21.0-0.0,"""event"",""trial"",""time""
""fullscreenenter"",""1"",""20086""
","
","
","""event"",""trial"",""time""
""fullscreenenter"",""1"",""20086""
","
",,null,run_exp/static/audio/clip_18_q3_correct.m4a,null,<p> That’s correct. You press the letter L to travel to a new planet.</p>,,,,,,,,,,,,,,,,,,,,,,,
quiz_q_4_ask,58,368110,0.0-21.0-1.0,"""event"",""trial"",""time""
""fullscreenenter"",""1"",""20086""
","
","
","""event"",""trial"",""time""
""fullscreenenter"",""1"",""20086""
","
",,4215,run_exp/static/audio/clip_20_q4_ask.m4a,,,,,,,0,,,,,,,,,,,,,,,,,,
quiz_q_4_fb_correct,59,373453,0.0-22.0-0.0,"""event"",""trial"",""time""
""fullscreenenter"",""1"",""20086""
","
","
","""event"",""trial"",""time""
""fullscreenenter"",""1"",""20086""
","
",,null,run_exp/static/audio/clip_21_q4_correct.m4a,null,<p> That’s correct. The more you dig on a planet the fewer gems you’ll get with each dig. </p>,,,,,,,,,,,,,,,,,,,,,,,
quiz_q_5_ask,60,376405,0.0-22.0-1.0,"""event"",""trial"",""time""
""fullscreenenter"",""1"",""20086""
","
","
","""event"",""trial"",""time""
""fullscreenenter"",""1"",""20086""
","
",,2947,run_exp/static/audio/clip_23_q5_ask.m4a,,,,,,,1,,,,,,,,,,,,,,,,,,
quiz_q_5_fb_correct,61,381432,0.0-23.0-0.0,"""event"",""trial"",""time""
""fullscreenenter"",""1"",""20086""
","
","
","""event"",""trial"",""time""
""fullscreenenter"",""1"",""20086""
","
",,null,run_exp/static/audio/clip_24_q5_correct.m4a,null,<p> That’s correct. The alien tells you nothing about how much treasure is on the planet.</p>,,,,,,,,,,,,,,,,,,,,,,,
quiz_correct,62,384914,0.0-24.0-0.0,"""event"",""trial"",""time""
""fullscreenenter"",""1"",""20086""
","
","
","""event"",""trial"",""time""
""fullscreenenter"",""1"",""20086""
","
",,null,run_exp/static/audio/clip_26_correct_quiz.m4a,null,,,,,,,,,,,,,,,,,,,,,,,,
quiz_correct_continue,63,389014,0.0-24.0-1.0,"""event"",""trial"",""time""
""fullscreenenter"",""1"",""20086""
","
","
","""event"",""trial"",""time""
""fullscreenenter"",""1"",""20086""
","
",,4099,<p>Good job! You're now ready to move on to the real game!</p>,,,,,,,0,,,,,,,,,,,,,,,,,,
audio-keyboard-response,64,399153,0.0-24.0-2.0,"""event"",""trial"",""time""
""fullscreenenter"",""1"",""20086""
","
","
","""event"",""trial"",""time""
""fullscreenenter"",""1"",""20086""
","
",,null,run_exp/static/audio/clip_28_real_game.m4a,null,,,,,,,,,,,,,,,,,,,,,,,,
instruc_begin_exp_contine,65,401332,0.0-24.0-3.0,"""event"",""trial"",""time""
""fullscreenenter"",""1"",""20086""
","
","
","""event"",""trial"",""time""
""fullscreenenter"",""1"",""20086""
","
",,2178,"<p>Now that you know how  to dig for space treasure and travel to new planets,you can start exploring! </p><p>Do you want to go over the instructions again or get started with the real game?</p>",,,,,,,1,,,,,,1,,,,,,,,,,,,
alien_welcome,66,406349,0.0-25.0-0.0,"""event"",""trial"",""time""
""fullscreenenter"",""1"",""20086""
","
","
","""event"",""trial"",""time""
""fullscreenenter"",""1"",""20086""
","
",,null,run_exp/static/images/task_images/aliens/old_aliens/planet/alien_planet-28.jpg,null,,,,,,,,,,,,,28,"28,19,63,26,48,74,13,53,21,41,39,14,46,51,32,20,69,37,75,61,65,64,47,15,10,42,2,9,36,44,30,67,62,56,12,60,1",,,,,,,,,,
land,67,406884,0.0-25.0-1.0,"""event"",""trial"",""time""
""fullscreenenter"",""1"",""20086""
","
","
","""event"",""trial"",""time""
""fullscreenenter"",""1"",""20086""
","
",,null,run_exp/static/images/task_images/land.jpg,null,,,,,,,95,,,1,,,,,,,,,,,,,,
dig,68,408890,0.0-25.0-2.0,"""event"",""trial"",""time""
""fullscreenenter"",""1"",""20086""
","
","
","""event"",""trial"",""time""
""fullscreenenter"",""1"",""20086""
","
",,,,,,,,,,,,"[{""stimulus"":""run_exp/static/images/task_images/dig.jpg"",""time"":0},{""stimulus"":""run_exp/static/images/task_images/land.jpg"",""time"":678},{""stimulus"":""run_exp/static/images/task_images/dig.jpg"",""time"":1352}]",[],1,,,,,,,,,,,,,,
harvest,69,409916,0.0-25.0-3.0,"""event"",""trial"",""time""
""fullscreenenter"",""1"",""20086""
","
","
","""event"",""trial"",""time""
""fullscreenenter"",""1"",""20086""
","
",,null,run_exp/static/images/task_images/gems/95.jpg,null,,,,,,,15,,,1,,,,,95,0.162961161,0.157894737,,,,,,,
decision,70,410442,0.0-25.0-4.0,"""event"",""trial"",""time""
""fullscreenenter"",""1"",""20086""
","
","
","""event"",""trial"",""time""
""fullscreenenter"",""1"",""20086""
","
",,525,run_exp/static/images/task_images/land.jpg,65,,,,,,,15,,,1,,,,,,,,9108,1,0,FALSE,,,
dig,71,412925,0.0-26.0-0.0,"""event"",""trial"",""time""
""fullscreenenter"",""1"",""20086""
","
","
","""event"",""trial"",""time""
""fullscreenenter"",""1"",""20086""
","
",,,,,,,,,,,,"[{""stimulus"":""run_exp/static/images/task_images/dig.jpg"",""time"":0},{""stimulus"":""run_exp/static/images/task_images/land.jpg"",""time"":838},{""stimulus"":""run_exp/static/images/task_images/dig.jpg"",""time"":1654}]",[],1,,,,,,,,,,,,,,
harvest,72,413965,0.0-26.0-1.0,"""event"",""trial"",""time""
""fullscreenenter"",""1"",""20086""
","
","
","""event"",""trial"",""time""
""fullscreenenter"",""1"",""20086""
","
",,null,run_exp/static/images/task_images/gems/15.jpg,null,,,,,,,3,,,1,,,,,15,0.22434499,0.2,,,,,,,
decision,73,414305,0.0-26.0-2.0,"""event"",""trial"",""time""
""fullscreenenter"",""1"",""20086""
","
","
","""event"",""trial"",""time""
""fullscreenenter"",""1"",""20086""
","
",,339,run_exp/static/images/task_images/land.jpg,65,,,,,,,3,,,1,,,,,,,,12971,1,1,FALSE,,,
dig,74,416975,0.0-27.0-0.0,"""event"",""trial"",""time""
""fullscreenenter"",""1"",""20086""
","
","
","""event"",""trial"",""time""
""fullscreenenter"",""1"",""20086""
","
",,,,,,,,,,,,"[{""stimulus"":""run_exp/static/images/task_images/dig.jpg"",""time"":0},{""stimulus"":""run_exp/static/images/task_images/land.jpg"",""time"":906},{""stimulus"":""run_exp/static/images/task_images/dig.jpg"",""time"":1779}]",[],1,,,,,,,,,,,,,,
harvest,75,418015,0.0-27.0-1.0,"""event"",""trial"",""time""
""fullscreenenter"",""1"",""20086""
","
","
","""event"",""trial"",""time""
""fullscreenenter"",""1"",""20086""
","
",,null,run_exp/static/images/task_images/gems/3.jpg,null,,,,,,,1,,,1,,,,,3,0.190307068,0.333333333,,,,,,,
decision,76,418513,0.0-27.0-2.0,"""event"",""trial"",""time""
""fullscreenenter"",""1"",""20086""
","
","
","""event"",""trial"",""time""
""fullscreenenter"",""1"",""20086""
","
",,497,run_exp/static/images/task_images/land.jpg,65,,,,,,,1,,,1,,,,,,,,17179,1,2,FALSE,,,
dig,77,421029,0.0-28.0-0.0,"""event"",""trial"",""time""
""fullscreenenter"",""1"",""20086""
","
","
","""event"",""trial"",""time""
""fullscreenenter"",""1"",""20086""
","
",,,,,,,,,,,,"[{""stimulus"":""run_exp/static/images/task_images/dig.jpg"",""time"":0},{""stimulus"":""run_exp/static/images/task_images/land.jpg"",""time"":852},{""stimulus"":""run_exp/static/images/task_images/dig.jpg"",""time"":1686}]",[],1,,,,,,,,,,,,,,
harvest,78,422064,0.0-28.0-1.0,"""event"",""trial"",""time""
""fullscreenenter"",""1"",""20086""
","
","
","""event"",""trial"",""time""
""fullscreenenter"",""1"",""20086""
","
",,null,run_exp/static/images/task_images/gems/1.jpg,null,,,,,,,0,,,1,,,,,1,0.09926074,0,,,,,,,
decision,79,422629,0.0-28.0-2.0,"""event"",""trial"",""time""
""fullscreenenter"",""1"",""20086""
","
","
","""event"",""trial"",""time""
""fullscreenenter"",""1"",""20086""
","
",,562,run_exp/static/images/task_images/land.jpg,76,,,,,,,0,,,1,,,,,,,,21295,1,3,TRUE,,,
travel,80,432066,0.0-29.0-0.0,"""event"",""trial"",""time""
""fullscreenenter"",""1"",""20086""
","
","
","""event"",""trial"",""time""
""fullscreenenter"",""1"",""20086""
","
",,,,,,,,,,,,"[{""stimulus"":""run_exp/static/images/task_images/rocket-01.jpg"",""time"":0},{""stimulus"":""run_exp/static/images/task_images/rocket-02.jpg"",""time"":1063},{""stimulus"":""run_exp/static/images/task_images/rocket-03.jpg"",""time"":2109},{""stimulus"":""run_exp/static/images/task_images/rocket-04.jpg"",""time"":3153},{""stimulus"":""run_exp/static/images/task_images/rocket-05.jpg"",""time"":4193},{""stimulus"":""run_exp/static/images/task_images/rocket-06.jpg"",""time"":5254},{""stimulus"":""run_exp/static/images/task_images/rocket-07.jpg"",""time"":6294},{""stimulus"":""run_exp/static/images/task_images/rocket-08.jpg"",""time"":7341},{""stimulus"":""run_exp/static/images/task_images/rocket-09.jpg"",""time"":8396}]",[],1,,,,,,,,,,,,,,
alien_welcome,81,437094,0.0-29.0-1.0,"""event"",""trial"",""time""
""fullscreenenter"",""1"",""20086""
","
","
","""event"",""trial"",""time""
""fullscreenenter"",""1"",""20086""
","
",,null,run_exp/static/images/task_images/aliens/old_aliens/planet/alien_planet-19.jpg,null,,,,,,,,,,,,,19,"28,19,63,26,48,74,13,53,21,41,39,14,46,51,32,20,69,37,75,61,65,64,47,15,10,42,2,9,36,44,30,67,62,56,12,60,1",,,,,,,,,,
land,82,437632,0.0-29.0-2.0,"""event"",""trial"",""time""
""fullscreenenter"",""1"",""20086""
","
","
","""event"",""trial"",""time""
""fullscreenenter"",""1"",""20086""
","
",,null,run_exp/static/images/task_images/land.jpg,null,,,,,,,94,,,2,,,,,,,,,,,,,,
dig,83,439637,0.0-29.0-3.0,"""event"",""trial"",""time""
""fullscreenenter"",""1"",""20086""
","
","
","""event"",""trial"",""time""
""fullscreenenter"",""1"",""20086""
","
",,,,,,,,,,,,"[{""stimulus"":""run_exp/static/images/task_images/dig.jpg"",""time"":0},{""stimulus"":""run_exp/static/images/task_images/land.jpg"",""time"":669},{""stimulus"":""run_exp/static/images/task_images/dig.jpg"",""time"":1336}]",[],2,,,,,,,,,,,,,,
harvest,84,440666,0.0-29.0-4.0,"""event"",""trial"",""time""
""fullscreenenter"",""1"",""20086""
","
","
","""event"",""trial"",""time""
""fullscreenenter"",""1"",""20086""
","
",,null,run_exp/static/images/task_images/gems/94.jpg,null,,,,,,,14,,,2,,,,,94,0.148829379,0.14893617,,,,,,,
decision,85,441392,0.0-29.0-5.0,"""event"",""trial"",""time""
""fullscreenenter"",""1"",""20086""
","
","
","""event"",""trial"",""time""
""fullscreenenter"",""1"",""20086""
","
",,725,run_exp/static/images/task_images/land.jpg,65,,,,,,,14,,,2,,,,,,,,40058,1,0,FALSE,,,
dig,86,443670,0.0-30.0-0.0,"""event"",""trial"",""time""
""fullscreenenter"",""1"",""20086""
","
","
","""event"",""trial"",""time""
""fullscreenenter"",""1"",""20086""
","
",,,,,,,,,,,,"[{""stimulus"":""run_exp/static/images/task_images/dig.jpg"",""time"":0},{""stimulus"":""run_exp/static/images/task_images/land.jpg"",""time"":769},{""stimulus"":""run_exp/static/images/task_images/dig.jpg"",""time"":1530}]",[],2,,,,,,,,,,,,,,
harvest,87,444715,0.0-30.0-1.0,"""event"",""trial"",""time""
""fullscreenenter"",""1"",""20086""
","
","
","""event"",""trial"",""time""
""fullscreenenter"",""1"",""20086""
","
",,null,run_exp/static/images/task_images/gems/14.jpg,null,,,,,,,5,,,2,,,,,14,0.342614354,0.357142857,,,,,,,
decision,88,446268,0.0-30.0-2.0,"""event"",""trial"",""time""
""fullscreenenter"",""1"",""20086""
","
","
","""event"",""trial"",""time""
""fullscreenenter"",""1"",""20086""
","
",,1551,run_exp/static/images/task_images/land.jpg,65,,,,,,,5,,,2,,,,,,,,44934,1,1,FALSE,,,
dig,89,447734,0.0-31.0-0.0,"""event"",""trial"",""time""
""fullscreenenter"",""1"",""20086""
","
","
","""event"",""trial"",""time""
""fullscreenenter"",""1"",""20086""
","
",,,,,,,,,,,,"[{""stimulus"":""run_exp/static/images/task_images/dig.jpg"",""time"":1},{""stimulus"":""run_exp/static/images/task_images/land.jpg"",""time"":496},{""stimulus"":""run_exp/static/images/task_images/dig.jpg"",""time"":992}]",[],2,,,,,,,,,,,,,,
harvest,90,448765,0.0-31.0-1.0,"""event"",""trial"",""time""
""fullscreenenter"",""1"",""20086""
","
","
","""event"",""trial"",""time""
""fullscreenenter"",""1"",""20086""
","
",,null,run_exp/static/images/task_images/gems/5.jpg,null,,,,,,,1,,,2,,,,,5,0.217398254,0.2,,,,,,,
decision,91,451038,0.0-31.0-2.0,"""event"",""trial"",""time""
""fullscreenenter"",""1"",""20086""
","
","
","""event"",""trial"",""time""
""fullscreenenter"",""1"",""20086""
","
",,2271,run_exp/static/images/task_images/land.jpg,76,,,,,,,1,,,2,,,,,,,,49704,1,2,TRUE,,,
travel,92,458780,0.0-32.0-0.0,"""event"",""trial"",""time""
""fullscreenenter"",""1"",""20086""
","
","
","""event"",""trial"",""time""
""fullscreenenter"",""1"",""20086""
","
",,,,,,,,,,,,"[{""stimulus"":""run_exp/static/images/task_images/rocket-01.jpg"",""time"":0},{""stimulus"":""run_exp/static/images/task_images/rocket-02.jpg"",""time"":866},{""stimulus"":""run_exp/static/images/task_images/rocket-03.jpg"",""time"":1721},{""stimulus"":""run_exp/static/images/task_images/rocket-04.jpg"",""time"":2586},{""stimulus"":""run_exp/static/images/task_images/rocket-05.jpg"",""time"":3441},{""stimulus"":""run_exp/static/images/task_images/rocket-06.jpg"",""time"":4303},{""stimulus"":""run_exp/static/images/task_images/rocket-07.jpg"",""time"":5159},{""stimulus"":""run_exp/static/images/task_images/rocket-08.jpg"",""time"":6021},{""stimulus"":""run_exp/static/images/task_images/rocket-09.jpg"",""time"":6876}]",[],2,,,,,,,,,,,,,,
alien_welcome,93,463826,0.0-32.0-1.0,"""event"",""trial"",""time""
""fullscreenenter"",""1"",""20086""
","
","
","""event"",""trial"",""time""
""fullscreenenter"",""1"",""20086""
","
",,null,run_exp/static/images/task_images/aliens/old_aliens/planet/alien_planet-63.jpg,null,,,,,,,,,,,,,63,"28,19,63,26,48,74,13,53,21,41,39,14,46,51,32,20,69,37,75,61,65,64,47,15,10,42,2,9,36,44,30,67,62,56,12,60,1",,,,,,,,,,
land,94,464369,0.0-32.0-2.0,"""event"",""trial"",""time""
""fullscreenenter"",""1"",""20086""
","
","
","""event"",""trial"",""time""
""fullscreenenter"",""1"",""20086""
","
",,null,run_exp/static/images/task_images/land.jpg,null,,,,,,,94,,,3,,,,,,,,,,,,,,
dig,95,466374,0.0-32.0-3.0,"""event"",""trial"",""time""
""fullscreenenter"",""1"",""20086""
","
","
","""event"",""trial"",""time""
""fullscreenenter"",""1"",""20086""
","
",,,,,,,,,,,,"[{""stimulus"":""run_exp/static/images/task_images/dig.jpg"",""time"":0},{""stimulus"":""run_exp/static/images/task_images/land.jpg"",""time"":673},{""stimulus"":""run_exp/static/images/task_images/dig.jpg"",""time"":1344}]",[],3,,,,,,,,,,,,,,
harvest,96,467386,0.0-32.0-4.0,"""event"",""trial"",""time""
""fullscreenenter"",""1"",""20086""
","
","
","""event"",""trial"",""time""
""fullscreenenter"",""1"",""20086""
","
",,null,run_exp/static/images/task_images/gems/94.jpg,null,,,,,,,47,,,3,,,,,94,0.505045448,0.5,,,,,,,
decision,97,467702,0.0-32.0-5.0,"""event"",""trial"",""time""
""fullscreenenter"",""1"",""20086""
","
","
","""event"",""trial"",""time""
""fullscreenenter"",""1"",""20086""
","
",,313,run_exp/static/images/task_images/land.jpg,65,,,,,,,47,,,3,,,,,,,,66368,1,0,FALSE,,,
dig,98,470398,0.0-33.0-0.0,"""event"",""trial"",""time""
""fullscreenenter"",""1"",""20086""
","
","
","""event"",""trial"",""time""
""fullscreenenter"",""1"",""20086""
","
",,,,,,,,,,,,"[{""stimulus"":""run_exp/static/images/task_images/dig.jpg"",""time"":0},{""stimulus"":""run_exp/static/images/task_images/land.jpg"",""time"":905},{""stimulus"":""run_exp/static/images/task_images/dig.jpg"",""time"":1803}]",[],3,,,,,,,,,,,,,,
harvest,99,471409,0.0-33.0-1.0,"""event"",""trial"",""time""
""fullscreenenter"",""1"",""20086""
","
","
","""event"",""trial"",""time""
""fullscreenenter"",""1"",""20086""
","
",,null,run_exp/static/images/task_images/gems/47.jpg,null,,,,,,,28,,,3,,,,,47,0.600058627,0.595744681,,,,,,,
decision,100,471773,0.0-33.0-2.0,"""event"",""trial"",""time""
""fullscreenenter"",""1"",""20086""
","
","
","""event"",""trial"",""time""
""fullscreenenter"",""1"",""20086""
","
",,362,run_exp/static/images/task_images/land.jpg,65,,,,,,,28,,,3,,,,,,,,70439,1,1,FALSE,,,
dig,101,474430,0.0-34.0-0.0,"""event"",""trial"",""time""
""fullscreenenter"",""1"",""20086""
","
","
","""event"",""trial"",""time""
""fullscreenenter"",""1"",""20086""
","
",,,,,,,,,,,,"[{""stimulus"":""run_exp/static/images/task_images/dig.jpg"",""time"":0},{""stimulus"":""run_exp/static/images/task_images/land.jpg"",""time"":882},{""stimulus"":""run_exp/static/images/task_images/dig.jpg"",""time"":1760}]",[],3,,,,,,,,,,,,,,
harvest,102,475465,0.0-34.0-1.0,"""event"",""trial"",""time""
""fullscreenenter"",""1"",""20086""
","
","
","""event"",""trial"",""time""
""fullscreenenter"",""1"",""20086""
","
",,null,run_exp/static/images/task_images/gems/28.jpg,null,,,,,,,16,,,3,,,,,28,0.568009134,0.571428571,,,,,,,
decision,103,477124,0.0-34.0-2.0,"""event"",""trial"",""time""
""fullscreenenter"",""1"",""20086""
","
","
","""event"",""trial"",""time""
""fullscreenenter"",""1"",""20086""
","
",,1658,run_exp/static/images/task_images/land.jpg,65,,,,,,,16,,,3,,,,,,,,75790,1,2,FALSE,,,
dig,104,478483,0.0-35.0-0.0,"""event"",""trial"",""time""
""fullscreenenter"",""1"",""20086""
","
","
","""event"",""trial"",""time""
""fullscreenenter"",""1"",""20086""
","
",,,,,,,,,,,,"[{""stimulus"":""run_exp/static/images/task_images/dig.jpg"",""time"":0},{""stimulus"":""run_exp/static/images/task_images/land.jpg"",""time"":451},{""stimulus"":""run_exp/static/images/task_images/dig.jpg"",""time"":901}]",[],3,,,,,,,,,,,,,,
harvest,105,479514,0.0-35.0-1.0,"""event"",""trial"",""time""
""fullscreenenter"",""1"",""20086""
","
","
","""event"",""trial"",""time""
""fullscreenenter"",""1"",""20086""
","
",,null,run_exp/static/images/task_images/gems/16.jpg,null,,,,,,,8,,,3,,,,,16,0.506023088,0.5,,,,,,,
decision,106,479822,0.0-35.0-2.0,"""event"",""trial"",""time""
""fullscreenenter"",""1"",""20086""
","
","
","""event"",""trial"",""time""
""fullscreenenter"",""1"",""20086""
","
",,307,run_exp/static/images/task_images/land.jpg,65,,,,,,,8,,,3,,,,,,,,78489,1,3,FALSE,,,
dig,107,482542,0.0-36.0-0.0,"""event"",""trial"",""time""
""fullscreenenter"",""1"",""20086""
","
","
","""event"",""trial"",""time""
""fullscreenenter"",""1"",""20086""
","
",,,,,,,,,,,,"[{""stimulus"":""run_exp/static/images/task_images/dig.jpg"",""time"":0},{""stimulus"":""run_exp/static/images/task_images/land.jpg"",""time"":908},{""stimulus"":""run_exp/static/images/task_images/dig.jpg"",""time"":1801}]",[],3,,,,,,,,,,,,,,
harvest,108,483548,0.0-36.0-1.0,"""event"",""trial"",""time""
""fullscreenenter"",""1"",""20086""
","
","
","""event"",""trial"",""time""
""fullscreenenter"",""1"",""20086""
","
",,null,run_exp/static/images/task_images/gems/8.jpg,null,,,,,,,4,,,3,,,,,8,0.455026632,0.5,,,,,,,
decision,109,483616,0.0-36.0-2.0,"""event"",""trial"",""time""
""fullscreenenter"",""1"",""20086""
","
","
","""event"",""trial"",""time""
""fullscreenenter"",""1"",""20086""
","
",,66,run_exp/static/images/task_images/land.jpg,76,,,,,,,4,,,3,,,,,,,,82283,1,4,TRUE,,,
travel,110,493550,0.0-37.0-0.0,"""event"",""trial"",""time""
""fullscreenenter"",""1"",""20086""
","
","
","""event"",""trial"",""time""
""fullscreenenter"",""1"",""20086""
","
",,,,,,,,,,,,"[{""stimulus"":""run_exp/static/images/task_images/rocket-01.jpg"",""time"":1},{""stimulus"":""run_exp/static/images/task_images/rocket-02.jpg"",""time"":1111},{""stimulus"":""run_exp/static/images/task_images/rocket-03.jpg"",""time"":2218},{""stimulus"":""run_exp/static/images/task_images/rocket-04.jpg"",""time"":3324},{""stimulus"":""run_exp/static/images/task_images/rocket-05.jpg"",""time"":4417},{""stimulus"":""run_exp/static/images/task_images/rocket-06.jpg"",""time"":5524},{""stimulus"":""run_exp/static/images/task_images/rocket-07.jpg"",""time"":6634},{""stimulus"":""run_exp/static/images/task_images/rocket-08.jpg"",""time"":7724},{""stimulus"":""run_exp/static/images/task_images/rocket-09.jpg"",""time"":8827}]",[],3,,,,,,,,,,,,,,
alien_welcome,111,498562,0.0-37.0-1.0,"""event"",""trial"",""time""
""fullscreenenter"",""1"",""20086""
","
","
","""event"",""trial"",""time""
""fullscreenenter"",""1"",""20086""
","
",,null,run_exp/static/images/task_images/aliens/old_aliens/planet/alien_planet-26.jpg,null,,,,,,,,,,,,,26,"28,19,63,26,48,74,13,53,21,41,39,14,46,51,32,20,69,37,75,61,65,64,47,15,10,42,2,9,36,44,30,67,62,56,12,60,1",,,,,,,,,,
land,112,499069,0.0-37.0-2.0,"""event"",""trial"",""time""
""fullscreenenter"",""1"",""20086""
","
","
","""event"",""trial"",""time""
""fullscreenenter"",""1"",""20086""
","
",,null,run_exp/static/images/task_images/land.jpg,null,,,,,,,100,,,4,,,,,,,,,,,,,,
dig,113,501084,0.0-37.0-3.0,"""event"",""trial"",""time""
""fullscreenenter"",""1"",""20086""
","
","
","""event"",""trial"",""time""
""fullscreenenter"",""1"",""20086""
","
",,,,,,,,,,,,"[{""stimulus"":""run_exp/static/images/task_images/dig.jpg"",""time"":2},{""stimulus"":""run_exp/static/images/task_images/land.jpg"",""time"":679},{""stimulus"":""run_exp/static/images/task_images/dig.jpg"",""time"":1345}]",[],4,,,,,,,,,,,,,,
harvest,114,502097,0.0-37.0-4.0,"""event"",""trial"",""time""
""fullscreenenter"",""1"",""20086""
","
","
","""event"",""trial"",""time""
""fullscreenenter"",""1"",""20086""
","
",,null,run_exp/static/images/task_images/gems/100.jpg,null,,,,,,,49,,,4,,,,,100,0.487473559,0.49,,,,,,,
decision,115,502216,0.0-37.0-5.0,"""event"",""trial"",""time""
""fullscreenenter"",""1"",""20086""
","
","
","""event"",""trial"",""time""
""fullscreenenter"",""1"",""20086""
","
",,116,run_exp/static/images/task_images/land.jpg,65,,,,,,,49,,,4,,,,,,,,100882,1,0,FALSE,,,
dig,116,505113,0.0-38.0-0.0,"""event"",""trial"",""time""
""fullscreenenter"",""1"",""20086""
","
","
","""event"",""trial"",""time""
""fullscreenenter"",""1"",""20086""
","
",,,,,,,,,,,,"[{""stimulus"":""run_exp/static/images/task_images/dig.jpg"",""time"":0},{""stimulus"":""run_exp/static/images/task_images/land.jpg"",""time"":970},{""stimulus"":""run_exp/static/images/task_images/dig.jpg"",""time"":1932}]",[],4,,,,,,,,,,,,,,
harvest,117,506153,0.0-38.0-1.0,"""event"",""trial"",""time""
""fullscreenenter"",""1"",""20086""
","
","
","""event"",""trial"",""time""
""fullscreenenter"",""1"",""20086""
","
",,null,run_exp/static/images/task_images/gems/49.jpg,null,,,,,,,23,,,4,,,,,49,0.466752154,0.469387755,,,,,,,
decision,118,507245,0.0-38.0-2.0,"""event"",""trial"",""time""
""fullscreenenter"",""1"",""20086""
","
","
","""event"",""trial"",""time""
""fullscreenenter"",""1"",""20086""
","
",,1091,run_exp/static/images/task_images/land.jpg,65,,,,,,,23,,,4,,,,,,,,105911,1,1,FALSE,,,
dig,119,509158,0.0-39.0-0.0,"""event"",""trial"",""time""
""fullscreenenter"",""1"",""20086""
","
","
","""event"",""trial"",""time""
""fullscreenenter"",""1"",""20086""
","
",,,,,,,,,,,,"[{""stimulus"":""run_exp/static/images/task_images/dig.jpg"",""time"":0},{""stimulus"":""run_exp/static/images/task_images/land.jpg"",""time"":645},{""stimulus"":""run_exp/static/images/task_images/dig.jpg"",""time"":1285}]",[],4,,,,,,,,,,,,,,
harvest,120,510166,0.0-39.0-1.0,"""event"",""trial"",""time""
""fullscreenenter"",""1"",""20086""
","
","
","""event"",""trial"",""time""
""fullscreenenter"",""1"",""20086""
","
",,null,run_exp/static/images/task_images/gems/23.jpg,null,,,,,,,11,,,4,,,,,23,0.48717911,0.47826087,,,,,,,
decision,121,510176,0.0-39.0-2.0,"""event"",""trial"",""time""
""fullscreenenter"",""1"",""20086""
","
","
","""event"",""trial"",""time""
""fullscreenenter"",""1"",""20086""
","
",,9,run_exp/static/images/task_images/land.jpg,65,,,,,,,11,,,4,,,,,,,,108842,1,2,FALSE,,,
dig,122,513173,0.0-40.0-0.0,"""event"",""trial"",""time""
""fullscreenenter"",""1"",""20086""
","
","
","""event"",""trial"",""time""
""fullscreenenter"",""1"",""20086""
","
",,,,,,,,,,,,"[{""stimulus"":""run_exp/static/images/task_images/dig.jpg"",""time"":0},{""stimulus"":""run_exp/static/images/task_images/land.jpg"",""time"":1005},{""stimulus"":""run_exp/static/images/task_images/dig.jpg"",""time"":2006}]",[],4,,,,,,,,,,,,,,
harvest,123,514187,0.0-40.0-1.0,"""event"",""trial"",""time""
""fullscreenenter"",""1"",""20086""
","
","
","""event"",""trial"",""time""
""fullscreenenter"",""1"",""20086""
","
",,null,run_exp/static/images/task_images/gems/11.jpg,null,,,,,,,6,,,4,,,,,11,0.589971162,0.545454545,,,,,,,
decision,124,515518,0.0-40.0-2.0,"""event"",""trial"",""time""
""fullscreenenter"",""1"",""20086""
","
","
","""event"",""trial"",""time""
""fullscreenenter"",""1"",""20086""
","
",,1329,run_exp/static/images/task_images/land.jpg,65,,,,,,,6,,,4,,,,,,,,114184,1,3,FALSE,,,
dig,125,517198,0.0-41.0-0.0,"""event"",""trial"",""time""
""fullscreenenter"",""1"",""20086""
","
","
","""event"",""trial"",""time""
""fullscreenenter"",""1"",""20086""
","
",,,,,,,,,,,,"[{""stimulus"":""run_exp/static/images/task_images/dig.jpg"",""time"":0},{""stimulus"":""run_exp/static/images/task_images/land.jpg"",""time"":573},{""stimulus"":""run_exp/static/images/task_images/dig.jpg"",""time"":1119}]",[],4,,,,,,,,,,,,,,
harvest,126,518208,0.0-41.0-1.0,"""event"",""trial"",""time""
""fullscreenenter"",""1"",""20086""
","
","
","""event"",""trial"",""time""
""fullscreenenter"",""1"",""20086""
","
",,null,run_exp/static/images/task_images/gems/6.jpg,null,,,,,,,3,,,4,,,,,6,0.442325452,0.5,,,,,,,
decision,127,518371,0.0-41.0-2.0,"""event"",""trial"",""time""
""fullscreenenter"",""1"",""20086""
","
","
","""event"",""trial"",""time""
""fullscreenenter"",""1"",""20086""
","
",,161,run_exp/static/images/task_images/land.jpg,65,,,,,,,3,,,4,,,,,,,,117037,1,4,FALSE,,,
dig,128,521213,0.0-42.0-0.0,"""event"",""trial"",""time""
""fullscreenenter"",""1"",""20086""
","
","
","""event"",""trial"",""time""
""fullscreenenter"",""1"",""20086""
","
",,,,,,,,,,,,"[{""stimulus"":""run_exp/static/images/task_images/dig.jpg"",""time"":0},{""stimulus"":""run_exp/static/images/task_images/land.jpg"",""time"":955},{""stimulus"":""run_exp/static/images/task_images/dig.jpg"",""time"":1905}]",[],4,,,,,,,,,,,,,,
harvest,129,522218,0.0-42.0-1.0,"""event"",""trial"",""time""
""fullscreenenter"",""1"",""20086""
","
","
","""event"",""trial"",""time""
""fullscreenenter"",""1"",""20086""
","
",,null,run_exp/static/images/task_images/gems/3.jpg,null,,,,,,,2,,,4,,,,,3,0.564127373,0.666666667,,,,,,,
decision,130,524549,0.0-42.0-2.0,"""event"",""trial"",""time""
""fullscreenenter"",""1"",""20086""
","
","
","""event"",""trial"",""time""
""fullscreenenter"",""1"",""20086""
","
",,2331,run_exp/static/images/task_images/land.jpg,76,,,,,,,2,,,4,,,,,,,,123215,1,5,TRUE,,,
travel,131,532223,0.0-43.0-0.0,"""event"",""trial"",""time""
""fullscreenenter"",""1"",""20086""
","
","
","""event"",""trial"",""time""
""fullscreenenter"",""1"",""20086""
","
",,,,,,,,,,,,"[{""stimulus"":""run_exp/static/images/task_images/rocket-01.jpg"",""time"":0},{""stimulus"":""run_exp/static/images/task_images/rocket-02.jpg"",""time"":863},{""stimulus"":""run_exp/static/images/task_images/rocket-03.jpg"",""time"":1710},{""stimulus"":""run_exp/static/images/task_images/rocket-04.jpg"",""time"":2571},{""stimulus"":""run_exp/static/images/task_images/rocket-05.jpg"",""time"":3411},{""stimulus"":""run_exp/static/images/task_images/rocket-06.jpg"",""time"":4272},{""stimulus"":""run_exp/static/images/task_images/rocket-07.jpg"",""time"":5120},{""stimulus"":""run_exp/static/images/task_images/rocket-08.jpg"",""time"":5968},{""stimulus"":""run_exp/static/images/task_images/rocket-09.jpg"",""time"":6825}]",[],4,,,,,,,,,,,,,,
alien_welcome,132,537236,0.0-43.0-1.0,"""event"",""trial"",""time""
""fullscreenenter"",""1"",""20086""
","
","
","""event"",""trial"",""time""
""fullscreenenter"",""1"",""20086""
","
",,null,run_exp/static/images/task_images/aliens/old_aliens/planet/alien_planet-48.jpg,null,,,,,,,,,,,,,48,"28,19,63,26,48,74,13,53,21,41,39,14,46,51,32,20,69,37,75,61,65,64,47,15,10,42,2,9,36,44,30,67,62,56,12,60,1",,,,,,,,,,
land,133,537747,0.0-43.0-2.0,"""event"",""trial"",""time""
""fullscreenenter"",""1"",""20086""
","
","
","""event"",""trial"",""time""
""fullscreenenter"",""1"",""20086""
","
",,null,run_exp/static/images/task_images/land.jpg,null,,,,,,,104,,,5,,,,,,,,,,,,,,
dig,134,539752,0.0-43.0-3.0,"""event"",""trial"",""time""
""fullscreenenter"",""1"",""20086""
","
","
","""event"",""trial"",""time""
""fullscreenenter"",""1"",""20086""
","
",,,,,,,,,,,,"[{""stimulus"":""run_exp/static/images/task_images/dig.jpg"",""time"":0},{""stimulus"":""run_exp/static/images/task_images/land.jpg"",""time"":673},{""stimulus"":""run_exp/static/images/task_images/dig.jpg"",""time"":1339}]",[],5,,,,,,,,,,,,,,
harvest,135,540766,0.0-43.0-4.0,"""event"",""trial"",""time""
""fullscreenenter"",""1"",""20086""
","
","
","""event"",""trial"",""time""
""fullscreenenter"",""1"",""20086""
","
",,null,run_exp/static/images/task_images/gems/104.jpg,null,,,,,,,51,,,5,,,,,104,0.489664041,0.490384615,,,,,,,
decision,136,540906,0.0-43.0-5.0,"""event"",""trial"",""time""
""fullscreenenter"",""1"",""20086""
","
","
","""event"",""trial"",""time""
""fullscreenenter"",""1"",""20086""
","
",,139,run_exp/static/images/task_images/land.jpg,65,,,,,,,51,,,5,,,,,,,,139572,1,0,FALSE,,,
dig,137,543778,0.0-44.0-0.0,"""event"",""trial"",""time""
""fullscreenenter"",""1"",""20086""
","
","
","""event"",""trial"",""time""
""fullscreenenter"",""1"",""20086""
","
",,,,,,,,,,,,"[{""stimulus"":""run_exp/static/images/task_images/dig.jpg"",""time"":1},{""stimulus"":""run_exp/static/images/task_images/land.jpg"",""time"":960},{""stimulus"":""run_exp/static/images/task_images/dig.jpg"",""time"":1924}]",[],5,,,,,,,,,,,,,,
harvest,138,544785,0.0-44.0-1.0,"""event"",""trial"",""time""
""fullscreenenter"",""1"",""20086""
","
","
","""event"",""trial"",""time""
""fullscreenenter"",""1"",""20086""
","
",,null,run_exp/static/images/task_images/gems/51.jpg,null,,,,,,,22,,,5,,,,,51,0.43109229,0.431372549,,,,,,,
decision,139,546626,0.0-44.0-2.0,"""event"",""trial"",""time""
""fullscreenenter"",""1"",""20086""
","
","
","""event"",""trial"",""time""
""fullscreenenter"",""1"",""20086""
","
",,1838,run_exp/static/images/task_images/land.jpg,65,,,,,,,22,,,5,,,,,,,,145293,1,1,FALSE,,,
dig,140,547798,0.0-45.0-0.0,"""event"",""trial"",""time""
""fullscreenenter"",""1"",""20086""
","
","
","""event"",""trial"",""time""
""fullscreenenter"",""1"",""20086""
","
",,,,,,,,,,,,"[{""stimulus"":""run_exp/static/images/task_images/dig.jpg"",""time"":0},{""stimulus"":""run_exp/static/images/task_images/land.jpg"",""time"":392},{""stimulus"":""run_exp/static/images/task_images/dig.jpg"",""time"":785}]",[],5,,,,,,,,,,,,,,
harvest,141,548805,0.0-45.0-1.0,"""event"",""trial"",""time""
""fullscreenenter"",""1"",""20086""
","
","
","""event"",""trial"",""time""
""fullscreenenter"",""1"",""20086""
","
",,null,run_exp/static/images/task_images/gems/22.jpg,null,,,,,,,11,,,5,,,,,22,0.49643699,0.5,,,,,,,
decision,142,549106,0.0-45.0-2.0,"""event"",""trial"",""time""
""fullscreenenter"",""1"",""20086""
","
","
","""event"",""trial"",""time""
""fullscreenenter"",""1"",""20086""
","
",,298,run_exp/static/images/task_images/land.jpg,65,,,,,,,11,,,5,,,,,,,,147772,1,2,FALSE,,,
dig,143,551812,0.0-46.0-0.0,"""event"",""trial"",""time""
""fullscreenenter"",""1"",""20086""
","
","
","""event"",""trial"",""time""
""fullscreenenter"",""1"",""20086""
","
",,,,,,,,,,,,"[{""stimulus"":""run_exp/static/images/task_images/dig.jpg"",""time"":0},{""stimulus"":""run_exp/static/images/task_images/land.jpg"",""time"":908},{""stimulus"":""run_exp/static/images/task_images/dig.jpg"",""time"":1817}]",[],5,,,,,,,,,,,,,,
harvest,144,552819,0.0-46.0-1.0,"""event"",""trial"",""time""
""fullscreenenter"",""1"",""20086""
","
","
","""event"",""trial"",""time""
""fullscreenenter"",""1"",""20086""
","
",,null,run_exp/static/images/task_images/gems/11.jpg,null,,,,,,,5,,,5,,,,,11,0.457698224,0.454545455,,,,,,,
decision,145,553128,0.0-46.0-2.0,"""event"",""trial"",""time""
""fullscreenenter"",""1"",""20086""
","
","
","""event"",""trial"",""time""
""fullscreenenter"",""1"",""20086""
","
",,306,run_exp/static/images/task_images/land.jpg,76,,,,,,,5,,,5,,,,,,,,151794,1,3,TRUE,,,
travel,146,562833,0.0-47.0-0.0,"""event"",""trial"",""time""
""fullscreenenter"",""1"",""20086""
","
","
","""event"",""trial"",""time""
""fullscreenenter"",""1"",""20086""
","
",,,,,,,,,,,,"[{""stimulus"":""run_exp/static/images/task_images/rocket-01.jpg"",""time"":1},{""stimulus"":""run_exp/static/images/task_images/rocket-02.jpg"",""time"":1091},{""stimulus"":""run_exp/static/images/task_images/rocket-03.jpg"",""time"":2170},{""stimulus"":""run_exp/static/images/task_images/rocket-04.jpg"",""time"":3247},{""stimulus"":""run_exp/static/images/task_images/rocket-05.jpg"",""time"":4321},{""stimulus"":""run_exp/static/images/task_images/rocket-06.jpg"",""time"":5388},{""stimulus"":""run_exp/static/images/task_images/rocket-07.jpg"",""time"":6466},{""stimulus"":""run_exp/static/images/task_images/rocket-08.jpg"",""time"":7557},{""stimulus"":""run_exp/static/images/task_images/rocket-09.jpg"",""time"":8638}]",[],5,,,,,,,,,,,,,,
alien_welcome,147,567853,0.0-47.0-1.0,"""event"",""trial"",""time""
""fullscreenenter"",""1"",""20086""
","
","
","""event"",""trial"",""time""
""fullscreenenter"",""1"",""20086""
","
",,null,run_exp/static/images/task_images/aliens/old_aliens/planet/alien_planet-74.jpg,null,,,,,,,,,,,,,74,"28,19,63,26,48,74,13,53,21,41,39,14,46,51,32,20,69,37,75,61,65,64,47,15,10,42,2,9,36,44,30,67,62,56,12,60,1",,,,,,,,,,
land,148,568365,0.0-47.0-2.0,"""event"",""trial"",""time""
""fullscreenenter"",""1"",""20086""
","
","
","""event"",""trial"",""time""
""fullscreenenter"",""1"",""20086""
","
",,null,run_exp/static/images/task_images/land.jpg,null,,,,,,,100,,,6,,,,,,,,,,,,,,
dig,149,570377,0.0-47.0-3.0,"""event"",""trial"",""time""
""fullscreenenter"",""1"",""20086""
","
","
","""event"",""trial"",""time""
""fullscreenenter"",""1"",""20086""
","
",,,,,,,,,,,,"[{""stimulus"":""run_exp/static/images/task_images/dig.jpg"",""time"":0},{""stimulus"":""run_exp/static/images/task_images/land.jpg"",""time"":673},{""stimulus"":""run_exp/static/images/task_images/dig.jpg"",""time"":1348}]",[],6,,,,,,,,,,,,,,
harvest,150,571386,0.0-47.0-4.0,"""event"",""trial"",""time""
""fullscreenenter"",""1"",""20086""
","
","
","""event"",""trial"",""time""
""fullscreenenter"",""1"",""20086""
","
",,null,run_exp/static/images/task_images/gems/100.jpg,null,,,,,,,77,,,6,,,,,100,0.771898239,0.77,,,,,,,
decision,151,572480,0.0-47.0-5.0,"""event"",""trial"",""time""
""fullscreenenter"",""1"",""20086""
","
","
","""event"",""trial"",""time""
""fullscreenenter"",""1"",""20086""
","
",,1093,run_exp/static/images/task_images/land.jpg,65,,,,,,,77,,,6,,,,,,,,171146,1,0,FALSE,,,
dig,152,574391,0.0-48.0-0.0,"""event"",""trial"",""time""
""fullscreenenter"",""1"",""20086""
","
","
","""event"",""trial"",""time""
""fullscreenenter"",""1"",""20086""
","
",,,,,,,,,,,,"[{""stimulus"":""run_exp/static/images/task_images/dig.jpg"",""time"":0},{""stimulus"":""run_exp/static/images/task_images/land.jpg"",""time"":641},{""stimulus"":""run_exp/static/images/task_images/dig.jpg"",""time"":1272}]",[],6,,,,,,,,,,,,,,
harvest,153,575395,0.0-48.0-1.0,"""event"",""trial"",""time""
""fullscreenenter"",""1"",""20086""
","
","
","""event"",""trial"",""time""
""fullscreenenter"",""1"",""20086""
","
",,null,run_exp/static/images/task_images/gems/77.jpg,null,,,,,,,62,,,6,,,,,77,0.811195505,0.805194805,,,,,,,
decision,154,575529,0.0-48.0-2.0,"""event"",""trial"",""time""
""fullscreenenter"",""1"",""20086""
","
","
","""event"",""trial"",""time""
""fullscreenenter"",""1"",""20086""
","
",,134,run_exp/static/images/task_images/land.jpg,65,,,,,,,62,,,6,,,,,,,,174195,1,1,FALSE,,,
dig,155,578400,0.0-49.0-0.0,"""event"",""trial"",""time""
""fullscreenenter"",""1"",""20086""
","
","
","""event"",""trial"",""time""
""fullscreenenter"",""1"",""20086""
","
",,,,,,,,,,,,"[{""stimulus"":""run_exp/static/images/task_images/dig.jpg"",""time"":0},{""stimulus"":""run_exp/static/images/task_images/land.jpg"",""time"":963},{""stimulus"":""run_exp/static/images/task_images/dig.jpg"",""time"":1915}]",[],6,,,,,,,,,,,,,,
harvest,156,579415,0.0-49.0-1.0,"""event"",""trial"",""time""
""fullscreenenter"",""1"",""20086""
","
","
","""event"",""trial"",""time""
""fullscreenenter"",""1"",""20086""
","
",,null,run_exp/static/images/task_images/gems/62.jpg,null,,,,,,,44,,,6,,,,,62,0.704398943,0.709677419,,,,,,,
decision,157,579510,0.0-49.0-2.0,"""event"",""trial"",""time""
""fullscreenenter"",""1"",""20086""
","
","
","""event"",""trial"",""time""
""fullscreenenter"",""1"",""20086""
","
",,94,run_exp/static/images/task_images/land.jpg,65,,,,,,,44,,,6,,,,,,,,178176,1,2,FALSE,,,
dig,158,582418,0.0-50.0-0.0,"""event"",""trial"",""time""
""fullscreenenter"",""1"",""20086""
","
","
","""event"",""trial"",""time""
""fullscreenenter"",""1"",""20086""
","
",,,,,,,,,,,,"[{""stimulus"":""run_exp/static/images/task_images/dig.jpg"",""time"":0},{""stimulus"":""run_exp/static/images/task_images/land.jpg"",""time"":970},{""stimulus"":""run_exp/static/images/task_images/dig.jpg"",""time"":1942}]",[],6,,,,,,,,,,,,,,
harvest,159,583421,0.0-50.0-1.0,"""event"",""trial"",""time""
""fullscreenenter"",""1"",""20086""
","
","
","""event"",""trial"",""time""
""fullscreenenter"",""1"",""20086""
","
",,null,run_exp/static/images/task_images/gems/44.jpg,null,,,,,,,36,,,6,,,,,44,0.826140415,0.818181818,,,,,,,
decision,160,583434,0.0-50.0-2.0,"""event"",""trial"",""time""
""fullscreenenter"",""1"",""20086""
","
","
","""event"",""trial"",""time""
""fullscreenenter"",""1"",""20086""
","
",,10,run_exp/static/images/task_images/land.jpg,65,,,,,,,36,,,6,,,,,,,,182100,1,3,FALSE,,,
dig,161,586441,0.0-51.0-0.0,"""event"",""trial"",""time""
""fullscreenenter"",""1"",""20086""
","
","
","""event"",""trial"",""time""
""fullscreenenter"",""1"",""20086""
","
",,,,,,,,,,,,"[{""stimulus"":""run_exp/static/images/task_images/dig.jpg"",""time"":0},{""stimulus"":""run_exp/static/images/task_images/land.jpg"",""time"":1002},{""stimulus"":""run_exp/static/images/task_images/dig.jpg"",""time"":1993}]",[],6,,,,,,,,,,,,,,
harvest,162,587456,0.0-51.0-1.0,"""event"",""trial"",""time""
""fullscreenenter"",""1"",""20086""
","
","
","""event"",""trial"",""time""
""fullscreenenter"",""1"",""20086""
","
",,null,run_exp/static/images/task_images/gems/36.jpg,null,,,,,,,33,,,6,,,,,36,0.918151867,0.916666667,,,,,,,
decision,163,587845,0.0-51.0-2.0,"""event"",""trial"",""time""
""fullscreenenter"",""1"",""20086""
","
","
","""event"",""trial"",""time""
""fullscreenenter"",""1"",""20086""
","
",,386,run_exp/static/images/task_images/land.jpg,65,,,,,,,33,,,6,,,,,,,,186511,1,4,FALSE,,,
dig,164,590464,0.0-52.0-0.0,"""event"",""trial"",""time""
""fullscreenenter"",""1"",""20086""
","
","
","""event"",""trial"",""time""
""fullscreenenter"",""1"",""20086""
","
",,,,,,,,,,,,"[{""stimulus"":""run_exp/static/images/task_images/dig.jpg"",""time"":0},{""stimulus"":""run_exp/static/images/task_images/land.jpg"",""time"":883},{""stimulus"":""run_exp/static/images/task_images/dig.jpg"",""time"":1745}]",[],6,,,,,,,,,,,,,,
harvest,165,591472,0.0-52.0-1.0,"""event"",""trial"",""time""
""fullscreenenter"",""1"",""20086""
","
","
","""event"",""trial"",""time""
""fullscreenenter"",""1"",""20086""
","
",,null,run_exp/static/images/task_images/gems/33.jpg,null,,,,,,,27,,,6,,,,,33,0.817925019,0.818181818,,,,,,,
decision,166,591532,0.0-52.0-2.0,"""event"",""trial"",""time""
""fullscreenenter"",""1"",""20086""
","
","
","""event"",""trial"",""time""
""fullscreenenter"",""1"",""20086""
","
",,59,run_exp/static/images/task_images/land.jpg,65,,,,,,,27,,,6,,,,,,,,190198,1,5,FALSE,,,
dig,167,594486,0.0-53.0-0.0,"""event"",""trial"",""time""
""fullscreenenter"",""1"",""20086""
","
","
","""event"",""trial"",""time""
""fullscreenenter"",""1"",""20086""
","
",,,,,,,,,,,,"[{""stimulus"":""run_exp/static/images/task_images/dig.jpg"",""time"":0},{""stimulus"":""run_exp/static/images/task_images/land.jpg"",""time"":988},{""stimulus"":""run_exp/static/images/task_images/dig.jpg"",""time"":1963}]",[],6,,,,,,,,,,,,,,
harvest,168,595498,0.0-53.0-1.0,"""event"",""trial"",""time""
""fullscreenenter"",""1"",""20086""
","
","
","""event"",""trial"",""time""
""fullscreenenter"",""1"",""20086""
","
",,null,run_exp/static/images/task_images/gems/27.jpg,null,,,,,,,23,,,6,,,,,27,0.839334042,0.851851852,,,,,,,
decision,169,595553,0.0-53.0-2.0,"""event"",""trial"",""time""
""fullscreenenter"",""1"",""20086""
","
","
","""event"",""trial"",""time""
""fullscreenenter"",""1"",""20086""
","
",,53,run_exp/static/images/task_images/land.jpg,65,,,,,,,23,,,6,,,,,,,,194219,1,6,FALSE,,,
dig,170,598516,0.0-54.0-0.0,"""event"",""trial"",""time""
""fullscreenenter"",""1"",""20086""
","
","
","""event"",""trial"",""time""
""fullscreenenter"",""1"",""20086""
","
",,,,,,,,,,,,"[{""stimulus"":""run_exp/static/images/task_images/dig.jpg"",""time"":0},{""stimulus"":""run_exp/static/images/task_images/land.jpg"",""time"":991},{""stimulus"":""run_exp/static/images/task_images/dig.jpg"",""time"":1977}]",[],6,,,,,,,,,,,,,,
harvest,171,599519,0.0-54.0-1.0,"""event"",""trial"",""time""
""fullscreenenter"",""1"",""20086""
","
","
","""event"",""trial"",""time""
""fullscreenenter"",""1"",""20086""
","
",,null,run_exp/static/images/task_images/gems/23.jpg,null,,,,,,,19,,,6,,,,,23,0.831644007,0.826086957,,,,,,,
decision,172,601718,0.0-54.0-2.0,"""event"",""trial"",""time""
""fullscreenenter"",""1"",""20086""
","
","
","""event"",""trial"",""time""
""fullscreenenter"",""1"",""20086""
","
",,2198,run_exp/static/images/task_images/land.jpg,65,,,,,,,19,,,6,,,,,,,,200384,1,7,FALSE,,,
dig,173,602537,0.0-55.0-0.0,"""event"",""trial"",""time""
""fullscreenenter"",""1"",""20086""
","
","
","""event"",""trial"",""time""
""fullscreenenter"",""1"",""20086""
","
",,,,,,,,,,,,"[{""stimulus"":""run_exp/static/images/task_images/dig.jpg"",""time"":1},{""stimulus"":""run_exp/static/images/task_images/land.jpg"",""time"":279},{""stimulus"":""run_exp/static/images/task_images/dig.jpg"",""time"":539}]",[],6,,,,,,,,,,,,,,
harvest,174,603598,0.0-55.0-1.0,"""event"",""trial"",""time""
""fullscreenenter"",""1"",""20086""
","
","
","""event"",""trial"",""time""
""fullscreenenter"",""1"",""20086""
","
",,null,run_exp/static/images/task_images/gems/19.jpg,null,,,,,,,15,,,6,,,,,19,0.788707062,0.789473684,,,,,,,
decision,175,604187,0.0-55.0-2.0,"""event"",""trial"",""time""
""fullscreenenter"",""1"",""20086""
","
","
","""event"",""trial"",""time""
""fullscreenenter"",""1"",""20086""
","
",,588,run_exp/static/images/task_images/land.jpg,65,,,,,,,15,,,6,,,,,,,,202853,1,8,FALSE,,,
dig,176,606609,0.0-56.0-0.0,"""event"",""trial"",""time""
""fullscreenenter"",""1"",""20086""
","
","
","""event"",""trial"",""time""
""fullscreenenter"",""1"",""20086""
","
",,,,,,,,,,,,"[{""stimulus"":""run_exp/static/images/task_images/dig.jpg"",""time"":0},{""stimulus"":""run_exp/static/images/task_images/land.jpg"",""time"":807},{""stimulus"":""run_exp/static/images/task_images/dig.jpg"",""time"":1612}]",[],6,,,,,,,,,,,,,,
harvest,177,607645,0.0-56.0-1.0,"""event"",""trial"",""time""
""fullscreenenter"",""1"",""20086""
","
","
","""event"",""trial"",""time""
""fullscreenenter"",""1"",""20086""
","
",,null,run_exp/static/images/task_images/gems/15.jpg,null,,,,,,,11,,,6,,,,,15,0.724991792,0.733333333,,,,,,,
decision,178,607648,0.0-56.0-2.0,"""event"",""trial"",""time""
""fullscreenenter"",""1"",""20086""
","
","
","""event"",""trial"",""time""
""fullscreenenter"",""1"",""20086""
","
",,0,run_exp/static/images/task_images/land.jpg,65,,,,,,,11,,,6,,,,,,,,206314,1,9,FALSE,,,
dig,179,610659,0.0-57.0-0.0,"""event"",""trial"",""time""
""fullscreenenter"",""1"",""20086""
","
","
","""event"",""trial"",""time""
""fullscreenenter"",""1"",""20086""
","
",,,,,,,,,,,,"[{""stimulus"":""run_exp/static/images/task_images/dig.jpg"",""time"":0},{""stimulus"":""run_exp/static/images/task_images/land.jpg"",""time"":1005},{""stimulus"":""run_exp/static/images/task_images/dig.jpg"",""time"":2008}]",[],6,,,,,,,,,,,,,,
harvest,180,611696,0.0-57.0-1.0,"""event"",""trial"",""time""
""fullscreenenter"",""1"",""20086""
","
","
","""event"",""trial"",""time""
""fullscreenenter"",""1"",""20086""
","
",,null,run_exp/static/images/task_images/gems/11.jpg,null,,,,,,,9,,,6,,,,,11,0.773432038,0.818181818,,,,,,,
decision,181,611875,0.0-57.0-2.0,"""event"",""trial"",""time""
""fullscreenenter"",""1"",""20086""
","
","
","""event"",""trial"",""time""
""fullscreenenter"",""1"",""20086""
","
",,177,run_exp/static/images/task_images/land.jpg,65,,,,,,,9,,,6,,,,,,,,210541,1,10,FALSE,,,
dig,182,614707,0.0-58.0-0.0,"""event"",""trial"",""time""
""fullscreenenter"",""1"",""20086""
","
","
","""event"",""trial"",""time""
""fullscreenenter"",""1"",""20086""
","
",,,,,,,,,,,,"[{""stimulus"":""run_exp/static/images/task_images/dig.jpg"",""time"":0},{""stimulus"":""run_exp/static/images/task_images/land.jpg"",""time"":951},{""stimulus"":""run_exp/static/images/task_images/dig.jpg"",""time"":1892}]",[],6,,,,,,,,,,,,,,
harvest,183,615724,0.0-58.0-1.0,"""event"",""trial"",""time""
""fullscreenenter"",""1"",""20086""
","
","
","""event"",""trial"",""time""
""fullscreenenter"",""1"",""20086""
","
",,null,run_exp/static/images/task_images/gems/9.jpg,null,,,,,,,7,,,6,,,,,9,0.815164589,0.777777778,,,,,,,
decision,184,616571,0.0-58.0-2.0,"""event"",""trial"",""time""
""fullscreenenter"",""1"",""20086""
","
","
","""event"",""trial"",""time""
""fullscreenenter"",""1"",""20086""
","
",,844,run_exp/static/images/task_images/land.jpg,76,,,,,,,7,,,6,,,,,,,,215237,1,11,TRUE,,,
travel,185,625738,0.0-59.0-0.0,"""event"",""trial"",""time""
""fullscreenenter"",""1"",""20086""
","
","
","""event"",""trial"",""time""
""fullscreenenter"",""1"",""20086""
","
",,,,,,,,,,,,"[{""stimulus"":""run_exp/static/images/task_images/rocket-01.jpg"",""time"":0},{""stimulus"":""run_exp/static/images/task_images/rocket-02.jpg"",""time"":1030},{""stimulus"":""run_exp/static/images/task_images/rocket-03.jpg"",""time"":2040},{""stimulus"":""run_exp/static/images/task_images/rocket-04.jpg"",""time"":3063},{""stimulus"":""run_exp/static/images/task_images/rocket-05.jpg"",""time"":4071},{""stimulus"":""run_exp/static/images/task_images/rocket-06.jpg"",""time"":5091},{""stimulus"":""run_exp/static/images/task_images/rocket-07.jpg"",""time"":6119},{""stimulus"":""run_exp/static/images/task_images/rocket-08.jpg"",""time"":7127},{""stimulus"":""run_exp/static/images/task_images/rocket-09.jpg"",""time"":8148}]",[],6,,,,,,,,,,,,,,
alien_welcome,186,630756,0.0-59.0-1.0,"""event"",""trial"",""time""
""fullscreenenter"",""1"",""20086""
","
","
","""event"",""trial"",""time""
""fullscreenenter"",""1"",""20086""
","
",,null,run_exp/static/images/task_images/aliens/old_aliens/planet/alien_planet-13.jpg,null,,,,,,,,,,,,,13,"28,19,63,26,48,74,13,53,21,41,39,14,46,51,32,20,69,37,75,61,65,64,47,15,10,42,2,9,36,44,30,67,62,56,12,60,1",,,,,,,,,,
land,187,631274,0.0-59.0-2.0,"""event"",""trial"",""time""
""fullscreenenter"",""1"",""20086""
","
","
","""event"",""trial"",""time""
""fullscreenenter"",""1"",""20086""
","
",,null,run_exp/static/images/task_images/land.jpg,null,,,,,,,103,,,7,,,,,,,,,,,,,,
dig,188,633293,0.0-59.0-3.0,"""event"",""trial"",""time""
""fullscreenenter"",""1"",""20086""
","
","
","""event"",""trial"",""time""
""fullscreenenter"",""1"",""20086""
","
",,,,,,,,,,,,"[{""stimulus"":""run_exp/static/images/task_images/dig.jpg"",""time"":0},{""stimulus"":""run_exp/static/images/task_images/land.jpg"",""time"":670},{""stimulus"":""run_exp/static/images/task_images/dig.jpg"",""time"":1347}]",[],7,,,,,,,,,,,,,,
harvest,189,634304,0.0-59.0-4.0,"""event"",""trial"",""time""
""fullscreenenter"",""1"",""20086""
","
","
","""event"",""trial"",""time""
""fullscreenenter"",""1"",""20086""
","
",,null,run_exp/static/images/task_images/gems/103.jpg,null,,,,,,,84,,,7,,,,,103,0.817859635,0.815533981,,,,,,,
decision,190,636020,0.0-59.0-5.0,"""event"",""trial"",""time""
""fullscreenenter"",""1"",""20086""
","
","
","""event"",""trial"",""time""
""fullscreenenter"",""1"",""20086""
","
",,1714,run_exp/static/images/task_images/land.jpg,65,,,,,,,84,,,7,,,,,,,,234687,1,0,FALSE,,,
dig,191,637318,0.0-60.0-0.0,"""event"",""trial"",""time""
""fullscreenenter"",""1"",""20086""
","
","
","""event"",""trial"",""time""
""fullscreenenter"",""1"",""20086""
","
",,,,,,,,,,,,"[{""stimulus"":""run_exp/static/images/task_images/dig.jpg"",""time"":1},{""stimulus"":""run_exp/static/images/task_images/land.jpg"",""time"":431},{""stimulus"":""run_exp/static/images/task_images/dig.jpg"",""time"":867}]",[],7,,,,,,,,,,,,,,
harvest,192,638324,0.0-60.0-1.0,"""event"",""trial"",""time""
""fullscreenenter"",""1"",""20086""
","
","
","""event"",""trial"",""time""
""fullscreenenter"",""1"",""20086""
","
",,null,run_exp/static/images/task_images/gems/84.jpg,null,,,,,,,72,,,7,,,,,84,0.858036998,0.857142857,,,,,,,
decision,193,638744,0.0-60.0-2.0,"""event"",""trial"",""time""
""fullscreenenter"",""1"",""20086""
","
","
","""event"",""trial"",""time""
""fullscreenenter"",""1"",""20086""
","
",,417,run_exp/static/images/task_images/land.jpg,65,,,,,,,72,,,7,,,,,,,,237410,1,1,FALSE,,,
dig,194,641343,0.0-61.0-0.0,"""event"",""trial"",""time""
""fullscreenenter"",""1"",""20086""
","
","
","""event"",""trial"",""time""
""fullscreenenter"",""1"",""20086""
","
",,,,,,,,,,,,"[{""stimulus"":""run_exp/static/images/task_images/dig.jpg"",""time"":0},{""stimulus"":""run_exp/static/images/task_images/land.jpg"",""time"":874},{""stimulus"":""run_exp/static/images/task_images/dig.jpg"",""time"":1737}]",[],7,,,,,,,,,,,,,,
harvest,195,642352,0.0-61.0-1.0,"""event"",""trial"",""time""
""fullscreenenter"",""1"",""20086""
","
","
","""event"",""trial"",""time""
""fullscreenenter"",""1"",""20086""
","
",,null,run_exp/static/images/task_images/gems/72.jpg,null,,,,,,,57,,,7,,,,,72,0.785107669,0.791666667,,,,,,,
decision,196,642582,0.0-61.0-2.0,"""event"",""trial"",""time""
""fullscreenenter"",""1"",""20086""
","
","
","""event"",""trial"",""time""
""fullscreenenter"",""1"",""20086""
","
",,227,run_exp/static/images/task_images/land.jpg,65,,,,,,,57,,,7,,,,,,,,241248,1,2,FALSE,,,
dig,197,645359,0.0-62.0-0.0,"""event"",""trial"",""time""
""fullscreenenter"",""1"",""20086""
","
","
","""event"",""trial"",""time""
""fullscreenenter"",""1"",""20086""
","
",,,,,,,,,,,,"[{""stimulus"":""run_exp/static/images/task_images/dig.jpg"",""time"":0},{""stimulus"":""run_exp/static/images/task_images/land.jpg"",""time"":927},{""stimulus"":""run_exp/static/images/task_images/dig.jpg"",""time"":1856}]",[],7,,,,,,,,,,,,,,
harvest,198,646369,0.0-62.0-1.0,"""event"",""trial"",""time""
""fullscreenenter"",""1"",""20086""
","
","
","""event"",""trial"",""time""
""fullscreenenter"",""1"",""20086""
","
",,null,run_exp/static/images/task_images/gems/57.jpg,null,,,,,,,42,,,7,,,,,57,0.736447854,0.736842105,,,,,,,
decision,199,646652,0.0-62.0-2.0,"""event"",""trial"",""time""
""fullscreenenter"",""1"",""20086""
","
","
","""event"",""trial"",""time""
""fullscreenenter"",""1"",""20086""
","
",,283,run_exp/static/images/task_images/land.jpg,65,,,,,,,42,,,7,,,,,,,,245318,1,3,FALSE,,,
dig,200,649374,0.0-63.0-0.0,"""event"",""trial"",""time""
""fullscreenenter"",""1"",""20086""
","
","
","""event"",""trial"",""time""
""fullscreenenter"",""1"",""20086""
","
",,,,,,,,,,,,"[{""stimulus"":""run_exp/static/images/task_images/dig.jpg"",""time"":0},{""stimulus"":""run_exp/static/images/task_images/land.jpg"",""time"":918},{""stimulus"":""run_exp/static/images/task_images/dig.jpg"",""time"":1818}]",[],7,,,,,,,,,,,,,,
harvest,201,650377,0.0-63.0-1.0,"""event"",""trial"",""time""
""fullscreenenter"",""1"",""20086""
","
","
","""event"",""trial"",""time""
""fullscreenenter"",""1"",""20086""
","
",,null,run_exp/static/images/task_images/gems/42.jpg,null,,,,,,,37,,,7,,,,,42,0.871477415,0.880952381,,,,,,,
decision,202,650655,0.0-63.0-2.0,"""event"",""trial"",""time""
""fullscreenenter"",""1"",""20086""
","
","
","""event"",""trial"",""time""
""fullscreenenter"",""1"",""20086""
","
",,276,run_exp/static/images/task_images/land.jpg,65,,,,,,,37,,,7,,,,,,,,249321,1,4,FALSE,,,
dig,203,653386,0.0-64.0-0.0,"""event"",""trial"",""time""
""fullscreenenter"",""1"",""20086""
","
","
","""event"",""trial"",""time""
""fullscreenenter"",""1"",""20086""
","
",,,,,,,,,,,,"[{""stimulus"":""run_exp/static/images/task_images/dig.jpg"",""time"":0},{""stimulus"":""run_exp/static/images/task_images/land.jpg"",""time"":915},{""stimulus"":""run_exp/static/images/task_images/dig.jpg"",""time"":1825}]",[],7,,,,,,,,,,,,,,
harvest,204,654394,0.0-64.0-1.0,"""event"",""trial"",""time""
""fullscreenenter"",""1"",""20086""
","
","
","""event"",""trial"",""time""
""fullscreenenter"",""1"",""20086""
","
",,null,run_exp/static/images/task_images/gems/37.jpg,null,,,,,,,31,,,7,,,,,37,0.83113305,0.837837838,,,,,,,
decision,205,654815,0.0-64.0-2.0,"""event"",""trial"",""time""
""fullscreenenter"",""1"",""20086""
","
","
","""event"",""trial"",""time""
""fullscreenenter"",""1"",""20086""
","
",,420,run_exp/static/images/task_images/land.jpg,65,,,,,,,31,,,7,,,,,,,,253481,1,5,FALSE,,,
dig,206,657414,0.0-65.0-0.0,"""event"",""trial"",""time""
""fullscreenenter"",""1"",""20086""
","
","
","""event"",""trial"",""time""
""fullscreenenter"",""1"",""20086""
","
",,,,,,,,,,,,"[{""stimulus"":""run_exp/static/images/task_images/dig.jpg"",""time"":0},{""stimulus"":""run_exp/static/images/task_images/land.jpg"",""time"":866},{""stimulus"":""run_exp/static/images/task_images/dig.jpg"",""time"":1727}]",[],7,,,,,,,,,,,,,,
harvest,207,658427,0.0-65.0-1.0,"""event"",""trial"",""time""
""fullscreenenter"",""1"",""20086""
","
","
","""event"",""trial"",""time""
""fullscreenenter"",""1"",""20086""
","
",,null,run_exp/static/images/task_images/gems/31.jpg,null,,,,,,,25,,,7,,,,,31,0.819348606,0.806451613,,,,,,,
decision,208,659808,0.0-65.0-2.0,"""event"",""trial"",""time""
""fullscreenenter"",""1"",""20086""
","
","
","""event"",""trial"",""time""
""fullscreenenter"",""1"",""20086""
","
",,1380,run_exp/static/images/task_images/land.jpg,65,,,,,,,25,,,7,,,,,,,,258474,1,6,FALSE,,,
dig,209,661439,0.0-66.0-0.0,"""event"",""trial"",""time""
""fullscreenenter"",""1"",""20086""
","
","
","""event"",""trial"",""time""
""fullscreenenter"",""1"",""20086""
","
",,,,,,,,,,,,"[{""stimulus"":""run_exp/static/images/task_images/dig.jpg"",""time"":0},{""stimulus"":""run_exp/static/images/task_images/land.jpg"",""time"":542},{""stimulus"":""run_exp/static/images/task_images/dig.jpg"",""time"":1088}]",[],7,,,,,,,,,,,,,,
harvest,210,662449,0.0-66.0-1.0,"""event"",""trial"",""time""
""fullscreenenter"",""1"",""20086""
","
","
","""event"",""trial"",""time""
""fullscreenenter"",""1"",""20086""
","
",,null,run_exp/static/images/task_images/gems/25.jpg,null,,,,,,,21,,,7,,,,,25,0.821021189,0.84,,,,,,,
decision,211,662938,0.0-66.0-2.0,"""event"",""trial"",""time""
""fullscreenenter"",""1"",""20086""
","
","
","""event"",""trial"",""time""
""fullscreenenter"",""1"",""20086""
","
",,486,run_exp/static/images/task_images/land.jpg,65,,,,,,,21,,,7,,,,,,,,261604,1,7,FALSE,,,
dig,212,665466,0.0-67.0-0.0,"""event"",""trial"",""time""
""fullscreenenter"",""1"",""20086""
","
","
","""event"",""trial"",""time""
""fullscreenenter"",""1"",""20086""
","
",,,,,,,,,,,,"[{""stimulus"":""run_exp/static/images/task_images/dig.jpg"",""time"":0},{""stimulus"":""run_exp/static/images/task_images/land.jpg"",""time"":844},{""stimulus"":""run_exp/static/images/task_images/dig.jpg"",""time"":1684}]",[],7,,,,,,,,,,,,,,
harvest,213,666479,0.0-67.0-1.0,"""event"",""trial"",""time""
""fullscreenenter"",""1"",""20086""
","
","
","""event"",""trial"",""time""
""fullscreenenter"",""1"",""20086""
","
",,null,run_exp/static/images/task_images/gems/21.jpg,null,,,,,,,14,,,7,,,,,21,0.65939218,0.666666667,,,,,,,
decision,214,666684,0.0-67.0-2.0,"""event"",""trial"",""time""
""fullscreenenter"",""1"",""20086""
","
","
","""event"",""trial"",""time""
""fullscreenenter"",""1"",""20086""
","
",,203,run_exp/static/images/task_images/land.jpg,65,,,,,,,14,,,7,,,,,,,,265351,1,8,FALSE,,,
dig,215,669490,0.0-68.0-0.0,"""event"",""trial"",""time""
""fullscreenenter"",""1"",""20086""
","
","
","""event"",""trial"",""time""
""fullscreenenter"",""1"",""20086""
","
",,,,,,,,,,,,"[{""stimulus"":""run_exp/static/images/task_images/dig.jpg"",""time"":0},{""stimulus"":""run_exp/static/images/task_images/land.jpg"",""time"":948},{""stimulus"":""run_exp/static/images/task_images/dig.jpg"",""time"":1870}]",[],7,,,,,,,,,,,,,,
harvest,216,670501,0.0-68.0-1.0,"""event"",""trial"",""time""
""fullscreenenter"",""1"",""20086""
","
","
","""event"",""trial"",""time""
""fullscreenenter"",""1"",""20086""
","
",,null,run_exp/static/images/task_images/gems/14.jpg,null,,,,,,,13,,,7,,,,,14,0.89427457,0.928571429,,,,,,,
decision,217,671996,0.0-68.0-2.0,"""event"",""trial"",""time""
""fullscreenenter"",""1"",""20086""
","
","
","""event"",""trial"",""time""
""fullscreenenter"",""1"",""20086""
","
",,1491,run_exp/static/images/task_images/land.jpg,76,,,,,,,13,,,7,,,,,,,,270662,1,9,TRUE,,,
travel,218,680512,0.0-69.0-0.0,"""event"",""trial"",""time""
""fullscreenenter"",""1"",""20086""
","
","
","""event"",""trial"",""time""
""fullscreenenter"",""1"",""20086""
","
",,,,,,,,,,,,"[{""stimulus"":""run_exp/static/images/task_images/rocket-01.jpg"",""time"":0},{""stimulus"":""run_exp/static/images/task_images/rocket-02.jpg"",""time"":950},{""stimulus"":""run_exp/static/images/task_images/rocket-03.jpg"",""time"":1896},{""stimulus"":""run_exp/static/images/task_images/rocket-04.jpg"",""time"":2847},{""stimulus"":""run_exp/static/images/task_images/rocket-05.jpg"",""time"":3786},{""stimulus"":""run_exp/static/images/task_images/rocket-06.jpg"",""time"":4731},{""stimulus"":""run_exp/static/images/task_images/rocket-07.jpg"",""time"":5681},{""stimulus"":""run_exp/static/images/task_images/rocket-08.jpg"",""time"":6623},{""stimulus"":""run_exp/static/images/task_images/rocket-09.jpg"",""time"":7572}]",[],7,,,,,,,,,,,,,,
alien_welcome,219,685556,0.0-69.0-1.0,"""event"",""trial"",""time""
""fullscreenenter"",""1"",""20086""
","
","
","""event"",""trial"",""time""
""fullscreenenter"",""1"",""20086""
","
",,null,run_exp/static/images/task_images/aliens/old_aliens/planet/alien_planet-53.jpg,null,,,,,,,,,,,,,53,"28,19,63,26,48,74,13,53,21,41,39,14,46,51,32,20,69,37,75,61,65,64,47,15,10,42,2,9,36,44,30,67,62,56,12,60,1",,,,,,,,,,
land,220,686100,0.0-69.0-2.0,"""event"",""trial"",""time""
""fullscreenenter"",""1"",""20086""
","
","
","""event"",""trial"",""time""
""fullscreenenter"",""1"",""20086""
","
",,null,run_exp/static/images/task_images/land.jpg,null,,,,,,,102,,,8,,,,,,,,,,,,,,
dig,221,688107,0.0-69.0-3.0,"""event"",""trial"",""time""
""fullscreenenter"",""1"",""20086""
","
","
","""event"",""trial"",""time""
""fullscreenenter"",""1"",""20086""
","
",,,,,,,,,,,,"[{""stimulus"":""run_exp/static/images/task_images/dig.jpg"",""time"":1},{""stimulus"":""run_exp/static/images/task_images/land.jpg"",""time"":675},{""stimulus"":""run_exp/static/images/task_images/dig.jpg"",""time"":1343}]",[],8,,,,,,,,,,,,,,
harvest,222,689155,0.0-69.0-4.0,"""event"",""trial"",""time""
""fullscreenenter"",""1"",""20086""
","
","
","""event"",""trial"",""time""
""fullscreenenter"",""1"",""20086""
","
",,null,run_exp/static/images/task_images/gems/102.jpg,null,,,,,,,88,,,8,,,,,102,0.862260691,0.862745098,,,,,,,
decision,223,690662,0.0-69.0-5.0,"""event"",""trial"",""time""
""fullscreenenter"",""1"",""20086""
","
","
","""event"",""trial"",""time""
""fullscreenenter"",""1"",""20086""
","
",,1505,run_exp/static/images/task_images/land.jpg,65,,,,,,,88,,,8,,,,,,,,289328,1,0,FALSE,,,
dig,224,692176,0.0-70.0-0.0,"""event"",""trial"",""time""
""fullscreenenter"",""1"",""20086""
","
","
","""event"",""trial"",""time""
""fullscreenenter"",""1"",""20086""
","
",,,,,,,,,,,,"[{""stimulus"":""run_exp/static/images/task_images/dig.jpg"",""time"":0},{""stimulus"":""run_exp/static/images/task_images/land.jpg"",""time"":500},{""stimulus"":""run_exp/static/images/task_images/dig.jpg"",""time"":1010}]",[],8,,,,,,,,,,,,,,
harvest,225,693206,0.0-70.0-1.0,"""event"",""trial"",""time""
""fullscreenenter"",""1"",""20086""
","
","
","""event"",""trial"",""time""
""fullscreenenter"",""1"",""20086""
","
",,null,run_exp/static/images/task_images/gems/88.jpg,null,,,,,,,78,,,8,,,,,88,0.889244285,0.886363636,,,,,,,
decision,226,693594,0.0-70.0-2.0,"""event"",""trial"",""time""
""fullscreenenter"",""1"",""20086""
","
","
","""event"",""trial"",""time""
""fullscreenenter"",""1"",""20086""
","
",,386,run_exp/static/images/task_images/land.jpg,65,,,,,,,78,,,8,,,,,,,,292260,1,1,FALSE,,,
dig,227,696226,0.0-71.0-0.0,"""event"",""trial"",""time""
""fullscreenenter"",""1"",""20086""
","
","
","""event"",""trial"",""time""
""fullscreenenter"",""1"",""20086""
","
",,,,,,,,,,,,"[{""stimulus"":""run_exp/static/images/task_images/dig.jpg"",""time"":0},{""stimulus"":""run_exp/static/images/task_images/land.jpg"",""time"":877},{""stimulus"":""run_exp/static/images/task_images/dig.jpg"",""time"":1750}]",[],8,,,,,,,,,,,,,,
harvest,228,697240,0.0-71.0-1.0,"""event"",""trial"",""time""
""fullscreenenter"",""1"",""20086""
","
","
","""event"",""trial"",""time""
""fullscreenenter"",""1"",""20086""
","
",,null,run_exp/static/images/task_images/gems/78.jpg,null,,,,,,,61,,,8,,,,,78,0.780038957,0.782051282,,,,,,,
decision,229,697625,0.0-71.0-2.0,"""event"",""trial"",""time""
""fullscreenenter"",""1"",""20086""
","
","
","""event"",""trial"",""time""
""fullscreenenter"",""1"",""20086""
","
",,382,run_exp/static/images/task_images/land.jpg,65,,,,,,,61,,,8,,,,,,,,296291,1,2,FALSE,,,
dig,230,700250,0.0-72.0-0.0,"""event"",""trial"",""time""
""fullscreenenter"",""1"",""20086""
","
","
","""event"",""trial"",""time""
""fullscreenenter"",""1"",""20086""
","
",,,,,,,,,,,,"[{""stimulus"":""run_exp/static/images/task_images/dig.jpg"",""time"":0},{""stimulus"":""run_exp/static/images/task_images/land.jpg"",""time"":878},{""stimulus"":""run_exp/static/images/task_images/dig.jpg"",""time"":1758}]",[],8,,,,,,,,,,,,,,
harvest,231,701279,0.0-72.0-1.0,"""event"",""trial"",""time""
""fullscreenenter"",""1"",""20086""
","
","
","""event"",""trial"",""time""
""fullscreenenter"",""1"",""20086""
","
",,null,run_exp/static/images/task_images/gems/61.jpg,null,,,,,,,51,,,8,,,,,61,0.829813165,0.836065574,,,,,,,
decision,232,701326,0.0-72.0-2.0,"""event"",""trial"",""time""
""fullscreenenter"",""1"",""20086""
","
","
","""event"",""trial"",""time""
""fullscreenenter"",""1"",""20086""
","
",,46,run_exp/static/images/task_images/land.jpg,65,,,,,,,51,,,8,,,,,,,,299992,1,3,FALSE,,,
dig,233,704296,0.0-73.0-0.0,"""event"",""trial"",""time""
""fullscreenenter"",""1"",""20086""
","
","
","""event"",""trial"",""time""
""fullscreenenter"",""1"",""20086""
","
",,,,,,,,,,,,"[{""stimulus"":""run_exp/static/images/task_images/dig.jpg"",""time"":0},{""stimulus"":""run_exp/static/images/task_images/land.jpg"",""time"":987},{""stimulus"":""run_exp/static/images/task_images/dig.jpg"",""time"":1976}]",[],8,,,,,,,,,,,,,,
harvest,234,705300,0.0-73.0-1.0,"""event"",""trial"",""time""
""fullscreenenter"",""1"",""20086""
","
","
","""event"",""trial"",""time""
""fullscreenenter"",""1"",""20086""
","
",,null,run_exp/static/images/task_images/gems/51.jpg,null,,,,,,,38,,,8,,,,,51,0.742228361,0.745098039,,,,,,,
decision,235,705513,0.0-73.0-2.0,"""event"",""trial"",""time""
""fullscreenenter"",""1"",""20086""
","
","
","""event"",""trial"",""time""
""fullscreenenter"",""1"",""20086""
","
",,213,run_exp/static/images/task_images/land.jpg,65,,,,,,,38,,,8,,,,,,,,304179,1,4,TRUE,,,
end_of_block_continue,236,714433,0.0-74.0-0.0,"""event"",""trial"",""time""
""fullscreenenter"",""1"",""20086""
","
","
","""event"",""trial"",""time""
""fullscreenenter"",""1"",""20086""
","
",,null,run_exp/static/audio/clip_32_block_end.m4a,,,,,,,null,,,,,,,,,,,,,,,,,,
alien_welcome,237,719458,0.0-75.0-0.0,"""event"",""trial"",""time""
""fullscreenenter"",""1"",""20086""
","
","
","""event"",""trial"",""time""
""fullscreenenter"",""1"",""20086""
","
",,null,run_exp/static/images/task_images/aliens/old_aliens/planet/alien_planet-21.jpg,null,,,,,,,,,,,,,21,"28,19,63,26,48,74,13,53,21,41,39,14,46,51,32,20,69,37,75,61,65,64,47,15,10,42,2,9,36,44,30,67,62,56,12,60,1",,,,,,,,,,
land,238,719999,0.0-75.0-1.0,"""event"",""trial"",""time""
""fullscreenenter"",""1"",""20086""
","
","
","""event"",""trial"",""time""
""fullscreenenter"",""1"",""20086""
","
",,null,run_exp/static/images/task_images/land.jpg,null,,,,,,,97,,,9,,,,,,,,,,,,,,
dig,239,722013,0.0-75.0-2.0,"""event"",""trial"",""time""
""fullscreenenter"",""1"",""20086""
","
","
","""event"",""trial"",""time""
""fullscreenenter"",""1"",""20086""
","
",,,,,,,,,,,,"[{""stimulus"":""run_exp/static/images/task_images/dig.jpg"",""time"":0},{""stimulus"":""run_exp/static/images/task_images/land.jpg"",""time"":685},{""stimulus"":""run_exp/static/images/task_images/dig.jpg"",""time"":1346}]",[],9,,,,,,,,,,,,,,
harvest,240,723059,0.0-75.0-3.0,"""event"",""trial"",""time""
""fullscreenenter"",""1"",""20086""
","
","
","""event"",""trial"",""time""
""fullscreenenter"",""1"",""20086""
","
",,null,run_exp/static/images/task_images/gems/97.jpg,null,,,,,,,14,,,9,,,,,97,0.140723956,0.144329897,,,,,,,
decision,241,724293,0.0-75.0-4.0,"""event"",""trial"",""time""
""fullscreenenter"",""1"",""20086""
","
","
","""event"",""trial"",""time""
""fullscreenenter"",""1"",""20086""
","
",,1233,run_exp/static/images/task_images/land.jpg,65,,,,,,,14,,,9,,,,,,,,9857,2,0,FALSE,,,
dig,242,726075,0.0-76.0-0.0,"""event"",""trial"",""time""
""fullscreenenter"",""1"",""20086""
","
","
","""event"",""trial"",""time""
""fullscreenenter"",""1"",""20086""
","
",,,,,,,,,,,,"[{""stimulus"":""run_exp/static/images/task_images/dig.jpg"",""time"":0},{""stimulus"":""run_exp/static/images/task_images/land.jpg"",""time"":602},{""stimulus"":""run_exp/static/images/task_images/dig.jpg"",""time"":1189}]",[],9,,,,,,,,,,,,,,
harvest,243,727081,0.0-76.0-1.0,"""event"",""trial"",""time""
""fullscreenenter"",""1"",""20086""
","
","
","""event"",""trial"",""time""
""fullscreenenter"",""1"",""20086""
","
",,null,run_exp/static/images/task_images/gems/14.jpg,null,,,,,,,1,,,9,,,,,14,0.095348005,0.071428571,,,,,,,
decision,244,727165,0.0-76.0-2.0,"""event"",""trial"",""time""
""fullscreenenter"",""1"",""20086""
","
","
","""event"",""trial"",""time""
""fullscreenenter"",""1"",""20086""
","
",,83,run_exp/static/images/task_images/land.jpg,65,,,,,,,1,,,9,,,,,,,,12729,2,1,FALSE,,,
dig,245,730087,0.0-77.0-0.0,"""event"",""trial"",""time""
""fullscreenenter"",""1"",""20086""
","
","
","""event"",""trial"",""time""
""fullscreenenter"",""1"",""20086""
","
",,,,,,,,,,,,"[{""stimulus"":""run_exp/static/images/task_images/dig.jpg"",""time"":0},{""stimulus"":""run_exp/static/images/task_images/land.jpg"",""time"":980},{""stimulus"":""run_exp/static/images/task_images/dig.jpg"",""time"":1945}]",[],9,,,,,,,,,,,,,,
harvest,246,731127,0.0-77.0-1.0,"""event"",""trial"",""time""
""fullscreenenter"",""1"",""20086""
","
","
","""event"",""trial"",""time""
""fullscreenenter"",""1"",""20086""
","
",,null,run_exp/static/images/task_images/gems/1.jpg,null,,,,,,,0,,,9,,,,,1,0.203043815,0,,,,,,,
decision,247,732242,0.0-77.0-2.0,"""event"",""trial"",""time""
""fullscreenenter"",""1"",""20086""
","
","
","""event"",""trial"",""time""
""fullscreenenter"",""1"",""20086""
","
",,1113,run_exp/static/images/task_images/land.jpg,76,,,,,,,0,,,9,,,,,,,,17806,2,2,TRUE,,,
travel,248,741138,0.0-78.0-0.0,"""event"",""trial"",""time""
""fullscreenenter"",""1"",""20086""
","
","
","""event"",""trial"",""time""
""fullscreenenter"",""1"",""20086""
","
",,,,,,,,,,,,"[{""stimulus"":""run_exp/static/images/task_images/rocket-01.jpg"",""time"":0},{""stimulus"":""run_exp/static/images/task_images/rocket-02.jpg"",""time"":998},{""stimulus"":""run_exp/static/images/task_images/rocket-03.jpg"",""time"":1988},{""stimulus"":""run_exp/static/images/task_images/rocket-04.jpg"",""time"":2972},{""stimulus"":""run_exp/static/images/task_images/rocket-05.jpg"",""time"":3952},{""stimulus"":""run_exp/static/images/task_images/rocket-06.jpg"",""time"":4937},{""stimulus"":""run_exp/static/images/task_images/rocket-07.jpg"",""time"":5936},{""stimulus"":""run_exp/static/images/task_images/rocket-08.jpg"",""time"":6914},{""stimulus"":""run_exp/static/images/task_images/rocket-09.jpg"",""time"":7897}]",[],9,,,,,,,,,,,,,,
alien_welcome,249,746185,0.0-78.0-1.0,"""event"",""trial"",""time""
""fullscreenenter"",""1"",""20086""
","
","
","""event"",""trial"",""time""
""fullscreenenter"",""1"",""20086""
","
",,null,run_exp/static/images/task_images/aliens/old_aliens/planet/alien_planet-41.jpg,null,,,,,,,,,,,,,41,"28,19,63,26,48,74,13,53,21,41,39,14,46,51,32,20,69,37,75,61,65,64,47,15,10,42,2,9,36,44,30,67,62,56,12,60,1",,,,,,,,,,
land,250,746723,0.0-78.0-2.0,"""event"",""trial"",""time""
""fullscreenenter"",""1"",""20086""
","
","
","""event"",""trial"",""time""
""fullscreenenter"",""1"",""20086""
","
",,null,run_exp/static/images/task_images/land.jpg,null,,,,,,,105,,,10,,,,,,,,,,,,,,
dig,251,748738,0.0-78.0-3.0,"""event"",""trial"",""time""
""fullscreenenter"",""1"",""20086""
","
","
","""event"",""trial"",""time""
""fullscreenenter"",""1"",""20086""
","
",,,,,,,,,,,,"[{""stimulus"":""run_exp/static/images/task_images/dig.jpg"",""time"":0},{""stimulus"":""run_exp/static/images/task_images/land.jpg"",""time"":669},{""stimulus"":""run_exp/static/images/task_images/dig.jpg"",""time"":1342}]",[],10,,,,,,,,,,,,,,
harvest,252,749753,0.0-78.0-4.0,"""event"",""trial"",""time""
""fullscreenenter"",""1"",""20086""
","
","
","""event"",""trial"",""time""
""fullscreenenter"",""1"",""20086""
","
",,null,run_exp/static/images/task_images/gems/105.jpg,null,,,,,,,25,,,10,,,,,105,0.233703425,0.238095238,,,,,,,
decision,253,749827,0.0-78.0-5.0,"""event"",""trial"",""time""
""fullscreenenter"",""1"",""20086""
","
","
","""event"",""trial"",""time""
""fullscreenenter"",""1"",""20086""
","
",,72,run_exp/static/images/task_images/land.jpg,65,,,,,,,25,,,10,,,,,,,,35391,2,0,FALSE,,,
dig,254,752772,0.0-79.0-0.0,"""event"",""trial"",""time""
""fullscreenenter"",""1"",""20086""
","
","
","""event"",""trial"",""time""
""fullscreenenter"",""1"",""20086""
","
",,,,,,,,,,,,"[{""stimulus"":""run_exp/static/images/task_images/dig.jpg"",""time"":1},{""stimulus"":""run_exp/static/images/task_images/land.jpg"",""time"":982},{""stimulus"":""run_exp/static/images/task_images/dig.jpg"",""time"":1964}]",[],10,,,,,,,,,,,,,,
harvest,255,753775,0.0-79.0-1.0,"""event"",""trial"",""time""
""fullscreenenter"",""1"",""20086""
","
","
","""event"",""trial"",""time""
""fullscreenenter"",""1"",""20086""
","
",,null,run_exp/static/images/task_images/gems/25.jpg,null,,,,,,,5,,,10,,,,,25,0.215376733,0.2,,,,,,,
