trial_type,trial_index,time_elapsed,internal_node_id,interactions,blur_events,focus_events,fullscreenenter_events,fullscreenexit_events,success,rt,stimulus,key_press,prompt,subject_id,participant_id,age,gender,button_pressed,next_reward,animation_sequence,responses,planet,curr_prac_trial,n_prac_rounds,alien,aliens,reward_received,decay_rate_actual,decay_rate_exp,time_in_block,block_num,prt,last_trial_on_planet,button_html,bonus,num_failures
pavlovia,0,3,0.0-0.0,"""event"",""trial"",""time""
""blur"",""1"",""888""
""focus"",""1"",""1871""
""fullscreenenter"",""1"",""4828""
","""event"",""trial"",""time""
""blur"",""1"",""888""
","""event"",""trial"",""time""
""focus"",""1"",""1871""
","""event"",""trial"",""time""
""fullscreenenter"",""1"",""4828""
","
",,,,,,,,,,,,,,,,,,,,,,,,,,,,
fullscreen,1,5807,0.0-1.0,"""event"",""trial"",""time""
""blur"",""1"",""888""
""focus"",""1"",""1871""
""fullscreenenter"",""1"",""4828""
","""event"",""trial"",""time""
""blur"",""1"",""888""
","""event"",""trial"",""time""
""focus"",""1"",""1871""
","""event"",""trial"",""time""
""fullscreenenter"",""1"",""4828""
","
",TRUE,,,,,,,,,,,,,,,,,,,,,,,,,,,
instruc_welcome,2,15604,0.0-2.0,"""event"",""trial"",""time""
""blur"",""1"",""888""
""focus"",""1"",""1871""
""fullscreenenter"",""1"",""4828""
","""event"",""trial"",""time""
""blur"",""1"",""888""
","""event"",""trial"",""time""
""focus"",""1"",""1871""
","""event"",""trial"",""time""
""fullscreenenter"",""1"",""4828""
","
",,null,run_exp/static/audio/clip_1_welcome.m4a,null,"<p>Howdy! In this experiment, you’ll be an explorer traveling through space to collect space treasure.</p><p>Your mission is to collect as much treasure as possible.</p><br><br><p><img src='run_exp/static/images/task_images/opening_img-01.jpg' height='300' width='auto'></p>",11069,2995,17.29,Female,,,,,,,,,,,,,,,,,,,
audio-keyboard-response,3,32183,0.0-3.0,"""event"",""trial"",""time""
""blur"",""1"",""888""
""focus"",""1"",""1871""
""fullscreenenter"",""1"",""4828""
","""event"",""trial"",""time""
""blur"",""1"",""888""
","""event"",""trial"",""time""
""focus"",""1"",""1871""
","""event"",""trial"",""time""
""fullscreenenter"",""1"",""4828""
","
",,null,run_exp/static/audio/clip_2_move.m4a,null,,,,,,,,,,,,,,,,,,,,,,,,
welcome_dec,4,35098,0.0-4.0,"""event"",""trial"",""time""
""blur"",""1"",""888""
""focus"",""1"",""1871""
""fullscreenenter"",""1"",""4828""
","""event"",""trial"",""time""
""blur"",""1"",""888""
","""event"",""trial"",""time""
""focus"",""1"",""1871""
","""event"",""trial"",""time""
""fullscreenenter"",""1"",""4828""
","
",,2913.7,"<p>Howdy! In this experiment, you’ll be an explorer traveling through space to collect space treasure.</p><p>Your mission is to collect as much treasure as possible.</p><br><br><p><img src='run_exp/static/images/task_images/opening_img-01.jpg' height='300' width='auto'></p>",,,,,,,1,,,,,,,,,,,,,,,,,,
html-keyboard-response,5,36792,0.0-5.0,"""event"",""trial"",""time""
""blur"",""1"",""888""
""focus"",""1"",""1871""
""fullscreenenter"",""1"",""4828""
","""event"",""trial"",""time""
""blur"",""1"",""888""
","""event"",""trial"",""time""
""focus"",""1"",""1871""
","""event"",""trial"",""time""
""fullscreenenter"",""1"",""4828""
","
",,1692.7,"<p>Howdy! In this experiment, you’ll be an explorer traveling through space to collect space treasure.</p><p>Your mission is to collect as much treasure as possible.</p><br><br><p><img src='run_exp/static/images/task_images/opening_img-01.jpg' height='300' width='auto'></p><button class=""jspsych-html-btn-unchosen""><img src=""run_exp/static/images/task_images/planet-01.jpg"" height=""50""></button><button class=""jspsych-html-btn-chosen""><img src=""run_exp/static/images/task_images/planet-02.jpg"" height=""50""></button><p><b>[press the space bar to lock in your answer]<b><br></p>",32,,,,,,,,,,,,,,,,,,,,,,,,
instruc_goal,6,46857,0.0-6.0-0.0,"""event"",""trial"",""time""
""blur"",""1"",""888""
""focus"",""1"",""1871""
""fullscreenenter"",""1"",""4828""
","""event"",""trial"",""time""
""blur"",""1"",""888""
","""event"",""trial"",""time""
""focus"",""1"",""1871""
","""event"",""trial"",""time""
""fullscreenenter"",""1"",""4828""
","
",,null,run_exp/static/audio/clip_3_goal.m4a,null,"<p> As a space explorer, you’ll visit different planets to dig for space treasure, these pink gems.</p> <p> The more treasure you dig up, the more bonus money you’ll win! </p><br><br><p><img src='run_exp/static/images/task_images/pink_gem.jpg' height='300' width='auto'></p>",,,,,,,,,,,,,,,,,,,,,,,
instruc_goal,7,48311,0.0-6.0-1.0,"""event"",""trial"",""time""
""blur"",""1"",""888""
""focus"",""1"",""1871""
""fullscreenenter"",""1"",""4828""
","""event"",""trial"",""time""
""blur"",""1"",""888""
","""event"",""trial"",""time""
""focus"",""1"",""1871""
","""event"",""trial"",""time""
""fullscreenenter"",""1"",""4828""
","
",,1452.2,"<p> As a space explorer, you’ll visit different planets to dig for space treasure, these pink gems.</p> <p> The more treasure you dig up, the more bonus money you’ll win! </p><br><br><p><img src='run_exp/static/images/task_images/pink_gem.jpg' height='300' width='auto'></p>",,,,,,,1,,,,,,,,,,,,,,,,,,
html-keyboard-response,8,49326,0.0-6.0-2.0,"""event"",""trial"",""time""
""blur"",""1"",""888""
""focus"",""1"",""1871""
""fullscreenenter"",""1"",""4828""
","""event"",""trial"",""time""
""blur"",""1"",""888""
","""event"",""trial"",""time""
""focus"",""1"",""1871""
","""event"",""trial"",""time""
""fullscreenenter"",""1"",""4828""
","
",,1013.8,"<p> As a space explorer, you’ll visit different planets to dig for space treasure, these pink gems.</p> <p> The more treasure you dig up, the more bonus money you’ll win! </p><br><br><p><img src='run_exp/static/images/task_images/pink_gem.jpg' height='300' width='auto'></p><button class=""jspsych-html-btn-unchosen""><img src=""run_exp/static/images/task_images/planet-01.jpg"" height=""50""></button><button class=""jspsych-html-btn-chosen""><img src=""run_exp/static/images/task_images/planet-02.jpg"" height=""50""></button><p><b>[press the space bar to lock in your answer]<b><br></p>",32,,,,,,,,,,,,,,,,,,,,,,,,
instruc_dig,9,65317,0.0-7.0-0.0,"""event"",""trial"",""time""
""blur"",""1"",""888""
""focus"",""1"",""1871""
""fullscreenenter"",""1"",""4828""
","""event"",""trial"",""time""
""blur"",""1"",""888""
","""event"",""trial"",""time""
""focus"",""1"",""1871""
","""event"",""trial"",""time""
""fullscreenenter"",""1"",""4828""
","
",,null,run_exp/static/audio/clip_4_dig.m4a,null,,,,,,,100,,,,,,,,,,,,,,,,,
instruc_dig_try,10,65414,0.0-7.0-1.0,"""event"",""trial"",""time""
""blur"",""1"",""888""
""focus"",""1"",""1871""
""fullscreenenter"",""1"",""4828""
","""event"",""trial"",""time""
""blur"",""1"",""888""
","""event"",""trial"",""time""
""focus"",""1"",""1871""
","""event"",""trial"",""time""
""fullscreenenter"",""1"",""4828""
","
",,96,"<p> When you’ve arrived at a new planet, you will dig once. </p> <p>Then, you get to decide if you want to stay on the planet and dig again or travel to a new planet and dig there.</p> <p> To stay and dig, press the letter <strong>‘A’</strong> on your keyboard. Try pressing it now! </p><p><img src='run_exp/static/images/task_images/land.jpg'  height='700' width='auto'></p>",65,"<p> When you’ve arrived at a new planet, you will dig once. </p> <p>Then, you get to decide if you want to stay on the planet and dig again or travel to a new planet and dig there.</p> <p> To stay and dig, press the letter <strong>‘A’</strong> on your keyboard. Try pressing it now! </p><p><img src='run_exp/static/images/task_images/land.jpg'  height='700' width='auto'></p>",,,,,,100,,,,,,,,,,,,,,,,,
dig_prac,11,67424,0.0-7.0-2.0,"""event"",""trial"",""time""
""blur"",""1"",""888""
""focus"",""1"",""1871""
""fullscreenenter"",""1"",""4828""
""blur"",""12"",""79121""
""focus"",""12"",""89205""
","""event"",""trial"",""time""
""blur"",""1"",""888""
""blur"",""12"",""79121""
","""event"",""trial"",""time""
""focus"",""1"",""1871""
""focus"",""12"",""89205""
","""event"",""trial"",""time""
""fullscreenenter"",""1"",""4828""
","
",,,,,,,,,,,,"[{""stimulus"":""run_exp/static/images/task_images/dig.jpg"",""time"":0.10000000009313226},{""stimulus"":""run_exp/static/images/task_images/land.jpg"",""time"":668.3000000000466},{""stimulus"":""run_exp/static/images/task_images/dig.jpg"",""time"":1337.4000000000233}]",[],,,,,,,,,,,,,,,
instruc_travel,12,103652,0.0-7.0-3.0,"""event"",""trial"",""time""
""blur"",""1"",""888""
""focus"",""1"",""1871""
""fullscreenenter"",""1"",""4828""
""blur"",""12"",""79121""
""focus"",""12"",""89205""
","""event"",""trial"",""time""
""blur"",""1"",""888""
""blur"",""12"",""79121""
","""event"",""trial"",""time""
""focus"",""1"",""1871""
""focus"",""12"",""89205""
","""event"",""trial"",""time""
""fullscreenenter"",""1"",""4828""
","
",,null,run_exp/static/audio/clip_5_travel.m4a,null,"<p>Every time you dig up gems, there are less gems on the planet, so the more you dig on a planet the fewer gems you’ll get with each dig.</p><p>When gems are running low, you may want to travel to a new planet. </p> <p>  Planets are very far apart in this galaxy, so it will take some time to travel between them. </p> <br><p>There are lots and lots of planets for you to visit, so you won’t be able to return to any planets you’ve seen before. </p><br><p>To leave this planet and travel to a new one, press the letter <strong>‘L’</strong> on your keyboard. Try pressing it now! </p><p><img src='run_exp/static/images/task_images/rocket-01.jpg'  height='600' width='auto'></p>",,,,,,,,,,,,,,,,,,,,,,,
instruc_travel_try,13,103922,0.0-7.0-4.0,"""event"",""trial"",""time""
""blur"",""1"",""888""
""focus"",""1"",""1871""
""fullscreenenter"",""1"",""4828""
""blur"",""12"",""79121""
""focus"",""12"",""89205""
""blur"",""14"",""112334""
","""event"",""trial"",""time""
""blur"",""1"",""888""
""blur"",""12"",""79121""
""blur"",""14"",""112334""
","""event"",""trial"",""time""
""focus"",""1"",""1871""
""focus"",""12"",""89205""
","""event"",""trial"",""time""
""fullscreenenter"",""1"",""4828""
","
",,268.2,"<p>Every time you dig up gems, there are less gems on the planet, so the more you dig on a planet the fewer gems you’ll get with each dig.</p><p>When gems are running low, you may want to travel to a new planet. </p> <p>  Planets are very far apart in this galaxy, so it will take some time to travel between them. </p> <br><p>There are lots and lots of planets for you to visit, so you won’t be able to return to any planets you’ve seen before. </p><br><p>To leave this planet and travel to a new one, press the letter <strong>‘L’</strong> on your keyboard. Try pressing it now! </p><p><img src='run_exp/static/images/task_images/rocket-01.jpg'  height='600' width='auto'></p>",76,"<p>Every time you dig up gems, there are less gems on the planet, so the more you dig on a planet the fewer gems you’ll get with each dig.</p><p>When gems are running low, you may want to travel to a new planet. </p> <p>  Planets are very far apart in this galaxy, so it will take some time to travel between them. </p> <br><p>There are lots and lots of planets for you to visit, so you won’t be able to return to any planets you’ve seen before. </p><br><p>To leave this planet and travel to a new one, press the letter <strong>‘L’</strong> on your keyboard. Try pressing it now! </p><p><img src='run_exp/static/images/task_images/rocket-01.jpg'  height='600' width='auto'></p>",,,,,,,,,,,,,,,,,,,,,,,
travel_prac,14,113925,0.0-7.0-5.0,"""event"",""trial"",""time""
""blur"",""1"",""888""
""focus"",""1"",""1871""
""fullscreenenter"",""1"",""4828""
""blur"",""12"",""79121""
""focus"",""12"",""89205""
""blur"",""14"",""112334""
""focus"",""15"",""120160""
","""event"",""trial"",""time""
""blur"",""1"",""888""
""blur"",""12"",""79121""
""blur"",""14"",""112334""
","""event"",""trial"",""time""
""focus"",""1"",""1871""
""focus"",""12"",""89205""
""focus"",""15"",""120160""
","""event"",""trial"",""time""
""fullscreenenter"",""1"",""4828""
","
",,,,,,,,,,,,"[{""stimulus"":""run_exp/static/images/task_images/rocket-01.jpg"",""time"":0.19999999995343387},{""stimulus"":""run_exp/static/images/task_images/rocket-02.jpg"",""time"":1116.5999999999767},{""stimulus"":""run_exp/static/images/task_images/rocket-03.jpg"",""time"":2223.5},{""stimulus"":""run_exp/static/images/task_images/rocket-04.jpg"",""time"":3335},{""stimulus"":""run_exp/static/images/task_images/rocket-05.jpg"",""time"":4448.29999999993},{""stimulus"":""run_exp/static/images/task_images/rocket-06.jpg"",""time"":5559.400000000023},{""stimulus"":""run_exp/static/images/task_images/rocket-07.jpg"",""time"":6670.099999999977},{""stimulus"":""run_exp/static/images/task_images/rocket-08.jpg"",""time"":7783.400000000023},{""stimulus"":""run_exp/static/images/task_images/rocket-09.jpg"",""time"":8890.400000000023}]",[],0,,,,,,,,,,,,,,
instruc_alien_greet,15,141129,0.0-7.0-6.0,"""event"",""trial"",""time""
""blur"",""1"",""888""
""focus"",""1"",""1871""
""fullscreenenter"",""1"",""4828""
""blur"",""12"",""79121""
""focus"",""12"",""89205""
""blur"",""14"",""112334""
""focus"",""15"",""120160""
","""event"",""trial"",""time""
""blur"",""1"",""888""
""blur"",""12"",""79121""
""blur"",""14"",""112334""
","""event"",""trial"",""time""
""focus"",""1"",""1871""
""focus"",""12"",""89205""
""focus"",""15"",""120160""
","""event"",""trial"",""time""
""fullscreenenter"",""1"",""4828""
","
",,null,run_exp/static/audio/clip_6_alien.m4a,null,"<p>When you arrive at a new planet, the alien who owns the treasure mine on that planet will greet you!</p><p>The better an alien takes care of their mine the easier it is to dig for gems. Some aliens take better care of their mine than others. So, you won’t get exactly the same amount of gems on each planet.</p><p>What the alien looks like does not tell you anything about how many gems there are on the planet.</p><br><p><img src=""run_exp/static/images/task_images/aliens/instructions_aliens/planet/alien_planet-1.jpg""  height=""600"" width=""auto""></p>",,,,,,,,,,,,,,,,,,,,,,,
instruc_alien_greet,16,142220,0.0-7.0-7.0,"""event"",""trial"",""time""
""blur"",""1"",""888""
""focus"",""1"",""1871""
""fullscreenenter"",""1"",""4828""
""blur"",""12"",""79121""
""focus"",""12"",""89205""
""blur"",""14"",""112334""
""focus"",""15"",""120160""
","""event"",""trial"",""time""
""blur"",""1"",""888""
""blur"",""12"",""79121""
""blur"",""14"",""112334""
","""event"",""trial"",""time""
""focus"",""1"",""1871""
""focus"",""12"",""89205""
""focus"",""15"",""120160""
","""event"",""trial"",""time""
""fullscreenenter"",""1"",""4828""
","
",,1090.5,"<p>When you arrive at a new planet, the alien who owns the treasure mine on that planet will greet you!</p><p>The better an alien takes care of their mine the easier it is to dig for gems. Some aliens take better care of their mine than others. So, you won’t get exactly the same amount of gems on each planet.</p><p>What the alien looks like does not tell you anything about how many gems there are on the planet.</p><br><p><img src=""run_exp/static/images/task_images/aliens/instructions_aliens/planet/alien_planet-1.jpg""  height=""600"" width=""auto""></p>",,,,,,,1,,,,,,,,,,,,,,,,,,
html-keyboard-response,17,142608,0.0-7.0-8.0,"""event"",""trial"",""time""
""blur"",""1"",""888""
""focus"",""1"",""1871""
""fullscreenenter"",""1"",""4828""
""blur"",""12"",""79121""
""focus"",""12"",""89205""
""blur"",""14"",""112334""
""focus"",""15"",""120160""
","""event"",""trial"",""time""
""blur"",""1"",""888""
""blur"",""12"",""79121""
""blur"",""14"",""112334""
","""event"",""trial"",""time""
""focus"",""1"",""1871""
""focus"",""12"",""89205""
""focus"",""15"",""120160""
","""event"",""trial"",""time""
""fullscreenenter"",""1"",""4828""
","
",,386.6,"<p>When you arrive at a new planet, the alien who owns the treasure mine on that planet will greet you!</p><p>The better an alien takes care of their mine the easier it is to dig for gems. Some aliens take better care of their mine than others. So, you won’t get exactly the same amount of gems on each planet.</p><p>What the alien looks like does not tell you anything about how many gems there are on the planet.</p><br><p><img src=""run_exp/static/images/task_images/aliens/instructions_aliens/planet/alien_planet-1.jpg""  height=""600"" width=""auto""></p><button class=""jspsych-html-btn-unchosen""><img src=""run_exp/static/images/task_images/planet-01.jpg"" height=""50""></button><button class=""jspsych-html-btn-chosen""><img src=""run_exp/static/images/task_images/planet-02.jpg"" height=""50""></button><p><b>[press the space bar to lock in your answer]<b><br></p>",32,,,,,,,,,,,,,,,,,,,,,,,,
time_out,18,153691,0.0-8.0-0.0,"""event"",""trial"",""time""
""blur"",""1"",""888""
""focus"",""1"",""1871""
""fullscreenenter"",""1"",""4828""
""blur"",""12"",""79121""
""focus"",""12"",""89205""
""blur"",""14"",""112334""
""focus"",""15"",""120160""
","""event"",""trial"",""time""
""blur"",""1"",""888""
""blur"",""12"",""79121""
""blur"",""14"",""112334""
","""event"",""trial"",""time""
""focus"",""1"",""1871""
""focus"",""12"",""89205""
""focus"",""15"",""120160""
","""event"",""trial"",""time""
""fullscreenenter"",""1"",""4828""
","
",,null,run_exp/static/audio/clip_7_timeout.m4a,null,"<p>If you don't make your choice fast enough, you’ll have to wait a few seconds before you can make another one.</p><p>You can’t dig for more gems or travel to new planets. You just have to sit and wait.</p><br><p><img src='run_exp/static/images/task_images/time_out.jpg'  height='600' width='auto'></p>",,,,,,,,,,,,,,,,,,,,,,,
time_out,19,154399,0.0-8.0-1.0,"""event"",""trial"",""time""
""blur"",""1"",""888""
""focus"",""1"",""1871""
""fullscreenenter"",""1"",""4828""
""blur"",""12"",""79121""
""focus"",""12"",""89205""
""blur"",""14"",""112334""
""focus"",""15"",""120160""
","""event"",""trial"",""time""
""blur"",""1"",""888""
""blur"",""12"",""79121""
""blur"",""14"",""112334""
","""event"",""trial"",""time""
""focus"",""1"",""1871""
""focus"",""12"",""89205""
""focus"",""15"",""120160""
","""event"",""trial"",""time""
""fullscreenenter"",""1"",""4828""
","
",,707.2,"<p>If you don't make your choice fast enough, you’ll have to wait a few seconds before you can make another one.</p><p>You can’t dig for more gems or travel to new planets. You just have to sit and wait.</p><br><p><img src='run_exp/static/images/task_images/time_out.jpg'  height='600' width='auto'></p>",,,,,,,1,,,,,,,,,,,,,,,,,,
html-keyboard-response,20,154644,0.0-8.0-2.0,"""event"",""trial"",""time""
""blur"",""1"",""888""
""focus"",""1"",""1871""
""fullscreenenter"",""1"",""4828""
""blur"",""12"",""79121""
""focus"",""12"",""89205""
""blur"",""14"",""112334""
""focus"",""15"",""120160""
","""event"",""trial"",""time""
""blur"",""1"",""888""
""blur"",""12"",""79121""
""blur"",""14"",""112334""
","""event"",""trial"",""time""
""focus"",""1"",""1871""
""focus"",""12"",""89205""
""focus"",""15"",""120160""
","""event"",""trial"",""time""
""fullscreenenter"",""1"",""4828""
","
",,243.2,"<p>If you don't make your choice fast enough, you’ll have to wait a few seconds before you can make another one.</p><p>You can’t dig for more gems or travel to new planets. You just have to sit and wait.</p><br><p><img src='run_exp/static/images/task_images/time_out.jpg'  height='600' width='auto'></p><button class=""jspsych-html-btn-unchosen""><img src=""run_exp/static/images/task_images/planet-01.jpg"" height=""50""></button><button class=""jspsych-html-btn-chosen""><img src=""run_exp/static/images/task_images/planet-02.jpg"" height=""50""></button><p><b>[press the space bar to lock in your answer]<b><br></p>",32,,,,,,,,,,,,,,,,,,,,,,,,
instruc_break,21,170285,0.0-9.0-0.0,"""event"",""trial"",""time""
""blur"",""1"",""888""
""focus"",""1"",""1871""
""fullscreenenter"",""1"",""4828""
""blur"",""12"",""79121""
""focus"",""12"",""89205""
""blur"",""14"",""112334""
""focus"",""15"",""120160""
","""event"",""trial"",""time""
""blur"",""1"",""888""
""blur"",""12"",""79121""
""blur"",""14"",""112334""
","""event"",""trial"",""time""
""focus"",""1"",""1871""
""focus"",""12"",""89205""
""focus"",""15"",""120160""
","""event"",""trial"",""time""
""fullscreenenter"",""1"",""4828""
","
",,null,run_exp/static/audio/clip_8_break.m4a,null,"<p> After digging and traveling for a while, you’ll be able to take a break at home base. </p><p>The game will last 20 minutes no matter what.</p><p>You will visit home base every 5 minutes, so, you will visit home base three times during the game.</p><br><p><img src='run_exp/static/images/task_images/home_base.jpg' height='600' width='auto'></p>",,,,,,,,,,,,,,,,,,,,,,,
instruc_break,22,171361,0.0-9.0-1.0,"""event"",""trial"",""time""
""blur"",""1"",""888""
""focus"",""1"",""1871""
""fullscreenenter"",""1"",""4828""
""blur"",""12"",""79121""
""focus"",""12"",""89205""
""blur"",""14"",""112334""
""focus"",""15"",""120160""
","""event"",""trial"",""time""
""blur"",""1"",""888""
""blur"",""12"",""79121""
""blur"",""14"",""112334""
","""event"",""trial"",""time""
""focus"",""1"",""1871""
""focus"",""12"",""89205""
""focus"",""15"",""120160""
","""event"",""trial"",""time""
""fullscreenenter"",""1"",""4828""
","
",,1075.4,"<p> After digging and traveling for a while, you’ll be able to take a break at home base. </p><p>The game will last 20 minutes no matter what.</p><p>You will visit home base every 5 minutes, so, you will visit home base three times during the game.</p><br><p><img src='run_exp/static/images/task_images/home_base.jpg' height='600' width='auto'></p>",,,,,,,1,,,,,,,,,,,,,,,,,,
html-keyboard-response,23,171723,0.0-9.0-2.0,"""event"",""trial"",""time""
""blur"",""1"",""888""
""focus"",""1"",""1871""
""fullscreenenter"",""1"",""4828""
""blur"",""12"",""79121""
""focus"",""12"",""89205""
""blur"",""14"",""112334""
""focus"",""15"",""120160""
","""event"",""trial"",""time""
""blur"",""1"",""888""
""blur"",""12"",""79121""
""blur"",""14"",""112334""
","""event"",""trial"",""time""
""focus"",""1"",""1871""
""focus"",""12"",""89205""
""focus"",""15"",""120160""
","""event"",""trial"",""time""
""fullscreenenter"",""1"",""4828""
","
",,360.3,"<p> After digging and traveling for a while, you’ll be able to take a break at home base. </p><p>The game will last 20 minutes no matter what.</p><p>You will visit home base every 5 minutes, so, you will visit home base three times during the game.</p><br><p><img src='run_exp/static/images/task_images/home_base.jpg' height='600' width='auto'></p><button class=""jspsych-html-btn-unchosen""><img src=""run_exp/static/images/task_images/planet-01.jpg"" height=""50""></button><button class=""jspsych-html-btn-chosen""><img src=""run_exp/static/images/task_images/planet-02.jpg"" height=""50""></button><p><b>[press the space bar to lock in your answer]<b><br></p>",32,,,,,,,,,,,,,,,,,,,,,,,,
instruc_prac_game,24,181849,0.0-10.0-0.0,"""event"",""trial"",""time""
""blur"",""1"",""888""
""focus"",""1"",""1871""
""fullscreenenter"",""1"",""4828""
""blur"",""12"",""79121""
""focus"",""12"",""89205""
""blur"",""14"",""112334""
""focus"",""15"",""120160""
","""event"",""trial"",""time""
""blur"",""1"",""888""
""blur"",""12"",""79121""
""blur"",""14"",""112334""
","""event"",""trial"",""time""
""focus"",""1"",""1871""
""focus"",""12"",""89205""
""focus"",""15"",""120160""
","""event"",""trial"",""time""
""fullscreenenter"",""1"",""4828""
","
",,null,run_exp/static/audio/clip_9_practice.m4a,null,"<p> Are you ready to play a practice game? </p> <p>In this practice game, you'll be digging up barrels of gems. But, in the real game, you'll be digging up the gems themselves. </p>",,,,,,,,,,,,,,,,,,,,,,,
html-button-response,25,182657,0.0-10.0-1.0,"""event"",""trial"",""time""
""blur"",""1"",""888""
""focus"",""1"",""1871""
""fullscreenenter"",""1"",""4828""
""blur"",""12"",""79121""
""focus"",""12"",""89205""
""blur"",""14"",""112334""
""focus"",""15"",""120160""
","""event"",""trial"",""time""
""blur"",""1"",""888""
""blur"",""12"",""79121""
""blur"",""14"",""112334""
","""event"",""trial"",""time""
""focus"",""1"",""1871""
""focus"",""12"",""89205""
""focus"",""15"",""120160""
","""event"",""trial"",""time""
""fullscreenenter"",""1"",""4828""
","
",,807.2,"<p> Are you ready to play a practice game? </p> <p>In this practice game, you'll be digging up barrels of gems. But, in the real game, you'll be digging up the gems themselves. </p>",,,,,,,0,,,,,,,,,,,,,,,,,,
alien_welcome_prac,26,187660,0.0-11.0-0.0,"""event"",""trial"",""time""
""blur"",""1"",""888""
""focus"",""1"",""1871""
""fullscreenenter"",""1"",""4828""
""blur"",""12"",""79121""
""focus"",""12"",""89205""
""blur"",""14"",""112334""
""focus"",""15"",""120160""
","""event"",""trial"",""time""
""blur"",""1"",""888""
""blur"",""12"",""79121""
""blur"",""14"",""112334""
","""event"",""trial"",""time""
""focus"",""1"",""1871""
""focus"",""12"",""89205""
""focus"",""15"",""120160""
","""event"",""trial"",""time""
""fullscreenenter"",""1"",""4828""
","
",,null,run_exp/static/images/task_images/aliens/practice_aliens/planet/alien_planet-5.jpg,null,,,,,,,,,,,,,,,,,,,,,,,,
land_prac,27,188164,0.0-11.0-1.0,"""event"",""trial"",""time""
""blur"",""1"",""888""
""focus"",""1"",""1871""
""fullscreenenter"",""1"",""4828""
""blur"",""12"",""79121""
""focus"",""12"",""89205""
""blur"",""14"",""112334""
""focus"",""15"",""120160""
","""event"",""trial"",""time""
""blur"",""1"",""888""
""blur"",""12"",""79121""
""blur"",""14"",""112334""
","""event"",""trial"",""time""
""focus"",""1"",""1871""
""focus"",""12"",""89205""
""focus"",""15"",""120160""
","""event"",""trial"",""time""
""fullscreenenter"",""1"",""4828""
","
",,null,run_exp/static/images/task_images/land.jpg,null,,,,,,,105,,,0,,,,,,,,,,,,,,
dig_prac,28,190170,0.0-11.0-2.0,"""event"",""trial"",""time""
""blur"",""1"",""888""
""focus"",""1"",""1871""
""fullscreenenter"",""1"",""4828""
""blur"",""12"",""79121""
""focus"",""12"",""89205""
""blur"",""14"",""112334""
""focus"",""15"",""120160""
","""event"",""trial"",""time""
""blur"",""1"",""888""
""blur"",""12"",""79121""
""blur"",""14"",""112334""
","""event"",""trial"",""time""
""focus"",""1"",""1871""
""focus"",""12"",""89205""
""focus"",""15"",""120160""
","""event"",""trial"",""time""
""fullscreenenter"",""1"",""4828""
","
",,,,,,,,,,,,"[{""stimulus"":""run_exp/static/images/task_images/dig.jpg"",""time"":0.19999999995343387},{""stimulus"":""run_exp/static/images/task_images/land.jpg"",""time"":669.4000000000233},{""stimulus"":""run_exp/static/images/task_images/dig.jpg"",""time"":1335.5999999999767}]",[],,,,,,,,,,,,,,,
harvest_prac,29,191175,0.0-11.0-3.0,"""event"",""trial"",""time""
""blur"",""1"",""888""
""focus"",""1"",""1871""
""fullscreenenter"",""1"",""4828""
""blur"",""12"",""79121""
""focus"",""12"",""89205""
""blur"",""14"",""112334""
""focus"",""15"",""120160""
","""event"",""trial"",""time""
""blur"",""1"",""888""
""blur"",""12"",""79121""
""blur"",""14"",""112334""
","""event"",""trial"",""time""
""focus"",""1"",""1871""
""focus"",""12"",""89205""
""focus"",""15"",""120160""
","""event"",""trial"",""time""
""fullscreenenter"",""1"",""4828""
","
",,null,run_exp/static/images/task_images/barrel_text.jpg,null,,,,,,,,,,,,,,,,,,,,,,,,
decision_prac,30,193720,0.0-11.0-4.0,"""event"",""trial"",""time""
""blur"",""1"",""888""
""focus"",""1"",""1871""
""fullscreenenter"",""1"",""4828""
""blur"",""12"",""79121""
""focus"",""12"",""89205""
""blur"",""14"",""112334""
""focus"",""15"",""120160""
","""event"",""trial"",""time""
""blur"",""1"",""888""
""blur"",""12"",""79121""
""blur"",""14"",""112334""
","""event"",""trial"",""time""
""focus"",""1"",""1871""
""focus"",""12"",""89205""
""focus"",""15"",""120160""
","""event"",""trial"",""time""
""fullscreenenter"",""1"",""4828""
","
",,2543.5,run_exp/static/images/task_images/land.jpg,65,,,,,,,,,,,1,,,,,,,,,,,,,
dig_prac,31,195727,0.0-12.0-0.0,"""event"",""trial"",""time""
""blur"",""1"",""888""
""focus"",""1"",""1871""
""fullscreenenter"",""1"",""4828""
""blur"",""12"",""79121""
""focus"",""12"",""89205""
""blur"",""14"",""112334""
""focus"",""15"",""120160""
","""event"",""trial"",""time""
""blur"",""1"",""888""
""blur"",""12"",""79121""
""blur"",""14"",""112334""
","""event"",""trial"",""time""
""focus"",""1"",""1871""
""focus"",""12"",""89205""
""focus"",""15"",""120160""
","""event"",""trial"",""time""
""fullscreenenter"",""1"",""4828""
","
",,,,,,,,,,,,"[{""stimulus"":""run_exp/static/images/task_images/dig.jpg"",""time"":0.09999999997671694},{""stimulus"":""run_exp/static/images/task_images/land.jpg"",""time"":669.8000000000466},{""stimulus"":""run_exp/static/images/task_images/dig.jpg"",""time"":1336.4000000000233}]",[],,,,,,,,,,,,,,,
harvest_prac,32,196732,0.0-12.0-1.0,"""event"",""trial"",""time""
""blur"",""1"",""888""
""focus"",""1"",""1871""
""fullscreenenter"",""1"",""4828""
""blur"",""12"",""79121""
""focus"",""12"",""89205""
""blur"",""14"",""112334""
""focus"",""15"",""120160""
","""event"",""trial"",""time""
""blur"",""1"",""888""
""blur"",""12"",""79121""
""blur"",""14"",""112334""
","""event"",""trial"",""time""
""focus"",""1"",""1871""
""focus"",""12"",""89205""
""focus"",""15"",""120160""
","""event"",""trial"",""time""
""fullscreenenter"",""1"",""4828""
","
",,null,run_exp/static/images/task_images/barrel_text.jpg,null,,,,,,,,,,,,,,,,,,,,,,,,
decision_prac,33,197537,0.0-12.0-2.0,"""event"",""trial"",""time""
""blur"",""1"",""888""
""focus"",""1"",""1871""
""fullscreenenter"",""1"",""4828""
""blur"",""12"",""79121""
""focus"",""12"",""89205""
""blur"",""14"",""112334""
""focus"",""15"",""120160""
","""event"",""trial"",""time""
""blur"",""1"",""888""
""blur"",""12"",""79121""
""blur"",""14"",""112334""
","""event"",""trial"",""time""
""focus"",""1"",""1871""
""focus"",""12"",""89205""
""focus"",""15"",""120160""
","""event"",""trial"",""time""
""fullscreenenter"",""1"",""4828""
","
",,803.9,run_exp/static/images/task_images/land.jpg,65,,,,,,,,,,,2,,,,,,,,,,,,,
dig_prac,34,199542,0.0-13.0-0.0,"""event"",""trial"",""time""
""blur"",""1"",""888""
""focus"",""1"",""1871""
""fullscreenenter"",""1"",""4828""
""blur"",""12"",""79121""
""focus"",""12"",""89205""
""blur"",""14"",""112334""
""focus"",""15"",""120160""
","""event"",""trial"",""time""
""blur"",""1"",""888""
""blur"",""12"",""79121""
""blur"",""14"",""112334""
","""event"",""trial"",""time""
""focus"",""1"",""1871""
""focus"",""12"",""89205""
""focus"",""15"",""120160""
","""event"",""trial"",""time""
""fullscreenenter"",""1"",""4828""
","
",,,,,,,,,,,,"[{""stimulus"":""run_exp/static/images/task_images/dig.jpg"",""time"":0.09999999997671694},{""stimulus"":""run_exp/static/images/task_images/land.jpg"",""time"":668.4000000000233},{""stimulus"":""run_exp/static/images/task_images/dig.jpg"",""time"":1335.2000000000698}]",[],,,,,,,,,,,,,,,
harvest_prac,35,200548,0.0-13.0-1.0,"""event"",""trial"",""time""
""blur"",""1"",""888""
""focus"",""1"",""1871""
""fullscreenenter"",""1"",""4828""
""blur"",""12"",""79121""
""focus"",""12"",""89205""
""blur"",""14"",""112334""
""focus"",""15"",""120160""
","""event"",""trial"",""time""
""blur"",""1"",""888""
""blur"",""12"",""79121""
""blur"",""14"",""112334""
","""event"",""trial"",""time""
""focus"",""1"",""1871""
""focus"",""12"",""89205""
""focus"",""15"",""120160""
","""event"",""trial"",""time""
""fullscreenenter"",""1"",""4828""
","
",,null,run_exp/static/images/task_images/barrel_text.jpg,null,,,,,,,,,,,,,,,,,,,,,,,,
decision_prac,36,203551,0.0-13.0-2.0,"""event"",""trial"",""time""
""blur"",""1"",""888""
""focus"",""1"",""1871""
""fullscreenenter"",""1"",""4828""
""blur"",""12"",""79121""
""focus"",""12"",""89205""
""blur"",""14"",""112334""
""focus"",""15"",""120160""
","""event"",""trial"",""time""
""blur"",""1"",""888""
""blur"",""12"",""79121""
""blur"",""14"",""112334""
","""event"",""trial"",""time""
""focus"",""1"",""1871""
""focus"",""12"",""89205""
""focus"",""15"",""120160""
","""event"",""trial"",""time""
""fullscreenenter"",""1"",""4828""
","
",,null,run_exp/static/images/task_images/land.jpg,null,,,,,,,,,,,3,,,,,,,,,,,,,
time_out,37,205553,0.0-14.0-0.0,"""event"",""trial"",""time""
""blur"",""1"",""888""
""focus"",""1"",""1871""
""fullscreenenter"",""1"",""4828""
""blur"",""12"",""79121""
""focus"",""12"",""89205""
""blur"",""14"",""112334""
""focus"",""15"",""120160""
","""event"",""trial"",""time""
""blur"",""1"",""888""
""blur"",""12"",""79121""
""blur"",""14"",""112334""
","""event"",""trial"",""time""
""focus"",""1"",""1871""
""focus"",""12"",""89205""
""focus"",""15"",""120160""
","""event"",""trial"",""time""
""fullscreenenter"",""1"",""4828""
","
",,null,run_exp/static/images/task_images/time_out.jpg,null,,,,,,,,,,,,,,,,,,,,,,,,
decision_prac,38,205564,0.0-14.0-1.0,"""event"",""trial"",""time""
""blur"",""1"",""888""
""focus"",""1"",""1871""
""fullscreenenter"",""1"",""4828""
""blur"",""12"",""79121""
""focus"",""12"",""89205""
""blur"",""14"",""112334""
""focus"",""15"",""120160""
","""event"",""trial"",""time""
""blur"",""1"",""888""
""blur"",""12"",""79121""
""blur"",""14"",""112334""
","""event"",""trial"",""time""
""focus"",""1"",""1871""
""focus"",""12"",""89205""
""focus"",""15"",""120160""
","""event"",""trial"",""time""
""fullscreenenter"",""1"",""4828""
","
",,9.3,run_exp/static/images/task_images/land.jpg,76,,,,,,,,,,,4,,,,,,,,,,,,,
travel,39,215556,0.0-15.0-0.0,"""event"",""trial"",""time""
""blur"",""1"",""888""
""focus"",""1"",""1871""
""fullscreenenter"",""1"",""4828""
""blur"",""12"",""79121""
""focus"",""12"",""89205""
""blur"",""14"",""112334""
""focus"",""15"",""120160""
","""event"",""trial"",""time""
""blur"",""1"",""888""
""blur"",""12"",""79121""
""blur"",""14"",""112334""
","""event"",""trial"",""time""
""focus"",""1"",""1871""
""focus"",""12"",""89205""
""focus"",""15"",""120160""
","""event"",""trial"",""time""
""fullscreenenter"",""1"",""4828""
","
",,,,,,,,,,,,"[{""stimulus"":""run_exp/static/images/task_images/rocket-01.jpg"",""time"":0.09999999997671694},{""stimulus"":""run_exp/static/images/task_images/rocket-02.jpg"",""time"":1111.4000000000233},{""stimulus"":""run_exp/static/images/task_images/rocket-03.jpg"",""time"":2221.5},{""stimulus"":""run_exp/static/images/task_images/rocket-04.jpg"",""time"":3336.0999999999767},{""stimulus"":""run_exp/static/images/task_images/rocket-05.jpg"",""time"":4444.5},{""stimulus"":""run_exp/static/images/task_images/rocket-06.jpg"",""time"":5554.900000000023},{""stimulus"":""run_exp/static/images/task_images/rocket-07.jpg"",""time"":6662.699999999953},{""stimulus"":""run_exp/static/images/task_images/rocket-08.jpg"",""time"":7775.900000000023},{""stimulus"":""run_exp/static/images/task_images/rocket-09.jpg"",""time"":8884.79999999993}]",[],0,,,,,,,,,,,,,,
alien_welcome_prac,40,220563,0.0-15.0-1.0,"""event"",""trial"",""time""
""blur"",""1"",""888""
""focus"",""1"",""1871""
""fullscreenenter"",""1"",""4828""
""blur"",""12"",""79121""
""focus"",""12"",""89205""
""blur"",""14"",""112334""
""focus"",""15"",""120160""
","""event"",""trial"",""time""
""blur"",""1"",""888""
""blur"",""12"",""79121""
""blur"",""14"",""112334""
","""event"",""trial"",""time""
""focus"",""1"",""1871""
""focus"",""12"",""89205""
""focus"",""15"",""120160""
","""event"",""trial"",""time""
""fullscreenenter"",""1"",""4828""
","
",,null,run_exp/static/images/task_images/aliens/practice_aliens/planet/alien_planet-4.jpg,null,,,,,,,,,,,,,,,,,,,,,,,,
land_prac,41,221066,0.0-15.0-2.0,"""event"",""trial"",""time""
""blur"",""1"",""888""
""focus"",""1"",""1871""
""fullscreenenter"",""1"",""4828""
""blur"",""12"",""79121""
""focus"",""12"",""89205""
""blur"",""14"",""112334""
""focus"",""15"",""120160""
","""event"",""trial"",""time""
""blur"",""1"",""888""
""blur"",""12"",""79121""
""blur"",""14"",""112334""
","""event"",""trial"",""time""
""focus"",""1"",""1871""
""focus"",""12"",""89205""
""focus"",""15"",""120160""
","""event"",""trial"",""time""
""fullscreenenter"",""1"",""4828""
","
",,null,run_exp/static/images/task_images/land.jpg,null,,,,,,,107,,,0,,,,,,,,,,,,,,
dig_prac,42,223070,0.0-15.0-3.0,"""event"",""trial"",""time""
""blur"",""1"",""888""
""focus"",""1"",""1871""
""fullscreenenter"",""1"",""4828""
""blur"",""12"",""79121""
""focus"",""12"",""89205""
""blur"",""14"",""112334""
""focus"",""15"",""120160""
","""event"",""trial"",""time""
""blur"",""1"",""888""
""blur"",""12"",""79121""
""blur"",""14"",""112334""
","""event"",""trial"",""time""
""focus"",""1"",""1871""
""focus"",""12"",""89205""
""focus"",""15"",""120160""
","""event"",""trial"",""time""
""fullscreenenter"",""1"",""4828""
","
",,,,,,,,,,,,"[{""stimulus"":""run_exp/static/images/task_images/dig.jpg"",""time"":0.2000000000698492},{""stimulus"":""run_exp/static/images/task_images/land.jpg"",""time"":672.3000000000466},{""stimulus"":""run_exp/static/images/task_images/dig.jpg"",""time"":1336.2000000000698}]",[],,,,,,,,,,,,,,,
harvest_prac,43,224074,0.0-15.0-4.0,"""event"",""trial"",""time""
""blur"",""1"",""888""
""focus"",""1"",""1871""
""fullscreenenter"",""1"",""4828""
""blur"",""12"",""79121""
""focus"",""12"",""89205""
""blur"",""14"",""112334""
""focus"",""15"",""120160""
","""event"",""trial"",""time""
""blur"",""1"",""888""
""blur"",""12"",""79121""
""blur"",""14"",""112334""
","""event"",""trial"",""time""
""focus"",""1"",""1871""
""focus"",""12"",""89205""
""focus"",""15"",""120160""
","""event"",""trial"",""time""
""fullscreenenter"",""1"",""4828""
","
",,null,run_exp/static/images/task_images/barrel_text.jpg,null,,,,,,,,,,,,,,,,,,,,,,,,
decision_prac,44,224173,0.0-15.0-5.0,"""event"",""trial"",""time""
""blur"",""1"",""888""
""focus"",""1"",""1871""
""fullscreenenter"",""1"",""4828""
""blur"",""12"",""79121""
""focus"",""12"",""89205""
""blur"",""14"",""112334""
""focus"",""15"",""120160""
","""event"",""trial"",""time""
""blur"",""1"",""888""
""blur"",""12"",""79121""
""blur"",""14"",""112334""
","""event"",""trial"",""time""
""focus"",""1"",""1871""
""focus"",""12"",""89205""
""focus"",""15"",""120160""
","""event"",""trial"",""time""
""fullscreenenter"",""1"",""4828""
","
",,97.7,run_exp/static/images/task_images/land.jpg,65,,,,,,,,,,,,1,,,,,,,,,,,,
quiz_instruc,45,225648,0.0-16.0-0.0,"""event"",""trial"",""time""
""blur"",""1"",""888""
""focus"",""1"",""1871""
""fullscreenenter"",""1"",""4828""
""blur"",""12"",""79121""
""focus"",""12"",""89205""
""blur"",""14"",""112334""
""focus"",""15"",""120160""
""blur"",""46"",""267731""
","""event"",""trial"",""time""
""blur"",""1"",""888""
""blur"",""12"",""79121""
""blur"",""14"",""112334""
""blur"",""46"",""267731""
","""event"",""trial"",""time""
""focus"",""1"",""1871""
""focus"",""12"",""89205""
""focus"",""15"",""120160""
","""event"",""trial"",""time""
""fullscreenenter"",""1"",""4828""
","
",,1473.7,run_exp/static/audio/clip_10_quiz.m4a,,,,,,,0,,,,,,,,,,,,,,,,,,
instruc_repeat,46,268411,0.0-16.0-1.0,"""event"",""trial"",""time""
""blur"",""1"",""888""
""focus"",""1"",""1871""
""fullscreenenter"",""1"",""4828""
""blur"",""12"",""79121""
""focus"",""12"",""89205""
""blur"",""14"",""112334""
""focus"",""15"",""120160""
""blur"",""46"",""267731""
""focus"",""47"",""270442""
","""event"",""trial"",""time""
""blur"",""1"",""888""
""blur"",""12"",""79121""
""blur"",""14"",""112334""
""blur"",""46"",""267731""
","""event"",""trial"",""time""
""focus"",""1"",""1871""
""focus"",""12"",""89205""
""focus"",""15"",""120160""
""focus"",""47"",""270442""
","""event"",""trial"",""time""
""fullscreenenter"",""1"",""4828""
","
",,null,"<p> Are you ready to play a practice game? </p> <p>In this practice game, you'll be digging up barrels of gems. But, in the real game, you'll be digging up the gems themselves. </p>",null,"<p>In this game, your goal is to collect as many gems as you can. That’s how you will win bonus money. </p> <p>The entire game will last 20 minutes no matter how many gems you collect or how many planets you visit. </p><p>To stay on a planet and dig again, press the letter A on your keyboard. To leave for a new planet, press the letter L.</p><p>The more you dig on a planet, the fewer gems you’ll get with each dig which is why you might consider leaving for a new planet. </p><p>When you arrive at a new planet, you’ll be greeted by an alien. What the alien looks like does not tell you anything about how much treasure is on the planet. </p>",,,,,,,,,,,,,,,,,,,,,,,
instruc_repeat_continue,47,271393,0.0-16.0-2.0,"""event"",""trial"",""time""
""blur"",""1"",""888""
""focus"",""1"",""1871""
""fullscreenenter"",""1"",""4828""
""blur"",""12"",""79121""
""focus"",""12"",""89205""
""blur"",""14"",""112334""
""focus"",""15"",""120160""
""blur"",""46"",""267731""
""focus"",""47"",""270442""
","""event"",""trial"",""time""
""blur"",""1"",""888""
""blur"",""12"",""79121""
""blur"",""14"",""112334""
""blur"",""46"",""267731""
","""event"",""trial"",""time""
""focus"",""1"",""1871""
""focus"",""12"",""89205""
""focus"",""15"",""120160""
""focus"",""47"",""270442""
","""event"",""trial"",""time""
""fullscreenenter"",""1"",""4828""
","
",,2981.2,"<p> Are you ready to play a practice game? </p> <p>In this practice game, you'll be digging up barrels of gems. But, in the real game, you'll be digging up the gems themselves. </p>",,,,,,,0,,,,,,,,,,,,,,,,,,
quiz_q_1_ask,48,275481,0.0-16.0-3.0,"""event"",""trial"",""time""
""blur"",""1"",""888""
""focus"",""1"",""1871""
""fullscreenenter"",""1"",""4828""
""blur"",""12"",""79121""
""focus"",""12"",""89205""
""blur"",""14"",""112334""
""focus"",""15"",""120160""
""blur"",""46"",""267731""
""focus"",""47"",""270442""
","""event"",""trial"",""time""
""blur"",""1"",""888""
""blur"",""12"",""79121""
""blur"",""14"",""112334""
""blur"",""46"",""267731""
","""event"",""trial"",""time""
""focus"",""1"",""1871""
""focus"",""12"",""89205""
""focus"",""15"",""120160""
""focus"",""47"",""270442""
","""event"",""trial"",""time""
""fullscreenenter"",""1"",""4828""
","
",,4087.7,run_exp/static/audio/clip_11_q1_ask.m4a,,,,,,,2,,,,,,,,,,,,,,,,,,
quiz_q_1_fb_correct,49,279323,0.0-17.0-0.0,"""event"",""trial"",""time""
""blur"",""1"",""888""
""focus"",""1"",""1871""
""fullscreenenter"",""1"",""4828""
""blur"",""12"",""79121""
""focus"",""12"",""89205""
""blur"",""14"",""112334""
""focus"",""15"",""120160""
""blur"",""46"",""267731""
""focus"",""47"",""270442""
","""event"",""trial"",""time""
""blur"",""1"",""888""
""blur"",""12"",""79121""
""blur"",""14"",""112334""
""blur"",""46"",""267731""
","""event"",""trial"",""time""
""focus"",""1"",""1871""
""focus"",""12"",""89205""
""focus"",""15"",""120160""
""focus"",""47"",""270442""
","""event"",""trial"",""time""
""fullscreenenter"",""1"",""4828""
","
",,null,run_exp/static/audio/clip_12_q1_correct.m4a,null,<p>That’s correct. You win extra money by collecting more gems.</p>,,,,,,,,,,,,,,,,,,,,,,,
quiz_q_2_ask,50,282822,0.0-17.0-1.0,"""event"",""trial"",""time""
""blur"",""1"",""888""
""focus"",""1"",""1871""
""fullscreenenter"",""1"",""4828""
""blur"",""12"",""79121""
""focus"",""12"",""89205""
""blur"",""14"",""112334""
""focus"",""15"",""120160""
""blur"",""46"",""267731""
""focus"",""47"",""270442""
","""event"",""trial"",""time""
""blur"",""1"",""888""
""blur"",""12"",""79121""
""blur"",""14"",""112334""
""blur"",""46"",""267731""
","""event"",""trial"",""time""
""focus"",""1"",""1871""
""focus"",""12"",""89205""
""focus"",""15"",""120160""
""focus"",""47"",""270442""
","""event"",""trial"",""time""
""fullscreenenter"",""1"",""4828""
","
",,3497.2,run_exp/static/audio/clip_14_q2_ask.m4a,,,,,,,1,,,,,,,,,,,,,,,,,,
quiz_q_2_fb_correct,51,286801,0.0-18.0-0.0,"""event"",""trial"",""time""
""blur"",""1"",""888""
""focus"",""1"",""1871""
""fullscreenenter"",""1"",""4828""
""blur"",""12"",""79121""
""focus"",""12"",""89205""
""blur"",""14"",""112334""
""focus"",""15"",""120160""
""blur"",""46"",""267731""
""focus"",""47"",""270442""
","""event"",""trial"",""time""
""blur"",""1"",""888""
""blur"",""12"",""79121""
""blur"",""14"",""112334""
""blur"",""46"",""267731""
","""event"",""trial"",""time""
""focus"",""1"",""1871""
""focus"",""12"",""89205""
""focus"",""15"",""120160""
""focus"",""47"",""270442""
","""event"",""trial"",""time""
""fullscreenenter"",""1"",""4828""
","
",,null,run_exp/static/audio/clip_15_q2_correct.m4a,null,<p>That’s correct. The experiment is 20 minutes no matter what.</p>,,,,,,,,,,,,,,,,,,,,,,,
quiz_q_3_ask,52,289662,0.0-18.0-1.0,"""event"",""trial"",""time""
""blur"",""1"",""888""
""focus"",""1"",""1871""
""fullscreenenter"",""1"",""4828""
""blur"",""12"",""79121""
""focus"",""12"",""89205""
""blur"",""14"",""112334""
""focus"",""15"",""120160""
""blur"",""46"",""267731""
""focus"",""47"",""270442""
","""event"",""trial"",""time""
""blur"",""1"",""888""
""blur"",""12"",""79121""
""blur"",""14"",""112334""
""blur"",""46"",""267731""
","""event"",""trial"",""time""
""focus"",""1"",""1871""
""focus"",""12"",""89205""
""focus"",""15"",""120160""
""focus"",""47"",""270442""
","""event"",""trial"",""time""
""fullscreenenter"",""1"",""4828""
","
",,2859.6,run_exp/static/audio/clip_17_q3_ask.m4a,,,,,,,1,,,,,,,,,,,,,,,,,,
quiz_q_3_fb_correct,53,293627,0.0-19.0-0.0,"""event"",""trial"",""time""
""blur"",""1"",""888""
""focus"",""1"",""1871""
""fullscreenenter"",""1"",""4828""
""blur"",""12"",""79121""
""focus"",""12"",""89205""
""blur"",""14"",""112334""
""focus"",""15"",""120160""
""blur"",""46"",""267731""
""focus"",""47"",""270442""
","""event"",""trial"",""time""
""blur"",""1"",""888""
""blur"",""12"",""79121""
""blur"",""14"",""112334""
""blur"",""46"",""267731""
","""event"",""trial"",""time""
""focus"",""1"",""1871""
""focus"",""12"",""89205""
""focus"",""15"",""120160""
""focus"",""47"",""270442""
","""event"",""trial"",""time""
""fullscreenenter"",""1"",""4828""
","
",,null,run_exp/static/audio/clip_18_q3_correct.m4a,null,<p> That’s correct. You press the letter L to travel to a new planet.</p>,,,,,,,,,,,,,,,,,,,,,,,
quiz_q_4_ask,54,295501,0.0-19.0-1.0,"""event"",""trial"",""time""
""blur"",""1"",""888""
""focus"",""1"",""1871""
""fullscreenenter"",""1"",""4828""
""blur"",""12"",""79121""
""focus"",""12"",""89205""
""blur"",""14"",""112334""
""focus"",""15"",""120160""
""blur"",""46"",""267731""
""focus"",""47"",""270442""
","""event"",""trial"",""time""
""blur"",""1"",""888""
""blur"",""12"",""79121""
""blur"",""14"",""112334""
""blur"",""46"",""267731""
","""event"",""trial"",""time""
""focus"",""1"",""1871""
""focus"",""12"",""89205""
""focus"",""15"",""120160""
""focus"",""47"",""270442""
","""event"",""trial"",""time""
""fullscreenenter"",""1"",""4828""
","
",,1872.6,run_exp/static/audio/clip_20_q4_ask.m4a,,,,,,,0,,,,,,,,,,,,,,,,,,
quiz_q_4_fb_correct,55,300825,0.0-20.0-0.0,"""event"",""trial"",""time""
""blur"",""1"",""888""
""focus"",""1"",""1871""
""fullscreenenter"",""1"",""4828""
""blur"",""12"",""79121""
""focus"",""12"",""89205""
""blur"",""14"",""112334""
""focus"",""15"",""120160""
""blur"",""46"",""267731""
""focus"",""47"",""270442""
","""event"",""trial"",""time""
""blur"",""1"",""888""
""blur"",""12"",""79121""
""blur"",""14"",""112334""
""blur"",""46"",""267731""
","""event"",""trial"",""time""
""focus"",""1"",""1871""
""focus"",""12"",""89205""
""focus"",""15"",""120160""
""focus"",""47"",""270442""
","""event"",""trial"",""time""
""fullscreenenter"",""1"",""4828""
","
",,null,run_exp/static/audio/clip_21_q4_correct.m4a,null,<p> That’s correct. The more you dig on a planet the fewer gems you’ll get with each dig. </p>,,,,,,,,,,,,,,,,,,,,,,,
quiz_q_5_ask,56,305494,0.0-20.0-1.0,"""event"",""trial"",""time""
""blur"",""1"",""888""
""focus"",""1"",""1871""
""fullscreenenter"",""1"",""4828""
""blur"",""12"",""79121""
""focus"",""12"",""89205""
""blur"",""14"",""112334""
""focus"",""15"",""120160""
""blur"",""46"",""267731""
""focus"",""47"",""270442""
","""event"",""trial"",""time""
""blur"",""1"",""888""
""blur"",""12"",""79121""
""blur"",""14"",""112334""
""blur"",""46"",""267731""
","""event"",""trial"",""time""
""focus"",""1"",""1871""
""focus"",""12"",""89205""
""focus"",""15"",""120160""
""focus"",""47"",""270442""
","""event"",""trial"",""time""
""fullscreenenter"",""1"",""4828""
","
",,4667.9,run_exp/static/audio/clip_23_q5_ask.m4a,,,,,,,1,,,,,,,,,,,,,,,,,,
quiz_q_5_fb_correct,57,310485,0.0-21.0-0.0,"""event"",""trial"",""time""
""blur"",""1"",""888""
""focus"",""1"",""1871""
""fullscreenenter"",""1"",""4828""
""blur"",""12"",""79121""
""focus"",""12"",""89205""
""blur"",""14"",""112334""
""focus"",""15"",""120160""
""blur"",""46"",""267731""
""focus"",""47"",""270442""
","""event"",""trial"",""time""
""blur"",""1"",""888""
""blur"",""12"",""79121""
""blur"",""14"",""112334""
""blur"",""46"",""267731""
","""event"",""trial"",""time""
""focus"",""1"",""1871""
""focus"",""12"",""89205""
""focus"",""15"",""120160""
""focus"",""47"",""270442""
","""event"",""trial"",""time""
""fullscreenenter"",""1"",""4828""
","
",,null,run_exp/static/audio/clip_24_q5_correct.m4a,null,<p> That’s correct. The alien tells you nothing about how much treasure is on the planet.</p>,,,,,,,,,,,,,,,,,,,,,,,
quiz_correct,58,313944,0.0-22.0-0.0,"""event"",""trial"",""time""
""blur"",""1"",""888""
""focus"",""1"",""1871""
""fullscreenenter"",""1"",""4828""
""blur"",""12"",""79121""
""focus"",""12"",""89205""
""blur"",""14"",""112334""
""focus"",""15"",""120160""
""blur"",""46"",""267731""
""focus"",""47"",""270442""
","""event"",""trial"",""time""
""blur"",""1"",""888""
""blur"",""12"",""79121""
""blur"",""14"",""112334""
""blur"",""46"",""267731""
","""event"",""trial"",""time""
""focus"",""1"",""1871""
""focus"",""12"",""89205""
""focus"",""15"",""120160""
""focus"",""47"",""270442""
","""event"",""trial"",""time""
""fullscreenenter"",""1"",""4828""
","
",,null,run_exp/static/audio/clip_26_correct_quiz.m4a,null,,,,,,,,,,,,,,,,,,,,,,,,
quiz_correct_continue,59,314536,0.0-22.0-1.0,"""event"",""trial"",""time""
""blur"",""1"",""888""
""focus"",""1"",""1871""
""fullscreenenter"",""1"",""4828""
""blur"",""12"",""79121""
""focus"",""12"",""89205""
""blur"",""14"",""112334""
""focus"",""15"",""120160""
""blur"",""46"",""267731""
""focus"",""47"",""270442""
""blur"",""60"",""317584""
""focus"",""60"",""318311""
","""event"",""trial"",""time""
""blur"",""1"",""888""
""blur"",""12"",""79121""
""blur"",""14"",""112334""
""blur"",""46"",""267731""
""blur"",""60"",""317584""
","""event"",""trial"",""time""
""focus"",""1"",""1871""
""focus"",""12"",""89205""
""focus"",""15"",""120160""
""focus"",""47"",""270442""
""focus"",""60"",""318311""
","""event"",""trial"",""time""
""fullscreenenter"",""1"",""4828""
","
",,590.5,<p>Good job! You're now ready to move on to the real game!</p>,,,,,,,0,,,,,,,,,,,,,,,,,,
audio-keyboard-response,60,324648,0.0-22.0-2.0,"""event"",""trial"",""time""
""blur"",""1"",""888""
""focus"",""1"",""1871""
""fullscreenenter"",""1"",""4828""
""blur"",""12"",""79121""
""focus"",""12"",""89205""
""blur"",""14"",""112334""
""focus"",""15"",""120160""
""blur"",""46"",""267731""
""focus"",""47"",""270442""
""blur"",""60"",""317584""
""focus"",""60"",""318311""
","""event"",""trial"",""time""
""blur"",""1"",""888""
""blur"",""12"",""79121""
""blur"",""14"",""112334""
""blur"",""46"",""267731""
""blur"",""60"",""317584""
","""event"",""trial"",""time""
""focus"",""1"",""1871""
""focus"",""12"",""89205""
""focus"",""15"",""120160""
""focus"",""47"",""270442""
""focus"",""60"",""318311""
","""event"",""trial"",""time""
""fullscreenenter"",""1"",""4828""
","
",,null,run_exp/static/audio/clip_28_real_game.m4a,null,,,,,,,,,,,,,,,,,,,,,,,,
instruc_begin_exp_contine,61,329667,0.0-22.0-3.0,"""event"",""trial"",""time""
""blur"",""1"",""888""
""focus"",""1"",""1871""
""fullscreenenter"",""1"",""4828""
""blur"",""12"",""79121""
""focus"",""12"",""89205""
""blur"",""14"",""112334""
""focus"",""15"",""120160""
""blur"",""46"",""267731""
""focus"",""47"",""270442""
""blur"",""60"",""317584""
""focus"",""60"",""318311""
","""event"",""trial"",""time""
""blur"",""1"",""888""
""blur"",""12"",""79121""
""blur"",""14"",""112334""
""blur"",""46"",""267731""
""blur"",""60"",""317584""
","""event"",""trial"",""time""
""focus"",""1"",""1871""
""focus"",""12"",""89205""
""focus"",""15"",""120160""
""focus"",""47"",""270442""
""focus"",""60"",""318311""
","""event"",""trial"",""time""
""fullscreenenter"",""1"",""4828""
","
",,5017.1,"<p>Now that you know how  to dig for space treasure and travel to new planets,you can start exploring! </p><p>Do you want to go over the instructions again or get started with the real game?</p>",,,,,,,1,,,,,,1,,,,,,,,,,,,
alien_welcome,62,334670,0.0-23.0-0.0,"""event"",""trial"",""time""
""blur"",""1"",""888""
""focus"",""1"",""1871""
""fullscreenenter"",""1"",""4828""
""blur"",""12"",""79121""
""focus"",""12"",""89205""
""blur"",""14"",""112334""
""focus"",""15"",""120160""
""blur"",""46"",""267731""
""focus"",""47"",""270442""
""blur"",""60"",""317584""
""focus"",""60"",""318311""
","""event"",""trial"",""time""
""blur"",""1"",""888""
""blur"",""12"",""79121""
""blur"",""14"",""112334""
""blur"",""46"",""267731""
""blur"",""60"",""317584""
","""event"",""trial"",""time""
""focus"",""1"",""1871""
""focus"",""12"",""89205""
""focus"",""15"",""120160""
""focus"",""47"",""270442""
""focus"",""60"",""318311""
","""event"",""trial"",""time""
""fullscreenenter"",""1"",""4828""
","
",,null,run_exp/static/images/task_images/aliens/old_aliens/planet/alien_planet-22.jpg,null,,,,,,,,,,,,,22,"22,43,38,4,5,73,16,53,39,23,65,12,75,41,48,45,61,15,28,50,69,57,27,30,8,20,42,36,13,35,59,24,72,47,3,31,34,67,17,64,70,21,55",,,,,,,,,,
land,63,335176,0.0-23.0-1.0,"""event"",""trial"",""time""
""blur"",""1"",""888""
""focus"",""1"",""1871""
""fullscreenenter"",""1"",""4828""
""blur"",""12"",""79121""
""focus"",""12"",""89205""
""blur"",""14"",""112334""
""focus"",""15"",""120160""
""blur"",""46"",""267731""
""focus"",""47"",""270442""
""blur"",""60"",""317584""
""focus"",""60"",""318311""
","""event"",""trial"",""time""
""blur"",""1"",""888""
""blur"",""12"",""79121""
""blur"",""14"",""112334""
""blur"",""46"",""267731""
""blur"",""60"",""317584""
","""event"",""trial"",""time""
""focus"",""1"",""1871""
""focus"",""12"",""89205""
""focus"",""15"",""120160""
""focus"",""47"",""270442""
""focus"",""60"",""318311""
","""event"",""trial"",""time""
""fullscreenenter"",""1"",""4828""
","
",,null,run_exp/static/images/task_images/land.jpg,null,,,,,,,99,,,1,,,,,,,,,,,,,,
dig,64,337182,0.0-23.0-2.0,"""event"",""trial"",""time""
""blur"",""1"",""888""
""focus"",""1"",""1871""
""fullscreenenter"",""1"",""4828""
""blur"",""12"",""79121""
""focus"",""12"",""89205""
""blur"",""14"",""112334""
""focus"",""15"",""120160""
""blur"",""46"",""267731""
""focus"",""47"",""270442""
""blur"",""60"",""317584""
""focus"",""60"",""318311""
","""event"",""trial"",""time""
""blur"",""1"",""888""
""blur"",""12"",""79121""
""blur"",""14"",""112334""
""blur"",""46"",""267731""
""blur"",""60"",""317584""
","""event"",""trial"",""time""
""focus"",""1"",""1871""
""focus"",""12"",""89205""
""focus"",""15"",""120160""
""focus"",""47"",""270442""
""focus"",""60"",""318311""
","""event"",""trial"",""time""
""fullscreenenter"",""1"",""4828""
","
",,,,,,,,,,,,"[{""stimulus"":""run_exp/static/images/task_images/dig.jpg"",""time"":0.20000000018626451},{""stimulus"":""run_exp/static/images/task_images/land.jpg"",""time"":672.7000000001863},{""stimulus"":""run_exp/static/images/task_images/dig.jpg"",""time"":1335.6000000000931}]",[],1,,,,,,,,,,,,,,
harvest,65,338187,0.0-23.0-3.0,"""event"",""trial"",""time""
""blur"",""1"",""888""
""focus"",""1"",""1871""
""fullscreenenter"",""1"",""4828""
""blur"",""12"",""79121""
""focus"",""12"",""89205""
""blur"",""14"",""112334""
""focus"",""15"",""120160""
""blur"",""46"",""267731""
""focus"",""47"",""270442""
""blur"",""60"",""317584""
""focus"",""60"",""318311""
","""event"",""trial"",""time""
""blur"",""1"",""888""
""blur"",""12"",""79121""
""blur"",""14"",""112334""
""blur"",""46"",""267731""
""blur"",""60"",""317584""
","""event"",""trial"",""time""
""focus"",""1"",""1871""
""focus"",""12"",""89205""
""focus"",""15"",""120160""
""focus"",""47"",""270442""
""focus"",""60"",""318311""
","""event"",""trial"",""time""
""fullscreenenter"",""1"",""4828""
","
",,null,run_exp/static/images/task_images/gems/99.jpg,null,,,,,,,18,,,1,,,,,99,0.178211242,0.181818182,,,,,,,
decision,66,340360,0.0-23.0-4.0,"""event"",""trial"",""time""
""blur"",""1"",""888""
""focus"",""1"",""1871""
""fullscreenenter"",""1"",""4828""
""blur"",""12"",""79121""
""focus"",""12"",""89205""
""blur"",""14"",""112334""
""focus"",""15"",""120160""
""blur"",""46"",""267731""
""focus"",""47"",""270442""
""blur"",""60"",""317584""
""focus"",""60"",""318311""
","""event"",""trial"",""time""
""blur"",""1"",""888""
""blur"",""12"",""79121""
""blur"",""14"",""112334""
""blur"",""46"",""267731""
""blur"",""60"",""317584""
","""event"",""trial"",""time""
""focus"",""1"",""1871""
""focus"",""12"",""89205""
""focus"",""15"",""120160""
""focus"",""47"",""270442""
""focus"",""60"",""318311""
","""event"",""trial"",""time""
""fullscreenenter"",""1"",""4828""
","
",,2171.1,run_exp/static/images/task_images/land.jpg,65,,,,,,,18,,,1,,,,,,,,10692,1,0,FALSE,,,
dig,67,341191,0.0-24.0-0.0,"""event"",""trial"",""time""
""blur"",""1"",""888""
""focus"",""1"",""1871""
""fullscreenenter"",""1"",""4828""
""blur"",""12"",""79121""
""focus"",""12"",""89205""
""blur"",""14"",""112334""
""focus"",""15"",""120160""
""blur"",""46"",""267731""
""focus"",""47"",""270442""
""blur"",""60"",""317584""
""focus"",""60"",""318311""
","""event"",""trial"",""time""
""blur"",""1"",""888""
""blur"",""12"",""79121""
""blur"",""14"",""112334""
""blur"",""46"",""267731""
""blur"",""60"",""317584""
","""event"",""trial"",""time""
""focus"",""1"",""1871""
""focus"",""12"",""89205""
""focus"",""15"",""120160""
""focus"",""47"",""270442""
""focus"",""60"",""318311""
","""event"",""trial"",""time""
""fullscreenenter"",""1"",""4828""
","
",,,,,,,,,,,,"[{""stimulus"":""run_exp/static/images/task_images/dig.jpg"",""time"":0.09999999986030161},{""stimulus"":""run_exp/static/images/task_images/land.jpg"",""time"":278.5999999998603},{""stimulus"":""run_exp/static/images/task_images/dig.jpg"",""time"":554.7999999998137}]",[],1,,,,,,,,,,,,,,
harvest,68,342198,0.0-24.0-1.0,"""event"",""trial"",""time""
""blur"",""1"",""888""
""focus"",""1"",""1871""
""fullscreenenter"",""1"",""4828""
""blur"",""12"",""79121""
""focus"",""12"",""89205""
""blur"",""14"",""112334""
""focus"",""15"",""120160""
""blur"",""46"",""267731""
""focus"",""47"",""270442""
""blur"",""60"",""317584""
""focus"",""60"",""318311""
","""event"",""trial"",""time""
""blur"",""1"",""888""
""blur"",""12"",""79121""
""blur"",""14"",""112334""
""blur"",""46"",""267731""
""blur"",""60"",""317584""
","""event"",""trial"",""time""
""focus"",""1"",""1871""
""focus"",""12"",""89205""
""focus"",""15"",""120160""
""focus"",""47"",""270442""
""focus"",""60"",""318311""
","""event"",""trial"",""time""
""fullscreenenter"",""1"",""4828""
","
",,null,run_exp/static/images/task_images/gems/18.jpg,null,,,,,,,4,,,1,,,,,18,0.249301487,0.222222222,,,,,,,
decision,69,342373,0.0-24.0-2.0,"""event"",""trial"",""time""
""blur"",""1"",""888""
""focus"",""1"",""1871""
""fullscreenenter"",""1"",""4828""
""blur"",""12"",""79121""
""focus"",""12"",""89205""
""blur"",""14"",""112334""
""focus"",""15"",""120160""
""blur"",""46"",""267731""
""focus"",""47"",""270442""
""blur"",""60"",""317584""
""focus"",""60"",""318311""
","""event"",""trial"",""time""
""blur"",""1"",""888""
""blur"",""12"",""79121""
""blur"",""14"",""112334""
""blur"",""46"",""267731""
""blur"",""60"",""317584""
","""event"",""trial"",""time""
""focus"",""1"",""1871""
""focus"",""12"",""89205""
""focus"",""15"",""120160""
""focus"",""47"",""270442""
""focus"",""60"",""318311""
","""event"",""trial"",""time""
""fullscreenenter"",""1"",""4828""
","
",,173.8,run_exp/static/images/task_images/land.jpg,65,,,,,,,4,,,1,,,,,,,,12705,1,1,FALSE,,,
dig,70,345202,0.0-25.0-0.0,"""event"",""trial"",""time""
""blur"",""1"",""888""
""focus"",""1"",""1871""
""fullscreenenter"",""1"",""4828""
""blur"",""12"",""79121""
""focus"",""12"",""89205""
""blur"",""14"",""112334""
""focus"",""15"",""120160""
""blur"",""46"",""267731""
""focus"",""47"",""270442""
""blur"",""60"",""317584""
""focus"",""60"",""318311""
","""event"",""trial"",""time""
""blur"",""1"",""888""
""blur"",""12"",""79121""
""blur"",""14"",""112334""
""blur"",""46"",""267731""
""blur"",""60"",""317584""
","""event"",""trial"",""time""
""focus"",""1"",""1871""
""focus"",""12"",""89205""
""focus"",""15"",""120160""
""focus"",""47"",""270442""
""focus"",""60"",""318311""
","""event"",""trial"",""time""
""fullscreenenter"",""1"",""4828""
","
",,,,,,,,,,,,"[{""stimulus"":""run_exp/static/images/task_images/dig.jpg"",""time"":0.10000000009313226},{""stimulus"":""run_exp/static/images/task_images/land.jpg"",""time"":947},{""stimulus"":""run_exp/static/images/task_images/dig.jpg"",""time"":1886.5}]",[],1,,,,,,,,,,,,,,
harvest,71,346208,0.0-25.0-1.0,"""event"",""trial"",""time""
""blur"",""1"",""888""
""focus"",""1"",""1871""
""fullscreenenter"",""1"",""4828""
""blur"",""12"",""79121""
""focus"",""12"",""89205""
""blur"",""14"",""112334""
""focus"",""15"",""120160""
""blur"",""46"",""267731""
""focus"",""47"",""270442""
""blur"",""60"",""317584""
""focus"",""60"",""318311""
","""event"",""trial"",""time""
""blur"",""1"",""888""
""blur"",""12"",""79121""
""blur"",""14"",""112334""
""blur"",""46"",""267731""
""blur"",""60"",""317584""
","""event"",""trial"",""time""
""focus"",""1"",""1871""
""focus"",""12"",""89205""
""focus"",""15"",""120160""
""focus"",""47"",""270442""
""focus"",""60"",""318311""
","""event"",""trial"",""time""
""fullscreenenter"",""1"",""4828""
","
",,null,run_exp/static/images/task_images/gems/4.jpg,null,,,,,,,1,,,1,,,,,4,0.268482104,0.25,,,,,,,
decision,72,346658,0.0-25.0-2.0,"""event"",""trial"",""time""
""blur"",""1"",""888""
""focus"",""1"",""1871""
""fullscreenenter"",""1"",""4828""
""blur"",""12"",""79121""
""focus"",""12"",""89205""
""blur"",""14"",""112334""
""focus"",""15"",""120160""
""blur"",""46"",""267731""
""focus"",""47"",""270442""
""blur"",""60"",""317584""
""focus"",""60"",""318311""
","""event"",""trial"",""time""
""blur"",""1"",""888""
""blur"",""12"",""79121""
""blur"",""14"",""112334""
""blur"",""46"",""267731""
""blur"",""60"",""317584""
","""event"",""trial"",""time""
""focus"",""1"",""1871""
""focus"",""12"",""89205""
""focus"",""15"",""120160""
""focus"",""47"",""270442""
""focus"",""60"",""318311""
","""event"",""trial"",""time""
""fullscreenenter"",""1"",""4828""
","
",,448.2,run_exp/static/images/task_images/land.jpg,76,,,,,,,1,,,1,,,,,,,,16990,1,2,TRUE,,,
travel,73,356211,0.0-26.0-0.0,"""event"",""trial"",""time""
""blur"",""1"",""888""
""focus"",""1"",""1871""
""fullscreenenter"",""1"",""4828""
""blur"",""12"",""79121""
""focus"",""12"",""89205""
""blur"",""14"",""112334""
""focus"",""15"",""120160""
""blur"",""46"",""267731""
""focus"",""47"",""270442""
""blur"",""60"",""317584""
""focus"",""60"",""318311""
","""event"",""trial"",""time""
""blur"",""1"",""888""
""blur"",""12"",""79121""
""blur"",""14"",""112334""
""blur"",""46"",""267731""
""blur"",""60"",""317584""
","""event"",""trial"",""time""
""focus"",""1"",""1871""
""focus"",""12"",""89205""
""focus"",""15"",""120160""
""focus"",""47"",""270442""
""focus"",""60"",""318311""
","""event"",""trial"",""time""
""fullscreenenter"",""1"",""4828""
","
",,,,,,,,,,,,"[{""stimulus"":""run_exp/static/images/task_images/rocket-01.jpg"",""time"":0.09999999986030161},{""stimulus"":""run_exp/static/images/task_images/rocket-02.jpg"",""time"":1064.6999999999534},{""stimulus"":""run_exp/static/images/task_images/rocket-03.jpg"",""time"":2127.6999999999534},{""stimulus"":""run_exp/static/images/task_images/rocket-04.jpg"",""time"":3186.5999999998603},{""stimulus"":""run_exp/static/images/task_images/rocket-05.jpg"",""time"":4245.399999999907},{""stimulus"":""run_exp/static/images/task_images/rocket-06.jpg"",""time"":5310.899999999907},{""stimulus"":""run_exp/static/images/task_images/rocket-07.jpg"",""time"":6370.899999999907},{""stimulus"":""run_exp/static/images/task_images/rocket-08.jpg"",""time"":7430.09999999986},{""stimulus"":""run_exp/static/images/task_images/rocket-09.jpg"",""time"":8489.699999999953}]",[],1,,,,,,,,,,,,,,
alien_welcome,74,361214,0.0-26.0-1.0,"""event"",""trial"",""time""
""blur"",""1"",""888""
""focus"",""1"",""1871""
""fullscreenenter"",""1"",""4828""
""blur"",""12"",""79121""
""focus"",""12"",""89205""
""blur"",""14"",""112334""
""focus"",""15"",""120160""
""blur"",""46"",""267731""
""focus"",""47"",""270442""
""blur"",""60"",""317584""
""focus"",""60"",""318311""
","""event"",""trial"",""time""
""blur"",""1"",""888""
""blur"",""12"",""79121""
""blur"",""14"",""112334""
""blur"",""46"",""267731""
""blur"",""60"",""317584""
","""event"",""trial"",""time""
""focus"",""1"",""1871""
""focus"",""12"",""89205""
""focus"",""15"",""120160""
""focus"",""47"",""270442""
""focus"",""60"",""318311""
","""event"",""trial"",""time""
""fullscreenenter"",""1"",""4828""
","
",,null,run_exp/static/images/task_images/aliens/old_aliens/planet/alien_planet-43.jpg,null,,,,,,,,,,,,,43,"22,43,38,4,5,73,16,53,39,23,65,12,75,41,48,45,61,15,28,50,69,57,27,30,8,20,42,36,13,35,59,24,72,47,3,31,34,67,17,64,70,21,55",,,,,,,,,,
land,75,361719,0.0-26.0-2.0,"""event"",""trial"",""time""
""blur"",""1"",""888""
""focus"",""1"",""1871""
""fullscreenenter"",""1"",""4828""
""blur"",""12"",""79121""
""focus"",""12"",""89205""
""blur"",""14"",""112334""
""focus"",""15"",""120160""
""blur"",""46"",""267731""
""focus"",""47"",""270442""
""blur"",""60"",""317584""
""focus"",""60"",""318311""
","""event"",""trial"",""time""
""blur"",""1"",""888""
""blur"",""12"",""79121""
""blur"",""14"",""112334""
""blur"",""46"",""267731""
""blur"",""60"",""317584""
","""event"",""trial"",""time""
""focus"",""1"",""1871""
""focus"",""12"",""89205""
""focus"",""15"",""120160""
""focus"",""47"",""270442""
""focus"",""60"",""318311""
","""event"",""trial"",""time""
""fullscreenenter"",""1"",""4828""
","
",,null,run_exp/static/images/task_images/land.jpg,null,,,,,,,101,,,2,,,,,,,,,,,,,,
dig,76,363722,0.0-26.0-3.0,"""event"",""trial"",""time""
""blur"",""1"",""888""
""focus"",""1"",""1871""
""fullscreenenter"",""1"",""4828""
""blur"",""12"",""79121""
""focus"",""12"",""89205""
""blur"",""14"",""112334""
""focus"",""15"",""120160""
""blur"",""46"",""267731""
""focus"",""47"",""270442""
""blur"",""60"",""317584""
""focus"",""60"",""318311""
","""event"",""trial"",""time""
""blur"",""1"",""888""
""blur"",""12"",""79121""
""blur"",""14"",""112334""
""blur"",""46"",""267731""
""blur"",""60"",""317584""
","""event"",""trial"",""time""
""focus"",""1"",""1871""
""focus"",""12"",""89205""
""focus"",""15"",""120160""
""focus"",""47"",""270442""
""focus"",""60"",""318311""
","""event"",""trial"",""time""
""fullscreenenter"",""1"",""4828""
","
",,,,,,,,,,,,"[{""stimulus"":""run_exp/static/images/task_images/dig.jpg"",""time"":0.19999999995343387},{""stimulus"":""run_exp/static/images/task_images/land.jpg"",""time"":667.5},{""stimulus"":""run_exp/static/images/task_images/dig.jpg"",""time"":1338.6999999999534}]",[],2,,,,,,,,,,,,,,
harvest,77,364725,0.0-26.0-4.0,"""event"",""trial"",""time""
""blur"",""1"",""888""
""focus"",""1"",""1871""
""fullscreenenter"",""1"",""4828""
""blur"",""12"",""79121""
""focus"",""12"",""89205""
""blur"",""14"",""112334""
""focus"",""15"",""120160""
""blur"",""46"",""267731""
""focus"",""47"",""270442""
""blur"",""60"",""317584""
""focus"",""60"",""318311""
","""event"",""trial"",""time""
""blur"",""1"",""888""
""blur"",""12"",""79121""
""blur"",""14"",""112334""
""blur"",""46"",""267731""
""blur"",""60"",""317584""
","""event"",""trial"",""time""
""focus"",""1"",""1871""
""focus"",""12"",""89205""
""focus"",""15"",""120160""
""focus"",""47"",""270442""
""focus"",""60"",""318311""
","""event"",""trial"",""time""
""fullscreenenter"",""1"",""4828""
","
",,null,run_exp/static/images/task_images/gems/101.jpg,null,,,,,,,28,,,2,,,,,101,0.277771892,0.277227723,,,,,,,
decision,78,365101,0.0-26.0-5.0,"""event"",""trial"",""time""
""blur"",""1"",""888""
""focus"",""1"",""1871""
""fullscreenenter"",""1"",""4828""
""blur"",""12"",""79121""
""focus"",""12"",""89205""
""blur"",""14"",""112334""
""focus"",""15"",""120160""
""blur"",""46"",""267731""
""focus"",""47"",""270442""
""blur"",""60"",""317584""
""focus"",""60"",""318311""
","""event"",""trial"",""time""
""blur"",""1"",""888""
""blur"",""12"",""79121""
""blur"",""14"",""112334""
""blur"",""46"",""267731""
""blur"",""60"",""317584""
","""event"",""trial"",""time""
""focus"",""1"",""1871""
""focus"",""12"",""89205""
""focus"",""15"",""120160""
""focus"",""47"",""270442""
""focus"",""60"",""318311""
","""event"",""trial"",""time""
""fullscreenenter"",""1"",""4828""
","
",,375.5,run_exp/static/images/task_images/land.jpg,65,,,,,,,28,,,2,,,,,,,,35433,1,0,FALSE,,,
dig,79,367731,0.0-27.0-0.0,"""event"",""trial"",""time""
""blur"",""1"",""888""
""focus"",""1"",""1871""
""fullscreenenter"",""1"",""4828""
""blur"",""12"",""79121""
""focus"",""12"",""89205""
""blur"",""14"",""112334""
""focus"",""15"",""120160""
""blur"",""46"",""267731""
""focus"",""47"",""270442""
""blur"",""60"",""317584""
""focus"",""60"",""318311""
","""event"",""trial"",""time""
""blur"",""1"",""888""
""blur"",""12"",""79121""
""blur"",""14"",""112334""
""blur"",""46"",""267731""
""blur"",""60"",""317584""
","""event"",""trial"",""time""
""focus"",""1"",""1871""
""focus"",""12"",""89205""
""focus"",""15"",""120160""
""focus"",""47"",""270442""
""focus"",""60"",""318311""
","""event"",""trial"",""time""
""fullscreenenter"",""1"",""4828""
","
",,,,,,,,,,,,"[{""stimulus"":""run_exp/static/images/task_images/dig.jpg"",""time"":0.10000000009313226},{""stimulus"":""run_exp/static/images/task_images/land.jpg"",""time"":877.1999999999534},{""stimulus"":""run_exp/static/images/task_images/dig.jpg"",""time"":1751.3000000000466}]",[],2,,,,,,,,,,,,,,
harvest,80,368733,0.0-27.0-1.0,"""event"",""trial"",""time""
""blur"",""1"",""888""
""focus"",""1"",""1871""
""fullscreenenter"",""1"",""4828""
""blur"",""12"",""79121""
""focus"",""12"",""89205""
""blur"",""14"",""112334""
""focus"",""15"",""120160""
""blur"",""46"",""267731""
""focus"",""47"",""270442""
""blur"",""60"",""317584""
""focus"",""60"",""318311""
","""event"",""trial"",""time""
""blur"",""1"",""888""
""blur"",""12"",""79121""
""blur"",""14"",""112334""
""blur"",""46"",""267731""
""blur"",""60"",""317584""
","""event"",""trial"",""time""
""focus"",""1"",""1871""
""focus"",""12"",""89205""
""focus"",""15"",""120160""
""focus"",""47"",""270442""
""focus"",""60"",""318311""
","""event"",""trial"",""time""
""fullscreenenter"",""1"",""4828""
","
",,null,run_exp/static/images/task_images/gems/28.jpg,null,,,,,,,5,,,2,,,,,28,0.188654741,0.178571429,,,,,,,
decision,81,368876,0.0-27.0-2.0,"""event"",""trial"",""time""
""blur"",""1"",""888""
""focus"",""1"",""1871""
""fullscreenenter"",""1"",""4828""
""blur"",""12"",""79121""
""focus"",""12"",""89205""
""blur"",""14"",""112334""
""focus"",""15"",""120160""
""blur"",""46"",""267731""
""focus"",""47"",""270442""
""blur"",""60"",""317584""
""focus"",""60"",""318311""
","""event"",""trial"",""time""
""blur"",""1"",""888""
""blur"",""12"",""79121""
""blur"",""14"",""112334""
""blur"",""46"",""267731""
""blur"",""60"",""317584""
","""event"",""trial"",""time""
""focus"",""1"",""1871""
""focus"",""12"",""89205""
""focus"",""15"",""120160""
""focus"",""47"",""270442""
""focus"",""60"",""318311""
","""event"",""trial"",""time""
""fullscreenenter"",""1"",""4828""
","
",,142.9,run_exp/static/images/task_images/land.jpg,65,,,,,,,5,,,2,,,,,,,,39208,1,1,FALSE,,,
dig,82,371739,0.0-28.0-0.0,"""event"",""trial"",""time""
""blur"",""1"",""888""
""focus"",""1"",""1871""
""fullscreenenter"",""1"",""4828""
""blur"",""12"",""79121""
""focus"",""12"",""89205""
""blur"",""14"",""112334""
""focus"",""15"",""120160""
""blur"",""46"",""267731""
""focus"",""47"",""270442""
""blur"",""60"",""317584""
""focus"",""60"",""318311""
","""event"",""trial"",""time""
""blur"",""1"",""888""
""blur"",""12"",""79121""
""blur"",""14"",""112334""
""blur"",""46"",""267731""
""blur"",""60"",""317584""
","""event"",""trial"",""time""
""focus"",""1"",""1871""
""focus"",""12"",""89205""
""focus"",""15"",""120160""
""focus"",""47"",""270442""
""focus"",""60"",""318311""
","""event"",""trial"",""time""
""fullscreenenter"",""1"",""4828""
","
",,,,,,,,,,,,"[{""stimulus"":""run_exp/static/images/task_images/dig.jpg"",""time"":0.09999999986030161},{""stimulus"":""run_exp/static/images/task_images/land.jpg"",""time"":956.5},{""stimulus"":""run_exp/static/images/task_images/dig.jpg"",""time"":1910.7999999998137}]",[],2,,,,,,,,,,,,,,
harvest,83,372740,0.0-28.0-1.0,"""event"",""trial"",""time""
""blur"",""1"",""888""
""focus"",""1"",""1871""
""fullscreenenter"",""1"",""4828""
""blur"",""12"",""79121""
""focus"",""12"",""89205""
""blur"",""14"",""112334""
""focus"",""15"",""120160""
""blur"",""46"",""267731""
""focus"",""47"",""270442""
""blur"",""60"",""317584""
""focus"",""60"",""318311""
","""event"",""trial"",""time""
""blur"",""1"",""888""
""blur"",""12"",""79121""
""blur"",""14"",""112334""
""blur"",""46"",""267731""
""blur"",""60"",""317584""
","""event"",""trial"",""time""
""focus"",""1"",""1871""
""focus"",""12"",""89205""
""focus"",""15"",""120160""
""focus"",""47"",""270442""
""focus"",""60"",""318311""
","""event"",""trial"",""time""
""fullscreenenter"",""1"",""4828""
","
",,null,run_exp/static/images/task_images/gems/5.jpg,null,,,,,,,1,,,2,,,,,5,0.221156632,0.2,,,,,,,
decision,84,372749,0.0-28.0-2.0,"""event"",""trial"",""time""
""blur"",""1"",""888""
""focus"",""1"",""1871""
""fullscreenenter"",""1"",""4828""
""blur"",""12"",""79121""
""focus"",""12"",""89205""
""blur"",""14"",""112334""
""focus"",""15"",""120160""
""blur"",""46"",""267731""
""focus"",""47"",""270442""
""blur"",""60"",""317584""
""focus"",""60"",""318311""
","""event"",""trial"",""time""
""blur"",""1"",""888""
""blur"",""12"",""79121""
""blur"",""14"",""112334""
""blur"",""46"",""267731""
""blur"",""60"",""317584""
","""event"",""trial"",""time""
""focus"",""1"",""1871""
""focus"",""12"",""89205""
""focus"",""15"",""120160""
""focus"",""47"",""270442""
""focus"",""60"",""318311""
","""event"",""trial"",""time""
""fullscreenenter"",""1"",""4828""
","
",,7.5,run_exp/static/images/task_images/land.jpg,76,,,,,,,1,,,2,,,,,,,,43081,1,2,TRUE,,,
travel,85,382743,0.0-29.0-0.0,"""event"",""trial"",""time""
""blur"",""1"",""888""
""focus"",""1"",""1871""
""fullscreenenter"",""1"",""4828""
""blur"",""12"",""79121""
""focus"",""12"",""89205""
""blur"",""14"",""112334""
""focus"",""15"",""120160""
""blur"",""46"",""267731""
""focus"",""47"",""270442""
""blur"",""60"",""317584""
""focus"",""60"",""318311""
","""event"",""trial"",""time""
""blur"",""1"",""888""
""blur"",""12"",""79121""
""blur"",""14"",""112334""
""blur"",""46"",""267731""
""blur"",""60"",""317584""
","""event"",""trial"",""time""
""focus"",""1"",""1871""
""focus"",""12"",""89205""
""focus"",""15"",""120160""
""focus"",""47"",""270442""
""focus"",""60"",""318311""
","""event"",""trial"",""time""
""fullscreenenter"",""1"",""4828""
","
",,,,,,,,,,,,"[{""stimulus"":""run_exp/static/images/task_images/rocket-01.jpg"",""time"":0.10000000009313226},{""stimulus"":""run_exp/static/images/task_images/rocket-02.jpg"",""time"":1113.3000000000466},{""stimulus"":""run_exp/static/images/task_images/rocket-03.jpg"",""time"":2224.1999999999534},{""stimulus"":""run_exp/static/images/task_images/rocket-04.jpg"",""time"":3331.600000000093},{""stimulus"":""run_exp/static/images/task_images/rocket-05.jpg"",""time"":4445.5},{""stimulus"":""run_exp/static/images/task_images/rocket-06.jpg"",""time"":5553.699999999953},{""stimulus"":""run_exp/static/images/task_images/rocket-07.jpg"",""time"":6662.5},{""stimulus"":""run_exp/static/images/task_images/rocket-08.jpg"",""time"":7772},{""stimulus"":""run_exp/static/images/task_images/rocket-09.jpg"",""time"":8885.300000000047}]",[],2,,,,,,,,,,,,,,
alien_welcome,86,387747,0.0-29.0-1.0,"""event"",""trial"",""time""
""blur"",""1"",""888""
""focus"",""1"",""1871""
""fullscreenenter"",""1"",""4828""
""blur"",""12"",""79121""
""focus"",""12"",""89205""
""blur"",""14"",""112334""
""focus"",""15"",""120160""
""blur"",""46"",""267731""
""focus"",""47"",""270442""
""blur"",""60"",""317584""
""focus"",""60"",""318311""
","""event"",""trial"",""time""
""blur"",""1"",""888""
""blur"",""12"",""79121""
""blur"",""14"",""112334""
""blur"",""46"",""267731""
""blur"",""60"",""317584""
","""event"",""trial"",""time""
""focus"",""1"",""1871""
""focus"",""12"",""89205""
""focus"",""15"",""120160""
""focus"",""47"",""270442""
""focus"",""60"",""318311""
","""event"",""trial"",""time""
""fullscreenenter"",""1"",""4828""
","
",,null,run_exp/static/images/task_images/aliens/old_aliens/planet/alien_planet-38.jpg,null,,,,,,,,,,,,,38,"22,43,38,4,5,73,16,53,39,23,65,12,75,41,48,45,61,15,28,50,69,57,27,30,8,20,42,36,13,35,59,24,72,47,3,31,34,67,17,64,70,21,55",,,,,,,,,,
land,87,388252,0.0-29.0-2.0,"""event"",""trial"",""time""
""blur"",""1"",""888""
""focus"",""1"",""1871""
""fullscreenenter"",""1"",""4828""
""blur"",""12"",""79121""
""focus"",""12"",""89205""
""blur"",""14"",""112334""
""focus"",""15"",""120160""
""blur"",""46"",""267731""
""focus"",""47"",""270442""
""blur"",""60"",""317584""
""focus"",""60"",""318311""
","""event"",""trial"",""time""
""blur"",""1"",""888""
""blur"",""12"",""79121""
""blur"",""14"",""112334""
""blur"",""46"",""267731""
""blur"",""60"",""317584""
","""event"",""trial"",""time""
""focus"",""1"",""1871""
""focus"",""12"",""89205""
""focus"",""15"",""120160""
""focus"",""47"",""270442""
""focus"",""60"",""318311""
","""event"",""trial"",""time""
""fullscreenenter"",""1"",""4828""
","
",,null,run_exp/static/images/task_images/land.jpg,null,,,,,,,102,,,3,,,,,,,,,,,,,,
dig,88,390259,0.0-29.0-3.0,"""event"",""trial"",""time""
""blur"",""1"",""888""
""focus"",""1"",""1871""
""fullscreenenter"",""1"",""4828""
""blur"",""12"",""79121""
""focus"",""12"",""89205""
""blur"",""14"",""112334""
""focus"",""15"",""120160""
""blur"",""46"",""267731""
""focus"",""47"",""270442""
""blur"",""60"",""317584""
""focus"",""60"",""318311""
","""event"",""trial"",""time""
""blur"",""1"",""888""
""blur"",""12"",""79121""
""blur"",""14"",""112334""
""blur"",""46"",""267731""
""blur"",""60"",""317584""
","""event"",""trial"",""time""
""focus"",""1"",""1871""
""focus"",""12"",""89205""
""focus"",""15"",""120160""
""focus"",""47"",""270442""
""focus"",""60"",""318311""
","""event"",""trial"",""time""
""fullscreenenter"",""1"",""4828""
","
",,,,,,,,,,,,"[{""stimulus"":""run_exp/static/images/task_images/dig.jpg"",""time"":0.19999999995343387},{""stimulus"":""run_exp/static/images/task_images/land.jpg"",""time"":671.1999999999534},{""stimulus"":""run_exp/static/images/task_images/dig.jpg"",""time"":1335.6000000000931}]",[],3,,,,,,,,,,,,,,
harvest,89,391261,0.0-29.0-4.0,"""event"",""trial"",""time""
""blur"",""1"",""888""
""focus"",""1"",""1871""
""fullscreenenter"",""1"",""4828""
""blur"",""12"",""79121""
""focus"",""12"",""89205""
""blur"",""14"",""112334""
""focus"",""15"",""120160""
""blur"",""46"",""267731""
""focus"",""47"",""270442""
""blur"",""60"",""317584""
""focus"",""60"",""318311""
","""event"",""trial"",""time""
""blur"",""1"",""888""
""blur"",""12"",""79121""
""blur"",""14"",""112334""
""blur"",""46"",""267731""
""blur"",""60"",""317584""
","""event"",""trial"",""time""
""focus"",""1"",""1871""
""focus"",""12"",""89205""
""focus"",""15"",""120160""
""focus"",""47"",""270442""
""focus"",""60"",""318311""
","""event"",""trial"",""time""
""fullscreenenter"",""1"",""4828""
","
",,null,run_exp/static/images/task_images/gems/102.jpg,null,,,,,,,52,,,3,,,,,102,0.508461135,0.509803922,,,,,,,
decision,90,391633,0.0-29.0-5.0,"""event"",""trial"",""time""
""blur"",""1"",""888""
""focus"",""1"",""1871""
""fullscreenenter"",""1"",""4828""
""blur"",""12"",""79121""
""focus"",""12"",""89205""
""blur"",""14"",""112334""
""focus"",""15"",""120160""
""blur"",""46"",""267731""
""focus"",""47"",""270442""
""blur"",""60"",""317584""
""focus"",""60"",""318311""
","""event"",""trial"",""time""
""blur"",""1"",""888""
""blur"",""12"",""79121""
""blur"",""14"",""112334""
""blur"",""46"",""267731""
""blur"",""60"",""317584""
","""event"",""trial"",""time""
""focus"",""1"",""1871""
""focus"",""12"",""89205""
""focus"",""15"",""120160""
""focus"",""47"",""270442""
""focus"",""60"",""318311""
","""event"",""trial"",""time""
""fullscreenenter"",""1"",""4828""
","
",,370.8,run_exp/static/images/task_images/land.jpg,65,,,,,,,52,,,3,,,,,,,,61965,1,0,FALSE,,,
dig,91,394269,0.0-30.0-0.0,"""event"",""trial"",""time""
""blur"",""1"",""888""
""focus"",""1"",""1871""
""fullscreenenter"",""1"",""4828""
""blur"",""12"",""79121""
""focus"",""12"",""89205""
""blur"",""14"",""112334""
""focus"",""15"",""120160""
""blur"",""46"",""267731""
""focus"",""47"",""270442""
""blur"",""60"",""317584""
""focus"",""60"",""318311""
","""event"",""trial"",""time""
""blur"",""1"",""888""
""blur"",""12"",""79121""
""blur"",""14"",""112334""
""blur"",""46"",""267731""
""blur"",""60"",""317584""
","""event"",""trial"",""time""
""focus"",""1"",""1871""
""focus"",""12"",""89205""
""focus"",""15"",""120160""
""focus"",""47"",""270442""
""focus"",""60"",""318311""
","""event"",""trial"",""time""
""fullscreenenter"",""1"",""4828""
","
",,,,,,,,,,,,"[{""stimulus"":""run_exp/static/images/task_images/dig.jpg"",""time"":0.09999999986030161},{""stimulus"":""run_exp/static/images/task_images/land.jpg"",""time"":879.6999999999534},{""stimulus"":""run_exp/static/images/task_images/dig.jpg"",""time"":1755}]",[],3,,,,,,,,,,,,,,
harvest,92,395274,0.0-30.0-1.0,"""event"",""trial"",""time""
""blur"",""1"",""888""
""focus"",""1"",""1871""
""fullscreenenter"",""1"",""4828""
""blur"",""12"",""79121""
""focus"",""12"",""89205""
""blur"",""14"",""112334""
""focus"",""15"",""120160""
""blur"",""46"",""267731""
""focus"",""47"",""270442""
""blur"",""60"",""317584""
""focus"",""60"",""318311""
","""event"",""trial"",""time""
""blur"",""1"",""888""
""blur"",""12"",""79121""
""blur"",""14"",""112334""
""blur"",""46"",""267731""
""blur"",""60"",""317584""
","""event"",""trial"",""time""
""focus"",""1"",""1871""
""focus"",""12"",""89205""
""focus"",""15"",""120160""
""focus"",""47"",""270442""
""focus"",""60"",""318311""
","""event"",""trial"",""time""
""fullscreenenter"",""1"",""4828""
","
",,null,run_exp/static/images/task_images/gems/52.jpg,null,,,,,,,28,,,3,,,,,52,0.546768129,0.538461538,,,,,,,
decision,93,395414,0.0-30.0-2.0,"""event"",""trial"",""time""
""blur"",""1"",""888""
""focus"",""1"",""1871""
""fullscreenenter"",""1"",""4828""
""blur"",""12"",""79121""
""focus"",""12"",""89205""
""blur"",""14"",""112334""
""focus"",""15"",""120160""
""blur"",""46"",""267731""
""focus"",""47"",""270442""
""blur"",""60"",""317584""
""focus"",""60"",""318311""
","""event"",""trial"",""time""
""blur"",""1"",""888""
""blur"",""12"",""79121""
""blur"",""14"",""112334""
""blur"",""46"",""267731""
""blur"",""60"",""317584""
","""event"",""trial"",""time""
""focus"",""1"",""1871""
""focus"",""12"",""89205""
""focus"",""15"",""120160""
""focus"",""47"",""270442""
""focus"",""60"",""318311""
","""event"",""trial"",""time""
""fullscreenenter"",""1"",""4828""
","
",,139,run_exp/static/images/task_images/land.jpg,65,,,,,,,28,,,3,,,,,,,,65746,1,1,FALSE,,,
dig,94,398277,0.0-31.0-0.0,"""event"",""trial"",""time""
""blur"",""1"",""888""
""focus"",""1"",""1871""
""fullscreenenter"",""1"",""4828""
""blur"",""12"",""79121""
""focus"",""12"",""89205""
""blur"",""14"",""112334""
""focus"",""15"",""120160""
""blur"",""46"",""267731""
""focus"",""47"",""270442""
""blur"",""60"",""317584""
""focus"",""60"",""318311""
","""event"",""trial"",""time""
""blur"",""1"",""888""
""blur"",""12"",""79121""
""blur"",""14"",""112334""
""blur"",""46"",""267731""
""blur"",""60"",""317584""
","""event"",""trial"",""time""
""focus"",""1"",""1871""
""focus"",""12"",""89205""
""focus"",""15"",""120160""
""focus"",""47"",""270442""
""focus"",""60"",""318311""
","""event"",""trial"",""time""
""fullscreenenter"",""1"",""4828""
","
",,,,,,,,,,,,"[{""stimulus"":""run_exp/static/images/task_images/dig.jpg"",""time"":0.20000000018626451},{""stimulus"":""run_exp/static/images/task_images/land.jpg"",""time"":954.7000000001863},{""stimulus"":""run_exp/static/images/task_images/dig.jpg"",""time"":1908.1000000000931}]",[],3,,,,,,,,,,,,,,
harvest,95,399281,0.0-31.0-1.0,"""event"",""trial"",""time""
""blur"",""1"",""888""
""focus"",""1"",""1871""
""fullscreenenter"",""1"",""4828""
""blur"",""12"",""79121""
""focus"",""12"",""89205""
""blur"",""14"",""112334""
""focus"",""15"",""120160""
""blur"",""46"",""267731""
""focus"",""47"",""270442""
""blur"",""60"",""317584""
""focus"",""60"",""318311""
","""event"",""trial"",""time""
""blur"",""1"",""888""
""blur"",""12"",""79121""
""blur"",""14"",""112334""
""blur"",""46"",""267731""
""blur"",""60"",""317584""
","""event"",""trial"",""time""
""focus"",""1"",""1871""
""focus"",""12"",""89205""
""focus"",""15"",""120160""
""focus"",""47"",""270442""
""focus"",""60"",""318311""
","""event"",""trial"",""time""
""fullscreenenter"",""1"",""4828""
","
",,null,run_exp/static/images/task_images/gems/28.jpg,null,,,,,,,14,,,3,,,,,28,0.498723163,0.5,,,,,,,
decision,96,399517,0.0-31.0-2.0,"""event"",""trial"",""time""
""blur"",""1"",""888""
""focus"",""1"",""1871""
""fullscreenenter"",""1"",""4828""
""blur"",""12"",""79121""
""focus"",""12"",""89205""
""blur"",""14"",""112334""
""focus"",""15"",""120160""
""blur"",""46"",""267731""
""focus"",""47"",""270442""
""blur"",""60"",""317584""
""focus"",""60"",""318311""
","""event"",""trial"",""time""
""blur"",""1"",""888""
""blur"",""12"",""79121""
""blur"",""14"",""112334""
""blur"",""46"",""267731""
""blur"",""60"",""317584""
","""event"",""trial"",""time""
""focus"",""1"",""1871""
""focus"",""12"",""89205""
""focus"",""15"",""120160""
""focus"",""47"",""270442""
""focus"",""60"",""318311""
","""event"",""trial"",""time""
""fullscreenenter"",""1"",""4828""
","
",,234.9,run_exp/static/images/task_images/land.jpg,65,,,,,,,14,,,3,,,,,,,,69849,1,2,FALSE,,,
dig,97,402284,0.0-32.0-0.0,"""event"",""trial"",""time""
""blur"",""1"",""888""
""focus"",""1"",""1871""
""fullscreenenter"",""1"",""4828""
""blur"",""12"",""79121""
""focus"",""12"",""89205""
""blur"",""14"",""112334""
""focus"",""15"",""120160""
""blur"",""46"",""267731""
""focus"",""47"",""270442""
""blur"",""60"",""317584""
""focus"",""60"",""318311""
","""event"",""trial"",""time""
""blur"",""1"",""888""
""blur"",""12"",""79121""
""blur"",""14"",""112334""
""blur"",""46"",""267731""
""blur"",""60"",""317584""
","""event"",""trial"",""time""
""focus"",""1"",""1871""
""focus"",""12"",""89205""
""focus"",""15"",""120160""
""focus"",""47"",""270442""
""focus"",""60"",""318311""
","""event"",""trial"",""time""
""fullscreenenter"",""1"",""4828""
","
",,,,,,,,,,,,"[{""stimulus"":""run_exp/static/images/task_images/dig.jpg"",""time"":0.10000000009313226},{""stimulus"":""run_exp/static/images/task_images/land.jpg"",""time"":922.1999999999534},{""stimulus"":""run_exp/static/images/task_images/dig.jpg"",""time"":1845.5}]",[],3,,,,,,,,,,,,,,
harvest,98,403289,0.0-32.0-1.0,"""event"",""trial"",""time""
""blur"",""1"",""888""
""focus"",""1"",""1871""
""fullscreenenter"",""1"",""4828""
""blur"",""12"",""79121""
""focus"",""12"",""89205""
""blur"",""14"",""112334""
""focus"",""15"",""120160""
""blur"",""46"",""267731""
""focus"",""47"",""270442""
""blur"",""60"",""317584""
""focus"",""60"",""318311""
","""event"",""trial"",""time""
""blur"",""1"",""888""
""blur"",""12"",""79121""
""blur"",""14"",""112334""
""blur"",""46"",""267731""
""blur"",""60"",""317584""
","""event"",""trial"",""time""
""focus"",""1"",""1871""
""focus"",""12"",""89205""
""focus"",""15"",""120160""
""focus"",""47"",""270442""
""focus"",""60"",""318311""
","""event"",""trial"",""time""
""fullscreenenter"",""1"",""4828""
","
",,null,run_exp/static/images/task_images/gems/14.jpg,null,,,,,,,7,,,3,,,,,14,0.495067763,0.5,,,,,,,
decision,99,403355,0.0-32.0-2.0,"""event"",""trial"",""time""
""blur"",""1"",""888""
""focus"",""1"",""1871""
""fullscreenenter"",""1"",""4828""
""blur"",""12"",""79121""
""focus"",""12"",""89205""
""blur"",""14"",""112334""
""focus"",""15"",""120160""
""blur"",""46"",""267731""
""focus"",""47"",""270442""
""blur"",""60"",""317584""
""focus"",""60"",""318311""
","""event"",""trial"",""time""
""blur"",""1"",""888""
""blur"",""12"",""79121""
""blur"",""14"",""112334""
""blur"",""46"",""267731""
""blur"",""60"",""317584""
","""event"",""trial"",""time""
""focus"",""1"",""1871""
""focus"",""12"",""89205""
""focus"",""15"",""120160""
""focus"",""47"",""270442""
""focus"",""60"",""318311""
","""event"",""trial"",""time""
""fullscreenenter"",""1"",""4828""
","
",,64.8,run_exp/static/images/task_images/land.jpg,76,,,,,,,7,,,3,,,,,,,,73687,1,3,TRUE,,,
travel,100,413285,0.0-33.0-0.0,"""event"",""trial"",""time""
""blur"",""1"",""888""
""focus"",""1"",""1871""
""fullscreenenter"",""1"",""4828""
""blur"",""12"",""79121""
""focus"",""12"",""89205""
""blur"",""14"",""112334""
""focus"",""15"",""120160""
""blur"",""46"",""267731""
""focus"",""47"",""270442""
""blur"",""60"",""317584""
""focus"",""60"",""318311""
","""event"",""trial"",""time""
""blur"",""1"",""888""
""blur"",""12"",""79121""
""blur"",""14"",""112334""
""blur"",""46"",""267731""
""blur"",""60"",""317584""
","""event"",""trial"",""time""
""focus"",""1"",""1871""
""focus"",""12"",""89205""
""focus"",""15"",""120160""
""focus"",""47"",""270442""
""focus"",""60"",""318311""
","""event"",""trial"",""time""
""fullscreenenter"",""1"",""4828""
","
",,,,,,,,,,,,"[{""stimulus"":""run_exp/static/images/task_images/rocket-01.jpg"",""time"":0.09999999986030161},{""stimulus"":""run_exp/static/images/task_images/rocket-02.jpg"",""time"":1105},{""stimulus"":""run_exp/static/images/task_images/rocket-03.jpg"",""time"":2210.8000000000466},{""stimulus"":""run_exp/static/images/task_images/rocket-04.jpg"",""time"":3314},{""stimulus"":""run_exp/static/images/task_images/rocket-05.jpg"",""time"":4414},{""stimulus"":""run_exp/static/images/task_images/rocket-06.jpg"",""time"":5521.300000000047},{""stimulus"":""run_exp/static/images/task_images/rocket-07.jpg"",""time"":6624.399999999907},{""stimulus"":""run_exp/static/images/task_images/rocket-08.jpg"",""time"":7727},{""stimulus"":""run_exp/static/images/task_images/rocket-09.jpg"",""time"":8826.59999999986}]",[],3,,,,,,,,,,,,,,
alien_welcome,101,418288,0.0-33.0-1.0,"""event"",""trial"",""time""
""blur"",""1"",""888""
""focus"",""1"",""1871""
""fullscreenenter"",""1"",""4828""
""blur"",""12"",""79121""
""focus"",""12"",""89205""
""blur"",""14"",""112334""
""focus"",""15"",""120160""
""blur"",""46"",""267731""
""focus"",""47"",""270442""
""blur"",""60"",""317584""
""focus"",""60"",""318311""
","""event"",""trial"",""time""
""blur"",""1"",""888""
""blur"",""12"",""79121""
""blur"",""14"",""112334""
""blur"",""46"",""267731""
""blur"",""60"",""317584""
","""event"",""trial"",""time""
""focus"",""1"",""1871""
""focus"",""12"",""89205""
""focus"",""15"",""120160""
""focus"",""47"",""270442""
""focus"",""60"",""318311""
","""event"",""trial"",""time""
""fullscreenenter"",""1"",""4828""
","
",,null,run_exp/static/images/task_images/aliens/old_aliens/planet/alien_planet-4.jpg,null,,,,,,,,,,,,,4,"22,43,38,4,5,73,16,53,39,23,65,12,75,41,48,45,61,15,28,50,69,57,27,30,8,20,42,36,13,35,59,24,72,47,3,31,34,67,17,64,70,21,55",,,,,,,,,,
land,102,418795,0.0-33.0-2.0,"""event"",""trial"",""time""
""blur"",""1"",""888""
""focus"",""1"",""1871""
""fullscreenenter"",""1"",""4828""
""blur"",""12"",""79121""
""focus"",""12"",""89205""
""blur"",""14"",""112334""
""focus"",""15"",""120160""
""blur"",""46"",""267731""
""focus"",""47"",""270442""
""blur"",""60"",""317584""
""focus"",""60"",""318311""
","""event"",""trial"",""time""
""blur"",""1"",""888""
""blur"",""12"",""79121""
""blur"",""14"",""112334""
""blur"",""46"",""267731""
""blur"",""60"",""317584""
","""event"",""trial"",""time""
""focus"",""1"",""1871""
""focus"",""12"",""89205""
""focus"",""15"",""120160""
""focus"",""47"",""270442""
""focus"",""60"",""318311""
","""event"",""trial"",""time""
""fullscreenenter"",""1"",""4828""
","
",,null,run_exp/static/images/task_images/land.jpg,null,,,,,,,90,,,4,,,,,,,,,,,,,,
dig,103,420800,0.0-33.0-3.0,"""event"",""trial"",""time""
""blur"",""1"",""888""
""focus"",""1"",""1871""
""fullscreenenter"",""1"",""4828""
""blur"",""12"",""79121""
""focus"",""12"",""89205""
""blur"",""14"",""112334""
""focus"",""15"",""120160""
""blur"",""46"",""267731""
""focus"",""47"",""270442""
""blur"",""60"",""317584""
""focus"",""60"",""318311""
","""event"",""trial"",""time""
""blur"",""1"",""888""
""blur"",""12"",""79121""
""blur"",""14"",""112334""
""blur"",""46"",""267731""
""blur"",""60"",""317584""
","""event"",""trial"",""time""
""focus"",""1"",""1871""
""focus"",""12"",""89205""
""focus"",""15"",""120160""
""focus"",""47"",""270442""
""focus"",""60"",""318311""
","""event"",""trial"",""time""
""fullscreenenter"",""1"",""4828""
","
",,,,,,,,,,,,"[{""stimulus"":""run_exp/static/images/task_images/dig.jpg"",""time"":0.19999999995343387},{""stimulus"":""run_exp/static/images/task_images/land.jpg"",""time"":669.2999999998137},{""stimulus"":""run_exp/static/images/task_images/dig.jpg"",""time"":1335.6999999999534}]",[],4,,,,,,,,,,,,,,
harvest,104,421806,0.0-33.0-4.0,"""event"",""trial"",""time""
""blur"",""1"",""888""
""focus"",""1"",""1871""
""fullscreenenter"",""1"",""4828""
""blur"",""12"",""79121""
""focus"",""12"",""89205""
""blur"",""14"",""112334""
""focus"",""15"",""120160""
""blur"",""46"",""267731""
""focus"",""47"",""270442""
""blur"",""60"",""317584""
""focus"",""60"",""318311""
","""event"",""trial"",""time""
""blur"",""1"",""888""
""blur"",""12"",""79121""
""blur"",""14"",""112334""
""blur"",""46"",""267731""
""blur"",""60"",""317584""
","""event"",""trial"",""time""
""focus"",""1"",""1871""
""focus"",""12"",""89205""
""focus"",""15"",""120160""
""focus"",""47"",""270442""
""focus"",""60"",""318311""
","""event"",""trial"",""time""
""fullscreenenter"",""1"",""4828""
","
",,null,run_exp/static/images/task_images/gems/90.jpg,null,,,,,,,38,,,4,,,,,90,0.422827174,0.422222222,,,,,,,
decision,105,421968,0.0-33.0-5.0,"""event"",""trial"",""time""
""blur"",""1"",""888""
""focus"",""1"",""1871""
""fullscreenenter"",""1"",""4828""
""blur"",""12"",""79121""
""focus"",""12"",""89205""
""blur"",""14"",""112334""
""focus"",""15"",""120160""
""blur"",""46"",""267731""
""focus"",""47"",""270442""
""blur"",""60"",""317584""
""focus"",""60"",""318311""
","""event"",""trial"",""time""
""blur"",""1"",""888""
""blur"",""12"",""79121""
""blur"",""14"",""112334""
""blur"",""46"",""267731""
""blur"",""60"",""317584""
","""event"",""trial"",""time""
""focus"",""1"",""1871""
""focus"",""12"",""89205""
""focus"",""15"",""120160""
""focus"",""47"",""270442""
""focus"",""60"",""318311""
","""event"",""trial"",""time""
""fullscreenenter"",""1"",""4828""
","
",,160.5,run_exp/static/images/task_images/land.jpg,65,,,,,,,38,,,4,,,,,,,,92300,1,0,FALSE,,,
dig,106,424811,0.0-34.0-0.0,"""event"",""trial"",""time""
""blur"",""1"",""888""
""focus"",""1"",""1871""
""fullscreenenter"",""1"",""4828""
""blur"",""12"",""79121""
""focus"",""12"",""89205""
""blur"",""14"",""112334""
""focus"",""15"",""120160""
""blur"",""46"",""267731""
""focus"",""47"",""270442""
""blur"",""60"",""317584""
""focus"",""60"",""318311""
","""event"",""trial"",""time""
""blur"",""1"",""888""
""blur"",""12"",""79121""
""blur"",""14"",""112334""
""blur"",""46"",""267731""
""blur"",""60"",""317584""
","""event"",""trial"",""time""
""focus"",""1"",""1871""
""focus"",""12"",""89205""
""focus"",""15"",""120160""
""focus"",""47"",""270442""
""focus"",""60"",""318311""
","""event"",""trial"",""time""
""fullscreenenter"",""1"",""4828""
","
",,,,,,,,,,,,"[{""stimulus"":""run_exp/static/images/task_images/dig.jpg"",""time"":0.10000000009313226},{""stimulus"":""run_exp/static/images/task_images/land.jpg"",""time"":948.4000000001397},{""stimulus"":""run_exp/static/images/task_images/dig.jpg"",""time"":1895}]",[],4,,,,,,,,,,,,,,
harvest,107,425813,0.0-34.0-1.0,"""event"",""trial"",""time""
""blur"",""1"",""888""
""focus"",""1"",""1871""
""fullscreenenter"",""1"",""4828""
""blur"",""12"",""79121""
""focus"",""12"",""89205""
""blur"",""14"",""112334""
""focus"",""15"",""120160""
""blur"",""46"",""267731""
""focus"",""47"",""270442""
""blur"",""60"",""317584""
""focus"",""60"",""318311""
","""event"",""trial"",""time""
""blur"",""1"",""888""
""blur"",""12"",""79121""
""blur"",""14"",""112334""
""blur"",""46"",""267731""
""blur"",""60"",""317584""
","""event"",""trial"",""time""
""focus"",""1"",""1871""
""focus"",""12"",""89205""
""focus"",""15"",""120160""
""focus"",""47"",""270442""
""focus"",""60"",""318311""
","""event"",""trial"",""time""
""fullscreenenter"",""1"",""4828""
","
",,null,run_exp/static/images/task_images/gems/38.jpg,null,,,,,,,22,,,4,,,,,38,0.567945232,0.578947368,,,,,,,
decision,108,425852,0.0-34.0-2.0,"""event"",""trial"",""time""
""blur"",""1"",""888""
""focus"",""1"",""1871""
""fullscreenenter"",""1"",""4828""
""blur"",""12"",""79121""
""focus"",""12"",""89205""
""blur"",""14"",""112334""
""focus"",""15"",""120160""
""blur"",""46"",""267731""
""focus"",""47"",""270442""
""blur"",""60"",""317584""
""focus"",""60"",""318311""
","""event"",""trial"",""time""
""blur"",""1"",""888""
""blur"",""12"",""79121""
""blur"",""14"",""112334""
""blur"",""46"",""267731""
""blur"",""60"",""317584""
","""event"",""trial"",""time""
""focus"",""1"",""1871""
""focus"",""12"",""89205""
""focus"",""15"",""120160""
""focus"",""47"",""270442""
""focus"",""60"",""318311""
","""event"",""trial"",""time""
""fullscreenenter"",""1"",""4828""
","
",,38.5,run_exp/static/images/task_images/land.jpg,65,,,,,,,22,,,4,,,,,,,,96184,1,1,FALSE,,,
dig,109,428818,0.0-35.0-0.0,"""event"",""trial"",""time""
""blur"",""1"",""888""
""focus"",""1"",""1871""
""fullscreenenter"",""1"",""4828""
""blur"",""12"",""79121""
""focus"",""12"",""89205""
""blur"",""14"",""112334""
""focus"",""15"",""120160""
""blur"",""46"",""267731""
""focus"",""47"",""270442""
""blur"",""60"",""317584""
""focus"",""60"",""318311""
","""event"",""trial"",""time""
""blur"",""1"",""888""
""blur"",""12"",""79121""
""blur"",""14"",""112334""
""blur"",""46"",""267731""
""blur"",""60"",""317584""
","""event"",""trial"",""time""
""focus"",""1"",""1871""
""focus"",""12"",""89205""
""focus"",""15"",""120160""
""focus"",""47"",""270442""
""focus"",""60"",""318311""
","""event"",""trial"",""time""
""fullscreenenter"",""1"",""4828""
","
",,,,,,,,,,,,"[{""stimulus"":""run_exp/static/images/task_images/dig.jpg"",""time"":0.09999999986030161},{""stimulus"":""run_exp/static/images/task_images/land.jpg"",""time"":992.7999999998137},{""stimulus"":""run_exp/static/images/task_images/dig.jpg"",""time"":1980.5999999998603}]",[],4,,,,,,,,,,,,,,
harvest,110,429820,0.0-35.0-1.0,"""event"",""trial"",""time""
""blur"",""1"",""888""
""focus"",""1"",""1871""
""fullscreenenter"",""1"",""4828""
""blur"",""12"",""79121""
""focus"",""12"",""89205""
""blur"",""14"",""112334""
""focus"",""15"",""120160""
""blur"",""46"",""267731""
""focus"",""47"",""270442""
""blur"",""60"",""317584""
""focus"",""60"",""318311""
","""event"",""trial"",""time""
""blur"",""1"",""888""
""blur"",""12"",""79121""
""blur"",""14"",""112334""
""blur"",""46"",""267731""
""blur"",""60"",""317584""
","""event"",""trial"",""time""
""focus"",""1"",""1871""
""focus"",""12"",""89205""
""focus"",""15"",""120160""
""focus"",""47"",""270442""
