trial_type,trial_index,time_elapsed,internal_node_id,interactions,blur_events,focus_events,fullscreenenter_events,fullscreenexit_events,success,rt,stimulus,key_press,prompt,subject_id,participant_id,age,gender,button_pressed,next_reward,animation_sequence,responses,planet,curr_prac_trial,n_prac_rounds,alien,aliens,reward_received,decay_rate_actual,decay_rate_exp,time_in_block,block_num,prt,last_trial_on_planet,button_html,bonus,num_failures
pavlovia,0,7,0.0-0.0,"""event"",""trial"",""time""
""fullscreenenter"",""1"",""2764""
","
","
","""event"",""trial"",""time""
""fullscreenenter"",""1"",""2764""
","
",,,,,,,,,,,,,,,,,,,,,,,,,,,,
fullscreen,1,3724,0.0-1.0,"""event"",""trial"",""time""
""fullscreenenter"",""1"",""2764""
","
","
","""event"",""trial"",""time""
""fullscreenenter"",""1"",""2764""
","
",TRUE,,,,,,,,,,,,,,,,,,,,,,,,,,,
instruc_welcome,2,13487,0.0-2.0,"""event"",""trial"",""time""
""fullscreenenter"",""1"",""2764""
","
","
","""event"",""trial"",""time""
""fullscreenenter"",""1"",""2764""
","
",,null,run_exp/static/audio/clip_1_welcome.m4a,null,"<p>Howdy! In this experiment, you’ll be an explorer traveling through space to collect space treasure.</p><p>Your mission is to collect as much treasure as possible.</p><br><br><p><img src='run_exp/static/images/task_images/opening_img-01.jpg' height='300' width='auto'></p>",7918,395,23.81,Female,,,,,,,,,,,,,,,,,,,
audio-keyboard-response,3,30103,0.0-3.0,"""event"",""trial"",""time""
""fullscreenenter"",""1"",""2764""
","
","
","""event"",""trial"",""time""
""fullscreenenter"",""1"",""2764""
","
",,null,run_exp/static/audio/clip_2_move.m4a,null,,,,,,,,,,,,,,,,,,,,,,,,
welcome_dec,4,34150,0.0-4.0,"""event"",""trial"",""time""
""fullscreenenter"",""1"",""2764""
","
","
","""event"",""trial"",""time""
""fullscreenenter"",""1"",""2764""
","
",,4040.7,"<p>Howdy! In this experiment, you’ll be an explorer traveling through space to collect space treasure.</p><p>Your mission is to collect as much treasure as possible.</p><br><br><p><img src='run_exp/static/images/task_images/opening_img-01.jpg' height='300' width='auto'></p>",,,,,,,1,,,,,,,,,,,,,,,,,,
html-keyboard-response,5,34860,0.0-5.0,"""event"",""trial"",""time""
""fullscreenenter"",""1"",""2764""
","
","
","""event"",""trial"",""time""
""fullscreenenter"",""1"",""2764""
","
",,706.8000002,"<p>Howdy! In this experiment, you’ll be an explorer traveling through space to collect space treasure.</p><p>Your mission is to collect as much treasure as possible.</p><br><br><p><img src='run_exp/static/images/task_images/opening_img-01.jpg' height='300' width='auto'></p><button class=""jspsych-html-btn-unchosen""><img src=""run_exp/static/images/task_images/planet-01.jpg"" height=""50""></button><button class=""jspsych-html-btn-chosen""><img src=""run_exp/static/images/task_images/planet-02.jpg"" height=""50""></button><p><b>[press the space bar to lock in your answer]<b><br></p>",32,,,,,,,,,,,,,,,,,,,,,,,,
instruc_goal,6,44930,0.0-6.0-0.0,"""event"",""trial"",""time""
""fullscreenenter"",""1"",""2764""
","
","
","""event"",""trial"",""time""
""fullscreenenter"",""1"",""2764""
","
",,null,run_exp/static/audio/clip_3_goal.m4a,null,"<p> As a space explorer, you’ll visit different planets to dig for space treasure, these pink gems.</p> <p> The more treasure you dig up, the more bonus money you’ll win! </p><br><br><p><img src='run_exp/static/images/task_images/pink_gem.jpg' height='300' width='auto'></p>",,,,,,,,,,,,,,,,,,,,,,,
instruc_goal,7,46071,0.0-6.0-1.0,"""event"",""trial"",""time""
""fullscreenenter"",""1"",""2764""
","
","
","""event"",""trial"",""time""
""fullscreenenter"",""1"",""2764""
","
",,1135.1,"<p> As a space explorer, you’ll visit different planets to dig for space treasure, these pink gems.</p> <p> The more treasure you dig up, the more bonus money you’ll win! </p><br><br><p><img src='run_exp/static/images/task_images/pink_gem.jpg' height='300' width='auto'></p>",,,,,,,1,,,,,,,,,,,,,,,,,,
html-keyboard-response,8,46621,0.0-6.0-2.0,"""event"",""trial"",""time""
""fullscreenenter"",""1"",""2764""
","
","
","""event"",""trial"",""time""
""fullscreenenter"",""1"",""2764""
","
",,548,"<p> As a space explorer, you’ll visit different planets to dig for space treasure, these pink gems.</p> <p> The more treasure you dig up, the more bonus money you’ll win! </p><br><br><p><img src='run_exp/static/images/task_images/pink_gem.jpg' height='300' width='auto'></p><button class=""jspsych-html-btn-unchosen""><img src=""run_exp/static/images/task_images/planet-01.jpg"" height=""50""></button><button class=""jspsych-html-btn-chosen""><img src=""run_exp/static/images/task_images/planet-02.jpg"" height=""50""></button><p><b>[press the space bar to lock in your answer]<b><br></p>",32,,,,,,,,,,,,,,,,,,,,,,,,
instruc_dig,9,62658,0.0-7.0-0.0,"""event"",""trial"",""time""
""fullscreenenter"",""1"",""2764""
","
","
","""event"",""trial"",""time""
""fullscreenenter"",""1"",""2764""
","
",,null,run_exp/static/audio/clip_4_dig.m4a,null,,,,,,,100,,,,,,,,,,,,,,,,,
instruc_dig_try,10,63121,0.0-7.0-1.0,"""event"",""trial"",""time""
""fullscreenenter"",""1"",""2764""
","
","
","""event"",""trial"",""time""
""fullscreenenter"",""1"",""2764""
","
",,457.5,"<p> When you’ve arrived at a new planet, you will dig once. </p> <p>Then, you get to decide if you want to stay on the planet and dig again or travel to a new planet and dig there.</p> <p> To stay and dig, press the letter <strong>‘A’</strong> on your keyboard. Try pressing it now! </p><p><img src='run_exp/static/images/task_images/land.jpg'  height='700' width='auto'></p>",65,"<p> When you’ve arrived at a new planet, you will dig once. </p> <p>Then, you get to decide if you want to stay on the planet and dig again or travel to a new planet and dig there.</p> <p> To stay and dig, press the letter <strong>‘A’</strong> on your keyboard. Try pressing it now! </p><p><img src='run_exp/static/images/task_images/land.jpg'  height='700' width='auto'></p>",,,,,,100,,,,,,,,,,,,,,,,,
dig_prac,11,65137,0.0-7.0-2.0,"""event"",""trial"",""time""
""fullscreenenter"",""1"",""2764""
","
","
","""event"",""trial"",""time""
""fullscreenenter"",""1"",""2764""
","
",,,,,,,,,,,,"[{""stimulus"":""run_exp/static/images/task_images/dig.jpg"",""time"":0.5},{""stimulus"":""run_exp/static/images/task_images/land.jpg"",""time"":669},{""stimulus"":""run_exp/static/images/task_images/dig.jpg"",""time"":1341.2999999523163}]",[],,,,,,,,,,,,,,,
instruc_travel,12,101406,0.0-7.0-3.0,"""event"",""trial"",""time""
""fullscreenenter"",""1"",""2764""
","
","
","""event"",""trial"",""time""
""fullscreenenter"",""1"",""2764""
","
",,null,run_exp/static/audio/clip_5_travel.m4a,null,"<p>Every time you dig up gems, there are less gems on the planet, so the more you dig on a planet the fewer gems you’ll get with each dig.</p><p>When gems are running low, you may want to travel to a new planet. </p> <p>  Planets are very far apart in this galaxy, so it will take some time to travel between them. </p> <br><p>There are lots and lots of planets for you to visit, so you won’t be able to return to any planets you’ve seen before. </p><br><p>To leave this planet and travel to a new one, press the letter <strong>‘L’</strong> on your keyboard. Try pressing it now! </p><p><img src='run_exp/static/images/task_images/rocket-01.jpg'  height='600' width='auto'></p>",,,,,,,,,,,,,,,,,,,,,,,
instruc_travel_try,13,104644,0.0-7.0-4.0,"""event"",""trial"",""time""
""fullscreenenter"",""1"",""2764""
","
","
","""event"",""trial"",""time""
""fullscreenenter"",""1"",""2764""
","
",,3236.3,"<p>Every time you dig up gems, there are less gems on the planet, so the more you dig on a planet the fewer gems you’ll get with each dig.</p><p>When gems are running low, you may want to travel to a new planet. </p> <p>  Planets are very far apart in this galaxy, so it will take some time to travel between them. </p> <br><p>There are lots and lots of planets for you to visit, so you won’t be able to return to any planets you’ve seen before. </p><br><p>To leave this planet and travel to a new one, press the letter <strong>‘L’</strong> on your keyboard. Try pressing it now! </p><p><img src='run_exp/static/images/task_images/rocket-01.jpg'  height='600' width='auto'></p>",76,"<p>Every time you dig up gems, there are less gems on the planet, so the more you dig on a planet the fewer gems you’ll get with each dig.</p><p>When gems are running low, you may want to travel to a new planet. </p> <p>  Planets are very far apart in this galaxy, so it will take some time to travel between them. </p> <br><p>There are lots and lots of planets for you to visit, so you won’t be able to return to any planets you’ve seen before. </p><br><p>To leave this planet and travel to a new one, press the letter <strong>‘L’</strong> on your keyboard. Try pressing it now! </p><p><img src='run_exp/static/images/task_images/rocket-01.jpg'  height='600' width='auto'></p>",,,,,,,,,,,,,,,,,,,,,,,
travel_prac,14,114653,0.0-7.0-5.0,"""event"",""trial"",""time""
""fullscreenenter"",""1"",""2764""
","
","
","""event"",""trial"",""time""
""fullscreenenter"",""1"",""2764""
","
",,,,,,,,,,,,"[{""stimulus"":""run_exp/static/images/task_images/rocket-01.jpg"",""time"":0.40000009536743164},{""stimulus"":""run_exp/static/images/task_images/rocket-02.jpg"",""time"":1116.2000000476837},{""stimulus"":""run_exp/static/images/task_images/rocket-03.jpg"",""time"":2238.5999999046326},{""stimulus"":""run_exp/static/images/task_images/rocket-04.jpg"",""time"":3340.9000000953674},{""stimulus"":""run_exp/static/images/task_images/rocket-05.jpg"",""time"":4458.200000047684},{""stimulus"":""run_exp/static/images/task_images/rocket-06.jpg"",""time"":5569.099999904633},{""stimulus"":""run_exp/static/images/task_images/rocket-07.jpg"",""time"":6669},{""stimulus"":""run_exp/static/images/task_images/rocket-08.jpg"",""time"":7788.799999952316},{""stimulus"":""run_exp/static/images/task_images/rocket-09.jpg"",""time"":8891.200000047684}]",[],0,,,,,,,,,,,,,,
instruc_alien_greet,15,141857,0.0-7.0-6.0,"""event"",""trial"",""time""
""fullscreenenter"",""1"",""2764""
","
","
","""event"",""trial"",""time""
""fullscreenenter"",""1"",""2764""
","
",,null,run_exp/static/audio/clip_6_alien.m4a,null,"<p>When you arrive at a new planet, the alien who owns the treasure mine on that planet will greet you!</p><p>The better an alien takes care of their mine the easier it is to dig for gems. Some aliens take better care of their mine than others. So, you won’t get exactly the same amount of gems on each planet.</p><p>What the alien looks like does not tell you anything about how many gems there are on the planet.</p><br><p><img src=""run_exp/static/images/task_images/aliens/instructions_aliens/planet/alien_planet-1.jpg""  height=""600"" width=""auto""></p>",,,,,,,,,,,,,,,,,,,,,,,
instruc_alien_greet,16,143841,0.0-7.0-7.0,"""event"",""trial"",""time""
""fullscreenenter"",""1"",""2764""
","
","
","""event"",""trial"",""time""
""fullscreenenter"",""1"",""2764""
","
",,1979.5,"<p>When you arrive at a new planet, the alien who owns the treasure mine on that planet will greet you!</p><p>The better an alien takes care of their mine the easier it is to dig for gems. Some aliens take better care of their mine than others. So, you won’t get exactly the same amount of gems on each planet.</p><p>What the alien looks like does not tell you anything about how many gems there are on the planet.</p><br><p><img src=""run_exp/static/images/task_images/aliens/instructions_aliens/planet/alien_planet-1.jpg""  height=""600"" width=""auto""></p>",,,,,,,1,,,,,,,,,,,,,,,,,,
html-keyboard-response,17,144271,0.0-7.0-8.0,"""event"",""trial"",""time""
""fullscreenenter"",""1"",""2764""
","
","
","""event"",""trial"",""time""
""fullscreenenter"",""1"",""2764""
","
",,427.5999999,"<p>When you arrive at a new planet, the alien who owns the treasure mine on that planet will greet you!</p><p>The better an alien takes care of their mine the easier it is to dig for gems. Some aliens take better care of their mine than others. So, you won’t get exactly the same amount of gems on each planet.</p><p>What the alien looks like does not tell you anything about how many gems there are on the planet.</p><br><p><img src=""run_exp/static/images/task_images/aliens/instructions_aliens/planet/alien_planet-1.jpg""  height=""600"" width=""auto""></p><button class=""jspsych-html-btn-unchosen""><img src=""run_exp/static/images/task_images/planet-01.jpg"" height=""50""></button><button class=""jspsych-html-btn-chosen""><img src=""run_exp/static/images/task_images/planet-02.jpg"" height=""50""></button><p><b>[press the space bar to lock in your answer]<b><br></p>",32,,,,,,,,,,,,,,,,,,,,,,,,
time_out,18,155389,0.0-8.0-0.0,"""event"",""trial"",""time""
""fullscreenenter"",""1"",""2764""
","
","
","""event"",""trial"",""time""
""fullscreenenter"",""1"",""2764""
","
",,null,run_exp/static/audio/clip_7_timeout.m4a,null,"<p>If you don't make your choice fast enough, you’ll have to wait a few seconds before you can make another one.</p><p>You can’t dig for more gems or travel to new planets. You just have to sit and wait.</p><br><p><img src='run_exp/static/images/task_images/time_out.jpg'  height='600' width='auto'></p>",,,,,,,,,,,,,,,,,,,,,,,
time_out,19,156782,0.0-8.0-1.0,"""event"",""trial"",""time""
""fullscreenenter"",""1"",""2764""
","
","
","""event"",""trial"",""time""
""fullscreenenter"",""1"",""2764""
","
",,1390.6,"<p>If you don't make your choice fast enough, you’ll have to wait a few seconds before you can make another one.</p><p>You can’t dig for more gems or travel to new planets. You just have to sit and wait.</p><br><p><img src='run_exp/static/images/task_images/time_out.jpg'  height='600' width='auto'></p>",,,,,,,1,,,,,,,,,,,,,,,,,,
html-keyboard-response,20,157448,0.0-8.0-2.0,"""event"",""trial"",""time""
""fullscreenenter"",""1"",""2764""
","
","
","""event"",""trial"",""time""
""fullscreenenter"",""1"",""2764""
","
",,664.6999998,"<p>If you don't make your choice fast enough, you’ll have to wait a few seconds before you can make another one.</p><p>You can’t dig for more gems or travel to new planets. You just have to sit and wait.</p><br><p><img src='run_exp/static/images/task_images/time_out.jpg'  height='600' width='auto'></p><button class=""jspsych-html-btn-unchosen""><img src=""run_exp/static/images/task_images/planet-01.jpg"" height=""50""></button><button class=""jspsych-html-btn-chosen""><img src=""run_exp/static/images/task_images/planet-02.jpg"" height=""50""></button><p><b>[press the space bar to lock in your answer]<b><br></p>",32,,,,,,,,,,,,,,,,,,,,,,,,
instruc_break,21,173140,0.0-9.0-0.0,"""event"",""trial"",""time""
""fullscreenenter"",""1"",""2764""
","
","
","""event"",""trial"",""time""
""fullscreenenter"",""1"",""2764""
","
",,null,run_exp/static/audio/clip_8_break.m4a,null,"<p> After digging and traveling for a while, you’ll be able to take a break at home base. </p><p>The game will last 20 minutes no matter what.</p><p>You will visit home base every 5 minutes, so, you will visit home base three times during the game.</p><br><p><img src='run_exp/static/images/task_images/home_base.jpg' height='600' width='auto'></p>",,,,,,,,,,,,,,,,,,,,,,,
instruc_break,22,174164,0.0-9.0-1.0,"""event"",""trial"",""time""
""fullscreenenter"",""1"",""2764""
","
","
","""event"",""trial"",""time""
""fullscreenenter"",""1"",""2764""
","
",,1021.6,"<p> After digging and traveling for a while, you’ll be able to take a break at home base. </p><p>The game will last 20 minutes no matter what.</p><p>You will visit home base every 5 minutes, so, you will visit home base three times during the game.</p><br><p><img src='run_exp/static/images/task_images/home_base.jpg' height='600' width='auto'></p>",,,,,,,1,,,,,,,,,,,,,,,,,,
html-keyboard-response,23,175345,0.0-9.0-2.0,"""event"",""trial"",""time""
""fullscreenenter"",""1"",""2764""
","
","
","""event"",""trial"",""time""
""fullscreenenter"",""1"",""2764""
","
",,1177.2,"<p> After digging and traveling for a while, you’ll be able to take a break at home base. </p><p>The game will last 20 minutes no matter what.</p><p>You will visit home base every 5 minutes, so, you will visit home base three times during the game.</p><br><p><img src='run_exp/static/images/task_images/home_base.jpg' height='600' width='auto'></p><button class=""jspsych-html-btn-unchosen""><img src=""run_exp/static/images/task_images/planet-01.jpg"" height=""50""></button><button class=""jspsych-html-btn-chosen""><img src=""run_exp/static/images/task_images/planet-02.jpg"" height=""50""></button><p><b>[press the space bar to lock in your answer]<b><br></p>",32,,,,,,,,,,,,,,,,,,,,,,,,
instruc_prac_game,24,185490,0.0-10.0-0.0,"""event"",""trial"",""time""
""fullscreenenter"",""1"",""2764""
","
","
","""event"",""trial"",""time""
""fullscreenenter"",""1"",""2764""
","
",,null,run_exp/static/audio/clip_9_practice.m4a,null,"<p> Are you ready to play a practice game? </p> <p>In this practice game, you'll be digging up barrels of gems. But, in the real game, you'll be digging up the gems themselves. </p>",,,,,,,,,,,,,,,,,,,,,,,
html-button-response,25,190333,0.0-10.0-1.0,"""event"",""trial"",""time""
""fullscreenenter"",""1"",""2764""
","
","
","""event"",""trial"",""time""
""fullscreenenter"",""1"",""2764""
","
",,4840.6,"<p> Are you ready to play a practice game? </p> <p>In this practice game, you'll be digging up barrels of gems. But, in the real game, you'll be digging up the gems themselves. </p>",,,,,,,0,,,,,,,,,,,,,,,,,,
alien_welcome_prac,26,195353,0.0-11.0-0.0,"""event"",""trial"",""time""
""fullscreenenter"",""1"",""2764""
","
","
","""event"",""trial"",""time""
""fullscreenenter"",""1"",""2764""
","
",,null,run_exp/static/images/task_images/aliens/practice_aliens/planet/alien_planet-5.jpg,null,,,,,,,,,,,,,,,,,,,,,,,,
land_prac,27,195871,0.0-11.0-1.0,"""event"",""trial"",""time""
""fullscreenenter"",""1"",""2764""
","
","
","""event"",""trial"",""time""
""fullscreenenter"",""1"",""2764""
","
",,null,run_exp/static/images/task_images/land.jpg,null,,,,,,,105,,,0,,,,,,,,,,,,,,
dig_prac,28,197893,0.0-11.0-2.0,"""event"",""trial"",""time""
""fullscreenenter"",""1"",""2764""
","
","
","""event"",""trial"",""time""
""fullscreenenter"",""1"",""2764""
","
",,,,,,,,,,,,"[{""stimulus"":""run_exp/static/images/task_images/dig.jpg"",""time"":0.39999985694885254},{""stimulus"":""run_exp/static/images/task_images/land.jpg"",""time"":685.2999999523163},{""stimulus"":""run_exp/static/images/task_images/dig.jpg"",""time"":1343.3999998569489}]",[],,,,,,,,,,,,,,,
harvest_prac,29,198911,0.0-11.0-3.0,"""event"",""trial"",""time""
""fullscreenenter"",""1"",""2764""
","
","
","""event"",""trial"",""time""
""fullscreenenter"",""1"",""2764""
","
",,null,run_exp/static/images/task_images/barrel_text.jpg,null,,,,,,,,,,,,,,,,,,,,,,,,
decision_prac,30,199484,0.0-11.0-4.0,"""event"",""trial"",""time""
""fullscreenenter"",""1"",""2764""
","
","
","""event"",""trial"",""time""
""fullscreenenter"",""1"",""2764""
","
",,571.5,run_exp/static/images/task_images/land.jpg,65,,,,,,,,,,,1,,,,,,,,,,,,,
dig_prac,31,201497,0.0-12.0-0.0,"""event"",""trial"",""time""
""fullscreenenter"",""1"",""2764""
","
","
","""event"",""trial"",""time""
""fullscreenenter"",""1"",""2764""
","
",,,,,,,,,,,,"[{""stimulus"":""run_exp/static/images/task_images/dig.jpg"",""time"":0.20000004768371582},{""stimulus"":""run_exp/static/images/task_images/land.jpg"",""time"":681.3000001907349},{""stimulus"":""run_exp/static/images/task_images/dig.jpg"",""time"":1337.1000001430511}]",[],,,,,,,,,,,,,,,
harvest_prac,32,202504,0.0-12.0-1.0,"""event"",""trial"",""time""
""fullscreenenter"",""1"",""2764""
","
","
","""event"",""trial"",""time""
""fullscreenenter"",""1"",""2764""
","
",,null,run_exp/static/images/task_images/barrel_text.jpg,null,,,,,,,,,,,,,,,,,,,,,,,,
decision_prac,33,203205,0.0-12.0-2.0,"""event"",""trial"",""time""
""fullscreenenter"",""1"",""2764""
","
","
","""event"",""trial"",""time""
""fullscreenenter"",""1"",""2764""
","
",,699.5,run_exp/static/images/task_images/land.jpg,65,,,,,,,,,,,2,,,,,,,,,,,,,
dig_prac,34,205213,0.0-13.0-0.0,"""event"",""trial"",""time""
""fullscreenenter"",""1"",""2764""
","
","
","""event"",""trial"",""time""
""fullscreenenter"",""1"",""2764""
","
",,,,,,,,,,,,"[{""stimulus"":""run_exp/static/images/task_images/dig.jpg"",""time"":0.2999999523162842},{""stimulus"":""run_exp/static/images/task_images/land.jpg"",""time"":674.7999999523163},{""stimulus"":""run_exp/static/images/task_images/dig.jpg"",""time"":1338.5}]",[],,,,,,,,,,,,,,,
harvest_prac,35,206228,0.0-13.0-1.0,"""event"",""trial"",""time""
""fullscreenenter"",""1"",""2764""
","
","
","""event"",""trial"",""time""
""fullscreenenter"",""1"",""2764""
","
",,null,run_exp/static/images/task_images/barrel_text.jpg,null,,,,,,,,,,,,,,,,,,,,,,,,
decision_prac,36,206536,0.0-13.0-2.0,"""event"",""trial"",""time""
""fullscreenenter"",""1"",""2764""
","
","
","""event"",""trial"",""time""
""fullscreenenter"",""1"",""2764""
","
",,306.5,run_exp/static/images/task_images/land.jpg,65,,,,,,,,,,,3,,,,,,,,,,,,,
dig_prac,37,208546,0.0-14.0-0.0,"""event"",""trial"",""time""
""fullscreenenter"",""1"",""2764""
","
","
","""event"",""trial"",""time""
""fullscreenenter"",""1"",""2764""
","
",,,,,,,,,,,,"[{""stimulus"":""run_exp/static/images/task_images/dig.jpg"",""time"":0.3000001907348633},{""stimulus"":""run_exp/static/images/task_images/land.jpg"",""time"":679.8000001907349},{""stimulus"":""run_exp/static/images/task_images/dig.jpg"",""time"":1338.7000000476837}]",[],,,,,,,,,,,,,,,
harvest_prac,38,209563,0.0-14.0-1.0,"""event"",""trial"",""time""
""fullscreenenter"",""1"",""2764""
","
","
","""event"",""trial"",""time""
""fullscreenenter"",""1"",""2764""
","
",,null,run_exp/static/images/task_images/barrel_text.jpg,null,,,,,,,,,,,,,,,,,,,,,,,,
decision_prac,39,209848,0.0-14.0-2.0,"""event"",""trial"",""time""
""fullscreenenter"",""1"",""2764""
","
","
","""event"",""trial"",""time""
""fullscreenenter"",""1"",""2764""
","
",,282.8,run_exp/static/images/task_images/land.jpg,65,,,,,,,,,,,4,,,,,,,,,,,,,
dig_prac,40,211860,0.0-15.0-0.0,"""event"",""trial"",""time""
""fullscreenenter"",""1"",""2764""
","
","
","""event"",""trial"",""time""
""fullscreenenter"",""1"",""2764""
","
",,,,,,,,,,,,"[{""stimulus"":""run_exp/static/images/task_images/dig.jpg"",""time"":0.40000009536743164},{""stimulus"":""run_exp/static/images/task_images/land.jpg"",""time"":671.6000001430511},{""stimulus"":""run_exp/static/images/task_images/dig.jpg"",""time"":1345.4000000953674}]",[],,,,,,,,,,,,,,,
harvest_prac,41,212871,0.0-15.0-1.0,"""event"",""trial"",""time""
""fullscreenenter"",""1"",""2764""
","
","
","""event"",""trial"",""time""
""fullscreenenter"",""1"",""2764""
","
",,null,run_exp/static/images/task_images/barrel_text.jpg,null,,,,,,,,,,,,,,,,,,,,,,,,
decision_prac,42,213106,0.0-15.0-2.0,"""event"",""trial"",""time""
""fullscreenenter"",""1"",""2764""
","
","
","""event"",""trial"",""time""
""fullscreenenter"",""1"",""2764""
","
",,233.8999999,run_exp/static/images/task_images/land.jpg,65,,,,,,,,,,,,1,,,,,,,,,,,,
quiz_instruc,43,215614,0.0-16.0-0.0,"""event"",""trial"",""time""
""fullscreenenter"",""1"",""2764""
","
","
","""event"",""trial"",""time""
""fullscreenenter"",""1"",""2764""
","
",,2502.7,run_exp/static/audio/clip_10_quiz.m4a,,,,,,,0,,,,,,,,,,,,,,,,,,
instruc_repeat,44,258402,0.0-16.0-1.0,"""event"",""trial"",""time""
""fullscreenenter"",""1"",""2764""
","
","
","""event"",""trial"",""time""
""fullscreenenter"",""1"",""2764""
","
",,null,"<p> Are you ready to play a practice game? </p> <p>In this practice game, you'll be digging up barrels of gems. But, in the real game, you'll be digging up the gems themselves. </p>",null,"<p>In this game, your goal is to collect as many gems as you can. That’s how you will win bonus money. </p> <p>The entire game will last 20 minutes no matter how many gems you collect or how many planets you visit. </p><p>To stay on a planet and dig again, press the letter A on your keyboard. To leave for a new planet, press the letter L.</p><p>The more you dig on a planet, the fewer gems you’ll get with each dig which is why you might consider leaving for a new planet. </p><p>When you arrive at a new planet, you’ll be greeted by an alien. What the alien looks like does not tell you anything about how much treasure is on the planet. </p>",,,,,,,,,,,,,,,,,,,,,,,
instruc_repeat_continue,45,259841,0.0-16.0-2.0,"""event"",""trial"",""time""
""fullscreenenter"",""1"",""2764""
","
","
","""event"",""trial"",""time""
""fullscreenenter"",""1"",""2764""
","
",,1436.8,"<p> Are you ready to play a practice game? </p> <p>In this practice game, you'll be digging up barrels of gems. But, in the real game, you'll be digging up the gems themselves. </p>",,,,,,,0,,,,,,,,,,,,,,,,,,
quiz_q_1_ask,46,262985,0.0-16.0-3.0,"""event"",""trial"",""time""
""fullscreenenter"",""1"",""2764""
","
","
","""event"",""trial"",""time""
""fullscreenenter"",""1"",""2764""
","
",,3137.8,run_exp/static/audio/clip_11_q1_ask.m4a,,,,,,,2,,,,,,,,,,,,,,,,,,
quiz_q_1_fb_correct,47,266845,0.0-17.0-0.0,"""event"",""trial"",""time""
""fullscreenenter"",""1"",""2764""
","
","
","""event"",""trial"",""time""
""fullscreenenter"",""1"",""2764""
","
",,null,run_exp/static/audio/clip_12_q1_correct.m4a,null,<p>That’s correct. You win extra money by collecting more gems.</p>,,,,,,,,,,,,,,,,,,,,,,,
quiz_q_2_ask,48,268838,0.0-17.0-1.0,"""event"",""trial"",""time""
""fullscreenenter"",""1"",""2764""
","
","
","""event"",""trial"",""time""
""fullscreenenter"",""1"",""2764""
","
",,1989.9,run_exp/static/audio/clip_14_q2_ask.m4a,,,,,,,1,,,,,,,,,,,,,,,,,,
quiz_q_2_fb_correct,49,272861,0.0-18.0-0.0,"""event"",""trial"",""time""
""fullscreenenter"",""1"",""2764""
","
","
","""event"",""trial"",""time""
""fullscreenenter"",""1"",""2764""
","
",,null,run_exp/static/audio/clip_15_q2_correct.m4a,null,<p>That’s correct. The experiment is 20 minutes no matter what.</p>,,,,,,,,,,,,,,,,,,,,,,,
quiz_q_3_ask,50,275836,0.0-18.0-1.0,"""event"",""trial"",""time""
""fullscreenenter"",""1"",""2764""
","
","
","""event"",""trial"",""time""
""fullscreenenter"",""1"",""2764""
","
",,2970.2,run_exp/static/audio/clip_17_q3_ask.m4a,,,,,,,1,,,,,,,,,,,,,,,,,,
quiz_q_3_fb_correct,51,279836,0.0-19.0-0.0,"""event"",""trial"",""time""
""fullscreenenter"",""1"",""2764""
","
","
","""event"",""trial"",""time""
""fullscreenenter"",""1"",""2764""
","
",,null,run_exp/static/audio/clip_18_q3_correct.m4a,null,<p> That’s correct. You press the letter L to travel to a new planet.</p>,,,,,,,,,,,,,,,,,,,,,,,
quiz_q_4_ask,52,282905,0.0-19.0-1.0,"""event"",""trial"",""time""
""fullscreenenter"",""1"",""2764""
","
","
","""event"",""trial"",""time""
""fullscreenenter"",""1"",""2764""
","
",,3066.2,run_exp/static/audio/clip_20_q4_ask.m4a,,,,,,,0,,,,,,,,,,,,,,,,,,
quiz_q_4_fb_correct,53,288241,0.0-20.0-0.0,"""event"",""trial"",""time""
""fullscreenenter"",""1"",""2764""
","
","
","""event"",""trial"",""time""
""fullscreenenter"",""1"",""2764""
","
",,null,run_exp/static/audio/clip_21_q4_correct.m4a,null,<p> That’s correct. The more you dig on a planet the fewer gems you’ll get with each dig. </p>,,,,,,,,,,,,,,,,,,,,,,,
quiz_q_5_ask,54,290963,0.0-20.0-1.0,"""event"",""trial"",""time""
""fullscreenenter"",""1"",""2764""
","
","
","""event"",""trial"",""time""
""fullscreenenter"",""1"",""2764""
","
",,2715.1,run_exp/static/audio/clip_23_q5_ask.m4a,,,,,,,1,,,,,,,,,,,,,,,,,,
quiz_q_5_fb_correct,55,295985,0.0-21.0-0.0,"""event"",""trial"",""time""
""fullscreenenter"",""1"",""2764""
","
","
","""event"",""trial"",""time""
""fullscreenenter"",""1"",""2764""
","
",,null,run_exp/static/audio/clip_24_q5_correct.m4a,null,<p> That’s correct. The alien tells you nothing about how much treasure is on the planet.</p>,,,,,,,,,,,,,,,,,,,,,,,
quiz_correct,56,299463,0.0-22.0-0.0,"""event"",""trial"",""time""
""fullscreenenter"",""1"",""2764""
","
","
","""event"",""trial"",""time""
""fullscreenenter"",""1"",""2764""
","
",,null,run_exp/static/audio/clip_26_correct_quiz.m4a,null,,,,,,,,,,,,,,,,,,,,,,,,
quiz_correct_continue,57,300659,0.0-22.0-1.0,"""event"",""trial"",""time""
""fullscreenenter"",""1"",""2764""
","
","
","""event"",""trial"",""time""
""fullscreenenter"",""1"",""2764""
","
",,1194.4,<p>Good job! You're now ready to move on to the real game!</p>,,,,,,,0,,,,,,,,,,,,,,,,,,
audio-keyboard-response,58,310812,0.0-22.0-2.0,"""event"",""trial"",""time""
""fullscreenenter"",""1"",""2764""
","
","
","""event"",""trial"",""time""
""fullscreenenter"",""1"",""2764""
","
",,null,run_exp/static/audio/clip_28_real_game.m4a,null,,,,,,,,,,,,,,,,,,,,,,,,
instruc_begin_exp_contine,59,313426,0.0-22.0-3.0,"""event"",""trial"",""time""
""fullscreenenter"",""1"",""2764""
","
","
","""event"",""trial"",""time""
""fullscreenenter"",""1"",""2764""
","
",,2611.7,"<p>Now that you know how  to dig for space treasure and travel to new planets,you can start exploring! </p><p>Do you want to go over the instructions again or get started with the real game?</p>",,,,,,,1,,,,,,1,,,,,,,,,,,,
alien_welcome,60,318433,0.0-23.0-0.0,"""event"",""trial"",""time""
""fullscreenenter"",""1"",""2764""
","
","
","""event"",""trial"",""time""
""fullscreenenter"",""1"",""2764""
","
",,null,run_exp/static/images/task_images/aliens/old_aliens/planet/alien_planet-25.jpg,null,,,,,,,,,,,,,25,"25,6,16,80,28,61,73,24,43,15,35,59,63,39,79,53,1,14,77,2,66,51,3,44,54,22,78,12,5,10,7",,,,,,,,,,
land,61,318935,0.0-23.0-1.0,"""event"",""trial"",""time""
""fullscreenenter"",""1"",""2764""
","
","
","""event"",""trial"",""time""
""fullscreenenter"",""1"",""2764""
","
",,null,run_exp/static/images/task_images/land.jpg,null,,,,,,,110,,,1,,,,,,,,,,,,,,
dig,62,320954,0.0-23.0-2.0,"""event"",""trial"",""time""
""fullscreenenter"",""1"",""2764""
","
","
","""event"",""trial"",""time""
""fullscreenenter"",""1"",""2764""
","
",,,,,,,,,,,,"[{""stimulus"":""run_exp/static/images/task_images/dig.jpg"",""time"":0.2999999523162842},{""stimulus"":""run_exp/static/images/task_images/land.jpg"",""time"":682.7999999523163},{""stimulus"":""run_exp/static/images/task_images/dig.jpg"",""time"":1340.2000000476837}]",[],1,,,,,,,,,,,,,,
harvest,63,321973,0.0-23.0-3.0,"""event"",""trial"",""time""
""fullscreenenter"",""1"",""2764""
","
","
","""event"",""trial"",""time""
""fullscreenenter"",""1"",""2764""
","
",,null,run_exp/static/images/task_images/gems/110.jpg,null,,,,,,,16,,,1,,,,,110,0.146030703,0.145454545,,,,,,,
decision,64,322355,0.0-23.0-4.0,"""event"",""trial"",""time""
""fullscreenenter"",""1"",""2764""
","
","
","""event"",""trial"",""time""
""fullscreenenter"",""1"",""2764""
","
",,379.7,run_exp/static/images/task_images/land.jpg,65,,,,,,,16,,,1,,,,,,,,8928,1,0,FALSE,,,
dig,65,324984,0.0-24.0-0.0,"""event"",""trial"",""time""
""fullscreenenter"",""1"",""2764""
","
","
","""event"",""trial"",""time""
""fullscreenenter"",""1"",""2764""
","
",,,,,,,,,,,,"[{""stimulus"":""run_exp/static/images/task_images/dig.jpg"",""time"":0.2999999523162842},{""stimulus"":""run_exp/static/images/task_images/land.jpg"",""time"":877.0999999046326},{""stimulus"":""run_exp/static/images/task_images/dig.jpg"",""time"":1765}]",[],1,,,,,,,,,,,,,,
harvest,66,325991,0.0-24.0-1.0,"""event"",""trial"",""time""
""fullscreenenter"",""1"",""2764""
","
","
","""event"",""trial"",""time""
""fullscreenenter"",""1"",""2764""
","
",,null,run_exp/static/images/task_images/gems/16.jpg,null,,,,,,,2,,,1,,,,,16,0.110672927,0.125,,,,,,,
decision,67,326399,0.0-24.0-2.0,"""event"",""trial"",""time""
""fullscreenenter"",""1"",""2764""
","
","
","""event"",""trial"",""time""
""fullscreenenter"",""1"",""2764""
","
",,406.3999999,run_exp/static/images/task_images/land.jpg,65,,,,,,,2,,,1,,,,,,,,12971,1,1,FALSE,,,
dig,68,329002,0.0-25.0-0.0,"""event"",""trial"",""time""
""fullscreenenter"",""1"",""2764""
","
","
","""event"",""trial"",""time""
""fullscreenenter"",""1"",""2764""
","
",,,,,,,,,,,,"[{""stimulus"":""run_exp/static/images/task_images/dig.jpg"",""time"":0.2999999523162842},{""stimulus"":""run_exp/static/images/task_images/land.jpg"",""time"":878.6999998092651},{""stimulus"":""run_exp/static/images/task_images/dig.jpg"",""time"":1742.5999999046326}]",[],1,,,,,,,,,,,,,,
harvest,69,330018,0.0-25.0-1.0,"""event"",""trial"",""time""
""fullscreenenter"",""1"",""2764""
","
","
","""event"",""trial"",""time""
""fullscreenenter"",""1"",""2764""
","
",,null,run_exp/static/images/task_images/gems/2.jpg,null,,,,,,,0,,,1,,,,,2,0.237134531,0,,,,,,,
decision,70,330315,0.0-25.0-2.0,"""event"",""trial"",""time""
""fullscreenenter"",""1"",""2764""
","
","
","""event"",""trial"",""time""
""fullscreenenter"",""1"",""2764""
","
",,295.3999999,run_exp/static/images/task_images/land.jpg,65,,,,,,,0,,,1,,,,,,,,16887,1,2,FALSE,,,
dig,71,333034,0.0-26.0-0.0,"""event"",""trial"",""time""
""fullscreenenter"",""1"",""2764""
","
","
","""event"",""trial"",""time""
""fullscreenenter"",""1"",""2764""
","
",,,,,,,,,,,,"[{""stimulus"":""run_exp/static/images/task_images/dig.jpg"",""time"":0.20000004768371582},{""stimulus"":""run_exp/static/images/task_images/land.jpg"",""time"":909.2000000476837},{""stimulus"":""run_exp/static/images/task_images/dig.jpg"",""time"":1808.1000001430511}]",[],1,,,,,,,,,,,,,,
harvest,72,334039,0.0-26.0-1.0,"""event"",""trial"",""time""
""fullscreenenter"",""1"",""2764""
","
","
","""event"",""trial"",""time""
""fullscreenenter"",""1"",""2764""
","
",,null,run_exp/static/images/task_images/gems/0.jpg,null,,,,,,,0,,,1,,,,,0,0.080316505,NaN,,,,,,,
decision,73,334991,0.0-26.0-2.0,"""event"",""trial"",""time""
""fullscreenenter"",""1"",""2764""
","
","
","""event"",""trial"",""time""
""fullscreenenter"",""1"",""2764""
","
",,948.9000001,run_exp/static/images/task_images/land.jpg,76,,,,,,,0,,,1,,,,,,,,21563,1,3,TRUE,,,
travel,74,344053,0.0-27.0-0.0,"""event"",""trial"",""time""
""fullscreenenter"",""1"",""2764""
","
","
","""event"",""trial"",""time""
""fullscreenenter"",""1"",""2764""
","
",,,,,,,,,,,,"[{""stimulus"":""run_exp/static/images/task_images/rocket-01.jpg"",""time"":0.2999999523162842},{""stimulus"":""run_exp/static/images/task_images/rocket-02.jpg"",""time"":1019.8999998569489},{""stimulus"":""run_exp/static/images/task_images/rocket-03.jpg"",""time"":2024.5999999046326},{""stimulus"":""run_exp/static/images/task_images/rocket-04.jpg"",""time"":3019.399999856949},{""stimulus"":""run_exp/static/images/task_images/rocket-05.jpg"",""time"":4031.5999999046326},{""stimulus"":""run_exp/static/images/task_images/rocket-06.jpg"",""time"":5039.599999904633},{""stimulus"":""run_exp/static/images/task_images/rocket-07.jpg"",""time"":6045},{""stimulus"":""run_exp/static/images/task_images/rocket-08.jpg"",""time"":7049.299999952316},{""stimulus"":""run_exp/static/images/task_images/rocket-09.jpg"",""time"":8046.699999809265}]",[],1,,,,,,,,,,,,,,
alien_welcome,75,349066,0.0-27.0-1.0,"""event"",""trial"",""time""
""fullscreenenter"",""1"",""2764""
","
","
","""event"",""trial"",""time""
""fullscreenenter"",""1"",""2764""
","
",,null,run_exp/static/images/task_images/aliens/old_aliens/planet/alien_planet-6.jpg,null,,,,,,,,,,,,,6,"25,6,16,80,28,61,73,24,43,15,35,59,63,39,79,53,1,14,77,2,66,51,3,44,54,22,78,12,5,10,7",,,,,,,,,,
land,76,349570,0.0-27.0-2.0,"""event"",""trial"",""time""
""fullscreenenter"",""1"",""2764""
","
","
","""event"",""trial"",""time""
""fullscreenenter"",""1"",""2764""
","
",,null,run_exp/static/images/task_images/land.jpg,null,,,,,,,102,,,2,,,,,,,,,,,,,,
dig,77,351590,0.0-27.0-3.0,"""event"",""trial"",""time""
""fullscreenenter"",""1"",""2764""
","
","
","""event"",""trial"",""time""
""fullscreenenter"",""1"",""2764""
","
",,,,,,,,,,,,"[{""stimulus"":""run_exp/static/images/task_images/dig.jpg"",""time"":0.40000009536743164},{""stimulus"":""run_exp/static/images/task_images/land.jpg"",""time"":673.9000000953674},{""stimulus"":""run_exp/static/images/task_images/dig.jpg"",""time"":1339}]",[],2,,,,,,,,,,,,,,
harvest,78,352593,0.0-27.0-4.0,"""event"",""trial"",""time""
""fullscreenenter"",""1"",""2764""
","
","
","""event"",""trial"",""time""
""fullscreenenter"",""1"",""2764""
","
",,null,run_exp/static/images/task_images/gems/102.jpg,null,,,,,,,29,,,2,,,,,102,0.284239543,0.284313725,,,,,,,
decision,79,353035,0.0-27.0-5.0,"""event"",""trial"",""time""
""fullscreenenter"",""1"",""2764""
","
","
","""event"",""trial"",""time""
""fullscreenenter"",""1"",""2764""
","
",,439.7,run_exp/static/images/task_images/land.jpg,65,,,,,,,29,,,2,,,,,,,,39607,1,0,FALSE,,,
dig,80,355604,0.0-28.0-0.0,"""event"",""trial"",""time""
""fullscreenenter"",""1"",""2764""
","
","
","""event"",""trial"",""time""
""fullscreenenter"",""1"",""2764""
","
",,,,,,,,,,,,"[{""stimulus"":""run_exp/static/images/task_images/dig.jpg"",""time"":0.20000004768371582},{""stimulus"":""run_exp/static/images/task_images/land.jpg"",""time"":862.2000000476837},{""stimulus"":""run_exp/static/images/task_images/dig.jpg"",""time"":1715.9000000953674}]",[],2,,,,,,,,,,,,,,
harvest,81,356614,0.0-28.0-1.0,"""event"",""trial"",""time""
""fullscreenenter"",""1"",""2764""
","
","
","""event"",""trial"",""time""
""fullscreenenter"",""1"",""2764""
","
",,null,run_exp/static/images/task_images/gems/29.jpg,null,,,,,,,7,,,2,,,,,29,0.256072748,0.24137931,,,,,,,
decision,82,356957,0.0-28.0-2.0,"""event"",""trial"",""time""
""fullscreenenter"",""1"",""2764""
","
","
","""event"",""trial"",""time""
""fullscreenenter"",""1"",""2764""
","
",,340.9000001,run_exp/static/images/task_images/land.jpg,65,,,,,,,7,,,2,,,,,,,,43529,1,1,FALSE,,,
dig,83,359624,0.0-29.0-0.0,"""event"",""trial"",""time""
""fullscreenenter"",""1"",""2764""
","
","
","""event"",""trial"",""time""
""fullscreenenter"",""1"",""2764""
","
",,,,,,,,,,,,"[{""stimulus"":""run_exp/static/images/task_images/dig.jpg"",""time"":0.20000004768371582},{""stimulus"":""run_exp/static/images/task_images/land.jpg"",""time"":888.5},{""stimulus"":""run_exp/static/images/task_images/dig.jpg"",""time"":1785.2000000476837}]",[],2,,,,,,,,,,,,,,
harvest,84,360627,0.0-29.0-1.0,"""event"",""trial"",""time""
""fullscreenenter"",""1"",""2764""
","
","
","""event"",""trial"",""time""
""fullscreenenter"",""1"",""2764""
","
",,null,run_exp/static/images/task_images/gems/7.jpg,null,,,,,,,2,,,2,,,,,7,0.294848499,0.285714286,,,,,,,
decision,85,360883,0.0-29.0-2.0,"""event"",""trial"",""time""
""fullscreenenter"",""1"",""2764""
","
","
","""event"",""trial"",""time""
""fullscreenenter"",""1"",""2764""
","
",,253.6000001,run_exp/static/images/task_images/land.jpg,65,,,,,,,2,,,2,,,,,,,,47455,1,2,FALSE,,,
dig,86,363639,0.0-30.0-0.0,"""event"",""trial"",""time""
""fullscreenenter"",""1"",""2764""
","
","
","""event"",""trial"",""time""
""fullscreenenter"",""1"",""2764""
","
",,,,,,,,,,,,"[{""stimulus"":""run_exp/static/images/task_images/dig.jpg"",""time"":0.40000009536743164},{""stimulus"":""run_exp/static/images/task_images/land.jpg"",""time"":920.2000000476837},{""stimulus"":""run_exp/static/images/task_images/dig.jpg"",""time"":1833.6000001430511}]",[],2,,,,,,,,,,,,,,
harvest,87,364655,0.0-30.0-1.0,"""event"",""trial"",""time""
""fullscreenenter"",""1"",""2764""
","
","
","""event"",""trial"",""time""
""fullscreenenter"",""1"",""2764""
","
",,null,run_exp/static/images/task_images/gems/2.jpg,null,,,,,,,0,,,2,,,,,2,0.224297885,0,,,,,,,
decision,88,365004,0.0-30.0-2.0,"""event"",""trial"",""time""
""fullscreenenter"",""1"",""2764""
","
","
","""event"",""trial"",""time""
""fullscreenenter"",""1"",""2764""
","
",,347.8999999,run_exp/static/images/task_images/land.jpg,76,,,,,,,0,,,2,,,,,,,,51576,1,3,TRUE,,,
travel,89,374661,0.0-31.0-0.0,"""event"",""trial"",""time""
""fullscreenenter"",""1"",""2764""
","
","
","""event"",""trial"",""time""
""fullscreenenter"",""1"",""2764""
","
",,,,,,,,,,,,"[{""stimulus"":""run_exp/static/images/task_images/rocket-01.jpg"",""time"":0.2999999523162842},{""stimulus"":""run_exp/static/images/task_images/rocket-02.jpg"",""time"":1085.5999999046326},{""stimulus"":""run_exp/static/images/task_images/rocket-03.jpg"",""time"":2146.899999856949},{""stimulus"":""run_exp/static/images/task_images/rocket-04.jpg"",""time"":3225.699999809265},{""stimulus"":""run_exp/static/images/task_images/rocket-05.jpg"",""time"":4295.399999856949},{""stimulus"":""run_exp/static/images/task_images/rocket-06.jpg"",""time"":5376.099999904633},{""stimulus"":""run_exp/static/images/task_images/rocket-07.jpg"",""time"":6443.699999809265},{""stimulus"":""run_exp/static/images/task_images/rocket-08.jpg"",""time"":7513.299999952316},{""stimulus"":""run_exp/static/images/task_images/rocket-09.jpg"",""time"":8585.399999856949}]",[],2,,,,,,,,,,,,,,
alien_welcome,90,379679,0.0-31.0-1.0,"""event"",""trial"",""time""
""fullscreenenter"",""1"",""2764""
","
","
","""event"",""trial"",""time""
""fullscreenenter"",""1"",""2764""
","
",,null,run_exp/static/images/task_images/aliens/old_aliens/planet/alien_planet-16.jpg,null,,,,,,,,,,,,,16,"25,6,16,80,28,61,73,24,43,15,35,59,63,39,79,53,1,14,77,2,66,51,3,44,54,22,78,12,5,10,7",,,,,,,,,,
land,91,380194,0.0-31.0-2.0,"""event"",""trial"",""time""
""fullscreenenter"",""1"",""2764""
","
","
","""event"",""trial"",""time""
""fullscreenenter"",""1"",""2764""
","
",,null,run_exp/static/images/task_images/land.jpg,null,,,,,,,101,,,3,,,,,,,,,,,,,,
dig,92,382213,0.0-31.0-3.0,"""event"",""trial"",""time""
""fullscreenenter"",""1"",""2764""
","
","
","""event"",""trial"",""time""
""fullscreenenter"",""1"",""2764""
","
",,,,,,,,,,,,"[{""stimulus"":""run_exp/static/images/task_images/dig.jpg"",""time"":0.5999999046325684},{""stimulus"":""run_exp/static/images/task_images/land.jpg"",""time"":688.0999999046326},{""stimulus"":""run_exp/static/images/task_images/dig.jpg"",""time"":1348.7000000476837}]",[],3,,,,,,,,,,,,,,
harvest,93,383217,0.0-31.0-4.0,"""event"",""trial"",""time""
""fullscreenenter"",""1"",""2764""
","
","
","""event"",""trial"",""time""
""fullscreenenter"",""1"",""2764""
","
",,null,run_exp/static/images/task_images/gems/101.jpg,null,,,,,,,57,,,3,,,,,101,0.560517903,0.564356436,,,,,,,
decision,94,383859,0.0-31.0-5.0,"""event"",""trial"",""time""
""fullscreenenter"",""1"",""2764""
","
","
","""event"",""trial"",""time""
""fullscreenenter"",""1"",""2764""
","
",,640.5,run_exp/static/images/task_images/land.jpg,65,,,,,,,57,,,3,,,,,,,,70432,1,0,FALSE,,,
dig,95,386223,0.0-32.0-0.0,"""event"",""trial"",""time""
""fullscreenenter"",""1"",""2764""
","
","
","""event"",""trial"",""time""
""fullscreenenter"",""1"",""2764""
","
",,,,,,,,,,,,"[{""stimulus"":""run_exp/static/images/task_images/dig.jpg"",""time"":0.19999980926513672},{""stimulus"":""run_exp/static/images/task_images/land.jpg"",""time"":789},{""stimulus"":""run_exp/static/images/task_images/dig.jpg"",""time"":1575.5}]",[],3,,,,,,,,,,,,,,
harvest,96,387236,0.0-32.0-1.0,"""event"",""trial"",""time""
""fullscreenenter"",""1"",""2764""
","
","
","""event"",""trial"",""time""
""fullscreenenter"",""1"",""2764""
","
",,null,run_exp/static/images/task_images/gems/57.jpg,null,,,,,,,24,,,3,,,,,57,0.423069106,0.421052632,,,,,,,
decision,97,387565,0.0-32.0-2.0,"""event"",""trial"",""time""
""fullscreenenter"",""1"",""2764""
","
","
","""event"",""trial"",""time""
""fullscreenenter"",""1"",""2764""
","
",,327.3,run_exp/static/images/task_images/land.jpg,65,,,,,,,24,,,3,,,,,,,,74137,1,1,FALSE,,,
dig,98,390251,0.0-33.0-0.0,"""event"",""trial"",""time""
""fullscreenenter"",""1"",""2764""
","
","
","""event"",""trial"",""time""
""fullscreenenter"",""1"",""2764""
","
",,,,,,,,,,,,"[{""stimulus"":""run_exp/static/images/task_images/dig.jpg"",""time"":0.2999999523162842},{""stimulus"":""run_exp/static/images/task_images/land.jpg"",""time"":909.2000000476837},{""stimulus"":""run_exp/static/images/task_images/dig.jpg"",""time"":1785.7000000476837}]",[],3,,,,,,,,,,,,,,
harvest,99,391260,0.0-33.0-1.0,"""event"",""trial"",""time""
""fullscreenenter"",""1"",""2764""
","
","
","""event"",""trial"",""time""
""fullscreenenter"",""1"",""2764""
","
",,null,run_exp/static/images/task_images/gems/24.jpg,null,,,,,,,13,,,3,,,,,24,0.524097064,0.541666667,,,,,,,
decision,100,391631,0.0-33.0-2.0,"""event"",""trial"",""time""
""fullscreenenter"",""1"",""2764""
","
","
","""event"",""trial"",""time""
""fullscreenenter"",""1"",""2764""
","
",,369,run_exp/static/images/task_images/land.jpg,65,,,,,,,13,,,3,,,,,,,,78203,1,2,FALSE,,,
dig,101,394275,0.0-34.0-0.0,"""event"",""trial"",""time""
""fullscreenenter"",""1"",""2764""
","
","
","""event"",""trial"",""time""
""fullscreenenter"",""1"",""2764""
","
",,,,,,,,,,,,"[{""stimulus"":""run_exp/static/images/task_images/dig.jpg"",""time"":0.2999999523162842},{""stimulus"":""run_exp/static/images/task_images/land.jpg"",""time"":884.5},{""stimulus"":""run_exp/static/images/task_images/dig.jpg"",""time"":1767.1000001430511}]",[],3,,,,,,,,,,,,,,
harvest,102,395281,0.0-34.0-1.0,"""event"",""trial"",""time""
""fullscreenenter"",""1"",""2764""
","
","
","""event"",""trial"",""time""
""fullscreenenter"",""1"",""2764""
","
",,null,run_exp/static/images/task_images/gems/13.jpg,null,,,,,,,6,,,3,,,,,13,0.479505959,0.461538462,,,,,,,
decision,103,395500,0.0-34.0-2.0,"""event"",""trial"",""time""
""fullscreenenter"",""1"",""2764""
","
","
","""event"",""trial"",""time""
""fullscreenenter"",""1"",""2764""
","
",,216.9000001,run_exp/static/images/task_images/land.jpg,65,,,,,,,6,,,3,,,,,,,,82072,1,3,FALSE,,,
dig,104,398301,0.0-35.0-0.0,"""event"",""trial"",""time""
""fullscreenenter"",""1"",""2764""
","
","
","""event"",""trial"",""time""
""fullscreenenter"",""1"",""2764""
","
",,,,,,,,,,,,"[{""stimulus"":""run_exp/static/images/task_images/dig.jpg"",""time"":0.39999985694885254},{""stimulus"":""run_exp/static/images/task_images/land.jpg"",""time"":929.5},{""stimulus"":""run_exp/static/images/task_images/dig.jpg"",""time"":1857.3999998569489}]",[],3,,,,,,,,,,,,,,
harvest,105,399314,0.0-35.0-1.0,"""event"",""trial"",""time""
""fullscreenenter"",""1"",""2764""
","
","
","""event"",""trial"",""time""
""fullscreenenter"",""1"",""2764""
","
",,null,run_exp/static/images/task_images/gems/6.jpg,null,,,,,,,3,,,3,,,,,6,0.489436144,0.5,,,,,,,
decision,106,399644,0.0-35.0-2.0,"""event"",""trial"",""time""
""fullscreenenter"",""1"",""2764""
","
","
","""event"",""trial"",""time""
""fullscreenenter"",""1"",""2764""
","
",,328.5999999,run_exp/static/images/task_images/land.jpg,76,,,,,,,3,,,3,,,,,,,,86216,1,4,TRUE,,,
travel,107,409328,0.0-36.0-0.0,"""event"",""trial"",""time""
""fullscreenenter"",""1"",""2764""
","
","
","""event"",""trial"",""time""
""fullscreenenter"",""1"",""2764""
","
",,,,,,,,,,,,"[{""stimulus"":""run_exp/static/images/task_images/rocket-01.jpg"",""time"":0.2999999523162842},{""stimulus"":""run_exp/static/images/task_images/rocket-02.jpg"",""time"":1075.5999999046326},{""stimulus"":""run_exp/static/images/task_images/rocket-03.jpg"",""time"":2157.0999999046326},{""stimulus"":""run_exp/static/images/task_images/rocket-04.jpg"",""time"":3224.399999856949},{""stimulus"":""run_exp/static/images/task_images/rocket-05.jpg"",""time"":4304.700000047684},{""stimulus"":""run_exp/static/images/task_images/rocket-06.jpg"",""time"":5384.899999856949},{""stimulus"":""run_exp/static/images/task_images/rocket-07.jpg"",""time"":6449.299999952316},{""stimulus"":""run_exp/static/images/task_images/rocket-08.jpg"",""time"":7534.899999856949},{""stimulus"":""run_exp/static/images/task_images/rocket-09.jpg"",""time"":8605.299999952316}]",[],3,,,,,,,,,,,,,,
alien_welcome,108,414336,0.0-36.0-1.0,"""event"",""trial"",""time""
""fullscreenenter"",""1"",""2764""
","
","
","""event"",""trial"",""time""
""fullscreenenter"",""1"",""2764""
","
",,null,run_exp/static/images/task_images/aliens/old_aliens/planet/alien_planet-80.jpg,null,,,,,,,,,,,,,80,"25,6,16,80,28,61,73,24,43,15,35,59,63,39,79,53,1,14,77,2,66,51,3,44,54,22,78,12,5,10,7",,,,,,,,,,
land,109,414841,0.0-36.0-2.0,"""event"",""trial"",""time""
""fullscreenenter"",""1"",""2764""
","
","
","""event"",""trial"",""time""
""fullscreenenter"",""1"",""2764""
","
",,null,run_exp/static/images/task_images/land.jpg,null,,,,,,,104,,,4,,,,,,,,,,,,,,
dig,110,416849,0.0-36.0-3.0,"""event"",""trial"",""time""
""fullscreenenter"",""1"",""2764""
","
","
","""event"",""trial"",""time""
""fullscreenenter"",""1"",""2764""
","
",,,,,,,,,,,,"[{""stimulus"":""run_exp/static/images/task_images/dig.jpg"",""time"":0.39999985694885254},{""stimulus"":""run_exp/static/images/task_images/land.jpg"",""time"":675.5},{""stimulus"":""run_exp/static/images/task_images/dig.jpg"",""time"":1339.1999998092651}]",[],4,,,,,,,,,,,,,,
harvest,111,417865,0.0-36.0-4.0,"""event"",""trial"",""time""
""fullscreenenter"",""1"",""2764""
","
","
","""event"",""trial"",""time""
""fullscreenenter"",""1"",""2764""
","
",,null,run_exp/static/images/task_images/gems/104.jpg,null,,,,,,,46,,,4,,,,,104,0.444855765,0.442307692,,,,,,,
decision,112,418341,0.0-36.0-5.0,"""event"",""trial"",""time""
""fullscreenenter"",""1"",""2764""
","
","
","""event"",""trial"",""time""
""fullscreenenter"",""1"",""2764""
","
",,473.0999999,run_exp/static/images/task_images/land.jpg,65,,,,,,,46,,,4,,,,,,,,104913,1,0,FALSE,,,
dig,113,420883,0.0-37.0-0.0,"""event"",""trial"",""time""
""fullscreenenter"",""1"",""2764""
","
","
","""event"",""trial"",""time""
""fullscreenenter"",""1"",""2764""
","
",,,,,,,,,,,,"[{""stimulus"":""run_exp/static/images/task_images/dig.jpg"",""time"":0.2999999523162842},{""stimulus"":""run_exp/static/images/task_images/land.jpg"",""time"":843.9000000953674},{""stimulus"":""run_exp/static/images/task_images/dig.jpg"",""time"":1700.4000000953674}]",[],4,,,,,,,,,,,,,,
harvest,114,421897,0.0-37.0-1.0,"""event"",""trial"",""time""
""fullscreenenter"",""1"",""2764""
","
","
","""event"",""trial"",""time""
""fullscreenenter"",""1"",""2764""
","
",,null,run_exp/static/images/task_images/gems/46.jpg,null,,,,,,,23,,,4,,,,,46,0.509875585,0.5,,,,,,,
decision,115,422257,0.0-37.0-2.0,"""event"",""trial"",""time""
""fullscreenenter"",""1"",""2764""
","
","
","""event"",""trial"",""time""
""fullscreenenter"",""1"",""2764""
","
",,358,run_exp/static/images/task_images/land.jpg,65,,,,,,,23,,,4,,,,,,,,108829,1,1,FALSE,,,
dig,116,424919,0.0-38.0-0.0,"""event"",""trial"",""time""
""fullscreenenter"",""1"",""2764""
","
","
","""event"",""trial"",""time""
""fullscreenenter"",""1"",""2764""
","
",,,,,,,,,,,,"[{""stimulus"":""run_exp/static/images/task_images/dig.jpg"",""time"":0.2999999523162842},{""stimulus"":""run_exp/static/images/task_images/land.jpg"",""time"":891.5},{""stimulus"":""run_exp/static/images/task_images/dig.jpg"",""time"":1775.2000000476837}]",[],4,,,,,,,,,,,,,,
harvest,117,425922,0.0-38.0-1.0,"""event"",""trial"",""time""
""fullscreenenter"",""1"",""2764""
","
","
","""event"",""trial"",""time""
""fullscreenenter"",""1"",""2764""
","
",,null,run_exp/static/images/task_images/gems/23.jpg,null,,,,,,,11,,,4,,,,,23,0.492529202,0.47826087,,,,,,,
decision,118,426234,0.0-38.0-2.0,"""event"",""trial"",""time""
""fullscreenenter"",""1"",""2764""
","
","
","""event"",""trial"",""time""
""fullscreenenter"",""1"",""2764""
","
",,309.5999999,run_exp/static/images/task_images/land.jpg,76,,,,,,,11,,,4,,,,,,,,112806,1,2,TRUE,,,
travel,119,435931,0.0-39.0-0.0,"""event"",""trial"",""time""
""fullscreenenter"",""1"",""2764""
","
","
","""event"",""trial"",""time""
""fullscreenenter"",""1"",""2764""
","
",,,,,,,,,,,,"[{""stimulus"":""run_exp/static/images/task_images/rocket-01.jpg"",""time"":0.40000009536743164},{""stimulus"":""run_exp/static/images/task_images/rocket-02.jpg"",""time"":1079.1000001430511},{""stimulus"":""run_exp/static/images/task_images/rocket-03.jpg"",""time"":2167.100000143051},{""stimulus"":""run_exp/static/images/task_images/rocket-04.jpg"",""time"":3232.7000000476837},{""stimulus"":""run_exp/static/images/task_images/rocket-05.jpg"",""time"":4307.300000190735},{""stimulus"":""run_exp/static/images/task_images/rocket-06.jpg"",""time"":5396.600000143051},{""stimulus"":""run_exp/static/images/task_images/rocket-07.jpg"",""time"":6464.900000095367},{""stimulus"":""run_exp/static/images/task_images/rocket-08.jpg"",""time"":7542},{""stimulus"":""run_exp/static/images/task_images/rocket-09.jpg"",""time"":8625.800000190735}]",[],4,,,,,,,,,,,,,,
alien_welcome,120,440948,0.0-39.0-1.0,"""event"",""trial"",""time""
""fullscreenenter"",""1"",""2764""
","
","
","""event"",""trial"",""time""
""fullscreenenter"",""1"",""2764""
","
",,null,run_exp/static/images/task_images/aliens/old_aliens/planet/alien_planet-28.jpg,null,,,,,,,,,,,,,28,"25,6,16,80,28,61,73,24,43,15,35,59,63,39,79,53,1,14,77,2,66,51,3,44,54,22,78,12,5,10,7",,,,,,,,,,
land,121,441455,0.0-39.0-2.0,"""event"",""trial"",""time""
""fullscreenenter"",""1"",""2764""
","
","
","""event"",""trial"",""time""
""fullscreenenter"",""1"",""2764""
","
",,null,run_exp/static/images/task_images/land.jpg,null,,,,,,,94,,,5,,,,,,,,,,,,,,
dig,122,443479,0.0-39.0-3.0,"""event"",""trial"",""time""
""fullscreenenter"",""1"",""2764""
","
","
","""event"",""trial"",""time""
""fullscreenenter"",""1"",""2764""
","
",,,,,,,,,,,,"[{""stimulus"":""run_exp/static/images/task_images/dig.jpg"",""time"":0.2999999523162842},{""stimulus"":""run_exp/static/images/task_images/land.jpg"",""time"":672},{""stimulus"":""run_exp/static/images/task_images/dig.jpg"",""time"":1336.9000000953674}]",[],5,,,,,,,,,,,,,,
harvest,123,444489,0.0-39.0-4.0,"""event"",""trial"",""time""
""fullscreenenter"",""1"",""2764""
","
","
","""event"",""trial"",""time""
""fullscreenenter"",""1"",""2764""
","
",,null,run_exp/static/images/task_images/gems/94.jpg,null,,,,,,,47,,,5,,,,,94,0.501169569,0.5,,,,,,,
decision,124,444864,0.0-39.0-5.0,"""event"",""trial"",""time""
""fullscreenenter"",""1"",""2764""
","
","
","""event"",""trial"",""time""
""fullscreenenter"",""1"",""2764""
","
",,372.5,run_exp/static/images/task_images/land.jpg,65,,,,,,,47,,,5,,,,,,,,131436,1,0,FALSE,,,
dig,125,447505,0.0-40.0-0.0,"""event"",""trial"",""time""
""fullscreenenter"",""1"",""2764""
","
","
","""event"",""trial"",""time""
""fullscreenenter"",""1"",""2764""
","
",,,,,,,,,,,,"[{""stimulus"":""run_exp/static/images/task_images/dig.jpg"",""time"":0.20000004768371582},{""stimulus"":""run_exp/static/images/task_images/land.jpg"",""time"":878.5999999046326},{""stimulus"":""run_exp/static/images/task_images/dig.jpg"",""time"":1765.2999999523163}]",[],5,,,,,,,,,,,,,,
harvest,126,448513,0.0-40.0-1.0,"""event"",""trial"",""time""
""fullscreenenter"",""1"",""2764""
","
","
","""event"",""trial"",""time""
""fullscreenenter"",""1"",""2764""
","
",,null,run_exp/static/images/task_images/gems/47.jpg,null,,,,,,,20,,,5,,,,,47,0.420924002,0.425531915,,,,,,,
decision,127,448925,0.0-40.0-2.0,"""event"",""trial"",""time""
""fullscreenenter"",""1"",""2764""
","
","
","""event"",""trial"",""time""
""fullscreenenter"",""1"",""2764""
","
",,411.3,run_exp/static/images/task_images/land.jpg,65,,,,,,,20,,,5,,,,,,,,135498,1,1,FALSE,,,
dig,128,451530,0.0-41.0-0.0,"""event"",""trial"",""time""
""fullscreenenter"",""1"",""2764""
","
","
","""event"",""trial"",""time""
""fullscreenenter"",""1"",""2764""
","
",,,,,,,,,,,,"[{""stimulus"":""run_exp/static/images/task_images/dig.jpg"",""time"":0.2999999523162842},{""stimulus"":""run_exp/static/images/task_images/land.jpg"",""time"":875.2999999523163},{""stimulus"":""run_exp/static/images/task_images/dig.jpg"",""time"":1743.2000000476837}]",[],5,,,,,,,,,,,,,,
harvest,129,452537,0.0-41.0-1.0,"""event"",""trial"",""time""
""fullscreenenter"",""1"",""2764""
","
","
","""event"",""trial"",""time""
""fullscreenenter"",""1"",""2764""
","
",,null,run_exp/static/images/task_images/gems/20.jpg,null,,,,,,,10,,,5,,,,,20,0.516403075,0.5,,,,,,,
decision,130,452919,0.0-41.0-2.0,"""event"",""trial"",""time""
""fullscreenenter"",""1"",""2764""
","
","
","""event"",""trial"",""time""
""fullscreenenter"",""1"",""2764""
","
",,380.6999998,run_exp/static/images/task_images/land.jpg,76,,,,,,,10,,,5,,,,,,,,139491,1,2,TRUE,,,
travel,131,462549,0.0-42.0-0.0,"""event"",""trial"",""time""
""fullscreenenter"",""1"",""2764""
","
","
","""event"",""trial"",""time""
""fullscreenenter"",""1"",""2764""
","
",,,,,,,,,,,,"[{""stimulus"":""run_exp/static/images/task_images/rocket-01.jpg"",""time"":0.2999999523162842},{""stimulus"":""run_exp/static/images/task_images/rocket-02.jpg"",""time"":1082.2999999523163},{""stimulus"":""run_exp/static/images/task_images/rocket-03.jpg"",""time"":2139.899999856949},{""stimulus"":""run_exp/static/images/task_images/rocket-04.jpg"",""time"":3210.5999999046326},{""stimulus"":""run_exp/static/images/task_images/rocket-05.jpg"",""time"":4282.299999952316},{""stimulus"":""run_exp/static/images/task_images/rocket-06.jpg"",""time"":5355.099999904633},{""stimulus"":""run_exp/static/images/task_images/rocket-07.jpg"",""time"":6417.700000047684},{""stimulus"":""run_exp/static/images/task_images/rocket-08.jpg"",""time"":7487.599999904633},{""stimulus"":""run_exp/static/images/task_images/rocket-09.jpg"",""time"":8554.200000047684}]",[],5,,,,,,,,,,,,,,
alien_welcome,132,467554,0.0-42.0-1.0,"""event"",""trial"",""time""
""fullscreenenter"",""1"",""2764""
","
","
","""event"",""trial"",""time""
""fullscreenenter"",""1"",""2764""
","
",,null,run_exp/static/images/task_images/aliens/old_aliens/planet/alien_planet-61.jpg,null,,,,,,,,,,,,,61,"25,6,16,80,28,61,73,24,43,15,35,59,63,39,79,53,1,14,77,2,66,51,3,44,54,22,78,12,5,10,7",,,,,,,,,,
land,133,468059,0.0-42.0-2.0,"""event"",""trial"",""time""
""fullscreenenter"",""1"",""2764""
","
","
","""event"",""trial"",""time""
""fullscreenenter"",""1"",""2764""
","
",,null,run_exp/static/images/task_images/land.jpg,null,,,,,,,99,,,6,,,,,,,,,,,,,,
dig,134,470065,0.0-42.0-3.0,"""event"",""trial"",""time""
""fullscreenenter"",""1"",""2764""
","
","
","""event"",""trial"",""time""
""fullscreenenter"",""1"",""2764""
","
",,,,,,,,,,,,"[{""stimulus"":""run_exp/static/images/task_images/dig.jpg"",""time"":0.39999985694885254},{""stimulus"":""run_exp/static/images/task_images/land.jpg"",""time"":678},{""stimulus"":""run_exp/static/images/task_images/dig.jpg"",""time"":1342.2000000476837}]",[],6,,,,,,,,,,,,,,
harvest,135,471072,0.0-42.0-4.0,"""event"",""trial"",""time""
""fullscreenenter"",""1"",""2764""
","
","
","""event"",""trial"",""time""
""fullscreenenter"",""1"",""2764""
","
",,null,run_exp/static/images/task_images/gems/99.jpg,null,,,,,,,79,,,6,,,,,99,0.799846228,0.797979798,,,,,,,
decision,136,471486,0.0-42.0-5.0,"""event"",""trial"",""time""
""fullscreenenter"",""1"",""2764""
","
","
","""event"",""trial"",""time""
""fullscreenenter"",""1"",""2764""
","
",,412.5,run_exp/static/images/task_images/land.jpg,65,,,,,,,79,,,6,,,,,,,,158058,1,0,FALSE,,,
dig,137,474090,0.0-43.0-0.0,"""event"",""trial"",""time""
""fullscreenenter"",""1"",""2764""
","
","
","""event"",""trial"",""time""
""fullscreenenter"",""1"",""2764""
","
",,,,,,,,,,,,"[{""stimulus"":""run_exp/static/images/task_images/dig.jpg"",""time"":0.19999980926513672},{""stimulus"":""run_exp/static/images/task_images/land.jpg"",""time"":867.1999998092651},{""stimulus"":""run_exp/static/images/task_images/dig.jpg"",""time"":1735.5}]",[],6,,,,,,,,,,,,,,
harvest,138,475102,0.0-43.0-1.0,"""event"",""trial"",""time""
""fullscreenenter"",""1"",""2764""
","
","
","""event"",""trial"",""time""
""fullscreenenter"",""1"",""2764""
","
",,null,run_exp/static/images/task_images/gems/79.jpg,null,,,,,,,67,,,6,,,,,79,0.852663138,0.848101266,,,,,,,
decision,139,475504,0.0-43.0-2.0,"""event"",""trial"",""time""
""fullscreenenter"",""1"",""2764""
","
","
","""event"",""trial"",""time""
""fullscreenenter"",""1"",""2764""
","
",,399.6999998,run_exp/static/images/task_images/land.jpg,65,,,,,,,67,,,6,,,,,,,,162076,1,1,FALSE,,,
dig,140,478123,0.0-44.0-0.0,"""event"",""trial"",""time""
""fullscreenenter"",""1"",""2764""
","
","
","""event"",""trial"",""time""
""fullscreenenter"",""1"",""2764""
","
",,,,,,,,,,,,"[{""stimulus"":""run_exp/static/images/task_images/dig.jpg"",""time"":0.19999980926513672},{""stimulus"":""run_exp/static/images/task_images/land.jpg"",""time"":882.8999998569489},{""stimulus"":""run_exp/static/images/task_images/dig.jpg"",""time"":1735.6999998092651}]",[],6,,,,,,,,,,,,,,
harvest,141,479131,0.0-44.0-1.0,"""event"",""trial"",""time""
""fullscreenenter"",""1"",""2764""
","
","
","""event"",""trial"",""time""
""fullscreenenter"",""1"",""2764""
","
",,null,run_exp/static/images/task_images/gems/67.jpg,null,,,,,,,51,,,6,,,,,67,0.75751318,0.76119403,,,,,,,
decision,142,479459,0.0-44.0-2.0,"""event"",""trial"",""time""
""fullscreenenter"",""1"",""2764""
","
","
","""event"",""trial"",""time""
""fullscreenenter"",""1"",""2764""
","
",,326.6000001,run_exp/static/images/task_images/land.jpg,65,,,,,,,51,,,6,,,,,,,,166031,1,2,FALSE,,,
dig,143,482150,0.0-45.0-0.0,"""event"",""trial"",""time""
""fullscreenenter"",""1"",""2764""
","
","
","""event"",""trial"",""time""
""fullscreenenter"",""1"",""2764""
","
",,,,,,,,,,,,"[{""stimulus"":""run_exp/static/images/task_images/dig.jpg"",""time"":0.20000004768371582},{""stimulus"":""run_exp/static/images/task_images/land.jpg"",""time"":897.2000000476837},{""stimulus"":""run_exp/static/images/task_images/dig.jpg"",""time"":1785}]",[],6,,,,,,,,,,,,,,
harvest,144,483155,0.0-45.0-1.0,"""event"",""trial"",""time""
""fullscreenenter"",""1"",""2764""
","
","
","""event"",""trial"",""time""
""fullscreenenter"",""1"",""2764""
","
",,null,run_exp/static/images/task_images/gems/51.jpg,null,,,,,,,38,,,6,,,,,51,0.740849853,0.745098039,,,,,,,
decision,145,483625,0.0-45.0-2.0,"""event"",""trial"",""time""
""fullscreenenter"",""1"",""2764""
","
","
","""event"",""trial"",""time""
""fullscreenenter"",""1"",""2764""
","
",,468,run_exp/static/images/task_images/land.jpg,65,,,,,,,38,,,6,,,,,,,,170197,1,3,FALSE,,,
dig,146,486175,0.0-46.0-0.0,"""event"",""trial"",""time""
""fullscreenenter"",""1"",""2764""
","
","
","""event"",""trial"",""time""
""fullscreenenter"",""1"",""2764""
","
",,,,,,,,,,,,"[{""stimulus"":""run_exp/static/images/task_images/dig.jpg"",""time"":0.2999999523162842},{""stimulus"":""run_exp/static/images/task_images/land.jpg"",""time"":852},{""stimulus"":""run_exp/static/images/task_images/dig.jpg"",""time"":1702.7999999523163}]",[],6,,,,,,,,,,,,,,
harvest,147,487182,0.0-46.0-1.0,"""event"",""trial"",""time""
""fullscreenenter"",""1"",""2764""
","
","
","""event"",""trial"",""time""
""fullscreenenter"",""1"",""2764""
","
",,null,run_exp/static/images/task_images/gems/38.jpg,null,,,,,,,31,,,6,,,,,38,0.823126078,0.815789474,,,,,,,
decision,148,487667,0.0-46.0-2.0,"""event"",""trial"",""time""
""fullscreenenter"",""1"",""2764""
","
","
","""event"",""trial"",""time""
""fullscreenenter"",""1"",""2764""
","
",,482.5999999,run_exp/static/images/task_images/land.jpg,65,,,,,,,31,,,6,,,,,,,,174239,1,4,FALSE,,,
dig,149,490203,0.0-47.0-0.0,"""event"",""trial"",""time""
""fullscreenenter"",""1"",""2764""
","
","
","""event"",""trial"",""time""
""fullscreenenter"",""1"",""2764""
","
",,,,,,,,,,,,"[{""stimulus"":""run_exp/static/images/task_images/dig.jpg"",""time"":0.20000004768371582},{""stimulus"":""run_exp/static/images/task_images/land.jpg"",""time"":855.7999999523163},{""stimulus"":""run_exp/static/images/task_images/dig.jpg"",""time"":1687.7999999523163}]",[],6,,,,,,,,,,,,,,
harvest,150,491205,0.0-47.0-1.0,"""event"",""trial"",""time""
""fullscreenenter"",""1"",""2764""
","
","
","""event"",""trial"",""time""
""fullscreenenter"",""1"",""2764""
","
",,null,run_exp/static/images/task_images/gems/31.jpg,null,,,,,,,28,,,6,,,,,31,0.901958017,0.903225806,,,,,,,
decision,151,491596,0.0-47.0-2.0,"""event"",""trial"",""time""
""fullscreenenter"",""1"",""2764""
","
","
","""event"",""trial"",""time""
""fullscreenenter"",""1"",""2764""
","
",,388.8,run_exp/static/images/task_images/land.jpg,65,,,,,,,28,,,6,,,,,,,,178168,1,5,FALSE,,,
dig,152,494218,0.0-48.0-0.0,"""event"",""trial"",""time""
""fullscreenenter"",""1"",""2764""
","
","
","""event"",""trial"",""time""
""fullscreenenter"",""1"",""2764""
","
",,,,,,,,,,,,"[{""stimulus"":""run_exp/static/images/task_images/dig.jpg"",""time"":0.3000001907348633},{""stimulus"":""run_exp/static/images/task_images/land.jpg"",""time"":887},{""stimulus"":""run_exp/static/images/task_images/dig.jpg"",""time"":1755.4000000953674}]",[],6,,,,,,,,,,,,,,
harvest,153,495230,0.0-48.0-1.0,"""event"",""trial"",""time""
""fullscreenenter"",""1"",""2764""
","
","
","""event"",""trial"",""time""
""fullscreenenter"",""1"",""2764""
","
",,null,run_exp/static/images/task_images/gems/28.jpg,null,,,,,,,25,,,6,,,,,28,0.88160871,0.892857143,,,,,,,
decision,154,495612,0.0-48.0-2.0,"""event"",""trial"",""time""
""fullscreenenter"",""1"",""2764""
","
","
","""event"",""trial"",""time""
""fullscreenenter"",""1"",""2764""
","
",,379.7,run_exp/static/images/task_images/land.jpg,65,,,,,,,25,,,6,,,,,,,,182184,1,6,FALSE,,,
dig,155,498248,0.0-49.0-0.0,"""event"",""trial"",""time""
""fullscreenenter"",""1"",""2764""
","
","
","""event"",""trial"",""time""
""fullscreenenter"",""1"",""2764""
","
",,,,,,,,,,,,"[{""stimulus"":""run_exp/static/images/task_images/dig.jpg"",""time"":0.40000009536743164},{""stimulus"":""run_exp/static/images/task_images/land.jpg"",""time"":881.7000000476837},{""stimulus"":""run_exp/static/images/task_images/dig.jpg"",""time"":1763.4000000953674}]",[],6,,,,,,,,,,,,,,
harvest,156,499254,0.0-49.0-1.0,"""event"",""trial"",""time""
""fullscreenenter"",""1"",""2764""
","
","
","""event"",""trial"",""time""
""fullscreenenter"",""1"",""2764""
","
",,null,run_exp/static/images/task_images/gems/25.jpg,null,,,,,,,20,,,6,,,,,25,0.819832583,0.8,,,,,,,
decision,157,499798,0.0-49.0-2.0,"""event"",""trial"",""time""
""fullscreenenter"",""1"",""2764""
","
","
","""event"",""trial"",""time""
""fullscreenenter"",""1"",""2764""
","
",,541.6999998,run_exp/static/images/task_images/land.jpg,65,,,,,,,20,,,6,,,,,,,,186370,1,7,FALSE,,,
dig,158,502265,0.0-50.0-0.0,"""event"",""trial"",""time""
""fullscreenenter"",""1"",""2764""
","
","
","""event"",""trial"",""time""
""fullscreenenter"",""1"",""2764""
","
",,,,,,,,,,,,"[{""stimulus"":""run_exp/static/images/task_images/dig.jpg"",""time"":0.2999999523162842},{""stimulus"":""run_exp/static/images/task_images/land.jpg"",""time"":821.3999998569489},{""stimulus"":""run_exp/static/images/task_images/dig.jpg"",""time"":1641.2999999523163}]",[],6,,,,,,,,,,,,,,
harvest,159,503282,0.0-50.0-1.0,"""event"",""trial"",""time""
""fullscreenenter"",""1"",""2764""
","
","
","""event"",""trial"",""time""
""fullscreenenter"",""1"",""2764""
","
",,null,run_exp/static/images/task_images/gems/20.jpg,null,,,,,,,17,,,6,,,,,20,0.861786059,0.85,,,,,,,
decision,160,503579,0.0-50.0-2.0,"""event"",""trial"",""time""
""fullscreenenter"",""1"",""2764""
","
","
","""event"",""trial"",""time""
""fullscreenenter"",""1"",""2764""
","
",,295.1000001,run_exp/static/images/task_images/land.jpg,65,,,,,,,17,,,6,,,,,,,,190151,1,8,FALSE,,,
dig,161,506301,0.0-51.0-0.0,"""event"",""trial"",""time""
""fullscreenenter"",""1"",""2764""
","
","
","""event"",""trial"",""time""
""fullscreenenter"",""1"",""2764""
","
",,,,,,,,,,,,"[{""stimulus"":""run_exp/static/images/task_images/dig.jpg"",""time"":0.20000004768371582},{""stimulus"":""run_exp/static/images/task_images/land.jpg"",""time"":916.7000000476837},{""stimulus"":""run_exp/static/images/task_images/dig.jpg"",""time"":1815.0999999046326}]",[],6,,,,,,,,,,,,,,
harvest,162,507305,0.0-51.0-1.0,"""event"",""trial"",""time""
""fullscreenenter"",""1"",""2764""
","
","
","""event"",""trial"",""time""
""fullscreenenter"",""1"",""2764""
","
",,null,run_exp/static/images/task_images/gems/17.jpg,null,,,,,,,14,,,6,,,,,17,0.848819246,0.823529412,,,,,,,
decision,163,507629,0.0-51.0-2.0,"""event"",""trial"",""time""
""fullscreenenter"",""1"",""2764""
","
","
","""event"",""trial"",""time""
""fullscreenenter"",""1"",""2764""
","
",,321.8999999,run_exp/static/images/task_images/land.jpg,65,,,,,,,14,,,6,,,,,,,,194201,1,9,FALSE,,,
dig,164,510325,0.0-52.0-0.0,"""event"",""trial"",""time""
""fullscreenenter"",""1"",""2764""
","
","
","""event"",""trial"",""time""
""fullscreenenter"",""1"",""2764""
","
",,,,,,,,,,,,"[{""stimulus"":""run_exp/static/images/task_images/dig.jpg"",""time"":0.19999980926513672},{""stimulus"":""run_exp/static/images/task_images/land.jpg"",""time"":903.5},{""stimulus"":""run_exp/static/images/task_images/dig.jpg"",""time"":1785.7999999523163}]",[],6,,,,,,,,,,,,,,
harvest,165,511332,0.0-52.0-1.0,"""event"",""trial"",""time""
""fullscreenenter"",""1"",""2764""
","
","
","""event"",""trial"",""time""
""fullscreenenter"",""1"",""2764""
","
",,null,run_exp/static/images/task_images/gems/14.jpg,null,,,,,,,12,,,6,,,,,14,0.826564142,0.857142857,,,,,,,
decision,166,511747,0.0-52.0-2.0,"""event"",""trial"",""time""
""fullscreenenter"",""1"",""2764""
","
","
","""event"",""trial"",""time""
""fullscreenenter"",""1"",""2764""
","
",,408.8000002,run_exp/static/images/task_images/land.jpg,65,,,,,,,12,,,6,,,,,,,,198319,1,10,FALSE,,,
dig,167,514353,0.0-53.0-0.0,"""event"",""trial"",""time""
""fullscreenenter"",""1"",""2764""
","
","
","""event"",""trial"",""time""
""fullscreenenter"",""1"",""2764""
","
",,,,,,,,,,,,"[{""stimulus"":""run_exp/static/images/task_images/dig.jpg"",""time"":0.19999980926513672},{""stimulus"":""run_exp/static/images/task_images/land.jpg"",""time"":876.6999998092651},{""stimulus"":""run_exp/static/images/task_images/dig.jpg"",""time"":1729.8999998569489}]",[],6,,,,,,,,,,,,,,
harvest,168,515372,0.0-53.0-1.0,"""event"",""trial"",""time""
""fullscreenenter"",""1"",""2764""
","
","
","""event"",""trial"",""time""
""fullscreenenter"",""1"",""2764""
","
",,null,run_exp/static/images/task_images/gems/12.jpg,null,,,,,,,10,,,6,,,,,12,0.797347804,0.833333333,,,,,,,
decision,169,515746,0.0-53.0-2.0,"""event"",""trial"",""time""
""fullscreenenter"",""1"",""2764""
","
","
","""event"",""trial"",""time""
""fullscreenenter"",""1"",""2764""
","
",,371.8999999,run_exp/static/images/task_images/land.jpg,76,,,,,,,10,,,6,,,,,,,,202318,1,11,TRUE,,,
travel,170,525380,0.0-54.0-0.0,"""event"",""trial"",""time""
""fullscreenenter"",""1"",""2764""
","
","
","""event"",""trial"",""time""
""fullscreenenter"",""1"",""2764""
","
",,,,,,,,,,,,"[{""stimulus"":""run_exp/static/images/task_images/rocket-01.jpg"",""time"":0.2999999523162842},{""stimulus"":""run_exp/static/images/task_images/rocket-02.jpg"",""time"":1078},{""stimulus"":""run_exp/static/images/task_images/rocket-03.jpg"",""time"":2142.2999999523163},{""stimulus"":""run_exp/static/images/task_images/rocket-04.jpg"",""time"":3220.7000000476837},{""stimulus"":""run_exp/static/images/task_images/rocket-05.jpg"",""time"":4287.5},{""stimulus"":""run_exp/static/images/task_images/rocket-06.jpg"",""time"":5357.799999952316},{""stimulus"":""run_exp/static/images/task_images/rocket-07.jpg"",""time"":6426.299999952316},{""stimulus"":""run_exp/static/images/task_images/rocket-08.jpg"",""time"":7497},{""stimulus"":""run_exp/static/images/task_images/rocket-09.jpg"",""time"":8557.599999904633}]",[],6,,,,,,,,,,,,,,
alien_welcome,171,530399,0.0-54.0-1.0,"""event"",""trial"",""time""
""fullscreenenter"",""1"",""2764""
","
","
","""event"",""trial"",""time""
""fullscreenenter"",""1"",""2764""
","
",,null,run_exp/static/images/task_images/aliens/old_aliens/planet/alien_planet-73.jpg,null,,,,,,,,,,,,,73,"25,6,16,80,28,61,73,24,43,15,35,59,63,39,79,53,1,14,77,2,66,51,3,44,54,22,78,12,5,10,7",,,,,,,,,,
land,172,530910,0.0-54.0-2.0,"""event"",""trial"",""time""
""fullscreenenter"",""1"",""2764""
","
","
","""event"",""trial"",""time""
""fullscreenenter"",""1"",""2764""
","
",,null,run_exp/static/images/task_images/land.jpg,null,,,,,,,89,,,7,,,,,,,,,,,,,,
dig,173,532917,0.0-54.0-3.0,"""event"",""trial"",""time""
""fullscreenenter"",""1"",""2764""
","
","
","""event"",""trial"",""time""
""fullscreenenter"",""1"",""2764""
","
",,,,,,,,,,,,"[{""stimulus"":""run_exp/static/images/task_images/dig.jpg"",""time"":0.39999985694885254},{""stimulus"":""run_exp/static/images/task_images/land.jpg"",""time"":678.2999999523163},{""stimulus"":""run_exp/static/images/task_images/dig.jpg"",""time"":1341.7999999523163}]",[],7,,,,,,,,,,,,,,
harvest,174,533921,0.0-54.0-4.0,"""event"",""trial"",""time""
""fullscreenenter"",""1"",""2764""
","
","
","""event"",""trial"",""time""
""fullscreenenter"",""1"",""2764""
","
",,null,run_exp/static/images/task_images/gems/89.jpg,null,,,,,,,69,,,7,,,,,89,0.77566848,0.775280899,,,,,,,
decision,175,534310,0.0-54.0-5.0,"""event"",""trial"",""time""
""fullscreenenter"",""1"",""2764""
","
","
","""event"",""trial"",""time""
""fullscreenenter"",""1"",""2764""
","
",,387.5999999,run_exp/static/images/task_images/land.jpg,65,,,,,,,69,,,7,,,,,,,,220882,1,0,FALSE,,,
dig,176,536941,0.0-55.0-0.0,"""event"",""trial"",""time""
""fullscreenenter"",""1"",""2764""
","
","
","""event"",""trial"",""time""
""fullscreenenter"",""1"",""2764""
","
",,,,,,,,,,,,"[{""stimulus"":""run_exp/static/images/task_images/dig.jpg"",""time"":0.20000004768371582},{""stimulus"":""run_exp/static/images/task_images/land.jpg"",""time"":884.7000000476837},{""stimulus"":""run_exp/static/images/task_images/dig.jpg"",""time"":1745.1000001430511}]",[],7,,,,,,,,,,,,,,
harvest,177,537956,0.0-55.0-1.0,"""event"",""trial"",""time""
""fullscreenenter"",""1"",""2764""
","
","
","""event"",""trial"",""time""
""fullscreenenter"",""1"",""2764""
","
",,null,run_exp/static/images/task_images/gems/69.jpg,null,,,,,,,57,,,7,,,,,69,0.81957715,0.826086957,,,,,,,
decision,178,538305,0.0-55.0-2.0,"""event"",""trial"",""time""
""fullscreenenter"",""1"",""2764""
","
","
","""event"",""trial"",""time""
""fullscreenenter"",""1"",""2764""
","
",,346,run_exp/static/images/task_images/land.jpg,65,,,,,,,57,,,7,,,,,,,,224877,1,1,FALSE,,,
dig,179,540969,0.0-56.0-0.0,"""event"",""trial"",""time""
""fullscreenenter"",""1"",""2764""
","
","
","""event"",""trial"",""time""
""fullscreenenter"",""1"",""2764""
","
",,,,,,,,,,,,"[{""stimulus"":""run_exp/static/images/task_images/dig.jpg"",""time"":0.40000009536743164},{""stimulus"":""run_exp/static/images/task_images/land.jpg"",""time"":889.9000000953674},{""stimulus"":""run_exp/static/images/task_images/dig.jpg"",""time"":1776.3000001907349}]",[],7,,,,,,,,,,,,,,
harvest,180,541988,0.0-56.0-1.0,"""event"",""trial"",""time""
""fullscreenenter"",""1"",""2764""
","
","
","""event"",""trial"",""time""
""fullscreenenter"",""1"",""2764""
","
",,null,run_exp/static/images/task_images/gems/57.jpg,null,,,,,,,49,,,7,,,,,57,0.858685954,0.859649123,,,,,,,
decision,181,542297,0.0-56.0-2.0,"""event"",""trial"",""time""
""fullscreenenter"",""1"",""2764""
","
","
","""event"",""trial"",""time""
""fullscreenenter"",""1"",""2764""
","
",,307.6000001,run_exp/static/images/task_images/land.jpg,65,,,,,,,49,,,7,,,,,,,,228869,1,2,FALSE,,,
dig,182,544996,0.0-57.0-0.0,"""event"",""trial"",""time""
""fullscreenenter"",""1"",""2764""
","
","
","""event"",""trial"",""time""
""fullscreenenter"",""1"",""2764""
","
",,,,,,,,,,,,"[{""stimulus"":""run_exp/static/images/task_images/dig.jpg"",""time"":0.2999999523162842},{""stimulus"":""run_exp/static/images/task_images/land.jpg"",""time"":907.7999999523163},{""stimulus"":""run_exp/static/images/task_images/dig.jpg"",""time"":1809}]",[],7,,,,,,,,,,,,,,
harvest,183,546012,0.0-57.0-1.0,"""event"",""trial"",""time""
""fullscreenenter"",""1"",""2764""
","
","
","""event"",""trial"",""time""
""fullscreenenter"",""1"",""2764""
","
",,null,run_exp/static/images/task_images/gems/49.jpg,null,,,,,,,39,,,7,,,,,49,0.802436412,0.795918367,,,,,,,
decision,184,546311,0.0-57.0-2.0,"""event"",""trial"",""time""
""fullscreenenter"",""1"",""2764""
","
","
","""event"",""trial"",""time""
""fullscreenenter"",""1"",""2764""
","
",,297,run_exp/static/images/task_images/land.jpg,65,,,,,,,39,,,7,,,,,,,,232883,1,3,FALSE,,,
dig,185,549033,0.0-58.0-0.0,"""event"",""trial"",""time""
""fullscreenenter"",""1"",""2764""
","
","
","""event"",""trial"",""time""
""fullscreenenter"",""1"",""2764""
","
",,,,,,,,,,,,"[{""stimulus"":""run_exp/static/images/task_images/dig.jpg"",""time"":0.20000004768371582},{""stimulus"":""run_exp/static/images/task_images/land.jpg"",""time"":917.2000000476837},{""stimulus"":""run_exp/static/images/task_images/dig.jpg"",""time"":1813.7000000476837}]",[],7,,,,,,,,,,,,,,
harvest,186,550040,0.0-58.0-1.0,"""event"",""trial"",""time""
""fullscreenenter"",""1"",""2764""
","
","
","""event"",""trial"",""time""
""fullscreenenter"",""1"",""2764""
","
",,null,run_exp/static/images/task_images/gems/39.jpg,null,,,,,,,30,,,7,,,,,39,0.768506717,0.769230769,,,,,,,
decision,187,550335,0.0-58.0-2.0,"""event"",""trial"",""time""
""fullscreenenter"",""1"",""2764""
","
","
","""event"",""trial"",""time""
""fullscreenenter"",""1"",""2764""
","
",,292.8,run_exp/static/images/task_images/land.jpg,65,,,,,,,30,,,7,,,,,,,,236907,1,4,FALSE,,,
dig,188,553048,0.0-59.0-0.0,"""event"",""trial"",""time""
""fullscreenenter"",""1"",""2764""
","
","
","""event"",""trial"",""time""
""fullscreenenter"",""1"",""2764""
","
",,,,,,,,,,,,"[{""stimulus"":""run_exp/static/images/task_images/dig.jpg"",""time"":0.20000004768371582},{""stimulus"":""run_exp/static/images/task_images/land.jpg"",""time"":903.2999999523163},{""stimulus"":""run_exp/static/images/task_images/dig.jpg"",""time"":1808.1000001430511}]",[],7,,,,,,,,,,,,,,
harvest,189,554057,0.0-59.0-1.0,"""event"",""trial"",""time""
""fullscreenenter"",""1"",""2764""
","
","
","""event"",""trial"",""time""
""fullscreenenter"",""1"",""2764""
","
",,null,run_exp/static/images/task_images/gems/30.jpg,null,,,,,,,23,,,7,,,,,30,0.774714112,0.766666667,,,,,,,
decision,190,554363,0.0-59.0-2.0,"""event"",""trial"",""time""
""fullscreenenter"",""1"",""2764""
","
","
","""event"",""trial"",""time""
""fullscreenenter"",""1"",""2764""
","
",,303.0999999,run_exp/static/images/task_images/land.jpg,65,,,,,,,23,,,7,,,,,,,,240935,1,5,FALSE,,,
dig,191,557072,0.0-60.0-0.0,"""event"",""trial"",""time""
""fullscreenenter"",""1"",""2764""
","
","
","""event"",""trial"",""time""
""fullscreenenter"",""1"",""2764""
","
",,,,,,,,,,,,"[{""stimulus"":""run_exp/static/images/task_images/dig.jpg"",""time"":0.20000004768371582},{""stimulus"":""run_exp/static/images/task_images/land.jpg"",""time"":902.3999998569489},{""stimulus"":""run_exp/static/images/task_images/dig.jpg"",""time"":1802.8999998569489}]",[],7,,,,,,,,,,,,,,
harvest,192,558087,0.0-60.0-1.0,"""event"",""trial"",""time""
""fullscreenenter"",""1"",""2764""
","
","
","""event"",""trial"",""time""
""fullscreenenter"",""1"",""2764""
","
",,null,run_exp/static/images/task_images/gems/23.jpg,null,,,,,,,17,,,7,,,,,23,0.747932502,0.739130435,,,,,,,
decision,193,559062,0.0-60.0-2.0,"""event"",""trial"",""time""
""fullscreenenter"",""1"",""2764""
","
","
","""event"",""trial"",""time""
""fullscreenenter"",""1"",""2764""
","
",,972,run_exp/static/images/task_images/land.jpg,65,,,,,,,17,,,7,,,,,,,,245634,1,6,FALSE,,,
dig,194,561110,0.0-61.0-0.0,"""event"",""trial"",""time""
""fullscreenenter"",""1"",""2764""
","
","
","""event"",""trial"",""time""
""fullscreenenter"",""1"",""2764""
","
",,,,,,,,,,,,"[{""stimulus"":""run_exp/static/images/task_images/dig.jpg"",""time"":0.3000001907348633},{""stimulus"":""run_exp/static/images/task_images/land.jpg"",""time"":678.9000000953674},{""stimulus"":""run_exp/static/images/task_images/dig.jpg"",""time"":1361.4000000953674}]",[],7,,,,,,,,,,,,,,
harvest,195,562126,0.0-61.0-1.0,"""event"",""trial"",""time""
""fullscreenenter"",""1"",""2764""
","
","
","""event"",""trial"",""time""
""fullscreenenter"",""1"",""2764""
","
",,null,run_exp/static/images/task_images/gems/17.jpg,null,,,,,,,13,,,7,,,,,17,0.749625305,0.764705882,,,,,,,
decision,196,562488,0.0-61.0-2.0,"""event"",""trial"",""time""
""fullscreenenter"",""1"",""2764""
","
","
","""event"",""trial"",""time""
""fullscreenenter"",""1"",""2764""
","
",,353.1000001,run_exp/static/images/task_images/land.jpg,76,,,,,,,13,,,7,,,,,,,,249060,1,7,TRUE,,,
travel,197,572137,0.0-62.0-0.0,"""event"",""trial"",""time""
""fullscreenenter"",""1"",""2764""
","
","
","""event"",""trial"",""time""
""fullscreenenter"",""1"",""2764""
","
",,,,,,,,,,,,"[{""stimulus"":""run_exp/static/images/task_images/rocket-01.jpg"",""time"":0.20000004768371582},{""stimulus"":""run_exp/static/images/task_images/rocket-02.jpg"",""time"":1075.2000000476837},{""stimulus"":""run_exp/static/images/task_images/rocket-03.jpg"",""time"":2145.0999999046326},{""stimulus"":""run_exp/static/images/task_images/rocket-04.jpg"",""time"":3215.0999999046326},{""stimulus"":""run_exp/static/images/task_images/rocket-05.jpg"",""time"":4287.700000047684},{""stimulus"":""run_exp/static/images/task_images/rocket-06.jpg"",""time"":5362.5},{""stimulus"":""run_exp/static/images/task_images/rocket-07.jpg"",""time"":6433.700000047684},{""stimulus"":""run_exp/static/images/task_images/rocket-08.jpg"",""time"":7506},{""stimulus"":""run_exp/static/images/task_images/rocket-09.jpg"",""time"":8570.799999952316}]",[],7,,,,,,,,,,,,,,
alien_welcome,198,577155,0.0-62.0-1.0,"""event"",""trial"",""time""
""fullscreenenter"",""1"",""2764""
","
","
","""event"",""trial"",""time""
""fullscreenenter"",""1"",""2764""
","
",,null,run_exp/static/images/task_images/aliens/old_aliens/planet/alien_planet-24.jpg,null,,,,,,,,,,,,,24,"25,6,16,80,28,61,73,24,43,15,35,59,63,39,79,53,1,14,77,2,66,51,3,44,54,22,78,12,5,10,7",,,,,,,,,,
land,199,577659,0.0-62.0-2.0,"""event"",""trial"",""time""
""fullscreenenter"",""1"",""2764""
","
","
","""event"",""trial"",""time""
""fullscreenenter"",""1"",""2764""
","
",,null,run_exp/static/images/task_images/land.jpg,null,,,,,,,106,,,8,,,,,,,,,,,,,,
dig,200,579671,0.0-62.0-3.0,"""event"",""trial"",""time""
""fullscreenenter"",""1"",""2764""
","
","
","""event"",""trial"",""time""
""fullscreenenter"",""1"",""2764""
","
",,,,,,,,,,,,"[{""stimulus"":""run_exp/static/images/task_images/dig.jpg"",""time"":0.5},{""stimulus"":""run_exp/static/images/task_images/land.jpg"",""time"":683.0999999046326},{""stimulus"":""run_exp/static/images/task_images/dig.jpg"",""time"":1350.7999999523163}]",[],8,,,,,,,,,,,,,,
harvest,201,580681,0.0-62.0-4.0,"""event"",""trial"",""time""
""fullscreenenter"",""1"",""2764""
","
","
","""event"",""trial"",""time""
""fullscreenenter"",""1"",""2764""
","
",,null,run_exp/static/images/task_images/gems/106.jpg,null,,,,,,,91,,,8,,,,,106,0.854207548,0.858490566,,,,,,,
decision,202,581536,0.0-62.0-5.0,"""event"",""trial"",""time""
""fullscreenenter"",""1"",""2764""
","
","
","""event"",""trial"",""time""
""fullscreenenter"",""1"",""2764""
","
",,852.3999999,run_exp/static/images/task_images/land.jpg,65,,,,,,,91,,,8,,,,,,,,268108,1,0,FALSE,,,
dig,203,583697,0.0-63.0-0.0,"""event"",""trial"",""time""
""fullscreenenter"",""1"",""2764""
","
","
","""event"",""trial"",""time""
""fullscreenenter"",""1"",""2764""
","
",,,,,,,,,,,,"[{""stimulus"":""run_exp/static/images/task_images/dig.jpg"",""time"":0.2999999523162842},{""stimulus"":""run_exp/static/images/task_images/land.jpg"",""time"":719.5},{""stimulus"":""run_exp/static/images/task_images/dig.jpg"",""time"":1434.2999999523163}]",[],8,,,,,,,,,,,,,,
harvest,204,584701,0.0-63.0-1.0,"""event"",""trial"",""time""
""fullscreenenter"",""1"",""2764""
","
","
","""event"",""trial"",""time""
""fullscreenenter"",""1"",""2764""
","
",,null,run_exp/static/images/task_images/gems/91.jpg,null,,,,,,,75,,,8,,,,,91,0.820916685,0.824175824,,,,,,,
decision,205,585125,0.0-63.0-2.0,"""event"",""trial"",""time""
""fullscreenenter"",""1"",""2764""
","
","
","""event"",""trial"",""time""
""fullscreenenter"",""1"",""2764""
","
",,421.5,run_exp/static/images/task_images/land.jpg,65,,,,,,,75,,,8,,,,,,,,271697,1,1,FALSE,,,
dig,206,587715,0.0-64.0-0.0,"""event"",""trial"",""time""
""fullscreenenter"",""1"",""2764""
","
","
","""event"",""trial"",""time""
""fullscreenenter"",""1"",""2764""
","
",,,,,,,,,,,,"[{""stimulus"":""run_exp/static/images/task_images/dig.jpg"",""time"":0.2999999523162842},{""stimulus"":""run_exp/static/images/task_images/land.jpg"",""time"":867.3999998569489},{""stimulus"":""run_exp/static/images/task_images/dig.jpg"",""time"":1721.7999999523163}]",[],8,,,,,,,,,,,,,,
harvest,207,588723,0.0-64.0-1.0,"""event"",""trial"",""time""
""fullscreenenter"",""1"",""2764""
","
","
","""event"",""trial"",""time""
""fullscreenenter"",""1"",""2764""
","
",,null,run_exp/static/images/task_images/gems/75.jpg,null,,,,,,,63,,,8,,,,,75,0.845085364,0.84,,,,,,,
decision,208,589831,0.0-64.0-2.0,"""event"",""trial"",""time""
""fullscreenenter"",""1"",""2764""
","
","
","""event"",""trial"",""time""
""fullscreenenter"",""1"",""2764""
","
",,1106.9,run_exp/static/images/task_images/land.jpg,65,,,,,,,63,,,8,,,,,,,,276403,1,2,FALSE,,,
dig,209,591736,0.0-65.0-0.0,"""event"",""trial"",""time""
""fullscreenenter"",""1"",""2764""
","
","
","""event"",""trial"",""time""
""fullscreenenter"",""1"",""2764""
","
",,,,,,,,,,,,"[{""stimulus"":""run_exp/static/images/task_images/dig.jpg"",""time"":0.19999980926513672},{""stimulus"":""run_exp/static/images/task_images/land.jpg"",""time"":634},{""stimulus"":""run_exp/static/images/task_images/dig.jpg"",""time"":1278}]",[],8,,,,,,,,,,,,,,
harvest,210,592742,0.0-65.0-1.0,"""event"",""trial"",""time""
""fullscreenenter"",""1"",""2764""
","
","
","""event"",""trial"",""time""
""fullscreenenter"",""1"",""2764""
","
",,null,run_exp/static/images/task_images/gems/63.jpg,null,,,,,,,53,,,8,,,,,63,0.838961928,0.841269841,,,,,,,
decision,211,593191,0.0-65.0-2.0,"""event"",""trial"",""time""
""fullscreenenter"",""1"",""2764""
","
","
","""event"",""trial"",""time""
""fullscreenenter"",""1"",""2764""
","
",,447.3,run_exp/static/images/task_images/land.jpg,65,,,,,,,53,,,8,,,,,,,,279763,1,3,FALSE,,,
dig,212,595753,0.0-66.0-0.0,"""event"",""trial"",""time""
""fullscreenenter"",""1"",""2764""
","
","
","""event"",""trial"",""time""
""fullscreenenter"",""1"",""2764""
","
",,,,,,,,,,,,"[{""stimulus"":""run_exp/static/images/task_images/dig.jpg"",""time"":0.20000004768371582},{""stimulus"":""run_exp/static/images/task_images/land.jpg"",""time"":860.2000000476837},{""stimulus"":""run_exp/static/images/task_images/dig.jpg"",""time"":1714.8000001907349}]",[],8,,,,,,,,,,,,,,
harvest,213,596765,0.0-66.0-1.0,"""event"",""trial"",""time""
""fullscreenenter"",""1"",""2764""
","
","
","""event"",""trial"",""time""
""fullscreenenter"",""1"",""2764""
","
",,null,run_exp/static/images/task_images/gems/53.jpg,null,,,,,,,45,,,8,,,,,53,0.85237742,0.849056604,,,,,,,
decision,214,597164,0.0-66.0-2.0,"""event"",""trial"",""time""
""fullscreenenter"",""1"",""2764""
","
","
","""event"",""trial"",""time""
""fullscreenenter"",""1"",""2764""
","
",,396.4000001,run_exp/static/images/task_images/land.jpg,65,,,,,,,45,,,8,,,,,,,,283736,1,4,FALSE,,,
dig,215,599778,0.0-67.0-0.0,"""event"",""trial"",""time""
""fullscreenenter"",""1"",""2764""
","
","
","""event"",""trial"",""time""
""fullscreenenter"",""1"",""2764""
","
",,,,,,,,,,,,"[{""stimulus"":""run_exp/static/images/task_images/dig.jpg"",""time"":0.3000001907348633},{""stimulus"":""run_exp/static/images/task_images/land.jpg"",""time"":871.6000001430511},{""stimulus"":""run_exp/static/images/task_images/dig.jpg"",""time"":1739.3000001907349}]",[],8,,,,,,,,,,,,,,
harvest,216,600792,0.0-67.0-1.0,"""event"",""trial"",""time""
""fullscreenenter"",""1"",""2764""
","
","
","""event"",""trial"",""time""
""fullscreenenter"",""1"",""2764""
","
",,null,run_exp/static/images/task_images/gems/45.jpg,null,,,,,,,37,,,8,,,,,45,0.823134151,0.822222222,,,,,,,
decision,217,601136,0.0-67.0-2.0,"""event"",""trial"",""time""
""fullscreenenter"",""1"",""2764""
","
","
","""event"",""trial"",""time""
""fullscreenenter"",""1"",""2764""
","
",,342.3,run_exp/static/images/task_images/land.jpg,65,,,,,,,37,,,8,,,,,,,,287708,1,5,FALSE,,,
dig,218,603812,0.0-68.0-0.0,"""event"",""trial"",""time""
""fullscreenenter"",""1"",""2764""
","
","
","""event"",""trial"",""time""
""fullscreenenter"",""1"",""2764""
","
",,,,,,,,,,,,"[{""stimulus"":""run_exp/static/images/task_images/dig.jpg"",""time"":0.40000009536743164},{""stimulus"":""run_exp/static/images/task_images/land.jpg"",""time"":896.7000000476837},{""stimulus"":""run_exp/static/images/task_images/dig.jpg"",""time"":1780}]",[],8,,,,,,,,,,,,,,
harvest,219,604824,0.0-68.0-1.0,"""event"",""trial"",""time""
""fullscreenenter"",""1"",""2764""
","
","
","""event"",""trial"",""time""
""fullscreenenter"",""1"",""2764""
","
",,null,run_exp/static/images/task_images/gems/37.jpg,null,,,,,,,32,,,8,,,,,37,0.853525685,0.864864865,,,,,,,
decision,220,605313,0.0-68.0-2.0,"""event"",""trial"",""time""
""fullscreenenter"",""1"",""2764""
","
","
","""event"",""trial"",""time""
""fullscreenenter"",""1"",""2764""
","
",,488.3,run_exp/static/images/task_images/land.jpg,65,,,,,,,32,,,8,,,,,,,,291885,1,6,FALSE,,,
dig,221,607838,0.0-69.0-0.0,"""event"",""trial"",""time""
""fullscreenenter"",""1"",""2764""
","
","
","""event"",""trial"",""time""
""fullscreenenter"",""1"",""2764""
","
",,,,,,,,,,,,"[{""stimulus"":""run_exp/static/images/task_images/dig.jpg"",""time"":0.39999985694885254},{""stimulus"":""run_exp/static/images/task_images/land.jpg"",""time"":852.7999999523163},{""stimulus"":""run_exp/static/images/task_images/dig.jpg"",""time"":1691.0999999046326}]",[],8,,,,,,,,,,,,,,
harvest,222,608843,0.0-69.0-1.0,"""event"",""trial"",""time""
""fullscreenenter"",""1"",""2764""
","
","
","""event"",""trial"",""time""
""fullscreenenter"",""1"",""2764""
","
",,null,run_exp/static/images/task_images/gems/32.jpg,null,,,,,,,24,,,8,,,,,32,0.751533897,0.75,,,,,,,
decision,223,609226,0.0-69.0-2.0,"""event"",""trial"",""time""
""fullscreenenter"",""1"",""2764""
","
","
","""event"",""trial"",""time""
""fullscreenenter"",""1"",""2764""
","
",,380.2,run_exp/static/images/task_images/land.jpg,65,,,,,,,24,,,8,,,,,,,,295798,1,7,FALSE,,,
dig,224,611866,0.0-70.0-0.0,"""event"",""trial"",""time""
""fullscreenenter"",""1"",""2764""
","
","
","""event"",""trial"",""time""
""fullscreenenter"",""1"",""2764""
","
",,,,,,,,,,,,"[{""stimulus"":""run_exp/static/images/task_images/dig.jpg"",""time"":0.20000004768371582},{""stimulus"":""run_exp/static/images/task_images/land.jpg"",""time"":889.7999999523163},{""stimulus"":""run_exp/static/images/task_images/dig.jpg"",""time"":1763.4000000953674}]",[],8,,,,,,,,,,,,,,
harvest,225,612868,0.0-70.0-1.0,"""event"",""trial"",""time""
""fullscreenenter"",""1"",""2764""
","
","
","""event"",""trial"",""time""
""fullscreenenter"",""1"",""2764""
","
",,null,run_exp/static/images/task_images/gems/24.jpg,null,,,,,,,19,,,8,,,,,24,0.80455349,0.791666667,,,,,,,
decision,226,613208,0.0-70.0-2.0,"""event"",""trial"",""time""
""fullscreenenter"",""1"",""2764""
","
","
","""event"",""trial"",""time""
""fullscreenenter"",""1"",""2764""
","
",,338.2,run_exp/static/images/task_images/land.jpg,65,,,,,,,19,,,8,,,,,,,,299780,1,8,FALSE,,,
dig,227,615883,0.0-71.0-0.0,"""event"",""trial"",""time""
""fullscreenenter"",""1"",""2764""
","
","
","""event"",""trial"",""time""
""fullscreenenter"",""1"",""2764""
","
",,,,,,,,,,,,"[{""stimulus"":""run_exp/static/images/task_images/dig.jpg"",""time"":0.2999999523162842},{""stimulus"":""run_exp/static/images/task_images/land.jpg"",""time"":889.7999999523163},{""stimulus"":""run_exp/static/images/task_images/dig.jpg"",""time"":1779}]",[],8,,,,,,,,,,,,,,
harvest,228,616895,0.0-71.0-1.0,"""event"",""trial"",""time""
""fullscreenenter"",""1"",""2764""
","
","
","""event"",""trial"",""time""
""fullscreenenter"",""1"",""2764""
","
",,null,run_exp/static/images/task_images/gems/19.jpg,null,,,,,,,15,,,8,,,,,19,0.809704085,0.789473684,,,,,,,
decision,229,617975,0.0-71.0-2.0,"""event"",""trial"",""time""
""fullscreenenter"",""1"",""2764""
","
","
","""event"",""trial"",""time""
""fullscreenenter"",""1"",""2764""
","
",,1077.7,run_exp/static/images/task_images/land.jpg,65,,,,,,,15,,,8,,,,,,,,304547,1,9,TRUE,,,
end_of_block_continue,230,626872,0.0-72.0-0.0,"""event"",""trial"",""time""
""fullscreenenter"",""1"",""2764""
","
","
","""event"",""trial"",""time""
""fullscreenenter"",""1"",""2764""
","
",,null,run_exp/static/audio/clip_32_block_end.m4a,,,,,,,null,,,,,,,,,,,,,,,,,,
alien_welcome,231,631882,0.0-73.0-0.0,"""event"",""trial"",""time""
""fullscreenenter"",""1"",""2764""
","
","
","""event"",""trial"",""time""
""fullscreenenter"",""1"",""2764""
","
",,null,run_exp/static/images/task_images/aliens/old_aliens/planet/alien_planet-43.jpg,null,,,,,,,,,,,,,43,"25,6,16,80,28,61,73,24,43,15,35,59,63,39,79,53,1,14,77,2,66,51,3,44,54,22,78,12,5,10,7",,,,,,,,,,
land,232,632391,0.0-73.0-1.0,"""event"",""trial"",""time""
""fullscreenenter"",""1"",""2764""
","
","
","""event"",""trial"",""time""
""fullscreenenter"",""1"",""2764""
","
",,null,run_exp/static/images/task_images/land.jpg,null,,,,,,,96,,,9,,,,,,,,,,,,,,
dig,233,634413,0.0-73.0-2.0,"""event"",""trial"",""time""
""fullscreenenter"",""1"",""2764""
","
","
","""event"",""trial"",""time""
""fullscreenenter"",""1"",""2764""
","
",,,,,,,,,,,,"[{""stimulus"":""run_exp/static/images/task_images/dig.jpg"",""time"":0.6000001430511475},{""stimulus"":""run_exp/static/images/task_images/land.jpg"",""time"":673.7000000476837},{""stimulus"":""run_exp/static/images/task_images/dig.jpg"",""time"":1348.1000001430511}]",[],9,,,,,,,,,,,,,,
harvest,234,635419,0.0-73.0-3.0,"""event"",""trial"",""time""
""fullscreenenter"",""1"",""2764""
","
","
","""event"",""trial"",""time""
""fullscreenenter"",""1"",""2764""
","
",,null,run_exp/static/images/task_images/gems/96.jpg,null,,,,,,,21,,,9,,,,,96,0.217611621,0.21875,,,,,,,
decision,235,636981,0.0-73.0-4.0,"""event"",""trial"",""time""
""fullscreenenter"",""1"",""2764""
","
","
","""event"",""trial"",""time""
""fullscreenenter"",""1"",""2764""
","
",,1559.4,run_exp/static/images/task_images/land.jpg,65,,,,,,,21,,,9,,,,,,,,10104,2,0,FALSE,,,
dig,236,638433,0.0-74.0-0.0,"""event"",""trial"",""time""
""fullscreenenter"",""1"",""2764""
","
","
","""event"",""trial"",""time""
""fullscreenenter"",""1"",""2764""
","
",,,,,,,,,,,,"[{""stimulus"":""run_exp/static/images/task_images/dig.jpg"",""time"":0.3000001907348633},{""stimulus"":""run_exp/static/images/task_images/land.jpg"",""time"":482.80000019073486},{""stimulus"":""run_exp/static/images/task_images/dig.jpg"",""time"":973.9000000953674}]",[],9,,,,,,,,,,,,,,
harvest,237,639442,0.0-74.0-1.0,"""event"",""trial"",""time""
""fullscreenenter"",""1"",""2764""
","
","
","""event"",""trial"",""time""
""fullscreenenter"",""1"",""2764""
","
",,null,run_exp/static/images/task_images/gems/21.jpg,null,,,,,,,5,,,9,,,,,21,0.218562584,0.238095238,,,,,,,
decision,238,639964,0.0-74.0-2.0,"""event"",""trial"",""time""
""fullscreenenter"",""1"",""2764""
","
","
","""event"",""trial"",""time""
""fullscreenenter"",""1"",""2764""
","
",,518.8000002,run_exp/static/images/task_images/land.jpg,65,,,,,,,5,,,9,,,,,,,,13087,2,1,FALSE,,,
dig,239,642465,0.0-75.0-0.0,"""event"",""trial"",""time""
""fullscreenenter"",""1"",""2764""
","
","
","""event"",""trial"",""time""
""fullscreenenter"",""1"",""2764""
","
",,,,,,,,,,,,"[{""stimulus"":""run_exp/static/images/task_images/dig.jpg"",""time"":0.3000001907348633},{""stimulus"":""run_exp/static/images/task_images/land.jpg"",""time"":836.1000001430511},{""stimulus"":""run_exp/static/images/task_images/dig.jpg"",""time"":1669.3000001907349}]",[],9,,,,,,,,,,,,,,
harvest,240,643484,0.0-75.0-1.0,"""event"",""trial"",""time""
""fullscreenenter"",""1"",""2764""
","
","
","""event"",""trial"",""time""
""fullscreenenter"",""1"",""2764""
","
",,null,run_exp/static/images/task_images/gems/5.jpg,null,,,,,,,1,,,9,,,,,5,0.24374953,0.2,,,,,,,
decision,241,643959,0.0-75.0-2.0,"""event"",""trial"",""time""
""fullscreenenter"",""1"",""2764""
","
","
","""event"",""trial"",""time""
""fullscreenenter"",""1"",""2764""
","
",,471.8999999,run_exp/static/images/task_images/land.jpg,76,,,,,,,1,,,9,,,,,,,,17083,2,2,TRUE,,,
travel,242,653489,0.0-76.0-0.0,"""event"",""trial"",""time""
""fullscreenenter"",""1"",""2764""
","
","
","""event"",""trial"",""time""
""fullscreenenter"",""1"",""2764""
","
",,,,,,,,,,,,"[{""stimulus"":""run_exp/static/images/task_images/rocket-01.jpg"",""time"":0.2999999523162842},{""stimulus"":""run_exp/static/images/task_images/rocket-02.jpg"",""time"":1062.1999998092651},{""stimulus"":""run_exp/static/images/task_images/rocket-03.jpg"",""time"":2125.199999809265},{""stimulus"":""run_exp/static/images/task_images/rocket-04.jpg"",""time"":3178.899999856949},{""stimulus"":""run_exp/static/images/task_images/rocket-05.jpg"",""time"":4249.199999809265},{""stimulus"":""run_exp/static/images/task_images/rocket-06.jpg"",""time"":5293.699999809265},{""stimulus"":""run_exp/static/images/task_images/rocket-07.jpg"",""time"":6360.799999952316},{""stimulus"":""run_exp/static/images/task_images/rocket-08.jpg"",""time"":7412.099999904633},{""stimulus"":""run_exp/static/images/task_images/rocket-09.jpg"",""time"":8470.899999856949}]",[],9,,,,,,,,,,,,,,
alien_welcome,243,658507,0.0-76.0-1.0,"""event"",""trial"",""time""
""fullscreenenter"",""1"",""2764""
","
","
","""event"",""trial"",""time""
""fullscreenenter"",""1"",""2764""
","
",,null,run_exp/static/images/task_images/aliens/old_aliens/planet/alien_planet-15.jpg,null,,,,,,,,,,,,,15,"25,6,16,80,28,61,73,24,43,15,35,59,63,39,79,53,1,14,77,2,66,51,3,44,54,22,78,12,5,10,7",,,,,,,,,,
land,244,659019,0.0-76.0-2.0,"""event"",""trial"",""time""
""fullscreenenter"",""1"",""2764""
","
","
","""event"",""trial"",""time""
""fullscreenenter"",""1"",""2764""
","
",,null,run_exp/static/images/task_images/land.jpg,null,,,,,,,99,,,10,,,,,,,,,,,,,,
dig,245,661033,0.0-76.0-3.0,"""event"",""trial"",""time""
""fullscreenenter"",""1"",""2764""
","
","
","""event"",""trial"",""time""
""fullscreenenter"",""1"",""2764""
","
",,,,,,,,,,,,"[{""stimulus"":""run_exp/static/images/task_images/dig.jpg"",""time"":0.2999999523162842},{""stimulus"":""run_exp/static/images/task_images/land.jpg"",""time"":683.7000000476837},{""stimulus"":""run_exp/static/images/task_images/dig.jpg"",""time"":1343.2000000476837}]",[],10,,,,,,,,,,,,,,
harvest,246,662037,0.0-76.0-4.0,"""event"",""trial"",""time""
""fullscreenenter"",""1"",""2764""
","
","
","""event"",""trial"",""time""
""fullscreenenter"",""1"",""2764""
","
",,null,run_exp/static/images/task_images/gems/99.jpg,null,,,,,,,15,,,10,,,,,99,0.147322318,0.151515152,,,,,,,
decision,247,662468,0.0-76.0-5.0,"""event"",""trial"",""time""
""fullscreenenter"",""1"",""2764""
","
","
","""event"",""trial"",""time""
""fullscreenenter"",""1"",""2764""
","
",,428.9000001,run_exp/static/images/task_images/land.jpg,65,,,,,,,15,,,10,,,,,,,,35591,2,0,FALSE,,,
dig,248,665059,0.0-77.0-0.0,"""event"",""trial"",""time""
""fullscreenenter"",""1"",""2764""
","
","
","""event"",""trial"",""time""
""fullscreenenter"",""1"",""2764""
","
",,,,,,,,,,,,"[{""stimulus"":""run_exp/static/images/task_images/dig.jpg"",""time"":0.20000004768371582},{""stimulus"":""run_exp/static/images/task_images/land.jpg"",""time"":859.5999999046326},{""stimulus"":""run_exp/static/images/task_images/dig.jpg"",""time"":1728.7000000476837}]",[],10,,,,,,,,,,,,,,
harvest,249,666076,0.0-77.0-1.0,"""event"",""trial"",""time""
""fullscreenenter"",""1"",""2764""
","
","
","""event"",""trial"",""time""
""fullscreenenter"",""1"",""2764""
","
",,null,run_exp/static/images/task_images/gems/15.jpg,null,,,,,,,3,,,10,,,,,15,0.174268431,0.2,,,,,,,
decision,250,666622,0.0-77.0-2.0,"""event"",""trial"",""time""
""fullscreenenter"",""1"",""2764""
","
","
","""event"",""trial"",""time""
""fullscreenenter"",""1"",""2764""
","
",,544.5999999,run_exp/static/images/task_images/land.jpg,65,,,,,,,3,,,10,,,,,,,,39745,2,1,FALSE,,,
dig,251,669094,0.0-78.0-0.0,"""event"",""trial"",""time""
""fullscreenenter"",""1"",""2764""
","
","
","""event"",""trial"",""time""
""fullscreenenter"",""1"",""2764""
","
