trial_type,trial_index,time_elapsed,internal_node_id,interactions,blur_events,focus_events,fullscreenenter_events,fullscreenexit_events,success,rt,stimulus,key_press,prompt,subject_id,participant_id,age,gender,button_pressed,next_reward,animation_sequence,responses,planet,curr_prac_trial,n_prac_rounds,alien,aliens,reward_received,decay_rate_actual,decay_rate_exp,time_in_block,block_num,prt,last_trial_on_planet,button_html,bonus,num_failures
pavlovia,0,4,0.0-0.0,"""event"",""trial"",""time""
""fullscreenenter"",""1"",""2637""
","
","
","""event"",""trial"",""time""
""fullscreenenter"",""1"",""2637""
","
",,,,,,,,,,,,,,,,,,,,,,,,,,,,
fullscreen,1,3600,0.0-1.0,"""event"",""trial"",""time""
""fullscreenenter"",""1"",""2637""
","
","
","""event"",""trial"",""time""
""fullscreenenter"",""1"",""2637""
","
",TRUE,,,,,,,,,,,,,,,,,,,,,,,,,,,
instruc_welcome,2,13387,0.0-2.0,"""event"",""trial"",""time""
""fullscreenenter"",""1"",""2637""
","
","
","""event"",""trial"",""time""
""fullscreenenter"",""1"",""2637""
","
",,null,run_exp/static/audio/clip_1_welcome.m4a,null,"<p>Howdy! In this experiment, you’ll be an explorer traveling through space to collect space treasure.</p><p>Your mission is to collect as much treasure as possible.</p><br><br><p><img src='run_exp/static/images/task_images/opening_img-01.jpg' height='300' width='auto'></p>",9271,2776,18.99,Female,,,,,,,,,,,,,,,,,,,
audio-keyboard-response,3,30067,0.0-3.0,"""event"",""trial"",""time""
""fullscreenenter"",""1"",""2637""
","
","
","""event"",""trial"",""time""
""fullscreenenter"",""1"",""2637""
","
",,null,run_exp/static/audio/clip_2_move.m4a,null,,,,,,,,,,,,,,,,,,,,,,,,
welcome_dec,4,31538,0.0-4.0,"""event"",""trial"",""time""
""fullscreenenter"",""1"",""2637""
","
","
","""event"",""trial"",""time""
""fullscreenenter"",""1"",""2637""
","
",,1466.6,"<p>Howdy! In this experiment, you’ll be an explorer traveling through space to collect space treasure.</p><p>Your mission is to collect as much treasure as possible.</p><br><br><p><img src='run_exp/static/images/task_images/opening_img-01.jpg' height='300' width='auto'></p>",,,,,,,1,,,,,,,,,,,,,,,,,,
html-keyboard-response,5,32370,0.0-5.0,"""event"",""trial"",""time""
""fullscreenenter"",""1"",""2637""
","
","
","""event"",""trial"",""time""
""fullscreenenter"",""1"",""2637""
","
",,828.3,"<p>Howdy! In this experiment, you’ll be an explorer traveling through space to collect space treasure.</p><p>Your mission is to collect as much treasure as possible.</p><br><br><p><img src='run_exp/static/images/task_images/opening_img-01.jpg' height='300' width='auto'></p><button class=""jspsych-html-btn-unchosen""><img src=""run_exp/static/images/task_images/planet-01.jpg"" height=""50""></button><button class=""jspsych-html-btn-chosen""><img src=""run_exp/static/images/task_images/planet-02.jpg"" height=""50""></button><p><b>[press the space bar to lock in your answer]<b><br></p>",32,,,,,,,,,,,,,,,,,,,,,,,,
instruc_goal,6,42461,0.0-6.0-0.0,"""event"",""trial"",""time""
""fullscreenenter"",""1"",""2637""
","
","
","""event"",""trial"",""time""
""fullscreenenter"",""1"",""2637""
","
",,null,run_exp/static/audio/clip_3_goal.m4a,null,"<p> As a space explorer, you’ll visit different planets to dig for space treasure, these pink gems.</p> <p> The more treasure you dig up, the more bonus money you’ll win! </p><br><br><p><img src='run_exp/static/images/task_images/pink_gem.jpg' height='300' width='auto'></p>",,,,,,,,,,,,,,,,,,,,,,,
instruc_goal,7,45093,0.0-6.0-1.0,"""event"",""trial"",""time""
""fullscreenenter"",""1"",""2637""
","
","
","""event"",""trial"",""time""
""fullscreenenter"",""1"",""2637""
","
",,2629.2,"<p> As a space explorer, you’ll visit different planets to dig for space treasure, these pink gems.</p> <p> The more treasure you dig up, the more bonus money you’ll win! </p><br><br><p><img src='run_exp/static/images/task_images/pink_gem.jpg' height='300' width='auto'></p>",,,,,,,1,,,,,,,,,,,,,,,,,,
html-keyboard-response,8,45599,0.0-6.0-2.0,"""event"",""trial"",""time""
""fullscreenenter"",""1"",""2637""
","
","
","""event"",""trial"",""time""
""fullscreenenter"",""1"",""2637""
","
",,504.0999999,"<p> As a space explorer, you’ll visit different planets to dig for space treasure, these pink gems.</p> <p> The more treasure you dig up, the more bonus money you’ll win! </p><br><br><p><img src='run_exp/static/images/task_images/pink_gem.jpg' height='300' width='auto'></p><button class=""jspsych-html-btn-unchosen""><img src=""run_exp/static/images/task_images/planet-01.jpg"" height=""50""></button><button class=""jspsych-html-btn-chosen""><img src=""run_exp/static/images/task_images/planet-02.jpg"" height=""50""></button><p><b>[press the space bar to lock in your answer]<b><br></p>",32,,,,,,,,,,,,,,,,,,,,,,,,
instruc_dig,9,61639,0.0-7.0-0.0,"""event"",""trial"",""time""
""fullscreenenter"",""1"",""2637""
","
","
","""event"",""trial"",""time""
""fullscreenenter"",""1"",""2637""
","
",,null,run_exp/static/audio/clip_4_dig.m4a,null,,,,,,,100,,,,,,,,,,,,,,,,,
instruc_dig_try,10,62585,0.0-7.0-1.0,"""event"",""trial"",""time""
""fullscreenenter"",""1"",""2637""
","
","
","""event"",""trial"",""time""
""fullscreenenter"",""1"",""2637""
","
",,943.0999999,"<p> When you’ve arrived at a new planet, you will dig once. </p> <p>Then, you get to decide if you want to stay on the planet and dig again or travel to a new planet and dig there.</p> <p> To stay and dig, press the letter <strong>‘A’</strong> on your keyboard. Try pressing it now! </p><p><img src='run_exp/static/images/task_images/land.jpg'  height='700' width='auto'></p>",65,"<p> When you’ve arrived at a new planet, you will dig once. </p> <p>Then, you get to decide if you want to stay on the planet and dig again or travel to a new planet and dig there.</p> <p> To stay and dig, press the letter <strong>‘A’</strong> on your keyboard. Try pressing it now! </p><p><img src='run_exp/static/images/task_images/land.jpg'  height='700' width='auto'></p>",,,,,,100,,,,,,,,,,,,,,,,,
dig_prac,11,64610,0.0-7.0-2.0,"""event"",""trial"",""time""
""fullscreenenter"",""1"",""2637""
","
","
","""event"",""trial"",""time""
""fullscreenenter"",""1"",""2637""
","
",,,,,,,,,,,,"[{""stimulus"":""run_exp/static/images/task_images/dig.jpg"",""time"":0.5},{""stimulus"":""run_exp/static/images/task_images/land.jpg"",""time"":674},{""stimulus"":""run_exp/static/images/task_images/dig.jpg"",""time"":1342.8000001907349}]",[],,,,,,,,,,,,,,,
instruc_travel,12,100892,0.0-7.0-3.0,"""event"",""trial"",""time""
""fullscreenenter"",""1"",""2637""
","
","
","""event"",""trial"",""time""
""fullscreenenter"",""1"",""2637""
","
",,null,run_exp/static/audio/clip_5_travel.m4a,null,"<p>Every time you dig up gems, there are less gems on the planet, so the more you dig on a planet the fewer gems you’ll get with each dig.</p><p>When gems are running low, you may want to travel to a new planet. </p> <p>  Planets are very far apart in this galaxy, so it will take some time to travel between them. </p> <br><p>There are lots and lots of planets for you to visit, so you won’t be able to return to any planets you’ve seen before. </p><br><p>To leave this planet and travel to a new one, press the letter <strong>‘L’</strong> on your keyboard. Try pressing it now! </p><p><img src='run_exp/static/images/task_images/rocket-01.jpg'  height='600' width='auto'></p>",,,,,,,,,,,,,,,,,,,,,,,
instruc_travel_try,13,101023,0.0-7.0-4.0,"""event"",""trial"",""time""
""fullscreenenter"",""1"",""2637""
","
","
","""event"",""trial"",""time""
""fullscreenenter"",""1"",""2637""
","
",,128.5,"<p>Every time you dig up gems, there are less gems on the planet, so the more you dig on a planet the fewer gems you’ll get with each dig.</p><p>When gems are running low, you may want to travel to a new planet. </p> <p>  Planets are very far apart in this galaxy, so it will take some time to travel between them. </p> <br><p>There are lots and lots of planets for you to visit, so you won’t be able to return to any planets you’ve seen before. </p><br><p>To leave this planet and travel to a new one, press the letter <strong>‘L’</strong> on your keyboard. Try pressing it now! </p><p><img src='run_exp/static/images/task_images/rocket-01.jpg'  height='600' width='auto'></p>",76,"<p>Every time you dig up gems, there are less gems on the planet, so the more you dig on a planet the fewer gems you’ll get with each dig.</p><p>When gems are running low, you may want to travel to a new planet. </p> <p>  Planets are very far apart in this galaxy, so it will take some time to travel between them. </p> <br><p>There are lots and lots of planets for you to visit, so you won’t be able to return to any planets you’ve seen before. </p><br><p>To leave this planet and travel to a new one, press the letter <strong>‘L’</strong> on your keyboard. Try pressing it now! </p><p><img src='run_exp/static/images/task_images/rocket-01.jpg'  height='600' width='auto'></p>",,,,,,,,,,,,,,,,,,,,,,,
travel_prac,14,111038,0.0-7.0-5.0,"""event"",""trial"",""time""
""fullscreenenter"",""1"",""2637""
","
","
","""event"",""trial"",""time""
""fullscreenenter"",""1"",""2637""
","
",,,,,,,,,,,,"[{""stimulus"":""run_exp/static/images/task_images/rocket-01.jpg"",""time"":2.8000001907348633},{""stimulus"":""run_exp/static/images/task_images/rocket-02.jpg"",""time"":1124.3000001907349},{""stimulus"":""run_exp/static/images/task_images/rocket-03.jpg"",""time"":2228.7000000476837},{""stimulus"":""run_exp/static/images/task_images/rocket-04.jpg"",""time"":3341.7000000476837},{""stimulus"":""run_exp/static/images/task_images/rocket-05.jpg"",""time"":4454},{""stimulus"":""run_exp/static/images/task_images/rocket-06.jpg"",""time"":5562.900000095367},{""stimulus"":""run_exp/static/images/task_images/rocket-07.jpg"",""time"":6676.100000143051},{""stimulus"":""run_exp/static/images/task_images/rocket-08.jpg"",""time"":7794.600000143051},{""stimulus"":""run_exp/static/images/task_images/rocket-09.jpg"",""time"":8902.5}]",[],0,,,,,,,,,,,,,,
instruc_alien_greet,15,138265,0.0-7.0-6.0,"""event"",""trial"",""time""
""fullscreenenter"",""1"",""2637""
","
","
","""event"",""trial"",""time""
""fullscreenenter"",""1"",""2637""
","
",,null,run_exp/static/audio/clip_6_alien.m4a,null,"<p>When you arrive at a new planet, the alien who owns the treasure mine on that planet will greet you!</p><p>The better an alien takes care of their mine the easier it is to dig for gems. Some aliens take better care of their mine than others. So, you won’t get exactly the same amount of gems on each planet.</p><p>What the alien looks like does not tell you anything about how many gems there are on the planet.</p><br><p><img src=""run_exp/static/images/task_images/aliens/instructions_aliens/planet/alien_planet-1.jpg""  height=""600"" width=""auto""></p>",,,,,,,,,,,,,,,,,,,,,,,
instruc_alien_greet,16,140008,0.0-7.0-7.0,"""event"",""trial"",""time""
""fullscreenenter"",""1"",""2637""
","
","
","""event"",""trial"",""time""
""fullscreenenter"",""1"",""2637""
","
",,1740.8,"<p>When you arrive at a new planet, the alien who owns the treasure mine on that planet will greet you!</p><p>The better an alien takes care of their mine the easier it is to dig for gems. Some aliens take better care of their mine than others. So, you won’t get exactly the same amount of gems on each planet.</p><p>What the alien looks like does not tell you anything about how many gems there are on the planet.</p><br><p><img src=""run_exp/static/images/task_images/aliens/instructions_aliens/planet/alien_planet-1.jpg""  height=""600"" width=""auto""></p>",,,,,,,1,,,,,,,,,,,,,,,,,,
html-keyboard-response,17,140494,0.0-7.0-8.0,"""event"",""trial"",""time""
""fullscreenenter"",""1"",""2637""
","
","
","""event"",""trial"",""time""
""fullscreenenter"",""1"",""2637""
","
",,481.2,"<p>When you arrive at a new planet, the alien who owns the treasure mine on that planet will greet you!</p><p>The better an alien takes care of their mine the easier it is to dig for gems. Some aliens take better care of their mine than others. So, you won’t get exactly the same amount of gems on each planet.</p><p>What the alien looks like does not tell you anything about how many gems there are on the planet.</p><br><p><img src=""run_exp/static/images/task_images/aliens/instructions_aliens/planet/alien_planet-1.jpg""  height=""600"" width=""auto""></p><button class=""jspsych-html-btn-unchosen""><img src=""run_exp/static/images/task_images/planet-01.jpg"" height=""50""></button><button class=""jspsych-html-btn-chosen""><img src=""run_exp/static/images/task_images/planet-02.jpg"" height=""50""></button><p><b>[press the space bar to lock in your answer]<b><br></p>",32,,,,,,,,,,,,,,,,,,,,,,,,
time_out,18,151623,0.0-8.0-0.0,"""event"",""trial"",""time""
""fullscreenenter"",""1"",""2637""
","
","
","""event"",""trial"",""time""
""fullscreenenter"",""1"",""2637""
","
",,null,run_exp/static/audio/clip_7_timeout.m4a,null,"<p>If you don't make your choice fast enough, you’ll have to wait a few seconds before you can make another one.</p><p>You can’t dig for more gems or travel to new planets. You just have to sit and wait.</p><br><p><img src='run_exp/static/images/task_images/time_out.jpg'  height='600' width='auto'></p>",,,,,,,,,,,,,,,,,,,,,,,
time_out,19,153343,0.0-8.0-1.0,"""event"",""trial"",""time""
""fullscreenenter"",""1"",""2637""
","
","
","""event"",""trial"",""time""
""fullscreenenter"",""1"",""2637""
","
",,1717.6,"<p>If you don't make your choice fast enough, you’ll have to wait a few seconds before you can make another one.</p><p>You can’t dig for more gems or travel to new planets. You just have to sit and wait.</p><br><p><img src='run_exp/static/images/task_images/time_out.jpg'  height='600' width='auto'></p>",,,,,,,1,,,,,,,,,,,,,,,,,,
html-keyboard-response,20,153780,0.0-8.0-2.0,"""event"",""trial"",""time""
""fullscreenenter"",""1"",""2637""
","
","
","""event"",""trial"",""time""
""fullscreenenter"",""1"",""2637""
","
",,434.0999999,"<p>If you don't make your choice fast enough, you’ll have to wait a few seconds before you can make another one.</p><p>You can’t dig for more gems or travel to new planets. You just have to sit and wait.</p><br><p><img src='run_exp/static/images/task_images/time_out.jpg'  height='600' width='auto'></p><button class=""jspsych-html-btn-unchosen""><img src=""run_exp/static/images/task_images/planet-01.jpg"" height=""50""></button><button class=""jspsych-html-btn-chosen""><img src=""run_exp/static/images/task_images/planet-02.jpg"" height=""50""></button><p><b>[press the space bar to lock in your answer]<b><br></p>",32,,,,,,,,,,,,,,,,,,,,,,,,
instruc_break,21,169498,0.0-9.0-0.0,"""event"",""trial"",""time""
""fullscreenenter"",""1"",""2637""
","
","
","""event"",""trial"",""time""
""fullscreenenter"",""1"",""2637""
","
",,null,run_exp/static/audio/clip_8_break.m4a,null,"<p> After digging and traveling for a while, you’ll be able to take a break at home base. </p><p>The game will last 20 minutes no matter what.</p><p>You will visit home base every 5 minutes, so, you will visit home base three times during the game.</p><br><p><img src='run_exp/static/images/task_images/home_base.jpg' height='600' width='auto'></p>",,,,,,,,,,,,,,,,,,,,,,,
instruc_break,22,170830,0.0-9.0-1.0,"""event"",""trial"",""time""
""fullscreenenter"",""1"",""2637""
","
","
","""event"",""trial"",""time""
""fullscreenenter"",""1"",""2637""
","
",,1328.8,"<p> After digging and traveling for a while, you’ll be able to take a break at home base. </p><p>The game will last 20 minutes no matter what.</p><p>You will visit home base every 5 minutes, so, you will visit home base three times during the game.</p><br><p><img src='run_exp/static/images/task_images/home_base.jpg' height='600' width='auto'></p>",,,,,,,1,,,,,,,,,,,,,,,,,,
html-keyboard-response,23,171257,0.0-9.0-2.0,"""event"",""trial"",""time""
""fullscreenenter"",""1"",""2637""
","
","
","""event"",""trial"",""time""
""fullscreenenter"",""1"",""2637""
","
",,424.0999999,"<p> After digging and traveling for a while, you’ll be able to take a break at home base. </p><p>The game will last 20 minutes no matter what.</p><p>You will visit home base every 5 minutes, so, you will visit home base three times during the game.</p><br><p><img src='run_exp/static/images/task_images/home_base.jpg' height='600' width='auto'></p><button class=""jspsych-html-btn-unchosen""><img src=""run_exp/static/images/task_images/planet-01.jpg"" height=""50""></button><button class=""jspsych-html-btn-chosen""><img src=""run_exp/static/images/task_images/planet-02.jpg"" height=""50""></button><p><b>[press the space bar to lock in your answer]<b><br></p>",32,,,,,,,,,,,,,,,,,,,,,,,,
instruc_prac_game,24,181422,0.0-10.0-0.0,"""event"",""trial"",""time""
""fullscreenenter"",""1"",""2637""
","
","
","""event"",""trial"",""time""
""fullscreenenter"",""1"",""2637""
","
",,null,run_exp/static/audio/clip_9_practice.m4a,null,"<p> Are you ready to play a practice game? </p> <p>In this practice game, you'll be digging up barrels of gems. But, in the real game, you'll be digging up the gems themselves. </p>",,,,,,,,,,,,,,,,,,,,,,,
html-button-response,25,182976,0.0-10.0-1.0,"""event"",""trial"",""time""
""fullscreenenter"",""1"",""2637""
","
","
","""event"",""trial"",""time""
""fullscreenenter"",""1"",""2637""
","
",,1550.9,"<p> Are you ready to play a practice game? </p> <p>In this practice game, you'll be digging up barrels of gems. But, in the real game, you'll be digging up the gems themselves. </p>",,,,,,,0,,,,,,,,,,,,,,,,,,
alien_welcome_prac,26,187994,0.0-11.0-0.0,"""event"",""trial"",""time""
""fullscreenenter"",""1"",""2637""
","
","
","""event"",""trial"",""time""
""fullscreenenter"",""1"",""2637""
","
",,null,run_exp/static/images/task_images/aliens/practice_aliens/planet/alien_planet-5.jpg,null,,,,,,,,,,,,,,,,,,,,,,,,
land_prac,27,188504,0.0-11.0-1.0,"""event"",""trial"",""time""
""fullscreenenter"",""1"",""2637""
","
","
","""event"",""trial"",""time""
""fullscreenenter"",""1"",""2637""
","
",,null,run_exp/static/images/task_images/land.jpg,null,,,,,,,102,,,0,,,,,,,,,,,,,,
dig_prac,28,190516,0.0-11.0-2.0,"""event"",""trial"",""time""
""fullscreenenter"",""1"",""2637""
","
","
","""event"",""trial"",""time""
""fullscreenenter"",""1"",""2637""
","
",,,,,,,,,,,,"[{""stimulus"":""run_exp/static/images/task_images/dig.jpg"",""time"":0.2999999523162842},{""stimulus"":""run_exp/static/images/task_images/land.jpg"",""time"":680.5},{""stimulus"":""run_exp/static/images/task_images/dig.jpg"",""time"":1342.3999998569489}]",[],,,,,,,,,,,,,,,
harvest_prac,29,191531,0.0-11.0-3.0,"""event"",""trial"",""time""
""fullscreenenter"",""1"",""2637""
","
","
","""event"",""trial"",""time""
""fullscreenenter"",""1"",""2637""
","
",,null,run_exp/static/images/task_images/barrel_text.jpg,null,,,,,,,,,,,,,,,,,,,,,,,,
decision_prac,30,193529,0.0-11.0-4.0,"""event"",""trial"",""time""
""fullscreenenter"",""1"",""2637""
","
","
","""event"",""trial"",""time""
""fullscreenenter"",""1"",""2637""
","
",,1996.8,run_exp/static/images/task_images/land.jpg,65,,,,,,,,,,,1,,,,,,,,,,,,,
dig_prac,31,195539,0.0-12.0-0.0,"""event"",""trial"",""time""
""fullscreenenter"",""1"",""2637""
","
","
","""event"",""trial"",""time""
""fullscreenenter"",""1"",""2637""
","
",,,,,,,,,,,,"[{""stimulus"":""run_exp/static/images/task_images/dig.jpg"",""time"":0.19999980926513672},{""stimulus"":""run_exp/static/images/task_images/land.jpg"",""time"":672.0999999046326},{""stimulus"":""run_exp/static/images/task_images/dig.jpg"",""time"":1344.1999998092651}]",[],,,,,,,,,,,,,,,
harvest_prac,32,196548,0.0-12.0-1.0,"""event"",""trial"",""time""
""fullscreenenter"",""1"",""2637""
","
","
","""event"",""trial"",""time""
""fullscreenenter"",""1"",""2637""
","
",,null,run_exp/static/images/task_images/barrel_text.jpg,null,,,,,,,,,,,,,,,,,,,,,,,,
decision_prac,33,197082,0.0-12.0-2.0,"""event"",""trial"",""time""
""fullscreenenter"",""1"",""2637""
","
","
","""event"",""trial"",""time""
""fullscreenenter"",""1"",""2637""
","
",,531.6000001,run_exp/static/images/task_images/land.jpg,65,,,,,,,,,,,2,,,,,,,,,,,,,
dig_prac,34,199099,0.0-13.0-0.0,"""event"",""trial"",""time""
""fullscreenenter"",""1"",""2637""
","
","
","""event"",""trial"",""time""
""fullscreenenter"",""1"",""2637""
","
",,,,,,,,,,,,"[{""stimulus"":""run_exp/static/images/task_images/dig.jpg"",""time"":0.19999980926513672},{""stimulus"":""run_exp/static/images/task_images/land.jpg"",""time"":678.5999999046326},{""stimulus"":""run_exp/static/images/task_images/dig.jpg"",""time"":1338.6999998092651}]",[],,,,,,,,,,,,,,,
harvest_prac,35,200111,0.0-13.0-1.0,"""event"",""trial"",""time""
""fullscreenenter"",""1"",""2637""
","
","
","""event"",""trial"",""time""
""fullscreenenter"",""1"",""2637""
","
",,null,run_exp/static/images/task_images/barrel_text.jpg,null,,,,,,,,,,,,,,,,,,,,,,,,
decision_prac,36,200418,0.0-13.0-2.0,"""event"",""trial"",""time""
""fullscreenenter"",""1"",""2637""
","
","
","""event"",""trial"",""time""
""fullscreenenter"",""1"",""2637""
","
",,304.2,run_exp/static/images/task_images/land.jpg,65,,,,,,,,,,,3,,,,,,,,,,,,,
dig_prac,37,202429,0.0-14.0-0.0,"""event"",""trial"",""time""
""fullscreenenter"",""1"",""2637""
","
","
","""event"",""trial"",""time""
""fullscreenenter"",""1"",""2637""
","
",,,,,,,,,,,,"[{""stimulus"":""run_exp/static/images/task_images/dig.jpg"",""time"":0.2999999523162842},{""stimulus"":""run_exp/static/images/task_images/land.jpg"",""time"":671.3999998569489},{""stimulus"":""run_exp/static/images/task_images/dig.jpg"",""time"":1346.3999998569489}]",[],,,,,,,,,,,,,,,
harvest_prac,38,203437,0.0-14.0-1.0,"""event"",""trial"",""time""
""fullscreenenter"",""1"",""2637""
","
","
","""event"",""trial"",""time""
""fullscreenenter"",""1"",""2637""
","
",,null,run_exp/static/images/task_images/barrel_text.jpg,null,,,,,,,,,,,,,,,,,,,,,,,,
decision_prac,39,203701,0.0-14.0-2.0,"""event"",""trial"",""time""
""fullscreenenter"",""1"",""2637""
","
","
","""event"",""trial"",""time""
""fullscreenenter"",""1"",""2637""
","
",,262.1000001,run_exp/static/images/task_images/land.jpg,65,,,,,,,,,,,4,,,,,,,,,,,,,
dig_prac,40,205708,0.0-15.0-0.0,"""event"",""trial"",""time""
""fullscreenenter"",""1"",""2637""
","
","
","""event"",""trial"",""time""
""fullscreenenter"",""1"",""2637""
","
",,,,,,,,,,,,"[{""stimulus"":""run_exp/static/images/task_images/dig.jpg"",""time"":0.2999999523162842},{""stimulus"":""run_exp/static/images/task_images/land.jpg"",""time"":678.7000000476837},{""stimulus"":""run_exp/static/images/task_images/dig.jpg"",""time"":1343.9000000953674}]",[],,,,,,,,,,,,,,,
harvest_prac,41,206719,0.0-15.0-1.0,"""event"",""trial"",""time""
""fullscreenenter"",""1"",""2637""
","
","
","""event"",""trial"",""time""
""fullscreenenter"",""1"",""2637""
","
",,null,run_exp/static/images/task_images/barrel_text.jpg,null,,,,,,,,,,,,,,,,,,,,,,,,
decision_prac,42,206898,0.0-15.0-2.0,"""event"",""trial"",""time""
""fullscreenenter"",""1"",""2637""
","
","
","""event"",""trial"",""time""
""fullscreenenter"",""1"",""2637""
","
",,177,run_exp/static/images/task_images/land.jpg,65,,,,,,,,,,,,1,,,,,,,,,,,,
quiz_instruc,43,213030,0.0-16.0-0.0,"""event"",""trial"",""time""
""fullscreenenter"",""1"",""2637""
","
","
","""event"",""trial"",""time""
""fullscreenenter"",""1"",""2637""
","
",,6128,run_exp/static/audio/clip_10_quiz.m4a,,,,,,,0,,,,,,,,,,,,,,,,,,
instruc_repeat,44,255791,0.0-16.0-1.0,"""event"",""trial"",""time""
""fullscreenenter"",""1"",""2637""
","
","
","""event"",""trial"",""time""
""fullscreenenter"",""1"",""2637""
","
",,null,"<p> Are you ready to play a practice game? </p> <p>In this practice game, you'll be digging up barrels of gems. But, in the real game, you'll be digging up the gems themselves. </p>",null,"<p>In this game, your goal is to collect as many gems as you can. That’s how you will win bonus money. </p> <p>The entire game will last 20 minutes no matter how many gems you collect or how many planets you visit. </p><p>To stay on a planet and dig again, press the letter A on your keyboard. To leave for a new planet, press the letter L.</p><p>The more you dig on a planet, the fewer gems you’ll get with each dig which is why you might consider leaving for a new planet. </p><p>When you arrive at a new planet, you’ll be greeted by an alien. What the alien looks like does not tell you anything about how much treasure is on the planet. </p>",,,,,,,,,,,,,,,,,,,,,,,
instruc_repeat_continue,45,257085,0.0-16.0-2.0,"""event"",""trial"",""time""
""fullscreenenter"",""1"",""2637""
","
","
","""event"",""trial"",""time""
""fullscreenenter"",""1"",""2637""
","
",,1291.6,"<p> Are you ready to play a practice game? </p> <p>In this practice game, you'll be digging up barrels of gems. But, in the real game, you'll be digging up the gems themselves. </p>",,,,,,,0,,,,,,,,,,,,,,,,,,
quiz_q_1_ask,46,262030,0.0-16.0-3.0,"""event"",""trial"",""time""
""fullscreenenter"",""1"",""2637""
","
","
","""event"",""trial"",""time""
""fullscreenenter"",""1"",""2637""
","
",,4942.5,run_exp/static/audio/clip_11_q1_ask.m4a,,,,,,,2,,,,,,,,,,,,,,,,,,
quiz_q_1_fb_correct,47,265878,0.0-17.0-0.0,"""event"",""trial"",""time""
""fullscreenenter"",""1"",""2637""
","
","
","""event"",""trial"",""time""
""fullscreenenter"",""1"",""2637""
","
",,null,run_exp/static/audio/clip_12_q1_correct.m4a,null,<p>That’s correct. You win extra money by collecting more gems.</p>,,,,,,,,,,,,,,,,,,,,,,,
quiz_q_2_ask,48,270138,0.0-17.0-1.0,"""event"",""trial"",""time""
""fullscreenenter"",""1"",""2637""
","
","
","""event"",""trial"",""time""
""fullscreenenter"",""1"",""2637""
","
",,4256.2,run_exp/static/audio/clip_14_q2_ask.m4a,,,,,,,1,,,,,,,,,,,,,,,,,,
quiz_q_2_fb_correct,49,274177,0.0-18.0-0.0,"""event"",""trial"",""time""
""fullscreenenter"",""1"",""2637""
","
","
","""event"",""trial"",""time""
""fullscreenenter"",""1"",""2637""
","
",,null,run_exp/static/audio/clip_15_q2_correct.m4a,null,<p>That’s correct. The experiment is 20 minutes no matter what.</p>,,,,,,,,,,,,,,,,,,,,,,,
quiz_q_3_ask,50,276255,0.0-18.0-1.0,"""event"",""trial"",""time""
""fullscreenenter"",""1"",""2637""
","
","
","""event"",""trial"",""time""
""fullscreenenter"",""1"",""2637""
","
",,2075.4,run_exp/static/audio/clip_17_q3_ask.m4a,,,,,,,1,,,,,,,,,,,,,,,,,,
quiz_q_3_fb_correct,51,280235,0.0-19.0-0.0,"""event"",""trial"",""time""
""fullscreenenter"",""1"",""2637""
","
","
","""event"",""trial"",""time""
""fullscreenenter"",""1"",""2637""
","
",,null,run_exp/static/audio/clip_18_q3_correct.m4a,null,<p> That’s correct. You press the letter L to travel to a new planet.</p>,,,,,,,,,,,,,,,,,,,,,,,
quiz_q_4_ask,52,282434,0.0-19.0-1.0,"""event"",""trial"",""time""
""fullscreenenter"",""1"",""2637""
","
","
","""event"",""trial"",""time""
""fullscreenenter"",""1"",""2637""
","
",,2196.2,run_exp/static/audio/clip_20_q4_ask.m4a,,,,,,,0,,,,,,,,,,,,,,,,,,
quiz_q_4_fb_correct,53,287766,0.0-20.0-0.0,"""event"",""trial"",""time""
""fullscreenenter"",""1"",""2637""
","
","
","""event"",""trial"",""time""
""fullscreenenter"",""1"",""2637""
","
",,null,run_exp/static/audio/clip_21_q4_correct.m4a,null,<p> That’s correct. The more you dig on a planet the fewer gems you’ll get with each dig. </p>,,,,,,,,,,,,,,,,,,,,,,,
quiz_q_5_ask,54,290159,0.0-20.0-1.0,"""event"",""trial"",""time""
""fullscreenenter"",""1"",""2637""
","
","
","""event"",""trial"",""time""
""fullscreenenter"",""1"",""2637""
","
",,2390.1,run_exp/static/audio/clip_23_q5_ask.m4a,,,,,,,1,,,,,,,,,,,,,,,,,,
quiz_q_5_fb_correct,55,295169,0.0-21.0-0.0,"""event"",""trial"",""time""
""fullscreenenter"",""1"",""2637""
","
","
","""event"",""trial"",""time""
""fullscreenenter"",""1"",""2637""
","
",,null,run_exp/static/audio/clip_24_q5_correct.m4a,null,<p> That’s correct. The alien tells you nothing about how much treasure is on the planet.</p>,,,,,,,,,,,,,,,,,,,,,,,
quiz_correct,56,298624,0.0-22.0-0.0,"""event"",""trial"",""time""
""fullscreenenter"",""1"",""2637""
","
","
","""event"",""trial"",""time""
""fullscreenenter"",""1"",""2637""
","
",,null,run_exp/static/audio/clip_26_correct_quiz.m4a,null,,,,,,,,,,,,,,,,,,,,,,,,
quiz_correct_continue,57,306684,0.0-22.0-1.0,"""event"",""trial"",""time""
""fullscreenenter"",""1"",""2637""
","
","
","""event"",""trial"",""time""
""fullscreenenter"",""1"",""2637""
","
",,8058.4,<p>Good job! You're now ready to move on to the real game!</p>,,,,,,,0,,,,,,,,,,,,,,,,,,
audio-keyboard-response,58,316821,0.0-22.0-2.0,"""event"",""trial"",""time""
""fullscreenenter"",""1"",""2637""
","
","
","""event"",""trial"",""time""
""fullscreenenter"",""1"",""2637""
","
",,null,run_exp/static/audio/clip_28_real_game.m4a,null,,,,,,,,,,,,,,,,,,,,,,,,
instruc_begin_exp_contine,59,364868,0.0-22.0-3.0,"""event"",""trial"",""time""
""fullscreenenter"",""1"",""2637""
","
","
","""event"",""trial"",""time""
""fullscreenenter"",""1"",""2637""
","
",,48045.3,"<p>Now that you know how  to dig for space treasure and travel to new planets,you can start exploring! </p><p>Do you want to go over the instructions again or get started with the real game?</p>",,,,,,,1,,,,,,1,,,,,,,,,,,,
alien_welcome,60,369879,0.0-23.0-0.0,"""event"",""trial"",""time""
""fullscreenenter"",""1"",""2637""
","
","
","""event"",""trial"",""time""
""fullscreenenter"",""1"",""2637""
","
",,null,run_exp/static/images/task_images/aliens/old_aliens/planet/alien_planet-31.jpg,null,,,,,,,,,,,,,31,"31,66,60,37,20,57,55,2,59,72,30,77,46,13,42,62,15,56,8,32,9,39,18,63,34,52,1,68,44",,,,,,,,,,
land,61,370393,0.0-23.0-1.0,"""event"",""trial"",""time""
""fullscreenenter"",""1"",""2637""
","
","
","""event"",""trial"",""time""
""fullscreenenter"",""1"",""2637""
","
",,null,run_exp/static/images/task_images/land.jpg,null,,,,,,,102,,,1,,,,,,,,,,,,,,
dig,62,372402,0.0-23.0-2.0,"""event"",""trial"",""time""
""fullscreenenter"",""1"",""2637""
","
","
","""event"",""trial"",""time""
""fullscreenenter"",""1"",""2637""
","
",,,,,,,,,,,,"[{""stimulus"":""run_exp/static/images/task_images/dig.jpg"",""time"":0.5999999046325684},{""stimulus"":""run_exp/static/images/task_images/land.jpg"",""time"":672.2999999523163},{""stimulus"":""run_exp/static/images/task_images/dig.jpg"",""time"":1346}]",[],1,,,,,,,,,,,,,,
harvest,63,373415,0.0-23.0-3.0,"""event"",""trial"",""time""
""fullscreenenter"",""1"",""2637""
","
","
","""event"",""trial"",""time""
""fullscreenenter"",""1"",""2637""
","
",,null,run_exp/static/images/task_images/gems/102.jpg,null,,,,,,,16,,,1,,,,,102,0.156900396,0.156862745,,,,,,,
decision,64,373823,0.0-23.0-4.0,"""event"",""trial"",""time""
""fullscreenenter"",""1"",""2637""
","
","
","""event"",""trial"",""time""
""fullscreenenter"",""1"",""2637""
","
",,405.7,run_exp/static/images/task_images/land.jpg,65,,,,,,,16,,,1,,,,,,,,8953,1,0,FALSE,,,
dig,65,376427,0.0-24.0-0.0,"""event"",""trial"",""time""
""fullscreenenter"",""1"",""2637""
","
","
","""event"",""trial"",""time""
""fullscreenenter"",""1"",""2637""
","
",,,,,,,,,,,,"[{""stimulus"":""run_exp/static/images/task_images/dig.jpg"",""time"":0.20000004768371582},{""stimulus"":""run_exp/static/images/task_images/land.jpg"",""time"":877.7000000476837},{""stimulus"":""run_exp/static/images/task_images/dig.jpg"",""time"":1740.1000001430511}]",[],1,,,,,,,,,,,,,,
harvest,66,377436,0.0-24.0-1.0,"""event"",""trial"",""time""
""fullscreenenter"",""1"",""2637""
","
","
","""event"",""trial"",""time""
""fullscreenenter"",""1"",""2637""
","
",,null,run_exp/static/images/task_images/gems/16.jpg,null,,,,,,,3,,,1,,,,,16,0.19228035,0.1875,,,,,,,
decision,67,377778,0.0-24.0-2.0,"""event"",""trial"",""time""
""fullscreenenter"",""1"",""2637""
","
","
","""event"",""trial"",""time""
""fullscreenenter"",""1"",""2637""
","
",,339.7,run_exp/static/images/task_images/land.jpg,65,,,,,,,3,,,1,,,,,,,,12907,1,1,FALSE,,,
dig,68,380447,0.0-25.0-0.0,"""event"",""trial"",""time""
""fullscreenenter"",""1"",""2637""
","
","
","""event"",""trial"",""time""
""fullscreenenter"",""1"",""2637""
","
",,,,,,,,,,,,"[{""stimulus"":""run_exp/static/images/task_images/dig.jpg"",""time"":0.20000004768371582},{""stimulus"":""run_exp/static/images/task_images/land.jpg"",""time"":894.9000000953674},{""stimulus"":""run_exp/static/images/task_images/dig.jpg"",""time"":1784.4000000953674}]",[],1,,,,,,,,,,,,,,
harvest,69,381456,0.0-25.0-1.0,"""event"",""trial"",""time""
""fullscreenenter"",""1"",""2637""
","
","
","""event"",""trial"",""time""
""fullscreenenter"",""1"",""2637""
","
",,null,run_exp/static/images/task_images/gems/3.jpg,null,,,,,,,0,,,1,,,,,3,0.142946245,0,,,,,,,
decision,70,381700,0.0-25.0-2.0,"""event"",""trial"",""time""
""fullscreenenter"",""1"",""2637""
","
","
","""event"",""trial"",""time""
""fullscreenenter"",""1"",""2637""
","
",,241.7,run_exp/static/images/task_images/land.jpg,65,,,,,,,0,,,1,,,,,,,,16829,1,2,FALSE,,,
dig,71,384469,0.0-26.0-0.0,"""event"",""trial"",""time""
""fullscreenenter"",""1"",""2637""
","
","
","""event"",""trial"",""time""
""fullscreenenter"",""1"",""2637""
","
",,,,,,,,,,,,"[{""stimulus"":""run_exp/static/images/task_images/dig.jpg"",""time"":0.20000004768371582},{""stimulus"":""run_exp/static/images/task_images/land.jpg"",""time"":925},{""stimulus"":""run_exp/static/images/task_images/dig.jpg"",""time"":1844.0999999046326}]",[],1,,,,,,,,,,,,,,
harvest,72,385481,0.0-26.0-1.0,"""event"",""trial"",""time""
""fullscreenenter"",""1"",""2637""
","
","
","""event"",""trial"",""time""
""fullscreenenter"",""1"",""2637""
","
",,null,run_exp/static/images/task_images/gems/0.jpg,null,,,,,,,0,,,1,,,,,0,0.18596374,NaN,,,,,,,
decision,73,385652,0.0-26.0-2.0,"""event"",""trial"",""time""
""fullscreenenter"",""1"",""2637""
","
","
","""event"",""trial"",""time""
""fullscreenenter"",""1"",""2637""
","
",,168.7,run_exp/static/images/task_images/land.jpg,76,,,,,,,0,,,1,,,,,,,,20781,1,3,TRUE,,,
travel,74,395491,0.0-27.0-0.0,"""event"",""trial"",""time""
""fullscreenenter"",""1"",""2637""
","
","
","""event"",""trial"",""time""
""fullscreenenter"",""1"",""2637""
","
",,,,,,,,,,,,"[{""stimulus"":""run_exp/static/images/task_images/rocket-01.jpg"",""time"":0.20000004768371582},{""stimulus"":""run_exp/static/images/task_images/rocket-02.jpg"",""time"":1103.5},{""stimulus"":""run_exp/static/images/task_images/rocket-03.jpg"",""time"":2194.4000000953674},{""stimulus"":""run_exp/static/images/task_images/rocket-04.jpg"",""time"":3287.2000000476837},{""stimulus"":""run_exp/static/images/task_images/rocket-05.jpg"",""time"":4377.5},{""stimulus"":""run_exp/static/images/task_images/rocket-06.jpg"",""time"":5474.299999952316},{""stimulus"":""run_exp/static/images/task_images/rocket-07.jpg"",""time"":6562.299999952316},{""stimulus"":""run_exp/static/images/task_images/rocket-08.jpg"",""time"":7656.299999952316},{""stimulus"":""run_exp/static/images/task_images/rocket-09.jpg"",""time"":8746.400000095367}]",[],1,,,,,,,,,,,,,,
alien_welcome,75,400499,0.0-27.0-1.0,"""event"",""trial"",""time""
""fullscreenenter"",""1"",""2637""
","
","
","""event"",""trial"",""time""
""fullscreenenter"",""1"",""2637""
","
",,null,run_exp/static/images/task_images/aliens/old_aliens/planet/alien_planet-66.jpg,null,,,,,,,,,,,,,66,"31,66,60,37,20,57,55,2,59,72,30,77,46,13,42,62,15,56,8,32,9,39,18,63,34,52,1,68,44",,,,,,,,,,
land,76,401003,0.0-27.0-2.0,"""event"",""trial"",""time""
""fullscreenenter"",""1"",""2637""
","
","
","""event"",""trial"",""time""
""fullscreenenter"",""1"",""2637""
","
",,null,run_exp/static/images/task_images/land.jpg,null,,,,,,,100,,,2,,,,,,,,,,,,,,
dig,77,403015,0.0-27.0-3.0,"""event"",""trial"",""time""
""fullscreenenter"",""1"",""2637""
","
","
","""event"",""trial"",""time""
""fullscreenenter"",""1"",""2637""
","
",,,,,,,,,,,,"[{""stimulus"":""run_exp/static/images/task_images/dig.jpg"",""time"":0.5},{""stimulus"":""run_exp/static/images/task_images/land.jpg"",""time"":683.9000000953674},{""stimulus"":""run_exp/static/images/task_images/dig.jpg"",""time"":1336.2000000476837}]",[],2,,,,,,,,,,,,,,
harvest,78,404023,0.0-27.0-4.0,"""event"",""trial"",""time""
""fullscreenenter"",""1"",""2637""
","
","
","""event"",""trial"",""time""
""fullscreenenter"",""1"",""2637""
","
",,null,run_exp/static/images/task_images/gems/100.jpg,null,,,,,,,34,,,2,,,,,100,0.343499085,0.34,,,,,,,
decision,79,404308,0.0-27.0-5.0,"""event"",""trial"",""time""
""fullscreenenter"",""1"",""2637""
","
","
","""event"",""trial"",""time""
""fullscreenenter"",""1"",""2637""
","
",,282.7,run_exp/static/images/task_images/land.jpg,65,,,,,,,34,,,2,,,,,,,,39437,1,0,FALSE,,,
dig,80,407034,0.0-28.0-0.0,"""event"",""trial"",""time""
""fullscreenenter"",""1"",""2637""
","
","
","""event"",""trial"",""time""
""fullscreenenter"",""1"",""2637""
","
",,,,,,,,,,,,"[{""stimulus"":""run_exp/static/images/task_images/dig.jpg"",""time"":0.20000004768371582},{""stimulus"":""run_exp/static/images/task_images/land.jpg"",""time"":909.5},{""stimulus"":""run_exp/static/images/task_images/dig.jpg"",""time"":1823.5}]",[],2,,,,,,,,,,,,,,
harvest,81,408049,0.0-28.0-1.0,"""event"",""trial"",""time""
""fullscreenenter"",""1"",""2637""
","
","
","""event"",""trial"",""time""
""fullscreenenter"",""1"",""2637""
","
",,null,run_exp/static/images/task_images/gems/34.jpg,null,,,,,,,5,,,2,,,,,34,0.151917729,0.147058824,,,,,,,
decision,82,408179,0.0-28.0-2.0,"""event"",""trial"",""time""
""fullscreenenter"",""1"",""2637""
","
","
","""event"",""trial"",""time""
""fullscreenenter"",""1"",""2637""
","
",,129.5,run_exp/static/images/task_images/land.jpg,65,,,,,,,5,,,2,,,,,,,,43308,1,1,FALSE,,,
dig,83,411065,0.0-29.0-0.0,"""event"",""trial"",""time""
""fullscreenenter"",""1"",""2637""
","
","
","""event"",""trial"",""time""
""fullscreenenter"",""1"",""2637""
","
",,,,,,,,,,,,"[{""stimulus"":""run_exp/static/images/task_images/dig.jpg"",""time"":0.10000014305114746},{""stimulus"":""run_exp/static/images/task_images/land.jpg"",""time"":965.7000000476837},{""stimulus"":""run_exp/static/images/task_images/dig.jpg"",""time"":1918.4000000953674}]",[],2,,,,,,,,,,,,,,
harvest,84,412077,0.0-29.0-1.0,"""event"",""trial"",""time""
""fullscreenenter"",""1"",""2637""
","
","
","""event"",""trial"",""time""
""fullscreenenter"",""1"",""2637""
","
",,null,run_exp/static/images/task_images/gems/5.jpg,null,,,,,,,1,,,2,,,,,5,0.220133181,0.2,,,,,,,
decision,85,412289,0.0-29.0-2.0,"""event"",""trial"",""time""
""fullscreenenter"",""1"",""2637""
","
","
","""event"",""trial"",""time""
""fullscreenenter"",""1"",""2637""
","
",,209.3,run_exp/static/images/task_images/land.jpg,65,,,,,,,1,,,2,,,,,,,,47418,1,2,FALSE,,,
dig,86,415097,0.0-30.0-0.0,"""event"",""trial"",""time""
""fullscreenenter"",""1"",""2637""
","
","
","""event"",""trial"",""time""
""fullscreenenter"",""1"",""2637""
","
",,,,,,,,,,,,"[{""stimulus"":""run_exp/static/images/task_images/dig.jpg"",""time"":0.09999990463256836},{""stimulus"":""run_exp/static/images/task_images/land.jpg"",""time"":938.5},{""stimulus"":""run_exp/static/images/task_images/dig.jpg"",""time"":1866.0999999046326}]",[],2,,,,,,,,,,,,,,
harvest,87,416112,0.0-30.0-1.0,"""event"",""trial"",""time""
""fullscreenenter"",""1"",""2637""
","
","
","""event"",""trial"",""time""
""fullscreenenter"",""1"",""2637""
","
",,null,run_exp/static/images/task_images/gems/1.jpg,null,,,,,,,0,,,2,,,,,1,0.264077498,0,,,,,,,
decision,88,416375,0.0-30.0-2.0,"""event"",""trial"",""time""
""fullscreenenter"",""1"",""2637""
","
","
","""event"",""trial"",""time""
""fullscreenenter"",""1"",""2637""
","
",,261.1000001,run_exp/static/images/task_images/land.jpg,76,,,,,,,0,,,2,,,,,,,,51504,1,3,TRUE,,,
travel,89,426122,0.0-31.0-0.0,"""event"",""trial"",""time""
""fullscreenenter"",""1"",""2637""
","
","
","""event"",""trial"",""time""
""fullscreenenter"",""1"",""2637""
","
",,,,,,,,,,,,"[{""stimulus"":""run_exp/static/images/task_images/rocket-01.jpg"",""time"":0.3000001907348633},{""stimulus"":""run_exp/static/images/task_images/rocket-02.jpg"",""time"":1086.6000001430511},{""stimulus"":""run_exp/static/images/task_images/rocket-03.jpg"",""time"":2168.2000000476837},{""stimulus"":""run_exp/static/images/task_images/rocket-04.jpg"",""time"":3256.600000143051},{""stimulus"":""run_exp/static/images/task_images/rocket-05.jpg"",""time"":4336.400000095367},{""stimulus"":""run_exp/static/images/task_images/rocket-06.jpg"",""time"":5415.700000047684},{""stimulus"":""run_exp/static/images/task_images/rocket-07.jpg"",""time"":6496.200000047684},{""stimulus"":""run_exp/static/images/task_images/rocket-08.jpg"",""time"":7582.400000095367},{""stimulus"":""run_exp/static/images/task_images/rocket-09.jpg"",""time"":8662.600000143051}]",[],2,,,,,,,,,,,,,,
alien_welcome,90,431130,0.0-31.0-1.0,"""event"",""trial"",""time""
""fullscreenenter"",""1"",""2637""
","
","
","""event"",""trial"",""time""
""fullscreenenter"",""1"",""2637""
","
",,null,run_exp/static/images/task_images/aliens/old_aliens/planet/alien_planet-60.jpg,null,,,,,,,,,,,,,60,"31,66,60,37,20,57,55,2,59,72,30,77,46,13,42,62,15,56,8,32,9,39,18,63,34,52,1,68,44",,,,,,,,,,
land,91,431634,0.0-31.0-2.0,"""event"",""trial"",""time""
""fullscreenenter"",""1"",""2637""
","
","
","""event"",""trial"",""time""
""fullscreenenter"",""1"",""2637""
","
",,null,run_exp/static/images/task_images/land.jpg,null,,,,,,,101,,,3,,,,,,,,,,,,,,
dig,92,433641,0.0-31.0-3.0,"""event"",""trial"",""time""
""fullscreenenter"",""1"",""2637""
","
","
","""event"",""trial"",""time""
""fullscreenenter"",""1"",""2637""
","
",,,,,,,,,,,,"[{""stimulus"":""run_exp/static/images/task_images/dig.jpg"",""time"":0.09999990463256836},{""stimulus"":""run_exp/static/images/task_images/land.jpg"",""time"":671.1999998092651},{""stimulus"":""run_exp/static/images/task_images/dig.jpg"",""time"":1344.2999999523163}]",[],3,,,,,,,,,,,,,,
harvest,93,434650,0.0-31.0-4.0,"""event"",""trial"",""time""
""fullscreenenter"",""1"",""2637""
","
","
","""event"",""trial"",""time""
""fullscreenenter"",""1"",""2637""
","
",,null,run_exp/static/images/task_images/gems/101.jpg,null,,,,,,,48,,,3,,,,,101,0.476056898,0.475247525,,,,,,,
decision,94,434921,0.0-31.0-5.0,"""event"",""trial"",""time""
""fullscreenenter"",""1"",""2637""
","
","
","""event"",""trial"",""time""
""fullscreenenter"",""1"",""2637""
","
",,268.4000001,run_exp/static/images/task_images/land.jpg,65,,,,,,,48,,,3,,,,,,,,70050,1,0,FALSE,,,
dig,95,437657,0.0-32.0-0.0,"""event"",""trial"",""time""
""fullscreenenter"",""1"",""2637""
","
","
","""event"",""trial"",""time""
""fullscreenenter"",""1"",""2637""
","
",,,,,,,,,,,,"[{""stimulus"":""run_exp/static/images/task_images/dig.jpg"",""time"":0.2999999523162842},{""stimulus"":""run_exp/static/images/task_images/land.jpg"",""time"":920.1000001430511},{""stimulus"":""run_exp/static/images/task_images/dig.jpg"",""time"":1824.2000000476837}]",[],3,,,,,,,,,,,,,,
harvest,96,438668,0.0-32.0-1.0,"""event"",""trial"",""time""
""fullscreenenter"",""1"",""2637""
","
","
","""event"",""trial"",""time""
""fullscreenenter"",""1"",""2637""
","
",,null,run_exp/static/images/task_images/gems/48.jpg,null,,,,,,,26,,,3,,,,,48,0.531503035,0.541666667,,,,,,,
decision,97,438682,0.0-32.0-2.0,"""event"",""trial"",""time""
""fullscreenenter"",""1"",""2637""
","
","
","""event"",""trial"",""time""
""fullscreenenter"",""1"",""2637""
","
",,12.69999981,run_exp/static/images/task_images/land.jpg,65,,,,,,,26,,,3,,,,,,,,73811,1,1,FALSE,,,
dig,98,441676,0.0-33.0-0.0,"""event"",""trial"",""time""
""fullscreenenter"",""1"",""2637""
","
","
","""event"",""trial"",""time""
""fullscreenenter"",""1"",""2637""
","
",,,,,,,,,,,,"[{""stimulus"":""run_exp/static/images/task_images/dig.jpg"",""time"":0.10000014305114746},{""stimulus"":""run_exp/static/images/task_images/land.jpg"",""time"":1000.3000001907349},{""stimulus"":""run_exp/static/images/task_images/dig.jpg"",""time"":1999}]",[],3,,,,,,,,,,,,,,
harvest,99,442683,0.0-33.0-1.0,"""event"",""trial"",""time""
""fullscreenenter"",""1"",""2637""
","
","
","""event"",""trial"",""time""
""fullscreenenter"",""1"",""2637""
","
",,null,run_exp/static/images/task_images/gems/26.jpg,null,,,,,,,13,,,3,,,,,26,0.485804865,0.5,,,,,,,
decision,100,442942,0.0-33.0-2.0,"""event"",""trial"",""time""
""fullscreenenter"",""1"",""2637""
","
","
","""event"",""trial"",""time""
""fullscreenenter"",""1"",""2637""
","
",,256.8000002,run_exp/static/images/task_images/land.jpg,65,,,,,,,13,,,3,,,,,,,,78071,1,2,FALSE,,,
dig,101,445690,0.0-34.0-0.0,"""event"",""trial"",""time""
""fullscreenenter"",""1"",""2637""
","
","
","""event"",""trial"",""time""
""fullscreenenter"",""1"",""2637""
","
",,,,,,,,,,,,"[{""stimulus"":""run_exp/static/images/task_images/dig.jpg"",""time"":0.3000001907348633},{""stimulus"":""run_exp/static/images/task_images/land.jpg"",""time"":927.8000001907349},{""stimulus"":""run_exp/static/images/task_images/dig.jpg"",""time"":1836.6000001430511}]",[],3,,,,,,,,,,,,,,
harvest,102,446705,0.0-34.0-1.0,"""event"",""trial"",""time""
""fullscreenenter"",""1"",""2637""
","
","
","""event"",""trial"",""time""
""fullscreenenter"",""1"",""2637""
","
",,null,run_exp/static/images/task_images/gems/13.jpg,null,,,,,,,5,,,3,,,,,13,0.40386467,0.384615385,,,,,,,
decision,103,446915,0.0-34.0-2.0,"""event"",""trial"",""time""
""fullscreenenter"",""1"",""2637""
","
","
","""event"",""trial"",""time""
""fullscreenenter"",""1"",""2637""
","
",,208.9000001,run_exp/static/images/task_images/land.jpg,65,,,,,,,5,,,3,,,,,,,,82044,1,3,FALSE,,,
dig,104,449721,0.0-35.0-0.0,"""event"",""trial"",""time""
""fullscreenenter"",""1"",""2637""
","
","
","""event"",""trial"",""time""
""fullscreenenter"",""1"",""2637""
","
",,,,,,,,,,,,"[{""stimulus"":""run_exp/static/images/task_images/dig.jpg"",""time"":0.20000004768371582},{""stimulus"":""run_exp/static/images/task_images/land.jpg"",""time"":932.4000000953674},{""stimulus"":""run_exp/static/images/task_images/dig.jpg"",""time"":1869.2000000476837}]",[],3,,,,,,,,,,,,,,
harvest,105,450737,0.0-35.0-1.0,"""event"",""trial"",""time""
""fullscreenenter"",""1"",""2637""
","
","
","""event"",""trial"",""time""
""fullscreenenter"",""1"",""2637""
","
",,null,run_exp/static/images/task_images/gems/5.jpg,null,,,,,,,3,,,3,,,,,5,0.591294112,0.6,,,,,,,
decision,106,450857,0.0-35.0-2.0,"""event"",""trial"",""time""
""fullscreenenter"",""1"",""2637""
","
","
","""event"",""trial"",""time""
""fullscreenenter"",""1"",""2637""
","
",,118.3,run_exp/static/images/task_images/land.jpg,65,,,,,,,3,,,3,,,,,,,,85986,1,4,FALSE,,,
dig,107,453748,0.0-36.0-0.0,"""event"",""trial"",""time""
""fullscreenenter"",""1"",""2637""
","
","
","""event"",""trial"",""time""
""fullscreenenter"",""1"",""2637""
","
",,,,,,,,,,,,"[{""stimulus"":""run_exp/static/images/task_images/dig.jpg"",""time"":0.3000001907348633},{""stimulus"":""run_exp/static/images/task_images/land.jpg"",""time"":968.2000000476837},{""stimulus"":""run_exp/static/images/task_images/dig.jpg"",""time"":1926.8000001907349}]",[],3,,,,,,,,,,,,,,
harvest,108,454757,0.0-36.0-1.0,"""event"",""trial"",""time""
""fullscreenenter"",""1"",""2637""
","
","
","""event"",""trial"",""time""
""fullscreenenter"",""1"",""2637""
","
",,null,run_exp/static/images/task_images/gems/3.jpg,null,,,,,,,2,,,3,,,,,3,0.512752274,0.666666667,,,,,,,
decision,109,454963,0.0-36.0-2.0,"""event"",""trial"",""time""
""fullscreenenter"",""1"",""2637""
","
","
","""event"",""trial"",""time""
""fullscreenenter"",""1"",""2637""
","
",,203.9000001,run_exp/static/images/task_images/land.jpg,76,,,,,,,2,,,3,,,,,,,,90092,1,5,TRUE,,,
travel,110,464768,0.0-37.0-0.0,"""event"",""trial"",""time""
""fullscreenenter"",""1"",""2637""
","
","
","""event"",""trial"",""time""
""fullscreenenter"",""1"",""2637""
","
",,,,,,,,,,,,"[{""stimulus"":""run_exp/static/images/task_images/rocket-01.jpg"",""time"":0.19999980926513672},{""stimulus"":""run_exp/static/images/task_images/rocket-02.jpg"",""time"":1093.1999998092651},{""stimulus"":""run_exp/static/images/task_images/rocket-03.jpg"",""time"":2180.0999999046326},{""stimulus"":""run_exp/static/images/task_images/rocket-04.jpg"",""time"":3268.5},{""stimulus"":""run_exp/static/images/task_images/rocket-05.jpg"",""time"":4356.5},{""stimulus"":""run_exp/static/images/task_images/rocket-06.jpg"",""time"":5444.099999904633},{""stimulus"":""run_exp/static/images/task_images/rocket-07.jpg"",""time"":6538.299999952316},{""stimulus"":""run_exp/static/images/task_images/rocket-08.jpg"",""time"":7626.299999952316},{""stimulus"":""run_exp/static/images/task_images/rocket-09.jpg"",""time"":8708.5}]",[],3,,,,,,,,,,,,,,
alien_welcome,111,469781,0.0-37.0-1.0,"""event"",""trial"",""time""
""fullscreenenter"",""1"",""2637""
","
","
","""event"",""trial"",""time""
""fullscreenenter"",""1"",""2637""
","
",,null,run_exp/static/images/task_images/aliens/old_aliens/planet/alien_planet-37.jpg,null,,,,,,,,,,,,,37,"31,66,60,37,20,57,55,2,59,72,30,77,46,13,42,62,15,56,8,32,9,39,18,63,34,52,1,68,44",,,,,,,,,,
land,112,470290,0.0-37.0-2.0,"""event"",""trial"",""time""
""fullscreenenter"",""1"",""2637""
","
","
","""event"",""trial"",""time""
""fullscreenenter"",""1"",""2637""
","
",,null,run_exp/static/images/task_images/land.jpg,null,,,,,,,87,,,4,,,,,,,,,,,,,,
dig,113,472304,0.0-37.0-3.0,"""event"",""trial"",""time""
""fullscreenenter"",""1"",""2637""
","
","
","""event"",""trial"",""time""
""fullscreenenter"",""1"",""2637""
","
",,,,,,,,,,,,"[{""stimulus"":""run_exp/static/images/task_images/dig.jpg"",""time"":0.5},{""stimulus"":""run_exp/static/images/task_images/land.jpg"",""time"":677},{""stimulus"":""run_exp/static/images/task_images/dig.jpg"",""time"":1342.7000000476837}]",[],4,,,,,,,,,,,,,,
harvest,114,473315,0.0-37.0-4.0,"""event"",""trial"",""time""
""fullscreenenter"",""1"",""2637""
","
","
","""event"",""trial"",""time""
""fullscreenenter"",""1"",""2637""
","
",,null,run_exp/static/images/task_images/gems/87.jpg,null,,,,,,,41,,,4,,,,,87,0.473671234,0.471264368,,,,,,,
decision,115,473576,0.0-37.0-5.0,"""event"",""trial"",""time""
""fullscreenenter"",""1"",""2637""
","
","
","""event"",""trial"",""time""
""fullscreenenter"",""1"",""2637""
","
",,258.8,run_exp/static/images/task_images/land.jpg,65,,,,,,,41,,,4,,,,,,,,108705,1,0,FALSE,,,
dig,116,476323,0.0-38.0-0.0,"""event"",""trial"",""time""
""fullscreenenter"",""1"",""2637""
","
","
","""event"",""trial"",""time""
""fullscreenenter"",""1"",""2637""
","
",,,,,,,,,,,,"[{""stimulus"":""run_exp/static/images/task_images/dig.jpg"",""time"":0.2999999523162842},{""stimulus"":""run_exp/static/images/task_images/land.jpg"",""time"":921.7999999523163},{""stimulus"":""run_exp/static/images/task_images/dig.jpg"",""time"":1837.2999999523163}]",[],4,,,,,,,,,,,,,,
harvest,117,477331,0.0-38.0-1.0,"""event"",""trial"",""time""
""fullscreenenter"",""1"",""2637""
","
","
","""event"",""trial"",""time""
""fullscreenenter"",""1"",""2637""
","
",,null,run_exp/static/images/task_images/gems/41.jpg,null,,,,,,,18,,,4,,,,,41,0.4395045,0.43902439,,,,,,,
decision,118,477447,0.0-38.0-2.0,"""event"",""trial"",""time""
""fullscreenenter"",""1"",""2637""
","
","
","""event"",""trial"",""time""
""fullscreenenter"",""1"",""2637""
","
",,114.9000001,run_exp/static/images/task_images/land.jpg,65,,,,,,,18,,,4,,,,,,,,112577,1,1,FALSE,,,
dig,119,480340,0.0-39.0-0.0,"""event"",""trial"",""time""
""fullscreenenter"",""1"",""2637""
","
","
","""event"",""trial"",""time""
""fullscreenenter"",""1"",""2637""
","
",,,,,,,,,,,,"[{""stimulus"":""run_exp/static/images/task_images/dig.jpg"",""time"":0.39999985694885254},{""stimulus"":""run_exp/static/images/task_images/land.jpg"",""time"":974.3999998569489},{""stimulus"":""run_exp/static/images/task_images/dig.jpg"",""time"":1928.7000000476837}]",[],4,,,,,,,,,,,,,,
harvest,120,481352,0.0-39.0-1.0,"""event"",""trial"",""time""
""fullscreenenter"",""1"",""2637""
","
","
","""event"",""trial"",""time""
""fullscreenenter"",""1"",""2637""
","
",,null,run_exp/static/images/task_images/gems/18.jpg,null,,,,,,,9,,,4,,,,,18,0.486221322,0.5,,,,,,,
decision,121,481549,0.0-39.0-2.0,"""event"",""trial"",""time""
""fullscreenenter"",""1"",""2637""
","
","
","""event"",""trial"",""time""
""fullscreenenter"",""1"",""2637""
","
",,194.5,run_exp/static/images/task_images/land.jpg,65,,,,,,,9,,,4,,,,,,,,116678,1,2,FALSE,,,
dig,122,484363,0.0-40.0-0.0,"""event"",""trial"",""time""
""fullscreenenter"",""1"",""2637""
","
","
","""event"",""trial"",""time""
""fullscreenenter"",""1"",""2637""
","
",,,,,,,,,,,,"[{""stimulus"":""run_exp/static/images/task_images/dig.jpg"",""time"":0.20000004768371582},{""stimulus"":""run_exp/static/images/task_images/land.jpg"",""time"":942.1000001430511},{""stimulus"":""run_exp/static/images/task_images/dig.jpg"",""time"":1874.3000001907349}]",[],4,,,,,,,,,,,,,,
harvest,123,485370,0.0-40.0-1.0,"""event"",""trial"",""time""
""fullscreenenter"",""1"",""2637""
","
","
","""event"",""trial"",""time""
""fullscreenenter"",""1"",""2637""
","
",,null,run_exp/static/images/task_images/gems/9.jpg,null,,,,,,,5,,,4,,,,,9,0.512742569,0.555555556,,,,,,,
decision,124,485573,0.0-40.0-2.0,"""event"",""trial"",""time""
""fullscreenenter"",""1"",""2637""
","
","
","""event"",""trial"",""time""
""fullscreenenter"",""1"",""2637""
","
",,200.6000001,run_exp/static/images/task_images/land.jpg,65,,,,,,,5,,,4,,,,,,,,120702,1,3,FALSE,,,
dig,125,488383,0.0-41.0-0.0,"""event"",""trial"",""time""
""fullscreenenter"",""1"",""2637""
","
","
","""event"",""trial"",""time""
""fullscreenenter"",""1"",""2637""
","
",,,,,,,,,,,,"[{""stimulus"":""run_exp/static/images/task_images/dig.jpg"",""time"":0.20000004768371582},{""stimulus"":""run_exp/static/images/task_images/land.jpg"",""time"":944.4000000953674},{""stimulus"":""run_exp/static/images/task_images/dig.jpg"",""time"":1876}]",[],4,,,,,,,,,,,,,,
harvest,126,489386,0.0-41.0-1.0,"""event"",""trial"",""time""
""fullscreenenter"",""1"",""2637""
","
","
","""event"",""trial"",""time""
""fullscreenenter"",""1"",""2637""
","
",,null,run_exp/static/images/task_images/gems/5.jpg,null,,,,,,,2,,,4,,,,,5,0.477732584,0.4,,,,,,,
decision,127,489715,0.0-41.0-2.0,"""event"",""trial"",""time""
""fullscreenenter"",""1"",""2637""
","
","
","""event"",""trial"",""time""
""fullscreenenter"",""1"",""2637""
","
",,327.5,run_exp/static/images/task_images/land.jpg,65,,,,,,,2,,,4,,,,,,,,124845,1,4,FALSE,,,
dig,128,492400,0.0-42.0-0.0,"""event"",""trial"",""time""
""fullscreenenter"",""1"",""2637""
","
","
","""event"",""trial"",""time""
""fullscreenenter"",""1"",""2637""
","
",,,,,,,,,,,,"[{""stimulus"":""run_exp/static/images/task_images/dig.jpg"",""time"":0.20000004768371582},{""stimulus"":""run_exp/static/images/task_images/land.jpg"",""time"":897.2000000476837},{""stimulus"":""run_exp/static/images/task_images/dig.jpg"",""time"":1793}]",[],4,,,,,,,,,,,,,,
harvest,129,493409,0.0-42.0-1.0,"""event"",""trial"",""time""
""fullscreenenter"",""1"",""2637""
","
","
","""event"",""trial"",""time""
""fullscreenenter"",""1"",""2637""
","
",,null,run_exp/static/images/task_images/gems/2.jpg,null,,,,,,,1,,,4,,,,,2,0.545424089,0.5,,,,,,,
decision,130,493640,0.0-42.0-2.0,"""event"",""trial"",""time""
""fullscreenenter"",""1"",""2637""
","
","
","""event"",""trial"",""time""
""fullscreenenter"",""1"",""2637""
","
",,229.9000001,run_exp/static/images/task_images/land.jpg,76,,,,,,,1,,,4,,,,,,,,128769,1,5,TRUE,,,
travel,131,503414,0.0-43.0-0.0,"""event"",""trial"",""time""
""fullscreenenter"",""1"",""2637""
","
","
","""event"",""trial"",""time""
""fullscreenenter"",""1"",""2637""
","
",,,,,,,,,,,,"[{""stimulus"":""run_exp/static/images/task_images/rocket-01.jpg"",""time"":0.2999999523162842},{""stimulus"":""run_exp/static/images/task_images/rocket-02.jpg"",""time"":1088.8999998569489},{""stimulus"":""run_exp/static/images/task_images/rocket-03.jpg"",""time"":2179.5999999046326},{""stimulus"":""run_exp/static/images/task_images/rocket-04.jpg"",""time"":3266.7000000476837},{""stimulus"":""run_exp/static/images/task_images/rocket-05.jpg"",""time"":4350.399999856949},{""stimulus"":""run_exp/static/images/task_images/rocket-06.jpg"",""time"":5435.200000047684},{""stimulus"":""run_exp/static/images/task_images/rocket-07.jpg"",""time"":6521.299999952316},{""stimulus"":""run_exp/static/images/task_images/rocket-08.jpg"",""time"":7599.799999952316},{""stimulus"":""run_exp/static/images/task_images/rocket-09.jpg"",""time"":8692.399999856949}]",[],4,,,,,,,,,,,,,,
alien_welcome,132,508419,0.0-43.0-1.0,"""event"",""trial"",""time""
""fullscreenenter"",""1"",""2637""
","
","
","""event"",""trial"",""time""
""fullscreenenter"",""1"",""2637""
","
",,null,run_exp/static/images/task_images/aliens/old_aliens/planet/alien_planet-20.jpg,null,,,,,,,,,,,,,20,"31,66,60,37,20,57,55,2,59,72,30,77,46,13,42,62,15,56,8,32,9,39,18,63,34,52,1,68,44",,,,,,,,,,
land,133,508929,0.0-43.0-2.0,"""event"",""trial"",""time""
""fullscreenenter"",""1"",""2637""
","
","
","""event"",""trial"",""time""
""fullscreenenter"",""1"",""2637""
","
",,null,run_exp/static/images/task_images/land.jpg,null,,,,,,,96,,,5,,,,,,,,,,,,,,
dig,134,510944,0.0-43.0-3.0,"""event"",""trial"",""time""
""fullscreenenter"",""1"",""2637""
","
","
","""event"",""trial"",""time""
""fullscreenenter"",""1"",""2637""
","
",,,,,,,,,,,,"[{""stimulus"":""run_exp/static/images/task_images/dig.jpg"",""time"":0.39999985694885254},{""stimulus"":""run_exp/static/images/task_images/land.jpg"",""time"":672.2999999523163},{""stimulus"":""run_exp/static/images/task_images/dig.jpg"",""time"":1343.0999999046326}]",[],5,,,,,,,,,,,,,,
harvest,135,511958,0.0-43.0-4.0,"""event"",""trial"",""time""
""fullscreenenter"",""1"",""2637""
","
","
","""event"",""trial"",""time""
""fullscreenenter"",""1"",""2637""
","
",,null,run_exp/static/images/task_images/gems/96.jpg,null,,,,,,,54,,,5,,,,,96,0.56408482,0.5625,,,,,,,
decision,136,512230,0.0-43.0-5.0,"""event"",""trial"",""time""
""fullscreenenter"",""1"",""2637""
","
","
","""event"",""trial"",""time""
""fullscreenenter"",""1"",""2637""
","
",,270.0999999,run_exp/static/images/task_images/land.jpg,65,,,,,,,54,,,5,,,,,,,,147360,1,0,FALSE,,,
dig,137,514972,0.0-44.0-0.0,"""event"",""trial"",""time""
""fullscreenenter"",""1"",""2637""
","
","
","""event"",""trial"",""time""
""fullscreenenter"",""1"",""2637""
","
",,,,,,,,,,,,"[{""stimulus"":""run_exp/static/images/task_images/dig.jpg"",""time"":0.2999999523162842},{""stimulus"":""run_exp/static/images/task_images/land.jpg"",""time"":911.5},{""stimulus"":""run_exp/static/images/task_images/dig.jpg"",""time"":1826.5999999046326}]",[],5,,,,,,,,,,,,,,
harvest,138,515980,0.0-44.0-1.0,"""event"",""trial"",""time""
""fullscreenenter"",""1"",""2637""
","
","
","""event"",""trial"",""time""
""fullscreenenter"",""1"",""2637""
","
",,null,run_exp/static/images/task_images/gems/54.jpg,null,,,,,,,29,,,5,,,,,54,0.532125976,0.537037037,,,,,,,
decision,139,516069,0.0-44.0-2.0,"""event"",""trial"",""time""
""fullscreenenter"",""1"",""2637""
","
","
","""event"",""trial"",""time""
""fullscreenenter"",""1"",""2637""
","
",,86.60000014,run_exp/static/images/task_images/land.jpg,65,,,,,,,29,,,5,,,,,,,,151198,1,1,FALSE,,,
dig,140,518996,0.0-45.0-0.0,"""event"",""trial"",""time""
""fullscreenenter"",""1"",""2637""
","
","
","""event"",""trial"",""time""
""fullscreenenter"",""1"",""2637""
","
",,,,,,,,,,,,"[{""stimulus"":""run_exp/static/images/task_images/dig.jpg"",""time"":0.20000004768371582},{""stimulus"":""run_exp/static/images/task_images/land.jpg"",""time"":978},{""stimulus"":""run_exp/static/images/task_images/dig.jpg"",""time"":1952.0999999046326}]",[],5,,,,,,,,,,,,,,
harvest,141,520000,0.0-45.0-1.0,"""event"",""trial"",""time""
""fullscreenenter"",""1"",""2637""
","
","
","""event"",""trial"",""time""
""fullscreenenter"",""1"",""2637""
","
",,null,run_exp/static/images/task_images/gems/29.jpg,null,,,,,,,12,,,5,,,,,29,0.396699751,0.413793103,,,,,,,
decision,142,520126,0.0-45.0-2.0,"""event"",""trial"",""time""
""fullscreenenter"",""1"",""2637""
","
","
","""event"",""trial"",""time""
""fullscreenenter"",""1"",""2637""
","
",,124.8,run_exp/static/images/task_images/land.jpg,65,,,,,,,12,,,5,,,,,,,,155255,1,2,FALSE,,,
dig,143,523013,0.0-46.0-0.0,"""event"",""trial"",""time""
""fullscreenenter"",""1"",""2637""
","
","
","""event"",""trial"",""time""
""fullscreenenter"",""1"",""2637""
","
",,,,,,,,,,,,"[{""stimulus"":""run_exp/static/images/task_images/dig.jpg"",""time"":0.20000004768371582},{""stimulus"":""run_exp/static/images/task_images/land.jpg"",""time"":967.7000000476837},{""stimulus"":""run_exp/static/images/task_images/dig.jpg"",""time"":1926}]",[],5,,,,,,,,,,,,,,
harvest,144,524017,0.0-46.0-1.0,"""event"",""trial"",""time""
""fullscreenenter"",""1"",""2637""
","
","
","""event"",""trial"",""time""
""fullscreenenter"",""1"",""2637""
","
",,null,run_exp/static/images/task_images/gems/12.jpg,null,,,,,,,6,,,5,,,,,12,0.471740695,0.5,,,,,,,
decision,145,524108,0.0-46.0-2.0,"""event"",""trial"",""time""
""fullscreenenter"",""1"",""2637""
","
","
","""event"",""trial"",""time""
""fullscreenenter"",""1"",""2637""
","
",,89.5,run_exp/static/images/task_images/land.jpg,65,,,,,,,6,,,5,,,,,,,,159237,1,3,FALSE,,,
dig,146,527029,0.0-47.0-0.0,"""event"",""trial"",""time""
""fullscreenenter"",""1"",""2637""
","
","
","""event"",""trial"",""time""
""fullscreenenter"",""1"",""2637""
","
",,,,,,,,,,,,"[{""stimulus"":""run_exp/static/images/task_images/dig.jpg"",""time"":0.2999999523162842},{""stimulus"":""run_exp/static/images/task_images/land.jpg"",""time"":977.8999998569489},{""stimulus"":""run_exp/static/images/task_images/dig.jpg"",""time"":1952.1999998092651}]",[],5,,,,,,,,,,,,,,
harvest,147,528033,0.0-47.0-1.0,"""event"",""trial"",""time""
""fullscreenenter"",""1"",""2637""
","
","
","""event"",""trial"",""time""
""fullscreenenter"",""1"",""2637""
","
",,null,run_exp/static/images/task_images/gems/6.jpg,null,,,,,,,3,,,5,,,,,6,0.505881278,0.5,,,,,,,
decision,148,528131,0.0-47.0-2.0,"""event"",""trial"",""time""
""fullscreenenter"",""1"",""2637""
","
","
","""event"",""trial"",""time""
""fullscreenenter"",""1"",""2637""
","
",,96,run_exp/static/images/task_images/land.jpg,65,,,,,,,3,,,5,,,,,,,,163261,1,4,FALSE,,,
dig,149,531041,0.0-48.0-0.0,"""event"",""trial"",""time""
""fullscreenenter"",""1"",""2637""
","
","
","""event"",""trial"",""time""
""fullscreenenter"",""1"",""2637""
","
",,,,,,,,,,,,"[{""stimulus"":""run_exp/static/images/task_images/dig.jpg"",""time"":0.20000004768371582},{""stimulus"":""run_exp/static/images/task_images/land.jpg"",""time"":970.5},{""stimulus"":""run_exp/static/images/task_images/dig.jpg"",""time"":1945.2000000476837}]",[],5,,,,,,,,,,,,,,
harvest,150,532050,0.0-48.0-1.0,"""event"",""trial"",""time""
""fullscreenenter"",""1"",""2637""
","
","
","""event"",""trial"",""time""
""fullscreenenter"",""1"",""2637""
","
",,null,run_exp/static/images/task_images/gems/3.jpg,null,,,,,,,1,,,5,,,,,3,0.493158852,0.333333333,,,,,,,
decision,151,532165,0.0-48.0-2.0,"""event"",""trial"",""time""
""fullscreenenter"",""1"",""2637""
","
","
","""event"",""trial"",""time""
""fullscreenenter"",""1"",""2637""
","
",,113.3999999,run_exp/static/images/task_images/land.jpg,76,,,,,,,1,,,5,,,,,,,,167294,1,5,TRUE,,,
travel,152,542062,0.0-49.0-0.0,"""event"",""trial"",""time""
""fullscreenenter"",""1"",""2637""
","
","
","""event"",""trial"",""time""
""fullscreenenter"",""1"",""2637""
","
",,,,,,,,,,,,"[{""stimulus"":""run_exp/static/images/task_images/rocket-01.jpg"",""time"":0.39999985694885254},{""stimulus"":""run_exp/static/images/task_images/rocket-02.jpg"",""time"":1102.0999999046326},{""stimulus"":""run_exp/static/images/task_images/rocket-03.jpg"",""time"":2212.7999999523163},{""stimulus"":""run_exp/static/images/task_images/rocket-04.jpg"",""time"":3305.2999999523163},{""stimulus"":""run_exp/static/images/task_images/rocket-05.jpg"",""time"":4402.899999856949},{""stimulus"":""run_exp/static/images/task_images/rocket-06.jpg"",""time"":5497.299999952316},{""stimulus"":""run_exp/static/images/task_images/rocket-07.jpg"",""time"":6602.799999952316},{""stimulus"":""run_exp/static/images/task_images/rocket-08.jpg"",""time"":7701.099999904633},{""stimulus"":""run_exp/static/images/task_images/rocket-09.jpg"",""time"":8790.299999952316}]",[],5,,,,,,,,,,,,,,
alien_welcome,153,547076,0.0-49.0-1.0,"""event"",""trial"",""time""
""fullscreenenter"",""1"",""2637""
","
","
","""event"",""trial"",""time""
""fullscreenenter"",""1"",""2637""
","
",,null,run_exp/static/images/task_images/aliens/old_aliens/planet/alien_planet-57.jpg,null,,,,,,,,,,,,,57,"31,66,60,37,20,57,55,2,59,72,30,77,46,13,42,62,15,56,8,32,9,39,18,63,34,52,1,68,44",,,,,,,,,,
land,154,547585,0.0-49.0-2.0,"""event"",""trial"",""time""
""fullscreenenter"",""1"",""2637""
","
","
","""event"",""trial"",""time""
""fullscreenenter"",""1"",""2637""
","
",,null,run_exp/static/images/task_images/land.jpg,null,,,,,,,106,,,6,,,,,,,,,,,,,,
dig,155,549596,0.0-49.0-3.0,"""event"",""trial"",""time""
""fullscreenenter"",""1"",""2637""
","
","
","""event"",""trial"",""time""
""fullscreenenter"",""1"",""2637""
","
",,,,,,,,,,,,"[{""stimulus"":""run_exp/static/images/task_images/dig.jpg"",""time"":0.39999985694885254},{""stimulus"":""run_exp/static/images/task_images/land.jpg"",""time"":672.0999999046326},{""stimulus"":""run_exp/static/images/task_images/dig.jpg"",""time"":1344.5}]",[],6,,,,,,,,,,,,,,
harvest,156,550601,0.0-49.0-4.0,"""event"",""trial"",""time""
""fullscreenenter"",""1"",""2637""
","
","
","""event"",""trial"",""time""
""fullscreenenter"",""1"",""2637""
","
",,null,run_exp/static/images/task_images/gems/106.jpg,null,,,,,,,92,,,6,,,,,106,0.868251227,0.867924528,,,,,,,
decision,157,550876,0.0-49.0-5.0,"""event"",""trial"",""time""
""fullscreenenter"",""1"",""2637""
","
","
","""event"",""trial"",""time""
""fullscreenenter"",""1"",""2637""
","
",,272.5,run_exp/static/images/task_images/land.jpg,65,,,,,,,92,,,6,,,,,,,,186005,1,0,FALSE,,,
dig,158,553609,0.0-50.0-0.0,"""event"",""trial"",""time""
""fullscreenenter"",""1"",""2637""
","
","
","""event"",""trial"",""time""
""fullscreenenter"",""1"",""2637""
","
",,,,,,,,,,,,"[{""stimulus"":""run_exp/static/images/task_images/dig.jpg"",""time"":0.3000001907348633},{""stimulus"":""run_exp/static/images/task_images/land.jpg"",""time"":918.4000000953674},{""stimulus"":""run_exp/static/images/task_images/dig.jpg"",""time"":1832.6000001430511}]",[],6,,,,,,,,,,,,,,
harvest,159,554624,0.0-50.0-1.0,"""event"",""trial"",""time""
""fullscreenenter"",""1"",""2637""
","
","
","""event"",""trial"",""time""
""fullscreenenter"",""1"",""2637""
","
",,null,run_exp/static/images/task_images/gems/92.jpg,null,,,,,,,79,,,6,,,,,92,0.857106056,0.858695652,,,,,,,
decision,160,554846,0.0-50.0-2.0,"""event"",""trial"",""time""
""fullscreenenter"",""1"",""2637""
","
","
","""event"",""trial"",""time""
""fullscreenenter"",""1"",""2637""
","
",,220.2,run_exp/static/images/task_images/land.jpg,65,,,,,,,79,,,6,,,,,,,,189975,1,1,FALSE,,,
dig,161,557636,0.0-51.0-0.0,"""event"",""trial"",""time""
""fullscreenenter"",""1"",""2637""
","
","
","""event"",""trial"",""time""
""fullscreenenter"",""1"",""2637""
","
",,,,,,,,,,,,"[{""stimulus"":""run_exp/static/images/task_images/dig.jpg"",""time"":0.2999999523162842},{""stimulus"":""run_exp/static/images/task_images/land.jpg"",""time"":935},{""stimulus"":""run_exp/static/images/task_images/dig.jpg"",""time"":1859.7999999523163}]",[],6,,,,,,,,,,,,,,
harvest,162,558645,0.0-51.0-1.0,"""event"",""trial"",""time""
""fullscreenenter"",""1"",""2637""
","
","
","""event"",""trial"",""time""
""fullscreenenter"",""1"",""2637""
","
",,null,run_exp/static/images/task_images/gems/79.jpg,null,,,,,,,72,,,6,,,,,79,0.907597768,0.911392405,,,,,,,
decision,163,558811,0.0-51.0-2.0,"""event"",""trial"",""time""
""fullscreenenter"",""1"",""2637""
","
","
","""event"",""trial"",""time""
""fullscreenenter"",""1"",""2637""
","
",,164.0999999,run_exp/static/images/task_images/land.jpg,65,,,,,,,72,,,6,,,,,,,,193940,1,2,FALSE,,,
dig,164,561664,0.0-52.0-0.0,"""event"",""trial"",""time""
""fullscreenenter"",""1"",""2637""
","
","
","""event"",""trial"",""time""
""fullscreenenter"",""1"",""2637""
","
",,,,,,,,,,,,"[{""stimulus"":""run_exp/static/images/task_images/dig.jpg"",""time"":0.2999999523162842},{""stimulus"":""run_exp/static/images/task_images/land.jpg"",""time"":961.1999998092651},{""stimulus"":""run_exp/static/images/task_images/dig.jpg"",""time"":1898.5999999046326}]",[],6,,,,,,,,,,,,,,
harvest,165,562677,0.0-52.0-1.0,"""event"",""trial"",""time""
""fullscreenenter"",""1"",""2637""
","
","
","""event"",""trial"",""time""
""fullscreenenter"",""1"",""2637""
","
",,null,run_exp/static/images/task_images/gems/72.jpg,null,,,,,,,61,,,6,,,,,72,0.851943829,0.847222222,,,,,,,
decision,166,562762,0.0-52.0-2.0,"""event"",""trial"",""time""
""fullscreenenter"",""1"",""2637""
","
","
","""event"",""trial"",""time""
""fullscreenenter"",""1"",""2637""
","
",,82.5,run_exp/static/images/task_images/land.jpg,65,,,,,,,61,,,6,,,,,,,,197891,1,3,FALSE,,,
dig,167,565696,0.0-53.0-0.0,"""event"",""trial"",""time""
""fullscreenenter"",""1"",""2637""
","
","
","""event"",""trial"",""time""
""fullscreenenter"",""1"",""2637""
","
",,,,,,,,,,,,"[{""stimulus"":""run_exp/static/images/task_images/dig.jpg"",""time"":0.3000001907348633},{""stimulus"":""run_exp/static/images/task_images/land.jpg"",""time"":982.7000000476837},{""stimulus"":""run_exp/static/images/task_images/dig.jpg"",""time"":1954.1000001430511}]",[],6,,,,,,,,,,,,,,
harvest,168,566710,0.0-53.0-1.0,"""event"",""trial"",""time""
""fullscreenenter"",""1"",""2637""
","
","
","""event"",""trial"",""time""
""fullscreenenter"",""1"",""2637""
","
",,null,run_exp/static/images/task_images/gems/61.jpg,null,,,,,,,51,,,6,,,,,61,0.830509388,0.836065574,,,,,,,
decision,169,566802,0.0-53.0-2.0,"""event"",""trial"",""time""
""fullscreenenter"",""1"",""2637""
","
","
","""event"",""trial"",""time""
""fullscreenenter"",""1"",""2637""
","
",,89.70000005,run_exp/static/images/task_images/land.jpg,65,,,,,,,51,,,6,,,,,,,,201931,1,4,FALSE,,,
dig,170,569728,0.0-54.0-0.0,"""event"",""trial"",""time""
""fullscreenenter"",""1"",""2637""
","
","
","""event"",""trial"",""time""
""fullscreenenter"",""1"",""2637""
","
",,,,,,,,,,,,"[{""stimulus"":""run_exp/static/images/task_images/dig.jpg"",""time"":0.2999999523162842},{""stimulus"":""run_exp/static/images/task_images/land.jpg"",""time"":981},{""stimulus"":""run_exp/static/images/task_images/dig.jpg"",""time"":1947.5999999046326}]",[],6,,,,,,,,,,,,,,
harvest,171,570743,0.0-54.0-1.0,"""event"",""trial"",""time""
""fullscreenenter"",""1"",""2637""
","
","
","""event"",""trial"",""time""
""fullscreenenter"",""1"",""2637""
","
",,null,run_exp/static/images/task_images/gems/51.jpg,null,,,,,,,44,,,6,,,,,51,0.859711227,0.862745098,,,,,,,
decision,172,570964,0.0-54.0-2.0,"""event"",""trial"",""time""
""fullscreenenter"",""1"",""2637""
","
","
","""event"",""trial"",""time""
""fullscreenenter"",""1"",""2637""
","
",,219.0999999,run_exp/static/images/task_images/land.jpg,65,,,,,,,44,,,6,,,,,,,,206093,1,5,FALSE,,,
dig,173,573757,0.0-55.0-0.0,"""event"",""trial"",""time""
""fullscreenenter"",""1"",""2637""
","
","
","""event"",""trial"",""time""
""fullscreenenter"",""1"",""2637""
","
",,,,,,,,,,,,"[{""stimulus"":""run_exp/static/images/task_images/dig.jpg"",""time"":0.2999999523162842},{""stimulus"":""run_exp/static/images/task_images/land.jpg"",""time"":933.6999998092651},{""stimulus"":""run_exp/static/images/task_images/dig.jpg"",""time"":1864.1999998092651}]",[],6,,,,,,,,,,,,,,
harvest,174,574761,0.0-55.0-1.0,"""event"",""trial"",""time""
""fullscreenenter"",""1"",""2637""
","
","
","""event"",""trial"",""time""
""fullscreenenter"",""1"",""2637""
","
",,null,run_exp/static/images/task_images/gems/44.jpg,null,,,,,,,35,,,6,,,,,44,0.793096418,0.795454545,,,,,,,
decision,175,574941,0.0-55.0-2.0,"""event"",""trial"",""time""
""fullscreenenter"",""1"",""2637""
","
","
","""event"",""trial"",""time""
""fullscreenenter"",""1"",""2637""
","
",,177.6999998,run_exp/static/images/task_images/land.jpg,65,,,,,,,35,,,6,,,,,,,,210070,1,6,FALSE,,,
dig,176,577772,0.0-56.0-0.0,"""event"",""trial"",""time""
""fullscreenenter"",""1"",""2637""
","
","
","""event"",""trial"",""time""
""fullscreenenter"",""1"",""2637""
","
",,,,,,,,,,,,"[{""stimulus"":""run_exp/static/images/task_images/dig.jpg"",""time"":0.20000004768371582},{""stimulus"":""run_exp/static/images/task_images/land.jpg"",""time"":950.5999999046326},{""stimulus"":""run_exp/static/images/task_images/dig.jpg"",""time"":1888}]",[],6,,,,,,,,,,,,,,
harvest,177,578776,0.0-56.0-1.0,"""event"",""trial"",""time""
""fullscreenenter"",""1"",""2637""
","
","
","""event"",""trial"",""time""
""fullscreenenter"",""1"",""2637""
","
",,null,run_exp/static/images/task_images/gems/35.jpg,null,,,,,,,30,,,6,,,,,35,0.844698526,0.857142857,,,,,,,
decision,178,578871,0.0-56.0-2.0,"""event"",""trial"",""time""
""fullscreenenter"",""1"",""2637""
","
","
","""event"",""trial"",""time""
""fullscreenenter"",""1"",""2637""
","
",,92.89999986,run_exp/static/images/task_images/land.jpg,65,,,,,,,30,,,6,,,,,,,,214000,1,7,FALSE,,,
dig,179,581790,0.0-57.0-0.0,"""event"",""trial"",""time""
""fullscreenenter"",""1"",""2637""
","
","
","""event"",""trial"",""time""
""fullscreenenter"",""1"",""2637""
","
",,,,,,,,,,,,"[{""stimulus"":""run_exp/static/images/task_images/dig.jpg"",""time"":0.20000004768371582},{""stimulus"":""run_exp/static/images/task_images/land.jpg"",""time"":975.5999999046326},{""stimulus"":""run_exp/static/images/task_images/dig.jpg"",""time"":1949.2000000476837}]",[],6,,,,,,,,,,,,,,
harvest,180,582794,0.0-57.0-1.0,"""event"",""trial"",""time""
""fullscreenenter"",""1"",""2637""
","
","
","""event"",""trial"",""time""
""fullscreenenter"",""1"",""2637""
","
",,null,run_exp/static/images/task_images/gems/30.jpg,null,,,,,,,23,,,6,,,,,30,0.763536947,0.766666667,,,,,,,
decision,181,582861,0.0-57.0-2.0,"""event"",""trial"",""time""
""fullscreenenter"",""1"",""2637""
","
","
","""event"",""trial"",""time""
""fullscreenenter"",""1"",""2637""
","
",,64.10000014,run_exp/static/images/task_images/land.jpg,65,,,,,,,23,,,6,,,,,,,,217990,1,8,FALSE,,,
dig,182,585802,0.0-58.0-0.0,"""event"",""trial"",""time""
""fullscreenenter"",""1"",""2637""
","
","
","""event"",""trial"",""time""
""fullscreenenter"",""1"",""2637""
","
",,,,,,,,,,,,"[{""stimulus"":""run_exp/static/images/task_images/dig.jpg"",""time"":0.2999999523162842},{""stimulus"":""run_exp/static/images/task_images/land.jpg"",""time"":991.7999999523163},{""stimulus"":""run_exp/static/images/task_images/dig.jpg"",""time"":1967.7999999523163}]",[],6,,,,,,,,,,,,,,
harvest,183,586813,0.0-58.0-1.0,"""event"",""trial"",""time""
""fullscreenenter"",""1"",""2637""
","
","
","""event"",""trial"",""time""
""fullscreenenter"",""1"",""2637""
","
",,null,run_exp/static/images/task_images/gems/23.jpg,null,,,,,,,18,,,6,,,,,23,0.785901691,0.782608696,,,,,,,
decision,184,586956,0.0-58.0-2.0,"""event"",""trial"",""time""
""fullscreenenter"",""1"",""2637""
","
","
","""event"",""trial"",""time""
""fullscreenenter"",""1"",""2637""
","
",,141,run_exp/static/images/task_images/land.jpg,65,,,,,,,18,,,6,,,,,,,,222085,1,9,FALSE,,,
dig,185,589832,0.0-59.0-0.0,"""event"",""trial"",""time""
""fullscreenenter"",""1"",""2637""
","
","
","""event"",""trial"",""time""
""fullscreenenter"",""1"",""2637""
","
",,,,,,,,,,,,"[{""stimulus"":""run_exp/static/images/task_images/dig.jpg"",""time"":0.2999999523162842},{""stimulus"":""run_exp/static/images/task_images/land.jpg"",""time"":968},{""stimulus"":""run_exp/static/images/task_images/dig.jpg"",""time"":1914.0999999046326}]",[],6,,,,,,,,,,,,,,
harvest,186,590841,0.0-59.0-1.0,"""event"",""trial"",""time""
""fullscreenenter"",""1"",""2637""
","
","
","""event"",""trial"",""time""
""fullscreenenter"",""1"",""2637""
","
",,null,run_exp/static/images/task_images/gems/18.jpg,null,,,,,,,13,,,6,,,,,18,0.733694349,0.722222222,,,,,,,
decision,187,591032,0.0-59.0-2.0,"""event"",""trial"",""time""
""fullscreenenter"",""1"",""2637""
","
","
","""event"",""trial"",""time""
""fullscreenenter"",""1"",""2637""
","
",,188.5,run_exp/static/images/task_images/land.jpg,65,,,,,,,13,,,6,,,,,,,,226161,1,10,FALSE,,,
dig,188,593853,0.0-60.0-0.0,"""event"",""trial"",""time""
""fullscreenenter"",""1"",""2637""
","
","
","""event"",""trial"",""time""
""fullscreenenter"",""1"",""2637""
","
",,,,,,,,,,,,"[{""stimulus"":""run_exp/static/images/task_images/dig.jpg"",""time"":0.20000004768371582},{""stimulus"":""run_exp/static/images/task_images/land.jpg"",""time"":945.7999999523163},{""stimulus"":""run_exp/static/images/task_images/dig.jpg"",""time"":1878.3999998569489}]",[],6,,,,,,,,,,,,,,
harvest,189,594861,0.0-60.0-1.0,"""event"",""trial"",""time""
""fullscreenenter"",""1"",""2637""
","
","
","""event"",""trial"",""time""
""fullscreenenter"",""1"",""2637""
","
",,null,run_exp/static/images/task_images/gems/13.jpg,null,,,,,,,9,,,6,,,,,13,0.729187677,0.692307692,,,,,,,
decision,190,594879,0.0-60.0-2.0,"""event"",""trial"",""time""
""fullscreenenter"",""1"",""2637""
","
","
","""event"",""trial"",""time""
""fullscreenenter"",""1"",""2637""
","
",,15.5,run_exp/static/images/task_images/land.jpg,65,,,,,,,9,,,6,,,,,,,,230009,1,11,FALSE,,,
dig,191,597875,0.0-61.0-0.0,"""event"",""trial"",""time""
""fullscreenenter"",""1"",""2637""
","
","
","""event"",""trial"",""time""
""fullscreenenter"",""1"",""2637""
","
",,,,,,,,,,,,"[{""stimulus"":""run_exp/static/images/task_images/dig.jpg"",""time"":0.20000004768371582},{""stimulus"":""run_exp/static/images/task_images/land.jpg"",""time"":998.9000000953674},{""stimulus"":""run_exp/static/images/task_images/dig.jpg"",""time"":1993.7999999523163}]",[],6,,,,,,,,,,,,,,
harvest,192,598885,0.0-61.0-1.0,"""event"",""trial"",""time""
""fullscreenenter"",""1"",""2637""
","
","
","""event"",""trial"",""time""
""fullscreenenter"",""1"",""2637""
","
",,null,run_exp/static/images/task_images/gems/9.jpg,null,,,,,,,8,,,6,,,,,9,0.840203892,0.888888889,,,,,,,
decision,193,598939,0.0-61.0-2.0,"""event"",""trial"",""time""
""fullscreenenter"",""1"",""2637""
","
","
","""event"",""trial"",""time""
""fullscreenenter"",""1"",""2637""
","
",,51.4000001,run_exp/static/images/task_images/land.jpg,65,,,,,,,8,,,6,,,,,,,,234068,1,12,FALSE,,,
dig,194,601899,0.0-62.0-0.0,"""event"",""trial"",""time""
""fullscreenenter"",""1"",""2637""
","
","
","""event"",""trial"",""time""
""fullscreenenter"",""1"",""2637""
","
",,,,,,,,,,,,"[{""stimulus"":""run_exp/static/images/task_images/dig.jpg"",""time"":0.20000004768371582},{""stimulus"":""run_exp/static/images/task_images/land.jpg"",""time"":988.3000001907349},{""stimulus"":""run_exp/static/images/task_images/dig.jpg"",""time"":1976.9000000953674}]",[],6,,,,,,,,,,,,,,
harvest,195,602908,0.0-62.0-1.0,"""event"",""trial"",""time""
""fullscreenenter"",""1"",""2637""
","
","
","""event"",""trial"",""time""
""fullscreenenter"",""1"",""2637""
","
",,null,run_exp/static/images/task_images/gems/8.jpg,null,,,,,,,7,,,6,,,,,8,0.8202909,0.875,,,,,,,
decision,196,603061,0.0-62.0-2.0,"""event"",""trial"",""time""
""fullscreenenter"",""1"",""2637""
","
","
","""event"",""trial"",""time""
""fullscreenenter"",""1"",""2637""
","
",,149.8,run_exp/static/images/task_images/land.jpg,65,,,,,,,7,,,6,,,,,,,,238190,1,13,FALSE,,,
dig,197,605923,0.0-63.0-0.0,"""event"",""trial"",""time""
""fullscreenenter"",""1"",""2637""
","
","
","""event"",""trial"",""time""
""fullscreenenter"",""1"",""2637""
","
",,,,,,,,,,,,"[{""stimulus"":""run_exp/static/images/task_images/dig.jpg"",""time"":0.3000001907348633},{""stimulus"":""run_exp/static/images/task_images/land.jpg"",""time"":952},{""stimulus"":""run_exp/static/images/task_images/dig.jpg"",""time"":1904.9000000953674}]",[],6,,,,,,,,,,,,,,
harvest,198,606933,0.0-63.0-1.0,"""event"",""trial"",""time""
""fullscreenenter"",""1"",""2637""
","
","
","""event"",""trial"",""time""
""fullscreenenter"",""1"",""2637""
","
",,null,run_exp/static/images/task_images/gems/7.jpg,null,,,,,,,6,,,6,,,,,7,0.858332514,0.857142857,,,,,,,
decision,199,607151,0.0-63.0-2.0,"""event"",""trial"",""time""
""fullscreenenter"",""1"",""2637""
","
","
","""event"",""trial"",""time""
""fullscreenenter"",""1"",""2637""
","
",,215.9000001,run_exp/static/images/task_images/land.jpg,65,,,,,,,6,,,6,,,,,,,,242280,1,14,FALSE,,,
dig,200,609949,0.0-64.0-0.0,"""event"",""trial"",""time""
""fullscreenenter"",""1"",""2637""
","
","
","""event"",""trial"",""time""
""fullscreenenter"",""1"",""2637""
","
",,,,,,,,,,,,"[{""stimulus"":""run_exp/static/images/task_images/dig.jpg"",""time"":0.20000004768371582},{""stimulus"":""run_exp/static/images/task_images/land.jpg"",""time"":937.5999999046326},{""stimulus"":""run_exp/static/images/task_images/dig.jpg"",""time"":1865.9000000953674}]",[],6,,,,,,,,,,,,,,
harvest,201,610956,0.0-64.0-1.0,"""event"",""trial"",""time""
""fullscreenenter"",""1"",""2637""
","
","
","""event"",""trial"",""time""
""fullscreenenter"",""1"",""2637""
","
",,null,run_exp/static/images/task_images/gems/6.jpg,null,,,,,,,5,,,6,,,,,6,0.780755702,0.833333333,,,,,,,
decision,202,611054,0.0-64.0-2.0,"""event"",""trial"",""time""
""fullscreenenter"",""1"",""2637""
","
","
","""event"",""trial"",""time""
""fullscreenenter"",""1"",""2637""
","
",,96.70000005,run_exp/static/images/task_images/land.jpg,65,,,,,,,5,,,6,,,,,,,,246183,1,15,FALSE,,,
dig,203,613975,0.0-65.0-0.0,"""event"",""trial"",""time""
""fullscreenenter"",""1"",""2637""
","
","
","""event"",""trial"",""time""
""fullscreenenter"",""1"",""2637""
","
",,,,,,,,,,,,"[{""stimulus"":""run_exp/static/images/task_images/dig.jpg"",""time"":0.2999999523162842},{""stimulus"":""run_exp/static/images/task_images/land.jpg"",""time"":973.7999999523163},{""stimulus"":""run_exp/static/images/task_images/dig.jpg"",""time"":1942.5999999046326}]",[],6,,,,,,,,,,,,,,
harvest,204,614985,0.0-65.0-1.0,"""event"",""trial"",""time""
""fullscreenenter"",""1"",""2637""
","
","
","""event"",""trial"",""time""
""fullscreenenter"",""1"",""2637""
","
",,null,run_exp/static/images/task_images/gems/5.jpg,null,,,,,,,4,,,6,,,,,5,0.831234549,0.8,,,,,,,
decision,205,615118,0.0-65.0-2.0,"""event"",""trial"",""time""
""fullscreenenter"",""1"",""2637""
","
","
","""event"",""trial"",""time""
""fullscreenenter"",""1"",""2637""
","
",,131.1999998,run_exp/static/images/task_images/land.jpg,65,,,,,,,4,,,6,,,,,,,,250248,1,16,FALSE,,,
dig,206,617993,0.0-66.0-0.0,"""event"",""trial"",""time""
""fullscreenenter"",""1"",""2637""
","
","
","""event"",""trial"",""time""
""fullscreenenter"",""1"",""2637""
","
",,,,,,,,,,,,"[{""stimulus"":""run_exp/static/images/task_images/dig.jpg"",""time"":0.3000001907348633},{""stimulus"":""run_exp/static/images/task_images/land.jpg"",""time"":963.5},{""stimulus"":""run_exp/static/images/task_images/dig.jpg"",""time"":1925.6000001430511}]",[],6,,,,,,,,,,,,,,
harvest,207,619001,0.0-66.0-1.0,"""event"",""trial"",""time""
""fullscreenenter"",""1"",""2637""
","
","
","""event"",""trial"",""time""
""fullscreenenter"",""1"",""2637""
","
",,null,run_exp/static/images/task_images/gems/4.jpg,null,,,,,,,3,,,6,,,,,4,0.808582984,0.75,,,,,,,
decision,208,619149,0.0-66.0-2.0,"""event"",""trial"",""time""
""fullscreenenter"",""1"",""2637""
","
","
","""event"",""trial"",""time""
""fullscreenenter"",""1"",""2637""
","
",,145.6999998,run_exp/static/images/task_images/land.jpg,65,,,,,,,3,,,6,,,,,,,,254278,1,17,FALSE,,,
dig,209,622015,0.0-67.0-0.0,"""event"",""trial"",""time""
""fullscreenenter"",""1"",""2637""
","
","
","""event"",""trial"",""time""
""fullscreenenter"",""1"",""2637""
","
",,,,,,,,,,,,"[{""stimulus"":""run_exp/static/images/task_images/dig.jpg"",""time"":0.2999999523162842},{""stimulus"":""run_exp/static/images/task_images/land.jpg"",""time"":967.2000000476837},{""stimulus"":""run_exp/static/images/task_images/dig.jpg"",""time"":1904.2000000476837}]",[],6,,,,,,,,,,,,,,
harvest,210,623028,0.0-67.0-1.0,"""event"",""trial"",""time""
""fullscreenenter"",""1"",""2637""
","
","
","""event"",""trial"",""time""
""fullscreenenter"",""1"",""2637""
","
",,null,run_exp/static/images/task_images/gems/3.jpg,null,,,,,,,2,,,6,,,,,3,0.689539029,0.666666667,,,,,,,
decision,211,623036,0.0-67.0-2.0,"""event"",""trial"",""time""
""fullscreenenter"",""1"",""2637""
","
","
","""event"",""trial"",""time""
""fullscreenenter"",""1"",""2637""
","
",,4.199999809,run_exp/static/images/task_images/land.jpg,65,,,,,,,2,,,6,,,,,,,,258165,1,18,FALSE,,,
dig,212,626047,0.0-68.0-0.0,"""event"",""trial"",""time""
""fullscreenenter"",""1"",""2637""
","
","
","""event"",""trial"",""time""
""fullscreenenter"",""1"",""2637""
","
",,,,,,,,,,,,"[{""stimulus"":""run_exp/static/images/task_images/dig.jpg"",""time"":0.40000009536743164},{""stimulus"":""run_exp/static/images/task_images/land.jpg"",""time"":1003.9000000953674},{""stimulus"":""run_exp/static/images/task_images/dig.jpg"",""time"":2002}]",[],6,,,,,,,,,,,,,,
harvest,213,627058,0.0-68.0-1.0,"""event"",""trial"",""time""
""fullscreenenter"",""1"",""2637""
","
","
","""event"",""trial"",""time""
""fullscreenenter"",""1"",""2637""
","
",,null,run_exp/static/images/task_images/gems/2.jpg,null,,,,,,,1,,,6,,,,,2,0.729844734,0.5,,,,,,,
decision,214,627208,0.0-68.0-2.0,"""event"",""trial"",""time""
""fullscreenenter"",""1"",""2637""
","
","
","""event"",""trial"",""time""
""fullscreenenter"",""1"",""2637""
","
",,148.0999999,run_exp/static/images/task_images/land.jpg,65,,,,,,,1,,,6,,,,,,,,262337,1,19,FALSE,,,
dig,215,630068,0.0-69.0-0.0,"""event"",""trial"",""time""
""fullscreenenter"",""1"",""2637""
","
","
","""event"",""trial"",""time""
""fullscreenenter"",""1"",""2637""
","
",,,,,,,,,,,,"[{""stimulus"":""run_exp/static/images/task_images/dig.jpg"",""time"":0.20000004768371582},{""stimulus"":""run_exp/static/images/task_images/land.jpg"",""time"":958},{""stimulus"":""run_exp/static/images/task_images/dig.jpg"",""time"":1912.2000000476837}]",[],6,,,,,,,,,,,,,,
harvest,216,631079,0.0-69.0-1.0,"""event"",""trial"",""time""
""fullscreenenter"",""1"",""2637""
","
","
","""event"",""trial"",""time""
""fullscreenenter"",""1"",""2637""
","
",,null,run_exp/static/images/task_images/gems/1.jpg,null,,,,,,,1,,,6,,,,,1,0.709622919,1,,,,,,,
decision,217,631226,0.0-69.0-2.0,"""event"",""trial"",""time""
""fullscreenenter"",""1"",""2637""
","
","
","""event"",""trial"",""time""
""fullscreenenter"",""1"",""2637""
","
",,144.5999999,run_exp/static/images/task_images/land.jpg,76,,,,,,,1,,,6,,,,,,,,266355,1,20,TRUE,,,
travel,218,641092,0.0-70.0-0.0,"""event"",""trial"",""time""
""fullscreenenter"",""1"",""2637""
","
","
","""event"",""trial"",""time""
""fullscreenenter"",""1"",""2637""
","
",,,,,,,,,,,,"[{""stimulus"":""run_exp/static/images/task_images/rocket-01.jpg"",""time"":0.20000004768371582},{""stimulus"":""run_exp/static/images/task_images/rocket-02.jpg"",""time"":1099.2999999523163},{""stimulus"":""run_exp/static/images/task_images/rocket-03.jpg"",""time"":2194.7000000476837},{""stimulus"":""run_exp/static/images/task_images/rocket-04.jpg"",""time"":3294.5},{""stimulus"":""run_exp/static/images/task_images/rocket-05.jpg"",""time"":4390.900000095367},{""stimulus"":""run_exp/static/images/task_images/rocket-06.jpg"",""time"":5489.099999904633},{""stimulus"":""run_exp/static/images/task_images/rocket-07.jpg"",""time"":6580.5},{""stimulus"":""run_exp/static/images/task_images/rocket-08.jpg"",""time"":7681.299999952316},{""stimulus"":""run_exp/static/images/task_images/rocket-09.jpg"",""time"":8764.5}]",[],6,,,,,,,,,,,,,,
alien_welcome,219,646110,0.0-70.0-1.0,"""event"",""trial"",""time""
""fullscreenenter"",""1"",""2637""
","
","
","""event"",""trial"",""time""
""fullscreenenter"",""1"",""2637""
","
",,null,run_exp/static/images/task_images/aliens/old_aliens/planet/alien_planet-55.jpg,null,,,,,,,,,,,,,55,"31,66,60,37,20,57,55,2,59,72,30,77,46,13,42,62,15,56,8,32,9,39,18,63,34,52,1,68,44",,,,,,,,,,
land,220,646620,0.0-70.0-2.0,"""event"",""trial"",""time""
""fullscreenenter"",""1"",""2637""
","
","
","""event"",""trial"",""time""
""fullscreenenter"",""1"",""2637""
","
",,null,run_exp/static/images/task_images/land.jpg,null,,,,,,,101,,,7,,,,,,,,,,,,,,
dig,221,648635,0.0-70.0-3.0,"""event"",""trial"",""time""
""fullscreenenter"",""1"",""2637""
","
","
","""event"",""trial"",""time""
""fullscreenenter"",""1"",""2637""
","
",,,,,,,,,,,,"[{""stimulus"":""run_exp/static/images/task_images/dig.jpg"",""time"":0.5},{""stimulus"":""run_exp/static/images/task_images/land.jpg"",""time"":675.7000000476837},{""stimulus"":""run_exp/static/images/task_images/dig.jpg"",""time"":1341.7999999523163}]",[],7,,,,,,,,,,,,,,
harvest,222,649644,0.0-70.0-4.0,"""event"",""trial"",""time""
""fullscreenenter"",""1"",""2637""
","
","
","""event"",""trial"",""time""
""fullscreenenter"",""1"",""2637""
","
",,null,run_exp/static/images/task_images/gems/101.jpg,null,,,,,,,80,,,7,,,,,101,0.792059327,0.792079208,,,,,,,
decision,223,649885,0.0-70.0-5.0,"""event"",""trial"",""time""
""fullscreenenter"",""1"",""2637""
","
","
","""event"",""trial"",""time""
""fullscreenenter"",""1"",""2637""
","
",,238.8,run_exp/static/images/task_images/land.jpg,65,,,,,,,80,,,7,,,,,,,,285014,1,0,FALSE,,,
dig,224,652657,0.0-71.0-0.0,"""event"",""trial"",""time""
""fullscreenenter"",""1"",""2637""
","
","
","""event"",""trial"",""time""
""fullscreenenter"",""1"",""2637""
","
",,,,,,,,,,,,"[{""stimulus"":""run_exp/static/images/task_images/dig.jpg"",""time"":0.2999999523162842},{""stimulus"":""run_exp/static/images/task_images/land.jpg"",""time"":928.4000000953674},{""stimulus"":""run_exp/static/images/task_images/dig.jpg"",""time"":1850.5}]",[],7,,,,,,,,,,,,,,
harvest,225,653671,0.0-71.0-1.0,"""event"",""trial"",""time""
""fullscreenenter"",""1"",""2637""
","
","
","""event"",""trial"",""time""
""fullscreenenter"",""1"",""2637""
","
",,null,run_exp/static/images/task_images/gems/80.jpg,null,,,,,,,65,,,7,,,,,80,0.807181063,0.8125,,,,,,,
decision,226,653927,0.0-71.0-2.0,"""event"",""trial"",""time""
""fullscreenenter"",""1"",""2637""
","
","
","""event"",""trial"",""time""
""fullscreenenter"",""1"",""2637""
","
",,253.7,run_exp/static/images/task_images/land.jpg,65,,,,,,,65,,,7,,,,,,,,289056,1,1,FALSE,,,
dig,227,656685,0.0-72.0-0.0,"""event"",""trial"",""time""
""fullscreenenter"",""1"",""2637""
","
","
","""event"",""trial"",""time""
""fullscreenenter"",""1"",""2637""
","
",,,,,,,,,,,,"[{""stimulus"":""run_exp/static/images/task_images/dig.jpg"",""time"":0.20000004768371582},{""stimulus"":""run_exp/static/images/task_images/land.jpg"",""time"":920.7000000476837},{""stimulus"":""run_exp/static/images/task_images/dig.jpg"",""time"":1841.5999999046326}]",[],7,,,,,,,,,,,,,,
harvest,228,657691,0.0-72.0-1.0,"""event"",""trial"",""time""
""fullscreenenter"",""1"",""2637""
","
","
","""event"",""trial"",""time""
""fullscreenenter"",""1"",""2637""
","
",,null,run_exp/static/images/task_images/gems/65.jpg,null,,,,,,,52,,,7,,,,,65,0.801351793,0.8,,,,,,,
decision,229,657847,0.0-72.0-2.0,"""event"",""trial"",""time""
""fullscreenenter"",""1"",""2637""
","
","
","""event"",""trial"",""time""
""fullscreenenter"",""1"",""2637""
","
",,153.8,run_exp/static/images/task_images/land.jpg,65,,,,,,,52,,,7,,,,,,,,292976,1,2,FALSE,,,
dig,230,660711,0.0-73.0-0.0,"""event"",""trial"",""time""
""fullscreenenter"",""1"",""2637""
","
","
","""event"",""trial"",""time""
""fullscreenenter"",""1"",""2637""
","
",,,,,,,,,,,,"[{""stimulus"":""run_exp/static/images/task_images/dig.jpg"",""time"":0.2999999523162842},{""stimulus"":""run_exp/static/images/task_images/land.jpg"",""time"":964.2000000476837},{""stimulus"":""run_exp/static/images/task_images/dig.jpg"",""time"":1908.2000000476837}]",[],7,,,,,,,,,,,,,,
harvest,231,661723,0.0-73.0-1.0,"""event"",""trial"",""time""
""fullscreenenter"",""1"",""2637""
","
","
","""event"",""trial"",""time""
""fullscreenenter"",""1"",""2637""
","
",,null,run_exp/static/images/task_images/gems/52.jpg,null,,,,,,,37,,,7,,,,,52,0.718952472,0.711538462,,,,,,,
decision,232,661953,0.0-73.0-2.0,"""event"",""trial"",""time""
""fullscreenenter"",""1"",""2637""
","
","
","""event"",""trial"",""time""
""fullscreenenter"",""1"",""2637""
","
",,227.8999999,run_exp/static/images/task_images/land.jpg,65,,,,,,,37,,,7,,,,,,,,297082,1,3,FALSE,,,
dig,233,664741,0.0-74.0-0.0,"""event"",""trial"",""time""
""fullscreenenter"",""1"",""2637""
","
","
","""event"",""trial"",""time""
""fullscreenenter"",""1"",""2637""
","
",,,,,,,,,,,,"[{""stimulus"":""run_exp/static/images/task_images/dig.jpg"",""time"":0.2999999523162842},{""stimulus"":""run_exp/static/images/task_images/land.jpg"",""time"":931.9000000953674},{""stimulus"":""run_exp/static/images/task_images/dig.jpg"",""time"":1857.1000001430511}]",[],7,,,,,,,,,,,,,,
harvest,234,665744,0.0-74.0-1.0,"""event"",""trial"",""time""
""fullscreenenter"",""1"",""2637""
","
","
","""event"",""trial"",""time""
""fullscreenenter"",""1"",""2637""
","
",,null,run_exp/static/images/task_images/gems/37.jpg,null,,,,,,,30,,,7,,,,,37,0.805307428,0.810810811,,,,,,,
decision,235,665802,0.0-74.0-2.0,"""event"",""trial"",""time""
""fullscreenenter"",""1"",""2637""
","
","
","""event"",""trial"",""time""
""fullscreenenter"",""1"",""2637""
","
",,56.10000014,run_exp/static/images/task_images/land.jpg,65,,,,,,,30,,,7,,,,,,,,300932,1,4,TRUE,,,
end_of_block_continue,236,674676,0.0-75.0-0.0,"""event"",""trial"",""time""
""fullscreenenter"",""1"",""2637""
","
","
","""event"",""trial"",""time""
""fullscreenenter"",""1"",""2637""
","
",,null,run_exp/static/audio/clip_32_block_end.m4a,,,,,,,null,,,,,,,,,,,,,,,,,,
alien_welcome,237,679686,0.0-76.0-0.0,"""event"",""trial"",""time""
""fullscreenenter"",""1"",""2637""
","
","
","""event"",""trial"",""time""
""fullscreenenter"",""1"",""2637""
","
",,null,run_exp/static/images/task_images/aliens/old_aliens/planet/alien_planet-2.jpg,null,,,,,,,,,,,,,2,"31,66,60,37,20,57,55,2,59,72,30,77,46,13,42,62,15,56,8,32,9,39,18,63,34,52,1,68,44",,,,,,,,,,
land,238,680199,0.0-76.0-1.0,"""event"",""trial"",""time""
""fullscreenenter"",""1"",""2637""
","
","
","""event"",""trial"",""time""
""fullscreenenter"",""1"",""2637""
","
",,null,run_exp/static/images/task_images/land.jpg,null,,,,,,,98,,,8,,,,,,,,,,,,,,
dig,239,682211,0.0-76.0-2.0,"""event"",""trial"",""time""
""fullscreenenter"",""1"",""2637""
","
","
","""event"",""trial"",""time""
""fullscreenenter"",""1"",""2637""
","
",,,,,,,,,,,,"[{""stimulus"":""run_exp/static/images/task_images/dig.jpg"",""time"":0.40000009536743164},{""stimulus"":""run_exp/static/images/task_images/land.jpg"",""time"":675.7999999523163},{""stimulus"":""run_exp/static/images/task_images/dig.jpg"",""time"":1343.7000000476837}]",[],8,,,,,,,,,,,,,,
harvest,240,683219,0.0-76.0-3.0,"""event"",""trial"",""time""
""fullscreenenter"",""1"",""2637""
","
","
","""event"",""trial"",""time""
""fullscreenenter"",""1"",""2637""
","
",,null,run_exp/static/images/task_images/gems/98.jpg,null,,,,,,,18,,,8,,,,,98,0.181733624,0.183673469,,,,,,,
decision,241,683504,0.0-76.0-4.0,"""event"",""trial"",""time""
""fullscreenenter"",""1"",""2637""
","
","
","""event"",""trial"",""time""
""fullscreenenter"",""1"",""2637""
","
",,284.3999999,run_exp/static/images/task_images/land.jpg,65,,,,,,,18,,,8,,,,,,,,8821,2,0,FALSE,,,
dig,242,686237,0.0-77.0-0.0,"""event"",""trial"",""time""
""fullscreenenter"",""1"",""2637""
","
","
","""event"",""trial"",""time""
""fullscreenenter"",""1"",""2637""
","
",,,,,,,,,,,,"[{""stimulus"":""run_exp/static/images/task_images/dig.jpg"",""time"":0.20000004768371582},{""stimulus"":""run_exp/static/images/task_images/land.jpg"",""time"":910.1000001430511},{""stimulus"":""run_exp/static/images/task_images/dig.jpg"",""time"":1826.5}]",[],8,,,,,,,,,,,,,,
harvest,243,687245,0.0-77.0-1.0,"""event"",""trial"",""time""
""fullscreenenter"",""1"",""2637""
","
","
","""event"",""trial"",""time""
""fullscreenenter"",""1"",""2637""
","
",,null,run_exp/static/images/task_images/gems/18.jpg,null,,,,,,,3,,,8,,,,,18,0.17622563,0.166666667,,,,,,,
decision,244,687505,0.0-77.0-2.0,"""event"",""trial"",""time""
""fullscreenenter"",""1"",""2637""
","
","
","""event"",""trial"",""time""
""fullscreenenter"",""1"",""2637""
","
",,256.5,run_exp/static/images/task_images/land.jpg,65,,,,,,,3,,,8,,,,,,,,12821,2,1,FALSE,,,
dig,245,690257,0.0-78.0-0.0,"""event"",""trial"",""time""
""fullscreenenter"",""1"",""2637""
","
","
","""event"",""trial"",""time""
""fullscreenenter"",""1"",""2637""
","
",,,,,,,,,,,,"[{""stimulus"":""run_exp/static/images/task_images/dig.jpg"",""time"":0.19999980926513672},{""stimulus"":""run_exp/static/images/task_images/land.jpg"",""time"":925.2999999523163},{""stimulus"":""run_exp/static/images/task_images/dig.jpg"",""time"":1842.5999999046326}]",[],8,,,,,,,,,,,,,,
harvest,246,691264,0.0-78.0-1.0,"""event"",""trial"",""time""
""fullscreenenter"",""1"",""2637""
","
","
","""event"",""trial"",""time""
""fullscreenenter"",""1"",""2637""
","
",,null,run_exp/static/images/task_images/gems/3.jpg,null,,,,,,,1,,,8,,,,,3,0.2363842,0.333333333,,,,,,,
decision,247,691279,0.0-78.0-2.0,"""event"",""trial"",""time""
""fullscreenenter"",""1"",""2637""
","
","
","""event"",""trial"",""time""
""fullscreenenter"",""1"",""2637""
","
",,12.89999986,run_exp/static/images/task_images/land.jpg,76,,,,,,,1,,,8,,,,,,,,16595,2,2,TRUE,,,
travel,248,701272,0.0-79.0-0.0,"""event"",""trial"",""time""
""fullscreenenter"",""1"",""2637""
","
","
","""event"",""trial"",""time""
""fullscreenenter"",""1"",""2637""
","
",,,,,,,,,,,,"[{""stimulus"":""run_exp/static/images/task_images/rocket-01.jpg"",""time"":0.19999980926513672},{""stimulus"":""run_exp/static/images/task_images/rocket-02.jpg"",""time"":1117.8999998569489},{""stimulus"":""run_exp/static/images/task_images/rocket-03.jpg"",""time"":2226.2999999523163},{""stimulus"":""run_exp/static/images/task_images/rocket-04.jpg"",""time"":3336.5},{""stimulus"":""run_exp/static/images/task_images/rocket-05.jpg"",""time"":4448.5},{""stimulus"":""run_exp/static/images/task_images/rocket-06.jpg"",""time"":5551.5},{""stimulus"":""run_exp/static/images/task_images/rocket-07.jpg"",""time"":6663.899999856949},{""stimulus"":""run_exp/static/images/task_images/rocket-08.jpg"",""time"":7768.099999904633},{""stimulus"":""run_exp/static/images/task_images/rocket-09.jpg"",""time"":8883.399999856949}]",[],8,,,,,,,,,,,,,,
alien_welcome,249,706281,0.0-79.0-1.0,"""event"",""trial"",""time""
""fullscreenenter"",""1"",""2637""
","
","
","""event"",""trial"",""time""
""fullscreenenter"",""1"",""2637""
","
",,null,run_exp/static/images/task_images/aliens/old_aliens/planet/alien_planet-59.jpg,null,,,,,,,,,,,,,59,"31,66,60,37,20,57,55,2,59,72,30,77,46,13,42,62,15,56,8,32,9,39,18,63,34,52,1,68,44",,,,,,,,,,
land,250,706788,0.0-79.0-2.0,"""event"",""trial"",""time""
""fullscreenenter"",""1"",""2637""
","
","
","""event"",""trial"",""time""
""fullscreenenter"",""1"",""2637""
","
",,null,run_exp/static/images/task_images/land.jpg,null,,,,,,,110,,,9,,,,,,,,,,,,,,
dig,251,708801,0.0-79.0-3.0,"""event"",""trial"",""time""
""fullscreenenter"",""1"",""2637""
","
","
","""event"",""trial"",""time""
""fullscreenenter"",""1"",""2637""
","
",,,,,,,,,,,,"[{""stimulus"":""run_exp/static/images/task_images/dig.jpg"",""time"":0.40000009536743164},{""stimulus"":""run_exp/static/images/task_images/land.jpg"",""time"":673.7000000476837},{""stimulus"":""run_exp/static/images/task_images/dig.jpg"",""time"":1342.2000000476837}]",[],9,,,,,,,,,,,,,,
harvest,252,709809,0.0-79.0-4.0,"""event"",""trial"",""time""
""fullscreenenter"",""1"",""2637""
","
","
","""event"",""trial"",""time""
""fullscreenenter"",""1"",""2637""
","
",,null,run_exp/static/images/task_images/gems/110.jpg,null,,,,,,,18,,,9,,,,,110,0.160877127,0.163636364,,,,,,,
decision,253,710073,0.0-79.0-5.0,"""event"",""trial"",""time""
""fullscreenenter"",""1"",""2637""
","
","
","""event"",""trial"",""time""
""fullscreenenter"",""1"",""2637""
","
",,262,run_exp/static/images/task_images/land.jpg,65,,,,,,,18,,,9,,,,,,,,35389,2,0,FALSE,,,
dig,254,712819,0.0-80.0-0.0,"""event"",""trial"",""time""
""fullscreenenter"",""1"",""2637""
","
","
","""event"",""trial"",""time""
