trial_type,trial_index,time_elapsed,internal_node_id,interactions,blur_events,focus_events,fullscreenenter_events,fullscreenexit_events,success,rt,stimulus,key_press,prompt,subject_id,participant_id,age,gender,button_pressed,next_reward,animation_sequence,responses,planet,curr_prac_trial,n_prac_rounds,alien,aliens,reward_received,decay_rate_actual,decay_rate_exp,time_in_block,block_num,prt,last_trial_on_planet,button_html,bonus,num_failures
pavlovia,0,2,0.0-0.0,"""event"",""trial"",""time""
""blur"",""0"",""0""
""focus"",""0"",""0""
""blur"",""0"",""0""
""focus"",""0"",""0""
""blur"",""0"",""0""
""focus"",""0"",""0""
""blur"",""0"",""0""
""focus"",""1"",""8372""
""fullscreenenter"",""1"",""8502""
","""event"",""trial"",""time""
""blur"",""0"",""0""
""blur"",""0"",""0""
""blur"",""0"",""0""
""blur"",""0"",""0""
","""event"",""trial"",""time""
""focus"",""0"",""0""
""focus"",""0"",""0""
""focus"",""0"",""0""
""focus"",""1"",""8372""
","""event"",""trial"",""time""
""fullscreenenter"",""1"",""8502""
","
",,,,,,,,,,,,,,,,,,,,,,,,,,,,
fullscreen,1,9492,0.0-1.0,"""event"",""trial"",""time""
""blur"",""0"",""0""
""focus"",""0"",""0""
""blur"",""0"",""0""
""focus"",""0"",""0""
""blur"",""0"",""0""
""focus"",""0"",""0""
""blur"",""0"",""0""
""focus"",""1"",""8372""
""fullscreenenter"",""1"",""8502""
""fullscreenexit"",""2"",""14641""
""blur"",""2"",""17055""
","""event"",""trial"",""time""
""blur"",""0"",""0""
""blur"",""0"",""0""
""blur"",""0"",""0""
""blur"",""0"",""0""
""blur"",""2"",""17055""
","""event"",""trial"",""time""
""focus"",""0"",""0""
""focus"",""0"",""0""
""focus"",""0"",""0""
""focus"",""1"",""8372""
","""event"",""trial"",""time""
""fullscreenenter"",""1"",""8502""
","""event"",""trial"",""time""
""fullscreenexit"",""2"",""14641""
",TRUE,,,,,,,,,,,,,,,,,,,,,,,,,,,
instruc_welcome,2,19461,0.0-2.0,"""event"",""trial"",""time""
""blur"",""0"",""0""
""focus"",""0"",""0""
""blur"",""0"",""0""
""focus"",""0"",""0""
""blur"",""0"",""0""
""focus"",""0"",""0""
""blur"",""0"",""0""
""focus"",""1"",""8372""
""fullscreenenter"",""1"",""8502""
""fullscreenexit"",""2"",""14641""
""blur"",""2"",""17055""
""focus"",""3"",""20551""
""blur"",""3"",""31717""
""focus"",""3"",""34832""
","""event"",""trial"",""time""
""blur"",""0"",""0""
""blur"",""0"",""0""
""blur"",""0"",""0""
""blur"",""0"",""0""
""blur"",""2"",""17055""
""blur"",""3"",""31717""
","""event"",""trial"",""time""
""focus"",""0"",""0""
""focus"",""0"",""0""
""focus"",""0"",""0""
""focus"",""1"",""8372""
""focus"",""3"",""20551""
""focus"",""3"",""34832""
","""event"",""trial"",""time""
""fullscreenenter"",""1"",""8502""
","""event"",""trial"",""time""
""fullscreenexit"",""2"",""14641""
",,null,run_exp/static/audio/clip_1_welcome.m4a,null,"<p>Howdy! In this experiment, you’ll be an explorer traveling through space to collect space treasure.</p><p>Your mission is to collect as much treasure as possible.</p><br><br><p><img src='run_exp/static/images/task_images/opening_img-01.jpg' height='300' width='auto'></p>",9856,3449,14.5,Male,,,,,,,,,,,,,,,,,,,
audio-keyboard-response,3,36081,0.0-3.0,"""event"",""trial"",""time""
""blur"",""0"",""0""
""focus"",""0"",""0""
""blur"",""0"",""0""
""focus"",""0"",""0""
""blur"",""0"",""0""
""focus"",""0"",""0""
""blur"",""0"",""0""
""focus"",""1"",""8372""
""fullscreenenter"",""1"",""8502""
""fullscreenexit"",""2"",""14641""
""blur"",""2"",""17055""
""focus"",""3"",""20551""
""blur"",""3"",""31717""
""focus"",""3"",""34832""
","""event"",""trial"",""time""
""blur"",""0"",""0""
""blur"",""0"",""0""
""blur"",""0"",""0""
""blur"",""0"",""0""
""blur"",""2"",""17055""
""blur"",""3"",""31717""
","""event"",""trial"",""time""
""focus"",""0"",""0""
""focus"",""0"",""0""
""focus"",""0"",""0""
""focus"",""1"",""8372""
""focus"",""3"",""20551""
""focus"",""3"",""34832""
","""event"",""trial"",""time""
""fullscreenenter"",""1"",""8502""
","""event"",""trial"",""time""
""fullscreenexit"",""2"",""14641""
",,null,run_exp/static/audio/clip_2_move.m4a,null,,,,,,,,,,,,,,,,,,,,,,,,
welcome_dec,4,39060,0.0-4.0,"""event"",""trial"",""time""
""blur"",""0"",""0""
""focus"",""0"",""0""
""blur"",""0"",""0""
""focus"",""0"",""0""
""blur"",""0"",""0""
""focus"",""0"",""0""
""blur"",""0"",""0""
""focus"",""1"",""8372""
""fullscreenenter"",""1"",""8502""
""fullscreenexit"",""2"",""14641""
""blur"",""2"",""17055""
""focus"",""3"",""20551""
""blur"",""3"",""31717""
""focus"",""3"",""34832""
","""event"",""trial"",""time""
""blur"",""0"",""0""
""blur"",""0"",""0""
""blur"",""0"",""0""
""blur"",""0"",""0""
""blur"",""2"",""17055""
""blur"",""3"",""31717""
","""event"",""trial"",""time""
""focus"",""0"",""0""
""focus"",""0"",""0""
""focus"",""0"",""0""
""focus"",""1"",""8372""
""focus"",""3"",""20551""
""focus"",""3"",""34832""
","""event"",""trial"",""time""
""fullscreenenter"",""1"",""8502""
","""event"",""trial"",""time""
""fullscreenexit"",""2"",""14641""
",,2978.1,"<p>Howdy! In this experiment, you’ll be an explorer traveling through space to collect space treasure.</p><p>Your mission is to collect as much treasure as possible.</p><br><br><p><img src='run_exp/static/images/task_images/opening_img-01.jpg' height='300' width='auto'></p>",,,,,,,1,,,,,,,,,,,,,,,,,,
html-keyboard-response,5,41041,0.0-5.0,"""event"",""trial"",""time""
""blur"",""0"",""0""
""focus"",""0"",""0""
""blur"",""0"",""0""
""focus"",""0"",""0""
""blur"",""0"",""0""
""focus"",""0"",""0""
""blur"",""0"",""0""
""focus"",""1"",""8372""
""fullscreenenter"",""1"",""8502""
""fullscreenexit"",""2"",""14641""
""blur"",""2"",""17055""
""focus"",""3"",""20551""
""blur"",""3"",""31717""
""focus"",""3"",""34832""
""blur"",""6"",""45910""
""focus"",""6"",""46862""
""blur"",""6"",""49348""
","""event"",""trial"",""time""
""blur"",""0"",""0""
""blur"",""0"",""0""
""blur"",""0"",""0""
""blur"",""0"",""0""
""blur"",""2"",""17055""
""blur"",""3"",""31717""
""blur"",""6"",""45910""
""blur"",""6"",""49348""
","""event"",""trial"",""time""
""focus"",""0"",""0""
""focus"",""0"",""0""
""focus"",""0"",""0""
""focus"",""1"",""8372""
""focus"",""3"",""20551""
""focus"",""3"",""34832""
""focus"",""6"",""46862""
","""event"",""trial"",""time""
""fullscreenenter"",""1"",""8502""
","""event"",""trial"",""time""
""fullscreenexit"",""2"",""14641""
",,1979.8,"<p>Howdy! In this experiment, you’ll be an explorer traveling through space to collect space treasure.</p><p>Your mission is to collect as much treasure as possible.</p><br><br><p><img src='run_exp/static/images/task_images/opening_img-01.jpg' height='300' width='auto'></p><button class=""jspsych-html-btn-unchosen""><img src=""run_exp/static/images/task_images/planet-01.jpg"" height=""50""></button><button class=""jspsych-html-btn-chosen""><img src=""run_exp/static/images/task_images/planet-02.jpg"" height=""50""></button><p><b>[press the space bar to lock in your answer]<b><br></p>",32,,,,,,,,,,,,,,,,,,,,,,,,
instruc_goal,6,51140,0.0-6.0-0.0,"""event"",""trial"",""time""
""blur"",""0"",""0""
""focus"",""0"",""0""
""blur"",""0"",""0""
""focus"",""0"",""0""
""blur"",""0"",""0""
""focus"",""0"",""0""
""blur"",""0"",""0""
""focus"",""1"",""8372""
""fullscreenenter"",""1"",""8502""
""fullscreenexit"",""2"",""14641""
""blur"",""2"",""17055""
""focus"",""3"",""20551""
""blur"",""3"",""31717""
""focus"",""3"",""34832""
""blur"",""6"",""45910""
""focus"",""6"",""46862""
""blur"",""6"",""49348""
""focus"",""7"",""52078""
","""event"",""trial"",""time""
""blur"",""0"",""0""
""blur"",""0"",""0""
""blur"",""0"",""0""
""blur"",""0"",""0""
""blur"",""2"",""17055""
""blur"",""3"",""31717""
""blur"",""6"",""45910""
""blur"",""6"",""49348""
","""event"",""trial"",""time""
""focus"",""0"",""0""
""focus"",""0"",""0""
""focus"",""0"",""0""
""focus"",""1"",""8372""
""focus"",""3"",""20551""
""focus"",""3"",""34832""
""focus"",""6"",""46862""
""focus"",""7"",""52078""
","""event"",""trial"",""time""
""fullscreenenter"",""1"",""8502""
","""event"",""trial"",""time""
""fullscreenexit"",""2"",""14641""
",,null,run_exp/static/audio/clip_3_goal.m4a,null,"<p> As a space explorer, you’ll visit different planets to dig for space treasure, these pink gems.</p> <p> The more treasure you dig up, the more bonus money you’ll win! </p><br><br><p><img src='run_exp/static/images/task_images/pink_gem.jpg' height='300' width='auto'></p>",,,,,,,,,,,,,,,,,,,,,,,
instruc_goal,7,52962,0.0-6.0-1.0,"""event"",""trial"",""time""
""blur"",""0"",""0""
""focus"",""0"",""0""
""blur"",""0"",""0""
""focus"",""0"",""0""
""blur"",""0"",""0""
""focus"",""0"",""0""
""blur"",""0"",""0""
""focus"",""1"",""8372""
""fullscreenenter"",""1"",""8502""
""fullscreenexit"",""2"",""14641""
""blur"",""2"",""17055""
""focus"",""3"",""20551""
""blur"",""3"",""31717""
""focus"",""3"",""34832""
""blur"",""6"",""45910""
""focus"",""6"",""46862""
""blur"",""6"",""49348""
""focus"",""7"",""52078""
","""event"",""trial"",""time""
""blur"",""0"",""0""
""blur"",""0"",""0""
""blur"",""0"",""0""
""blur"",""0"",""0""
""blur"",""2"",""17055""
""blur"",""3"",""31717""
""blur"",""6"",""45910""
""blur"",""6"",""49348""
","""event"",""trial"",""time""
""focus"",""0"",""0""
""focus"",""0"",""0""
""focus"",""0"",""0""
""focus"",""1"",""8372""
""focus"",""3"",""20551""
""focus"",""3"",""34832""
""focus"",""6"",""46862""
""focus"",""7"",""52078""
","""event"",""trial"",""time""
""fullscreenenter"",""1"",""8502""
","""event"",""trial"",""time""
""fullscreenexit"",""2"",""14641""
",,1821.7,"<p> As a space explorer, you’ll visit different planets to dig for space treasure, these pink gems.</p> <p> The more treasure you dig up, the more bonus money you’ll win! </p><br><br><p><img src='run_exp/static/images/task_images/pink_gem.jpg' height='300' width='auto'></p>",,,,,,,1,,,,,,,,,,,,,,,,,,
html-keyboard-response,8,53439,0.0-6.0-2.0,"""event"",""trial"",""time""
""blur"",""0"",""0""
""focus"",""0"",""0""
""blur"",""0"",""0""
""focus"",""0"",""0""
""blur"",""0"",""0""
""focus"",""0"",""0""
""blur"",""0"",""0""
""focus"",""1"",""8372""
""fullscreenenter"",""1"",""8502""
""fullscreenexit"",""2"",""14641""
""blur"",""2"",""17055""
""focus"",""3"",""20551""
""blur"",""3"",""31717""
""focus"",""3"",""34832""
""blur"",""6"",""45910""
""focus"",""6"",""46862""
""blur"",""6"",""49348""
""focus"",""7"",""52078""
","""event"",""trial"",""time""
""blur"",""0"",""0""
""blur"",""0"",""0""
""blur"",""0"",""0""
""blur"",""0"",""0""
""blur"",""2"",""17055""
""blur"",""3"",""31717""
""blur"",""6"",""45910""
""blur"",""6"",""49348""
","""event"",""trial"",""time""
""focus"",""0"",""0""
""focus"",""0"",""0""
""focus"",""0"",""0""
""focus"",""1"",""8372""
""focus"",""3"",""20551""
""focus"",""3"",""34832""
""focus"",""6"",""46862""
""focus"",""7"",""52078""
","""event"",""trial"",""time""
""fullscreenenter"",""1"",""8502""
","""event"",""trial"",""time""
""fullscreenexit"",""2"",""14641""
",,475.6,"<p> As a space explorer, you’ll visit different planets to dig for space treasure, these pink gems.</p> <p> The more treasure you dig up, the more bonus money you’ll win! </p><br><br><p><img src='run_exp/static/images/task_images/pink_gem.jpg' height='300' width='auto'></p><button class=""jspsych-html-btn-unchosen""><img src=""run_exp/static/images/task_images/planet-01.jpg"" height=""50""></button><button class=""jspsych-html-btn-chosen""><img src=""run_exp/static/images/task_images/planet-02.jpg"" height=""50""></button><p><b>[press the space bar to lock in your answer]<b><br></p>",32,,,,,,,,,,,,,,,,,,,,,,,,
instruc_dig,9,69480,0.0-7.0-0.0,"""event"",""trial"",""time""
""blur"",""0"",""0""
""focus"",""0"",""0""
""blur"",""0"",""0""
""focus"",""0"",""0""
""blur"",""0"",""0""
""focus"",""0"",""0""
""blur"",""0"",""0""
""focus"",""1"",""8372""
""fullscreenenter"",""1"",""8502""
""fullscreenexit"",""2"",""14641""
""blur"",""2"",""17055""
""focus"",""3"",""20551""
""blur"",""3"",""31717""
""focus"",""3"",""34832""
""blur"",""6"",""45910""
""focus"",""6"",""46862""
""blur"",""6"",""49348""
""focus"",""7"",""52078""
","""event"",""trial"",""time""
""blur"",""0"",""0""
""blur"",""0"",""0""
""blur"",""0"",""0""
""blur"",""0"",""0""
""blur"",""2"",""17055""
""blur"",""3"",""31717""
""blur"",""6"",""45910""
""blur"",""6"",""49348""
","""event"",""trial"",""time""
""focus"",""0"",""0""
""focus"",""0"",""0""
""focus"",""0"",""0""
""focus"",""1"",""8372""
""focus"",""3"",""20551""
""focus"",""3"",""34832""
""focus"",""6"",""46862""
""focus"",""7"",""52078""
","""event"",""trial"",""time""
""fullscreenenter"",""1"",""8502""
","""event"",""trial"",""time""
""fullscreenexit"",""2"",""14641""
",,null,run_exp/static/audio/clip_4_dig.m4a,null,,,,,,,100,,,,,,,,,,,,,,,,,
instruc_dig_try,10,70720,0.0-7.0-1.0,"""event"",""trial"",""time""
""blur"",""0"",""0""
""focus"",""0"",""0""
""blur"",""0"",""0""
""focus"",""0"",""0""
""blur"",""0"",""0""
""focus"",""0"",""0""
""blur"",""0"",""0""
""focus"",""1"",""8372""
""fullscreenenter"",""1"",""8502""
""fullscreenexit"",""2"",""14641""
""blur"",""2"",""17055""
""focus"",""3"",""20551""
""blur"",""3"",""31717""
""focus"",""3"",""34832""
""blur"",""6"",""45910""
""focus"",""6"",""46862""
""blur"",""6"",""49348""
""focus"",""7"",""52078""
","""event"",""trial"",""time""
""blur"",""0"",""0""
""blur"",""0"",""0""
""blur"",""0"",""0""
""blur"",""0"",""0""
""blur"",""2"",""17055""
""blur"",""3"",""31717""
""blur"",""6"",""45910""
""blur"",""6"",""49348""
","""event"",""trial"",""time""
""focus"",""0"",""0""
""focus"",""0"",""0""
""focus"",""0"",""0""
""focus"",""1"",""8372""
""focus"",""3"",""20551""
""focus"",""3"",""34832""
""focus"",""6"",""46862""
""focus"",""7"",""52078""
","""event"",""trial"",""time""
""fullscreenenter"",""1"",""8502""
","""event"",""trial"",""time""
""fullscreenexit"",""2"",""14641""
",,1239.1,"<p> When you’ve arrived at a new planet, you will dig once. </p> <p>Then, you get to decide if you want to stay on the planet and dig again or travel to a new planet and dig there.</p> <p> To stay and dig, press the letter <strong>‘A’</strong> on your keyboard. Try pressing it now! </p><p><img src='run_exp/static/images/task_images/land.jpg'  height='700' width='auto'></p>",65,"<p> When you’ve arrived at a new planet, you will dig once. </p> <p>Then, you get to decide if you want to stay on the planet and dig again or travel to a new planet and dig there.</p> <p> To stay and dig, press the letter <strong>‘A’</strong> on your keyboard. Try pressing it now! </p><p><img src='run_exp/static/images/task_images/land.jpg'  height='700' width='auto'></p>",,,,,,100,,,,,,,,,,,,,,,,,
dig_prac,11,72738,0.0-7.0-2.0,"""event"",""trial"",""time""
""blur"",""0"",""0""
""focus"",""0"",""0""
""blur"",""0"",""0""
""focus"",""0"",""0""
""blur"",""0"",""0""
""focus"",""0"",""0""
""blur"",""0"",""0""
""focus"",""1"",""8372""
""fullscreenenter"",""1"",""8502""
""fullscreenexit"",""2"",""14641""
""blur"",""2"",""17055""
""focus"",""3"",""20551""
""blur"",""3"",""31717""
""focus"",""3"",""34832""
""blur"",""6"",""45910""
""focus"",""6"",""46862""
""blur"",""6"",""49348""
""focus"",""7"",""52078""
""blur"",""12"",""96445""
""focus"",""12"",""105278""
","""event"",""trial"",""time""
""blur"",""0"",""0""
""blur"",""0"",""0""
""blur"",""0"",""0""
""blur"",""0"",""0""
""blur"",""2"",""17055""
""blur"",""3"",""31717""
""blur"",""6"",""45910""
""blur"",""6"",""49348""
""blur"",""12"",""96445""
","""event"",""trial"",""time""
""focus"",""0"",""0""
""focus"",""0"",""0""
""focus"",""0"",""0""
""focus"",""1"",""8372""
""focus"",""3"",""20551""
""focus"",""3"",""34832""
""focus"",""6"",""46862""
""focus"",""7"",""52078""
""focus"",""12"",""105278""
","""event"",""trial"",""time""
""fullscreenenter"",""1"",""8502""
","""event"",""trial"",""time""
""fullscreenexit"",""2"",""14641""
",,,,,,,,,,,,"[{""stimulus"":""run_exp/static/images/task_images/dig.jpg"",""time"":0.10000000894069672},{""stimulus"":""run_exp/static/images/task_images/land.jpg"",""time"":668.2000000029802},{""stimulus"":""run_exp/static/images/task_images/dig.jpg"",""time"":1335.9000000059605}]",[],,,,,,,,,,,,,,,
instruc_travel,12,109019,0.0-7.0-3.0,"""event"",""trial"",""time""
""blur"",""0"",""0""
""focus"",""0"",""0""
""blur"",""0"",""0""
""focus"",""0"",""0""
""blur"",""0"",""0""
""focus"",""0"",""0""
""blur"",""0"",""0""
""focus"",""1"",""8372""
""fullscreenenter"",""1"",""8502""
""fullscreenexit"",""2"",""14641""
""blur"",""2"",""17055""
""focus"",""3"",""20551""
""blur"",""3"",""31717""
""focus"",""3"",""34832""
""blur"",""6"",""45910""
""focus"",""6"",""46862""
""blur"",""6"",""49348""
""focus"",""7"",""52078""
""blur"",""12"",""96445""
""focus"",""12"",""105278""
","""event"",""trial"",""time""
""blur"",""0"",""0""
""blur"",""0"",""0""
""blur"",""0"",""0""
""blur"",""0"",""0""
""blur"",""2"",""17055""
""blur"",""3"",""31717""
""blur"",""6"",""45910""
""blur"",""6"",""49348""
""blur"",""12"",""96445""
","""event"",""trial"",""time""
""focus"",""0"",""0""
""focus"",""0"",""0""
""focus"",""0"",""0""
""focus"",""1"",""8372""
""focus"",""3"",""20551""
""focus"",""3"",""34832""
""focus"",""6"",""46862""
""focus"",""7"",""52078""
""focus"",""12"",""105278""
","""event"",""trial"",""time""
""fullscreenenter"",""1"",""8502""
","""event"",""trial"",""time""
""fullscreenexit"",""2"",""14641""
",,null,run_exp/static/audio/clip_5_travel.m4a,null,"<p>Every time you dig up gems, there are less gems on the planet, so the more you dig on a planet the fewer gems you’ll get with each dig.</p><p>When gems are running low, you may want to travel to a new planet. </p> <p>  Planets are very far apart in this galaxy, so it will take some time to travel between them. </p> <br><p>There are lots and lots of planets for you to visit, so you won’t be able to return to any planets you’ve seen before. </p><br><p>To leave this planet and travel to a new one, press the letter <strong>‘L’</strong> on your keyboard. Try pressing it now! </p><p><img src='run_exp/static/images/task_images/rocket-01.jpg'  height='600' width='auto'></p>",,,,,,,,,,,,,,,,,,,,,,,
instruc_travel_try,13,111326,0.0-7.0-4.0,"""event"",""trial"",""time""
""blur"",""0"",""0""
""focus"",""0"",""0""
""blur"",""0"",""0""
""focus"",""0"",""0""
""blur"",""0"",""0""
""focus"",""0"",""0""
""blur"",""0"",""0""
""focus"",""1"",""8372""
""fullscreenenter"",""1"",""8502""
""fullscreenexit"",""2"",""14641""
""blur"",""2"",""17055""
""focus"",""3"",""20551""
""blur"",""3"",""31717""
""focus"",""3"",""34832""
""blur"",""6"",""45910""
""focus"",""6"",""46862""
""blur"",""6"",""49348""
""focus"",""7"",""52078""
""blur"",""12"",""96445""
""focus"",""12"",""105278""
""blur"",""14"",""116556""
""focus"",""14"",""120662""
","""event"",""trial"",""time""
""blur"",""0"",""0""
""blur"",""0"",""0""
""blur"",""0"",""0""
""blur"",""0"",""0""
""blur"",""2"",""17055""
""blur"",""3"",""31717""
""blur"",""6"",""45910""
""blur"",""6"",""49348""
""blur"",""12"",""96445""
""blur"",""14"",""116556""
","""event"",""trial"",""time""
""focus"",""0"",""0""
""focus"",""0"",""0""
""focus"",""0"",""0""
""focus"",""1"",""8372""
""focus"",""3"",""20551""
""focus"",""3"",""34832""
""focus"",""6"",""46862""
""focus"",""7"",""52078""
""focus"",""12"",""105278""
""focus"",""14"",""120662""
","""event"",""trial"",""time""
""fullscreenenter"",""1"",""8502""
","""event"",""trial"",""time""
""fullscreenexit"",""2"",""14641""
",,2305.6,"<p>Every time you dig up gems, there are less gems on the planet, so the more you dig on a planet the fewer gems you’ll get with each dig.</p><p>When gems are running low, you may want to travel to a new planet. </p> <p>  Planets are very far apart in this galaxy, so it will take some time to travel between them. </p> <br><p>There are lots and lots of planets for you to visit, so you won’t be able to return to any planets you’ve seen before. </p><br><p>To leave this planet and travel to a new one, press the letter <strong>‘L’</strong> on your keyboard. Try pressing it now! </p><p><img src='run_exp/static/images/task_images/rocket-01.jpg'  height='600' width='auto'></p>",76,"<p>Every time you dig up gems, there are less gems on the planet, so the more you dig on a planet the fewer gems you’ll get with each dig.</p><p>When gems are running low, you may want to travel to a new planet. </p> <p>  Planets are very far apart in this galaxy, so it will take some time to travel between them. </p> <br><p>There are lots and lots of planets for you to visit, so you won’t be able to return to any planets you’ve seen before. </p><br><p>To leave this planet and travel to a new one, press the letter <strong>‘L’</strong> on your keyboard. Try pressing it now! </p><p><img src='run_exp/static/images/task_images/rocket-01.jpg'  height='600' width='auto'></p>",,,,,,,,,,,,,,,,,,,,,,,
travel_prac,14,121328,0.0-7.0-5.0,"""event"",""trial"",""time""
""blur"",""0"",""0""
""focus"",""0"",""0""
""blur"",""0"",""0""
""focus"",""0"",""0""
""blur"",""0"",""0""
""focus"",""0"",""0""
""blur"",""0"",""0""
""focus"",""1"",""8372""
""fullscreenenter"",""1"",""8502""
""fullscreenexit"",""2"",""14641""
""blur"",""2"",""17055""
""focus"",""3"",""20551""
""blur"",""3"",""31717""
""focus"",""3"",""34832""
""blur"",""6"",""45910""
""focus"",""6"",""46862""
""blur"",""6"",""49348""
""focus"",""7"",""52078""
""blur"",""12"",""96445""
""focus"",""12"",""105278""
""blur"",""14"",""116556""
""focus"",""14"",""120662""
""blur"",""15"",""123483""
""focus"",""15"",""127285""
","""event"",""trial"",""time""
""blur"",""0"",""0""
""blur"",""0"",""0""
""blur"",""0"",""0""
""blur"",""0"",""0""
""blur"",""2"",""17055""
""blur"",""3"",""31717""
""blur"",""6"",""45910""
""blur"",""6"",""49348""
""blur"",""12"",""96445""
""blur"",""14"",""116556""
""blur"",""15"",""123483""
","""event"",""trial"",""time""
""focus"",""0"",""0""
""focus"",""0"",""0""
""focus"",""0"",""0""
""focus"",""1"",""8372""
""focus"",""3"",""20551""
""focus"",""3"",""34832""
""focus"",""6"",""46862""
""focus"",""7"",""52078""
""focus"",""12"",""105278""
""focus"",""14"",""120662""
""focus"",""15"",""127285""
","""event"",""trial"",""time""
""fullscreenenter"",""1"",""8502""
","""event"",""trial"",""time""
""fullscreenexit"",""2"",""14641""
",,,,,,,,,,,,"[{""stimulus"":""run_exp/static/images/task_images/rocket-01.jpg"",""time"":0.19999998807907104},{""stimulus"":""run_exp/static/images/task_images/rocket-02.jpg"",""time"":1121},{""stimulus"":""run_exp/static/images/task_images/rocket-03.jpg"",""time"":2226.5},{""stimulus"":""run_exp/static/images/task_images/rocket-04.jpg"",""time"":3351.3999999910593},{""stimulus"":""run_exp/static/images/task_images/rocket-05.jpg"",""time"":4458.0999999940395},{""stimulus"":""run_exp/static/images/task_images/rocket-06.jpg"",""time"":5569.5},{""stimulus"":""run_exp/static/images/task_images/rocket-07.jpg"",""time"":6679.79999999702},{""stimulus"":""run_exp/static/images/task_images/rocket-08.jpg"",""time"":7785},{""stimulus"":""run_exp/static/images/task_images/rocket-09.jpg"",""time"":8897.29999999702}]",[],0,,,,,,,,,,,,,,
instruc_alien_greet,15,148549,0.0-7.0-6.0,"""event"",""trial"",""time""
""blur"",""0"",""0""
""focus"",""0"",""0""
""blur"",""0"",""0""
""focus"",""0"",""0""
""blur"",""0"",""0""
""focus"",""0"",""0""
""blur"",""0"",""0""
""focus"",""1"",""8372""
""fullscreenenter"",""1"",""8502""
""fullscreenexit"",""2"",""14641""
""blur"",""2"",""17055""
""focus"",""3"",""20551""
""blur"",""3"",""31717""
""focus"",""3"",""34832""
""blur"",""6"",""45910""
""focus"",""6"",""46862""
""blur"",""6"",""49348""
""focus"",""7"",""52078""
""blur"",""12"",""96445""
""focus"",""12"",""105278""
""blur"",""14"",""116556""
""focus"",""14"",""120662""
""blur"",""15"",""123483""
""focus"",""15"",""127285""
","""event"",""trial"",""time""
""blur"",""0"",""0""
""blur"",""0"",""0""
""blur"",""0"",""0""
""blur"",""0"",""0""
""blur"",""2"",""17055""
""blur"",""3"",""31717""
""blur"",""6"",""45910""
""blur"",""6"",""49348""
""blur"",""12"",""96445""
""blur"",""14"",""116556""
""blur"",""15"",""123483""
","""event"",""trial"",""time""
""focus"",""0"",""0""
""focus"",""0"",""0""
""focus"",""0"",""0""
""focus"",""1"",""8372""
""focus"",""3"",""20551""
""focus"",""3"",""34832""
""focus"",""6"",""46862""
""focus"",""7"",""52078""
""focus"",""12"",""105278""
""focus"",""14"",""120662""
""focus"",""15"",""127285""
","""event"",""trial"",""time""
""fullscreenenter"",""1"",""8502""
","""event"",""trial"",""time""
""fullscreenexit"",""2"",""14641""
",,null,run_exp/static/audio/clip_6_alien.m4a,null,"<p>When you arrive at a new planet, the alien who owns the treasure mine on that planet will greet you!</p><p>The better an alien takes care of their mine the easier it is to dig for gems. Some aliens take better care of their mine than others. So, you won’t get exactly the same amount of gems on each planet.</p><p>What the alien looks like does not tell you anything about how many gems there are on the planet.</p><br><p><img src=""run_exp/static/images/task_images/aliens/instructions_aliens/planet/alien_planet-1.jpg""  height=""600"" width=""auto""></p>",,,,,,,,,,,,,,,,,,,,,,,
instruc_alien_greet,16,150690,0.0-7.0-7.0,"""event"",""trial"",""time""
""blur"",""0"",""0""
""focus"",""0"",""0""
""blur"",""0"",""0""
""focus"",""0"",""0""
""blur"",""0"",""0""
""focus"",""0"",""0""
""blur"",""0"",""0""
""focus"",""1"",""8372""
""fullscreenenter"",""1"",""8502""
""fullscreenexit"",""2"",""14641""
""blur"",""2"",""17055""
""focus"",""3"",""20551""
""blur"",""3"",""31717""
""focus"",""3"",""34832""
""blur"",""6"",""45910""
""focus"",""6"",""46862""
""blur"",""6"",""49348""
""focus"",""7"",""52078""
""blur"",""12"",""96445""
""focus"",""12"",""105278""
""blur"",""14"",""116556""
""focus"",""14"",""120662""
""blur"",""15"",""123483""
""focus"",""15"",""127285""
","""event"",""trial"",""time""
""blur"",""0"",""0""
""blur"",""0"",""0""
""blur"",""0"",""0""
""blur"",""0"",""0""
""blur"",""2"",""17055""
""blur"",""3"",""31717""
""blur"",""6"",""45910""
""blur"",""6"",""49348""
""blur"",""12"",""96445""
""blur"",""14"",""116556""
""blur"",""15"",""123483""
","""event"",""trial"",""time""
""focus"",""0"",""0""
""focus"",""0"",""0""
""focus"",""0"",""0""
""focus"",""1"",""8372""
""focus"",""3"",""20551""
""focus"",""3"",""34832""
""focus"",""6"",""46862""
""focus"",""7"",""52078""
""focus"",""12"",""105278""
""focus"",""14"",""120662""
""focus"",""15"",""127285""
","""event"",""trial"",""time""
""fullscreenenter"",""1"",""8502""
","""event"",""trial"",""time""
""fullscreenexit"",""2"",""14641""
",,2139.7,"<p>When you arrive at a new planet, the alien who owns the treasure mine on that planet will greet you!</p><p>The better an alien takes care of their mine the easier it is to dig for gems. Some aliens take better care of their mine than others. So, you won’t get exactly the same amount of gems on each planet.</p><p>What the alien looks like does not tell you anything about how many gems there are on the planet.</p><br><p><img src=""run_exp/static/images/task_images/aliens/instructions_aliens/planet/alien_planet-1.jpg""  height=""600"" width=""auto""></p>",,,,,,,1,,,,,,,,,,,,,,,,,,
html-keyboard-response,17,150909,0.0-7.0-8.0,"""event"",""trial"",""time""
""blur"",""0"",""0""
""focus"",""0"",""0""
""blur"",""0"",""0""
""focus"",""0"",""0""
""blur"",""0"",""0""
""focus"",""0"",""0""
""blur"",""0"",""0""
""focus"",""1"",""8372""
""fullscreenenter"",""1"",""8502""
""fullscreenexit"",""2"",""14641""
""blur"",""2"",""17055""
""focus"",""3"",""20551""
""blur"",""3"",""31717""
""focus"",""3"",""34832""
""blur"",""6"",""45910""
""focus"",""6"",""46862""
""blur"",""6"",""49348""
""focus"",""7"",""52078""
""blur"",""12"",""96445""
""focus"",""12"",""105278""
""blur"",""14"",""116556""
""focus"",""14"",""120662""
""blur"",""15"",""123483""
""focus"",""15"",""127285""
","""event"",""trial"",""time""
""blur"",""0"",""0""
""blur"",""0"",""0""
""blur"",""0"",""0""
""blur"",""0"",""0""
""blur"",""2"",""17055""
""blur"",""3"",""31717""
""blur"",""6"",""45910""
""blur"",""6"",""49348""
""blur"",""12"",""96445""
""blur"",""14"",""116556""
""blur"",""15"",""123483""
","""event"",""trial"",""time""
""focus"",""0"",""0""
""focus"",""0"",""0""
""focus"",""0"",""0""
""focus"",""1"",""8372""
""focus"",""3"",""20551""
""focus"",""3"",""34832""
""focus"",""6"",""46862""
""focus"",""7"",""52078""
""focus"",""12"",""105278""
""focus"",""14"",""120662""
""focus"",""15"",""127285""
","""event"",""trial"",""time""
""fullscreenenter"",""1"",""8502""
","""event"",""trial"",""time""
""fullscreenexit"",""2"",""14641""
",,219.3,"<p>When you arrive at a new planet, the alien who owns the treasure mine on that planet will greet you!</p><p>The better an alien takes care of their mine the easier it is to dig for gems. Some aliens take better care of their mine than others. So, you won’t get exactly the same amount of gems on each planet.</p><p>What the alien looks like does not tell you anything about how many gems there are on the planet.</p><br><p><img src=""run_exp/static/images/task_images/aliens/instructions_aliens/planet/alien_planet-1.jpg""  height=""600"" width=""auto""></p><button class=""jspsych-html-btn-unchosen""><img src=""run_exp/static/images/task_images/planet-01.jpg"" height=""50""></button><button class=""jspsych-html-btn-chosen""><img src=""run_exp/static/images/task_images/planet-02.jpg"" height=""50""></button><p><b>[press the space bar to lock in your answer]<b><br></p>",32,,,,,,,,,,,,,,,,,,,,,,,,
time_out,18,162029,0.0-8.0-0.0,"""event"",""trial"",""time""
""blur"",""0"",""0""
""focus"",""0"",""0""
""blur"",""0"",""0""
""focus"",""0"",""0""
""blur"",""0"",""0""
""focus"",""0"",""0""
""blur"",""0"",""0""
""focus"",""1"",""8372""
""fullscreenenter"",""1"",""8502""
""fullscreenexit"",""2"",""14641""
""blur"",""2"",""17055""
""focus"",""3"",""20551""
""blur"",""3"",""31717""
""focus"",""3"",""34832""
""blur"",""6"",""45910""
""focus"",""6"",""46862""
""blur"",""6"",""49348""
""focus"",""7"",""52078""
""blur"",""12"",""96445""
""focus"",""12"",""105278""
""blur"",""14"",""116556""
""focus"",""14"",""120662""
""blur"",""15"",""123483""
""focus"",""15"",""127285""
","""event"",""trial"",""time""
""blur"",""0"",""0""
""blur"",""0"",""0""
""blur"",""0"",""0""
""blur"",""0"",""0""
""blur"",""2"",""17055""
""blur"",""3"",""31717""
""blur"",""6"",""45910""
""blur"",""6"",""49348""
""blur"",""12"",""96445""
""blur"",""14"",""116556""
""blur"",""15"",""123483""
","""event"",""trial"",""time""
""focus"",""0"",""0""
""focus"",""0"",""0""
""focus"",""0"",""0""
""focus"",""1"",""8372""
""focus"",""3"",""20551""
""focus"",""3"",""34832""
""focus"",""6"",""46862""
""focus"",""7"",""52078""
""focus"",""12"",""105278""
""focus"",""14"",""120662""
""focus"",""15"",""127285""
","""event"",""trial"",""time""
""fullscreenenter"",""1"",""8502""
","""event"",""trial"",""time""
""fullscreenexit"",""2"",""14641""
",,null,run_exp/static/audio/clip_7_timeout.m4a,null,"<p>If you don't make your choice fast enough, you’ll have to wait a few seconds before you can make another one.</p><p>You can’t dig for more gems or travel to new planets. You just have to sit and wait.</p><br><p><img src='run_exp/static/images/task_images/time_out.jpg'  height='600' width='auto'></p>",,,,,,,,,,,,,,,,,,,,,,,
time_out,19,165381,0.0-8.0-1.0,"""event"",""trial"",""time""
""blur"",""0"",""0""
""focus"",""0"",""0""
""blur"",""0"",""0""
""focus"",""0"",""0""
""blur"",""0"",""0""
""focus"",""0"",""0""
""blur"",""0"",""0""
""focus"",""1"",""8372""
""fullscreenenter"",""1"",""8502""
""fullscreenexit"",""2"",""14641""
""blur"",""2"",""17055""
""focus"",""3"",""20551""
""blur"",""3"",""31717""
""focus"",""3"",""34832""
""blur"",""6"",""45910""
""focus"",""6"",""46862""
""blur"",""6"",""49348""
""focus"",""7"",""52078""
""blur"",""12"",""96445""
""focus"",""12"",""105278""
""blur"",""14"",""116556""
""focus"",""14"",""120662""
""blur"",""15"",""123483""
""focus"",""15"",""127285""
","""event"",""trial"",""time""
""blur"",""0"",""0""
""blur"",""0"",""0""
""blur"",""0"",""0""
""blur"",""0"",""0""
""blur"",""2"",""17055""
""blur"",""3"",""31717""
""blur"",""6"",""45910""
""blur"",""6"",""49348""
""blur"",""12"",""96445""
""blur"",""14"",""116556""
""blur"",""15"",""123483""
","""event"",""trial"",""time""
""focus"",""0"",""0""
""focus"",""0"",""0""
""focus"",""0"",""0""
""focus"",""1"",""8372""
""focus"",""3"",""20551""
""focus"",""3"",""34832""
""focus"",""6"",""46862""
""focus"",""7"",""52078""
""focus"",""12"",""105278""
""focus"",""14"",""120662""
""focus"",""15"",""127285""
","""event"",""trial"",""time""
""fullscreenenter"",""1"",""8502""
","""event"",""trial"",""time""
""fullscreenexit"",""2"",""14641""
",,3351.6,"<p>If you don't make your choice fast enough, you’ll have to wait a few seconds before you can make another one.</p><p>You can’t dig for more gems or travel to new planets. You just have to sit and wait.</p><br><p><img src='run_exp/static/images/task_images/time_out.jpg'  height='600' width='auto'></p>",,,,,,,1,,,,,,,,,,,,,,,,,,
html-keyboard-response,20,167486,0.0-8.0-2.0,"""event"",""trial"",""time""
""blur"",""0"",""0""
""focus"",""0"",""0""
""blur"",""0"",""0""
""focus"",""0"",""0""
""blur"",""0"",""0""
""focus"",""0"",""0""
""blur"",""0"",""0""
""focus"",""1"",""8372""
""fullscreenenter"",""1"",""8502""
""fullscreenexit"",""2"",""14641""
""blur"",""2"",""17055""
""focus"",""3"",""20551""
""blur"",""3"",""31717""
""focus"",""3"",""34832""
""blur"",""6"",""45910""
""focus"",""6"",""46862""
""blur"",""6"",""49348""
""focus"",""7"",""52078""
""blur"",""12"",""96445""
""focus"",""12"",""105278""
""blur"",""14"",""116556""
""focus"",""14"",""120662""
""blur"",""15"",""123483""
""focus"",""15"",""127285""
","""event"",""trial"",""time""
""blur"",""0"",""0""
""blur"",""0"",""0""
""blur"",""0"",""0""
""blur"",""0"",""0""
""blur"",""2"",""17055""
""blur"",""3"",""31717""
""blur"",""6"",""45910""
""blur"",""6"",""49348""
""blur"",""12"",""96445""
""blur"",""14"",""116556""
""blur"",""15"",""123483""
","""event"",""trial"",""time""
""focus"",""0"",""0""
""focus"",""0"",""0""
""focus"",""0"",""0""
""focus"",""1"",""8372""
""focus"",""3"",""20551""
""focus"",""3"",""34832""
""focus"",""6"",""46862""
""focus"",""7"",""52078""
""focus"",""12"",""105278""
""focus"",""14"",""120662""
""focus"",""15"",""127285""
","""event"",""trial"",""time""
""fullscreenenter"",""1"",""8502""
","""event"",""trial"",""time""
""fullscreenexit"",""2"",""14641""
",,2103.5,"<p>If you don't make your choice fast enough, you’ll have to wait a few seconds before you can make another one.</p><p>You can’t dig for more gems or travel to new planets. You just have to sit and wait.</p><br><p><img src='run_exp/static/images/task_images/time_out.jpg'  height='600' width='auto'></p><button class=""jspsych-html-btn-unchosen""><img src=""run_exp/static/images/task_images/planet-01.jpg"" height=""50""></button><button class=""jspsych-html-btn-chosen""><img src=""run_exp/static/images/task_images/planet-02.jpg"" height=""50""></button><p><b>[press the space bar to lock in your answer]<b><br></p>",32,,,,,,,,,,,,,,,,,,,,,,,,
instruc_break,21,183188,0.0-9.0-0.0,"""event"",""trial"",""time""
""blur"",""0"",""0""
""focus"",""0"",""0""
""blur"",""0"",""0""
""focus"",""0"",""0""
""blur"",""0"",""0""
""focus"",""0"",""0""
""blur"",""0"",""0""
""focus"",""1"",""8372""
""fullscreenenter"",""1"",""8502""
""fullscreenexit"",""2"",""14641""
""blur"",""2"",""17055""
""focus"",""3"",""20551""
""blur"",""3"",""31717""
""focus"",""3"",""34832""
""blur"",""6"",""45910""
""focus"",""6"",""46862""
""blur"",""6"",""49348""
""focus"",""7"",""52078""
""blur"",""12"",""96445""
""focus"",""12"",""105278""
""blur"",""14"",""116556""
""focus"",""14"",""120662""
""blur"",""15"",""123483""
""focus"",""15"",""127285""
","""event"",""trial"",""time""
""blur"",""0"",""0""
""blur"",""0"",""0""
""blur"",""0"",""0""
""blur"",""0"",""0""
""blur"",""2"",""17055""
""blur"",""3"",""31717""
""blur"",""6"",""45910""
""blur"",""6"",""49348""
""blur"",""12"",""96445""
""blur"",""14"",""116556""
""blur"",""15"",""123483""
","""event"",""trial"",""time""
""focus"",""0"",""0""
""focus"",""0"",""0""
""focus"",""0"",""0""
""focus"",""1"",""8372""
""focus"",""3"",""20551""
""focus"",""3"",""34832""
""focus"",""6"",""46862""
""focus"",""7"",""52078""
""focus"",""12"",""105278""
""focus"",""14"",""120662""
""focus"",""15"",""127285""
","""event"",""trial"",""time""
""fullscreenenter"",""1"",""8502""
","""event"",""trial"",""time""
""fullscreenexit"",""2"",""14641""
",,null,run_exp/static/audio/clip_8_break.m4a,null,"<p> After digging and traveling for a while, you’ll be able to take a break at home base. </p><p>The game will last 20 minutes no matter what.</p><p>You will visit home base every 5 minutes, so, you will visit home base three times during the game.</p><br><p><img src='run_exp/static/images/task_images/home_base.jpg' height='600' width='auto'></p>",,,,,,,,,,,,,,,,,,,,,,,
instruc_break,22,185397,0.0-9.0-1.0,"""event"",""trial"",""time""
""blur"",""0"",""0""
""focus"",""0"",""0""
""blur"",""0"",""0""
""focus"",""0"",""0""
""blur"",""0"",""0""
""focus"",""0"",""0""
""blur"",""0"",""0""
""focus"",""1"",""8372""
""fullscreenenter"",""1"",""8502""
""fullscreenexit"",""2"",""14641""
""blur"",""2"",""17055""
""focus"",""3"",""20551""
""blur"",""3"",""31717""
""focus"",""3"",""34832""
""blur"",""6"",""45910""
""focus"",""6"",""46862""
""blur"",""6"",""49348""
""focus"",""7"",""52078""
""blur"",""12"",""96445""
""focus"",""12"",""105278""
""blur"",""14"",""116556""
""focus"",""14"",""120662""
""blur"",""15"",""123483""
""focus"",""15"",""127285""
","""event"",""trial"",""time""
""blur"",""0"",""0""
""blur"",""0"",""0""
""blur"",""0"",""0""
""blur"",""0"",""0""
""blur"",""2"",""17055""
""blur"",""3"",""31717""
""blur"",""6"",""45910""
""blur"",""6"",""49348""
""blur"",""12"",""96445""
""blur"",""14"",""116556""
""blur"",""15"",""123483""
","""event"",""trial"",""time""
""focus"",""0"",""0""
""focus"",""0"",""0""
""focus"",""0"",""0""
""focus"",""1"",""8372""
""focus"",""3"",""20551""
""focus"",""3"",""34832""
""focus"",""6"",""46862""
""focus"",""7"",""52078""
""focus"",""12"",""105278""
""focus"",""14"",""120662""
""focus"",""15"",""127285""
","""event"",""trial"",""time""
""fullscreenenter"",""1"",""8502""
","""event"",""trial"",""time""
""fullscreenexit"",""2"",""14641""
",,2207.5,"<p> After digging and traveling for a while, you’ll be able to take a break at home base. </p><p>The game will last 20 minutes no matter what.</p><p>You will visit home base every 5 minutes, so, you will visit home base three times during the game.</p><br><p><img src='run_exp/static/images/task_images/home_base.jpg' height='600' width='auto'></p>",,,,,,,1,,,,,,,,,,,,,,,,,,
html-keyboard-response,23,186029,0.0-9.0-2.0,"""event"",""trial"",""time""
""blur"",""0"",""0""
""focus"",""0"",""0""
""blur"",""0"",""0""
""focus"",""0"",""0""
""blur"",""0"",""0""
""focus"",""0"",""0""
""blur"",""0"",""0""
""focus"",""1"",""8372""
""fullscreenenter"",""1"",""8502""
""fullscreenexit"",""2"",""14641""
""blur"",""2"",""17055""
""focus"",""3"",""20551""
""blur"",""3"",""31717""
""focus"",""3"",""34832""
""blur"",""6"",""45910""
""focus"",""6"",""46862""
""blur"",""6"",""49348""
""focus"",""7"",""52078""
""blur"",""12"",""96445""
""focus"",""12"",""105278""
""blur"",""14"",""116556""
""focus"",""14"",""120662""
""blur"",""15"",""123483""
""focus"",""15"",""127285""
","""event"",""trial"",""time""
""blur"",""0"",""0""
""blur"",""0"",""0""
""blur"",""0"",""0""
""blur"",""0"",""0""
""blur"",""2"",""17055""
""blur"",""3"",""31717""
""blur"",""6"",""45910""
""blur"",""6"",""49348""
""blur"",""12"",""96445""
""blur"",""14"",""116556""
""blur"",""15"",""123483""
","""event"",""trial"",""time""
""focus"",""0"",""0""
""focus"",""0"",""0""
""focus"",""0"",""0""
""focus"",""1"",""8372""
""focus"",""3"",""20551""
""focus"",""3"",""34832""
""focus"",""6"",""46862""
""focus"",""7"",""52078""
""focus"",""12"",""105278""
""focus"",""14"",""120662""
""focus"",""15"",""127285""
","""event"",""trial"",""time""
""fullscreenenter"",""1"",""8502""
","""event"",""trial"",""time""
""fullscreenexit"",""2"",""14641""
",,631.7,"<p> After digging and traveling for a while, you’ll be able to take a break at home base. </p><p>The game will last 20 minutes no matter what.</p><p>You will visit home base every 5 minutes, so, you will visit home base three times during the game.</p><br><p><img src='run_exp/static/images/task_images/home_base.jpg' height='600' width='auto'></p><button class=""jspsych-html-btn-unchosen""><img src=""run_exp/static/images/task_images/planet-01.jpg"" height=""50""></button><button class=""jspsych-html-btn-chosen""><img src=""run_exp/static/images/task_images/planet-02.jpg"" height=""50""></button><p><b>[press the space bar to lock in your answer]<b><br></p>",32,,,,,,,,,,,,,,,,,,,,,,,,
instruc_prac_game,24,196188,0.0-10.0-0.0,"""event"",""trial"",""time""
""blur"",""0"",""0""
""focus"",""0"",""0""
""blur"",""0"",""0""
""focus"",""0"",""0""
""blur"",""0"",""0""
""focus"",""0"",""0""
""blur"",""0"",""0""
""focus"",""1"",""8372""
""fullscreenenter"",""1"",""8502""
""fullscreenexit"",""2"",""14641""
""blur"",""2"",""17055""
""focus"",""3"",""20551""
""blur"",""3"",""31717""
""focus"",""3"",""34832""
""blur"",""6"",""45910""
""focus"",""6"",""46862""
""blur"",""6"",""49348""
""focus"",""7"",""52078""
""blur"",""12"",""96445""
""focus"",""12"",""105278""
""blur"",""14"",""116556""
""focus"",""14"",""120662""
""blur"",""15"",""123483""
""focus"",""15"",""127285""
","""event"",""trial"",""time""
""blur"",""0"",""0""
""blur"",""0"",""0""
""blur"",""0"",""0""
""blur"",""0"",""0""
""blur"",""2"",""17055""
""blur"",""3"",""31717""
""blur"",""6"",""45910""
""blur"",""6"",""49348""
""blur"",""12"",""96445""
""blur"",""14"",""116556""
""blur"",""15"",""123483""
","""event"",""trial"",""time""
""focus"",""0"",""0""
""focus"",""0"",""0""
""focus"",""0"",""0""
""focus"",""1"",""8372""
""focus"",""3"",""20551""
""focus"",""3"",""34832""
""focus"",""6"",""46862""
""focus"",""7"",""52078""
""focus"",""12"",""105278""
""focus"",""14"",""120662""
""focus"",""15"",""127285""
","""event"",""trial"",""time""
""fullscreenenter"",""1"",""8502""
","""event"",""trial"",""time""
""fullscreenexit"",""2"",""14641""
",,null,run_exp/static/audio/clip_9_practice.m4a,null,"<p> Are you ready to play a practice game? </p> <p>In this practice game, you'll be digging up barrels of gems. But, in the real game, you'll be digging up the gems themselves. </p>",,,,,,,,,,,,,,,,,,,,,,,
html-button-response,25,198413,0.0-10.0-1.0,"""event"",""trial"",""time""
""blur"",""0"",""0""
""focus"",""0"",""0""
""blur"",""0"",""0""
""focus"",""0"",""0""
""blur"",""0"",""0""
""focus"",""0"",""0""
""blur"",""0"",""0""
""focus"",""1"",""8372""
""fullscreenenter"",""1"",""8502""
""fullscreenexit"",""2"",""14641""
""blur"",""2"",""17055""
""focus"",""3"",""20551""
""blur"",""3"",""31717""
""focus"",""3"",""34832""
""blur"",""6"",""45910""
""focus"",""6"",""46862""
""blur"",""6"",""49348""
""focus"",""7"",""52078""
""blur"",""12"",""96445""
""focus"",""12"",""105278""
""blur"",""14"",""116556""
""focus"",""14"",""120662""
""blur"",""15"",""123483""
""focus"",""15"",""127285""
","""event"",""trial"",""time""
""blur"",""0"",""0""
""blur"",""0"",""0""
""blur"",""0"",""0""
""blur"",""0"",""0""
""blur"",""2"",""17055""
""blur"",""3"",""31717""
""blur"",""6"",""45910""
""blur"",""6"",""49348""
""blur"",""12"",""96445""
""blur"",""14"",""116556""
""blur"",""15"",""123483""
","""event"",""trial"",""time""
""focus"",""0"",""0""
""focus"",""0"",""0""
""focus"",""0"",""0""
""focus"",""1"",""8372""
""focus"",""3"",""20551""
""focus"",""3"",""34832""
""focus"",""6"",""46862""
""focus"",""7"",""52078""
""focus"",""12"",""105278""
""focus"",""14"",""120662""
""focus"",""15"",""127285""
","""event"",""trial"",""time""
""fullscreenenter"",""1"",""8502""
","""event"",""trial"",""time""
""fullscreenexit"",""2"",""14641""
",,2224.2,"<p> Are you ready to play a practice game? </p> <p>In this practice game, you'll be digging up barrels of gems. But, in the real game, you'll be digging up the gems themselves. </p>",,,,,,,0,,,,,,,,,,,,,,,,,,
alien_welcome_prac,26,203417,0.0-11.0-0.0,"""event"",""trial"",""time""
""blur"",""0"",""0""
""focus"",""0"",""0""
""blur"",""0"",""0""
""focus"",""0"",""0""
""blur"",""0"",""0""
""focus"",""0"",""0""
""blur"",""0"",""0""
""focus"",""1"",""8372""
""fullscreenenter"",""1"",""8502""
""fullscreenexit"",""2"",""14641""
""blur"",""2"",""17055""
""focus"",""3"",""20551""
""blur"",""3"",""31717""
""focus"",""3"",""34832""
""blur"",""6"",""45910""
""focus"",""6"",""46862""
""blur"",""6"",""49348""
""focus"",""7"",""52078""
""blur"",""12"",""96445""
""focus"",""12"",""105278""
""blur"",""14"",""116556""
""focus"",""14"",""120662""
""blur"",""15"",""123483""
""focus"",""15"",""127285""
","""event"",""trial"",""time""
""blur"",""0"",""0""
""blur"",""0"",""0""
""blur"",""0"",""0""
""blur"",""0"",""0""
""blur"",""2"",""17055""
""blur"",""3"",""31717""
""blur"",""6"",""45910""
""blur"",""6"",""49348""
""blur"",""12"",""96445""
""blur"",""14"",""116556""
""blur"",""15"",""123483""
","""event"",""trial"",""time""
""focus"",""0"",""0""
""focus"",""0"",""0""
""focus"",""0"",""0""
""focus"",""1"",""8372""
""focus"",""3"",""20551""
""focus"",""3"",""34832""
""focus"",""6"",""46862""
""focus"",""7"",""52078""
""focus"",""12"",""105278""
""focus"",""14"",""120662""
""focus"",""15"",""127285""
","""event"",""trial"",""time""
""fullscreenenter"",""1"",""8502""
","""event"",""trial"",""time""
""fullscreenexit"",""2"",""14641""
",,null,run_exp/static/images/task_images/aliens/practice_aliens/planet/alien_planet-5.jpg,null,,,,,,,,,,,,,,,,,,,,,,,,
land_prac,27,203937,0.0-11.0-1.0,"""event"",""trial"",""time""
""blur"",""0"",""0""
""focus"",""0"",""0""
""blur"",""0"",""0""
""focus"",""0"",""0""
""blur"",""0"",""0""
""focus"",""0"",""0""
""blur"",""0"",""0""
""focus"",""1"",""8372""
""fullscreenenter"",""1"",""8502""
""fullscreenexit"",""2"",""14641""
""blur"",""2"",""17055""
""focus"",""3"",""20551""
""blur"",""3"",""31717""
""focus"",""3"",""34832""
""blur"",""6"",""45910""
""focus"",""6"",""46862""
""blur"",""6"",""49348""
""focus"",""7"",""52078""
""blur"",""12"",""96445""
""focus"",""12"",""105278""
""blur"",""14"",""116556""
""focus"",""14"",""120662""
""blur"",""15"",""123483""
""focus"",""15"",""127285""
","""event"",""trial"",""time""
""blur"",""0"",""0""
""blur"",""0"",""0""
""blur"",""0"",""0""
""blur"",""0"",""0""
""blur"",""2"",""17055""
""blur"",""3"",""31717""
""blur"",""6"",""45910""
""blur"",""6"",""49348""
""blur"",""12"",""96445""
""blur"",""14"",""116556""
""blur"",""15"",""123483""
","""event"",""trial"",""time""
""focus"",""0"",""0""
""focus"",""0"",""0""
""focus"",""0"",""0""
""focus"",""1"",""8372""
""focus"",""3"",""20551""
""focus"",""3"",""34832""
""focus"",""6"",""46862""
""focus"",""7"",""52078""
""focus"",""12"",""105278""
""focus"",""14"",""120662""
""focus"",""15"",""127285""
","""event"",""trial"",""time""
""fullscreenenter"",""1"",""8502""
","""event"",""trial"",""time""
""fullscreenexit"",""2"",""14641""
",,null,run_exp/static/images/task_images/land.jpg,null,,,,,,,105,,,0,,,,,,,,,,,,,,
dig_prac,28,205940,0.0-11.0-2.0,"""event"",""trial"",""time""
""blur"",""0"",""0""
""focus"",""0"",""0""
""blur"",""0"",""0""
""focus"",""0"",""0""
""blur"",""0"",""0""
""focus"",""0"",""0""
""blur"",""0"",""0""
""focus"",""1"",""8372""
""fullscreenenter"",""1"",""8502""
""fullscreenexit"",""2"",""14641""
""blur"",""2"",""17055""
""focus"",""3"",""20551""
""blur"",""3"",""31717""
""focus"",""3"",""34832""
""blur"",""6"",""45910""
""focus"",""6"",""46862""
""blur"",""6"",""49348""
""focus"",""7"",""52078""
""blur"",""12"",""96445""
""focus"",""12"",""105278""
""blur"",""14"",""116556""
""focus"",""14"",""120662""
""blur"",""15"",""123483""
""focus"",""15"",""127285""
","""event"",""trial"",""time""
""blur"",""0"",""0""
""blur"",""0"",""0""
""blur"",""0"",""0""
""blur"",""0"",""0""
""blur"",""2"",""17055""
""blur"",""3"",""31717""
""blur"",""6"",""45910""
""blur"",""6"",""49348""
""blur"",""12"",""96445""
""blur"",""14"",""116556""
""blur"",""15"",""123483""
","""event"",""trial"",""time""
""focus"",""0"",""0""
""focus"",""0"",""0""
""focus"",""0"",""0""
""focus"",""1"",""8372""
""focus"",""3"",""20551""
""focus"",""3"",""34832""
""focus"",""6"",""46862""
""focus"",""7"",""52078""
""focus"",""12"",""105278""
""focus"",""14"",""120662""
""focus"",""15"",""127285""
","""event"",""trial"",""time""
""fullscreenenter"",""1"",""8502""
","""event"",""trial"",""time""
""fullscreenexit"",""2"",""14641""
",,,,,,,,,,,,"[{""stimulus"":""run_exp/static/images/task_images/dig.jpg"",""time"":0.19999998807907104},{""stimulus"":""run_exp/static/images/task_images/land.jpg"",""time"":678.6999999880791},{""stimulus"":""run_exp/static/images/task_images/dig.jpg"",""time"":1338.2999999970198}]",[],,,,,,,,,,,,,,,
harvest_prac,29,206947,0.0-11.0-3.0,"""event"",""trial"",""time""
""blur"",""0"",""0""
""focus"",""0"",""0""
""blur"",""0"",""0""
""focus"",""0"",""0""
""blur"",""0"",""0""
""focus"",""0"",""0""
""blur"",""0"",""0""
""focus"",""1"",""8372""
""fullscreenenter"",""1"",""8502""
""fullscreenexit"",""2"",""14641""
""blur"",""2"",""17055""
""focus"",""3"",""20551""
""blur"",""3"",""31717""
""focus"",""3"",""34832""
""blur"",""6"",""45910""
""focus"",""6"",""46862""
""blur"",""6"",""49348""
""focus"",""7"",""52078""
""blur"",""12"",""96445""
""focus"",""12"",""105278""
""blur"",""14"",""116556""
""focus"",""14"",""120662""
""blur"",""15"",""123483""
""focus"",""15"",""127285""
","""event"",""trial"",""time""
""blur"",""0"",""0""
""blur"",""0"",""0""
""blur"",""0"",""0""
""blur"",""0"",""0""
""blur"",""2"",""17055""
""blur"",""3"",""31717""
""blur"",""6"",""45910""
""blur"",""6"",""49348""
""blur"",""12"",""96445""
""blur"",""14"",""116556""
""blur"",""15"",""123483""
","""event"",""trial"",""time""
""focus"",""0"",""0""
""focus"",""0"",""0""
""focus"",""0"",""0""
""focus"",""1"",""8372""
""focus"",""3"",""20551""
""focus"",""3"",""34832""
""focus"",""6"",""46862""
""focus"",""7"",""52078""
""focus"",""12"",""105278""
""focus"",""14"",""120662""
""focus"",""15"",""127285""
","""event"",""trial"",""time""
""fullscreenenter"",""1"",""8502""
","""event"",""trial"",""time""
""fullscreenexit"",""2"",""14641""
",,null,run_exp/static/images/task_images/barrel_text.jpg,null,,,,,,,,,,,,,,,,,,,,,,,,
decision_prac,30,209838,0.0-11.0-4.0,"""event"",""trial"",""time""
""blur"",""0"",""0""
""focus"",""0"",""0""
""blur"",""0"",""0""
""focus"",""0"",""0""
""blur"",""0"",""0""
""focus"",""0"",""0""
""blur"",""0"",""0""
""focus"",""1"",""8372""
""fullscreenenter"",""1"",""8502""
""fullscreenexit"",""2"",""14641""
""blur"",""2"",""17055""
""focus"",""3"",""20551""
""blur"",""3"",""31717""
""focus"",""3"",""34832""
""blur"",""6"",""45910""
""focus"",""6"",""46862""
""blur"",""6"",""49348""
""focus"",""7"",""52078""
""blur"",""12"",""96445""
""focus"",""12"",""105278""
""blur"",""14"",""116556""
""focus"",""14"",""120662""
""blur"",""15"",""123483""
""focus"",""15"",""127285""
","""event"",""trial"",""time""
""blur"",""0"",""0""
""blur"",""0"",""0""
""blur"",""0"",""0""
""blur"",""0"",""0""
""blur"",""2"",""17055""
""blur"",""3"",""31717""
""blur"",""6"",""45910""
""blur"",""6"",""49348""
""blur"",""12"",""96445""
""blur"",""14"",""116556""
""blur"",""15"",""123483""
","""event"",""trial"",""time""
""focus"",""0"",""0""
""focus"",""0"",""0""
""focus"",""0"",""0""
""focus"",""1"",""8372""
""focus"",""3"",""20551""
""focus"",""3"",""34832""
""focus"",""6"",""46862""
""focus"",""7"",""52078""
""focus"",""12"",""105278""
""focus"",""14"",""120662""
""focus"",""15"",""127285""
","""event"",""trial"",""time""
""fullscreenenter"",""1"",""8502""
","""event"",""trial"",""time""
""fullscreenexit"",""2"",""14641""
",,2889.7,run_exp/static/images/task_images/land.jpg,65,,,,,,,,,,,1,,,,,,,,,,,,,
dig_prac,31,211847,0.0-12.0-0.0,"""event"",""trial"",""time""
""blur"",""0"",""0""
""focus"",""0"",""0""
""blur"",""0"",""0""
""focus"",""0"",""0""
""blur"",""0"",""0""
""focus"",""0"",""0""
""blur"",""0"",""0""
""focus"",""1"",""8372""
""fullscreenenter"",""1"",""8502""
""fullscreenexit"",""2"",""14641""
""blur"",""2"",""17055""
""focus"",""3"",""20551""
""blur"",""3"",""31717""
""focus"",""3"",""34832""
""blur"",""6"",""45910""
""focus"",""6"",""46862""
""blur"",""6"",""49348""
""focus"",""7"",""52078""
""blur"",""12"",""96445""
""focus"",""12"",""105278""
""blur"",""14"",""116556""
""focus"",""14"",""120662""
""blur"",""15"",""123483""
""focus"",""15"",""127285""
","""event"",""trial"",""time""
""blur"",""0"",""0""
""blur"",""0"",""0""
""blur"",""0"",""0""
""blur"",""0"",""0""
""blur"",""2"",""17055""
""blur"",""3"",""31717""
""blur"",""6"",""45910""
""blur"",""6"",""49348""
""blur"",""12"",""96445""
""blur"",""14"",""116556""
""blur"",""15"",""123483""
","""event"",""trial"",""time""
""focus"",""0"",""0""
""focus"",""0"",""0""
""focus"",""0"",""0""
""focus"",""1"",""8372""
""focus"",""3"",""20551""
""focus"",""3"",""34832""
""focus"",""6"",""46862""
""focus"",""7"",""52078""
""focus"",""12"",""105278""
""focus"",""14"",""120662""
""focus"",""15"",""127285""
","""event"",""trial"",""time""
""fullscreenenter"",""1"",""8502""
","""event"",""trial"",""time""
""fullscreenexit"",""2"",""14641""
",,,,,,,,,,,,"[{""stimulus"":""run_exp/static/images/task_images/dig.jpg"",""time"":0},{""stimulus"":""run_exp/static/images/task_images/land.jpg"",""time"":668.5999999940395},{""stimulus"":""run_exp/static/images/task_images/dig.jpg"",""time"":1342.5}]",[],,,,,,,,,,,,,,,
harvest_prac,32,212848,0.0-12.0-1.0,"""event"",""trial"",""time""
""blur"",""0"",""0""
""focus"",""0"",""0""
""blur"",""0"",""0""
""focus"",""0"",""0""
""blur"",""0"",""0""
""focus"",""0"",""0""
""blur"",""0"",""0""
""focus"",""1"",""8372""
""fullscreenenter"",""1"",""8502""
""fullscreenexit"",""2"",""14641""
""blur"",""2"",""17055""
""focus"",""3"",""20551""
""blur"",""3"",""31717""
""focus"",""3"",""34832""
""blur"",""6"",""45910""
""focus"",""6"",""46862""
""blur"",""6"",""49348""
""focus"",""7"",""52078""
""blur"",""12"",""96445""
""focus"",""12"",""105278""
""blur"",""14"",""116556""
""focus"",""14"",""120662""
""blur"",""15"",""123483""
""focus"",""15"",""127285""
","""event"",""trial"",""time""
""blur"",""0"",""0""
""blur"",""0"",""0""
""blur"",""0"",""0""
""blur"",""0"",""0""
""blur"",""2"",""17055""
""blur"",""3"",""31717""
""blur"",""6"",""45910""
""blur"",""6"",""49348""
""blur"",""12"",""96445""
""blur"",""14"",""116556""
""blur"",""15"",""123483""
","""event"",""trial"",""time""
""focus"",""0"",""0""
""focus"",""0"",""0""
""focus"",""0"",""0""
""focus"",""1"",""8372""
""focus"",""3"",""20551""
""focus"",""3"",""34832""
""focus"",""6"",""46862""
""focus"",""7"",""52078""
""focus"",""12"",""105278""
""focus"",""14"",""120662""
""focus"",""15"",""127285""
","""event"",""trial"",""time""
""fullscreenenter"",""1"",""8502""
","""event"",""trial"",""time""
""fullscreenexit"",""2"",""14641""
",,null,run_exp/static/images/task_images/barrel_text.jpg,null,,,,,,,,,,,,,,,,,,,,,,,,
decision_prac,33,214885,0.0-12.0-2.0,"""event"",""trial"",""time""
""blur"",""0"",""0""
""focus"",""0"",""0""
""blur"",""0"",""0""
""focus"",""0"",""0""
""blur"",""0"",""0""
""focus"",""0"",""0""
""blur"",""0"",""0""
""focus"",""1"",""8372""
""fullscreenenter"",""1"",""8502""
""fullscreenexit"",""2"",""14641""
""blur"",""2"",""17055""
""focus"",""3"",""20551""
""blur"",""3"",""31717""
""focus"",""3"",""34832""
""blur"",""6"",""45910""
""focus"",""6"",""46862""
""blur"",""6"",""49348""
""focus"",""7"",""52078""
""blur"",""12"",""96445""
""focus"",""12"",""105278""
""blur"",""14"",""116556""
""focus"",""14"",""120662""
""blur"",""15"",""123483""
""focus"",""15"",""127285""
","""event"",""trial"",""time""
""blur"",""0"",""0""
""blur"",""0"",""0""
""blur"",""0"",""0""
""blur"",""0"",""0""
""blur"",""2"",""17055""
""blur"",""3"",""31717""
""blur"",""6"",""45910""
""blur"",""6"",""49348""
""blur"",""12"",""96445""
""blur"",""14"",""116556""
""blur"",""15"",""123483""
","""event"",""trial"",""time""
""focus"",""0"",""0""
""focus"",""0"",""0""
""focus"",""0"",""0""
""focus"",""1"",""8372""
""focus"",""3"",""20551""
""focus"",""3"",""34832""
""focus"",""6"",""46862""
""focus"",""7"",""52078""
""focus"",""12"",""105278""
""focus"",""14"",""120662""
""focus"",""15"",""127285""
","""event"",""trial"",""time""
""fullscreenenter"",""1"",""8502""
","""event"",""trial"",""time""
""fullscreenexit"",""2"",""14641""
",,2035.8,run_exp/static/images/task_images/land.jpg,65,,,,,,,,,,,2,,,,,,,,,,,,,
dig_prac,34,216897,0.0-13.0-0.0,"""event"",""trial"",""time""
""blur"",""0"",""0""
""focus"",""0"",""0""
""blur"",""0"",""0""
""focus"",""0"",""0""
""blur"",""0"",""0""
""focus"",""0"",""0""
""blur"",""0"",""0""
""focus"",""1"",""8372""
""fullscreenenter"",""1"",""8502""
""fullscreenexit"",""2"",""14641""
""blur"",""2"",""17055""
""focus"",""3"",""20551""
""blur"",""3"",""31717""
""focus"",""3"",""34832""
""blur"",""6"",""45910""
""focus"",""6"",""46862""
""blur"",""6"",""49348""
""focus"",""7"",""52078""
""blur"",""12"",""96445""
""focus"",""12"",""105278""
""blur"",""14"",""116556""
""focus"",""14"",""120662""
""blur"",""15"",""123483""
""focus"",""15"",""127285""
","""event"",""trial"",""time""
""blur"",""0"",""0""
""blur"",""0"",""0""
""blur"",""0"",""0""
""blur"",""0"",""0""
""blur"",""2"",""17055""
""blur"",""3"",""31717""
""blur"",""6"",""45910""
""blur"",""6"",""49348""
""blur"",""12"",""96445""
""blur"",""14"",""116556""
""blur"",""15"",""123483""
","""event"",""trial"",""time""
""focus"",""0"",""0""
""focus"",""0"",""0""
""focus"",""0"",""0""
""focus"",""1"",""8372""
""focus"",""3"",""20551""
""focus"",""3"",""34832""
""focus"",""6"",""46862""
""focus"",""7"",""52078""
""focus"",""12"",""105278""
""focus"",""14"",""120662""
""focus"",""15"",""127285""
","""event"",""trial"",""time""
""fullscreenenter"",""1"",""8502""
","""event"",""trial"",""time""
""fullscreenexit"",""2"",""14641""
",,,,,,,,,,,,"[{""stimulus"":""run_exp/static/images/task_images/dig.jpg"",""time"":0.09999999403953552},{""stimulus"":""run_exp/static/images/task_images/land.jpg"",""time"":683.0999999940395},{""stimulus"":""run_exp/static/images/task_images/dig.jpg"",""time"":1334.7000000029802}]",[],,,,,,,,,,,,,,,
harvest_prac,35,217906,0.0-13.0-1.0,"""event"",""trial"",""time""
""blur"",""0"",""0""
""focus"",""0"",""0""
""blur"",""0"",""0""
""focus"",""0"",""0""
""blur"",""0"",""0""
""focus"",""0"",""0""
""blur"",""0"",""0""
""focus"",""1"",""8372""
""fullscreenenter"",""1"",""8502""
""fullscreenexit"",""2"",""14641""
""blur"",""2"",""17055""
""focus"",""3"",""20551""
""blur"",""3"",""31717""
""focus"",""3"",""34832""
""blur"",""6"",""45910""
""focus"",""6"",""46862""
""blur"",""6"",""49348""
""focus"",""7"",""52078""
""blur"",""12"",""96445""
""focus"",""12"",""105278""
""blur"",""14"",""116556""
""focus"",""14"",""120662""
""blur"",""15"",""123483""
""focus"",""15"",""127285""
","""event"",""trial"",""time""
""blur"",""0"",""0""
""blur"",""0"",""0""
""blur"",""0"",""0""
""blur"",""0"",""0""
""blur"",""2"",""17055""
""blur"",""3"",""31717""
""blur"",""6"",""45910""
""blur"",""6"",""49348""
""blur"",""12"",""96445""
""blur"",""14"",""116556""
""blur"",""15"",""123483""
","""event"",""trial"",""time""
""focus"",""0"",""0""
""focus"",""0"",""0""
""focus"",""0"",""0""
""focus"",""1"",""8372""
""focus"",""3"",""20551""
""focus"",""3"",""34832""
""focus"",""6"",""46862""
""focus"",""7"",""52078""
""focus"",""12"",""105278""
""focus"",""14"",""120662""
""focus"",""15"",""127285""
","""event"",""trial"",""time""
""fullscreenenter"",""1"",""8502""
","""event"",""trial"",""time""
""fullscreenexit"",""2"",""14641""
",,null,run_exp/static/images/task_images/barrel_text.jpg,null,,,,,,,,,,,,,,,,,,,,,,,,
decision_prac,36,220917,0.0-13.0-2.0,"""event"",""trial"",""time""
""blur"",""0"",""0""
""focus"",""0"",""0""
""blur"",""0"",""0""
""focus"",""0"",""0""
""blur"",""0"",""0""
""focus"",""0"",""0""
""blur"",""0"",""0""
""focus"",""1"",""8372""
""fullscreenenter"",""1"",""8502""
""fullscreenexit"",""2"",""14641""
""blur"",""2"",""17055""
""focus"",""3"",""20551""
""blur"",""3"",""31717""
""focus"",""3"",""34832""
""blur"",""6"",""45910""
""focus"",""6"",""46862""
""blur"",""6"",""49348""
""focus"",""7"",""52078""
""blur"",""12"",""96445""
""focus"",""12"",""105278""
""blur"",""14"",""116556""
""focus"",""14"",""120662""
""blur"",""15"",""123483""
""focus"",""15"",""127285""
","""event"",""trial"",""time""
""blur"",""0"",""0""
""blur"",""0"",""0""
""blur"",""0"",""0""
""blur"",""0"",""0""
""blur"",""2"",""17055""
""blur"",""3"",""31717""
""blur"",""6"",""45910""
""blur"",""6"",""49348""
""blur"",""12"",""96445""
""blur"",""14"",""116556""
""blur"",""15"",""123483""
","""event"",""trial"",""time""
""focus"",""0"",""0""
""focus"",""0"",""0""
""focus"",""0"",""0""
""focus"",""1"",""8372""
""focus"",""3"",""20551""
""focus"",""3"",""34832""
""focus"",""6"",""46862""
""focus"",""7"",""52078""
""focus"",""12"",""105278""
""focus"",""14"",""120662""
""focus"",""15"",""127285""
","""event"",""trial"",""time""
""fullscreenenter"",""1"",""8502""
","""event"",""trial"",""time""
""fullscreenexit"",""2"",""14641""
",,null,run_exp/static/images/task_images/land.jpg,null,,,,,,,,,,,3,,,,,,,,,,,,,
time_out,37,222932,0.0-14.0-0.0,"""event"",""trial"",""time""
""blur"",""0"",""0""
""focus"",""0"",""0""
""blur"",""0"",""0""
""focus"",""0"",""0""
""blur"",""0"",""0""
""focus"",""0"",""0""
""blur"",""0"",""0""
""focus"",""1"",""8372""
""fullscreenenter"",""1"",""8502""
""fullscreenexit"",""2"",""14641""
""blur"",""2"",""17055""
""focus"",""3"",""20551""
""blur"",""3"",""31717""
""focus"",""3"",""34832""
""blur"",""6"",""45910""
""focus"",""6"",""46862""
""blur"",""6"",""49348""
""focus"",""7"",""52078""
""blur"",""12"",""96445""
""focus"",""12"",""105278""
""blur"",""14"",""116556""
""focus"",""14"",""120662""
""blur"",""15"",""123483""
""focus"",""15"",""127285""
","""event"",""trial"",""time""
""blur"",""0"",""0""
""blur"",""0"",""0""
""blur"",""0"",""0""
""blur"",""0"",""0""
""blur"",""2"",""17055""
""blur"",""3"",""31717""
""blur"",""6"",""45910""
""blur"",""6"",""49348""
""blur"",""12"",""96445""
""blur"",""14"",""116556""
""blur"",""15"",""123483""
","""event"",""trial"",""time""
""focus"",""0"",""0""
""focus"",""0"",""0""
""focus"",""0"",""0""
""focus"",""1"",""8372""
""focus"",""3"",""20551""
""focus"",""3"",""34832""
""focus"",""6"",""46862""
""focus"",""7"",""52078""
""focus"",""12"",""105278""
""focus"",""14"",""120662""
""focus"",""15"",""127285""
","""event"",""trial"",""time""
""fullscreenenter"",""1"",""8502""
","""event"",""trial"",""time""
""fullscreenexit"",""2"",""14641""
",,null,run_exp/static/images/task_images/time_out.jpg,null,,,,,,,,,,,,,,,,,,,,,,,,
decision_prac,38,225149,0.0-14.0-1.0,"""event"",""trial"",""time""
""blur"",""0"",""0""
""focus"",""0"",""0""
""blur"",""0"",""0""
""focus"",""0"",""0""
""blur"",""0"",""0""
""focus"",""0"",""0""
""blur"",""0"",""0""
""focus"",""1"",""8372""
""fullscreenenter"",""1"",""8502""
""fullscreenexit"",""2"",""14641""
""blur"",""2"",""17055""
""focus"",""3"",""20551""
""blur"",""3"",""31717""
""focus"",""3"",""34832""
""blur"",""6"",""45910""
""focus"",""6"",""46862""
""blur"",""6"",""49348""
""focus"",""7"",""52078""
""blur"",""12"",""96445""
""focus"",""12"",""105278""
""blur"",""14"",""116556""
""focus"",""14"",""120662""
""blur"",""15"",""123483""
""focus"",""15"",""127285""
","""event"",""trial"",""time""
""blur"",""0"",""0""
""blur"",""0"",""0""
""blur"",""0"",""0""
""blur"",""0"",""0""
""blur"",""2"",""17055""
""blur"",""3"",""31717""
""blur"",""6"",""45910""
""blur"",""6"",""49348""
""blur"",""12"",""96445""
""blur"",""14"",""116556""
""blur"",""15"",""123483""
","""event"",""trial"",""time""
""focus"",""0"",""0""
""focus"",""0"",""0""
""focus"",""0"",""0""
""focus"",""1"",""8372""
""focus"",""3"",""20551""
""focus"",""3"",""34832""
""focus"",""6"",""46862""
""focus"",""7"",""52078""
""focus"",""12"",""105278""
""focus"",""14"",""120662""
""focus"",""15"",""127285""
","""event"",""trial"",""time""
""fullscreenenter"",""1"",""8502""
","""event"",""trial"",""time""
""fullscreenexit"",""2"",""14641""
",,2216,run_exp/static/images/task_images/land.jpg,65,,,,,,,,,,,4,,,,,,,,,,,,,
dig_prac,39,227153,0.0-15.0-0.0,"""event"",""trial"",""time""
""blur"",""0"",""0""
""focus"",""0"",""0""
""blur"",""0"",""0""
""focus"",""0"",""0""
""blur"",""0"",""0""
""focus"",""0"",""0""
""blur"",""0"",""0""
""focus"",""1"",""8372""
""fullscreenenter"",""1"",""8502""
""fullscreenexit"",""2"",""14641""
""blur"",""2"",""17055""
""focus"",""3"",""20551""
""blur"",""3"",""31717""
""focus"",""3"",""34832""
""blur"",""6"",""45910""
""focus"",""6"",""46862""
""blur"",""6"",""49348""
""focus"",""7"",""52078""
""blur"",""12"",""96445""
""focus"",""12"",""105278""
""blur"",""14"",""116556""
""focus"",""14"",""120662""
""blur"",""15"",""123483""
""focus"",""15"",""127285""
","""event"",""trial"",""time""
""blur"",""0"",""0""
""blur"",""0"",""0""
""blur"",""0"",""0""
""blur"",""0"",""0""
""blur"",""2"",""17055""
""blur"",""3"",""31717""
""blur"",""6"",""45910""
""blur"",""6"",""49348""
""blur"",""12"",""96445""
""blur"",""14"",""116556""
""blur"",""15"",""123483""
","""event"",""trial"",""time""
""focus"",""0"",""0""
""focus"",""0"",""0""
""focus"",""0"",""0""
""focus"",""1"",""8372""
""focus"",""3"",""20551""
""focus"",""3"",""34832""
""focus"",""6"",""46862""
""focus"",""7"",""52078""
""focus"",""12"",""105278""
""focus"",""14"",""120662""
""focus"",""15"",""127285""
","""event"",""trial"",""time""
""fullscreenenter"",""1"",""8502""
","""event"",""trial"",""time""
""fullscreenexit"",""2"",""14641""
",,,,,,,,,,,,"[{""stimulus"":""run_exp/static/images/task_images/dig.jpg"",""time"":0.10000000894069672},{""stimulus"":""run_exp/static/images/task_images/land.jpg"",""time"":676.6000000089407},{""stimulus"":""run_exp/static/images/task_images/dig.jpg"",""time"":1345.2999999970198}]",[],,,,,,,,,,,,,,,
harvest_prac,40,228157,0.0-15.0-1.0,"""event"",""trial"",""time""
""blur"",""0"",""0""
""focus"",""0"",""0""
""blur"",""0"",""0""
""focus"",""0"",""0""
""blur"",""0"",""0""
""focus"",""0"",""0""
""blur"",""0"",""0""
""focus"",""1"",""8372""
""fullscreenenter"",""1"",""8502""
""fullscreenexit"",""2"",""14641""
""blur"",""2"",""17055""
""focus"",""3"",""20551""
""blur"",""3"",""31717""
""focus"",""3"",""34832""
""blur"",""6"",""45910""
""focus"",""6"",""46862""
""blur"",""6"",""49348""
""focus"",""7"",""52078""
""blur"",""12"",""96445""
""focus"",""12"",""105278""
""blur"",""14"",""116556""
""focus"",""14"",""120662""
""blur"",""15"",""123483""
""focus"",""15"",""127285""
","""event"",""trial"",""time""
""blur"",""0"",""0""
""blur"",""0"",""0""
""blur"",""0"",""0""
""blur"",""0"",""0""
""blur"",""2"",""17055""
""blur"",""3"",""31717""
""blur"",""6"",""45910""
""blur"",""6"",""49348""
""blur"",""12"",""96445""
""blur"",""14"",""116556""
""blur"",""15"",""123483""
","""event"",""trial"",""time""
""focus"",""0"",""0""
""focus"",""0"",""0""
""focus"",""0"",""0""
""focus"",""1"",""8372""
""focus"",""3"",""20551""
""focus"",""3"",""34832""
""focus"",""6"",""46862""
""focus"",""7"",""52078""
""focus"",""12"",""105278""
""focus"",""14"",""120662""
""focus"",""15"",""127285""
","""event"",""trial"",""time""
""fullscreenenter"",""1"",""8502""
","""event"",""trial"",""time""
""fullscreenexit"",""2"",""14641""
",,null,run_exp/static/images/task_images/barrel_text.jpg,null,,,,,,,,,,,,,,,,,,,,,,,,
decision_prac,41,229244,0.0-15.0-2.0,"""event"",""trial"",""time""
""blur"",""0"",""0""
""focus"",""0"",""0""
""blur"",""0"",""0""
""focus"",""0"",""0""
""blur"",""0"",""0""
""focus"",""0"",""0""
""blur"",""0"",""0""
""focus"",""1"",""8372""
""fullscreenenter"",""1"",""8502""
""fullscreenexit"",""2"",""14641""
""blur"",""2"",""17055""
""focus"",""3"",""20551""
""blur"",""3"",""31717""
""focus"",""3"",""34832""
""blur"",""6"",""45910""
""focus"",""6"",""46862""
""blur"",""6"",""49348""
""focus"",""7"",""52078""
""blur"",""12"",""96445""
""focus"",""12"",""105278""
""blur"",""14"",""116556""
""focus"",""14"",""120662""
""blur"",""15"",""123483""
""focus"",""15"",""127285""
","""event"",""trial"",""time""
""blur"",""0"",""0""
""blur"",""0"",""0""
""blur"",""0"",""0""
""blur"",""0"",""0""
""blur"",""2"",""17055""
""blur"",""3"",""31717""
""blur"",""6"",""45910""
""blur"",""6"",""49348""
""blur"",""12"",""96445""
""blur"",""14"",""116556""
""blur"",""15"",""123483""
","""event"",""trial"",""time""
""focus"",""0"",""0""
""focus"",""0"",""0""
""focus"",""0"",""0""
""focus"",""1"",""8372""
""focus"",""3"",""20551""
""focus"",""3"",""34832""
""focus"",""6"",""46862""
""focus"",""7"",""52078""
""focus"",""12"",""105278""
""focus"",""14"",""120662""
""focus"",""15"",""127285""
","""event"",""trial"",""time""
""fullscreenenter"",""1"",""8502""
","""event"",""trial"",""time""
""fullscreenexit"",""2"",""14641""
",,1087.8,run_exp/static/images/task_images/land.jpg,65,,,,,,,,,,,,1,,,,,,,,,,,,
quiz_instruc,42,230748,0.0-16.0-0.0,"""event"",""trial"",""time""
""blur"",""0"",""0""
""focus"",""0"",""0""
""blur"",""0"",""0""
""focus"",""0"",""0""
""blur"",""0"",""0""
""focus"",""0"",""0""
""blur"",""0"",""0""
""focus"",""1"",""8372""
""fullscreenenter"",""1"",""8502""
""fullscreenexit"",""2"",""14641""
""blur"",""2"",""17055""
""focus"",""3"",""20551""
""blur"",""3"",""31717""
""focus"",""3"",""34832""
""blur"",""6"",""45910""
""focus"",""6"",""46862""
""blur"",""6"",""49348""
""focus"",""7"",""52078""
""blur"",""12"",""96445""
""focus"",""12"",""105278""
""blur"",""14"",""116556""
""focus"",""14"",""120662""
""blur"",""15"",""123483""
""focus"",""15"",""127285""
""blur"",""43"",""238653""
","""event"",""trial"",""time""
""blur"",""0"",""0""
""blur"",""0"",""0""
""blur"",""0"",""0""
""blur"",""0"",""0""
""blur"",""2"",""17055""
""blur"",""3"",""31717""
""blur"",""6"",""45910""
""blur"",""6"",""49348""
""blur"",""12"",""96445""
""blur"",""14"",""116556""
""blur"",""15"",""123483""
""blur"",""43"",""238653""
","""event"",""trial"",""time""
""focus"",""0"",""0""
""focus"",""0"",""0""
""focus"",""0"",""0""
""focus"",""1"",""8372""
""focus"",""3"",""20551""
""focus"",""3"",""34832""
""focus"",""6"",""46862""
""focus"",""7"",""52078""
""focus"",""12"",""105278""
""focus"",""14"",""120662""
""focus"",""15"",""127285""
","""event"",""trial"",""time""
""fullscreenenter"",""1"",""8502""
","""event"",""trial"",""time""
""fullscreenexit"",""2"",""14641""
",,1502.3,run_exp/static/audio/clip_10_quiz.m4a,,,,,,,0,,,,,,,,,,,,,,,,,,
instruc_repeat,43,273537,0.0-16.0-1.0,"""event"",""trial"",""time""
""blur"",""0"",""0""
""focus"",""0"",""0""
""blur"",""0"",""0""
""focus"",""0"",""0""
""blur"",""0"",""0""
""focus"",""0"",""0""
""blur"",""0"",""0""
""focus"",""1"",""8372""
""fullscreenenter"",""1"",""8502""
""fullscreenexit"",""2"",""14641""
""blur"",""2"",""17055""
""focus"",""3"",""20551""
""blur"",""3"",""31717""
""focus"",""3"",""34832""
""blur"",""6"",""45910""
""focus"",""6"",""46862""
""blur"",""6"",""49348""
""focus"",""7"",""52078""
""blur"",""12"",""96445""
""focus"",""12"",""105278""
""blur"",""14"",""116556""
""focus"",""14"",""120662""
""blur"",""15"",""123483""
""focus"",""15"",""127285""
""blur"",""43"",""238653""
""focus"",""44"",""277964""
","""event"",""trial"",""time""
""blur"",""0"",""0""
""blur"",""0"",""0""
""blur"",""0"",""0""
""blur"",""0"",""0""
""blur"",""2"",""17055""
""blur"",""3"",""31717""
""blur"",""6"",""45910""
""blur"",""6"",""49348""
""blur"",""12"",""96445""
""blur"",""14"",""116556""
""blur"",""15"",""123483""
""blur"",""43"",""238653""
","""event"",""trial"",""time""
""focus"",""0"",""0""
""focus"",""0"",""0""
""focus"",""0"",""0""
""focus"",""1"",""8372""
""focus"",""3"",""20551""
""focus"",""3"",""34832""
""focus"",""6"",""46862""
""focus"",""7"",""52078""
""focus"",""12"",""105278""
""focus"",""14"",""120662""
""focus"",""15"",""127285""
""focus"",""44"",""277964""
","""event"",""trial"",""time""
""fullscreenenter"",""1"",""8502""
","""event"",""trial"",""time""
""fullscreenexit"",""2"",""14641""
",,null,"<p> Are you ready to play a practice game? </p> <p>In this practice game, you'll be digging up barrels of gems. But, in the real game, you'll be digging up the gems themselves. </p>",null,"<p>In this game, your goal is to collect as many gems as you can. That’s how you will win bonus money. </p> <p>The entire game will last 20 minutes no matter how many gems you collect or how many planets you visit. </p><p>To stay on a planet and dig again, press the letter A on your keyboard. To leave for a new planet, press the letter L.</p><p>The more you dig on a planet, the fewer gems you’ll get with each dig which is why you might consider leaving for a new planet. </p><p>When you arrive at a new planet, you’ll be greeted by an alien. What the alien looks like does not tell you anything about how much treasure is on the planet. </p>",,,,,,,,,,,,,,,,,,,,,,,
instruc_repeat_continue,44,278860,0.0-16.0-2.0,"""event"",""trial"",""time""
""blur"",""0"",""0""
""focus"",""0"",""0""
""blur"",""0"",""0""
""focus"",""0"",""0""
""blur"",""0"",""0""
""focus"",""0"",""0""
""blur"",""0"",""0""
""focus"",""1"",""8372""
""fullscreenenter"",""1"",""8502""
""fullscreenexit"",""2"",""14641""
""blur"",""2"",""17055""
""focus"",""3"",""20551""
""blur"",""3"",""31717""
""focus"",""3"",""34832""
""blur"",""6"",""45910""
""focus"",""6"",""46862""
""blur"",""6"",""49348""
""focus"",""7"",""52078""
""blur"",""12"",""96445""
""focus"",""12"",""105278""
""blur"",""14"",""116556""
""focus"",""14"",""120662""
""blur"",""15"",""123483""
""focus"",""15"",""127285""
""blur"",""43"",""238653""
""focus"",""44"",""277964""
","""event"",""trial"",""time""
""blur"",""0"",""0""
""blur"",""0"",""0""
""blur"",""0"",""0""
""blur"",""0"",""0""
""blur"",""2"",""17055""
""blur"",""3"",""31717""
""blur"",""6"",""45910""
""blur"",""6"",""49348""
""blur"",""12"",""96445""
""blur"",""14"",""116556""
""blur"",""15"",""123483""
""blur"",""43"",""238653""
","""event"",""trial"",""time""
""focus"",""0"",""0""
""focus"",""0"",""0""
""focus"",""0"",""0""
""focus"",""1"",""8372""
""focus"",""3"",""20551""
""focus"",""3"",""34832""
""focus"",""6"",""46862""
""focus"",""7"",""52078""
""focus"",""12"",""105278""
""focus"",""14"",""120662""
""focus"",""15"",""127285""
""focus"",""44"",""277964""
","""event"",""trial"",""time""
""fullscreenenter"",""1"",""8502""
","""event"",""trial"",""time""
""fullscreenexit"",""2"",""14641""
",,5322.5,"<p> Are you ready to play a practice game? </p> <p>In this practice game, you'll be digging up barrels of gems. But, in the real game, you'll be digging up the gems themselves. </p>",,,,,,,0,,,,,,,,,,,,,,,,,,
quiz_q_1_ask,45,286172,0.0-16.0-3.0,"""event"",""trial"",""time""
""blur"",""0"",""0""
""focus"",""0"",""0""
""blur"",""0"",""0""
""focus"",""0"",""0""
""blur"",""0"",""0""
""focus"",""0"",""0""
""blur"",""0"",""0""
""focus"",""1"",""8372""
""fullscreenenter"",""1"",""8502""
""fullscreenexit"",""2"",""14641""
""blur"",""2"",""17055""
""focus"",""3"",""20551""
""blur"",""3"",""31717""
""focus"",""3"",""34832""
""blur"",""6"",""45910""
""focus"",""6"",""46862""
""blur"",""6"",""49348""
""focus"",""7"",""52078""
""blur"",""12"",""96445""
""focus"",""12"",""105278""
""blur"",""14"",""116556""
""focus"",""14"",""120662""
""blur"",""15"",""123483""
""focus"",""15"",""127285""
""blur"",""43"",""238653""
""focus"",""44"",""277964""
","""event"",""trial"",""time""
""blur"",""0"",""0""
""blur"",""0"",""0""
""blur"",""0"",""0""
""blur"",""0"",""0""
""blur"",""2"",""17055""
""blur"",""3"",""31717""
""blur"",""6"",""45910""
""blur"",""6"",""49348""
""blur"",""12"",""96445""
""blur"",""14"",""116556""
""blur"",""15"",""123483""
""blur"",""43"",""238653""
","""event"",""trial"",""time""
""focus"",""0"",""0""
""focus"",""0"",""0""
""focus"",""0"",""0""
""focus"",""1"",""8372""
""focus"",""3"",""20551""
""focus"",""3"",""34832""
""focus"",""6"",""46862""
""focus"",""7"",""52078""
""focus"",""12"",""105278""
""focus"",""14"",""120662""
""focus"",""15"",""127285""
""focus"",""44"",""277964""
","""event"",""trial"",""time""
""fullscreenenter"",""1"",""8502""
","""event"",""trial"",""time""
""fullscreenexit"",""2"",""14641""
",,7311.1,run_exp/static/audio/clip_11_q1_ask.m4a,,,,,,,2,,,,,,,,,,,,,,,,,,
quiz_q_1_fb_correct,46,290057,0.0-17.0-0.0,"""event"",""trial"",""time""
""blur"",""0"",""0""
""focus"",""0"",""0""
""blur"",""0"",""0""
""focus"",""0"",""0""
""blur"",""0"",""0""
""focus"",""0"",""0""
""blur"",""0"",""0""
""focus"",""1"",""8372""
""fullscreenenter"",""1"",""8502""
""fullscreenexit"",""2"",""14641""
""blur"",""2"",""17055""
""focus"",""3"",""20551""
""blur"",""3"",""31717""
""focus"",""3"",""34832""
""blur"",""6"",""45910""
""focus"",""6"",""46862""
""blur"",""6"",""49348""
""focus"",""7"",""52078""
""blur"",""12"",""96445""
""focus"",""12"",""105278""
""blur"",""14"",""116556""
""focus"",""14"",""120662""
""blur"",""15"",""123483""
""focus"",""15"",""127285""
""blur"",""43"",""238653""
""focus"",""44"",""277964""
","""event"",""trial"",""time""
""blur"",""0"",""0""
""blur"",""0"",""0""
""blur"",""0"",""0""
""blur"",""0"",""0""
""blur"",""2"",""17055""
""blur"",""3"",""31717""
""blur"",""6"",""45910""
""blur"",""6"",""49348""
""blur"",""12"",""96445""
""blur"",""14"",""116556""
""blur"",""15"",""123483""
""blur"",""43"",""238653""
","""event"",""trial"",""time""
""focus"",""0"",""0""
""focus"",""0"",""0""
""focus"",""0"",""0""
""focus"",""1"",""8372""
""focus"",""3"",""20551""
""focus"",""3"",""34832""
""focus"",""6"",""46862""
""focus"",""7"",""52078""
""focus"",""12"",""105278""
""focus"",""14"",""120662""
""focus"",""15"",""127285""
""focus"",""44"",""277964""
","""event"",""trial"",""time""
""fullscreenenter"",""1"",""8502""
","""event"",""trial"",""time""
""fullscreenexit"",""2"",""14641""
",,null,run_exp/static/audio/clip_12_q1_correct.m4a,null,<p>That’s correct. You win extra money by collecting more gems.</p>,,,,,,,,,,,,,,,,,,,,,,,
quiz_q_2_ask,47,292844,0.0-17.0-1.0,"""event"",""trial"",""time""
""blur"",""0"",""0""
""focus"",""0"",""0""
""blur"",""0"",""0""
""focus"",""0"",""0""
""blur"",""0"",""0""
""focus"",""0"",""0""
""blur"",""0"",""0""
""focus"",""1"",""8372""
""fullscreenenter"",""1"",""8502""
""fullscreenexit"",""2"",""14641""
""blur"",""2"",""17055""
""focus"",""3"",""20551""
""blur"",""3"",""31717""
""focus"",""3"",""34832""
""blur"",""6"",""45910""
""focus"",""6"",""46862""
""blur"",""6"",""49348""
""focus"",""7"",""52078""
""blur"",""12"",""96445""
""focus"",""12"",""105278""
""blur"",""14"",""116556""
""focus"",""14"",""120662""
""blur"",""15"",""123483""
""focus"",""15"",""127285""
""blur"",""43"",""238653""
""focus"",""44"",""277964""
","""event"",""trial"",""time""
""blur"",""0"",""0""
""blur"",""0"",""0""
""blur"",""0"",""0""
""blur"",""0"",""0""
""blur"",""2"",""17055""
""blur"",""3"",""31717""
""blur"",""6"",""45910""
""blur"",""6"",""49348""
""blur"",""12"",""96445""
""blur"",""14"",""116556""
""blur"",""15"",""123483""
""blur"",""43"",""238653""
","""event"",""trial"",""time""
""focus"",""0"",""0""
""focus"",""0"",""0""
""focus"",""0"",""0""
""focus"",""1"",""8372""
""focus"",""3"",""20551""
""focus"",""3"",""34832""
""focus"",""6"",""46862""
""focus"",""7"",""52078""
""focus"",""12"",""105278""
""focus"",""14"",""120662""
""focus"",""15"",""127285""
""focus"",""44"",""277964""
","""event"",""trial"",""time""
""fullscreenenter"",""1"",""8502""
","""event"",""trial"",""time""
""fullscreenexit"",""2"",""14641""
",,2785.9,run_exp/static/audio/clip_14_q2_ask.m4a,,,,,,,1,,,,,,,,,,,,,,,,,,
quiz_q_2_fb_correct,48,296877,0.0-18.0-0.0,"""event"",""trial"",""time""
""blur"",""0"",""0""
""focus"",""0"",""0""
""blur"",""0"",""0""
""focus"",""0"",""0""
""blur"",""0"",""0""
""focus"",""0"",""0""
""blur"",""0"",""0""
""focus"",""1"",""8372""
""fullscreenenter"",""1"",""8502""
""fullscreenexit"",""2"",""14641""
""blur"",""2"",""17055""
""focus"",""3"",""20551""
""blur"",""3"",""31717""
""focus"",""3"",""34832""
""blur"",""6"",""45910""
""focus"",""6"",""46862""
""blur"",""6"",""49348""
""focus"",""7"",""52078""
""blur"",""12"",""96445""
""focus"",""12"",""105278""
""blur"",""14"",""116556""
""focus"",""14"",""120662""
""blur"",""15"",""123483""
""focus"",""15"",""127285""
""blur"",""43"",""238653""
""focus"",""44"",""277964""
","""event"",""trial"",""time""
""blur"",""0"",""0""
""blur"",""0"",""0""
""blur"",""0"",""0""
""blur"",""0"",""0""
""blur"",""2"",""17055""
""blur"",""3"",""31717""
""blur"",""6"",""45910""
""blur"",""6"",""49348""
""blur"",""12"",""96445""
""blur"",""14"",""116556""
""blur"",""15"",""123483""
""blur"",""43"",""238653""
","""event"",""trial"",""time""
""focus"",""0"",""0""
""focus"",""0"",""0""
""focus"",""0"",""0""
""focus"",""1"",""8372""
""focus"",""3"",""20551""
""focus"",""3"",""34832""
""focus"",""6"",""46862""
""focus"",""7"",""52078""
""focus"",""12"",""105278""
""focus"",""14"",""120662""
""focus"",""15"",""127285""
""focus"",""44"",""277964""
","""event"",""trial"",""time""
""fullscreenenter"",""1"",""8502""
","""event"",""trial"",""time""
""fullscreenexit"",""2"",""14641""
",,null,run_exp/static/audio/clip_15_q2_correct.m4a,null,<p>That’s correct. The experiment is 20 minutes no matter what.</p>,,,,,,,,,,,,,,,,,,,,,,,
quiz_q_3_ask,49,299692,0.0-18.0-1.0,"""event"",""trial"",""time""
""blur"",""0"",""0""
""focus"",""0"",""0""
""blur"",""0"",""0""
""focus"",""0"",""0""
""blur"",""0"",""0""
""focus"",""0"",""0""
""blur"",""0"",""0""
""focus"",""1"",""8372""
""fullscreenenter"",""1"",""8502""
""fullscreenexit"",""2"",""14641""
""blur"",""2"",""17055""
""focus"",""3"",""20551""
""blur"",""3"",""31717""
""focus"",""3"",""34832""
""blur"",""6"",""45910""
""focus"",""6"",""46862""
""blur"",""6"",""49348""
""focus"",""7"",""52078""
""blur"",""12"",""96445""
""focus"",""12"",""105278""
""blur"",""14"",""116556""
""focus"",""14"",""120662""
""blur"",""15"",""123483""
""focus"",""15"",""127285""
""blur"",""43"",""238653""
""focus"",""44"",""277964""
","""event"",""trial"",""time""
""blur"",""0"",""0""
""blur"",""0"",""0""
""blur"",""0"",""0""
""blur"",""0"",""0""
""blur"",""2"",""17055""
""blur"",""3"",""31717""
""blur"",""6"",""45910""
""blur"",""6"",""49348""
""blur"",""12"",""96445""
""blur"",""14"",""116556""
""blur"",""15"",""123483""
""blur"",""43"",""238653""
","""event"",""trial"",""time""
""focus"",""0"",""0""
""focus"",""0"",""0""
""focus"",""0"",""0""
""focus"",""1"",""8372""
""focus"",""3"",""20551""
""focus"",""3"",""34832""
""focus"",""6"",""46862""
""focus"",""7"",""52078""
""focus"",""12"",""105278""
""focus"",""14"",""120662""
""focus"",""15"",""127285""
""focus"",""44"",""277964""
","""event"",""trial"",""time""
""fullscreenenter"",""1"",""8502""
","""event"",""trial"",""time""
""fullscreenexit"",""2"",""14641""
",,2814.1,run_exp/static/audio/clip_17_q3_ask.m4a,,,,,,,1,,,,,,,,,,,,,,,,,,
quiz_q_3_fb_correct,50,303717,0.0-19.0-0.0,"""event"",""trial"",""time""
""blur"",""0"",""0""
""focus"",""0"",""0""
""blur"",""0"",""0""
""focus"",""0"",""0""
""blur"",""0"",""0""
""focus"",""0"",""0""
""blur"",""0"",""0""
""focus"",""1"",""8372""
""fullscreenenter"",""1"",""8502""
""fullscreenexit"",""2"",""14641""
""blur"",""2"",""17055""
""focus"",""3"",""20551""
""blur"",""3"",""31717""
""focus"",""3"",""34832""
""blur"",""6"",""45910""
""focus"",""6"",""46862""
""blur"",""6"",""49348""
""focus"",""7"",""52078""
""blur"",""12"",""96445""
""focus"",""12"",""105278""
""blur"",""14"",""116556""
""focus"",""14"",""120662""
""blur"",""15"",""123483""
""focus"",""15"",""127285""
""blur"",""43"",""238653""
""focus"",""44"",""277964""
","""event"",""trial"",""time""
""blur"",""0"",""0""
""blur"",""0"",""0""
""blur"",""0"",""0""
""blur"",""0"",""0""
""blur"",""2"",""17055""
""blur"",""3"",""31717""
""blur"",""6"",""45910""
""blur"",""6"",""49348""
""blur"",""12"",""96445""
""blur"",""14"",""116556""
""blur"",""15"",""123483""
""blur"",""43"",""238653""
","""event"",""trial"",""time""
""focus"",""0"",""0""
""focus"",""0"",""0""
""focus"",""0"",""0""
""focus"",""1"",""8372""
""focus"",""3"",""20551""
""focus"",""3"",""34832""
""focus"",""6"",""46862""
""focus"",""7"",""52078""
""focus"",""12"",""105278""
""focus"",""14"",""120662""
""focus"",""15"",""127285""
""focus"",""44"",""277964""
","""event"",""trial"",""time""
""fullscreenenter"",""1"",""8502""
","""event"",""trial"",""time""
""fullscreenexit"",""2"",""14641""
",,null,run_exp/static/audio/clip_18_q3_correct.m4a,null,<p> That’s correct. You press the letter L to travel to a new planet.</p>,,,,,,,,,,,,,,,,,,,,,,,
quiz_q_4_ask,51,306940,0.0-19.0-1.0,"""event"",""trial"",""time""
""blur"",""0"",""0""
""focus"",""0"",""0""
""blur"",""0"",""0""
""focus"",""0"",""0""
""blur"",""0"",""0""
""focus"",""0"",""0""
""blur"",""0"",""0""
""focus"",""1"",""8372""
""fullscreenenter"",""1"",""8502""
""fullscreenexit"",""2"",""14641""
""blur"",""2"",""17055""
""focus"",""3"",""20551""
""blur"",""3"",""31717""
""focus"",""3"",""34832""
""blur"",""6"",""45910""
""focus"",""6"",""46862""
""blur"",""6"",""49348""
""focus"",""7"",""52078""
""blur"",""12"",""96445""
""focus"",""12"",""105278""
""blur"",""14"",""116556""
""focus"",""14"",""120662""
""blur"",""15"",""123483""
""focus"",""15"",""127285""
""blur"",""43"",""238653""
""focus"",""44"",""277964""
","""event"",""trial"",""time""
""blur"",""0"",""0""
""blur"",""0"",""0""
""blur"",""0"",""0""
""blur"",""0"",""0""
""blur"",""2"",""17055""
""blur"",""3"",""31717""
""blur"",""6"",""45910""
""blur"",""6"",""49348""
""blur"",""12"",""96445""
""blur"",""14"",""116556""
""blur"",""15"",""123483""
""blur"",""43"",""238653""
","""event"",""trial"",""time""
""focus"",""0"",""0""
""focus"",""0"",""0""
""focus"",""0"",""0""
""focus"",""1"",""8372""
""focus"",""3"",""20551""
""focus"",""3"",""34832""
""focus"",""6"",""46862""
""focus"",""7"",""52078""
""focus"",""12"",""105278""
""focus"",""14"",""120662""
""focus"",""15"",""127285""
""focus"",""44"",""277964""
","""event"",""trial"",""time""
""fullscreenenter"",""1"",""8502""
","""event"",""trial"",""time""
""fullscreenexit"",""2"",""14641""
",,3222.5,run_exp/static/audio/clip_20_q4_ask.m4a,,,,,,,0,,,,,,,,,,,,,,,,,,
quiz_q_4_fb_correct,52,312297,0.0-20.0-0.0,"""event"",""trial"",""time""
""blur"",""0"",""0""
""focus"",""0"",""0""
""blur"",""0"",""0""
""focus"",""0"",""0""
""blur"",""0"",""0""
""focus"",""0"",""0""
""blur"",""0"",""0""
""focus"",""1"",""8372""
""fullscreenenter"",""1"",""8502""
""fullscreenexit"",""2"",""14641""
""blur"",""2"",""17055""
""focus"",""3"",""20551""
""blur"",""3"",""31717""
""focus"",""3"",""34832""
""blur"",""6"",""45910""
""focus"",""6"",""46862""
""blur"",""6"",""49348""
""focus"",""7"",""52078""
""blur"",""12"",""96445""
""focus"",""12"",""105278""
""blur"",""14"",""116556""
""focus"",""14"",""120662""
""blur"",""15"",""123483""
""focus"",""15"",""127285""
""blur"",""43"",""238653""
""focus"",""44"",""277964""
","""event"",""trial"",""time""
""blur"",""0"",""0""
""blur"",""0"",""0""
""blur"",""0"",""0""
""blur"",""0"",""0""
""blur"",""2"",""17055""
""blur"",""3"",""31717""
""blur"",""6"",""45910""
""blur"",""6"",""49348""
""blur"",""12"",""96445""
""blur"",""14"",""116556""
""blur"",""15"",""123483""
""blur"",""43"",""238653""
","""event"",""trial"",""time""
""focus"",""0"",""0""
""focus"",""0"",""0""
""focus"",""0"",""0""
""focus"",""1"",""8372""
""focus"",""3"",""20551""
""focus"",""3"",""34832""
""focus"",""6"",""46862""
""focus"",""7"",""52078""
""focus"",""12"",""105278""
""focus"",""14"",""120662""
""focus"",""15"",""127285""
""focus"",""44"",""277964""
","""event"",""trial"",""time""
""fullscreenenter"",""1"",""8502""
","""event"",""trial"",""time""
""fullscreenexit"",""2"",""14641""
",,null,run_exp/static/audio/clip_21_q4_correct.m4a,null,<p> That’s correct. The more you dig on a planet the fewer gems you’ll get with each dig. </p>,,,,,,,,,,,,,,,,,,,,,,,
quiz_q_5_ask,53,315676,0.0-20.0-1.0,"""event"",""trial"",""time""
""blur"",""0"",""0""
""focus"",""0"",""0""
""blur"",""0"",""0""
""focus"",""0"",""0""
""blur"",""0"",""0""
""focus"",""0"",""0""
""blur"",""0"",""0""
""focus"",""1"",""8372""
""fullscreenenter"",""1"",""8502""
""fullscreenexit"",""2"",""14641""
""blur"",""2"",""17055""
""focus"",""3"",""20551""
""blur"",""3"",""31717""
""focus"",""3"",""34832""
""blur"",""6"",""45910""
""focus"",""6"",""46862""
""blur"",""6"",""49348""
""focus"",""7"",""52078""
""blur"",""12"",""96445""
""focus"",""12"",""105278""
""blur"",""14"",""116556""
""focus"",""14"",""120662""
""blur"",""15"",""123483""
""focus"",""15"",""127285""
""blur"",""43"",""238653""
""focus"",""44"",""277964""
","""event"",""trial"",""time""
""blur"",""0"",""0""
""blur"",""0"",""0""
""blur"",""0"",""0""
""blur"",""0"",""0""
""blur"",""2"",""17055""
""blur"",""3"",""31717""
""blur"",""6"",""45910""
""blur"",""6"",""49348""
""blur"",""12"",""96445""
""blur"",""14"",""116556""
""blur"",""15"",""123483""
""blur"",""43"",""238653""
","""event"",""trial"",""time""
""focus"",""0"",""0""
""focus"",""0"",""0""
""focus"",""0"",""0""
""focus"",""1"",""8372""
""focus"",""3"",""20551""
""focus"",""3"",""34832""
""focus"",""6"",""46862""
""focus"",""7"",""52078""
""focus"",""12"",""105278""
""focus"",""14"",""120662""
""focus"",""15"",""127285""
""focus"",""44"",""277964""
","""event"",""trial"",""time""
""fullscreenenter"",""1"",""8502""
","""event"",""trial"",""time""
""fullscreenexit"",""2"",""14641""
",,3378.5,run_exp/static/audio/clip_23_q5_ask.m4a,,,,,,,1,,,,,,,,,,,,,,,,,,
quiz_q_5_fb_correct,54,320717,0.0-21.0-0.0,"""event"",""trial"",""time""
""blur"",""0"",""0""
""focus"",""0"",""0""
""blur"",""0"",""0""
""focus"",""0"",""0""
""blur"",""0"",""0""
""focus"",""0"",""0""
""blur"",""0"",""0""
""focus"",""1"",""8372""
""fullscreenenter"",""1"",""8502""
""fullscreenexit"",""2"",""14641""
""blur"",""2"",""17055""
""focus"",""3"",""20551""
""blur"",""3"",""31717""
""focus"",""3"",""34832""
""blur"",""6"",""45910""
""focus"",""6"",""46862""
""blur"",""6"",""49348""
""focus"",""7"",""52078""
""blur"",""12"",""96445""
""focus"",""12"",""105278""
""blur"",""14"",""116556""
""focus"",""14"",""120662""
""blur"",""15"",""123483""
""focus"",""15"",""127285""
""blur"",""43"",""238653""
""focus"",""44"",""277964""
","""event"",""trial"",""time""
""blur"",""0"",""0""
""blur"",""0"",""0""
""blur"",""0"",""0""
""blur"",""0"",""0""
""blur"",""2"",""17055""
""blur"",""3"",""31717""
""blur"",""6"",""45910""
""blur"",""6"",""49348""
""blur"",""12"",""96445""
""blur"",""14"",""116556""
""blur"",""15"",""123483""
""blur"",""43"",""238653""
","""event"",""trial"",""time""
""focus"",""0"",""0""
""focus"",""0"",""0""
""focus"",""0"",""0""
""focus"",""1"",""8372""
""focus"",""3"",""20551""
""focus"",""3"",""34832""
""focus"",""6"",""46862""
""focus"",""7"",""52078""
""focus"",""12"",""105278""
""focus"",""14"",""120662""
""focus"",""15"",""127285""
""focus"",""44"",""277964""
","""event"",""trial"",""time""
""fullscreenenter"",""1"",""8502""
","""event"",""trial"",""time""
""fullscreenexit"",""2"",""14641""
",,null,run_exp/static/audio/clip_24_q5_correct.m4a,null,<p> That’s correct. The alien tells you nothing about how much treasure is on the planet.</p>,,,,,,,,,,,,,,,,,,,,,,,
quiz_correct,55,324217,0.0-22.0-0.0,"""event"",""trial"",""time""
""blur"",""0"",""0""
""focus"",""0"",""0""
""blur"",""0"",""0""
""focus"",""0"",""0""
""blur"",""0"",""0""
""focus"",""0"",""0""
""blur"",""0"",""0""
""focus"",""1"",""8372""
""fullscreenenter"",""1"",""8502""
""fullscreenexit"",""2"",""14641""
""blur"",""2"",""17055""
""focus"",""3"",""20551""
""blur"",""3"",""31717""
""focus"",""3"",""34832""
""blur"",""6"",""45910""
""focus"",""6"",""46862""
""blur"",""6"",""49348""
""focus"",""7"",""52078""
""blur"",""12"",""96445""
""focus"",""12"",""105278""
""blur"",""14"",""116556""
""focus"",""14"",""120662""
""blur"",""15"",""123483""
""focus"",""15"",""127285""
""blur"",""43"",""238653""
""focus"",""44"",""277964""
","""event"",""trial"",""time""
""blur"",""0"",""0""
""blur"",""0"",""0""
""blur"",""0"",""0""
""blur"",""0"",""0""
""blur"",""2"",""17055""
""blur"",""3"",""31717""
""blur"",""6"",""45910""
""blur"",""6"",""49348""
""blur"",""12"",""96445""
""blur"",""14"",""116556""
""blur"",""15"",""123483""
""blur"",""43"",""238653""
","""event"",""trial"",""time""
""focus"",""0"",""0""
""focus"",""0"",""0""
""focus"",""0"",""0""
""focus"",""1"",""8372""
""focus"",""3"",""20551""
""focus"",""3"",""34832""
""focus"",""6"",""46862""
""focus"",""7"",""52078""
""focus"",""12"",""105278""
""focus"",""14"",""120662""
""focus"",""15"",""127285""
""focus"",""44"",""277964""
","""event"",""trial"",""time""
""fullscreenenter"",""1"",""8502""
","""event"",""trial"",""time""
""fullscreenexit"",""2"",""14641""
",,null,run_exp/static/audio/clip_26_correct_quiz.m4a,null,,,,,,,,,,,,,,,,,,,,,,,,
quiz_correct_continue,56,325492,0.0-22.0-1.0,"""event"",""trial"",""time""
""blur"",""0"",""0""
""focus"",""0"",""0""
""blur"",""0"",""0""
""focus"",""0"",""0""
""blur"",""0"",""0""
""focus"",""0"",""0""
""blur"",""0"",""0""
""focus"",""1"",""8372""
""fullscreenenter"",""1"",""8502""
""fullscreenexit"",""2"",""14641""
""blur"",""2"",""17055""
""focus"",""3"",""20551""
""blur"",""3"",""31717""
""focus"",""3"",""34832""
""blur"",""6"",""45910""
""focus"",""6"",""46862""
""blur"",""6"",""49348""
""focus"",""7"",""52078""
""blur"",""12"",""96445""
""focus"",""12"",""105278""
""blur"",""14"",""116556""
""focus"",""14"",""120662""
""blur"",""15"",""123483""
""focus"",""15"",""127285""
""blur"",""43"",""238653""
""focus"",""44"",""277964""
","""event"",""trial"",""time""
""blur"",""0"",""0""
""blur"",""0"",""0""
""blur"",""0"",""0""
""blur"",""0"",""0""
""blur"",""2"",""17055""
""blur"",""3"",""31717""
""blur"",""6"",""45910""
""blur"",""6"",""49348""
""blur"",""12"",""96445""
""blur"",""14"",""116556""
""blur"",""15"",""123483""
""blur"",""43"",""238653""
","""event"",""trial"",""time""
""focus"",""0"",""0""
""focus"",""0"",""0""
""focus"",""0"",""0""
""focus"",""1"",""8372""
""focus"",""3"",""20551""
""focus"",""3"",""34832""
""focus"",""6"",""46862""
""focus"",""7"",""52078""
""focus"",""12"",""105278""
""focus"",""14"",""120662""
""focus"",""15"",""127285""
""focus"",""44"",""277964""
","""event"",""trial"",""time""
""fullscreenenter"",""1"",""8502""
","""event"",""trial"",""time""
""fullscreenexit"",""2"",""14641""
",,1274.5,<p>Good job! You're now ready to move on to the real game!</p>,,,,,,,0,,,,,,,,,,,,,,,,,,
audio-keyboard-response,57,335657,0.0-22.0-2.0,"""event"",""trial"",""time""
""blur"",""0"",""0""
""focus"",""0"",""0""
""blur"",""0"",""0""
""focus"",""0"",""0""
""blur"",""0"",""0""
""focus"",""0"",""0""
""blur"",""0"",""0""
""focus"",""1"",""8372""
""fullscreenenter"",""1"",""8502""
""fullscreenexit"",""2"",""14641""
""blur"",""2"",""17055""
""focus"",""3"",""20551""
""blur"",""3"",""31717""
""focus"",""3"",""34832""
""blur"",""6"",""45910""
""focus"",""6"",""46862""
""blur"",""6"",""49348""
""focus"",""7"",""52078""
""blur"",""12"",""96445""
""focus"",""12"",""105278""
""blur"",""14"",""116556""
""focus"",""14"",""120662""
""blur"",""15"",""123483""
""focus"",""15"",""127285""
""blur"",""43"",""238653""
""focus"",""44"",""277964""
","""event"",""trial"",""time""
""blur"",""0"",""0""
""blur"",""0"",""0""
""blur"",""0"",""0""
""blur"",""0"",""0""
""blur"",""2"",""17055""
""blur"",""3"",""31717""
""blur"",""6"",""45910""
""blur"",""6"",""49348""
""blur"",""12"",""96445""
""blur"",""14"",""116556""
""blur"",""15"",""123483""
""blur"",""43"",""238653""
","""event"",""trial"",""time""
""focus"",""0"",""0""
""focus"",""0"",""0""
""focus"",""0"",""0""
""focus"",""1"",""8372""
""focus"",""3"",""20551""
""focus"",""3"",""34832""
""focus"",""6"",""46862""
""focus"",""7"",""52078""
""focus"",""12"",""105278""
""focus"",""14"",""120662""
""focus"",""15"",""127285""
""focus"",""44"",""277964""
","""event"",""trial"",""time""
""fullscreenenter"",""1"",""8502""
","""event"",""trial"",""time""
""fullscreenexit"",""2"",""14641""
",,null,run_exp/static/audio/clip_28_real_game.m4a,null,,,,,,,,,,,,,,,,,,,,,,,,
instruc_begin_exp_contine,58,336620,0.0-22.0-3.0,"""event"",""trial"",""time""
""blur"",""0"",""0""
""focus"",""0"",""0""
""blur"",""0"",""0""
""focus"",""0"",""0""
""blur"",""0"",""0""
""focus"",""0"",""0""
""blur"",""0"",""0""
""focus"",""1"",""8372""
""fullscreenenter"",""1"",""8502""
""fullscreenexit"",""2"",""14641""
""blur"",""2"",""17055""
""focus"",""3"",""20551""
""blur"",""3"",""31717""
""focus"",""3"",""34832""
""blur"",""6"",""45910""
""focus"",""6"",""46862""
""blur"",""6"",""49348""
""focus"",""7"",""52078""
""blur"",""12"",""96445""
""focus"",""12"",""105278""
""blur"",""14"",""116556""
""focus"",""14"",""120662""
""blur"",""15"",""123483""
""focus"",""15"",""127285""
""blur"",""43"",""238653""
""focus"",""44"",""277964""
","""event"",""trial"",""time""
""blur"",""0"",""0""
""blur"",""0"",""0""
""blur"",""0"",""0""
""blur"",""0"",""0""
""blur"",""2"",""17055""
""blur"",""3"",""31717""
""blur"",""6"",""45910""
""blur"",""6"",""49348""
""blur"",""12"",""96445""
""blur"",""14"",""116556""
""blur"",""15"",""123483""
""blur"",""43"",""238653""
","""event"",""trial"",""time""
""focus"",""0"",""0""
""focus"",""0"",""0""
""focus"",""0"",""0""
""focus"",""1"",""8372""
""focus"",""3"",""20551""
""focus"",""3"",""34832""
""focus"",""6"",""46862""
""focus"",""7"",""52078""
""focus"",""12"",""105278""
""focus"",""14"",""120662""
""focus"",""15"",""127285""
""focus"",""44"",""277964""
","""event"",""trial"",""time""
""fullscreenenter"",""1"",""8502""
","""event"",""trial"",""time""
""fullscreenexit"",""2"",""14641""
",,962.1,"<p>Now that you know how  to dig for space treasure and travel to new planets,you can start exploring! </p><p>Do you want to go over the instructions again or get started with the real game?</p>",,,,,,,1,,,,,,1,,,,,,,,,,,,
alien_welcome,59,341625,0.0-23.0-0.0,"""event"",""trial"",""time""
""blur"",""0"",""0""
""focus"",""0"",""0""
""blur"",""0"",""0""
""focus"",""0"",""0""
""blur"",""0"",""0""
""focus"",""0"",""0""
""blur"",""0"",""0""
""focus"",""1"",""8372""
""fullscreenenter"",""1"",""8502""
""fullscreenexit"",""2"",""14641""
""blur"",""2"",""17055""
""focus"",""3"",""20551""
""blur"",""3"",""31717""
""focus"",""3"",""34832""
""blur"",""6"",""45910""
""focus"",""6"",""46862""
""blur"",""6"",""49348""
""focus"",""7"",""52078""
""blur"",""12"",""96445""
""focus"",""12"",""105278""
""blur"",""14"",""116556""
""focus"",""14"",""120662""
""blur"",""15"",""123483""
""focus"",""15"",""127285""
""blur"",""43"",""238653""
""focus"",""44"",""277964""
","""event"",""trial"",""time""
""blur"",""0"",""0""
""blur"",""0"",""0""
""blur"",""0"",""0""
""blur"",""0"",""0""
""blur"",""2"",""17055""
""blur"",""3"",""31717""
""blur"",""6"",""45910""
""blur"",""6"",""49348""
""blur"",""12"",""96445""
""blur"",""14"",""116556""
""blur"",""15"",""123483""
""blur"",""43"",""238653""
","""event"",""trial"",""time""
""focus"",""0"",""0""
""focus"",""0"",""0""
""focus"",""0"",""0""
""focus"",""1"",""8372""
""focus"",""3"",""20551""
""focus"",""3"",""34832""
""focus"",""6"",""46862""
""focus"",""7"",""52078""
""focus"",""12"",""105278""
""focus"",""14"",""120662""
""focus"",""15"",""127285""
""focus"",""44"",""277964""
","""event"",""trial"",""time""
""fullscreenenter"",""1"",""8502""
","""event"",""trial"",""time""
""fullscreenexit"",""2"",""14641""
",,null,run_exp/static/images/task_images/aliens/old_aliens/planet/alien_planet-8.jpg,null,,,,,,,,,,,,,8,"8,43,75,72,14,65,48,1,2,23,69,4,17,11,3,28,42,46,29,57,53,6,9,58,64,35,13,52,54,33,71",,,,,,,,,,
land,60,342127,0.0-23.0-1.0,"""event"",""trial"",""time""
""blur"",""0"",""0""
""focus"",""0"",""0""
""blur"",""0"",""0""
""focus"",""0"",""0""
""blur"",""0"",""0""
""focus"",""0"",""0""
""blur"",""0"",""0""
""focus"",""1"",""8372""
""fullscreenenter"",""1"",""8502""
""fullscreenexit"",""2"",""14641""
""blur"",""2"",""17055""
