trial_type,trial_index,time_elapsed,internal_node_id,interactions,blur_events,focus_events,fullscreenenter_events,fullscreenexit_events,success,rt,stimulus,key_press,prompt,subject_id,participant_id,age,gender,button_pressed,next_reward,animation_sequence,responses,planet,curr_prac_trial,n_prac_rounds,alien,aliens,reward_received,decay_rate_actual,decay_rate_exp,time_in_block,block_num,prt,last_trial_on_planet,button_html,bonus,num_failures
pavlovia,0,3,0.0-0.0,"""event"",""trial"",""time""
""fullscreenenter"",""1"",""3810""
","
","
","""event"",""trial"",""time""
""fullscreenenter"",""1"",""3810""
","
",,,,,,,,,,,,,,,,,,,,,,,,,,,,
fullscreen,1,4790,0.0-1.0,"""event"",""trial"",""time""
""fullscreenenter"",""1"",""3810""
","
","
","""event"",""trial"",""time""
""fullscreenenter"",""1"",""3810""
","
",TRUE,,,,,,,,,,,,,,,,,,,,,,,,,,,
instruc_welcome,2,14555,0.0-2.0,"""event"",""trial"",""time""
""fullscreenenter"",""1"",""3810""
","
","
","""event"",""trial"",""time""
""fullscreenenter"",""1"",""3810""
","
",,null,run_exp/static/audio/clip_1_welcome.m4a,null,"<p>Howdy! In this experiment, you’ll be an explorer traveling through space to collect space treasure.</p><p>Your mission is to collect as much treasure as possible.</p><br><br><p><img src='run_exp/static/images/task_images/opening_img-01.jpg' height='300' width='auto'></p>",9790,2431,15.42,Female,,,,,,,,,,,,,,,,,,,
audio-keyboard-response,3,31179,0.0-3.0,"""event"",""trial"",""time""
""fullscreenenter"",""1"",""3810""
","
","
","""event"",""trial"",""time""
""fullscreenenter"",""1"",""3810""
","
",,null,run_exp/static/audio/clip_2_move.m4a,null,,,,,,,,,,,,,,,,,,,,,,,,
welcome_dec,4,32443,0.0-4.0,"""event"",""trial"",""time""
""fullscreenenter"",""1"",""3810""
","
","
","""event"",""trial"",""time""
""fullscreenenter"",""1"",""3810""
","
",,1261.400001,"<p>Howdy! In this experiment, you’ll be an explorer traveling through space to collect space treasure.</p><p>Your mission is to collect as much treasure as possible.</p><br><br><p><img src='run_exp/static/images/task_images/opening_img-01.jpg' height='300' width='auto'></p>",,,,,,,1,,,,,,,,,,,,,,,,,,
html-keyboard-response,5,33808,0.0-5.0,"""event"",""trial"",""time""
""fullscreenenter"",""1"",""3810""
","
","
","""event"",""trial"",""time""
""fullscreenenter"",""1"",""3810""
","
",,1362.5,"<p>Howdy! In this experiment, you’ll be an explorer traveling through space to collect space treasure.</p><p>Your mission is to collect as much treasure as possible.</p><br><br><p><img src='run_exp/static/images/task_images/opening_img-01.jpg' height='300' width='auto'></p><button class=""jspsych-html-btn-unchosen""><img src=""run_exp/static/images/task_images/planet-01.jpg"" height=""50""></button><button class=""jspsych-html-btn-chosen""><img src=""run_exp/static/images/task_images/planet-02.jpg"" height=""50""></button><p><b>[press the space bar to lock in your answer]<b><br></p>",32,,,,,,,,,,,,,,,,,,,,,,,,
instruc_goal,6,43898,0.0-6.0-0.0,"""event"",""trial"",""time""
""fullscreenenter"",""1"",""3810""
","
","
","""event"",""trial"",""time""
""fullscreenenter"",""1"",""3810""
","
",,null,run_exp/static/audio/clip_3_goal.m4a,null,"<p> As a space explorer, you’ll visit different planets to dig for space treasure, these pink gems.</p> <p> The more treasure you dig up, the more bonus money you’ll win! </p><br><br><p><img src='run_exp/static/images/task_images/pink_gem.jpg' height='300' width='auto'></p>",,,,,,,,,,,,,,,,,,,,,,,
instruc_goal,7,45371,0.0-6.0-1.0,"""event"",""trial"",""time""
""fullscreenenter"",""1"",""3810""
","
","
","""event"",""trial"",""time""
""fullscreenenter"",""1"",""3810""
","
",,1470.799999,"<p> As a space explorer, you’ll visit different planets to dig for space treasure, these pink gems.</p> <p> The more treasure you dig up, the more bonus money you’ll win! </p><br><br><p><img src='run_exp/static/images/task_images/pink_gem.jpg' height='300' width='auto'></p>",,,,,,,1,,,,,,,,,,,,,,,,,,
html-keyboard-response,8,46386,0.0-6.0-2.0,"""event"",""trial"",""time""
""fullscreenenter"",""1"",""3810""
","
","
","""event"",""trial"",""time""
""fullscreenenter"",""1"",""3810""
","
",,1013.5,"<p> As a space explorer, you’ll visit different planets to dig for space treasure, these pink gems.</p> <p> The more treasure you dig up, the more bonus money you’ll win! </p><br><br><p><img src='run_exp/static/images/task_images/pink_gem.jpg' height='300' width='auto'></p><button class=""jspsych-html-btn-unchosen""><img src=""run_exp/static/images/task_images/planet-01.jpg"" height=""50""></button><button class=""jspsych-html-btn-chosen""><img src=""run_exp/static/images/task_images/planet-02.jpg"" height=""50""></button><p><b>[press the space bar to lock in your answer]<b><br></p>",32,,,,,,,,,,,,,,,,,,,,,,,,
instruc_dig,9,62439,0.0-7.0-0.0,"""event"",""trial"",""time""
""fullscreenenter"",""1"",""3810""
","
","
","""event"",""trial"",""time""
""fullscreenenter"",""1"",""3810""
","
",,null,run_exp/static/audio/clip_4_dig.m4a,null,,,,,,,100,,,,,,,,,,,,,,,,,
instruc_dig_try,10,62793,0.0-7.0-1.0,"""event"",""trial"",""time""
""fullscreenenter"",""1"",""3810""
","
","
","""event"",""trial"",""time""
""fullscreenenter"",""1"",""3810""
","
",,351.8999996,"<p> When you’ve arrived at a new planet, you will dig once. </p> <p>Then, you get to decide if you want to stay on the planet and dig again or travel to a new planet and dig there.</p> <p> To stay and dig, press the letter <strong>‘A’</strong> on your keyboard. Try pressing it now! </p><p><img src='run_exp/static/images/task_images/land.jpg'  height='700' width='auto'></p>",65,"<p> When you’ve arrived at a new planet, you will dig once. </p> <p>Then, you get to decide if you want to stay on the planet and dig again or travel to a new planet and dig there.</p> <p> To stay and dig, press the letter <strong>‘A’</strong> on your keyboard. Try pressing it now! </p><p><img src='run_exp/static/images/task_images/land.jpg'  height='700' width='auto'></p>",,,,,,100,,,,,,,,,,,,,,,,,
dig_prac,11,64804,0.0-7.0-2.0,"""event"",""trial"",""time""
""fullscreenenter"",""1"",""3810""
","
","
","""event"",""trial"",""time""
""fullscreenenter"",""1"",""3810""
","
",,,,,,,,,,,,"[{""stimulus"":""run_exp/static/images/task_images/dig.jpg"",""time"":0.3000001907348633},{""stimulus"":""run_exp/static/images/task_images/land.jpg"",""time"":679.1999998092651},{""stimulus"":""run_exp/static/images/task_images/dig.jpg"",""time"":1349.9000005722046}]",[],,,,,,,,,,,,,,,
instruc_travel,12,101077,0.0-7.0-3.0,"""event"",""trial"",""time""
""fullscreenenter"",""1"",""3810""
","
","
","""event"",""trial"",""time""
""fullscreenenter"",""1"",""3810""
","
",,null,run_exp/static/audio/clip_5_travel.m4a,null,"<p>Every time you dig up gems, there are less gems on the planet, so the more you dig on a planet the fewer gems you’ll get with each dig.</p><p>When gems are running low, you may want to travel to a new planet. </p> <p>  Planets are very far apart in this galaxy, so it will take some time to travel between them. </p> <br><p>There are lots and lots of planets for you to visit, so you won’t be able to return to any planets you’ve seen before. </p><br><p>To leave this planet and travel to a new one, press the letter <strong>‘L’</strong> on your keyboard. Try pressing it now! </p><p><img src='run_exp/static/images/task_images/rocket-01.jpg'  height='600' width='auto'></p>",,,,,,,,,,,,,,,,,,,,,,,
instruc_travel_try,13,101563,0.0-7.0-4.0,"""event"",""trial"",""time""
""fullscreenenter"",""1"",""3810""
","
","
","""event"",""trial"",""time""
""fullscreenenter"",""1"",""3810""
","
",,484.6999998,"<p>Every time you dig up gems, there are less gems on the planet, so the more you dig on a planet the fewer gems you’ll get with each dig.</p><p>When gems are running low, you may want to travel to a new planet. </p> <p>  Planets are very far apart in this galaxy, so it will take some time to travel between them. </p> <br><p>There are lots and lots of planets for you to visit, so you won’t be able to return to any planets you’ve seen before. </p><br><p>To leave this planet and travel to a new one, press the letter <strong>‘L’</strong> on your keyboard. Try pressing it now! </p><p><img src='run_exp/static/images/task_images/rocket-01.jpg'  height='600' width='auto'></p>",76,"<p>Every time you dig up gems, there are less gems on the planet, so the more you dig on a planet the fewer gems you’ll get with each dig.</p><p>When gems are running low, you may want to travel to a new planet. </p> <p>  Planets are very far apart in this galaxy, so it will take some time to travel between them. </p> <br><p>There are lots and lots of planets for you to visit, so you won’t be able to return to any planets you’ve seen before. </p><br><p>To leave this planet and travel to a new one, press the letter <strong>‘L’</strong> on your keyboard. Try pressing it now! </p><p><img src='run_exp/static/images/task_images/rocket-01.jpg'  height='600' width='auto'></p>",,,,,,,,,,,,,,,,,,,,,,,
travel_prac,14,111569,0.0-7.0-5.0,"""event"",""trial"",""time""
""fullscreenenter"",""1"",""3810""
","
","
","""event"",""trial"",""time""
""fullscreenenter"",""1"",""3810""
","
",,,,,,,,,,,,"[{""stimulus"":""run_exp/static/images/task_images/rocket-01.jpg"",""time"":0.40000057220458984},{""stimulus"":""run_exp/static/images/task_images/rocket-02.jpg"",""time"":1114.6000003814697},{""stimulus"":""run_exp/static/images/task_images/rocket-03.jpg"",""time"":2239.9000005722046},{""stimulus"":""run_exp/static/images/task_images/rocket-04.jpg"",""time"":3338.300000190735},{""stimulus"":""run_exp/static/images/task_images/rocket-05.jpg"",""time"":4450.800000190735},{""stimulus"":""run_exp/static/images/task_images/rocket-06.jpg"",""time"":5567},{""stimulus"":""run_exp/static/images/task_images/rocket-07.jpg"",""time"":6680.60000038147},{""stimulus"":""run_exp/static/images/task_images/rocket-08.jpg"",""time"":7788.800000190735},{""stimulus"":""run_exp/static/images/task_images/rocket-09.jpg"",""time"":8902}]",[],0,,,,,,,,,,,,,,
instruc_alien_greet,15,138747,0.0-7.0-6.0,"""event"",""trial"",""time""
""fullscreenenter"",""1"",""3810""
","
","
","""event"",""trial"",""time""
""fullscreenenter"",""1"",""3810""
","
",,null,run_exp/static/audio/clip_6_alien.m4a,null,"<p>When you arrive at a new planet, the alien who owns the treasure mine on that planet will greet you!</p><p>The better an alien takes care of their mine the easier it is to dig for gems. Some aliens take better care of their mine than others. So, you won’t get exactly the same amount of gems on each planet.</p><p>What the alien looks like does not tell you anything about how many gems there are on the planet.</p><br><p><img src=""run_exp/static/images/task_images/aliens/instructions_aliens/planet/alien_planet-1.jpg""  height=""600"" width=""auto""></p>",,,,,,,,,,,,,,,,,,,,,,,
instruc_alien_greet,16,140819,0.0-7.0-7.0,"""event"",""trial"",""time""
""fullscreenenter"",""1"",""3810""
","
","
","""event"",""trial"",""time""
""fullscreenenter"",""1"",""3810""
","
",,2069.9,"<p>When you arrive at a new planet, the alien who owns the treasure mine on that planet will greet you!</p><p>The better an alien takes care of their mine the easier it is to dig for gems. Some aliens take better care of their mine than others. So, you won’t get exactly the same amount of gems on each planet.</p><p>What the alien looks like does not tell you anything about how many gems there are on the planet.</p><br><p><img src=""run_exp/static/images/task_images/aliens/instructions_aliens/planet/alien_planet-1.jpg""  height=""600"" width=""auto""></p>",,,,,,,1,,,,,,,,,,,,,,,,,,
html-keyboard-response,17,141123,0.0-7.0-8.0,"""event"",""trial"",""time""
""fullscreenenter"",""1"",""3810""
","
","
","""event"",""trial"",""time""
""fullscreenenter"",""1"",""3810""
","
",,302.8999996,"<p>When you arrive at a new planet, the alien who owns the treasure mine on that planet will greet you!</p><p>The better an alien takes care of their mine the easier it is to dig for gems. Some aliens take better care of their mine than others. So, you won’t get exactly the same amount of gems on each planet.</p><p>What the alien looks like does not tell you anything about how many gems there are on the planet.</p><br><p><img src=""run_exp/static/images/task_images/aliens/instructions_aliens/planet/alien_planet-1.jpg""  height=""600"" width=""auto""></p><button class=""jspsych-html-btn-unchosen""><img src=""run_exp/static/images/task_images/planet-01.jpg"" height=""50""></button><button class=""jspsych-html-btn-chosen""><img src=""run_exp/static/images/task_images/planet-02.jpg"" height=""50""></button><p><b>[press the space bar to lock in your answer]<b><br></p>",32,,,,,,,,,,,,,,,,,,,,,,,,
time_out,18,152207,0.0-8.0-0.0,"""event"",""trial"",""time""
""fullscreenenter"",""1"",""3810""
","
","
","""event"",""trial"",""time""
""fullscreenenter"",""1"",""3810""
","
",,null,run_exp/static/audio/clip_7_timeout.m4a,null,"<p>If you don't make your choice fast enough, you’ll have to wait a few seconds before you can make another one.</p><p>You can’t dig for more gems or travel to new planets. You just have to sit and wait.</p><br><p><img src='run_exp/static/images/task_images/time_out.jpg'  height='600' width='auto'></p>",,,,,,,,,,,,,,,,,,,,,,,
time_out,19,155533,0.0-8.0-1.0,"""event"",""trial"",""time""
""fullscreenenter"",""1"",""3810""
","
","
","""event"",""trial"",""time""
""fullscreenenter"",""1"",""3810""
","
",,3324,"<p>If you don't make your choice fast enough, you’ll have to wait a few seconds before you can make another one.</p><p>You can’t dig for more gems or travel to new planets. You just have to sit and wait.</p><br><p><img src='run_exp/static/images/task_images/time_out.jpg'  height='600' width='auto'></p>",,,,,,,1,,,,,,,,,,,,,,,,,,
html-keyboard-response,20,156010,0.0-8.0-2.0,"""event"",""trial"",""time""
""fullscreenenter"",""1"",""3810""
","
","
","""event"",""trial"",""time""
""fullscreenenter"",""1"",""3810""
","
",,474.9000006,"<p>If you don't make your choice fast enough, you’ll have to wait a few seconds before you can make another one.</p><p>You can’t dig for more gems or travel to new planets. You just have to sit and wait.</p><br><p><img src='run_exp/static/images/task_images/time_out.jpg'  height='600' width='auto'></p><button class=""jspsych-html-btn-unchosen""><img src=""run_exp/static/images/task_images/planet-01.jpg"" height=""50""></button><button class=""jspsych-html-btn-chosen""><img src=""run_exp/static/images/task_images/planet-02.jpg"" height=""50""></button><p><b>[press the space bar to lock in your answer]<b><br></p>",32,,,,,,,,,,,,,,,,,,,,,,,,
instruc_break,21,171686,0.0-9.0-0.0,"""event"",""trial"",""time""
""fullscreenenter"",""1"",""3810""
","
","
","""event"",""trial"",""time""
""fullscreenenter"",""1"",""3810""
","
",,null,run_exp/static/audio/clip_8_break.m4a,null,"<p> After digging and traveling for a while, you’ll be able to take a break at home base. </p><p>The game will last 20 minutes no matter what.</p><p>You will visit home base every 5 minutes, so, you will visit home base three times during the game.</p><br><p><img src='run_exp/static/images/task_images/home_base.jpg' height='600' width='auto'></p>",,,,,,,,,,,,,,,,,,,,,,,
instruc_break,22,173169,0.0-9.0-1.0,"""event"",""trial"",""time""
""fullscreenenter"",""1"",""3810""
","
","
","""event"",""trial"",""time""
""fullscreenenter"",""1"",""3810""
","
",,1480.2,"<p> After digging and traveling for a while, you’ll be able to take a break at home base. </p><p>The game will last 20 minutes no matter what.</p><p>You will visit home base every 5 minutes, so, you will visit home base three times during the game.</p><br><p><img src='run_exp/static/images/task_images/home_base.jpg' height='600' width='auto'></p>",,,,,,,1,,,,,,,,,,,,,,,,,,
html-keyboard-response,23,173764,0.0-9.0-2.0,"""event"",""trial"",""time""
""fullscreenenter"",""1"",""3810""
","
","
","""event"",""trial"",""time""
""fullscreenenter"",""1"",""3810""
","
",,593.1999998,"<p> After digging and traveling for a while, you’ll be able to take a break at home base. </p><p>The game will last 20 minutes no matter what.</p><p>You will visit home base every 5 minutes, so, you will visit home base three times during the game.</p><br><p><img src='run_exp/static/images/task_images/home_base.jpg' height='600' width='auto'></p><button class=""jspsych-html-btn-unchosen""><img src=""run_exp/static/images/task_images/planet-01.jpg"" height=""50""></button><button class=""jspsych-html-btn-chosen""><img src=""run_exp/static/images/task_images/planet-02.jpg"" height=""50""></button><p><b>[press the space bar to lock in your answer]<b><br></p>",32,,,,,,,,,,,,,,,,,,,,,,,,
instruc_prac_game,24,183886,0.0-10.0-0.0,"""event"",""trial"",""time""
""fullscreenenter"",""1"",""3810""
","
","
","""event"",""trial"",""time""
""fullscreenenter"",""1"",""3810""
","
",,null,run_exp/static/audio/clip_9_practice.m4a,null,"<p> Are you ready to play a practice game? </p> <p>In this practice game, you'll be digging up barrels of gems. But, in the real game, you'll be digging up the gems themselves. </p>",,,,,,,,,,,,,,,,,,,,,,,
html-button-response,25,186895,0.0-10.0-1.0,"""event"",""trial"",""time""
""fullscreenenter"",""1"",""3810""
","
","
","""event"",""trial"",""time""
""fullscreenenter"",""1"",""3810""
","
",,3007,"<p> Are you ready to play a practice game? </p> <p>In this practice game, you'll be digging up barrels of gems. But, in the real game, you'll be digging up the gems themselves. </p>",,,,,,,0,,,,,,,,,,,,,,,,,,
alien_welcome_prac,26,191913,0.0-11.0-0.0,"""event"",""trial"",""time""
""fullscreenenter"",""1"",""3810""
","
","
","""event"",""trial"",""time""
""fullscreenenter"",""1"",""3810""
","
",,null,run_exp/static/images/task_images/aliens/practice_aliens/planet/alien_planet-5.jpg,null,,,,,,,,,,,,,,,,,,,,,,,,
land_prac,27,192429,0.0-11.0-1.0,"""event"",""trial"",""time""
""fullscreenenter"",""1"",""3810""
","
","
","""event"",""trial"",""time""
""fullscreenenter"",""1"",""3810""
","
",,null,run_exp/static/images/task_images/land.jpg,null,,,,,,,103,,,0,,,,,,,,,,,,,,
dig_prac,28,194435,0.0-11.0-2.0,"""event"",""trial"",""time""
""fullscreenenter"",""1"",""3810""
","
","
","""event"",""trial"",""time""
""fullscreenenter"",""1"",""3810""
","
",,,,,,,,,,,,"[{""stimulus"":""run_exp/static/images/task_images/dig.jpg"",""time"":0.2999992370605469},{""stimulus"":""run_exp/static/images/task_images/land.jpg"",""time"":676.7999992370605},{""stimulus"":""run_exp/static/images/task_images/dig.jpg"",""time"":1338.8999996185303}]",[],,,,,,,,,,,,,,,
harvest_prac,29,195446,0.0-11.0-3.0,"""event"",""trial"",""time""
""fullscreenenter"",""1"",""3810""
","
","
","""event"",""trial"",""time""
""fullscreenenter"",""1"",""3810""
","
",,null,run_exp/static/images/task_images/barrel_text.jpg,null,,,,,,,,,,,,,,,,,,,,,,,,
decision_prac,30,196853,0.0-11.0-4.0,"""event"",""trial"",""time""
""fullscreenenter"",""1"",""3810""
","
","
","""event"",""trial"",""time""
""fullscreenenter"",""1"",""3810""
","
",,1404.9,run_exp/static/images/task_images/land.jpg,65,,,,,,,,,,,1,,,,,,,,,,,,,
dig_prac,31,198865,0.0-12.0-0.0,"""event"",""trial"",""time""
""fullscreenenter"",""1"",""3810""
","
","
","""event"",""trial"",""time""
""fullscreenenter"",""1"",""3810""
","
",,,,,,,,,,,,"[{""stimulus"":""run_exp/static/images/task_images/dig.jpg"",""time"":0.19999980926513672},{""stimulus"":""run_exp/static/images/task_images/land.jpg"",""time"":667.6000003814697},{""stimulus"":""run_exp/static/images/task_images/dig.jpg"",""time"":1345.1999998092651}]",[],,,,,,,,,,,,,,,
harvest_prac,32,199866,0.0-12.0-1.0,"""event"",""trial"",""time""
""fullscreenenter"",""1"",""3810""
","
","
","""event"",""trial"",""time""
""fullscreenenter"",""1"",""3810""
","
",,null,run_exp/static/images/task_images/barrel_text.jpg,null,,,,,,,,,,,,,,,,,,,,,,,,
decision_prac,33,200506,0.0-12.0-2.0,"""event"",""trial"",""time""
""fullscreenenter"",""1"",""3810""
","
","
","""event"",""trial"",""time""
""fullscreenenter"",""1"",""3810""
","
",,638.4000006,run_exp/static/images/task_images/land.jpg,65,,,,,,,,,,,2,,,,,,,,,,,,,
dig_prac,34,202514,0.0-13.0-0.0,"""event"",""trial"",""time""
""fullscreenenter"",""1"",""3810""
","
","
","""event"",""trial"",""time""
""fullscreenenter"",""1"",""3810""
","
",,,,,,,,,,,,"[{""stimulus"":""run_exp/static/images/task_images/dig.jpg"",""time"":0.09999942779541016},{""stimulus"":""run_exp/static/images/task_images/land.jpg"",""time"":676.0999994277954},{""stimulus"":""run_exp/static/images/task_images/dig.jpg"",""time"":1338.7999992370605}]",[],,,,,,,,,,,,,,,
harvest_prac,35,203531,0.0-13.0-1.0,"""event"",""trial"",""time""
""fullscreenenter"",""1"",""3810""
","
","
","""event"",""trial"",""time""
""fullscreenenter"",""1"",""3810""
","
",,null,run_exp/static/images/task_images/barrel_text.jpg,null,,,,,,,,,,,,,,,,,,,,,,,,
decision_prac,36,203884,0.0-13.0-2.0,"""event"",""trial"",""time""
""fullscreenenter"",""1"",""3810""
","
","
","""event"",""trial"",""time""
""fullscreenenter"",""1"",""3810""
","
",,352.6000004,run_exp/static/images/task_images/land.jpg,65,,,,,,,,,,,3,,,,,,,,,,,,,
dig_prac,37,205892,0.0-14.0-0.0,"""event"",""trial"",""time""
""fullscreenenter"",""1"",""3810""
","
","
","""event"",""trial"",""time""
""fullscreenenter"",""1"",""3810""
","
",,,,,,,,,,,,"[{""stimulus"":""run_exp/static/images/task_images/dig.jpg"",""time"":0.3000001907348633},{""stimulus"":""run_exp/static/images/task_images/land.jpg"",""time"":677.2000007629395},{""stimulus"":""run_exp/static/images/task_images/dig.jpg"",""time"":1349.6000003814697}]",[],,,,,,,,,,,,,,,
harvest_prac,38,206895,0.0-14.0-1.0,"""event"",""trial"",""time""
""fullscreenenter"",""1"",""3810""
","
","
","""event"",""trial"",""time""
""fullscreenenter"",""1"",""3810""
","
",,null,run_exp/static/images/task_images/barrel_text.jpg,null,,,,,,,,,,,,,,,,,,,,,,,,
decision_prac,39,207182,0.0-14.0-2.0,"""event"",""trial"",""time""
""fullscreenenter"",""1"",""3810""
","
","
","""event"",""trial"",""time""
""fullscreenenter"",""1"",""3810""
","
",,285.8999996,run_exp/static/images/task_images/land.jpg,76,,,,,,,,,,,4,,,,,,,,,,,,,
travel,40,216901,0.0-15.0-0.0,"""event"",""trial"",""time""
""fullscreenenter"",""1"",""3810""
","
","
","""event"",""trial"",""time""
""fullscreenenter"",""1"",""3810""
","
",,,,,,,,,,,,"[{""stimulus"":""run_exp/static/images/task_images/rocket-01.jpg"",""time"":0.19999980926513672},{""stimulus"":""run_exp/static/images/task_images/rocket-02.jpg"",""time"":1080.1000003814697},{""stimulus"":""run_exp/static/images/task_images/rocket-03.jpg"",""time"":2159.699999809265},{""stimulus"":""run_exp/static/images/task_images/rocket-04.jpg"",""time"":3241.300000190735},{""stimulus"":""run_exp/static/images/task_images/rocket-05.jpg"",""time"":4328.300000190735},{""stimulus"":""run_exp/static/images/task_images/rocket-06.jpg"",""time"":5410.39999961853},{""stimulus"":""run_exp/static/images/task_images/rocket-07.jpg"",""time"":6477.699999809265},{""stimulus"":""run_exp/static/images/task_images/rocket-08.jpg"",""time"":7557.60000038147},{""stimulus"":""run_exp/static/images/task_images/rocket-09.jpg"",""time"":8639}]",[],0,,,,,,,,,,,,,,
alien_welcome_prac,41,221915,0.0-15.0-1.0,"""event"",""trial"",""time""
""fullscreenenter"",""1"",""3810""
","
","
","""event"",""trial"",""time""
""fullscreenenter"",""1"",""3810""
","
",,null,run_exp/static/images/task_images/aliens/practice_aliens/planet/alien_planet-4.jpg,null,,,,,,,,,,,,,,,,,,,,,,,,
land_prac,42,222418,0.0-15.0-2.0,"""event"",""trial"",""time""
""fullscreenenter"",""1"",""3810""
","
","
","""event"",""trial"",""time""
""fullscreenenter"",""1"",""3810""
","
",,null,run_exp/static/images/task_images/land.jpg,null,,,,,,,94,,,0,,,,,,,,,,,,,,
dig_prac,43,224428,0.0-15.0-3.0,"""event"",""trial"",""time""
""fullscreenenter"",""1"",""3810""
","
","
","""event"",""trial"",""time""
""fullscreenenter"",""1"",""3810""
","
",,,,,,,,,,,,"[{""stimulus"":""run_exp/static/images/task_images/dig.jpg"",""time"":0.3000001907348633},{""stimulus"":""run_exp/static/images/task_images/land.jpg"",""time"":678.8000001907349},{""stimulus"":""run_exp/static/images/task_images/dig.jpg"",""time"":1343.7000007629395}]",[],,,,,,,,,,,,,,,
harvest_prac,44,225444,0.0-15.0-4.0,"""event"",""trial"",""time""
""fullscreenenter"",""1"",""3810""
","
","
","""event"",""trial"",""time""
""fullscreenenter"",""1"",""3810""
","
",,null,run_exp/static/images/task_images/barrel_text.jpg,null,,,,,,,,,,,,,,,,,,,,,,,,
decision_prac,45,225898,0.0-15.0-5.0,"""event"",""trial"",""time""
""fullscreenenter"",""1"",""3810""
","
","
","""event"",""trial"",""time""
""fullscreenenter"",""1"",""3810""
","
",,453.1000004,run_exp/static/images/task_images/land.jpg,65,,,,,,,,,,,,1,,,,,,,,,,,,
quiz_instruc,46,227761,0.0-16.0-0.0,"""event"",""trial"",""time""
""fullscreenenter"",""1"",""3810""
","
","
","""event"",""trial"",""time""
""fullscreenenter"",""1"",""3810""
","
",,1860,run_exp/static/audio/clip_10_quiz.m4a,,,,,,,0,,,,,,,,,,,,,,,,,,
instruc_repeat,47,270518,0.0-16.0-1.0,"""event"",""trial"",""time""
""fullscreenenter"",""1"",""3810""
","
","
","""event"",""trial"",""time""
""fullscreenenter"",""1"",""3810""
","
",,null,"<p> Are you ready to play a practice game? </p> <p>In this practice game, you'll be digging up barrels of gems. But, in the real game, you'll be digging up the gems themselves. </p>",null,"<p>In this game, your goal is to collect as many gems as you can. That’s how you will win bonus money. </p> <p>The entire game will last 20 minutes no matter how many gems you collect or how many planets you visit. </p><p>To stay on a planet and dig again, press the letter A on your keyboard. To leave for a new planet, press the letter L.</p><p>The more you dig on a planet, the fewer gems you’ll get with each dig which is why you might consider leaving for a new planet. </p><p>When you arrive at a new planet, you’ll be greeted by an alien. What the alien looks like does not tell you anything about how much treasure is on the planet. </p>",,,,,,,,,,,,,,,,,,,,,,,
instruc_repeat_continue,48,273863,0.0-16.0-2.0,"""event"",""trial"",""time""
""fullscreenenter"",""1"",""3810""
","
","
","""event"",""trial"",""time""
""fullscreenenter"",""1"",""3810""
","
",,3343.2,"<p> Are you ready to play a practice game? </p> <p>In this practice game, you'll be digging up barrels of gems. But, in the real game, you'll be digging up the gems themselves. </p>",,,,,,,0,,,,,,,,,,,,,,,,,,
quiz_q_1_ask,49,286322,0.0-16.0-3.0,"""event"",""trial"",""time""
""fullscreenenter"",""1"",""3810""
","
","
","""event"",""trial"",""time""
""fullscreenenter"",""1"",""3810""
","
",,12457.7,run_exp/static/audio/clip_11_q1_ask.m4a,,,,,,,2,,,,,,,,,,,,,,,,,,
quiz_q_1_fb_correct,50,290158,0.0-17.0-0.0,"""event"",""trial"",""time""
""fullscreenenter"",""1"",""3810""
","
","
","""event"",""trial"",""time""
""fullscreenenter"",""1"",""3810""
","
",,null,run_exp/static/audio/clip_12_q1_correct.m4a,null,<p>That’s correct. You win extra money by collecting more gems.</p>,,,,,,,,,,,,,,,,,,,,,,,
quiz_q_2_ask,51,302861,0.0-17.0-1.0,"""event"",""trial"",""time""
""fullscreenenter"",""1"",""3810""
","
","
","""event"",""trial"",""time""
""fullscreenenter"",""1"",""3810""
","
",,12700.2,run_exp/static/audio/clip_14_q2_ask.m4a,,,,,,,1,,,,,,,,,,,,,,,,,,
quiz_q_2_fb_correct,52,306857,0.0-18.0-0.0,"""event"",""trial"",""time""
""fullscreenenter"",""1"",""3810""
","
","
","""event"",""trial"",""time""
""fullscreenenter"",""1"",""3810""
","
",,null,run_exp/static/audio/clip_15_q2_correct.m4a,null,<p>That’s correct. The experiment is 20 minutes no matter what.</p>,,,,,,,,,,,,,,,,,,,,,,,
quiz_q_3_ask,53,319625,0.0-18.0-1.0,"""event"",""trial"",""time""
""fullscreenenter"",""1"",""3810""
","
","
","""event"",""trial"",""time""
""fullscreenenter"",""1"",""3810""
","
",,12766.3,run_exp/static/audio/clip_17_q3_ask.m4a,,,,,,,1,,,,,,,,,,,,,,,,,,
quiz_q_3_fb_correct,54,323618,0.0-19.0-0.0,"""event"",""trial"",""time""
""fullscreenenter"",""1"",""3810""
","
","
","""event"",""trial"",""time""
""fullscreenenter"",""1"",""3810""
","
",,null,run_exp/static/audio/clip_18_q3_correct.m4a,null,<p> That’s correct. You press the letter L to travel to a new planet.</p>,,,,,,,,,,,,,,,,,,,,,,,
quiz_q_4_ask,55,334744,0.0-19.0-1.0,"""event"",""trial"",""time""
""fullscreenenter"",""1"",""3810""
","
","
","""event"",""trial"",""time""
""fullscreenenter"",""1"",""3810""
","
",,11124.3,run_exp/static/audio/clip_20_q4_ask.m4a,,,,,,,0,,,,,,,,,,,,,,,,,,
quiz_q_4_fb_correct,56,340078,0.0-20.0-0.0,"""event"",""trial"",""time""
""fullscreenenter"",""1"",""3810""
","
","
","""event"",""trial"",""time""
""fullscreenenter"",""1"",""3810""
","
",,null,run_exp/static/audio/clip_21_q4_correct.m4a,null,<p> That’s correct. The more you dig on a planet the fewer gems you’ll get with each dig. </p>,,,,,,,,,,,,,,,,,,,,,,,
quiz_q_5_ask,57,350310,0.0-20.0-1.0,"""event"",""trial"",""time""
""fullscreenenter"",""1"",""3810""
","
","
","""event"",""trial"",""time""
""fullscreenenter"",""1"",""3810""
","
",,10229.8,run_exp/static/audio/clip_23_q5_ask.m4a,,,,,,,1,,,,,,,,,,,,,,,,,,
quiz_q_5_fb_correct,58,355318,0.0-21.0-0.0,"""event"",""trial"",""time""
""fullscreenenter"",""1"",""3810""
","
","
","""event"",""trial"",""time""
""fullscreenenter"",""1"",""3810""
","
",,null,run_exp/static/audio/clip_24_q5_correct.m4a,null,<p> That’s correct. The alien tells you nothing about how much treasure is on the planet.</p>,,,,,,,,,,,,,,,,,,,,,,,
quiz_correct,59,358778,0.0-22.0-0.0,"""event"",""trial"",""time""
""fullscreenenter"",""1"",""3810""
","
","
","""event"",""trial"",""time""
""fullscreenenter"",""1"",""3810""
","
",,null,run_exp/static/audio/clip_26_correct_quiz.m4a,null,,,,,,,,,,,,,,,,,,,,,,,,
quiz_correct_continue,60,362098,0.0-22.0-1.0,"""event"",""trial"",""time""
""fullscreenenter"",""1"",""3810""
","
","
","""event"",""trial"",""time""
""fullscreenenter"",""1"",""3810""
","
",,3318.2,<p>Good job! You're now ready to move on to the real game!</p>,,,,,,,0,,,,,,,,,,,,,,,,,,
audio-keyboard-response,61,372218,0.0-22.0-2.0,"""event"",""trial"",""time""
""fullscreenenter"",""1"",""3810""
","
","
","""event"",""trial"",""time""
""fullscreenenter"",""1"",""3810""
","
",,null,run_exp/static/audio/clip_28_real_game.m4a,null,,,,,,,,,,,,,,,,,,,,,,,,
instruc_begin_exp_contine,62,373312,0.0-22.0-3.0,"""event"",""trial"",""time""
""fullscreenenter"",""1"",""3810""
","
","
","""event"",""trial"",""time""
""fullscreenenter"",""1"",""3810""
","
",,1092.299999,"<p>Now that you know how  to dig for space treasure and travel to new planets,you can start exploring! </p><p>Do you want to go over the instructions again or get started with the real game?</p>",,,,,,,1,,,,,,1,,,,,,,,,,,,
alien_welcome,63,378319,0.0-23.0-0.0,"""event"",""trial"",""time""
""fullscreenenter"",""1"",""3810""
","
","
","""event"",""trial"",""time""
""fullscreenenter"",""1"",""3810""
","
",,null,run_exp/static/images/task_images/aliens/old_aliens/planet/alien_planet-32.jpg,null,,,,,,,,,,,,,32,"32,49,65,41,78,4,44,63,74,39,45,70,9,62,54,56,48,14,42,72,66,53,76,3,37,61,69,35,22,55,57,13,51,23,8,58,21,47,36,7,77",,,,,,,,,,
land,64,378834,0.0-23.0-1.0,"""event"",""trial"",""time""
""fullscreenenter"",""1"",""3810""
","
","
","""event"",""trial"",""time""
""fullscreenenter"",""1"",""3810""
","
",,null,run_exp/static/images/task_images/land.jpg,null,,,,,,,97,,,1,,,,,,,,,,,,,,
dig,65,380839,0.0-23.0-2.0,"""event"",""trial"",""time""
""fullscreenenter"",""1"",""3810""
","
","
","""event"",""trial"",""time""
""fullscreenenter"",""1"",""3810""
","
",,,,,,,,,,,,"[{""stimulus"":""run_exp/static/images/task_images/dig.jpg"",""time"":0.39999961853027344},{""stimulus"":""run_exp/static/images/task_images/land.jpg"",""time"":678.6999998092651},{""stimulus"":""run_exp/static/images/task_images/dig.jpg"",""time"":1339.8000001907349}]",[],1,,,,,,,,,,,,,,
harvest,66,381850,0.0-23.0-3.0,"""event"",""trial"",""time""
""fullscreenenter"",""1"",""3810""
","
","
","""event"",""trial"",""time""
""fullscreenenter"",""1"",""3810""
","
",,null,run_exp/static/images/task_images/gems/97.jpg,null,,,,,,,18,,,1,,,,,97,0.181931303,0.18556701,,,,,,,
decision,67,382467,0.0-23.0-4.0,"""event"",""trial"",""time""
""fullscreenenter"",""1"",""3810""
","
","
","""event"",""trial"",""time""
""fullscreenenter"",""1"",""3810""
","
",,614.6999998,run_exp/static/images/task_images/land.jpg,65,,,,,,,18,,,1,,,,,,,,9154,1,0,FALSE,,,
dig,68,384866,0.0-24.0-0.0,"""event"",""trial"",""time""
""fullscreenenter"",""1"",""3810""
","
","
","""event"",""trial"",""time""
""fullscreenenter"",""1"",""3810""
","
",,,,,,,,,,,,"[{""stimulus"":""run_exp/static/images/task_images/dig.jpg"",""time"":0.19999980926513672},{""stimulus"":""run_exp/static/images/task_images/land.jpg"",""time"":803.3000001907349},{""stimulus"":""run_exp/static/images/task_images/dig.jpg"",""time"":1602.1000003814697}]",[],1,,,,,,,,,,,,,,
harvest,69,385874,0.0-24.0-1.0,"""event"",""trial"",""time""
""fullscreenenter"",""1"",""3810""
","
","
","""event"",""trial"",""time""
""fullscreenenter"",""1"",""3810""
","
",,null,run_exp/static/images/task_images/gems/18.jpg,null,,,,,,,4,,,1,,,,,18,0.224890476,0.222222222,,,,,,,
decision,70,386674,0.0-24.0-2.0,"""event"",""trial"",""time""
""fullscreenenter"",""1"",""3810""
","
","
","""event"",""trial"",""time""
""fullscreenenter"",""1"",""3810""
","
",,798.7000008,run_exp/static/images/task_images/land.jpg,65,,,,,,,4,,,1,,,,,,,,13361,1,1,FALSE,,,
dig,71,388880,0.0-25.0-0.0,"""event"",""trial"",""time""
""fullscreenenter"",""1"",""3810""
","
","
","""event"",""trial"",""time""
""fullscreenenter"",""1"",""3810""
","
",,,,,,,,,,,,"[{""stimulus"":""run_exp/static/images/task_images/dig.jpg"",""time"":0.19999980926513672},{""stimulus"":""run_exp/static/images/task_images/land.jpg"",""time"":744},{""stimulus"":""run_exp/static/images/task_images/dig.jpg"",""time"":1468.3999996185303}]",[],1,,,,,,,,,,,,,,
harvest,72,389889,0.0-25.0-1.0,"""event"",""trial"",""time""
""fullscreenenter"",""1"",""3810""
","
","
","""event"",""trial"",""time""
""fullscreenenter"",""1"",""3810""
","
",,null,run_exp/static/images/task_images/gems/4.jpg,null,,,,,,,1,,,1,,,,,4,0.177905868,0.25,,,,,,,
decision,73,390453,0.0-25.0-2.0,"""event"",""trial"",""time""
""fullscreenenter"",""1"",""3810""
","
","
","""event"",""trial"",""time""
""fullscreenenter"",""1"",""3810""
","
",,562.3000002,run_exp/static/images/task_images/land.jpg,76,,,,,,,1,,,1,,,,,,,,17140,1,2,TRUE,,,
travel,74,399902,0.0-26.0-0.0,"""event"",""trial"",""time""
""fullscreenenter"",""1"",""3810""
","
","
","""event"",""trial"",""time""
""fullscreenenter"",""1"",""3810""
","
",,,,,,,,,,,,"[{""stimulus"":""run_exp/static/images/task_images/rocket-01.jpg"",""time"":0.19999980926513672},{""stimulus"":""run_exp/static/images/task_images/rocket-02.jpg"",""time"":1059.2999992370605},{""stimulus"":""run_exp/static/images/task_images/rocket-03.jpg"",""time"":2111.199999809265},{""stimulus"":""run_exp/static/images/task_images/rocket-04.jpg"",""time"":3159.0999994277954},{""stimulus"":""run_exp/static/images/task_images/rocket-05.jpg"",""time"":4194},{""stimulus"":""run_exp/static/images/task_images/rocket-06.jpg"",""time"":5252.699999809265},{""stimulus"":""run_exp/static/images/task_images/rocket-07.jpg"",""time"":6294.39999961853},{""stimulus"":""run_exp/static/images/task_images/rocket-08.jpg"",""time"":7343.299999237061},{""stimulus"":""run_exp/static/images/task_images/rocket-09.jpg"",""time"":8391.39999961853}]",[],1,,,,,,,,,,,,,,
alien_welcome,75,404913,0.0-26.0-1.0,"""event"",""trial"",""time""
""fullscreenenter"",""1"",""3810""
","
","
","""event"",""trial"",""time""
""fullscreenenter"",""1"",""3810""
","
",,null,run_exp/static/images/task_images/aliens/old_aliens/planet/alien_planet-49.jpg,null,,,,,,,,,,,,,49,"32,49,65,41,78,4,44,63,74,39,45,70,9,62,54,56,48,14,42,72,66,53,76,3,37,61,69,35,22,55,57,13,51,23,8,58,21,47,36,7,77",,,,,,,,,,
land,76,405426,0.0-26.0-2.0,"""event"",""trial"",""time""
""fullscreenenter"",""1"",""3810""
","
","
","""event"",""trial"",""time""
""fullscreenenter"",""1"",""3810""
","
",,null,run_exp/static/images/task_images/land.jpg,null,,,,,,,97,,,2,,,,,,,,,,,,,,
dig,77,407436,0.0-26.0-3.0,"""event"",""trial"",""time""
""fullscreenenter"",""1"",""3810""
","
","
","""event"",""trial"",""time""
""fullscreenenter"",""1"",""3810""
","
",,,,,,,,,,,,"[{""stimulus"":""run_exp/static/images/task_images/dig.jpg"",""time"":0.3000001907348633},{""stimulus"":""run_exp/static/images/task_images/land.jpg"",""time"":679.5999994277954},{""stimulus"":""run_exp/static/images/task_images/dig.jpg"",""time"":1341}]",[],2,,,,,,,,,,,,,,
harvest,78,408450,0.0-26.0-4.0,"""event"",""trial"",""time""
""fullscreenenter"",""1"",""3810""
","
","
","""event"",""trial"",""time""
""fullscreenenter"",""1"",""3810""
","
",,null,run_exp/static/images/task_images/gems/97.jpg,null,,,,,,,17,,,2,,,,,97,0.177156727,0.175257732,,,,,,,
decision,79,408972,0.0-26.0-5.0,"""event"",""trial"",""time""
""fullscreenenter"",""1"",""3810""
","
","
","""event"",""trial"",""time""
""fullscreenenter"",""1"",""3810""
","
",,521.4000006,run_exp/static/images/task_images/land.jpg,65,,,,,,,17,,,2,,,,,,,,35659,1,0,FALSE,,,
dig,80,411456,0.0-27.0-0.0,"""event"",""trial"",""time""
""fullscreenenter"",""1"",""3810""
","
","
","""event"",""trial"",""time""
""fullscreenenter"",""1"",""3810""
","
",,,,,,,,,,,,"[{""stimulus"":""run_exp/static/images/task_images/dig.jpg"",""time"":0.09999942779541016},{""stimulus"":""run_exp/static/images/task_images/land.jpg"",""time"":827},{""stimulus"":""run_exp/static/images/task_images/dig.jpg"",""time"":1656.6999998092651}]",[],2,,,,,,,,,,,,,,
harvest,81,412470,0.0-27.0-1.0,"""event"",""trial"",""time""
""fullscreenenter"",""1"",""3810""
","
","
","""event"",""trial"",""time""
""fullscreenenter"",""1"",""3810""
","
",,null,run_exp/static/images/task_images/gems/17.jpg,null,,,,,,,3,,,2,,,,,17,0.167941016,0.176470588,,,,,,,
decision,82,412893,0.0-27.0-2.0,"""event"",""trial"",""time""
""fullscreenenter"",""1"",""3810""
","
","
","""event"",""trial"",""time""
""fullscreenenter"",""1"",""3810""
","
",,421.5,run_exp/static/images/task_images/land.jpg,65,,,,,,,3,,,2,,,,,,,,39581,1,1,FALSE,,,
dig,83,415487,0.0-28.0-0.0,"""event"",""trial"",""time""
""fullscreenenter"",""1"",""3810""
","
","
","""event"",""trial"",""time""
""fullscreenenter"",""1"",""3810""
","
",,,,,,,,,,,,"[{""stimulus"":""run_exp/static/images/task_images/dig.jpg"",""time"":0.20000076293945312},{""stimulus"":""run_exp/static/images/task_images/land.jpg"",""time"":875.2000007629395},{""stimulus"":""run_exp/static/images/task_images/dig.jpg"",""time"":1729.6000003814697}]",[],2,,,,,,,,,,,,,,
harvest,84,416504,0.0-28.0-1.0,"""event"",""trial"",""time""
""fullscreenenter"",""1"",""3810""
","
","
","""event"",""trial"",""time""
""fullscreenenter"",""1"",""3810""
","
",,null,run_exp/static/images/task_images/gems/3.jpg,null,,,,,,,1,,,2,,,,,3,0.176186561,0.333333333,,,,,,,
decision,85,416801,0.0-28.0-2.0,"""event"",""trial"",""time""
""fullscreenenter"",""1"",""3810""
","
","
","""event"",""trial"",""time""
""fullscreenenter"",""1"",""3810""
","
",,294.8999996,run_exp/static/images/task_images/land.jpg,76,,,,,,,1,,,2,,,,,,,,43488,1,2,TRUE,,,
travel,86,426506,0.0-29.0-0.0,"""event"",""trial"",""time""
""fullscreenenter"",""1"",""3810""
","
","
","""event"",""trial"",""time""
""fullscreenenter"",""1"",""3810""
","
",,,,,,,,,,,,"[{""stimulus"":""run_exp/static/images/task_images/rocket-01.jpg"",""time"":0.19999980926513672},{""stimulus"":""run_exp/static/images/task_images/rocket-02.jpg"",""time"":1089.1000003814697},{""stimulus"":""run_exp/static/images/task_images/rocket-03.jpg"",""time"":2158},{""stimulus"":""run_exp/static/images/task_images/rocket-04.jpg"",""time"":3235.1000003814697},{""stimulus"":""run_exp/static/images/task_images/rocket-05.jpg"",""time"":4314.5},{""stimulus"":""run_exp/static/images/task_images/rocket-06.jpg"",""time"":5393.300000190735},{""stimulus"":""run_exp/static/images/task_images/rocket-07.jpg"",""time"":6476.5},{""stimulus"":""run_exp/static/images/task_images/rocket-08.jpg"",""time"":7558.900000572205},{""stimulus"":""run_exp/static/images/task_images/rocket-09.jpg"",""time"":8625.10000038147}]",[],2,,,,,,,,,,,,,,
alien_welcome,87,431520,0.0-29.0-1.0,"""event"",""trial"",""time""
""fullscreenenter"",""1"",""3810""
","
","
","""event"",""trial"",""time""
""fullscreenenter"",""1"",""3810""
","
",,null,run_exp/static/images/task_images/aliens/old_aliens/planet/alien_planet-65.jpg,null,,,,,,,,,,,,,65,"32,49,65,41,78,4,44,63,74,39,45,70,9,62,54,56,48,14,42,72,66,53,76,3,37,61,69,35,22,55,57,13,51,23,8,58,21,47,36,7,77",,,,,,,,,,
land,88,432037,0.0-29.0-2.0,"""event"",""trial"",""time""
""fullscreenenter"",""1"",""3810""
","
","
","""event"",""trial"",""time""
""fullscreenenter"",""1"",""3810""
","
",,null,run_exp/static/images/task_images/land.jpg,null,,,,,,,104,,,3,,,,,,,,,,,,,,
dig,89,434048,0.0-29.0-3.0,"""event"",""trial"",""time""
""fullscreenenter"",""1"",""3810""
","
","
","""event"",""trial"",""time""
""fullscreenenter"",""1"",""3810""
","
",,,,,,,,,,,,"[{""stimulus"":""run_exp/static/images/task_images/dig.jpg"",""time"":0.39999961853027344},{""stimulus"":""run_exp/static/images/task_images/land.jpg"",""time"":680},{""stimulus"":""run_exp/static/images/task_images/dig.jpg"",""time"":1344.6000003814697}]",[],3,,,,,,,,,,,,,,
harvest,90,435065,0.0-29.0-4.0,"""event"",""trial"",""time""
""fullscreenenter"",""1"",""3810""
","
","
","""event"",""trial"",""time""
""fullscreenenter"",""1"",""3810""
","
",,null,run_exp/static/images/task_images/gems/104.jpg,null,,,,,,,50,,,3,,,,,104,0.476221879,0.480769231,,,,,,,
decision,91,435351,0.0-29.0-5.0,"""event"",""trial"",""time""
""fullscreenenter"",""1"",""3810""
","
","
","""event"",""trial"",""time""
""fullscreenenter"",""1"",""3810""
","
",,284.5999994,run_exp/static/images/task_images/land.jpg,65,,,,,,,50,,,3,,,,,,,,62038,1,0,FALSE,,,
dig,92,438082,0.0-30.0-0.0,"""event"",""trial"",""time""
""fullscreenenter"",""1"",""3810""
","
","
","""event"",""trial"",""time""
""fullscreenenter"",""1"",""3810""
","
",,,,,,,,,,,,"[{""stimulus"":""run_exp/static/images/task_images/dig.jpg"",""time"":0.19999980926513672},{""stimulus"":""run_exp/static/images/task_images/land.jpg"",""time"":913.8999996185303},{""stimulus"":""run_exp/static/images/task_images/dig.jpg"",""time"":1817.8999996185303}]",[],3,,,,,,,,,,,,,,
harvest,93,439088,0.0-30.0-1.0,"""event"",""trial"",""time""
""fullscreenenter"",""1"",""3810""
","
","
","""event"",""trial"",""time""
""fullscreenenter"",""1"",""3810""
","
",,null,run_exp/static/images/task_images/gems/50.jpg,null,,,,,,,23,,,3,,,,,50,0.467850422,0.46,,,,,,,
decision,94,439436,0.0-30.0-2.0,"""event"",""trial"",""time""
""fullscreenenter"",""1"",""3810""
","
","
","""event"",""trial"",""time""
""fullscreenenter"",""1"",""3810""
","
",,347.3000002,run_exp/static/images/task_images/land.jpg,65,,,,,,,23,,,3,,,,,,,,66123,1,1,FALSE,,,
dig,95,442095,0.0-31.0-0.0,"""event"",""trial"",""time""
""fullscreenenter"",""1"",""3810""
","
","
","""event"",""trial"",""time""
""fullscreenenter"",""1"",""3810""
","
",,,,,,,,,,,,"[{""stimulus"":""run_exp/static/images/task_images/dig.jpg"",""time"":0.19999980926513672},{""stimulus"":""run_exp/static/images/task_images/land.jpg"",""time"":890},{""stimulus"":""run_exp/static/images/task_images/dig.jpg"",""time"":1775.6000003814697}]",[],3,,,,,,,,,,,,,,
harvest,96,443110,0.0-31.0-1.0,"""event"",""trial"",""time""
""fullscreenenter"",""1"",""3810""
","
","
","""event"",""trial"",""time""
""fullscreenenter"",""1"",""3810""
","
",,null,run_exp/static/images/task_images/gems/23.jpg,null,,,,,,,11,,,3,,,,,23,0.476797858,0.47826087,,,,,,,
decision,97,443492,0.0-31.0-2.0,"""event"",""trial"",""time""
""fullscreenenter"",""1"",""3810""
","
","
","""event"",""trial"",""time""
""fullscreenenter"",""1"",""3810""
","
",,380.1000004,run_exp/static/images/task_images/land.jpg,65,,,,,,,11,,,3,,,,,,,,70179,1,2,FALSE,,,
dig,98,446128,0.0-32.0-0.0,"""event"",""trial"",""time""
""fullscreenenter"",""1"",""3810""
","
","
","""event"",""trial"",""time""
""fullscreenenter"",""1"",""3810""
","
",,,,,,,,,,,,"[{""stimulus"":""run_exp/static/images/task_images/dig.jpg"",""time"":0.09999942779541016},{""stimulus"":""run_exp/static/images/task_images/land.jpg"",""time"":885},{""stimulus"":""run_exp/static/images/task_images/dig.jpg"",""time"":1752}]",[],3,,,,,,,,,,,,,,
harvest,99,447140,0.0-32.0-1.0,"""event"",""trial"",""time""
""fullscreenenter"",""1"",""3810""
","
","
","""event"",""trial"",""time""
""fullscreenenter"",""1"",""3810""
","
",,null,run_exp/static/images/task_images/gems/11.jpg,null,,,,,,,6,,,3,,,,,11,0.501860039,0.545454545,,,,,,,
decision,100,447401,0.0-32.0-2.0,"""event"",""trial"",""time""
""fullscreenenter"",""1"",""3810""
","
","
","""event"",""trial"",""time""
""fullscreenenter"",""1"",""3810""
","
",,259.6000004,run_exp/static/images/task_images/land.jpg,76,,,,,,,6,,,3,,,,,,,,74088,1,3,TRUE,,,
travel,101,457150,0.0-33.0-0.0,"""event"",""trial"",""time""
""fullscreenenter"",""1"",""3810""
","
","
","""event"",""trial"",""time""
""fullscreenenter"",""1"",""3810""
","
",,,,,,,,,,,,"[{""stimulus"":""run_exp/static/images/task_images/rocket-01.jpg"",""time"":0.10000038146972656},{""stimulus"":""run_exp/static/images/task_images/rocket-02.jpg"",""time"":1097.3000001907349},{""stimulus"":""run_exp/static/images/task_images/rocket-03.jpg"",""time"":2164.9000005722046},{""stimulus"":""run_exp/static/images/task_images/rocket-04.jpg"",""time"":3254.300000190735},{""stimulus"":""run_exp/static/images/task_images/rocket-05.jpg"",""time"":4335},{""stimulus"":""run_exp/static/images/task_images/rocket-06.jpg"",""time"":5417.10000038147},{""stimulus"":""run_exp/static/images/task_images/rocket-07.jpg"",""time"":6499.700000762939},{""stimulus"":""run_exp/static/images/task_images/rocket-08.jpg"",""time"":7580.5},{""stimulus"":""run_exp/static/images/task_images/rocket-09.jpg"",""time"":8664}]",[],3,,,,,,,,,,,,,,
alien_welcome,102,462155,0.0-33.0-1.0,"""event"",""trial"",""time""
""fullscreenenter"",""1"",""3810""
","
","
","""event"",""trial"",""time""
""fullscreenenter"",""1"",""3810""
","
",,null,run_exp/static/images/task_images/aliens/old_aliens/planet/alien_planet-41.jpg,null,,,,,,,,,,,,,41,"32,49,65,41,78,4,44,63,74,39,45,70,9,62,54,56,48,14,42,72,66,53,76,3,37,61,69,35,22,55,57,13,51,23,8,58,21,47,36,7,77",,,,,,,,,,
land,103,462660,0.0-33.0-2.0,"""event"",""trial"",""time""
""fullscreenenter"",""1"",""3810""
","
","
","""event"",""trial"",""time""
""fullscreenenter"",""1"",""3810""
","
",,null,run_exp/static/images/task_images/land.jpg,null,,,,,,,95,,,4,,,,,,,,,,,,,,
dig,104,464672,0.0-33.0-3.0,"""event"",""trial"",""time""
""fullscreenenter"",""1"",""3810""
","
","
","""event"",""trial"",""time""
""fullscreenenter"",""1"",""3810""
","
",,,,,,,,,,,,"[{""stimulus"":""run_exp/static/images/task_images/dig.jpg"",""time"":0.39999961853027344},{""stimulus"":""run_exp/static/images/task_images/land.jpg"",""time"":679.5},{""stimulus"":""run_exp/static/images/task_images/dig.jpg"",""time"":1342.3999996185303}]",[],4,,,,,,,,,,,,,,
harvest,105,465690,0.0-33.0-4.0,"""event"",""trial"",""time""
""fullscreenenter"",""1"",""3810""
","
","
","""event"",""trial"",""time""
""fullscreenenter"",""1"",""3810""
","
",,null,run_exp/static/images/task_images/gems/95.jpg,null,,,,,,,53,,,4,,,,,95,0.562577543,0.557894737,,,,,,,
decision,106,466163,0.0-33.0-5.0,"""event"",""trial"",""time""
""fullscreenenter"",""1"",""3810""
","
","
","""event"",""trial"",""time""
""fullscreenenter"",""1"",""3810""
","
",,471.3999996,run_exp/static/images/task_images/land.jpg,65,,,,,,,53,,,4,,,,,,,,92850,1,0,FALSE,,,
dig,107,468694,0.0-34.0-0.0,"""event"",""trial"",""time""
""fullscreenenter"",""1"",""3810""
","
","
","""event"",""trial"",""time""
""fullscreenenter"",""1"",""3810""
","
",,,,,,,,,,,,"[{""stimulus"":""run_exp/static/images/task_images/dig.jpg"",""time"":0.09999942779541016},{""stimulus"":""run_exp/static/images/task_images/land.jpg"",""time"":842.8000001907349},{""stimulus"":""run_exp/static/images/task_images/dig.jpg"",""time"":1699.8000001907349}]",[],4,,,,,,,,,,,,,,
harvest,108,469706,0.0-34.0-1.0,"""event"",""trial"",""time""
""fullscreenenter"",""1"",""3810""
","
","
","""event"",""trial"",""time""
""fullscreenenter"",""1"",""3810""
","
",,null,run_exp/static/images/task_images/gems/53.jpg,null,,,,,,,21,,,4,,,,,53,0.396852973,0.396226415,,,,,,,
decision,109,470256,0.0-34.0-2.0,"""event"",""trial"",""time""
""fullscreenenter"",""1"",""3810""
","
","
","""event"",""trial"",""time""
""fullscreenenter"",""1"",""3810""
","
",,554.1999998,run_exp/static/images/task_images/land.jpg,65,,,,,,,21,,,4,,,,,,,,96943,1,1,FALSE,,,
dig,110,472717,0.0-35.0-0.0,"""event"",""trial"",""time""
""fullscreenenter"",""1"",""3810""
","
","
","""event"",""trial"",""time""
""fullscreenenter"",""1"",""3810""
","
",,,,,,,,,,,,"[{""stimulus"":""run_exp/static/images/task_images/dig.jpg"",""time"":0.19999980926513672},{""stimulus"":""run_exp/static/images/task_images/land.jpg"",""time"":816.2999992370605},{""stimulus"":""run_exp/static/images/task_images/dig.jpg"",""time"":1647.3999996185303}]",[],4,,,,,,,,,,,,,,
harvest,111,473731,0.0-35.0-1.0,"""event"",""trial"",""time""
""fullscreenenter"",""1"",""3810""
","
","
","""event"",""trial"",""time""
""fullscreenenter"",""1"",""3810""
","
",,null,run_exp/static/images/task_images/gems/21.jpg,null,,,,,,,9,,,4,,,,,21,0.410157981,0.428571429,,,,,,,
decision,112,474246,0.0-35.0-2.0,"""event"",""trial"",""time""
""fullscreenenter"",""1"",""3810""
","
","
","""event"",""trial"",""time""
""fullscreenenter"",""1"",""3810""
","
",,513.6999998,run_exp/static/images/task_images/land.jpg,65,,,,,,,9,,,4,,,,,,,,100933,1,2,FALSE,,,
dig,113,476745,0.0-36.0-0.0,"""event"",""trial"",""time""
""fullscreenenter"",""1"",""3810""
","
","
","""event"",""trial"",""time""
""fullscreenenter"",""1"",""3810""
","
",,,,,,,,,,,,"[{""stimulus"":""run_exp/static/images/task_images/dig.jpg"",""time"":0.20000076293945312},{""stimulus"":""run_exp/static/images/task_images/land.jpg"",""time"":829.3000001907349},{""stimulus"":""run_exp/static/images/task_images/dig.jpg"",""time"":1670.3000001907349}]",[],4,,,,,,,,,,,,,,
harvest,114,477750,0.0-36.0-1.0,"""event"",""trial"",""time""
""fullscreenenter"",""1"",""3810""
","
","
","""event"",""trial"",""time""
""fullscreenenter"",""1"",""3810""
","
",,null,run_exp/static/images/task_images/gems/9.jpg,null,,,,,,,5,,,4,,,,,9,0.541225205,0.555555556,,,,,,,
decision,115,478026,0.0-36.0-2.0,"""event"",""trial"",""time""
""fullscreenenter"",""1"",""3810""
","
","
","""event"",""trial"",""time""
""fullscreenenter"",""1"",""3810""
","
",,274.5,run_exp/static/images/task_images/land.jpg,76,,,,,,,5,,,4,,,,,,,,104713,1,3,TRUE,,,
travel,116,487751,0.0-37.0-0.0,"""event"",""trial"",""time""
""fullscreenenter"",""1"",""3810""
","
","
","""event"",""trial"",""time""
""fullscreenenter"",""1"",""3810""
","
",,,,,,,,,,,,"[{""stimulus"":""run_exp/static/images/task_images/rocket-01.jpg"",""time"":0.19999980926513672},{""stimulus"":""run_exp/static/images/task_images/rocket-02.jpg"",""time"":1081.1999998092651},{""stimulus"":""run_exp/static/images/task_images/rocket-03.jpg"",""time"":2161.5},{""stimulus"":""run_exp/static/images/task_images/rocket-04.jpg"",""time"":3246.6000003814697},{""stimulus"":""run_exp/static/images/task_images/rocket-05.jpg"",""time"":4329.5},{""stimulus"":""run_exp/static/images/task_images/rocket-06.jpg"",""time"":5409.199999809265},{""stimulus"":""run_exp/static/images/task_images/rocket-07.jpg"",""time"":6491.5},{""stimulus"":""run_exp/static/images/task_images/rocket-08.jpg"",""time"":7573.900000572205},{""stimulus"":""run_exp/static/images/task_images/rocket-09.jpg"",""time"":8653}]",[],4,,,,,,,,,,,,,,
alien_welcome,117,492760,0.0-37.0-1.0,"""event"",""trial"",""time""
""fullscreenenter"",""1"",""3810""
","
","
","""event"",""trial"",""time""
""fullscreenenter"",""1"",""3810""
","
",,null,run_exp/static/images/task_images/aliens/old_aliens/planet/alien_planet-78.jpg,null,,,,,,,,,,,,,78,"32,49,65,41,78,4,44,63,74,39,45,70,9,62,54,56,48,14,42,72,66,53,76,3,37,61,69,35,22,55,57,13,51,23,8,58,21,47,36,7,77",,,,,,,,,,
land,118,493263,0.0-37.0-2.0,"""event"",""trial"",""time""
""fullscreenenter"",""1"",""3810""
","
","
","""event"",""trial"",""time""
""fullscreenenter"",""1"",""3810""
","
",,null,run_exp/static/images/task_images/land.jpg,null,,,,,,,98,,,5,,,,,,,,,,,,,,
dig,119,495270,0.0-37.0-3.0,"""event"",""trial"",""time""
""fullscreenenter"",""1"",""3810""
","
","
","""event"",""trial"",""time""
""fullscreenenter"",""1"",""3810""
","
",,,,,,,,,,,,"[{""stimulus"":""run_exp/static/images/task_images/dig.jpg"",""time"":0.5},{""stimulus"":""run_exp/static/images/task_images/land.jpg"",""time"":677.3000001907349},{""stimulus"":""run_exp/static/images/task_images/dig.jpg"",""time"":1340.0999994277954}]",[],5,,,,,,,,,,,,,,
harvest,120,496277,0.0-37.0-4.0,"""event"",""trial"",""time""
""fullscreenenter"",""1"",""3810""
","
","
","""event"",""trial"",""time""
""fullscreenenter"",""1"",""3810""
","
",,null,run_exp/static/images/task_images/gems/98.jpg,null,,,,,,,50,,,5,,,,,98,0.512375384,0.510204082,,,,,,,
decision,121,496585,0.0-37.0-5.0,"""event"",""trial"",""time""
""fullscreenenter"",""1"",""3810""
","
","
","""event"",""trial"",""time""
""fullscreenenter"",""1"",""3810""
","
",,306.7000008,run_exp/static/images/task_images/land.jpg,65,,,,,,,50,,,5,,,,,,,,123272,1,0,FALSE,,,
dig,122,499295,0.0-38.0-0.0,"""event"",""trial"",""time""
""fullscreenenter"",""1"",""3810""
","
","
","""event"",""trial"",""time""
""fullscreenenter"",""1"",""3810""
","
",,,,,,,,,,,,"[{""stimulus"":""run_exp/static/images/task_images/dig.jpg"",""time"":0.19999980926513672},{""stimulus"":""run_exp/static/images/task_images/land.jpg"",""time"":902.8000001907349},{""stimulus"":""run_exp/static/images/task_images/dig.jpg"",""time"":1797.1999998092651}]",[],5,,,,,,,,,,,,,,
harvest,123,500304,0.0-38.0-1.0,"""event"",""trial"",""time""
""fullscreenenter"",""1"",""3810""
","
","
","""event"",""trial"",""time""
""fullscreenenter"",""1"",""3810""
","
",,null,run_exp/static/images/task_images/gems/50.jpg,null,,,,,,,26,,,5,,,,,50,0.51054196,0.52,,,,,,,
decision,124,500532,0.0-38.0-2.0,"""event"",""trial"",""time""
""fullscreenenter"",""1"",""3810""
","
","
","""event"",""trial"",""time""
""fullscreenenter"",""1"",""3810""
","
",,226.5,run_exp/static/images/task_images/land.jpg,65,,,,,,,26,,,5,,,,,,,,127219,1,1,FALSE,,,
dig,125,503319,0.0-39.0-0.0,"""event"",""trial"",""time""
""fullscreenenter"",""1"",""3810""
","
","
","""event"",""trial"",""time""
""fullscreenenter"",""1"",""3810""
","
",,,,,,,,,,,,"[{""stimulus"":""run_exp/static/images/task_images/dig.jpg"",""time"":0.20000076293945312},{""stimulus"":""run_exp/static/images/task_images/land.jpg"",""time"":935.4000005722046},{""stimulus"":""run_exp/static/images/task_images/dig.jpg"",""time"":1853.7000007629395}]",[],5,,,,,,,,,,,,,,
harvest,126,504321,0.0-39.0-1.0,"""event"",""trial"",""time""
""fullscreenenter"",""1"",""3810""
","
","
","""event"",""trial"",""time""
""fullscreenenter"",""1"",""3810""
","
",,null,run_exp/static/images/task_images/gems/26.jpg,null,,,,,,,13,,,5,,,,,26,0.503569574,0.5,,,,,,,
decision,127,504552,0.0-39.0-2.0,"""event"",""trial"",""time""
""fullscreenenter"",""1"",""3810""
","
","
","""event"",""trial"",""time""
""fullscreenenter"",""1"",""3810""
","
",,229.5,run_exp/static/images/task_images/land.jpg,65,,,,,,,13,,,5,,,,,,,,131239,1,2,FALSE,,,
dig,128,507333,0.0-40.0-0.0,"""event"",""trial"",""time""
""fullscreenenter"",""1"",""3810""
","
","
","""event"",""trial"",""time""
""fullscreenenter"",""1"",""3810""
","
",,,,,,,,,,,,"[{""stimulus"":""run_exp/static/images/task_images/dig.jpg"",""time"":0},{""stimulus"":""run_exp/static/images/task_images/land.jpg"",""time"":928.6000003814697},{""stimulus"":""run_exp/static/images/task_images/dig.jpg"",""time"":1861.3000001907349}]",[],5,,,,,,,,,,,,,,
harvest,129,508350,0.0-40.0-1.0,"""event"",""trial"",""time""
""fullscreenenter"",""1"",""3810""
","
","
","""event"",""trial"",""time""
""fullscreenenter"",""1"",""3810""
","
",,null,run_exp/static/images/task_images/gems/13.jpg,null,,,,,,,6,,,5,,,,,13,0.475393367,0.461538462,,,,,,,
decision,130,509681,0.0-40.0-2.0,"""event"",""trial"",""time""
""fullscreenenter"",""1"",""3810""
","
","
","""event"",""trial"",""time""
""fullscreenenter"",""1"",""3810""
","
",,1329.400001,run_exp/static/images/task_images/land.jpg,65,,,,,,,6,,,5,,,,,,,,136368,1,3,FALSE,,,
dig,131,511354,0.0-41.0-0.0,"""event"",""trial"",""time""
""fullscreenenter"",""1"",""3810""
","
","
","""event"",""trial"",""time""
""fullscreenenter"",""1"",""3810""
","
",,,,,,,,,,,,"[{""stimulus"":""run_exp/static/images/task_images/dig.jpg"",""time"":0.2999992370605469},{""stimulus"":""run_exp/static/images/task_images/land.jpg"",""time"":557.0999994277954},{""stimulus"":""run_exp/static/images/task_images/dig.jpg"",""time"":1116.2999992370605}]",[],5,,,,,,,,,,,,,,
harvest,132,512362,0.0-41.0-1.0,"""event"",""trial"",""time""
""fullscreenenter"",""1"",""3810""
","
","
","""event"",""trial"",""time""
""fullscreenenter"",""1"",""3810""
","
",,null,run_exp/static/images/task_images/gems/6.jpg,null,,,,,,,3,,,5,,,,,6,0.495022135,0.5,,,,,,,
decision,133,512409,0.0-41.0-2.0,"""event"",""trial"",""time""
""fullscreenenter"",""1"",""3810""
","
","
","""event"",""trial"",""time""
""fullscreenenter"",""1"",""3810""
","
",,46.10000038,run_exp/static/images/task_images/land.jpg,76,,,,,,,3,,,5,,,,,,,,139096,1,4,TRUE,,,
travel,134,522356,0.0-42.0-0.0,"""event"",""trial"",""time""
""fullscreenenter"",""1"",""3810""
","
","
","""event"",""trial"",""time""
""fullscreenenter"",""1"",""3810""
","
",,,,,,,,,,,,"[{""stimulus"":""run_exp/static/images/task_images/rocket-01.jpg"",""time"":0.10000038146972656},{""stimulus"":""run_exp/static/images/task_images/rocket-02.jpg"",""time"":1110.6000003814697},{""stimulus"":""run_exp/static/images/task_images/rocket-03.jpg"",""time"":2216.699999809265},{""stimulus"":""run_exp/static/images/task_images/rocket-04.jpg"",""time"":3317.1000003814697},{""stimulus"":""run_exp/static/images/task_images/rocket-05.jpg"",""time"":4429},{""stimulus"":""run_exp/static/images/task_images/rocket-06.jpg"",""time"":5527},{""stimulus"":""run_exp/static/images/task_images/rocket-07.jpg"",""time"":6640.60000038147},{""stimulus"":""run_exp/static/images/task_images/rocket-08.jpg"",""time"":7738.400000572205},{""stimulus"":""run_exp/static/images/task_images/rocket-09.jpg"",""time"":8841.800000190735}]",[],5,,,,,,,,,,,,,,
alien_welcome,135,527367,0.0-42.0-1.0,"""event"",""trial"",""time""
""fullscreenenter"",""1"",""3810""
","
","
","""event"",""trial"",""time""
""fullscreenenter"",""1"",""3810""
","
",,null,run_exp/static/images/task_images/aliens/old_aliens/planet/alien_planet-4.jpg,null,,,,,,,,,,,,,4,"32,49,65,41,78,4,44,63,74,39,45,70,9,62,54,56,48,14,42,72,66,53,76,3,37,61,69,35,22,55,57,13,51,23,8,58,21,47,36,7,77",,,,,,,,,,
land,136,527885,0.0-42.0-2.0,"""event"",""trial"",""time""
""fullscreenenter"",""1"",""3810""
","
","
","""event"",""trial"",""time""
""fullscreenenter"",""1"",""3810""
","
",,null,run_exp/static/images/task_images/land.jpg,null,,,,,,,95,,,6,,,,,,,,,,,,,,
dig,137,529891,0.0-42.0-3.0,"""event"",""trial"",""time""
""fullscreenenter"",""1"",""3810""
","
","
","""event"",""trial"",""time""
""fullscreenenter"",""1"",""3810""
","
",,,,,,,,,,,,"[{""stimulus"":""run_exp/static/images/task_images/dig.jpg"",""time"":0.3000001907348633},{""stimulus"":""run_exp/static/images/task_images/land.jpg"",""time"":676.6000003814697},{""stimulus"":""run_exp/static/images/task_images/dig.jpg"",""time"":1339.1000003814697}]",[],6,,,,,,,,,,,,,,
harvest,138,530912,0.0-42.0-4.0,"""event"",""trial"",""time""
""fullscreenenter"",""1"",""3810""
","
","
","""event"",""trial"",""time""
""fullscreenenter"",""1"",""3810""
","
",,null,run_exp/static/images/task_images/gems/95.jpg,null,,,,,,,85,,,6,,,,,95,0.897111413,0.894736842,,,,,,,
decision,139,531398,0.0-42.0-5.0,"""event"",""trial"",""time""
""fullscreenenter"",""1"",""3810""
","
","
","""event"",""trial"",""time""
""fullscreenenter"",""1"",""3810""
","
",,484.5,run_exp/static/images/task_images/land.jpg,65,,,,,,,85,,,6,,,,,,,,158085,1,0,FALSE,,,
dig,140,533920,0.0-43.0-0.0,"""event"",""trial"",""time""
""fullscreenenter"",""1"",""3810""
","
","
","""event"",""trial"",""time""
""fullscreenenter"",""1"",""3810""
","
",,,,,,,,,,,,"[{""stimulus"":""run_exp/static/images/task_images/dig.jpg"",""time"":0},{""stimulus"":""run_exp/static/images/task_images/land.jpg"",""time"":853.0999994277954},{""stimulus"":""run_exp/static/images/task_images/dig.jpg"",""time"":1688.1999998092651}]",[],6,,,,,,,,,,,,,,
harvest,141,534930,0.0-43.0-1.0,"""event"",""trial"",""time""
""fullscreenenter"",""1"",""3810""
","
","
","""event"",""trial"",""time""
""fullscreenenter"",""1"",""3810""
","
",,null,run_exp/static/images/task_images/gems/85.jpg,null,,,,,,,55,,,6,,,,,85,0.651688855,0.647058824,,,,,,,
decision,142,535026,0.0-43.0-2.0,"""event"",""trial"",""time""
""fullscreenenter"",""1"",""3810""
","
","
","""event"",""trial"",""time""
""fullscreenenter"",""1"",""3810""
","
",,95.60000038,run_exp/static/images/task_images/land.jpg,65,,,,,,,55,,,6,,,,,,,,161713,1,1,FALSE,,,
dig,143,537939,0.0-44.0-0.0,"""event"",""trial"",""time""
""fullscreenenter"",""1"",""3810""
","
","
","""event"",""trial"",""time""
""fullscreenenter"",""1"",""3810""
","
",,,,,,,,,,,,"[{""stimulus"":""run_exp/static/images/task_images/dig.jpg"",""time"":0.19999980926513672},{""stimulus"":""run_exp/static/images/task_images/land.jpg"",""time"":981.1999998092651},{""stimulus"":""run_exp/static/images/task_images/dig.jpg"",""time"":1949.6000003814697}]",[],6,,,,,,,,,,,,,,
harvest,144,538943,0.0-44.0-1.0,"""event"",""trial"",""time""
""fullscreenenter"",""1"",""3810""
","
","
","""event"",""trial"",""time""
""fullscreenenter"",""1"",""3810""
","
",,null,run_exp/static/images/task_images/gems/55.jpg,null,,,,,,,45,,,6,,,,,55,0.817261668,0.818181818,,,,,,,
decision,145,539511,0.0-44.0-2.0,"""event"",""trial"",""time""
""fullscreenenter"",""1"",""3810""
","
","
","""event"",""trial"",""time""
""fullscreenenter"",""1"",""3810""
","
",,566.8999996,run_exp/static/images/task_images/land.jpg,65,,,,,,,45,,,6,,,,,,,,166199,1,2,FALSE,,,
dig,146,541960,0.0-45.0-0.0,"""event"",""trial"",""time""
""fullscreenenter"",""1"",""3810""
","
","
","""event"",""trial"",""time""
""fullscreenenter"",""1"",""3810""
","
",,,,,,,,,,,,"[{""stimulus"":""run_exp/static/images/task_images/dig.jpg"",""time"":0.20000076293945312},{""stimulus"":""run_exp/static/images/task_images/land.jpg"",""time"":813.5},{""stimulus"":""run_exp/static/images/task_images/dig.jpg"",""time"":1636.7000007629395}]",[],6,,,,,,,,,,,,,,
harvest,147,542975,0.0-45.0-1.0,"""event"",""trial"",""time""
""fullscreenenter"",""1"",""3810""
","
","
","""event"",""trial"",""time""
""fullscreenenter"",""1"",""3810""
","
",,null,run_exp/static/images/task_images/gems/45.jpg,null,,,,,,,39,,,6,,,,,45,0.859659499,0.866666667,,,,,,,
decision,148,543661,0.0-45.0-2.0,"""event"",""trial"",""time""
""fullscreenenter"",""1"",""3810""
","
","
","""event"",""trial"",""time""
""fullscreenenter"",""1"",""3810""
","
",,685,run_exp/static/images/task_images/land.jpg,65,,,,,,,39,,,6,,,,,,,,170348,1,3,FALSE,,,
dig,149,545976,0.0-46.0-0.0,"""event"",""trial"",""time""
""fullscreenenter"",""1"",""3810""
","
","
","""event"",""trial"",""time""
""fullscreenenter"",""1"",""3810""
","
",,,,,,,,,,,,"[{""stimulus"":""run_exp/static/images/task_images/dig.jpg"",""time"":0},{""stimulus"":""run_exp/static/images/task_images/land.jpg"",""time"":786.7000007629395},{""stimulus"":""run_exp/static/images/task_images/dig.jpg"",""time"":1557.7000007629395}]",[],6,,,,,,,,,,,,,,
harvest,150,546991,0.0-46.0-1.0,"""event"",""trial"",""time""
""fullscreenenter"",""1"",""3810""
","
","
","""event"",""trial"",""time""
""fullscreenenter"",""1"",""3810""
","
",,null,run_exp/static/images/task_images/gems/39.jpg,null,,,,,,,31,,,6,,,,,39,0.803660561,0.794871795,,,,,,,
decision,151,547574,0.0-46.0-2.0,"""event"",""trial"",""time""
""fullscreenenter"",""1"",""3810""
","
","
","""event"",""trial"",""time""
""fullscreenenter"",""1"",""3810""
","
",,581.5,run_exp/static/images/task_images/land.jpg,65,,,,,,,31,,,6,,,,,,,,174261,1,4,FALSE,,,
dig,152,550004,0.0-47.0-0.0,"""event"",""trial"",""time""
""fullscreenenter"",""1"",""3810""
","
","
","""event"",""trial"",""time""
""fullscreenenter"",""1"",""3810""
","
",,,,,,,,,,,,"[{""stimulus"":""run_exp/static/images/task_images/dig.jpg"",""time"":0.10000038146972656},{""stimulus"":""run_exp/static/images/task_images/land.jpg"",""time"":807.5},{""stimulus"":""run_exp/static/images/task_images/dig.jpg"",""time"":1622.4000005722046}]",[],6,,,,,,,,,,,,,,
harvest,153,551016,0.0-47.0-1.0,"""event"",""trial"",""time""
""fullscreenenter"",""1"",""3810""
","
","
","""event"",""trial"",""time""
""fullscreenenter"",""1"",""3810""
","
",,null,run_exp/static/images/task_images/gems/31.jpg,null,,,,,,,28,,,6,,,,,31,0.90132516,0.903225806,,,,,,,
decision,154,551528,0.0-47.0-2.0,"""event"",""trial"",""time""
""fullscreenenter"",""1"",""3810""
","
","
","""event"",""trial"",""time""
""fullscreenenter"",""1"",""3810""
","
",,510.5,run_exp/static/images/task_images/land.jpg,65,,,,,,,28,,,6,,,,,,,,178216,1,5,FALSE,,,
dig,155,554032,0.0-48.0-0.0,"""event"",""trial"",""time""
""fullscreenenter"",""1"",""3810""
","
","
","""event"",""trial"",""time""
""fullscreenenter"",""1"",""3810""
","
",,,,,,,,,,,,"[{""stimulus"":""run_exp/static/images/task_images/dig.jpg"",""time"":0.20000076293945312},{""stimulus"":""run_exp/static/images/task_images/land.jpg"",""time"":830.5},{""stimulus"":""run_exp/static/images/task_images/dig.jpg"",""time"":1675.7000007629395}]",[],6,,,,,,,,,,,,,,
harvest,156,555047,0.0-48.0-1.0,"""event"",""trial"",""time""
""fullscreenenter"",""1"",""3810""
","
","
","""event"",""trial"",""time""
""fullscreenenter"",""1"",""3810""
","
",,null,run_exp/static/images/task_images/gems/28.jpg,null,,,,,,,24,,,6,,,,,28,0.854951477,0.857142857,,,,,,,
decision,157,555579,0.0-48.0-2.0,"""event"",""trial"",""time""
""fullscreenenter"",""1"",""3810""
","
","
","""event"",""trial"",""time""
""fullscreenenter"",""1"",""3810""
","
",,530.8999996,run_exp/static/images/task_images/land.jpg,65,,,,,,,24,,,6,,,,,,,,182266,1,6,FALSE,,,
dig,158,558064,0.0-49.0-0.0,"""event"",""trial"",""time""
""fullscreenenter"",""1"",""3810""
","
","
","""event"",""trial"",""time""
""fullscreenenter"",""1"",""3810""
","
",,,,,,,,,,,,"[{""stimulus"":""run_exp/static/images/task_images/dig.jpg"",""time"":0.10000038146972656},{""stimulus"":""run_exp/static/images/task_images/land.jpg"",""time"":824.8999996185303},{""stimulus"":""run_exp/static/images/task_images/dig.jpg"",""time"":1657.5}]",[],6,,,,,,,,,,,,,,
harvest,159,559070,0.0-49.0-1.0,"""event"",""trial"",""time""
""fullscreenenter"",""1"",""3810""
","
","
","""event"",""trial"",""time""
""fullscreenenter"",""1"",""3810""
","
",,null,run_exp/static/images/task_images/gems/24.jpg,null,,,,,,,17,,,6,,,,,24,0.709401521,0.708333333,,,,,,,
decision,160,559520,0.0-49.0-2.0,"""event"",""trial"",""time""
""fullscreenenter"",""1"",""3810""
","
","
","""event"",""trial"",""time""
""fullscreenenter"",""1"",""3810""
","
",,448.8000002,run_exp/static/images/task_images/land.jpg,65,,,,,,,17,,,6,,,,,,,,186207,1,7,FALSE,,,
dig,161,562076,0.0-50.0-0.0,"""event"",""trial"",""time""
""fullscreenenter"",""1"",""3810""
","
","
","""event"",""trial"",""time""
""fullscreenenter"",""1"",""3810""
","
",,,,,,,,,,,,"[{""stimulus"":""run_exp/static/images/task_images/dig.jpg"",""time"":0.10000038146972656},{""stimulus"":""run_exp/static/images/task_images/land.jpg"",""time"":855},{""stimulus"":""run_exp/static/images/task_images/dig.jpg"",""time"":1709.9000005722046}]",[],6,,,,,,,,,,,,,,
harvest,162,563088,0.0-50.0-1.0,"""event"",""trial"",""time""
""fullscreenenter"",""1"",""3810""
","
","
","""event"",""trial"",""time""
""fullscreenenter"",""1"",""3810""
","
",,null,run_exp/static/images/task_images/gems/17.jpg,null,,,,,,,14,,,6,,,,,17,0.807461239,0.823529412,,,,,,,
decision,163,563403,0.0-50.0-2.0,"""event"",""trial"",""time""
""fullscreenenter"",""1"",""3810""
","
","
","""event"",""trial"",""time""
""fullscreenenter"",""1"",""3810""
","
",,313.8999996,run_exp/static/images/task_images/land.jpg,76,,,,,,,14,,,6,,,,,,,,190090,1,8,TRUE,,,
travel,164,573095,0.0-51.0-0.0,"""event"",""trial"",""time""
""fullscreenenter"",""1"",""3810""
","
","
","""event"",""trial"",""time""
""fullscreenenter"",""1"",""3810""
","
",,,,,,,,,,,,"[{""stimulus"":""run_exp/static/images/task_images/rocket-01.jpg"",""time"":0.19999980926513672},{""stimulus"":""run_exp/static/images/task_images/rocket-02.jpg"",""time"":1077.8999996185303},{""stimulus"":""run_exp/static/images/task_images/rocket-03.jpg"",""time"":2153.1000003814697},{""stimulus"":""run_exp/static/images/task_images/rocket-04.jpg"",""time"":3229.8999996185303},{""stimulus"":""run_exp/static/images/task_images/rocket-05.jpg"",""time"":4305.199999809265},{""stimulus"":""run_exp/static/images/task_images/rocket-06.jpg"",""time"":5381.60000038147},{""stimulus"":""run_exp/static/images/task_images/rocket-07.jpg"",""time"":6459.800000190735},{""stimulus"":""run_exp/static/images/task_images/rocket-08.jpg"",""time"":7544.89999961853},{""stimulus"":""run_exp/static/images/task_images/rocket-09.jpg"",""time"":8609.800000190735}]",[],6,,,,,,,,,,,,,,
alien_welcome,165,578110,0.0-51.0-1.0,"""event"",""trial"",""time""
""fullscreenenter"",""1"",""3810""
","
","
","""event"",""trial"",""time""
""fullscreenenter"",""1"",""3810""
","
",,null,run_exp/static/images/task_images/aliens/old_aliens/planet/alien_planet-44.jpg,null,,,,,,,,,,,,,44,"32,49,65,41,78,4,44,63,74,39,45,70,9,62,54,56,48,14,42,72,66,53,76,3,37,61,69,35,22,55,57,13,51,23,8,58,21,47,36,7,77",,,,,,,,,,
land,166,578626,0.0-51.0-2.0,"""event"",""trial"",""time""
""fullscreenenter"",""1"",""3810""
","
","
","""event"",""trial"",""time""
""fullscreenenter"",""1"",""3810""
","
",,null,run_exp/static/images/task_images/land.jpg,null,,,,,,,106,,,7,,,,,,,,,,,,,,
dig,167,580630,0.0-51.0-3.0,"""event"",""trial"",""time""
""fullscreenenter"",""1"",""3810""
","
","
","""event"",""trial"",""time""
""fullscreenenter"",""1"",""3810""
","
",,,,,,,,,,,,"[{""stimulus"":""run_exp/static/images/task_images/dig.jpg"",""time"":0.40000057220458984},{""stimulus"":""run_exp/static/images/task_images/land.jpg"",""time"":683.1999998092651},{""stimulus"":""run_exp/static/images/task_images/dig.jpg"",""time"":1341.8000001907349}]",[],7,,,,,,,,,,,,,,
harvest,168,581642,0.0-51.0-4.0,"""event"",""trial"",""time""
""fullscreenenter"",""1"",""3810""
","
","
","""event"",""trial"",""time""
""fullscreenenter"",""1"",""3810""
","
",,null,run_exp/static/images/task_images/gems/106.jpg,null,,,,,,,86,,,7,,,,,106,0.808249401,0.811320755,,,,,,,
decision,169,582020,0.0-51.0-5.0,"""event"",""trial"",""time""
""fullscreenenter"",""1"",""3810""
","
","
","""event"",""trial"",""time""
""fullscreenenter"",""1"",""3810""
","
",,376,run_exp/static/images/task_images/land.jpg,65,,,,,,,86,,,7,,,,,,,,208707,1,0,FALSE,,,
dig,170,584654,0.0-52.0-0.0,"""event"",""trial"",""time""
""fullscreenenter"",""1"",""3810""
","
","
","""event"",""trial"",""time""
""fullscreenenter"",""1"",""3810""
","
",,,,,,,,,,,,"[{""stimulus"":""run_exp/static/images/task_images/dig.jpg"",""time"":0.19999980926513672},{""stimulus"":""run_exp/static/images/task_images/land.jpg"",""time"":884},{""stimulus"":""run_exp/static/images/task_images/dig.jpg"",""time"":1756.5}]",[],7,,,,,,,,,,,,,,
harvest,171,585668,0.0-52.0-1.0,"""event"",""trial"",""time""
""fullscreenenter"",""1"",""3810""
","
","
","""event"",""trial"",""time""
""fullscreenenter"",""1"",""3810""
","
",,null,run_exp/static/images/task_images/gems/86.jpg,null,,,,,,,76,,,7,,,,,86,0.878635115,0.88372093,,,,,,,
decision,172,586114,0.0-52.0-2.0,"""event"",""trial"",""time""
""fullscreenenter"",""1"",""3810""
","
","
","""event"",""trial"",""time""
""fullscreenenter"",""1"",""3810""
","
",,445,run_exp/static/images/task_images/land.jpg,65,,,,,,,76,,,7,,,,,,,,212801,1,1,FALSE,,,
dig,173,588672,0.0-53.0-0.0,"""event"",""trial"",""time""
""fullscreenenter"",""1"",""3810""
","
","
","""event"",""trial"",""time""
""fullscreenenter"",""1"",""3810""
","
",,,,,,,,,,,,"[{""stimulus"":""run_exp/static/images/task_images/dig.jpg"",""time"":0},{""stimulus"":""run_exp/static/images/task_images/land.jpg"",""time"":855.3999996185303},{""stimulus"":""run_exp/static/images/task_images/dig.jpg"",""time"":1710.5}]",[],7,,,,,,,,,,,,,,
harvest,174,589684,0.0-53.0-1.0,"""event"",""trial"",""time""
""fullscreenenter"",""1"",""3810""
","
","
","""event"",""trial"",""time""
""fullscreenenter"",""1"",""3810""
","
",,null,run_exp/static/images/task_images/gems/76.jpg,null,,,,,,,65,,,7,,,,,76,0.851537527,0.855263158,,,,,,,
decision,175,590201,0.0-53.0-2.0,"""event"",""trial"",""time""
""fullscreenenter"",""1"",""3810""
","
","
","""event"",""trial"",""time""
""fullscreenenter"",""1"",""3810""
","
",,516.6000004,run_exp/static/images/task_images/land.jpg,65,,,,,,,65,,,7,,,,,,,,216888,1,2,FALSE,,,
dig,176,592686,0.0-54.0-0.0,"""event"",""trial"",""time""
""fullscreenenter"",""1"",""3810""
","
","
","""event"",""trial"",""time""
""fullscreenenter"",""1"",""3810""
","
",,,,,,,,,,,,"[{""stimulus"":""run_exp/static/images/task_images/dig.jpg"",""time"":0.10000038146972656},{""stimulus"":""run_exp/static/images/task_images/land.jpg"",""time"":828.6999998092651},{""stimulus"":""run_exp/static/images/task_images/dig.jpg"",""time"":1670.6999998092651}]",[],7,,,,,,,,,,,,,,
harvest,177,593701,0.0-54.0-1.0,"""event"",""trial"",""time""
""fullscreenenter"",""1"",""3810""
","
","
","""event"",""trial"",""time""
""fullscreenenter"",""1"",""3810""
","
",,null,run_exp/static/images/task_images/gems/65.jpg,null,,,,,,,54,,,7,,,,,65,0.834205125,0.830769231,,,,,,,
decision,178,594204,0.0-54.0-2.0,"""event"",""trial"",""time""
""fullscreenenter"",""1"",""3810""
","
","
","""event"",""trial"",""time""
""fullscreenenter"",""1"",""3810""
","
",,501.5,run_exp/static/images/task_images/land.jpg,65,,,,,,,54,,,7,,,,,,,,220891,1,3,FALSE,,,
dig,179,596713,0.0-55.0-0.0,"""event"",""trial"",""time""
""fullscreenenter"",""1"",""3810""
","
","
","""event"",""trial"",""time""
""fullscreenenter"",""1"",""3810""
","
",,,,,,,,,,,,"[{""stimulus"":""run_exp/static/images/task_images/dig.jpg"",""time"":0.19999980926513672},{""stimulus"":""run_exp/static/images/task_images/land.jpg"",""time"":842.0999994277954},{""stimulus"":""run_exp/static/images/task_images/dig.jpg"",""time"":1680.5}]",[],7,,,,,,,,,,,,,,
harvest,180,597726,0.0-55.0-1.0,"""event"",""trial"",""time""
""fullscreenenter"",""1"",""3810""
","
","
","""event"",""trial"",""time""
""fullscreenenter"",""1"",""3810""
","
",,null,run_exp/static/images/task_images/gems/54.jpg,null,,,,,,,42,,,7,,,,,54,0.784653258,0.777777778,,,,,,,
decision,181,598418,0.0-55.0-2.0,"""event"",""trial"",""time""
""fullscreenenter"",""1"",""3810""
","
","
","""event"",""trial"",""time""
""fullscreenenter"",""1"",""3810""
","
",,690.3000002,run_exp/static/images/task_images/land.jpg,65,,,,,,,42,,,7,,,,,,,,225105,1,4,FALSE,,,
dig,182,600734,0.0-56.0-0.0,"""event"",""trial"",""time""
""fullscreenenter"",""1"",""3810""
","
","
","""event"",""trial"",""time""
""fullscreenenter"",""1"",""3810""
","
",,,,,,,,,,,,"[{""stimulus"":""run_exp/static/images/task_images/dig.jpg"",""time"":0.10000038146972656},{""stimulus"":""run_exp/static/images/task_images/land.jpg"",""time"":784.8999996185303},{""stimulus"":""run_exp/static/images/task_images/dig.jpg"",""time"":1549.1999998092651}]",[],7,,,,,,,,,,,,,,
harvest,183,601739,0.0-56.0-1.0,"""event"",""trial"",""time""
""fullscreenenter"",""1"",""3810""
","
","
","""event"",""trial"",""time""
""fullscreenenter"",""1"",""3810""
","
",,null,run_exp/static/images/task_images/gems/42.jpg,null,,,,,,,36,,,7,,,,,42,0.845583793,0.857142857,,,,,,,
decision,184,602151,0.0-56.0-2.0,"""event"",""trial"",""time""
""fullscreenenter"",""1"",""3810""
","
","
","""event"",""trial"",""time""
""fullscreenenter"",""1"",""3810""
","
",,411,run_exp/static/images/task_images/land.jpg,65,,,,,,,36,,,7,,,,,,,,228838,1,5,FALSE,,,
dig,185,604756,0.0-57.0-0.0,"""event"",""trial"",""time""
""fullscreenenter"",""1"",""3810""
","
","
","""event"",""trial"",""time""
""fullscreenenter"",""1"",""3810""
","
",,,,,,,,,,,,"[{""stimulus"":""run_exp/static/images/task_images/dig.jpg"",""time"":0.09999942779541016},{""stimulus"":""run_exp/static/images/task_images/land.jpg"",""time"":868.3999996185303},{""stimulus"":""run_exp/static/images/task_images/dig.jpg"",""time"":1740.1999998092651}]",[],7,,,,,,,,,,,,,,
harvest,186,605769,0.0-57.0-1.0,"""event"",""trial"",""time""
""fullscreenenter"",""1"",""3810""
","
","
","""event"",""trial"",""time""
""fullscreenenter"",""1"",""3810""
","
",,null,run_exp/static/images/task_images/gems/36.jpg,null,,,,,,,30,,,7,,,,,36,0.826536765,0.833333333,,,,,,,
decision,187,606133,0.0-57.0-2.0,"""event"",""trial"",""time""
""fullscreenenter"",""1"",""3810""
","
","
","""event"",""trial"",""time""
""fullscreenenter"",""1"",""3810""
","
",,362.0999994,run_exp/static/images/task_images/land.jpg,65,,,,,,,30,,,7,,,,,,,,232820,1,6,FALSE,,,
dig,188,608786,0.0-58.0-0.0,"""event"",""trial"",""time""
""fullscreenenter"",""1"",""3810""
","
","
","""event"",""trial"",""time""
""fullscreenenter"",""1"",""3810""
","
",,,,,,,,,,,,"[{""stimulus"":""run_exp/static/images/task_images/dig.jpg"",""time"":0.09999942779541016},{""stimulus"":""run_exp/static/images/task_images/land.jpg"",""time"":882.8999996185303},{""stimulus"":""run_exp/static/images/task_images/dig.jpg"",""time"":1769.8999996185303}]",[],7,,,,,,,,,,,,,,
harvest,189,609797,0.0-58.0-1.0,"""event"",""trial"",""time""
""fullscreenenter"",""1"",""3810""
","
","
","""event"",""trial"",""time""
""fullscreenenter"",""1"",""3810""
","
",,null,run_exp/static/images/task_images/gems/30.jpg,null,,,,,,,24,,,7,,,,,30,0.807770272,0.8,,,,,,,
decision,190,610583,0.0-58.0-2.0,"""event"",""trial"",""time""
""fullscreenenter"",""1"",""3810""
","
","
","""event"",""trial"",""time""
""fullscreenenter"",""1"",""3810""
","
",,785.5999994,run_exp/static/images/task_images/land.jpg,65,,,,,,,24,,,7,,,,,,,,237270,1,7,FALSE,,,
dig,191,612804,0.0-59.0-0.0,"""event"",""trial"",""time""
""fullscreenenter"",""1"",""3810""
","
","
","""event"",""trial"",""time""
""fullscreenenter"",""1"",""3810""
","
",,,,,,,,,,,,"[{""stimulus"":""run_exp/static/images/task_images/dig.jpg"",""time"":0},{""stimulus"":""run_exp/static/images/task_images/land.jpg"",""time"":741.5},{""stimulus"":""run_exp/static/images/task_images/dig.jpg"",""time"":1493}]",[],7,,,,,,,,,,,,,,
harvest,192,613808,0.0-59.0-1.0,"""event"",""trial"",""time""
""fullscreenenter"",""1"",""3810""
","
","
","""event"",""trial"",""time""
""fullscreenenter"",""1"",""3810""
","
",,null,run_exp/static/images/task_images/gems/24.jpg,null,,,,,,,20,,,7,,,,,24,0.836561501,0.833333333,,,,,,,
decision,193,614919,0.0-59.0-2.0,"""event"",""trial"",""time""
""fullscreenenter"",""1"",""3810""
","
","
","""event"",""trial"",""time""
""fullscreenenter"",""1"",""3810""
","
",,1109.6,run_exp/static/images/task_images/land.jpg,76,,,,,,,20,,,7,,,,,,,,241606,1,8,TRUE,,,
travel,194,623810,0.0-60.0-0.0,"""event"",""trial"",""time""
""fullscreenenter"",""1"",""3810""
","
","
","""event"",""trial"",""time""
""fullscreenenter"",""1"",""3810""
","
",,,,,,,,,,,,"[{""stimulus"":""run_exp/static/images/task_images/rocket-01.jpg"",""time"":0.10000038146972656},{""stimulus"":""run_exp/static/images/task_images/rocket-02.jpg"",""time"":999.5},{""stimulus"":""run_exp/static/images/task_images/rocket-03.jpg"",""time"":1985},{""stimulus"":""run_exp/static/images/task_images/rocket-04.jpg"",""time"":2962.3999996185303},{""stimulus"":""run_exp/static/images/task_images/rocket-05.jpg"",""time"":3962.800000190735},{""stimulus"":""run_exp/static/images/task_images/rocket-06.jpg"",""time"":4948.89999961853},{""stimulus"":""run_exp/static/images/task_images/rocket-07.jpg"",""time"":5932.89999961853},{""stimulus"":""run_exp/static/images/task_images/rocket-08.jpg"",""time"":6925.5},{""stimulus"":""run_exp/static/images/task_images/rocket-09.jpg"",""time"":7910.60000038147}]",[],7,,,,,,,,,,,,,,
alien_welcome,195,628826,0.0-60.0-1.0,"""event"",""trial"",""time""
""fullscreenenter"",""1"",""3810""
","
","
","""event"",""trial"",""time""
""fullscreenenter"",""1"",""3810""
","
",,null,run_exp/static/images/task_images/aliens/old_aliens/planet/alien_planet-63.jpg,null,,,,,,,,,,,,,63,"32,49,65,41,78,4,44,63,74,39,45,70,9,62,54,56,48,14,42,72,66,53,76,3,37,61,69,35,22,55,57,13,51,23,8,58,21,47,36,7,77",,,,,,,,,,
land,196,629329,0.0-60.0-2.0,"""event"",""trial"",""time""
""fullscreenenter"",""1"",""3810""
","
","
","""event"",""trial"",""time""
""fullscreenenter"",""1"",""3810""
","
",,null,run_exp/static/images/task_images/land.jpg,null,,,,,,,99,,,8,,,,,,,,,,,,,,
dig,197,631338,0.0-60.0-3.0,"""event"",""trial"",""time""
""fullscreenenter"",""1"",""3810""
","
","
","""event"",""trial"",""time""
""fullscreenenter"",""1"",""3810""
","
",,,,,,,,,,,,"[{""stimulus"":""run_exp/static/images/task_images/dig.jpg"",""time"":0.2999992370605469},{""stimulus"":""run_exp/static/images/task_images/land.jpg"",""time"":681.6999998092651},{""stimulus"":""run_exp/static/images/task_images/dig.jpg"",""time"":1343.7999992370605}]",[],8,,,,,,,,,,,,,,
harvest,198,632348,0.0-60.0-4.0,"""event"",""trial"",""time""
""fullscreenenter"",""1"",""3810""
","
","
","""event"",""trial"",""time""
""fullscreenenter"",""1"",""3810""
","
",,null,run_exp/static/images/task_images/gems/99.jpg,null,,,,,,,79,,,8,,,,,99,0.793734075,0.797979798,,,,,,,
decision,199,633329,0.0-60.0-5.0,"""event"",""trial"",""time""
""fullscreenenter"",""1"",""3810""
","
","
","""event"",""trial"",""time""
""fullscreenenter"",""1"",""3810""
","
",,980.0999994,run_exp/static/images/task_images/land.jpg,65,,,,,,,79,,,8,,,,,,,,260016,1,0,FALSE,,,
dig,200,635358,0.0-61.0-0.0,"""event"",""trial"",""time""
""fullscreenenter"",""1"",""3810""
","
","
","""event"",""trial"",""time""
""fullscreenenter"",""1"",""3810""
","
",,,,,,,,,,,,"[{""stimulus"":""run_exp/static/images/task_images/dig.jpg"",""time"":0.10000038146972656},{""stimulus"":""run_exp/static/images/task_images/land.jpg"",""time"":676.6000003814697},{""stimulus"":""run_exp/static/images/task_images/dig.jpg"",""time"":1356.1000003814697}]",[],8,,,,,,,,,,,,,,
harvest,201,636367,0.0-61.0-1.0,"""event"",""trial"",""time""
""fullscreenenter"",""1"",""3810""
","
","
","""event"",""trial"",""time""
""fullscreenenter"",""1"",""3810""
","
",,null,run_exp/static/images/task_images/gems/79.jpg,null,,,,,,,54,,,8,,,,,79,0.681583612,0.683544304,,,,,,,
decision,202,637087,0.0-61.0-2.0,"""event"",""trial"",""time""
""fullscreenenter"",""1"",""3810""
","
","
","""event"",""trial"",""time""
""fullscreenenter"",""1"",""3810""
","
",,718.3999996,run_exp/static/images/task_images/land.jpg,65,,,,,,,54,,,8,,,,,,,,263774,1,1,FALSE,,,
dig,203,639386,0.0-62.0-0.0,"""event"",""trial"",""time""
""fullscreenenter"",""1"",""3810""
","
","
","""event"",""trial"",""time""
""fullscreenenter"",""1"",""3810""
","
",,,,,,,,,,,,"[{""stimulus"":""run_exp/static/images/task_images/dig.jpg"",""time"":0.10000038146972656},{""stimulus"":""run_exp/static/images/task_images/land.jpg"",""time"":772},{""stimulus"":""run_exp/static/images/task_images/dig.jpg"",""time"":1532}]",[],8,,,,,,,,,,,,,,
harvest,204,640402,0.0-62.0-1.0,"""event"",""trial"",""time""
""fullscreenenter"",""1"",""3810""
","
","
","""event"",""trial"",""time""
""fullscreenenter"",""1"",""3810""
","
",,null,run_exp/static/images/task_images/gems/54.jpg,null,,,,,,,45,,,8,,,,,54,0.826552579,0.833333333,,,,,,,
decision,205,641610,0.0-62.0-2.0,"""event"",""trial"",""time""
""fullscreenenter"",""1"",""3810""
","
","
","""event"",""trial"",""time""
""fullscreenenter"",""1"",""3810""
","
",,1206.7,run_exp/static/images/task_images/land.jpg,65,,,,,,,45,,,8,,,,,,,,268297,1,2,FALSE,,,
dig,206,643408,0.0-63.0-0.0,"""event"",""trial"",""time""
""fullscreenenter"",""1"",""3810""
","
","
","""event"",""trial"",""time""
""fullscreenenter"",""1"",""3810""
","
",,,,,,,,,,,,"[{""stimulus"":""run_exp/static/images/task_images/dig.jpg"",""time"":0.10000038146972656},{""stimulus"":""run_exp/static/images/task_images/land.jpg"",""time"":608.9000005722046},{""stimulus"":""run_exp/static/images/task_images/dig.jpg"",""time"":1207.6999998092651}]",[],8,,,,,,,,,,,,,,
harvest,207,644418,0.0-63.0-1.0,"""event"",""trial"",""time""
""fullscreenenter"",""1"",""3810""
","
","
","""event"",""trial"",""time""
""fullscreenenter"",""1"",""3810""
","
",,null,run_exp/static/images/task_images/gems/45.jpg,null,,,,,,,36,,,8,,,,,45,0.798714539,0.8,,,,,,,
decision,208,645210,0.0-63.0-2.0,"""event"",""trial"",""time""
""fullscreenenter"",""1"",""3810""
","
","
","""event"",""trial"",""time""
""fullscreenenter"",""1"",""3810""
","
",,791.1000004,run_exp/static/images/task_images/land.jpg,65,,,,,,,36,,,8,,,,,,,,271897,1,3,FALSE,,,
dig,209,647422,0.0-64.0-0.0,"""event"",""trial"",""time""
""fullscreenenter"",""1"",""3810""
","
","
","""event"",""trial"",""time""
""fullscreenenter"",""1"",""3810""
","
",,,,,,,,,,,,"[{""stimulus"":""run_exp/static/images/task_images/dig.jpg"",""time"":0.19999980926513672},{""stimulus"":""run_exp/static/images/task_images/land.jpg"",""time"":750.5},{""stimulus"":""run_exp/static/images/task_images/dig.jpg"",""time"":1474.0999994277954}]",[],8,,,,,,,,,,,,,,
harvest,210,648430,0.0-64.0-1.0,"""event"",""trial"",""time""
""fullscreenenter"",""1"",""3810""
","
","
","""event"",""trial"",""time""
""fullscreenenter"",""1"",""3810""
","
",,null,run_exp/static/images/task_images/gems/36.jpg,null,,,,,,,30,,,8,,,,,36,0.831508567,0.833333333,,,,,,,
decision,211,648816,0.0-64.0-2.0,"""event"",""trial"",""time""
""fullscreenenter"",""1"",""3810""
","
","
","""event"",""trial"",""time""
""fullscreenenter"",""1"",""3810""
","
",,384.3000002,run_exp/static/images/task_images/land.jpg,65,,,,,,,30,,,8,,,,,,,,275503,1,4,FALSE,,,
dig,212,651447,0.0-65.0-0.0,"""event"",""trial"",""time""
""fullscreenenter"",""1"",""3810""
","
","
","""event"",""trial"",""time""
""fullscreenenter"",""1"",""3810""
","
",,,,,,,,,,,,"[{""stimulus"":""run_exp/static/images/task_images/dig.jpg"",""time"":0.19999980926513672},{""stimulus"":""run_exp/static/images/task_images/land.jpg"",""time"":882.5999994277954},{""stimulus"":""run_exp/static/images/task_images/dig.jpg"",""time"":1750.8000001907349}]",[],8,,,,,,,,,,,,,,
harvest,213,652458,0.0-65.0-1.0,"""event"",""trial"",""time""
""fullscreenenter"",""1"",""3810""
","
","
","""event"",""trial"",""time""
""fullscreenenter"",""1"",""3810""
","
",,null,run_exp/static/images/task_images/gems/30.jpg,null,,,,,,,23,,,8,,,,,30,0.753134394,0.766666667,,,,,,,
decision,214,653087,0.0-65.0-2.0,"""event"",""trial"",""time""
""fullscreenenter"",""1"",""3810""
","
","
","""event"",""trial"",""time""
""fullscreenenter"",""1"",""3810""
","
",,627.6000004,run_exp/static/images/task_images/land.jpg,76,,,,,,,23,,,8,,,,,,,,279774,1,5,TRUE,,,
travel,215,662462,0.0-66.0-0.0,"""event"",""trial"",""time""
""fullscreenenter"",""1"",""3810""
","
","
","""event"",""trial"",""time""
""fullscreenenter"",""1"",""3810""
","
",,,,,,,,,,,,"[{""stimulus"":""run_exp/static/images/task_images/rocket-01.jpg"",""time"":0.20000076293945312},{""stimulus"":""run_exp/static/images/task_images/rocket-02.jpg"",""time"":1048.2000007629395},{""stimulus"":""run_exp/static/images/task_images/rocket-03.jpg"",""time"":2096.7000007629395},{""stimulus"":""run_exp/static/images/task_images/rocket-04.jpg"",""time"":3129.4000005722046},{""stimulus"":""run_exp/static/images/task_images/rocket-05.jpg"",""time"":4165.800000190735},{""stimulus"":""run_exp/static/images/task_images/rocket-06.jpg"",""time"":5211.60000038147},{""stimulus"":""run_exp/static/images/task_images/rocket-07.jpg"",""time"":6248.400000572205},{""stimulus"":""run_exp/static/images/task_images/rocket-08.jpg"",""time"":7299.5},{""stimulus"":""run_exp/static/images/task_images/rocket-09.jpg"",""time"":8332.5}]",[],8,,,,,,,,,,,,,,
alien_welcome,216,667469,0.0-66.0-1.0,"""event"",""trial"",""time""
""fullscreenenter"",""1"",""3810""
","
","
","""event"",""trial"",""time""
""fullscreenenter"",""1"",""3810""
","
",,null,run_exp/static/images/task_images/aliens/old_aliens/planet/alien_planet-74.jpg,null,,,,,,,,,,,,,74,"32,49,65,41,78,4,44,63,74,39,45,70,9,62,54,56,48,14,42,72,66,53,76,3,37,61,69,35,22,55,57,13,51,23,8,58,21,47,36,7,77",,,,,,,,,,
land,217,667974,0.0-66.0-2.0,"""event"",""trial"",""time""
""fullscreenenter"",""1"",""3810""
","
","
","""event"",""trial"",""time""
""fullscreenenter"",""1"",""3810""
","
",,null,run_exp/static/images/task_images/land.jpg,null,,,,,,,104,,,9,,,,,,,,,,,,,,
dig,218,669989,0.0-66.0-3.0,"""event"",""trial"",""time""
""fullscreenenter"",""1"",""3810""
","
","
","""event"",""trial"",""time""
""fullscreenenter"",""1"",""3810""
","
",,,,,,,,,,,,"[{""stimulus"":""run_exp/static/images/task_images/dig.jpg"",""time"":0.19999980926513672},{""stimulus"":""run_exp/static/images/task_images/land.jpg"",""time"":671.1000003814697},{""stimulus"":""run_exp/static/images/task_images/dig.jpg"",""time"":1348.3000001907349}]",[],9,,,,,,,,,,,,,,
harvest,219,670998,0.0-66.0-4.0,"""event"",""trial"",""time""
""fullscreenenter"",""1"",""3810""
","
","
","""event"",""trial"",""time""
""fullscreenenter"",""1"",""3810""
","
",,null,run_exp/static/images/task_images/gems/104.jpg,null,,,,,,,14,,,9,,,,,104,0.136159231,0.134615385,,,,,,,
decision,220,671757,0.0-66.0-5.0,"""event"",""trial"",""time""
""fullscreenenter"",""1"",""3810""
","
","
","""event"",""trial"",""time""
""fullscreenenter"",""1"",""3810""
","
",,757.9000006,run_exp/static/images/task_images/land.jpg,65,,,,,,,14,,,9,,,,,,,,298444,1,0,FALSE,,,
dig,221,674002,0.0-67.0-0.0,"""event"",""trial"",""time""
""fullscreenenter"",""1"",""3810""
","
","
","""event"",""trial"",""time""
""fullscreenenter"",""1"",""3810""
","
",,,,,,,,,,,,"[{""stimulus"":""run_exp/static/images/task_images/dig.jpg"",""time"":0.09999942779541016},{""stimulus"":""run_exp/static/images/task_images/land.jpg"",""time"":755.0999994277954},{""stimulus"":""run_exp/static/images/task_images/dig.jpg"",""time"":1502.1999998092651}]",[],9,,,,,,,,,,,,,,
harvest,222,675008,0.0-67.0-1.0,"""event"",""trial"",""time""
""fullscreenenter"",""1"",""3810""
","
","
","""event"",""trial"",""time""
""fullscreenenter"",""1"",""3810""
","
",,null,run_exp/static/images/task_images/gems/14.jpg,null,,,,,,,4,,,9,,,,,14,0.274871164,0.285714286,,,,,,,
decision,223,675431,0.0-67.0-2.0,"""event"",""trial"",""time""
""fullscreenenter"",""1"",""3810""
","
","
","""event"",""trial"",""time""
""fullscreenenter"",""1"",""3810""
","
",,422.3999996,run_exp/static/images/task_images/land.jpg,76,,,,,,,4,,,9,,,,,,,,302119,1,1,TRUE,,,
end_of_block_continue,224,684279,0.0-68.0-0.0,"""event"",""trial"",""time""
""fullscreenenter"",""1"",""3810""
","
","
","""event"",""trial"",""time""
""fullscreenenter"",""1"",""3810""
","
",,null,run_exp/static/audio/clip_32_block_end.m4a,,,,,,,null,,,,,,,,,,,,,,,,,,
alien_welcome,225,689296,0.0-69.0-0.0,"""event"",""trial"",""time""
""fullscreenenter"",""1"",""3810""
","
","
","""event"",""trial"",""time""
""fullscreenenter"",""1"",""3810""
","
",,null,run_exp/static/images/task_images/aliens/old_aliens/planet/alien_planet-39.jpg,null,,,,,,,,,,,,,39,"32,49,65,41,78,4,44,63,74,39,45,70,9,62,54,56,48,14,42,72,66,53,76,3,37,61,69,35,22,55,57,13,51,23,8,58,21,47,36,7,77",,,,,,,,,,
land,226,689814,0.0-69.0-1.0,"""event"",""trial"",""time""
""fullscreenenter"",""1"",""3810""
","
","
","""event"",""trial"",""time""
""fullscreenenter"",""1"",""3810""
","
",,null,run_exp/static/images/task_images/land.jpg,null,,,,,,,105,,,10,,,,,,,,,,,,,,
dig,227,691824,0.0-69.0-2.0,"""event"",""trial"",""time""
""fullscreenenter"",""1"",""3810""
","
","
","""event"",""trial"",""time""
""fullscreenenter"",""1"",""3810""
","
",,,,,,,,,,,,"[{""stimulus"":""run_exp/static/images/task_images/dig.jpg"",""time"":0.40000057220458984},{""stimulus"":""run_exp/static/images/task_images/land.jpg"",""time"":678.1000003814697},{""stimulus"":""run_exp/static/images/task_images/dig.jpg"",""time"":1341}]",[],10,,,,,,,,,,,,,,
harvest,228,692842,0.0-69.0-3.0,"""event"",""trial"",""time""
""fullscreenenter"",""1"",""3810""
","
","
","""event"",""trial"",""time""
""fullscreenenter"",""1"",""3810""
","
",,null,run_exp/static/images/task_images/gems/105.jpg,null,,,,,,,24,,,10,,,,,105,0.2330144,0.228571429,,,,,,,
decision,229,693599,0.0-69.0-4.0,"""event"",""trial"",""time""
""fullscreenenter"",""1"",""3810""
","
","
","""event"",""trial"",""time""
""fullscreenenter"",""1"",""3810""
","
",,756.6999998,run_exp/static/images/task_images/land.jpg,65,,,,,,,24,,,10,,,,,,,,9318,2,0,FALSE,,,
dig,230,695846,0.0-70.0-0.0,"""event"",""trial"",""time""
""fullscreenenter"",""1"",""3810""
","
","
","""event"",""trial"",""time""
""fullscreenenter"",""1"",""3810""
","
",,,,,,,,,,,,"[{""stimulus"":""run_exp/static/images/task_images/dig.jpg"",""time"":0.09999942779541016},{""stimulus"":""run_exp/static/images/task_images/land.jpg"",""time"":756.7999992370605},{""stimulus"":""run_exp/static/images/task_images/dig.jpg"",""time"":1505.7999992370605}]",[],10,,,,,,,,,,,,,,
harvest,231,696853,0.0-70.0-1.0,"""event"",""trial"",""time""
""fullscreenenter"",""1"",""3810""
","
","
","""event"",""trial"",""time""
""fullscreenenter"",""1"",""3810""
","
",,null,run_exp/static/images/task_images/gems/24.jpg,null,,,,,,,5,,,10,,,,,24,0.212739212,0.208333333,,,,,,,
decision,232,697152,0.0-70.0-2.0,"""event"",""trial"",""time""
""fullscreenenter"",""1"",""3810""
","
","
","""event"",""trial"",""time""
""fullscreenenter"",""1"",""3810""
","
",,296.8999996,run_exp/static/images/task_images/land.jpg,76,,,,,,,5,,,10,,,,,,,,12870,2,1,TRUE,,,
travel,233,706862,0.0-71.0-0.0,"""event"",""trial"",""time""
""fullscreenenter"",""1"",""3810""
","
","
","""event"",""trial"",""time""
""fullscreenenter"",""1"",""3810""
","
",,,,,,,,,,,,"[{""stimulus"":""run_exp/static/images/task_images/rocket-01.jpg"",""time"":0.19999980926513672},{""stimulus"":""run_exp/static/images/task_images/rocket-02.jpg"",""time"":1079.8999996185303},{""stimulus"":""run_exp/static/images/task_images/rocket-03.jpg"",""time"":2158.1000003814697},{""stimulus"":""run_exp/static/images/task_images/rocket-04.jpg"",""time"":3234.8999996185303},{""stimulus"":""run_exp/static/images/task_images/rocket-05.jpg"",""time"":4313.60000038147},{""stimulus"":""run_exp/static/images/task_images/rocket-06.jpg"",""time"":5391.5},{""stimulus"":""run_exp/static/images/task_images/rocket-07.jpg"",""time"":6481.39999961853},{""stimulus"":""run_exp/static/images/task_images/rocket-08.jpg"",""time"":7561.39999961853},{""stimulus"":""run_exp/static/images/task_images/rocket-09.jpg"",""time"":8627.60000038147}]",[],10,,,,,,,,,,,,,,
alien_welcome,234,711874,0.0-71.0-1.0,"""event"",""trial"",""time""
""fullscreenenter"",""1"",""3810""
","
","
","""event"",""trial"",""time""
""fullscreenenter"",""1"",""3810""
","
",,null,run_exp/static/images/task_images/aliens/old_aliens/planet/alien_planet-45.jpg,null,,,,,,,,,,,,,45,"32,49,65,41,78,4,44,63,74,39,45,70,9,62,54,56,48,14,42,72,66,53,76,3,37,61,69,35,22,55,57,13,51,23,8,58,21,47,36,7,77",,,,,,,,,,
land,235,712391,0.0-71.0-2.0,"""event"",""trial"",""time""
""fullscreenenter"",""1"",""3810""
","
","
","""event"",""trial"",""time""
""fullscreenenter"",""1"",""3810""
","
",,null,run_exp/static/images/task_images/land.jpg,null,,,,,,,103,,,11,,,,,,,,,,,,,,
dig,236,714401,0.0-71.0-3.0,"""event"",""trial"",""time""
""fullscreenenter"",""1"",""3810""
","
","
","""event"",""trial"",""time""
""fullscreenenter"",""1"",""3810""
","
",,,,,,,,,,,,"[{""stimulus"":""run_exp/static/images/task_images/dig.jpg"",""time"":0.39999961853027344},{""stimulus"":""run_exp/static/images/task_images/land.jpg"",""time"":678.5999994277954},{""stimulus"":""run_exp/static/images/task_images/dig.jpg"",""time"":1341.3000001907349}]",[],11,,,,,,,,,,,,,,
harvest,237,715414,0.0-71.0-4.0,"""event"",""trial"",""time""
""fullscreenenter"",""1"",""3810""
","
","
","""event"",""trial"",""time""
""fullscreenenter"",""1"",""3810""
","
",,null,run_exp/static/images/task_images/gems/103.jpg,null,,,,,,,19,,,11,,,,,103,0.184977238,0.184466019,,,,,,,
decision,238,715882,0.0-71.0-5.0,"""event"",""trial"",""time""
""fullscreenenter"",""1"",""3810""
","
","
","""event"",""trial"",""time""
""fullscreenenter"",""1"",""3810""
","
",,465.9000006,run_exp/static/images/task_images/land.jpg,65,,,,,,,19,,,11,,,,,,,,31600,2,0,FALSE,,,
dig,239,718422,0.0-72.0-0.0,"""event"",""trial"",""time""
""fullscreenenter"",""1"",""3810""
","
","
","""event"",""trial"",""time""
""fullscreenenter"",""1"",""3810""
","
",,,,,,,,,,,,"[{""stimulus"":""run_exp/static/images/task_images/dig.jpg"",""time"":0.19999980926513672},{""stimulus"":""run_exp/static/images/task_images/land.jpg"",""time"":850.6999998092651},{""stimulus"":""run_exp/static/images/task_images/dig.jpg"",""time"":1694.6000003814697}]",[],11,,,,,,,,,,,,,,
harvest,240,719431,0.0-72.0-1.0,"""event"",""trial"",""time""
""fullscreenenter"",""1"",""3810""
","
","
","""event"",""trial"",""time""
""fullscreenenter"",""1"",""3810""
","
",,null,run_exp/static/images/task_images/gems/19.jpg,null,,,,,,,3,,,11,,,,,19,0.145794007,0.157894737,,,,,,,
decision,241,719911,0.0-72.0-2.0,"""event"",""trial"",""time""
""fullscreenenter"",""1"",""3810""
","
","
","""event"",""trial"",""time""
""fullscreenenter"",""1"",""3810""
","
",,478.6000004,run_exp/static/images/task_images/land.jpg,76,,,,,,,3,,,11,,,,,,,,35629,2,1,TRUE,,,
travel,242,729429,0.0-73.0-0.0,"""event"",""trial"",""time""
""fullscreenenter"",""1"",""3810""
","
","
","""event"",""trial"",""time""
""fullscreenenter"",""1"",""3810""
","
",,,,,,,,,,,,"[{""stimulus"":""run_exp/static/images/task_images/rocket-01.jpg"",""time"":0.10000038146972656},{""stimulus"":""run_exp/static/images/task_images/rocket-02.jpg"",""time"":1064.6000003814697},{""stimulus"":""run_exp/static/images/task_images/rocket-03.jpg"",""time"":2115.2000007629395},{""stimulus"":""run_exp/static/images/task_images/rocket-04.jpg"",""time"":3172.7000007629395},{""stimulus"":""run_exp/static/images/task_images/rocket-05.jpg"",""time"":4245},{""stimulus"":""run_exp/static/images/task_images/rocket-06.jpg"",""time"":5291.300000190735},{""stimulus"":""run_exp/static/images/task_images/rocket-07.jpg"",""time"":6345.5},{""stimulus"":""run_exp/static/images/task_images/rocket-08.jpg"",""time"":7405.60000038147},{""stimulus"":""run_exp/static/images/task_images/rocket-09.jpg"",""time"":8458.300000190735}]",[],11,,,,,,,,,,,,,,
alien_welcome,243,734442,0.0-73.0-1.0,"""event"",""trial"",""time""
""fullscreenenter"",""1"",""3810""
","
","
","""event"",""trial"",""time""
""fullscreenenter"",""1"",""3810""
","
",,null,run_exp/static/images/task_images/aliens/old_aliens/planet/alien_planet-70.jpg,null,,,,,,,,,,,,,70,"32,49,65,41,78,4,44,63,74,39,45,70,9,62,54,56,48,14,42,72,66,53,76,3,37,61,69,35,22,55,57,13,51,23,8,58,21,47,36,7,77",,,,,,,,,,
land,244,734954,0.0-73.0-2.0,"""event"",""trial"",""time""
""fullscreenenter"",""1"",""3810""
","
","
","""event"",""trial"",""time""
""fullscreenenter"",""1"",""3810""
","
",,null,run_exp/static/images/task_images/land.jpg,null,,,,,,,103,,,12,,,,,,,,,,,,,,
dig,245,736964,0.0-73.0-3.0,"""event"",""trial"",""time""
""fullscreenenter"",""1"",""3810""
","
","
