trial_type,trial_index,time_elapsed,internal_node_id,interactions,blur_events,focus_events,fullscreenenter_events,fullscreenexit_events,success,rt,stimulus,key_press,prompt,subject_id,participant_id,age,gender,button_pressed,next_reward,animation_sequence,responses,planet,curr_prac_trial,n_prac_rounds,alien,aliens,reward_received,decay_rate_actual,decay_rate_exp,time_in_block,block_num,prt,last_trial_on_planet,button_html,bonus,num_failures
pavlovia,0,5,0.0-0.0,"""event"",""trial"",""time""
""fullscreenenter"",""1"",""2510""
","
","
","""event"",""trial"",""time""
""fullscreenenter"",""1"",""2510""
","
",,,,,,,,,,,,,,,,,,,,,,,,,,,,
fullscreen,1,3478,0.0-1.0,"""event"",""trial"",""time""
""fullscreenenter"",""1"",""2510""
","
","
","""event"",""trial"",""time""
""fullscreenenter"",""1"",""2510""
","
",TRUE,,,,,,,,,,,,,,,,,,,,,,,,,,,
instruc_welcome,2,13254,0.0-2.0,"""event"",""trial"",""time""
""fullscreenenter"",""1"",""2510""
","
","
","""event"",""trial"",""time""
""fullscreenenter"",""1"",""2510""
","
",,null,run_exp/static/audio/clip_1_welcome.m4a,null,"<p>Howdy! In this experiment, you’ll be an explorer traveling through space to collect space treasure.</p><p>Your mission is to collect as much treasure as possible.</p><br><br><p><img src='run_exp/static/images/task_images/opening_img-01.jpg' height='300' width='auto'></p>",14342,70,24.33,Female,,,,,,,,,,,,,,,,,,,
audio-keyboard-response,3,29829,0.0-3.0,"""event"",""trial"",""time""
""fullscreenenter"",""1"",""2510""
","
","
","""event"",""trial"",""time""
""fullscreenenter"",""1"",""2510""
","
",,null,run_exp/static/audio/clip_2_move.m4a,null,,,,,,,,,,,,,,,,,,,,,,,,
welcome_dec,4,34476,0.0-4.0,"""event"",""trial"",""time""
""fullscreenenter"",""1"",""2510""
","
","
","""event"",""trial"",""time""
""fullscreenenter"",""1"",""2510""
","
",,4644.3,"<p>Howdy! In this experiment, you’ll be an explorer traveling through space to collect space treasure.</p><p>Your mission is to collect as much treasure as possible.</p><br><br><p><img src='run_exp/static/images/task_images/opening_img-01.jpg' height='300' width='auto'></p>",,,,,,,1,,,,,,,,,,,,,,,,,,
html-keyboard-response,5,35765,0.0-5.0,"""event"",""trial"",""time""
""fullscreenenter"",""1"",""2510""
","
","
","""event"",""trial"",""time""
""fullscreenenter"",""1"",""2510""
","
",,1286.2,"<p>Howdy! In this experiment, you’ll be an explorer traveling through space to collect space treasure.</p><p>Your mission is to collect as much treasure as possible.</p><br><br><p><img src='run_exp/static/images/task_images/opening_img-01.jpg' height='300' width='auto'></p><button class=""jspsych-html-btn-unchosen""><img src=""run_exp/static/images/task_images/planet-01.jpg"" height=""50""></button><button class=""jspsych-html-btn-chosen""><img src=""run_exp/static/images/task_images/planet-02.jpg"" height=""50""></button><p><b>[press the space bar to lock in your answer]<b><br></p>",32,,,,,,,,,,,,,,,,,,,,,,,,
instruc_goal,6,45808,0.0-6.0-0.0,"""event"",""trial"",""time""
""fullscreenenter"",""1"",""2510""
","
","
","""event"",""trial"",""time""
""fullscreenenter"",""1"",""2510""
","
",,null,run_exp/static/audio/clip_3_goal.m4a,null,"<p> As a space explorer, you’ll visit different planets to dig for space treasure, these pink gems.</p> <p> The more treasure you dig up, the more bonus money you’ll win! </p><br><br><p><img src='run_exp/static/images/task_images/pink_gem.jpg' height='300' width='auto'></p>",,,,,,,,,,,,,,,,,,,,,,,
instruc_goal,7,47875,0.0-6.0-1.0,"""event"",""trial"",""time""
""fullscreenenter"",""1"",""2510""
","
","
","""event"",""trial"",""time""
""fullscreenenter"",""1"",""2510""
","
",,2065.1,"<p> As a space explorer, you’ll visit different planets to dig for space treasure, these pink gems.</p> <p> The more treasure you dig up, the more bonus money you’ll win! </p><br><br><p><img src='run_exp/static/images/task_images/pink_gem.jpg' height='300' width='auto'></p>",,,,,,,1,,,,,,,,,,,,,,,,,,
html-keyboard-response,8,48302,0.0-6.0-2.0,"""event"",""trial"",""time""
""fullscreenenter"",""1"",""2510""
","
","
","""event"",""trial"",""time""
""fullscreenenter"",""1"",""2510""
","
",,425.3,"<p> As a space explorer, you’ll visit different planets to dig for space treasure, these pink gems.</p> <p> The more treasure you dig up, the more bonus money you’ll win! </p><br><br><p><img src='run_exp/static/images/task_images/pink_gem.jpg' height='300' width='auto'></p><button class=""jspsych-html-btn-unchosen""><img src=""run_exp/static/images/task_images/planet-01.jpg"" height=""50""></button><button class=""jspsych-html-btn-chosen""><img src=""run_exp/static/images/task_images/planet-02.jpg"" height=""50""></button><p><b>[press the space bar to lock in your answer]<b><br></p>",32,,,,,,,,,,,,,,,,,,,,,,,,
instruc_dig,9,64304,0.0-7.0-0.0,"""event"",""trial"",""time""
""fullscreenenter"",""1"",""2510""
","
","
","""event"",""trial"",""time""
""fullscreenenter"",""1"",""2510""
","
",,null,run_exp/static/audio/clip_4_dig.m4a,null,,,,,,,100,,,,,,,,,,,,,,,,,
instruc_dig_try,10,66049,0.0-7.0-1.0,"""event"",""trial"",""time""
""fullscreenenter"",""1"",""2510""
","
","
","""event"",""trial"",""time""
""fullscreenenter"",""1"",""2510""
","
",,1743.5,"<p> When you’ve arrived at a new planet, you will dig once. </p> <p>Then, you get to decide if you want to stay on the planet and dig again or travel to a new planet and dig there.</p> <p> To stay and dig, press the letter <strong>‘A’</strong> on your keyboard. Try pressing it now! </p><p><img src='run_exp/static/images/task_images/land.jpg'  height='700' width='auto'></p>",65,"<p> When you’ve arrived at a new planet, you will dig once. </p> <p>Then, you get to decide if you want to stay on the planet and dig again or travel to a new planet and dig there.</p> <p> To stay and dig, press the letter <strong>‘A’</strong> on your keyboard. Try pressing it now! </p><p><img src='run_exp/static/images/task_images/land.jpg'  height='700' width='auto'></p>",,,,,,100,,,,,,,,,,,,,,,,,
dig_prac,11,68058,0.0-7.0-2.0,"""event"",""trial"",""time""
""fullscreenenter"",""1"",""2510""
","
","
","""event"",""trial"",""time""
""fullscreenenter"",""1"",""2510""
","
",,,,,,,,,,,,"[{""stimulus"":""run_exp/static/images/task_images/dig.jpg"",""time"":0.2999999523162842},{""stimulus"":""run_exp/static/images/task_images/land.jpg"",""time"":670.2999999523163},{""stimulus"":""run_exp/static/images/task_images/dig.jpg"",""time"":1336.3999999761581}]",[],,,,,,,,,,,,,,,
instruc_travel,12,104282,0.0-7.0-3.0,"""event"",""trial"",""time""
""fullscreenenter"",""1"",""2510""
","
","
","""event"",""trial"",""time""
""fullscreenenter"",""1"",""2510""
","
",,null,run_exp/static/audio/clip_5_travel.m4a,null,"<p>Every time you dig up gems, there are less gems on the planet, so the more you dig on a planet the fewer gems you’ll get with each dig.</p><p>When gems are running low, you may want to travel to a new planet. </p> <p>  Planets are very far apart in this galaxy, so it will take some time to travel between them. </p> <br><p>There are lots and lots of planets for you to visit, so you won’t be able to return to any planets you’ve seen before. </p><br><p>To leave this planet and travel to a new one, press the letter <strong>‘L’</strong> on your keyboard. Try pressing it now! </p><p><img src='run_exp/static/images/task_images/rocket-01.jpg'  height='600' width='auto'></p>",,,,,,,,,,,,,,,,,,,,,,,
instruc_travel_try,13,104753,0.0-7.0-4.0,"""event"",""trial"",""time""
""fullscreenenter"",""1"",""2510""
","
","
","""event"",""trial"",""time""
""fullscreenenter"",""1"",""2510""
","
",,468,"<p>Every time you dig up gems, there are less gems on the planet, so the more you dig on a planet the fewer gems you’ll get with each dig.</p><p>When gems are running low, you may want to travel to a new planet. </p> <p>  Planets are very far apart in this galaxy, so it will take some time to travel between them. </p> <br><p>There are lots and lots of planets for you to visit, so you won’t be able to return to any planets you’ve seen before. </p><br><p>To leave this planet and travel to a new one, press the letter <strong>‘L’</strong> on your keyboard. Try pressing it now! </p><p><img src='run_exp/static/images/task_images/rocket-01.jpg'  height='600' width='auto'></p>",76,"<p>Every time you dig up gems, there are less gems on the planet, so the more you dig on a planet the fewer gems you’ll get with each dig.</p><p>When gems are running low, you may want to travel to a new planet. </p> <p>  Planets are very far apart in this galaxy, so it will take some time to travel between them. </p> <br><p>There are lots and lots of planets for you to visit, so you won’t be able to return to any planets you’ve seen before. </p><br><p>To leave this planet and travel to a new one, press the letter <strong>‘L’</strong> on your keyboard. Try pressing it now! </p><p><img src='run_exp/static/images/task_images/rocket-01.jpg'  height='600' width='auto'></p>",,,,,,,,,,,,,,,,,,,,,,,
travel_prac,14,114756,0.0-7.0-5.0,"""event"",""trial"",""time""
""fullscreenenter"",""1"",""2510""
","
","
","""event"",""trial"",""time""
""fullscreenenter"",""1"",""2510""
","
",,,,,,,,,,,,"[{""stimulus"":""run_exp/static/images/task_images/rocket-01.jpg"",""time"":0.30000001192092896},{""stimulus"":""run_exp/static/images/task_images/rocket-02.jpg"",""time"":1113.800000011921},{""stimulus"":""run_exp/static/images/task_images/rocket-03.jpg"",""time"":2224.800000011921},{""stimulus"":""run_exp/static/images/task_images/rocket-04.jpg"",""time"":3336},{""stimulus"":""run_exp/static/images/task_images/rocket-05.jpg"",""time"":4447.199999988079},{""stimulus"":""run_exp/static/images/task_images/rocket-06.jpg"",""time"":5558.300000011921},{""stimulus"":""run_exp/static/images/task_images/rocket-07.jpg"",""time"":6668.5},{""stimulus"":""run_exp/static/images/task_images/rocket-08.jpg"",""time"":7780.099999964237},{""stimulus"":""run_exp/static/images/task_images/rocket-09.jpg"",""time"":8890.399999976158}]",[],0,,,,,,,,,,,,,,
instruc_alien_greet,15,141935,0.0-7.0-6.0,"""event"",""trial"",""time""
""fullscreenenter"",""1"",""2510""
","
","
","""event"",""trial"",""time""
""fullscreenenter"",""1"",""2510""
","
",,null,run_exp/static/audio/clip_6_alien.m4a,null,"<p>When you arrive at a new planet, the alien who owns the treasure mine on that planet will greet you!</p><p>The better an alien takes care of their mine the easier it is to dig for gems. Some aliens take better care of their mine than others. So, you won’t get exactly the same amount of gems on each planet.</p><p>What the alien looks like does not tell you anything about how many gems there are on the planet.</p><br><p><img src=""run_exp/static/images/task_images/aliens/instructions_aliens/planet/alien_planet-1.jpg""  height=""600"" width=""auto""></p>",,,,,,,,,,,,,,,,,,,,,,,
instruc_alien_greet,16,144258,0.0-7.0-7.0,"""event"",""trial"",""time""
""fullscreenenter"",""1"",""2510""
","
","
","""event"",""trial"",""time""
""fullscreenenter"",""1"",""2510""
","
",,2320.2,"<p>When you arrive at a new planet, the alien who owns the treasure mine on that planet will greet you!</p><p>The better an alien takes care of their mine the easier it is to dig for gems. Some aliens take better care of their mine than others. So, you won’t get exactly the same amount of gems on each planet.</p><p>What the alien looks like does not tell you anything about how many gems there are on the planet.</p><br><p><img src=""run_exp/static/images/task_images/aliens/instructions_aliens/planet/alien_planet-1.jpg""  height=""600"" width=""auto""></p>",,,,,,,1,,,,,,,,,,,,,,,,,,
html-keyboard-response,17,145023,0.0-7.0-8.0,"""event"",""trial"",""time""
""fullscreenenter"",""1"",""2510""
","
","
","""event"",""trial"",""time""
""fullscreenenter"",""1"",""2510""
","
",,763.3,"<p>When you arrive at a new planet, the alien who owns the treasure mine on that planet will greet you!</p><p>The better an alien takes care of their mine the easier it is to dig for gems. Some aliens take better care of their mine than others. So, you won’t get exactly the same amount of gems on each planet.</p><p>What the alien looks like does not tell you anything about how many gems there are on the planet.</p><br><p><img src=""run_exp/static/images/task_images/aliens/instructions_aliens/planet/alien_planet-1.jpg""  height=""600"" width=""auto""></p><button class=""jspsych-html-btn-unchosen""><img src=""run_exp/static/images/task_images/planet-01.jpg"" height=""50""></button><button class=""jspsych-html-btn-chosen""><img src=""run_exp/static/images/task_images/planet-02.jpg"" height=""50""></button><p><b>[press the space bar to lock in your answer]<b><br></p>",32,,,,,,,,,,,,,,,,,,,,,,,,
time_out,18,156101,0.0-8.0-0.0,"""event"",""trial"",""time""
""fullscreenenter"",""1"",""2510""
","
","
","""event"",""trial"",""time""
""fullscreenenter"",""1"",""2510""
","
",,null,run_exp/static/audio/clip_7_timeout.m4a,null,"<p>If you don't make your choice fast enough, you’ll have to wait a few seconds before you can make another one.</p><p>You can’t dig for more gems or travel to new planets. You just have to sit and wait.</p><br><p><img src='run_exp/static/images/task_images/time_out.jpg'  height='600' width='auto'></p>",,,,,,,,,,,,,,,,,,,,,,,
time_out,19,157991,0.0-8.0-1.0,"""event"",""trial"",""time""
""fullscreenenter"",""1"",""2510""
","
","
","""event"",""trial"",""time""
""fullscreenenter"",""1"",""2510""
","
",,1888.4,"<p>If you don't make your choice fast enough, you’ll have to wait a few seconds before you can make another one.</p><p>You can’t dig for more gems or travel to new planets. You just have to sit and wait.</p><br><p><img src='run_exp/static/images/task_images/time_out.jpg'  height='600' width='auto'></p>",,,,,,,1,,,,,,,,,,,,,,,,,,
html-keyboard-response,20,158418,0.0-8.0-2.0,"""event"",""trial"",""time""
""fullscreenenter"",""1"",""2510""
","
","
","""event"",""trial"",""time""
""fullscreenenter"",""1"",""2510""
","
",,424.7,"<p>If you don't make your choice fast enough, you’ll have to wait a few seconds before you can make another one.</p><p>You can’t dig for more gems or travel to new planets. You just have to sit and wait.</p><br><p><img src='run_exp/static/images/task_images/time_out.jpg'  height='600' width='auto'></p><button class=""jspsych-html-btn-unchosen""><img src=""run_exp/static/images/task_images/planet-01.jpg"" height=""50""></button><button class=""jspsych-html-btn-chosen""><img src=""run_exp/static/images/task_images/planet-02.jpg"" height=""50""></button><p><b>[press the space bar to lock in your answer]<b><br></p>",32,,,,,,,,,,,,,,,,,,,,,,,,
instruc_break,21,174084,0.0-9.0-0.0,"""event"",""trial"",""time""
""fullscreenenter"",""1"",""2510""
","
","
","""event"",""trial"",""time""
""fullscreenenter"",""1"",""2510""
","
",,null,run_exp/static/audio/clip_8_break.m4a,null,"<p> After digging and traveling for a while, you’ll be able to take a break at home base. </p><p>The game will last 20 minutes no matter what.</p><p>You will visit home base every 5 minutes, so, you will visit home base three times during the game.</p><br><p><img src='run_exp/static/images/task_images/home_base.jpg' height='600' width='auto'></p>",,,,,,,,,,,,,,,,,,,,,,,
instruc_break,22,178125,0.0-9.0-1.0,"""event"",""trial"",""time""
""fullscreenenter"",""1"",""2510""
","
","
","""event"",""trial"",""time""
""fullscreenenter"",""1"",""2510""
","
",,4038,"<p> After digging and traveling for a while, you’ll be able to take a break at home base. </p><p>The game will last 20 minutes no matter what.</p><p>You will visit home base every 5 minutes, so, you will visit home base three times during the game.</p><br><p><img src='run_exp/static/images/task_images/home_base.jpg' height='600' width='auto'></p>",,,,,,,1,,,,,,,,,,,,,,,,,,
html-keyboard-response,23,178997,0.0-9.0-2.0,"""event"",""trial"",""time""
""fullscreenenter"",""1"",""2510""
","
","
","""event"",""trial"",""time""
""fullscreenenter"",""1"",""2510""
","
",,869.8,"<p> After digging and traveling for a while, you’ll be able to take a break at home base. </p><p>The game will last 20 minutes no matter what.</p><p>You will visit home base every 5 minutes, so, you will visit home base three times during the game.</p><br><p><img src='run_exp/static/images/task_images/home_base.jpg' height='600' width='auto'></p><button class=""jspsych-html-btn-unchosen""><img src=""run_exp/static/images/task_images/planet-01.jpg"" height=""50""></button><button class=""jspsych-html-btn-chosen""><img src=""run_exp/static/images/task_images/planet-02.jpg"" height=""50""></button><p><b>[press the space bar to lock in your answer]<b><br></p>",32,,,,,,,,,,,,,,,,,,,,,,,,
instruc_prac_game,24,189103,0.0-10.0-0.0,"""event"",""trial"",""time""
""fullscreenenter"",""1"",""2510""
","
","
","""event"",""trial"",""time""
""fullscreenenter"",""1"",""2510""
","
",,null,run_exp/static/audio/clip_9_practice.m4a,null,"<p> Are you ready to play a practice game? </p> <p>In this practice game, you'll be digging up barrels of gems. But, in the real game, you'll be digging up the gems themselves. </p>",,,,,,,,,,,,,,,,,,,,,,,
html-button-response,25,190291,0.0-10.0-1.0,"""event"",""trial"",""time""
""fullscreenenter"",""1"",""2510""
","
","
","""event"",""trial"",""time""
""fullscreenenter"",""1"",""2510""
","
",,1186.3,"<p> Are you ready to play a practice game? </p> <p>In this practice game, you'll be digging up barrels of gems. But, in the real game, you'll be digging up the gems themselves. </p>",,,,,,,0,,,,,,,,,,,,,,,,,,
alien_welcome_prac,26,195296,0.0-11.0-0.0,"""event"",""trial"",""time""
""fullscreenenter"",""1"",""2510""
","
","
","""event"",""trial"",""time""
""fullscreenenter"",""1"",""2510""
","
",,null,run_exp/static/images/task_images/aliens/practice_aliens/planet/alien_planet-5.jpg,null,,,,,,,,,,,,,,,,,,,,,,,,
land_prac,27,195799,0.0-11.0-1.0,"""event"",""trial"",""time""
""fullscreenenter"",""1"",""2510""
","
","
","""event"",""trial"",""time""
""fullscreenenter"",""1"",""2510""
","
",,null,run_exp/static/images/task_images/land.jpg,null,,,,,,,101,,,0,,,,,,,,,,,,,,
dig_prac,28,197805,0.0-11.0-2.0,"""event"",""trial"",""time""
""fullscreenenter"",""1"",""2510""
","
","
","""event"",""trial"",""time""
""fullscreenenter"",""1"",""2510""
","
",,,,,,,,,,,,"[{""stimulus"":""run_exp/static/images/task_images/dig.jpg"",""time"":0.5},{""stimulus"":""run_exp/static/images/task_images/land.jpg"",""time"":669.8999999761581},{""stimulus"":""run_exp/static/images/task_images/dig.jpg"",""time"":1337.2999999523163}]",[],,,,,,,,,,,,,,,
harvest_prac,29,198808,0.0-11.0-3.0,"""event"",""trial"",""time""
""fullscreenenter"",""1"",""2510""
","
","
","""event"",""trial"",""time""
""fullscreenenter"",""1"",""2510""
","
",,null,run_exp/static/images/task_images/barrel_text.jpg,null,,,,,,,,,,,,,,,,,,,,,,,,
decision_prac,30,200540,0.0-11.0-4.0,"""event"",""trial"",""time""
""fullscreenenter"",""1"",""2510""
","
","
","""event"",""trial"",""time""
""fullscreenenter"",""1"",""2510""
","
",,1730.8,run_exp/static/images/task_images/land.jpg,65,,,,,,,,,,,1,,,,,,,,,,,,,
dig_prac,31,202547,0.0-12.0-0.0,"""event"",""trial"",""time""
""fullscreenenter"",""1"",""2510""
","
","
","""event"",""trial"",""time""
""fullscreenenter"",""1"",""2510""
","
",,,,,,,,,,,,"[{""stimulus"":""run_exp/static/images/task_images/dig.jpg"",""time"":0.09999996423721313},{""stimulus"":""run_exp/static/images/task_images/land.jpg"",""time"":669.3999999761581},{""stimulus"":""run_exp/static/images/task_images/dig.jpg"",""time"":1336.5999999642372}]",[],,,,,,,,,,,,,,,
harvest_prac,32,203550,0.0-12.0-1.0,"""event"",""trial"",""time""
""fullscreenenter"",""1"",""2510""
","
","
","""event"",""trial"",""time""
""fullscreenenter"",""1"",""2510""
","
",,null,run_exp/static/images/task_images/barrel_text.jpg,null,,,,,,,,,,,,,,,,,,,,,,,,
decision_prac,33,204602,0.0-12.0-2.0,"""event"",""trial"",""time""
""fullscreenenter"",""1"",""2510""
","
","
","""event"",""trial"",""time""
""fullscreenenter"",""1"",""2510""
","
",,1050.7,run_exp/static/images/task_images/land.jpg,65,,,,,,,,,,,2,,,,,,,,,,,,,
dig_prac,34,206608,0.0-13.0-0.0,"""event"",""trial"",""time""
""fullscreenenter"",""1"",""2510""
","
","
","""event"",""trial"",""time""
""fullscreenenter"",""1"",""2510""
","
",,,,,,,,,,,,"[{""stimulus"":""run_exp/static/images/task_images/dig.jpg"",""time"":0.10000002384185791},{""stimulus"":""run_exp/static/images/task_images/land.jpg"",""time"":669.6999999880791},{""stimulus"":""run_exp/static/images/task_images/dig.jpg"",""time"":1335.6000000238419}]",[],,,,,,,,,,,,,,,
harvest_prac,35,207611,0.0-13.0-1.0,"""event"",""trial"",""time""
""fullscreenenter"",""1"",""2510""
","
","
","""event"",""trial"",""time""
""fullscreenenter"",""1"",""2510""
","
",,null,run_exp/static/images/task_images/barrel_text.jpg,null,,,,,,,,,,,,,,,,,,,,,,,,
decision_prac,36,208020,0.0-13.0-2.0,"""event"",""trial"",""time""
""fullscreenenter"",""1"",""2510""
","
","
","""event"",""trial"",""time""
""fullscreenenter"",""1"",""2510""
","
",,407.6,run_exp/static/images/task_images/land.jpg,65,,,,,,,,,,,3,,,,,,,,,,,,,
dig_prac,37,210024,0.0-14.0-0.0,"""event"",""trial"",""time""
""fullscreenenter"",""1"",""2510""
","
","
","""event"",""trial"",""time""
""fullscreenenter"",""1"",""2510""
","
",,,,,,,,,,,,"[{""stimulus"":""run_exp/static/images/task_images/dig.jpg"",""time"":0.09999996423721313},{""stimulus"":""run_exp/static/images/task_images/land.jpg"",""time"":669.0999999642372},{""stimulus"":""run_exp/static/images/task_images/dig.jpg"",""time"":1336}]",[],,,,,,,,,,,,,,,
harvest_prac,38,211027,0.0-14.0-1.0,"""event"",""trial"",""time""
""fullscreenenter"",""1"",""2510""
","
","
","""event"",""trial"",""time""
""fullscreenenter"",""1"",""2510""
","
",,null,run_exp/static/images/task_images/barrel_text.jpg,null,,,,,,,,,,,,,,,,,,,,,,,,
decision_prac,39,211536,0.0-14.0-2.0,"""event"",""trial"",""time""
""fullscreenenter"",""1"",""2510""
","
","
","""event"",""trial"",""time""
""fullscreenenter"",""1"",""2510""
","
",,507.3,run_exp/static/images/task_images/land.jpg,65,,,,,,,,,,,4,,,,,,,,,,,,,
dig_prac,40,213542,0.0-15.0-0.0,"""event"",""trial"",""time""
""fullscreenenter"",""1"",""2510""
","
","
","""event"",""trial"",""time""
""fullscreenenter"",""1"",""2510""
","
",,,,,,,,,,,,"[{""stimulus"":""run_exp/static/images/task_images/dig.jpg"",""time"":0.19999998807907104},{""stimulus"":""run_exp/static/images/task_images/land.jpg"",""time"":669.3000000119209},{""stimulus"":""run_exp/static/images/task_images/dig.jpg"",""time"":1336.199999988079}]",[],,,,,,,,,,,,,,,
harvest_prac,41,214546,0.0-15.0-1.0,"""event"",""trial"",""time""
""fullscreenenter"",""1"",""2510""
","
","
","""event"",""trial"",""time""
""fullscreenenter"",""1"",""2510""
","
",,null,run_exp/static/images/task_images/barrel_text.jpg,null,,,,,,,,,,,,,,,,,,,,,,,,
decision_prac,42,215025,0.0-15.0-2.0,"""event"",""trial"",""time""
""fullscreenenter"",""1"",""2510""
","
","
","""event"",""trial"",""time""
""fullscreenenter"",""1"",""2510""
","
",,477.3,run_exp/static/images/task_images/land.jpg,65,,,,,,,,,,,,1,,,,,,,,,,,,
quiz_instruc,43,218809,0.0-16.0-0.0,"""event"",""trial"",""time""
""fullscreenenter"",""1"",""2510""
","
","
","""event"",""trial"",""time""
""fullscreenenter"",""1"",""2510""
","
",,3780.8,run_exp/static/audio/clip_10_quiz.m4a,,,,,,,0,,,,,,,,,,,,,,,,,,
instruc_repeat,44,261551,0.0-16.0-1.0,"""event"",""trial"",""time""
""fullscreenenter"",""1"",""2510""
","
","
","""event"",""trial"",""time""
""fullscreenenter"",""1"",""2510""
","
",,null,"<p> Are you ready to play a practice game? </p> <p>In this practice game, you'll be digging up barrels of gems. But, in the real game, you'll be digging up the gems themselves. </p>",null,"<p>In this game, your goal is to collect as many gems as you can. That’s how you will win bonus money. </p> <p>The entire game will last 20 minutes no matter how many gems you collect or how many planets you visit. </p><p>To stay on a planet and dig again, press the letter A on your keyboard. To leave for a new planet, press the letter L.</p><p>The more you dig on a planet, the fewer gems you’ll get with each dig which is why you might consider leaving for a new planet. </p><p>When you arrive at a new planet, you’ll be greeted by an alien. What the alien looks like does not tell you anything about how much treasure is on the planet. </p>",,,,,,,,,,,,,,,,,,,,,,,
instruc_repeat_continue,45,263858,0.0-16.0-2.0,"""event"",""trial"",""time""
""fullscreenenter"",""1"",""2510""
","
","
","""event"",""trial"",""time""
""fullscreenenter"",""1"",""2510""
","
",,2304.9,"<p> Are you ready to play a practice game? </p> <p>In this practice game, you'll be digging up barrels of gems. But, in the real game, you'll be digging up the gems themselves. </p>",,,,,,,0,,,,,,,,,,,,,,,,,,
quiz_q_1_ask,46,268691,0.0-16.0-3.0,"""event"",""trial"",""time""
""fullscreenenter"",""1"",""2510""
","
","
","""event"",""trial"",""time""
""fullscreenenter"",""1"",""2510""
","
",,4831.7,run_exp/static/audio/clip_11_q1_ask.m4a,,,,,,,2,,,,,,,,,,,,,,,,,,
quiz_q_1_fb_correct,47,272537,0.0-17.0-0.0,"""event"",""trial"",""time""
""fullscreenenter"",""1"",""2510""
","
","
","""event"",""trial"",""time""
""fullscreenenter"",""1"",""2510""
","
",,null,run_exp/static/audio/clip_12_q1_correct.m4a,null,<p>That’s correct. You win extra money by collecting more gems.</p>,,,,,,,,,,,,,,,,,,,,,,,
quiz_q_2_ask,48,276591,0.0-17.0-1.0,"""event"",""trial"",""time""
""fullscreenenter"",""1"",""2510""
","
","
","""event"",""trial"",""time""
""fullscreenenter"",""1"",""2510""
","
",,4050.7,run_exp/static/audio/clip_14_q2_ask.m4a,,,,,,,1,,,,,,,,,,,,,,,,,,
quiz_q_2_fb_correct,49,280579,0.0-18.0-0.0,"""event"",""trial"",""time""
""fullscreenenter"",""1"",""2510""
","
","
","""event"",""trial"",""time""
""fullscreenenter"",""1"",""2510""
","
",,null,run_exp/static/audio/clip_15_q2_correct.m4a,null,<p>That’s correct. The experiment is 20 minutes no matter what.</p>,,,,,,,,,,,,,,,,,,,,,,,
quiz_q_3_ask,50,283291,0.0-18.0-1.0,"""event"",""trial"",""time""
""fullscreenenter"",""1"",""2510""
","
","
","""event"",""trial"",""time""
""fullscreenenter"",""1"",""2510""
","
",,2709.9,run_exp/static/audio/clip_17_q3_ask.m4a,,,,,,,1,,,,,,,,,,,,,,,,,,
quiz_q_3_fb_correct,51,287257,0.0-19.0-0.0,"""event"",""trial"",""time""
""fullscreenenter"",""1"",""2510""
","
","
","""event"",""trial"",""time""
""fullscreenenter"",""1"",""2510""
","
",,null,run_exp/static/audio/clip_18_q3_correct.m4a,null,<p> That’s correct. You press the letter L to travel to a new planet.</p>,,,,,,,,,,,,,,,,,,,,,,,
quiz_q_4_ask,52,290490,0.0-19.0-1.0,"""event"",""trial"",""time""
""fullscreenenter"",""1"",""2510""
","
","
","""event"",""trial"",""time""
""fullscreenenter"",""1"",""2510""
","
",,3230.9,run_exp/static/audio/clip_20_q4_ask.m4a,,,,,,,0,,,,,,,,,,,,,,,,,,
quiz_q_4_fb_correct,53,295812,0.0-20.0-0.0,"""event"",""trial"",""time""
""fullscreenenter"",""1"",""2510""
","
","
","""event"",""trial"",""time""
""fullscreenenter"",""1"",""2510""
","
",,null,run_exp/static/audio/clip_21_q4_correct.m4a,null,<p> That’s correct. The more you dig on a planet the fewer gems you’ll get with each dig. </p>,,,,,,,,,,,,,,,,,,,,,,,
quiz_q_5_ask,54,298524,0.0-20.0-1.0,"""event"",""trial"",""time""
""fullscreenenter"",""1"",""2510""
","
","
","""event"",""trial"",""time""
""fullscreenenter"",""1"",""2510""
","
",,2710.1,run_exp/static/audio/clip_23_q5_ask.m4a,,,,,,,1,,,,,,,,,,,,,,,,,,
quiz_q_5_fb_correct,55,303513,0.0-21.0-0.0,"""event"",""trial"",""time""
""fullscreenenter"",""1"",""2510""
","
","
","""event"",""trial"",""time""
""fullscreenenter"",""1"",""2510""
","
",,null,run_exp/static/audio/clip_24_q5_correct.m4a,null,<p> That’s correct. The alien tells you nothing about how much treasure is on the planet.</p>,,,,,,,,,,,,,,,,,,,,,,,
quiz_correct,56,306948,0.0-22.0-0.0,"""event"",""trial"",""time""
""fullscreenenter"",""1"",""2510""
","
","
","""event"",""trial"",""time""
""fullscreenenter"",""1"",""2510""
","
",,null,run_exp/static/audio/clip_26_correct_quiz.m4a,null,,,,,,,,,,,,,,,,,,,,,,,,
quiz_correct_continue,57,308924,0.0-22.0-1.0,"""event"",""trial"",""time""
""fullscreenenter"",""1"",""2510""
","
","
","""event"",""trial"",""time""
""fullscreenenter"",""1"",""2510""
","
",,1975.3,<p>Good job! You're now ready to move on to the real game!</p>,,,,,,,0,,,,,,,,,,,,,,,,,,
audio-keyboard-response,58,319043,0.0-22.0-2.0,"""event"",""trial"",""time""
""fullscreenenter"",""1"",""2510""
","
","
","""event"",""trial"",""time""
""fullscreenenter"",""1"",""2510""
","
",,null,run_exp/static/audio/clip_28_real_game.m4a,null,,,,,,,,,,,,,,,,,,,,,,,,
instruc_begin_exp_contine,59,320291,0.0-22.0-3.0,"""event"",""trial"",""time""
""fullscreenenter"",""1"",""2510""
","
","
","""event"",""trial"",""time""
""fullscreenenter"",""1"",""2510""
","
",,1245.7,"<p>Now that you know how  to dig for space treasure and travel to new planets,you can start exploring! </p><p>Do you want to go over the instructions again or get started with the real game?</p>",,,,,,,1,,,,,,1,,,,,,,,,,,,
alien_welcome,60,325296,0.0-23.0-0.0,"""event"",""trial"",""time""
""fullscreenenter"",""1"",""2510""
","
","
","""event"",""trial"",""time""
""fullscreenenter"",""1"",""2510""
","
",,null,run_exp/static/images/task_images/aliens/old_aliens/planet/alien_planet-33.jpg,null,,,,,,,,,,,,,33,"33,14,5,80,74,43,65,46,25,44,70,30,75,36,15,52,77,19,64,39,27,23,22,26,31,72,61,2,68,56,17,10,1,9,8,21,57,53,34,58,69,60",,,,,,,,,,
land,61,325800,0.0-23.0-1.0,"""event"",""trial"",""time""
""fullscreenenter"",""1"",""2510""
","
","
","""event"",""trial"",""time""
""fullscreenenter"",""1"",""2510""
","
",,null,run_exp/static/images/task_images/land.jpg,null,,,,,,,98,,,1,,,,,,,,,,,,,,
dig,62,327805,0.0-23.0-2.0,"""event"",""trial"",""time""
""fullscreenenter"",""1"",""2510""
","
","
","""event"",""trial"",""time""
""fullscreenenter"",""1"",""2510""
","
",,,,,,,,,,,,"[{""stimulus"":""run_exp/static/images/task_images/dig.jpg"",""time"":0.3999999761581421},{""stimulus"":""run_exp/static/images/task_images/land.jpg"",""time"":669.6999999880791},{""stimulus"":""run_exp/static/images/task_images/dig.jpg"",""time"":1336.3999999761581}]",[],1,,,,,,,,,,,,,,
harvest,63,328808,0.0-23.0-3.0,"""event"",""trial"",""time""
""fullscreenenter"",""1"",""2510""
","
","
","""event"",""trial"",""time""
""fullscreenenter"",""1"",""2510""
","
",,null,run_exp/static/images/task_images/gems/98.jpg,null,,,,,,,22,,,1,,,,,98,0.223322372,0.224489796,,,,,,,
decision,64,329521,0.0-23.0-4.0,"""event"",""trial"",""time""
""fullscreenenter"",""1"",""2510""
","
","
","""event"",""trial"",""time""
""fullscreenenter"",""1"",""2510""
","
",,711.8,run_exp/static/images/task_images/land.jpg,65,,,,,,,22,,,1,,,,,,,,9228,1,0,FALSE,,,
dig,65,331813,0.0-24.0-0.0,"""event"",""trial"",""time""
""fullscreenenter"",""1"",""2510""
","
","
","""event"",""trial"",""time""
""fullscreenenter"",""1"",""2510""
","
",,,,,,,,,,,,"[{""stimulus"":""run_exp/static/images/task_images/dig.jpg"",""time"":0.30000001192092896},{""stimulus"":""run_exp/static/images/task_images/land.jpg"",""time"":764},{""stimulus"":""run_exp/static/images/task_images/dig.jpg"",""time"":1526.800000011921}]",[],1,,,,,,,,,,,,,,
harvest,66,332816,0.0-24.0-1.0,"""event"",""trial"",""time""
""fullscreenenter"",""1"",""2510""
","
","
","""event"",""trial"",""time""
""fullscreenenter"",""1"",""2510""
","
",,null,run_exp/static/images/task_images/gems/22.jpg,null,,,,,,,3,,,1,,,,,22,0.144378679,0.136363636,,,,,,,
decision,67,333410,0.0-24.0-2.0,"""event"",""trial"",""time""
""fullscreenenter"",""1"",""2510""
","
","
","""event"",""trial"",""time""
""fullscreenenter"",""1"",""2510""
","
",,592.4,run_exp/static/images/task_images/land.jpg,65,,,,,,,3,,,1,,,,,,,,13117,1,1,FALSE,,,
dig,68,335821,0.0-25.0-0.0,"""event"",""trial"",""time""
""fullscreenenter"",""1"",""2510""
","
","
","""event"",""trial"",""time""
""fullscreenenter"",""1"",""2510""
","
",,,,,,,,,,,,"[{""stimulus"":""run_exp/static/images/task_images/dig.jpg"",""time"":0.2999999523162842},{""stimulus"":""run_exp/static/images/task_images/land.jpg"",""time"":805},{""stimulus"":""run_exp/static/images/task_images/dig.jpg"",""time"":1606}]",[],1,,,,,,,,,,,,,,
harvest,69,336823,0.0-25.0-1.0,"""event"",""trial"",""time""
""fullscreenenter"",""1"",""2510""
","
","
","""event"",""trial"",""time""
""fullscreenenter"",""1"",""2510""
","
",,null,run_exp/static/images/task_images/gems/3.jpg,null,,,,,,,1,,,1,,,,,3,0.22557481,0.333333333,,,,,,,
decision,70,337052,0.0-25.0-2.0,"""event"",""trial"",""time""
""fullscreenenter"",""1"",""2510""
","
","
","""event"",""trial"",""time""
""fullscreenenter"",""1"",""2510""
","
",,226.4,run_exp/static/images/task_images/land.jpg,76,,,,,,,1,,,1,,,,,,,,16759,1,2,TRUE,,,
travel,71,346822,0.0-26.0-0.0,"""event"",""trial"",""time""
""fullscreenenter"",""1"",""2510""
","
","
","""event"",""trial"",""time""
""fullscreenenter"",""1"",""2510""
","
",,,,,,,,,,,,"[{""stimulus"":""run_exp/static/images/task_images/rocket-01.jpg"",""time"":0.19999998807907104},{""stimulus"":""run_exp/static/images/task_images/rocket-02.jpg"",""time"":1087.3999999761581},{""stimulus"":""run_exp/static/images/task_images/rocket-03.jpg"",""time"":2171.399999976158},{""stimulus"":""run_exp/static/images/task_images/rocket-04.jpg"",""time"":3257.2999999523163},{""stimulus"":""run_exp/static/images/task_images/rocket-05.jpg"",""time"":4343},{""stimulus"":""run_exp/static/images/task_images/rocket-06.jpg"",""time"":5427.5},{""stimulus"":""run_exp/static/images/task_images/rocket-07.jpg"",""time"":6512.199999988079},{""stimulus"":""run_exp/static/images/task_images/rocket-08.jpg"",""time"":7597.199999988079},{""stimulus"":""run_exp/static/images/task_images/rocket-09.jpg"",""time"":8682.399999976158}]",[],1,,,,,,,,,,,,,,
alien_welcome,72,351826,0.0-26.0-1.0,"""event"",""trial"",""time""
""fullscreenenter"",""1"",""2510""
","
","
","""event"",""trial"",""time""
""fullscreenenter"",""1"",""2510""
","
",,null,run_exp/static/images/task_images/aliens/old_aliens/planet/alien_planet-14.jpg,null,,,,,,,,,,,,,14,"33,14,5,80,74,43,65,46,25,44,70,30,75,36,15,52,77,19,64,39,27,23,22,26,31,72,61,2,68,56,17,10,1,9,8,21,57,53,34,58,69,60",,,,,,,,,,
land,73,352329,0.0-26.0-2.0,"""event"",""trial"",""time""
""fullscreenenter"",""1"",""2510""
","
","
","""event"",""trial"",""time""
""fullscreenenter"",""1"",""2510""
","
",,null,run_exp/static/images/task_images/land.jpg,null,,,,,,,98,,,2,,,,,,,,,,,,,,
dig,74,354335,0.0-26.0-3.0,"""event"",""trial"",""time""
""fullscreenenter"",""1"",""2510""
","
","
","""event"",""trial"",""time""
""fullscreenenter"",""1"",""2510""
","
",,,,,,,,,,,,"[{""stimulus"":""run_exp/static/images/task_images/dig.jpg"",""time"":0.5},{""stimulus"":""run_exp/static/images/task_images/land.jpg"",""time"":670},{""stimulus"":""run_exp/static/images/task_images/dig.jpg"",""time"":1337.1000000238419}]",[],2,,,,,,,,,,,,,,
harvest,75,355339,0.0-26.0-4.0,"""event"",""trial"",""time""
""fullscreenenter"",""1"",""2510""
","
","
","""event"",""trial"",""time""
""fullscreenenter"",""1"",""2510""
","
",,null,run_exp/static/images/task_images/gems/98.jpg,null,,,,,,,16,,,2,,,,,98,0.167712399,0.163265306,,,,,,,
decision,76,355697,0.0-26.0-5.0,"""event"",""trial"",""time""
""fullscreenenter"",""1"",""2510""
","
","
","""event"",""trial"",""time""
""fullscreenenter"",""1"",""2510""
","
",,355.9,run_exp/static/images/task_images/land.jpg,65,,,,,,,16,,,2,,,,,,,,35404,1,0,FALSE,,,
dig,77,358345,0.0-27.0-0.0,"""event"",""trial"",""time""
""fullscreenenter"",""1"",""2510""
","
","
","""event"",""trial"",""time""
""fullscreenenter"",""1"",""2510""
","
",,,,,,,,,,,,"[{""stimulus"":""run_exp/static/images/task_images/dig.jpg"",""time"":0.19999998807907104},{""stimulus"":""run_exp/static/images/task_images/land.jpg"",""time"":883.3000000119209},{""stimulus"":""run_exp/static/images/task_images/dig.jpg"",""time"":1764.300000011921}]",[],2,,,,,,,,,,,,,,
harvest,78,359349,0.0-27.0-1.0,"""event"",""trial"",""time""
""fullscreenenter"",""1"",""2510""
","
","
","""event"",""trial"",""time""
""fullscreenenter"",""1"",""2510""
","
",,null,run_exp/static/images/task_images/gems/16.jpg,null,,,,,,,3,,,2,,,,,16,0.188718781,0.1875,,,,,,,
decision,79,359896,0.0-27.0-2.0,"""event"",""trial"",""time""
""fullscreenenter"",""1"",""2510""
","
","
","""event"",""trial"",""time""
""fullscreenenter"",""1"",""2510""
","
",,545.5,run_exp/static/images/task_images/land.jpg,76,,,,,,,3,,,2,,,,,,,,39603,1,1,TRUE,,,
travel,80,369352,0.0-28.0-0.0,"""event"",""trial"",""time""
""fullscreenenter"",""1"",""2510""
","
","
","""event"",""trial"",""time""
""fullscreenenter"",""1"",""2510""
","
",,,,,,,,,,,,"[{""stimulus"":""run_exp/static/images/task_images/rocket-01.jpg"",""time"":0},{""stimulus"":""run_exp/static/images/task_images/rocket-02.jpg"",""time"":1052.5999999642372},{""stimulus"":""run_exp/static/images/task_images/rocket-03.jpg"",""time"":2102.800000011921},{""stimulus"":""run_exp/static/images/task_images/rocket-04.jpg"",""time"":3152.5},{""stimulus"":""run_exp/static/images/task_images/rocket-05.jpg"",""time"":4201.5},{""stimulus"":""run_exp/static/images/task_images/rocket-06.jpg"",""time"":5252.300000011921},{""stimulus"":""run_exp/static/images/task_images/rocket-07.jpg"",""time"":6302.899999976158},{""stimulus"":""run_exp/static/images/task_images/rocket-08.jpg"",""time"":7352.5},{""stimulus"":""run_exp/static/images/task_images/rocket-09.jpg"",""time"":8402.5}]",[],2,,,,,,,,,,,,,,
alien_welcome,81,374356,0.0-28.0-1.0,"""event"",""trial"",""time""
""fullscreenenter"",""1"",""2510""
","
","
","""event"",""trial"",""time""
""fullscreenenter"",""1"",""2510""
","
",,null,run_exp/static/images/task_images/aliens/old_aliens/planet/alien_planet-5.jpg,null,,,,,,,,,,,,,5,"33,14,5,80,74,43,65,46,25,44,70,30,75,36,15,52,77,19,64,39,27,23,22,26,31,72,61,2,68,56,17,10,1,9,8,21,57,53,34,58,69,60",,,,,,,,,,
land,82,374859,0.0-28.0-2.0,"""event"",""trial"",""time""
""fullscreenenter"",""1"",""2510""
","
","
","""event"",""trial"",""time""
""fullscreenenter"",""1"",""2510""
","
",,null,run_exp/static/images/task_images/land.jpg,null,,,,,,,100,,,3,,,,,,,,,,,,,,
dig,83,376865,0.0-28.0-3.0,"""event"",""trial"",""time""
""fullscreenenter"",""1"",""2510""
","
","
","""event"",""trial"",""time""
""fullscreenenter"",""1"",""2510""
","
",,,,,,,,,,,,"[{""stimulus"":""run_exp/static/images/task_images/dig.jpg"",""time"":0.5},{""stimulus"":""run_exp/static/images/task_images/land.jpg"",""time"":669.8999999761581},{""stimulus"":""run_exp/static/images/task_images/dig.jpg"",""time"":1337.199999988079}]",[],3,,,,,,,,,,,,,,
harvest,84,377868,0.0-28.0-4.0,"""event"",""trial"",""time""
""fullscreenenter"",""1"",""2510""
","
","
","""event"",""trial"",""time""
""fullscreenenter"",""1"",""2510""
","
",,null,run_exp/static/images/task_images/gems/100.jpg,null,,,,,,,48,,,3,,,,,100,0.479638762,0.48,,,,,,,
decision,85,378244,0.0-28.0-5.0,"""event"",""trial"",""time""
""fullscreenenter"",""1"",""2510""
","
","
","""event"",""trial"",""time""
""fullscreenenter"",""1"",""2510""
","
",,373.7,run_exp/static/images/task_images/land.jpg,65,,,,,,,48,,,3,,,,,,,,57951,1,0,FALSE,,,
dig,86,380873,0.0-29.0-0.0,"""event"",""trial"",""time""
""fullscreenenter"",""1"",""2510""
","
","
","""event"",""trial"",""time""
""fullscreenenter"",""1"",""2510""
","
",,,,,,,,,,,,"[{""stimulus"":""run_exp/static/images/task_images/dig.jpg"",""time"":0.10000002384185791},{""stimulus"":""run_exp/static/images/task_images/land.jpg"",""time"":877.7000000476837},{""stimulus"":""run_exp/static/images/task_images/dig.jpg"",""time"":1752.7000000476837}]",[],3,,,,,,,,,,,,,,
harvest,87,381877,0.0-29.0-1.0,"""event"",""trial"",""time""
""fullscreenenter"",""1"",""2510""
","
","
","""event"",""trial"",""time""
""fullscreenenter"",""1"",""2510""
","
",,null,run_exp/static/images/task_images/gems/48.jpg,null,,,,,,,25,,,3,,,,,48,0.517543898,0.520833333,,,,,,,
decision,88,382202,0.0-29.0-2.0,"""event"",""trial"",""time""
""fullscreenenter"",""1"",""2510""
","
","
","""event"",""trial"",""time""
""fullscreenenter"",""1"",""2510""
","
",,322.7,run_exp/static/images/task_images/land.jpg,65,,,,,,,25,,,3,,,,,,,,61909,1,1,FALSE,,,
dig,89,384884,0.0-30.0-0.0,"""event"",""trial"",""time""
""fullscreenenter"",""1"",""2510""
","
","
","""event"",""trial"",""time""
""fullscreenenter"",""1"",""2510""
","
",,,,,,,,,,,,"[{""stimulus"":""run_exp/static/images/task_images/dig.jpg"",""time"":0.10000002384185791},{""stimulus"":""run_exp/static/images/task_images/land.jpg"",""time"":894.6000000238419},{""stimulus"":""run_exp/static/images/task_images/dig.jpg"",""time"":1786.6000000238419}]",[],3,,,,,,,,,,,,,,
harvest,90,385888,0.0-30.0-1.0,"""event"",""trial"",""time""
""fullscreenenter"",""1"",""2510""
","
","
","""event"",""trial"",""time""
""fullscreenenter"",""1"",""2510""
","
",,null,run_exp/static/images/task_images/gems/25.jpg,null,,,,,,,11,,,3,,,,,25,0.432959229,0.44,,,,,,,
decision,91,386341,0.0-30.0-2.0,"""event"",""trial"",""time""
""fullscreenenter"",""1"",""2510""
","
","
","""event"",""trial"",""time""
""fullscreenenter"",""1"",""2510""
","
",,450.8,run_exp/static/images/task_images/land.jpg,65,,,,,,,11,,,3,,,,,,,,66048,1,2,FALSE,,,
dig,92,388893,0.0-31.0-0.0,"""event"",""trial"",""time""
""fullscreenenter"",""1"",""2510""
","
","
","""event"",""trial"",""time""
""fullscreenenter"",""1"",""2510""
","
",,,,,,,,,,,,"[{""stimulus"":""run_exp/static/images/task_images/dig.jpg"",""time"":0.19999998807907104},{""stimulus"":""run_exp/static/images/task_images/land.jpg"",""time"":851.3999999761581},{""stimulus"":""run_exp/static/images/task_images/dig.jpg"",""time"":1701}]",[],3,,,,,,,,,,,,,,
harvest,93,389897,0.0-31.0-1.0,"""event"",""trial"",""time""
""fullscreenenter"",""1"",""2510""
","
","
","""event"",""trial"",""time""
""fullscreenenter"",""1"",""2510""
","
",,null,run_exp/static/images/task_images/gems/11.jpg,null,,,,,,,6,,,3,,,,,11,0.577517512,0.545454545,,,,,,,
decision,94,390169,0.0-31.0-2.0,"""event"",""trial"",""time""
""fullscreenenter"",""1"",""2510""
","
","
","""event"",""trial"",""time""
""fullscreenenter"",""1"",""2510""
","
",,270.5,run_exp/static/images/task_images/land.jpg,76,,,,,,,6,,,3,,,,,,,,69876,1,3,TRUE,,,
travel,95,399903,0.0-32.0-0.0,"""event"",""trial"",""time""
""fullscreenenter"",""1"",""2510""
","
","
","""event"",""trial"",""time""
""fullscreenenter"",""1"",""2510""
","
",,,,,,,,,,,,"[{""stimulus"":""run_exp/static/images/task_images/rocket-01.jpg"",""time"":0.10000002384185791},{""stimulus"":""run_exp/static/images/task_images/rocket-02.jpg"",""time"":1083.1000000238419},{""stimulus"":""run_exp/static/images/task_images/rocket-03.jpg"",""time"":2164.699999988079},{""stimulus"":""run_exp/static/images/task_images/rocket-04.jpg"",""time"":3245.800000011921},{""stimulus"":""run_exp/static/images/task_images/rocket-05.jpg"",""time"":4325.900000035763},{""stimulus"":""run_exp/static/images/task_images/rocket-06.jpg"",""time"":5407.800000011921},{""stimulus"":""run_exp/static/images/task_images/rocket-07.jpg"",""time"":6488.699999988079},{""stimulus"":""run_exp/static/images/task_images/rocket-08.jpg"",""time"":7569.699999988079},{""stimulus"":""run_exp/static/images/task_images/rocket-09.jpg"",""time"":8650.699999988079}]",[],3,,,,,,,,,,,,,,
alien_welcome,96,404907,0.0-32.0-1.0,"""event"",""trial"",""time""
""fullscreenenter"",""1"",""2510""
","
","
","""event"",""trial"",""time""
""fullscreenenter"",""1"",""2510""
","
",,null,run_exp/static/images/task_images/aliens/old_aliens/planet/alien_planet-80.jpg,null,,,,,,,,,,,,,80,"33,14,5,80,74,43,65,46,25,44,70,30,75,36,15,52,77,19,64,39,27,23,22,26,31,72,61,2,68,56,17,10,1,9,8,21,57,53,34,58,69,60",,,,,,,,,,
land,97,405411,0.0-32.0-2.0,"""event"",""trial"",""time""
""fullscreenenter"",""1"",""2510""
","
","
","""event"",""trial"",""time""
""fullscreenenter"",""1"",""2510""
","
",,null,run_exp/static/images/task_images/land.jpg,null,,,,,,,99,,,4,,,,,,,,,,,,,,
dig,98,407417,0.0-32.0-3.0,"""event"",""trial"",""time""
""fullscreenenter"",""1"",""2510""
","
","
","""event"",""trial"",""time""
""fullscreenenter"",""1"",""2510""
","
",,,,,,,,,,,,"[{""stimulus"":""run_exp/static/images/task_images/dig.jpg"",""time"":0.5},{""stimulus"":""run_exp/static/images/task_images/land.jpg"",""time"":669.6999999880791},{""stimulus"":""run_exp/static/images/task_images/dig.jpg"",""time"":1336.5}]",[],4,,,,,,,,,,,,,,
harvest,99,408420,0.0-32.0-4.0,"""event"",""trial"",""time""
""fullscreenenter"",""1"",""2510""
","
","
","""event"",""trial"",""time""
""fullscreenenter"",""1"",""2510""
","
",,null,run_exp/static/images/task_images/gems/99.jpg,null,,,,,,,52,,,4,,,,,99,0.522248633,0.525252525,,,,,,,
decision,100,408741,0.0-32.0-5.0,"""event"",""trial"",""time""
""fullscreenenter"",""1"",""2510""
","
","
","""event"",""trial"",""time""
""fullscreenenter"",""1"",""2510""
","
",,318.4,run_exp/static/images/task_images/land.jpg,65,,,,,,,52,,,4,,,,,,,,88448,1,0,FALSE,,,
dig,101,411425,0.0-33.0-0.0,"""event"",""trial"",""time""
""fullscreenenter"",""1"",""2510""
","
","
","""event"",""trial"",""time""
""fullscreenenter"",""1"",""2510""
","
",,,,,,,,,,,,"[{""stimulus"":""run_exp/static/images/task_images/dig.jpg"",""time"":0.20000004768371582},{""stimulus"":""run_exp/static/images/task_images/land.jpg"",""time"":895.6000000238419},{""stimulus"":""run_exp/static/images/task_images/dig.jpg"",""time"":1788}]",[],4,,,,,,,,,,,,,,
harvest,102,412428,0.0-33.0-1.0,"""event"",""trial"",""time""
""fullscreenenter"",""1"",""2510""
","
","
","""event"",""trial"",""time""
""fullscreenenter"",""1"",""2510""
","
",,null,run_exp/static/images/task_images/gems/52.jpg,null,,,,,,,23,,,4,,,,,52,0.441741493,0.442307692,,,,,,,
decision,103,412712,0.0-33.0-2.0,"""event"",""trial"",""time""
""fullscreenenter"",""1"",""2510""
","
","
","""event"",""trial"",""time""
""fullscreenenter"",""1"",""2510""
","
",,281.4,run_exp/static/images/task_images/land.jpg,65,,,,,,,23,,,4,,,,,,,,92419,1,1,FALSE,,,
dig,104,415436,0.0-34.0-0.0,"""event"",""trial"",""time""
""fullscreenenter"",""1"",""2510""
","
","
","""event"",""trial"",""time""
""fullscreenenter"",""1"",""2510""
","
",,,,,,,,,,,,"[{""stimulus"":""run_exp/static/images/task_images/dig.jpg"",""time"":0.10000002384185791},{""stimulus"":""run_exp/static/images/task_images/land.jpg"",""time"":908.6000000238419},{""stimulus"":""run_exp/static/images/task_images/dig.jpg"",""time"":1814.699999988079}]",[],4,,,,,,,,,,,,,,
harvest,105,416440,0.0-34.0-1.0,"""event"",""trial"",""time""
""fullscreenenter"",""1"",""2510""
","
","
","""event"",""trial"",""time""
""fullscreenenter"",""1"",""2510""
","
",,null,run_exp/static/images/task_images/gems/23.jpg,null,,,,,,,13,,,4,,,,,23,0.568129693,0.565217391,,,,,,,
decision,106,416701,0.0-34.0-2.0,"""event"",""trial"",""time""
""fullscreenenter"",""1"",""2510""
","
","
","""event"",""trial"",""time""
""fullscreenenter"",""1"",""2510""
","
",,258.7,run_exp/static/images/task_images/land.jpg,65,,,,,,,13,,,4,,,,,,,,96408,1,2,FALSE,,,
dig,107,419445,0.0-35.0-0.0,"""event"",""trial"",""time""
""fullscreenenter"",""1"",""2510""
","
","
","""event"",""trial"",""time""
""fullscreenenter"",""1"",""2510""
","
",,,,,,,,,,,,"[{""stimulus"":""run_exp/static/images/task_images/dig.jpg"",""time"":0.19999998807907104},{""stimulus"":""run_exp/static/images/task_images/land.jpg"",""time"":915.8999999761581},{""stimulus"":""run_exp/static/images/task_images/dig.jpg"",""time"":1828.199999988079}]",[],4,,,,,,,,,,,,,,
harvest,108,420448,0.0-35.0-1.0,"""event"",""trial"",""time""
""fullscreenenter"",""1"",""2510""
","
","
","""event"",""trial"",""time""
""fullscreenenter"",""1"",""2510""
","
",,null,run_exp/static/images/task_images/gems/13.jpg,null,,,,,,,7,,,4,,,,,13,0.501334993,0.538461538,,,,,,,
decision,109,420751,0.0-35.0-2.0,"""event"",""trial"",""time""
""fullscreenenter"",""1"",""2510""
","
","
","""event"",""trial"",""time""
""fullscreenenter"",""1"",""2510""
","
",,300.5,run_exp/static/images/task_images/land.jpg,76,,,,,,,7,,,4,,,,,,,,100458,1,3,TRUE,,,
travel,110,430451,0.0-36.0-0.0,"""event"",""trial"",""time""
""fullscreenenter"",""1"",""2510""
","
","
","""event"",""trial"",""time""
""fullscreenenter"",""1"",""2510""
","
",,,,,,,,,,,,"[{""stimulus"":""run_exp/static/images/task_images/rocket-01.jpg"",""time"":0.19999998807907104},{""stimulus"":""run_exp/static/images/task_images/rocket-02.jpg"",""time"":1078.9000000357628},{""stimulus"":""run_exp/static/images/task_images/rocket-03.jpg"",""time"":2156.699999988079},{""stimulus"":""run_exp/static/images/task_images/rocket-04.jpg"",""time"":3233.300000011921},{""stimulus"":""run_exp/static/images/task_images/rocket-05.jpg"",""time"":4310.5},{""stimulus"":""run_exp/static/images/task_images/rocket-06.jpg"",""time"":5387.400000035763},{""stimulus"":""run_exp/static/images/task_images/rocket-07.jpg"",""time"":6464.400000035763},{""stimulus"":""run_exp/static/images/task_images/rocket-08.jpg"",""time"":7541.300000011921},{""stimulus"":""run_exp/static/images/task_images/rocket-09.jpg"",""time"":8618.800000011921}]",[],4,,,,,,,,,,,,,,
alien_welcome,111,435455,0.0-36.0-1.0,"""event"",""trial"",""time""
""fullscreenenter"",""1"",""2510""
","
","
","""event"",""trial"",""time""
""fullscreenenter"",""1"",""2510""
","
",,null,run_exp/static/images/task_images/aliens/old_aliens/planet/alien_planet-74.jpg,null,,,,,,,,,,,,,74,"33,14,5,80,74,43,65,46,25,44,70,30,75,36,15,52,77,19,64,39,27,23,22,26,31,72,61,2,68,56,17,10,1,9,8,21,57,53,34,58,69,60",,,,,,,,,,
land,112,435958,0.0-36.0-2.0,"""event"",""trial"",""time""
""fullscreenenter"",""1"",""2510""
","
","
","""event"",""trial"",""time""
""fullscreenenter"",""1"",""2510""
","
",,null,run_exp/static/images/task_images/land.jpg,null,,,,,,,100,,,5,,,,,,,,,,,,,,
dig,113,437961,0.0-36.0-3.0,"""event"",""trial"",""time""
""fullscreenenter"",""1"",""2510""
","
","
","""event"",""trial"",""time""
""fullscreenenter"",""1"",""2510""
","
",,,,,,,,,,,,"[{""stimulus"":""run_exp/static/images/task_images/dig.jpg"",""time"":0.19999998807907104},{""stimulus"":""run_exp/static/images/task_images/land.jpg"",""time"":669.3000000119209},{""stimulus"":""run_exp/static/images/task_images/dig.jpg"",""time"":1336.300000011921}]",[],5,,,,,,,,,,,,,,
harvest,114,438965,0.0-36.0-4.0,"""event"",""trial"",""time""
""fullscreenenter"",""1"",""2510""
","
","
","""event"",""trial"",""time""
""fullscreenenter"",""1"",""2510""
","
",,null,run_exp/static/images/task_images/gems/100.jpg,null,,,,,,,53,,,5,,,,,100,0.530189847,0.53,,,,,,,
decision,115,439232,0.0-36.0-5.0,"""event"",""trial"",""time""
""fullscreenenter"",""1"",""2510""
","
","
","""event"",""trial"",""time""
""fullscreenenter"",""1"",""2510""
","
",,265.8,run_exp/static/images/task_images/land.jpg,65,,,,,,,53,,,5,,,,,,,,118939,1,0,FALSE,,,
dig,116,441969,0.0-37.0-0.0,"""event"",""trial"",""time""
""fullscreenenter"",""1"",""2510""
","
","
","""event"",""trial"",""time""
""fullscreenenter"",""1"",""2510""
","
",,,,,,,,,,,,"[{""stimulus"":""run_exp/static/images/task_images/dig.jpg"",""time"":0.19999998807907104},{""stimulus"":""run_exp/static/images/task_images/land.jpg"",""time"":913},{""stimulus"":""run_exp/static/images/task_images/dig.jpg"",""time"":1825.0999999642372}]",[],5,,,,,,,,,,,,,,
harvest,117,442973,0.0-37.0-1.0,"""event"",""trial"",""time""
""fullscreenenter"",""1"",""2510""
","
","
","""event"",""trial"",""time""
""fullscreenenter"",""1"",""2510""
","
",,null,run_exp/static/images/task_images/gems/53.jpg,null,,,,,,,29,,,5,,,,,53,0.553295689,0.547169811,,,,,,,
decision,118,443341,0.0-37.0-2.0,"""event"",""trial"",""time""
""fullscreenenter"",""1"",""2510""
","
","
","""event"",""trial"",""time""
""fullscreenenter"",""1"",""2510""
","
",,366.2,run_exp/static/images/task_images/land.jpg,65,,,,,,,29,,,5,,,,,,,,123048,1,1,FALSE,,,
dig,119,445977,0.0-38.0-0.0,"""event"",""trial"",""time""
""fullscreenenter"",""1"",""2510""
","
","
","""event"",""trial"",""time""
""fullscreenenter"",""1"",""2510""
","
",,,,,,,,,,,,"[{""stimulus"":""run_exp/static/images/task_images/dig.jpg"",""time"":0.19999998807907104},{""stimulus"":""run_exp/static/images/task_images/land.jpg"",""time"":879.0999999642372},{""stimulus"":""run_exp/static/images/task_images/dig.jpg"",""time"":1756.0999999642372}]",[],5,,,,,,,,,,,,,,
harvest,120,446980,0.0-38.0-1.0,"""event"",""trial"",""time""
""fullscreenenter"",""1"",""2510""
","
","
","""event"",""trial"",""time""
""fullscreenenter"",""1"",""2510""
","
",,null,run_exp/static/images/task_images/gems/29.jpg,null,,,,,,,15,,,5,,,,,29,0.505644366,0.517241379,,,,,,,
decision,121,447270,0.0-38.0-2.0,"""event"",""trial"",""time""
""fullscreenenter"",""1"",""2510""
","
","
","""event"",""trial"",""time""
""fullscreenenter"",""1"",""2510""
","
",,289,run_exp/static/images/task_images/land.jpg,65,,,,,,,15,,,5,,,,,,,,126977,1,2,FALSE,,,
dig,122,449984,0.0-39.0-0.0,"""event"",""trial"",""time""
""fullscreenenter"",""1"",""2510""
","
","
","""event"",""trial"",""time""
""fullscreenenter"",""1"",""2510""
","
",,,,,,,,,,,,"[{""stimulus"":""run_exp/static/images/task_images/dig.jpg"",""time"":0.19999998807907104},{""stimulus"":""run_exp/static/images/task_images/land.jpg"",""time"":905.1999999880791},{""stimulus"":""run_exp/static/images/task_images/dig.jpg"",""time"":1808.5}]",[],5,,,,,,,,,,,,,,
harvest,123,450987,0.0-39.0-1.0,"""event"",""trial"",""time""
""fullscreenenter"",""1"",""2510""
","
","
","""event"",""trial"",""time""
""fullscreenenter"",""1"",""2510""
","
",,null,run_exp/static/images/task_images/gems/15.jpg,null,,,,,,,6,,,5,,,,,15,0.406021441,0.4,,,,,,,
decision,124,451245,0.0-39.0-2.0,"""event"",""trial"",""time""
""fullscreenenter"",""1"",""2510""
","
","
","""event"",""trial"",""time""
""fullscreenenter"",""1"",""2510""
","
",,257.2,run_exp/static/images/task_images/land.jpg,65,,,,,,,6,,,5,,,,,,,,130953,1,3,FALSE,,,
dig,125,453992,0.0-40.0-0.0,"""event"",""trial"",""time""
""fullscreenenter"",""1"",""2510""
","
","
","""event"",""trial"",""time""
""fullscreenenter"",""1"",""2510""
","
",,,,,,,,,,,,"[{""stimulus"":""run_exp/static/images/task_images/dig.jpg"",""time"":0.20000004768371582},{""stimulus"":""run_exp/static/images/task_images/land.jpg"",""time"":916.2000000476837},{""stimulus"":""run_exp/static/images/task_images/dig.jpg"",""time"":1830.800000011921}]",[],5,,,,,,,,,,,,,,
harvest,126,454994,0.0-40.0-1.0,"""event"",""trial"",""time""
""fullscreenenter"",""1"",""2510""
","
","
","""event"",""trial"",""time""
""fullscreenenter"",""1"",""2510""
","
",,null,run_exp/static/images/task_images/gems/6.jpg,null,,,,,,,4,,,5,,,,,6,0.585901011,0.666666667,,,,,,,
decision,127,455250,0.0-40.0-2.0,"""event"",""trial"",""time""
""fullscreenenter"",""1"",""2510""
","
","
","""event"",""trial"",""time""
""fullscreenenter"",""1"",""2510""
","
",,254.8,run_exp/static/images/task_images/land.jpg,76,,,,,,,4,,,5,,,,,,,,134957,1,4,TRUE,,,
travel,128,464993,0.0-41.0-0.0,"""event"",""trial"",""time""
""fullscreenenter"",""1"",""2510""
","
","
","""event"",""trial"",""time""
""fullscreenenter"",""1"",""2510""
","
",,,,,,,,,,,,"[{""stimulus"":""run_exp/static/images/task_images/rocket-01.jpg"",""time"":0.19999998807907104},{""stimulus"":""run_exp/static/images/task_images/rocket-02.jpg"",""time"":1084.3999999761581},{""stimulus"":""run_exp/static/images/task_images/rocket-03.jpg"",""time"":2166.600000023842},{""stimulus"":""run_exp/static/images/task_images/rocket-04.jpg"",""time"":3248.100000023842},{""stimulus"":""run_exp/static/images/task_images/rocket-05.jpg"",""time"":4329.5},{""stimulus"":""run_exp/static/images/task_images/rocket-06.jpg"",""time"":5412.800000011921},{""stimulus"":""run_exp/static/images/task_images/rocket-07.jpg"",""time"":6494.300000011921},{""stimulus"":""run_exp/static/images/task_images/rocket-08.jpg"",""time"":7576.199999988079},{""stimulus"":""run_exp/static/images/task_images/rocket-09.jpg"",""time"":8659.100000023842}]",[],5,,,,,,,,,,,,,,
alien_welcome,129,469996,0.0-41.0-1.0,"""event"",""trial"",""time""
""fullscreenenter"",""1"",""2510""
","
","
","""event"",""trial"",""time""
""fullscreenenter"",""1"",""2510""
","
",,null,run_exp/static/images/task_images/aliens/old_aliens/planet/alien_planet-43.jpg,null,,,,,,,,,,,,,43,"33,14,5,80,74,43,65,46,25,44,70,30,75,36,15,52,77,19,64,39,27,23,22,26,31,72,61,2,68,56,17,10,1,9,8,21,57,53,34,58,69,60",,,,,,,,,,
land,130,470499,0.0-41.0-2.0,"""event"",""trial"",""time""
""fullscreenenter"",""1"",""2510""
","
","
","""event"",""trial"",""time""
""fullscreenenter"",""1"",""2510""
","
",,null,run_exp/static/images/task_images/land.jpg,null,,,,,,,106,,,6,,,,,,,,,,,,,,
dig,131,472503,0.0-41.0-3.0,"""event"",""trial"",""time""
""fullscreenenter"",""1"",""2510""
","
","
","""event"",""trial"",""time""
""fullscreenenter"",""1"",""2510""
","
",,,,,,,,,,,,"[{""stimulus"":""run_exp/static/images/task_images/dig.jpg"",""time"":0.3999999761581421},{""stimulus"":""run_exp/static/images/task_images/land.jpg"",""time"":669.5},{""stimulus"":""run_exp/static/images/task_images/dig.jpg"",""time"":1336.800000011921}]",[],6,,,,,,,,,,,,,,
harvest,132,473507,0.0-41.0-4.0,"""event"",""trial"",""time""
""fullscreenenter"",""1"",""2510""
","
","
","""event"",""trial"",""time""
""fullscreenenter"",""1"",""2510""
","
",,null,run_exp/static/images/task_images/gems/106.jpg,null,,,,,,,88,,,6,,,,,106,0.832537123,0.830188679,,,,,,,
decision,133,473820,0.0-41.0-5.0,"""event"",""trial"",""time""
""fullscreenenter"",""1"",""2510""
","
","
","""event"",""trial"",""time""
""fullscreenenter"",""1"",""2510""
","
",,310.5,run_exp/static/images/task_images/land.jpg,65,,,,,,,88,,,6,,,,,,,,153527,1,0,FALSE,,,
dig,134,476514,0.0-42.0-0.0,"""event"",""trial"",""time""
""fullscreenenter"",""1"",""2510""
","
","
","""event"",""trial"",""time""
""fullscreenenter"",""1"",""2510""
","
",,,,,,,,,,,,"[{""stimulus"":""run_exp/static/images/task_images/dig.jpg"",""time"":0.10000002384185791},{""stimulus"":""run_exp/static/images/task_images/land.jpg"",""time"":898.8000000119209},{""stimulus"":""run_exp/static/images/task_images/dig.jpg"",""time"":1794.5}]",[],6,,,,,,,,,,,,,,
harvest,135,477517,0.0-42.0-1.0,"""event"",""trial"",""time""
""fullscreenenter"",""1"",""2510""
","
","
","""event"",""trial"",""time""
""fullscreenenter"",""1"",""2510""
","
",,null,run_exp/static/images/task_images/gems/88.jpg,null,,,,,,,74,,,6,,,,,88,0.844964871,0.840909091,,,,,,,
decision,136,477781,0.0-42.0-2.0,"""event"",""trial"",""time""
""fullscreenenter"",""1"",""2510""
","
","
","""event"",""trial"",""time""
""fullscreenenter"",""1"",""2510""
","
",,261,run_exp/static/images/task_images/land.jpg,65,,,,,,,74,,,6,,,,,,,,157488,1,1,FALSE,,,
dig,137,480525,0.0-43.0-0.0,"""event"",""trial"",""time""
""fullscreenenter"",""1"",""2510""
","
","
","""event"",""trial"",""time""
""fullscreenenter"",""1"",""2510""
","
",,,,,,,,,,,,"[{""stimulus"":""run_exp/static/images/task_images/dig.jpg"",""time"":0.10000002384185791},{""stimulus"":""run_exp/static/images/task_images/land.jpg"",""time"":915.9000000357628},{""stimulus"":""run_exp/static/images/task_images/dig.jpg"",""time"":1828.300000011921}]",[],6,,,,,,,,,,,,,,
harvest,138,481528,0.0-43.0-1.0,"""event"",""trial"",""time""
""fullscreenenter"",""1"",""2510""
","
","
","""event"",""trial"",""time""
""fullscreenenter"",""1"",""2510""
","
",,null,run_exp/static/images/task_images/gems/74.jpg,null,,,,,,,58,,,6,,,,,74,0.778427171,0.783783784,,,,,,,
decision,139,481860,0.0-43.0-2.0,"""event"",""trial"",""time""
""fullscreenenter"",""1"",""2510""
","
","
","""event"",""trial"",""time""
""fullscreenenter"",""1"",""2510""
","
",,329.6,run_exp/static/images/task_images/land.jpg,65,,,,,,,58,,,6,,,,,,,,161567,1,2,FALSE,,,
dig,140,484536,0.0-44.0-0.0,"""event"",""trial"",""time""
""fullscreenenter"",""1"",""2510""
","
","
","""event"",""trial"",""time""
""fullscreenenter"",""1"",""2510""
","
",,,,,,,,,,,,"[{""stimulus"":""run_exp/static/images/task_images/dig.jpg"",""time"":0.19999998807907104},{""stimulus"":""run_exp/static/images/task_images/land.jpg"",""time"":892.3999999761581},{""stimulus"":""run_exp/static/images/task_images/dig.jpg"",""time"":1783.1000000238419}]",[],6,,,,,,,,,,,,,,
harvest,141,485539,0.0-44.0-1.0,"""event"",""trial"",""time""
""fullscreenenter"",""1"",""2510""
","
","
","""event"",""trial"",""time""
""fullscreenenter"",""1"",""2510""
","
",,null,run_exp/static/images/task_images/gems/58.jpg,null,,,,,,,43,,,6,,,,,58,0.734722507,0.74137931,,,,,,,
decision,142,485730,0.0-44.0-2.0,"""event"",""trial"",""time""
""fullscreenenter"",""1"",""2510""
","
","
","""event"",""trial"",""time""
""fullscreenenter"",""1"",""2510""
","
",,189.2,run_exp/static/images/task_images/land.jpg,65,,,,,,,43,,,6,,,,,,,,165438,1,3,FALSE,,,
dig,143,488544,0.0-45.0-0.0,"""event"",""trial"",""time""
""fullscreenenter"",""1"",""2510""
","
","
","""event"",""trial"",""time""
""fullscreenenter"",""1"",""2510""
","
",,,,,,,,,,,,"[{""stimulus"":""run_exp/static/images/task_images/dig.jpg"",""time"":0.10000002384185791},{""stimulus"":""run_exp/static/images/task_images/land.jpg"",""time"":938.8000000119209},{""stimulus"":""run_exp/static/images/task_images/dig.jpg"",""time"":1873.8999999761581}]",[],6,,,,,,,,,,,,,,
harvest,144,489547,0.0-45.0-1.0,"""event"",""trial"",""time""
""fullscreenenter"",""1"",""2510""
","
","
","""event"",""trial"",""time""
""fullscreenenter"",""1"",""2510""
","
",,null,run_exp/static/images/task_images/gems/43.jpg,null,,,,,,,37,,,6,,,,,43,0.866183962,0.860465116,,,,,,,
decision,145,489856,0.0-45.0-2.0,"""event"",""trial"",""time""
""fullscreenenter"",""1"",""2510""
","
","
","""event"",""trial"",""time""
""fullscreenenter"",""1"",""2510""
","
",,306.4,run_exp/static/images/task_images/land.jpg,65,,,,,,,37,,,6,,,,,,,,169563,1,4,FALSE,,,
dig,146,492553,0.0-46.0-0.0,"""event"",""trial"",""time""
""fullscreenenter"",""1"",""2510""
","
","
","""event"",""trial"",""time""
""fullscreenenter"",""1"",""2510""
","
",,,,,,,,,,,,"[{""stimulus"":""run_exp/static/images/task_images/dig.jpg"",""time"":0.19999998807907104},{""stimulus"":""run_exp/static/images/task_images/land.jpg"",""time"":899.8999999761581},{""stimulus"":""run_exp/static/images/task_images/dig.jpg"",""time"":1796.300000011921}]",[],6,,,,,,,,,,,,,,
harvest,147,493556,0.0-46.0-1.0,"""event"",""trial"",""time""
""fullscreenenter"",""1"",""2510""
","
","
","""event"",""trial"",""time""
""fullscreenenter"",""1"",""2510""
","
",,null,run_exp/static/images/task_images/gems/37.jpg,null,,,,,,,28,,,6,,,,,37,0.76685582,0.756756757,,,,,,,
decision,148,493815,0.0-46.0-2.0,"""event"",""trial"",""time""
""fullscreenenter"",""1"",""2510""
","
","
","""event"",""trial"",""time""
""fullscreenenter"",""1"",""2510""
","
",,257.6,run_exp/static/images/task_images/land.jpg,65,,,,,,,28,,,6,,,,,,,,173522,1,5,FALSE,,,
dig,149,496563,0.0-47.0-0.0,"""event"",""trial"",""time""
""fullscreenenter"",""1"",""2510""
","
","
","""event"",""trial"",""time""
""fullscreenenter"",""1"",""2510""
","
",,,,,,,,,,,,"[{""stimulus"":""run_exp/static/images/task_images/dig.jpg"",""time"":0.30000001192092896},{""stimulus"":""run_exp/static/images/task_images/land.jpg"",""time"":917.3000000119209},{""stimulus"":""run_exp/static/images/task_images/dig.jpg"",""time"":1830.9000000357628}]",[],6,,,,,,,,,,,,,,
harvest,150,497565,0.0-47.0-1.0,"""event"",""trial"",""time""
""fullscreenenter"",""1"",""2510""
","
","
","""event"",""trial"",""time""
""fullscreenenter"",""1"",""2510""
","
",,null,run_exp/static/images/task_images/gems/28.jpg,null,,,,,,,23,,,6,,,,,28,0.833009855,0.821428571,,,,,,,
decision,151,497823,0.0-47.0-2.0,"""event"",""trial"",""time""
""fullscreenenter"",""1"",""2510""
","
","
","""event"",""trial"",""time""
""fullscreenenter"",""1"",""2510""
","
",,256.4,run_exp/static/images/task_images/land.jpg,65,,,,,,,23,,,6,,,,,,,,177531,1,6,FALSE,,,
dig,152,500571,0.0-48.0-0.0,"""event"",""trial"",""time""
""fullscreenenter"",""1"",""2510""
","
","
","""event"",""trial"",""time""
""fullscreenenter"",""1"",""2510""
","
",,,,,,,,,,,,"[{""stimulus"":""run_exp/static/images/task_images/dig.jpg"",""time"":0.3999999761581421},{""stimulus"":""run_exp/static/images/task_images/land.jpg"",""time"":916.5},{""stimulus"":""run_exp/static/images/task_images/dig.jpg"",""time"":1830.5999999642372}]",[],6,,,,,,,,,,,,,,
harvest,153,501574,0.0-48.0-1.0,"""event"",""trial"",""time""
""fullscreenenter"",""1"",""2510""
","
","
","""event"",""trial"",""time""
""fullscreenenter"",""1"",""2510""
","
",,null,run_exp/static/images/task_images/gems/23.jpg,null,,,,,,,19,,,6,,,,,23,0.827861941,0.826086957,,,,,,,
decision,154,502245,0.0-48.0-2.0,"""event"",""trial"",""time""
""fullscreenenter"",""1"",""2510""
","
","
","""event"",""trial"",""time""
""fullscreenenter"",""1"",""2510""
","
",,669.2,run_exp/static/images/task_images/land.jpg,65,,,,,,,19,,,6,,,,,,,,181952,1,7,FALSE,,,
dig,155,504578,0.0-49.0-0.0,"""event"",""trial"",""time""
""fullscreenenter"",""1"",""2510""
","
","
","""event"",""trial"",""time""
""fullscreenenter"",""1"",""2510""
","
",,,,,,,,,,,,"[{""stimulus"":""run_exp/static/images/task_images/dig.jpg"",""time"":0.10000002384185791},{""stimulus"":""run_exp/static/images/task_images/land.jpg"",""time"":778.7000000476837},{""stimulus"":""run_exp/static/images/task_images/dig.jpg"",""time"":1555}]",[],6,,,,,,,,,,,,,,
harvest,156,505580,0.0-49.0-1.0,"""event"",""trial"",""time""
""fullscreenenter"",""1"",""2510""
","
","
","""event"",""trial"",""time""
""fullscreenenter"",""1"",""2510""
","
",,null,run_exp/static/images/task_images/gems/19.jpg,null,,,,,,,16,,,6,,,,,19,0.83037674,0.842105263,,,,,,,
decision,157,505859,0.0-49.0-2.0,"""event"",""trial"",""time""
""fullscreenenter"",""1"",""2510""
","
","
","""event"",""trial"",""time""
""fullscreenenter"",""1"",""2510""
","
",,277.3,run_exp/static/images/task_images/land.jpg,65,,,,,,,16,,,6,,,,,,,,185566,1,8,FALSE,,,
dig,158,508586,0.0-50.0-0.0,"""event"",""trial"",""time""
""fullscreenenter"",""1"",""2510""
","
","
","""event"",""trial"",""time""
""fullscreenenter"",""1"",""2510""
","
",,,,,,,,,,,,"[{""stimulus"":""run_exp/static/images/task_images/dig.jpg"",""time"":0.30000001192092896},{""stimulus"":""run_exp/static/images/task_images/land.jpg"",""time"":909.6999999880791},{""stimulus"":""run_exp/static/images/task_images/dig.jpg"",""time"":1816.4000000357628}]",[],6,,,,,,,,,,,,,,
harvest,159,509588,0.0-50.0-1.0,"""event"",""trial"",""time""
""fullscreenenter"",""1"",""2510""
","
","
","""event"",""trial"",""time""
""fullscreenenter"",""1"",""2510""
","
",,null,run_exp/static/images/task_images/gems/16.jpg,null,,,,,,,13,,,6,,,,,16,0.788930042,0.8125,,,,,,,
decision,160,509826,0.0-50.0-2.0,"""event"",""trial"",""time""
""fullscreenenter"",""1"",""2510""
","
","
","""event"",""trial"",""time""
""fullscreenenter"",""1"",""2510""
","
",,235.6,run_exp/static/images/task_images/land.jpg,76,,,,,,,13,,,6,,,,,,,,189533,1,9,TRUE,,,
travel,161,519587,0.0-51.0-0.0,"""event"",""trial"",""time""
""fullscreenenter"",""1"",""2510""
","
","
","""event"",""trial"",""time""
""fullscreenenter"",""1"",""2510""
","
",,,,,,,,,,,,"[{""stimulus"":""run_exp/static/images/task_images/rocket-01.jpg"",""time"":0.10000002384185791},{""stimulus"":""run_exp/static/images/task_images/rocket-02.jpg"",""time"":1086.699999988079},{""stimulus"":""run_exp/static/images/task_images/rocket-03.jpg"",""time"":2170},{""stimulus"":""run_exp/static/images/task_images/rocket-04.jpg"",""time"":3254.5},{""stimulus"":""run_exp/static/images/task_images/rocket-05.jpg"",""time"":4338.699999988079},{""stimulus"":""run_exp/static/images/task_images/rocket-06.jpg"",""time"":5422.300000011921},{""stimulus"":""run_exp/static/images/task_images/rocket-07.jpg"",""time"":6506.400000035763},{""stimulus"":""run_exp/static/images/task_images/rocket-08.jpg"",""time"":7590.900000035763},{""stimulus"":""run_exp/static/images/task_images/rocket-09.jpg"",""time"":8674.600000023842}]",[],6,,,,,,,,,,,,,,
alien_welcome,162,524590,0.0-51.0-1.0,"""event"",""trial"",""time""
""fullscreenenter"",""1"",""2510""
","
","
","""event"",""trial"",""time""
""fullscreenenter"",""1"",""2510""
","
",,null,run_exp/static/images/task_images/aliens/old_aliens/planet/alien_planet-65.jpg,null,,,,,,,,,,,,,65,"33,14,5,80,74,43,65,46,25,44,70,30,75,36,15,52,77,19,64,39,27,23,22,26,31,72,61,2,68,56,17,10,1,9,8,21,57,53,34,58,69,60",,,,,,,,,,
land,163,525094,0.0-51.0-2.0,"""event"",""trial"",""time""
""fullscreenenter"",""1"",""2510""
","
","
","""event"",""trial"",""time""
""fullscreenenter"",""1"",""2510""
","
",,null,run_exp/static/images/task_images/land.jpg,null,,,,,,,95,,,7,,,,,,,,,,,,,,
dig,164,527100,0.0-51.0-3.0,"""event"",""trial"",""time""
""fullscreenenter"",""1"",""2510""
","
","
","""event"",""trial"",""time""
""fullscreenenter"",""1"",""2510""
","
",,,,,,,,,,,,"[{""stimulus"":""run_exp/static/images/task_images/dig.jpg"",""time"":0.40000003576278687},{""stimulus"":""run_exp/static/images/task_images/land.jpg"",""time"":669.5},{""stimulus"":""run_exp/static/images/task_images/dig.jpg"",""time"":1337.2000000476837}]",[],7,,,,,,,,,,,,,,
harvest,165,528103,0.0-51.0-4.0,"""event"",""trial"",""time""
""fullscreenenter"",""1"",""2510""
","
","
","""event"",""trial"",""time""
""fullscreenenter"",""1"",""2510""
","
",,null,run_exp/static/images/task_images/gems/95.jpg,null,,,,,,,77,,,7,,,,,95,0.81119201,0.810526316,,,,,,,
decision,166,528394,0.0-51.0-5.0,"""event"",""trial"",""time""
""fullscreenenter"",""1"",""2510""
","
","
","""event"",""trial"",""time""
""fullscreenenter"",""1"",""2510""
","
",,289.7,run_exp/static/images/task_images/land.jpg,65,,,,,,,77,,,7,,,,,,,,208101,1,0,FALSE,,,
dig,167,531108,0.0-52.0-0.0,"""event"",""trial"",""time""
""fullscreenenter"",""1"",""2510""
","
","
","""event"",""trial"",""time""
""fullscreenenter"",""1"",""2510""
","
",,,,,,,,,,,,"[{""stimulus"":""run_exp/static/images/task_images/dig.jpg"",""time"":0.10000002384185791},{""stimulus"":""run_exp/static/images/task_images/land.jpg"",""time"":905.1999999880791},{""stimulus"":""run_exp/static/images/task_images/dig.jpg"",""time"":1808.300000011921}]",[],7,,,,,,,,,,,,,,
harvest,168,532111,0.0-52.0-1.0,"""event"",""trial"",""time""
""fullscreenenter"",""1"",""2510""
","
","
","""event"",""trial"",""time""
""fullscreenenter"",""1"",""2510""
","
",,null,run_exp/static/images/task_images/gems/77.jpg,null,,,,,,,64,,,7,,,,,77,0.833755039,0.831168831,,,,,,,
decision,169,532275,0.0-52.0-2.0,"""event"",""trial"",""time""
""fullscreenenter"",""1"",""2510""
","
","
","""event"",""trial"",""time""
""fullscreenenter"",""1"",""2510""
","
",,161.1,run_exp/static/images/task_images/land.jpg,65,,,,,,,64,,,7,,,,,,,,211982,1,1,FALSE,,,
dig,170,535118,0.0-53.0-0.0,"""event"",""trial"",""time""
""fullscreenenter"",""1"",""2510""
","
","
","""event"",""trial"",""time""
""fullscreenenter"",""1"",""2510""
","
",,,,,,,,,,,,"[{""stimulus"":""run_exp/static/images/task_images/dig.jpg"",""time"":0.09999996423721313},{""stimulus"":""run_exp/static/images/task_images/land.jpg"",""time"":948.5},{""stimulus"":""run_exp/static/images/task_images/dig.jpg"",""time"":1894.5}]",[],7,,,,,,,,,,,,,,
harvest,171,536122,0.0-53.0-1.0,"""event"",""trial"",""time""
""fullscreenenter"",""1"",""2510""
","
","
","""event"",""trial"",""time""
""fullscreenenter"",""1"",""2510""
","
",,null,run_exp/static/images/task_images/gems/64.jpg,null,,,,,,,51,,,7,,,,,64,0.795864576,0.796875,,,,,,,
decision,172,536384,0.0-53.0-2.0,"""event"",""trial"",""time""
""fullscreenenter"",""1"",""2510""
","
","
","""event"",""trial"",""time""
""fullscreenenter"",""1"",""2510""
","
",,260.5,run_exp/static/images/task_images/land.jpg,65,,,,,,,51,,,7,,,,,,,,216092,1,2,FALSE,,,
dig,173,539130,0.0-54.0-0.0,"""event"",""trial"",""time""
""fullscreenenter"",""1"",""2510""
","
","
","""event"",""trial"",""time""
""fullscreenenter"",""1"",""2510""
","
",,,,,,,,,,,,"[{""stimulus"":""run_exp/static/images/task_images/dig.jpg"",""time"":0.20000004768371582},{""stimulus"":""run_exp/static/images/task_images/land.jpg"",""time"":915.1000000238419},{""stimulus"":""run_exp/static/images/task_images/dig.jpg"",""time"":1827.9000000357628}]",[],7,,,,,,,,,,,,,,
harvest,174,540134,0.0-54.0-1.0,"""event"",""trial"",""time""
""fullscreenenter"",""1"",""2510""
","
","
","""event"",""trial"",""time""
""fullscreenenter"",""1"",""2510""
","
",,null,run_exp/static/images/task_images/gems/51.jpg,null,,,,,,,43,,,7,,,,,51,0.843606123,0.843137255,,,,,,,
decision,175,540363,0.0-54.0-2.0,"""event"",""trial"",""time""
""fullscreenenter"",""1"",""2510""
","
","
","""event"",""trial"",""time""
""fullscreenenter"",""1"",""2510""
","
",,227.5,run_exp/static/images/task_images/land.jpg,65,,,,,,,43,,,7,,,,,,,,220070,1,3,FALSE,,,
dig,176,543140,0.0-55.0-0.0,"""event"",""trial"",""time""
""fullscreenenter"",""1"",""2510""
","
","
","""event"",""trial"",""time""
""fullscreenenter"",""1"",""2510""
","
",,,,,,,,,,,,"[{""stimulus"":""run_exp/static/images/task_images/dig.jpg"",""time"":0.30000001192092896},{""stimulus"":""run_exp/static/images/task_images/land.jpg"",""time"":926.6000000238419},{""stimulus"":""run_exp/static/images/task_images/dig.jpg"",""time"":1850.3999999761581}]",[],7,,,,,,,,,,,,,,
harvest,177,544144,0.0-55.0-1.0,"""event"",""trial"",""time""
""fullscreenenter"",""1"",""2510""
","
","
","""event"",""trial"",""time""
""fullscreenenter"",""1"",""2510""
","
",,null,run_exp/static/images/task_images/gems/43.jpg,null,,,,,,,34,,,7,,,,,43,0.801961557,0.790697674,,,,,,,
decision,178,544410,0.0-55.0-2.0,"""event"",""trial"",""time""
""fullscreenenter"",""1"",""2510""
","
","
","""event"",""trial"",""time""
""fullscreenenter"",""1"",""2510""
","
",,263.3,run_exp/static/images/task_images/land.jpg,65,,,,,,,34,,,7,,,,,,,,224117,1,4,FALSE,,,
dig,179,547152,0.0-56.0-0.0,"""event"",""trial"",""time""
""fullscreenenter"",""1"",""2510""
","
","
","""event"",""trial"",""time""
""fullscreenenter"",""1"",""2510""
","
",,,,,,,,,,,,"[{""stimulus"":""run_exp/static/images/task_images/dig.jpg"",""time"":0.19999998807907104},{""stimulus"":""run_exp/static/images/task_images/land.jpg"",""time"":914.8000000119209},{""stimulus"":""run_exp/static/images/task_images/dig.jpg"",""time"":1826.0999999642372}]",[],7,,,,,,,,,,,,,,
harvest,180,548155,0.0-56.0-1.0,"""event"",""trial"",""time""
""fullscreenenter"",""1"",""2510""
","
","
","""event"",""trial"",""time""
""fullscreenenter"",""1"",""2510""
","
",,null,run_exp/static/images/task_images/gems/34.jpg,null,,,,,,,26,,,7,,,,,34,0.777610171,0.764705882,,,,,,,
decision,181,548279,0.0-56.0-2.0,"""event"",""trial"",""time""
""fullscreenenter"",""1"",""2510""
","
","
","""event"",""trial"",""time""
""fullscreenenter"",""1"",""2510""
","
",,122.2,run_exp/static/images/task_images/land.jpg,65,,,,,,,26,,,7,,,,,,,,227986,1,5,FALSE,,,
dig,182,551161,0.0-57.0-0.0,"""event"",""trial"",""time""
""fullscreenenter"",""1"",""2510""
","
","
","""event"",""trial"",""time""
""fullscreenenter"",""1"",""2510""
","
",,,,,,,,,,,,"[{""stimulus"":""run_exp/static/images/task_images/dig.jpg"",""time"":0.10000002384185791},{""stimulus"":""run_exp/static/images/task_images/land.jpg"",""time"":962},{""stimulus"":""run_exp/static/images/task_images/dig.jpg"",""time"":1920.2000000476837}]",[],7,,,,,,,,,,,,,,
harvest,183,552165,0.0-57.0-1.0,"""event"",""trial"",""time""
""fullscreenenter"",""1"",""2510""
","
","
","""event"",""trial"",""time""
""fullscreenenter"",""1"",""2510""
","
",,null,run_exp/static/images/task_images/gems/26.jpg,null,,,,,,,21,,,7,,,,,26,0.819760823,0.807692308,,,,,,,
decision,184,552211,0.0-57.0-2.0,"""event"",""trial"",""time""
""fullscreenenter"",""1"",""2510""
","
","
","""event"",""trial"",""time""
""fullscreenenter"",""1"",""2510""
","
",,44.89999998,run_exp/static/images/task_images/land.jpg,65,,,,,,,21,,,7,,,,,,,,231919,1,6,FALSE,,,
dig,185,555171,0.0-58.0-0.0,"""event"",""trial"",""time""
""fullscreenenter"",""1"",""2510""
","
","
","""event"",""trial"",""time""
""fullscreenenter"",""1"",""2510""
","
",,,,,,,,,,,,"[{""stimulus"":""run_exp/static/images/task_images/dig.jpg"",""time"":0.19999998807907104},{""stimulus"":""run_exp/static/images/task_images/land.jpg"",""time"":987.3000000119209},{""stimulus"":""run_exp/static/images/task_images/dig.jpg"",""time"":1972.9000000357628}]",[],7,,,,,,,,,,,,,,
harvest,186,556176,0.0-58.0-1.0,"""event"",""trial"",""time""
""fullscreenenter"",""1"",""2510""
","
","
","""event"",""trial"",""time""
""fullscreenenter"",""1"",""2510""
","
",,null,run_exp/static/images/task_images/gems/21.jpg,null,,,,,,,16,,,7,,,,,21,0.765732359,0.761904762,,,,,,,
decision,187,556500,0.0-58.0-2.0,"""event"",""trial"",""time""
""fullscreenenter"",""1"",""2510""
","
","
","""event"",""trial"",""time""
""fullscreenenter"",""1"",""2510""
","
",,322.8,run_exp/static/images/task_images/land.jpg,76,,,,,,,16,,,7,,,,,,,,236207,1,7,TRUE,,,
travel,188,566181,0.0-59.0-0.0,"""event"",""trial"",""time""
""fullscreenenter"",""1"",""2510""
","
","
","""event"",""trial"",""time""
""fullscreenenter"",""1"",""2510""
","
",,,,,,,,,,,,"[{""stimulus"":""run_exp/static/images/task_images/rocket-01.jpg"",""time"":0.30000001192092896},{""stimulus"":""run_exp/static/images/task_images/rocket-02.jpg"",""time"":1077.3999999761581},{""stimulus"":""run_exp/static/images/task_images/rocket-03.jpg"",""time"":2152.399999976158},{""stimulus"":""run_exp/static/images/task_images/rocket-04.jpg"",""time"":3227.699999988079},{""stimulus"":""run_exp/static/images/task_images/rocket-05.jpg"",""time"":4303.100000023842},{""stimulus"":""run_exp/static/images/task_images/rocket-06.jpg"",""time"":5377.100000023842},{""stimulus"":""run_exp/static/images/task_images/rocket-07.jpg"",""time"":6451.699999988079},{""stimulus"":""run_exp/static/images/task_images/rocket-08.jpg"",""time"":7528},{""stimulus"":""run_exp/static/images/task_images/rocket-09.jpg"",""time"":8602.300000011921}]",[],7,,,,,,,,,,,,,,
alien_welcome,189,571185,0.0-59.0-1.0,"""event"",""trial"",""time""
""fullscreenenter"",""1"",""2510""
","
","
","""event"",""trial"",""time""
""fullscreenenter"",""1"",""2510""
","
",,null,run_exp/static/images/task_images/aliens/old_aliens/planet/alien_planet-46.jpg,null,,,,,,,,,,,,,46,"33,14,5,80,74,43,65,46,25,44,70,30,75,36,15,52,77,19,64,39,27,23,22,26,31,72,61,2,68,56,17,10,1,9,8,21,57,53,34,58,69,60",,,,,,,,,,
land,190,571689,0.0-59.0-2.0,"""event"",""trial"",""time""
""fullscreenenter"",""1"",""2510""
","
","
","""event"",""trial"",""time""
""fullscreenenter"",""1"",""2510""
","
",,null,run_exp/static/images/task_images/land.jpg,null,,,,,,,93,,,8,,,,,,,,,,,,,,
dig,191,573695,0.0-59.0-3.0,"""event"",""trial"",""time""
""fullscreenenter"",""1"",""2510""
","
","
","""event"",""trial"",""time""
""fullscreenenter"",""1"",""2510""
","
",,,,,,,,,,,,"[{""stimulus"":""run_exp/static/images/task_images/dig.jpg"",""time"":0.5},{""stimulus"":""run_exp/static/images/task_images/land.jpg"",""time"":670.3000000119209},{""stimulus"":""run_exp/static/images/task_images/dig.jpg"",""time"":1336.8999999761581}]",[],8,,,,,,,,,,,,,,
harvest,192,574699,0.0-59.0-4.0,"""event"",""trial"",""time""
""fullscreenenter"",""1"",""2510""
","
","
","""event"",""trial"",""time""
""fullscreenenter"",""1"",""2510""
","
",,null,run_exp/static/images/task_images/gems/93.jpg,null,,,,,,,77,,,8,,,,,93,0.832926348,0.827956989,,,,,,,
decision,193,574979,0.0-59.0-5.0,"""event"",""trial"",""time""
""fullscreenenter"",""1"",""2510""
","
","
","""event"",""trial"",""time""
""fullscreenenter"",""1"",""2510""
","
",,278.3,run_exp/static/images/task_images/land.jpg,65,,,,,,,77,,,8,,,,,,,,254686,1,0,FALSE,,,
dig,194,577704,0.0-60.0-0.0,"""event"",""trial"",""time""
""fullscreenenter"",""1"",""2510""
","
","
","""event"",""trial"",""time""
""fullscreenenter"",""1"",""2510""
","
",,,,,,,,,,,,"[{""stimulus"":""run_exp/static/images/task_images/dig.jpg"",""time"":0.09999996423721313},{""stimulus"":""run_exp/static/images/task_images/land.jpg"",""time"":909.5999999642372},{""stimulus"":""run_exp/static/images/task_images/dig.jpg"",""time"":1816.800000011921}]",[],8,,,,,,,,,,,,,,
harvest,195,578708,0.0-60.0-1.0,"""event"",""trial"",""time""
""fullscreenenter"",""1"",""2510""
","
","
","""event"",""trial"",""time""
""fullscreenenter"",""1"",""2510""
","
",,null,run_exp/static/images/task_images/gems/77.jpg,null,,,,,,,61,,,8,,,,,77,0.788602033,0.792207792,,,,,,,
decision,196,579014,0.0-60.0-2.0,"""event"",""trial"",""time""
""fullscreenenter"",""1"",""2510""
","
","
","""event"",""trial"",""time""
""fullscreenenter"",""1"",""2510""
","
",,303.5,run_exp/static/images/task_images/land.jpg,65,,,,,,,61,,,8,,,,,,,,258721,1,1,FALSE,,,
dig,197,581714,0.0-61.0-0.0,"""event"",""trial"",""time""
""fullscreenenter"",""1"",""2510""
","
","
","""event"",""trial"",""time""
""fullscreenenter"",""1"",""2510""
","
",,,,,,,,,,,,"[{""stimulus"":""run_exp/static/images/task_images/dig.jpg"",""time"":0.09999996423721313},{""stimulus"":""run_exp/static/images/task_images/land.jpg"",""time"":900.6999999880791},{""stimulus"":""run_exp/static/images/task_images/dig.jpg"",""time"":1798.699999988079}]",[],8,,,,,,,,,,,,,,
harvest,198,582717,0.0-61.0-1.0,"""event"",""trial"",""time""
""fullscreenenter"",""1"",""2510""
","
","
","""event"",""trial"",""time""
""fullscreenenter"",""1"",""2510""
","
",,null,run_exp/static/images/task_images/gems/61.jpg,null,,,,,,,49,,,8,,,,,61,0.811471521,0.803278689,,,,,,,
decision,199,582943,0.0-61.0-2.0,"""event"",""trial"",""time""
""fullscreenenter"",""1"",""2510""
","
","
","""event"",""trial"",""time""
""fullscreenenter"",""1"",""2510""
","
",,224.2,run_exp/static/images/task_images/land.jpg,65,,,,,,,49,,,8,,,,,,,,262651,1,2,FALSE,,,
dig,200,585724,0.0-62.0-0.0,"""event"",""trial"",""time""
""fullscreenenter"",""1"",""2510""
","
","
","""event"",""trial"",""time""
""fullscreenenter"",""1"",""2510""
","
",,,,,,,,,,,,"[{""stimulus"":""run_exp/static/images/task_images/dig.jpg"",""time"":0.10000002384185791},{""stimulus"":""run_exp/static/images/task_images/land.jpg"",""time"":927.1000000238419},{""stimulus"":""run_exp/static/images/task_images/dig.jpg"",""time"":1852.4000000357628}]",[],8,,,,,,,,,,,,,,
harvest,201,586728,0.0-62.0-1.0,"""event"",""trial"",""time""
""fullscreenenter"",""1"",""2510""
","
","
","""event"",""trial"",""time""
""fullscreenenter"",""1"",""2510""
","
",,null,run_exp/static/images/task_images/gems/49.jpg,null,,,,,,,41,,,8,,,,,49,0.843350657,0.836734694,,,,,,,
decision,202,586981,0.0-62.0-2.0,"""event"",""trial"",""time""
""fullscreenenter"",""1"",""2510""
","
","
","""event"",""trial"",""time""
""fullscreenenter"",""1"",""2510""
","
",,251.1,run_exp/static/images/task_images/land.jpg,65,,,,,,,41,,,8,,,,,,,,266688,1,3,FALSE,,,
dig,203,589735,0.0-63.0-0.0,"""event"",""trial"",""time""
""fullscreenenter"",""1"",""2510""
","
","
","""event"",""trial"",""time""
""fullscreenenter"",""1"",""2510""
","
",,,,,,,,,,,,"[{""stimulus"":""run_exp/static/images/task_images/dig.jpg"",""time"":0.40000003576278687},{""stimulus"":""run_exp/static/images/task_images/land.jpg"",""time"":918.4000000357628},{""stimulus"":""run_exp/static/images/task_images/dig.jpg"",""time"":1834.7000000476837}]",[],8,,,,,,,,,,,,,,
harvest,204,590738,0.0-63.0-1.0,"""event"",""trial"",""time""
""fullscreenenter"",""1"",""2510""
","
","
","""event"",""trial"",""time""
""fullscreenenter"",""1"",""2510""
","
",,null,run_exp/static/images/task_images/gems/41.jpg,null,,,,,,,32,,,8,,,,,41,0.772924344,0.780487805,,,,,,,
decision,205,590982,0.0-63.0-2.0,"""event"",""trial"",""time""
""fullscreenenter"",""1"",""2510""
","
","
","""event"",""trial"",""time""
""fullscreenenter"",""1"",""2510""
","
",,242.1,run_exp/static/images/task_images/land.jpg,65,,,,,,,32,,,8,,,,,,,,270690,1,4,FALSE,,,
dig,206,593745,0.0-64.0-0.0,"""event"",""trial"",""time""
""fullscreenenter"",""1"",""2510""
","
","
","""event"",""trial"",""time""
""fullscreenenter"",""1"",""2510""
","
",,,,,,,,,,,,"[{""stimulus"":""run_exp/static/images/task_images/dig.jpg"",""time"":0.09999996423721313},{""stimulus"":""run_exp/static/images/task_images/land.jpg"",""time"":921.5},{""stimulus"":""run_exp/static/images/task_images/dig.jpg"",""time"":1840.8999999761581}]",[],8,,,,,,,,,,,,,,
harvest,207,594748,0.0-64.0-1.0,"""event"",""trial"",""time""
""fullscreenenter"",""1"",""2510""
","
","
","""event"",""trial"",""time""
""fullscreenenter"",""1"",""2510""
","
",,null,run_exp/static/images/task_images/gems/32.jpg,null,,,,,,,28,,,8,,,,,32,0.8607864,0.875,,,,,,,
decision,208,595008,0.0-64.0-2.0,"""event"",""trial"",""time""
""fullscreenenter"",""1"",""2510""
","
","
","""event"",""trial"",""time""
""fullscreenenter"",""1"",""2510""
","
",,257.7,run_exp/static/images/task_images/land.jpg,65,,,,,,,28,,,8,,,,,,,,274715,1,5,FALSE,,,
dig,209,597755,0.0-65.0-0.0,"""event"",""trial"",""time""
""fullscreenenter"",""1"",""2510""
","
","
","""event"",""trial"",""time""
""fullscreenenter"",""1"",""2510""
","
",,,,,,,,,,,,"[{""stimulus"":""run_exp/static/images/task_images/dig.jpg"",""time"":0.10000002384185791},{""stimulus"":""run_exp/static/images/task_images/land.jpg"",""time"":917.1000000238419},{""stimulus"":""run_exp/static/images/task_images/dig.jpg"",""time"":1830.699999988079}]",[],8,,,,,,,,,,,,,,
harvest,210,598759,0.0-65.0-1.0,"""event"",""trial"",""time""
""fullscreenenter"",""1"",""2510""
","
","
","""event"",""trial"",""time""
""fullscreenenter"",""1"",""2510""
","
",,null,run_exp/static/images/task_images/gems/28.jpg,null,,,,,,,22,,,8,,,,,28,0.795138851,0.785714286,,,,,,,
decision,211,599057,0.0-65.0-2.0,"""event"",""trial"",""time""
""fullscreenenter"",""1"",""2510""
","
","
","""event"",""trial"",""time""
""fullscreenenter"",""1"",""2510""
","
",,295.4,run_exp/static/images/task_images/land.jpg,65,,,,,,,22,,,8,,,,,,,,278764,1,6,FALSE,,,
dig,212,601765,0.0-66.0-0.0,"""event"",""trial"",""time""
""fullscreenenter"",""1"",""2510""
","
","
","""event"",""trial"",""time""
""fullscreenenter"",""1"",""2510""
","
",,,,,,,,,,,,"[{""stimulus"":""run_exp/static/images/task_images/dig.jpg"",""time"":0.10000002384185791},{""stimulus"":""run_exp/static/images/task_images/land.jpg"",""time"":903.3999999761581},{""stimulus"":""run_exp/static/images/task_images/dig.jpg"",""time"":1804.6000000238419}]",[],8,,,,,,,,,,,,,,
harvest,213,602769,0.0-66.0-1.0,"""event"",""trial"",""time""
""fullscreenenter"",""1"",""2510""
","
","
","""event"",""trial"",""time""
""fullscreenenter"",""1"",""2510""
","
",,null,run_exp/static/images/task_images/gems/22.jpg,null,,,,,,,18,,,8,,,,,22,0.805619817,0.818181818,,,,,,,
decision,214,603042,0.0-66.0-2.0,"""event"",""trial"",""time""
""fullscreenenter"",""1"",""2510""
","
","
","""event"",""trial"",""time""
""fullscreenenter"",""1"",""2510""
","
",,271.2,run_exp/static/images/task_images/land.jpg,76,,,,,,,18,,,8,,,,,,,,282749,1,7,TRUE,,,
travel,215,612767,0.0-67.0-0.0,"""event"",""trial"",""time""
""fullscreenenter"",""1"",""2510""
","
","
","""event"",""trial"",""time""
""fullscreenenter"",""1"",""2510""
","
",,,,,,,,,,,,"[{""stimulus"":""run_exp/static/images/task_images/rocket-01.jpg"",""time"":0.19999998807907104},{""stimulus"":""run_exp/static/images/task_images/rocket-02.jpg"",""time"":1081.800000011921},{""stimulus"":""run_exp/static/images/task_images/rocket-03.jpg"",""time"":2162.5},{""stimulus"":""run_exp/static/images/task_images/rocket-04.jpg"",""time"":3242.300000011921},{""stimulus"":""run_exp/static/images/task_images/rocket-05.jpg"",""time"":4322.100000023842},{""stimulus"":""run_exp/static/images/task_images/rocket-06.jpg"",""time"":5403},{""stimulus"":""run_exp/static/images/task_images/rocket-07.jpg"",""time"":6482.399999976158},{""stimulus"":""run_exp/static/images/task_images/rocket-08.jpg"",""time"":7562.300000011921},{""stimulus"":""run_exp/static/images/task_images/rocket-09.jpg"",""time"":8642.100000023842}]",[],8,,,,,,,,,,,,,,
alien_welcome,216,617771,0.0-67.0-1.0,"""event"",""trial"",""time""
""fullscreenenter"",""1"",""2510""
","
","
","""event"",""trial"",""time""
""fullscreenenter"",""1"",""2510""
","
",,null,run_exp/static/images/task_images/aliens/old_aliens/planet/alien_planet-25.jpg,null,,,,,,,,,,,,,25,"33,14,5,80,74,43,65,46,25,44,70,30,75,36,15,52,77,19,64,39,27,23,22,26,31,72,61,2,68,56,17,10,1,9,8,21,57,53,34,58,69,60",,,,,,,,,,
land,217,618275,0.0-67.0-2.0,"""event"",""trial"",""time""
""fullscreenenter"",""1"",""2510""
","
","
","""event"",""trial"",""time""
""fullscreenenter"",""1"",""2510""
","
",,null,run_exp/static/images/task_images/land.jpg,null,,,,,,,101,,,9,,,,,,,,,,,,,,
dig,218,620281,0.0-67.0-3.0,"""event"",""trial"",""time""
""fullscreenenter"",""1"",""2510""
","
","
","""event"",""trial"",""time""
""fullscreenenter"",""1"",""2510""
","
",,,,,,,,,,,,"[{""stimulus"":""run_exp/static/images/task_images/dig.jpg"",""time"":0.5},{""stimulus"":""run_exp/static/images/task_images/land.jpg"",""time"":670.0999999642372},{""stimulus"":""run_exp/static/images/task_images/dig.jpg"",""time"":1336.5999999642372}]",[],9,,,,,,,,,,,,,,
harvest,219,621285,0.0-67.0-4.0,"""event"",""trial"",""time""
""fullscreenenter"",""1"",""2510""
","
","
","""event"",""trial"",""time""
""fullscreenenter"",""1"",""2510""
","
",,null,run_exp/static/images/task_images/gems/101.jpg,null,,,,,,,14,,,9,,,,,101,0.13434049,0.138613861,,,,,,,
decision,220,621585,0.0-67.0-5.0,"""event"",""trial"",""time""
""fullscreenenter"",""1"",""2510""
","
","
","""event"",""trial"",""time""
""fullscreenenter"",""1"",""2510""
","
",,298.5,run_exp/static/images/task_images/land.jpg,65,,,,,,,14,,,9,,,,,,,,301292,1,0,TRUE,,,
end_of_block_continue,221,630402,0.0-68.0-0.0,"""event"",""trial"",""time""
""fullscreenenter"",""1"",""2510""
","
","
","""event"",""trial"",""time""
""fullscreenenter"",""1"",""2510""
","
",,null,run_exp/static/audio/clip_32_block_end.m4a,,,,,,,null,,,,,,,,,,,,,,,,,,
alien_welcome,222,635407,0.0-69.0-0.0,"""event"",""trial"",""time""
""fullscreenenter"",""1"",""2510""
","
","
","""event"",""trial"",""time""
""fullscreenenter"",""1"",""2510""
","
",,null,run_exp/static/images/task_images/aliens/old_aliens/planet/alien_planet-44.jpg,null,,,,,,,,,,,,,44,"33,14,5,80,74,43,65,46,25,44,70,30,75,36,15,52,77,19,64,39,27,23,22,26,31,72,61,2,68,56,17,10,1,9,8,21,57,53,34,58,69,60",,,,,,,,,,
land,223,635911,0.0-69.0-1.0,"""event"",""trial"",""time""
""fullscreenenter"",""1"",""2510""
","
","
","""event"",""trial"",""time""
""fullscreenenter"",""1"",""2510""
","
",,null,run_exp/static/images/task_images/land.jpg,null,,,,,,,98,,,10,,,,,,,,,,,,,,
dig,224,637917,0.0-69.0-2.0,"""event"",""trial"",""time""
""fullscreenenter"",""1"",""2510""
","
","
","""event"",""trial"",""time""
""fullscreenenter"",""1"",""2510""
","
",,,,,,,,,,,,"[{""stimulus"":""run_exp/static/images/task_images/dig.jpg"",""time"":0.3999999761581421},{""stimulus"":""run_exp/static/images/task_images/land.jpg"",""time"":670},{""stimulus"":""run_exp/static/images/task_images/dig.jpg"",""time"":1336.199999988079}]",[],10,,,,,,,,,,,,,,
harvest,225,638921,0.0-69.0-3.0,"""event"",""trial"",""time""
""fullscreenenter"",""1"",""2510""
","
","
","""event"",""trial"",""time""
""fullscreenenter"",""1"",""2510""
","
",,null,run_exp/static/images/task_images/gems/98.jpg,null,,,,,,,24,,,10,,,,,98,0.239834794,0.244897959,,,,,,,
decision,226,639770,0.0-69.0-4.0,"""event"",""trial"",""time""
""fullscreenenter"",""1"",""2510""
","
","
","""event"",""trial"",""time""
""fullscreenenter"",""1"",""2510""
","
",,846.9,run_exp/static/images/task_images/land.jpg,65,,,,,,,24,,,10,,,,,,,,9365,2,0,FALSE,,,
dig,227,641927,0.0-70.0-0.0,"""event"",""trial"",""time""
""fullscreenenter"",""1"",""2510""
","
","
","""event"",""trial"",""time""
""fullscreenenter"",""1"",""2510""
","
",,,,,,,,,,,,"[{""stimulus"":""run_exp/static/images/task_images/dig.jpg"",""time"":0.20000004768371582},{""stimulus"":""run_exp/static/images/task_images/land.jpg"",""time"":719.4000000357628},{""stimulus"":""run_exp/static/images/task_images/dig.jpg"",""time"":1436.4000000357628}]",[],10,,,,,,,,,,,,,,
harvest,228,642930,0.0-70.0-1.0,"""event"",""trial"",""time""
""fullscreenenter"",""1"",""2510""
","
","
","""event"",""trial"",""time""
""fullscreenenter"",""1"",""2510""
","
",,null,run_exp/static/images/task_images/gems/24.jpg,null,,,,,,,5,,,10,,,,,24,0.220024468,0.208333333,,,,,,,
decision,229,643724,0.0-70.0-2.0,"""event"",""trial"",""time""
""fullscreenenter"",""1"",""2510""
","
","
","""event"",""trial"",""time""
""fullscreenenter"",""1"",""2510""
","
",,791.9,run_exp/static/images/task_images/land.jpg,76,,,,,,,5,,,10,,,,,,,,13319,2,1,TRUE,,,
travel,230,652937,0.0-71.0-0.0,"""event"",""trial"",""time""
""fullscreenenter"",""1"",""2510""
","
","
","""event"",""trial"",""time""
""fullscreenenter"",""1"",""2510""
","
",,,,,,,,,,,,"[{""stimulus"":""run_exp/static/images/task_images/rocket-01.jpg"",""time"":0.2999999523162842},{""stimulus"":""run_exp/static/images/task_images/rocket-02.jpg"",""time"":1025.8999999761581},{""stimulus"":""run_exp/static/images/task_images/rocket-03.jpg"",""time"":2049.099999964237},{""stimulus"":""run_exp/static/images/task_images/rocket-04.jpg"",""time"":3072.199999988079},{""stimulus"":""run_exp/static/images/task_images/rocket-05.jpg"",""time"":4094.399999976158},{""stimulus"":""run_exp/static/images/task_images/rocket-06.jpg"",""time"":5118},{""stimulus"":""run_exp/static/images/task_images/rocket-07.jpg"",""time"":6140.5},{""stimulus"":""run_exp/static/images/task_images/rocket-08.jpg"",""time"":7163.199999988079},{""stimulus"":""run_exp/static/images/task_images/rocket-09.jpg"",""time"":8187.299999952316}]",[],10,,,,,,,,,,,,,,
alien_welcome,231,657939,0.0-71.0-1.0,"""event"",""trial"",""time""
""fullscreenenter"",""1"",""2510""
","
","
","""event"",""trial"",""time""
""fullscreenenter"",""1"",""2510""
","
",,null,run_exp/static/images/task_images/aliens/old_aliens/planet/alien_planet-70.jpg,null,,,,,,,,,,,,,70,"33,14,5,80,74,43,65,46,25,44,70,30,75,36,15,52,77,19,64,39,27,23,22,26,31,72,61,2,68,56,17,10,1,9,8,21,57,53,34,58,69,60",,,,,,,,,,
land,232,658442,0.0-71.0-2.0,"""event"",""trial"",""time""
""fullscreenenter"",""1"",""2510""
","
","
","""event"",""trial"",""time""
""fullscreenenter"",""1"",""2510""
","
",,null,run_exp/static/images/task_images/land.jpg,null,,,,,,,101,,,11,,,,,,,,,,,,,,
dig,233,660448,0.0-71.0-3.0,"""event"",""trial"",""time""
""fullscreenenter"",""1"",""2510""
","
","
","""event"",""trial"",""time""
""fullscreenenter"",""1"",""2510""
","
",,,,,,,,,,,,"[{""stimulus"":""run_exp/static/images/task_images/dig.jpg"",""time"":0.3999999761581421},{""stimulus"":""run_exp/static/images/task_images/land.jpg"",""time"":669.1000000238419},{""stimulus"":""run_exp/static/images/task_images/dig.jpg"",""time"":1336.800000011921}]",[],11,,,,,,,,,,,,,,
harvest,234,661452,0.0-71.0-4.0,"""event"",""trial"",""time""
""fullscreenenter"",""1"",""2510""
","
","
","""event"",""trial"",""time""
""fullscreenenter"",""1"",""2510""
","
",,null,run_exp/static/images/task_images/gems/101.jpg,null,,,,,,,21,,,11,,,,,101,0.210693353,0.207920792,,,,,,,
decision,235,661757,0.0-71.0-5.0,"""event"",""trial"",""time""
""fullscreenenter"",""1"",""2510""
","
","
","""event"",""trial"",""time""
""fullscreenenter"",""1"",""2510""
","
",,303.2,run_exp/static/images/task_images/land.jpg,65,,,,,,,21,,,11,,,,,,,,31352,2,0,FALSE,,,
dig,236,664457,0.0-72.0-0.0,"""event"",""trial"",""time""
""fullscreenenter"",""1"",""2510""
","
","
","""event"",""trial"",""time""
""fullscreenenter"",""1"",""2510""
","
",,,,,,,,,,,,"[{""stimulus"":""run_exp/static/images/task_images/dig.jpg"",""time"":0},{""stimulus"":""run_exp/static/images/task_images/land.jpg"",""time"":900.3000000119209},{""stimulus"":""run_exp/static/images/task_images/dig.jpg"",""time"":1798.300000011921}]",[],11,,,,,,,,,,,,,,
harvest,237,665461,0.0-72.0-1.0,"""event"",""trial"",""time""
""fullscreenenter"",""1"",""2510""
","
","
","""event"",""trial"",""time""
""fullscreenenter"",""1"",""2510""
","
",,null,run_exp/static/images/task_images/gems/21.jpg,null,,,,,,,2,,,11,,,,,21,0.080901613,0.095238095,,,,,,,
decision,238,665699,0.0-72.0-2.0,"""event"",""trial"",""time""
""fullscreenenter"",""1"",""2510""
","
","
","""event"",""trial"",""time""
""fullscreenenter"",""1"",""2510""
","
",,235.4,run_exp/static/images/task_images/land.jpg,76,,,,,,,2,,,11,,,,,,,,35294,2,1,TRUE,,,
travel,239,675461,0.0-73.0-0.0,"""event"",""trial"",""time""
""fullscreenenter"",""1"",""2510""
","
","
","""event"",""trial"",""time""
""fullscreenenter"",""1"",""2510""
","
",,,,,,,,,,,,"[{""stimulus"":""run_exp/static/images/task_images/rocket-01.jpg"",""time"":0.19999998807907104},{""stimulus"":""run_exp/static/images/task_images/rocket-02.jpg"",""time"":1086.300000011921},{""stimulus"":""run_exp/static/images/task_images/rocket-03.jpg"",""time"":2169.900000035763},{""stimulus"":""run_exp/static/images/task_images/rocket-04.jpg"",""time"":3253.300000011921},{""stimulus"":""run_exp/static/images/task_images/rocket-05.jpg"",""time"":4339.100000023842},{""stimulus"":""run_exp/static/images/task_images/rocket-06.jpg"",""time"":5422.900000035763},{""stimulus"":""run_exp/static/images/task_images/rocket-07.jpg"",""time"":6506.800000011921},{""stimulus"":""run_exp/static/images/task_images/rocket-08.jpg"",""time"":7590.400000035763},{""stimulus"":""run_exp/static/images/task_images/rocket-09.jpg"",""time"":8674.900000035763}]",[],11,,,,,,,,,,,,,,
alien_welcome,240,680465,0.0-73.0-1.0,"""event"",""trial"",""time""
""fullscreenenter"",""1"",""2510""
","
","
","""event"",""trial"",""time""
""fullscreenenter"",""1"",""2510""
","
",,null,run_exp/static/images/task_images/aliens/old_aliens/planet/alien_planet-30.jpg,null,,,,,,,,,,,,,30,"33,14,5,80,74,43,65,46,25,44,70,30,75,36,15,52,77,19,64,39,27,23,22,26,31,72,61,2,68,56,17,10,1,9,8,21,57,53,34,58,69,60",,,,,,,,,,
land,241,680969,0.0-73.0-2.0,"""event"",""trial"",""time""
""fullscreenenter"",""1"",""2510""
","
","
","""event"",""trial"",""time""
""fullscreenenter"",""1"",""2510""
","
",,null,run_exp/static/images/task_images/land.jpg,null,,,,,,,106,,,12,,,,,,,,,,,,,,
dig,242,682973,0.0-73.0-3.0,"""event"",""trial"",""time""
""fullscreenenter"",""1"",""2510""
","
","
","""event"",""trial"",""time""
""fullscreenenter"",""1"",""2510""
","
",,,,,,,,,,,,"[{""stimulus"":""run_exp/static/images/task_images/dig.jpg"",""time"":0.19999998807907104},{""stimulus"":""run_exp/static/images/task_images/land.jpg"",""time"":669.5},{""stimulus"":""run_exp/static/images/task_images/dig.jpg"",""time"":1336.5999999642372}]",[],12,,,,,,,,,,,,,,
harvest,243,683976,0.0-73.0-4.0,"""event"",""trial"",""time""
""fullscreenenter"",""1"",""2510""
","
","
","""event"",""trial"",""time""
""fullscreenenter"",""1"",""2510""
","
",,null,run_exp/static/images/task_images/gems/106.jpg,null,,,,,,,27,,,12,,,,,106,0.251267312,0.254716981,,,,,,,
decision,244,684077,0.0-73.0-5.0,"""event"",""trial"",""time""
""fullscreenenter"",""1"",""2510""
","
","
","""event"",""trial"",""time""
""fullscreenenter"",""1"",""2510""
","
",,99.89999998,run_exp/static/images/task_images/land.jpg,65,,,,,,,27,,,12,,,,,,,,53672,2,0,FALSE,,,
dig,245,686981,0.0-74.0-0.0,"""event"",""trial"",""time""
""fullscreenenter"",""1"",""2510""
","
","
","""event"",""trial"",""time""
""fullscreenenter"",""1"",""2510""
","
",,,,,,,,,,,,"[{""stimulus"":""run_exp/static/images/task_images/dig.jpg"",""time"":0.09999996423721313},{""stimulus"":""run_exp/static/images/task_images/land.jpg"",""time"":967.5999999642372},{""stimulus"":""run_exp/static/images/task_images/dig.jpg"",""time"":1934.3999999761581}]",[],12,,,,,,,,,,,,,,
harvest,246,687984,0.0-74.0-1.0,"""event"",""trial"",""time""
""fullscreenenter"",""1"",""2510""
","
","
","""event"",""trial"",""time""
""fullscreenenter"",""1"",""2510""
","
",,null,run_exp/static/images/task_images/gems/27.jpg,null,,,,,,,6,,,12,,,,,27,0.240032287,0.222222222,,,,,,,
decision,247,688228,0.0-74.0-2.0,"""event"",""trial"",""time""
