trial_type,trial_index,time_elapsed,internal_node_id,success,rt,stimulus,key_press,prompt,subject_id,age,gender,button_pressed,next_reward,animation_sequence,responses,planet,curr_prac_trial,n_prac_rounds,alien,aliens,reward_received,decay_rate_actual,decay_rate_exp,time_in_block,block_num,prt,last_trial_on_planet,button_html,bonus,num_failures
pavlovia,0,7,0.0-0.0,,,,,,,,,,,,,,,,,,,,,,,,,,,
fullscreen,1,7840,0.0-1.0,TRUE,,,,,,,,,,,,,,,,,,,,,,,,,,
instruc_welcome,2,17822,0.0-2.0,,null,run_exp/static/audio/clip_1_welcome.m4a,null,"<p>Howdy! In this experiment, you’ll be an explorer traveling through space to collect space treasure.</p><p>Your mission is to collect as much treasure as possible.</p><br><br><p><img src='run_exp/static/images/task_images/opening_img-01.jpg' height='300' width='auto'></p>",qg0xa3LZw5abJIK_1Y3uCvx5VSxv8Zo_MLRP_2odmtXM9MSQ2SSW,12.26,male,,,,,,,,,,,,,,,,,,,
audio-keyboard-response,3,34479,0.0-3.0,,null,run_exp/static/audio/clip_2_move.m4a,null,,,,,,,,,,,,,,,,,,,,,,,
welcome_dec,4,37288,0.0-4.0,,2797.6,"<p>Howdy! In this experiment, you’ll be an explorer traveling through space to collect space treasure.</p><p>Your mission is to collect as much treasure as possible.</p><br><br><p><img src='run_exp/static/images/task_images/opening_img-01.jpg' height='300' width='auto'></p>",,,,,,1,,,,,,,,,,,,,,,,,,
html-keyboard-response,5,38891,0.0-5.0,,1599,"<p>Howdy! In this experiment, you’ll be an explorer traveling through space to collect space treasure.</p><p>Your mission is to collect as much treasure as possible.</p><br><br><p><img src='run_exp/static/images/task_images/opening_img-01.jpg' height='300' width='auto'></p><button class=""jspsych-html-btn-unchosen""><img src=""run_exp/static/images/task_images/planet-01.jpg"" height=""50""></button><button class=""jspsych-html-btn-chosen""><img src=""run_exp/static/images/task_images/planet-02.jpg"" height=""50""></button><p><b>[press the space bar to lock in your answer]<b><br></p>",32,,,,,,,,,,,,,,,,,,,,,,,
instruc_goal,6,48979,0.0-6.0-0.0,,null,run_exp/static/audio/clip_3_goal.m4a,null,"<p> As a space explorer, you’ll visit different planets to dig for space treasure, these pink gems.</p> <p> The more treasure you dig up, the more bonus money you’ll win! </p><br><br><p><img src='run_exp/static/images/task_images/pink_gem.jpg' height='300' width='auto'></p>",,,,,,,,,,,,,,,,,,,,,,
instruc_goal,7,50859,0.0-6.0-1.0,,1872.7,"<p> As a space explorer, you’ll visit different planets to dig for space treasure, these pink gems.</p> <p> The more treasure you dig up, the more bonus money you’ll win! </p><br><br><p><img src='run_exp/static/images/task_images/pink_gem.jpg' height='300' width='auto'></p>",,,,,,1,,,,,,,,,,,,,,,,,,
html-keyboard-response,8,51525,0.0-6.0-2.0,,662.3,"<p> As a space explorer, you’ll visit different planets to dig for space treasure, these pink gems.</p> <p> The more treasure you dig up, the more bonus money you’ll win! </p><br><br><p><img src='run_exp/static/images/task_images/pink_gem.jpg' height='300' width='auto'></p><button class=""jspsych-html-btn-unchosen""><img src=""run_exp/static/images/task_images/planet-01.jpg"" height=""50""></button><button class=""jspsych-html-btn-chosen""><img src=""run_exp/static/images/task_images/planet-02.jpg"" height=""50""></button><p><b>[press the space bar to lock in your answer]<b><br></p>",32,,,,,,,,,,,,,,,,,,,,,,,
instruc_dig,9,67559,0.0-7.0-0.0,,null,run_exp/static/audio/clip_4_dig.m4a,null,,,,,,100,,,,,,,,,,,,,,,,,
instruc_dig_try,10,68519,0.0-7.0-1.0,,952.4,"<p> When you’ve arrived at a new planet, you will dig once. </p> <p>Then, you get to decide if you want to stay on the planet and dig again or travel to a new planet and dig there.</p> <p> To stay and dig, press the letter <strong>‘A’</strong> on your keyboard. Try pressing it now! </p><p><img src='run_exp/static/images/task_images/land.jpg'  height='700' width='auto'></p>",65,"<p> When you’ve arrived at a new planet, you will dig once. </p> <p>Then, you get to decide if you want to stay on the planet and dig again or travel to a new planet and dig there.</p> <p> To stay and dig, press the letter <strong>‘A’</strong> on your keyboard. Try pressing it now! </p><p><img src='run_exp/static/images/task_images/land.jpg'  height='700' width='auto'></p>",,,,,100,,,,,,,,,,,,,,,,,
dig_prac,11,70565,0.0-7.0-2.0,,,,,,,,,,,"[{""stimulus"":""run_exp/static/images/task_images/dig.jpg"",""time"":0.800000011920929},{""stimulus"":""run_exp/static/images/task_images/land.jpg"",""time"":669.5999999642372},{""stimulus"":""run_exp/static/images/task_images/dig.jpg"",""time"":1352.199999988079}]",[],,,,,,,,,,,,,,,
instruc_travel,12,106848,0.0-7.0-3.0,,null,run_exp/static/audio/clip_5_travel.m4a,null,"<p>Every time you dig up gems, there are less gems on the planet, so the more you dig on a planet the fewer gems you’ll get with each dig.</p><p>When gems are running low, you may want to travel to a new planet. </p> <p>  Planets are very far apart in this galaxy, so it will take some time to travel between them. </p> <br><p>There are lots and lots of planets for you to visit, so you won’t be able to return to any planets you’ve seen before. </p><br><p>To leave this planet and travel to a new one, press the letter <strong>‘L’</strong> on your keyboard. Try pressing it now! </p><p><img src='run_exp/static/images/task_images/rocket-01.jpg'  height='600' width='auto'></p>",,,,,,,,,,,,,,,,,,,,,,
instruc_travel_try,13,107199,0.0-7.0-4.0,,346.9,"<p>Every time you dig up gems, there are less gems on the planet, so the more you dig on a planet the fewer gems you’ll get with each dig.</p><p>When gems are running low, you may want to travel to a new planet. </p> <p>  Planets are very far apart in this galaxy, so it will take some time to travel between them. </p> <br><p>There are lots and lots of planets for you to visit, so you won’t be able to return to any planets you’ve seen before. </p><br><p>To leave this planet and travel to a new one, press the letter <strong>‘L’</strong> on your keyboard. Try pressing it now! </p><p><img src='run_exp/static/images/task_images/rocket-01.jpg'  height='600' width='auto'></p>",76,"<p>Every time you dig up gems, there are less gems on the planet, so the more you dig on a planet the fewer gems you’ll get with each dig.</p><p>When gems are running low, you may want to travel to a new planet. </p> <p>  Planets are very far apart in this galaxy, so it will take some time to travel between them. </p> <br><p>There are lots and lots of planets for you to visit, so you won’t be able to return to any planets you’ve seen before. </p><br><p>To leave this planet and travel to a new one, press the letter <strong>‘L’</strong> on your keyboard. Try pressing it now! </p><p><img src='run_exp/static/images/task_images/rocket-01.jpg'  height='600' width='auto'></p>",,,,,,,,,,,,,,,,,,,,,,
travel_prac,14,117215,0.0-7.0-5.0,,,,,,,,,,,"[{""stimulus"":""run_exp/static/images/task_images/rocket-01.jpg"",""time"":0.5},{""stimulus"":""run_exp/static/images/task_images/rocket-02.jpg"",""time"":1131.699999988079},{""stimulus"":""run_exp/static/images/task_images/rocket-03.jpg"",""time"":2231.599999964237},{""stimulus"":""run_exp/static/images/task_images/rocket-04.jpg"",""time"":3341.5},{""stimulus"":""run_exp/static/images/task_images/rocket-05.jpg"",""time"":4461.5},{""stimulus"":""run_exp/static/images/task_images/rocket-06.jpg"",""time"":5571.800000011921},{""stimulus"":""run_exp/static/images/task_images/rocket-07.jpg"",""time"":6681.599999964237},{""stimulus"":""run_exp/static/images/task_images/rocket-08.jpg"",""time"":7787.399999976158},{""stimulus"":""run_exp/static/images/task_images/rocket-09.jpg"",""time"":8891.699999988079}]",[],0,,,,,,,,,,,,,,
instruc_alien_greet,15,144419,0.0-7.0-6.0,,null,run_exp/static/audio/clip_6_alien.m4a,null,"<p>When you arrive at a new planet, the alien who owns the treasure mine on that planet will greet you!</p><p>The better an alien takes care of their mine the easier it is to dig for gems. Some aliens take better care of their mine than others. So, you won’t get exactly the same amount of gems on each planet.</p><p>What the alien looks like does not tell you anything about how many gems there are on the planet.</p><br><p><img src=""run_exp/static/images/task_images/aliens/instructions_aliens/planet/alien_planet-1.jpg""  height=""600"" width=""auto""></p>",,,,,,,,,,,,,,,,,,,,,,
instruc_alien_greet,16,165644,0.0-7.0-7.0,,21216.3,"<p>When you arrive at a new planet, the alien who owns the treasure mine on that planet will greet you!</p><p>The better an alien takes care of their mine the easier it is to dig for gems. Some aliens take better care of their mine than others. So, you won’t get exactly the same amount of gems on each planet.</p><p>What the alien looks like does not tell you anything about how many gems there are on the planet.</p><br><p><img src=""run_exp/static/images/task_images/aliens/instructions_aliens/planet/alien_planet-1.jpg""  height=""600"" width=""auto""></p>",,,,,,1,,,,,,,,,,,,,,,,,,
html-keyboard-response,17,169492,0.0-7.0-8.0,,3845.6,"<p>When you arrive at a new planet, the alien who owns the treasure mine on that planet will greet you!</p><p>The better an alien takes care of their mine the easier it is to dig for gems. Some aliens take better care of their mine than others. So, you won’t get exactly the same amount of gems on each planet.</p><p>What the alien looks like does not tell you anything about how many gems there are on the planet.</p><br><p><img src=""run_exp/static/images/task_images/aliens/instructions_aliens/planet/alien_planet-1.jpg""  height=""600"" width=""auto""></p><button class=""jspsych-html-btn-unchosen""><img src=""run_exp/static/images/task_images/planet-01.jpg"" height=""50""></button><button class=""jspsych-html-btn-chosen""><img src=""run_exp/static/images/task_images/planet-02.jpg"" height=""50""></button><p><b>[press the space bar to lock in your answer]<b><br></p>",32,,,,,,,,,,,,,,,,,,,,,,,
time_out,18,181013,0.0-8.0-0.0,,null,run_exp/static/audio/clip_7_timeout.m4a,null,"<p>If you don't make your choice fast enough, you’ll have to wait a few seconds before you can make another one.</p><p>You can’t dig for more gems or travel to new planets. You just have to sit and wait.</p><br><p><img src='run_exp/static/images/task_images/time_out.jpg'  height='600' width='auto'></p>",,,,,,,,,,,,,,,,,,,,,,
time_out,19,184200,0.0-8.0-1.0,,3180.2,"<p>If you don't make your choice fast enough, you’ll have to wait a few seconds before you can make another one.</p><p>You can’t dig for more gems or travel to new planets. You just have to sit and wait.</p><br><p><img src='run_exp/static/images/task_images/time_out.jpg'  height='600' width='auto'></p>",,,,,,1,,,,,,,,,,,,,,,,,,
html-keyboard-response,20,185196,0.0-8.0-2.0,,994,"<p>If you don't make your choice fast enough, you’ll have to wait a few seconds before you can make another one.</p><p>You can’t dig for more gems or travel to new planets. You just have to sit and wait.</p><br><p><img src='run_exp/static/images/task_images/time_out.jpg'  height='600' width='auto'></p><button class=""jspsych-html-btn-unchosen""><img src=""run_exp/static/images/task_images/planet-01.jpg"" height=""50""></button><button class=""jspsych-html-btn-chosen""><img src=""run_exp/static/images/task_images/planet-02.jpg"" height=""50""></button><p><b>[press the space bar to lock in your answer]<b><br></p>",32,,,,,,,,,,,,,,,,,,,,,,,
instruc_break,21,200894,0.0-9.0-0.0,,null,run_exp/static/audio/clip_8_break.m4a,null,"<p> After digging and traveling for a while, you’ll be able to take a break at home base. </p><p>The game will last 20 minutes no matter what.</p><p>You will visit home base every 5 minutes, so, you will visit home base three times during the game.</p><br><p><img src='run_exp/static/images/task_images/home_base.jpg' height='600' width='auto'></p>",,,,,,,,,,,,,,,,,,,,,,
instruc_break,22,219300,0.0-9.0-1.0,,18394.9,"<p> After digging and traveling for a while, you’ll be able to take a break at home base. </p><p>The game will last 20 minutes no matter what.</p><p>You will visit home base every 5 minutes, so, you will visit home base three times during the game.</p><br><p><img src='run_exp/static/images/task_images/home_base.jpg' height='600' width='auto'></p>",,,,,,1,,,,,,,,,,,,,,,,,,
html-keyboard-response,23,220377,0.0-9.0-2.0,,1074.4,"<p> After digging and traveling for a while, you’ll be able to take a break at home base. </p><p>The game will last 20 minutes no matter what.</p><p>You will visit home base every 5 minutes, so, you will visit home base three times during the game.</p><br><p><img src='run_exp/static/images/task_images/home_base.jpg' height='600' width='auto'></p><button class=""jspsych-html-btn-unchosen""><img src=""run_exp/static/images/task_images/planet-01.jpg"" height=""50""></button><button class=""jspsych-html-btn-chosen""><img src=""run_exp/static/images/task_images/planet-02.jpg"" height=""50""></button><p><b>[press the space bar to lock in your answer]<b><br></p>",32,,,,,,,,,,,,,,,,,,,,,,,
instruc_prac_game,24,230597,0.0-10.0-0.0,,null,run_exp/static/audio/clip_9_practice.m4a,null,"<p> Are you ready to play a practice game? </p> <p>In this practice game, you'll be digging up barrels of gems. But, in the real game, you'll be digging up the gems themselves. </p>",,,,,,,,,,,,,,,,,,,,,,
html-button-response,25,233240,0.0-10.0-1.0,,2640,"<p> Are you ready to play a practice game? </p> <p>In this practice game, you'll be digging up barrels of gems. But, in the real game, you'll be digging up the gems themselves. </p>",,,,,,0,,,,,,,,,,,,,,,,,,
alien_welcome_prac,26,238246,0.0-11.0-0.0,,null,run_exp/static/images/task_images/aliens/practice_aliens/planet/alien_planet-5.jpg,null,,,,,,,,,,,,,,,,,,,,,,,
land_prac,27,238753,0.0-11.0-1.0,,null,run_exp/static/images/task_images/land.jpg,null,,,,,,99,,,0,,,,,,,,,,,,,,
dig_prac,28,240777,0.0-11.0-2.0,,,,,,,,,,,"[{""stimulus"":""run_exp/static/images/task_images/dig.jpg"",""time"":0.3999999761581421},{""stimulus"":""run_exp/static/images/task_images/land.jpg"",""time"":687.6999999880791},{""stimulus"":""run_exp/static/images/task_images/dig.jpg"",""time"":1340.2999999523163}]",[],,,,,,,,,,,,,,,
harvest_prac,29,241788,0.0-11.0-3.0,,null,run_exp/static/images/task_images/barrel_text.jpg,null,,,,,,,,,,,,,,,,,,,,,,,
decision_prac,30,241905,0.0-11.0-4.0,,113.8,run_exp/static/images/task_images/land.jpg,65,,,,,,,,,,1,,,,,,,,,,,,,
dig_prac,31,243912,0.0-12.0-0.0,,,,,,,,,,,"[{""stimulus"":""run_exp/static/images/task_images/dig.jpg"",""time"":0.19999998807907104},{""stimulus"":""run_exp/static/images/task_images/land.jpg"",""time"":684},{""stimulus"":""run_exp/static/images/task_images/dig.jpg"",""time"":1340}]",[],,,,,,,,,,,,,,,
harvest_prac,32,244916,0.0-12.0-1.0,,null,run_exp/static/images/task_images/barrel_text.jpg,null,,,,,,,,,,,,,,,,,,,,,,,
decision_prac,33,247381,0.0-12.0-2.0,,2462.8,run_exp/static/images/task_images/land.jpg,65,,,,,,,,,,2,,,,,,,,,,,,,
dig_prac,34,249409,0.0-13.0-0.0,,,,,,,,,,,"[{""stimulus"":""run_exp/static/images/task_images/dig.jpg"",""time"":0.19999998807907104},{""stimulus"":""run_exp/static/images/task_images/land.jpg"",""time"":687.5999999642372},{""stimulus"":""run_exp/static/images/task_images/dig.jpg"",""time"":1349.5}]",[],,,,,,,,,,,,,,,
harvest_prac,35,250427,0.0-13.0-1.0,,null,run_exp/static/images/task_images/barrel_text.jpg,null,,,,,,,,,,,,,,,,,,,,,,,
decision_prac,36,251308,0.0-13.0-2.0,,877,run_exp/static/images/task_images/land.jpg,65,,,,,,,,,,3,,,,,,,,,,,,,
dig_prac,37,253323,0.0-14.0-0.0,,,,,,,,,,,"[{""stimulus"":""run_exp/static/images/task_images/dig.jpg"",""time"":0.6000000238418579},{""stimulus"":""run_exp/static/images/task_images/land.jpg"",""time"":674.6000000238419},{""stimulus"":""run_exp/static/images/task_images/dig.jpg"",""time"":1343.4000000357628}]",[],,,,,,,,,,,,,,,
harvest_prac,38,254344,0.0-14.0-1.0,,null,run_exp/static/images/task_images/barrel_text.jpg,null,,,,,,,,,,,,,,,,,,,,,,,
decision_prac,39,254956,0.0-14.0-2.0,,609.2,run_exp/static/images/task_images/land.jpg,65,,,,,,,,,,4,,,,,,,,,,,,,
dig_prac,40,256973,0.0-15.0-0.0,,,,,,,,,,,"[{""stimulus"":""run_exp/static/images/task_images/dig.jpg"",""time"":0.699999988079071},{""stimulus"":""run_exp/static/images/task_images/land.jpg"",""time"":680.6000000238419},{""stimulus"":""run_exp/static/images/task_images/dig.jpg"",""time"":1344.199999988079}]",[],,,,,,,,,,,,,,,
harvest_prac,41,257996,0.0-15.0-1.0,,null,run_exp/static/images/task_images/barrel_text.jpg,null,,,,,,,,,,,,,,,,,,,,,,,
decision_prac,42,258932,0.0-15.0-2.0,,932.6,run_exp/static/images/task_images/land.jpg,65,,,,,,,,,,,1,,,,,,,,,,,,
quiz_instruc,43,271661,0.0-16.0-0.0,,12719.6,run_exp/static/audio/clip_10_quiz.m4a,,,,,,0,,,,,,,,,,,,,,,,,,
instruc_repeat,44,314451,0.0-16.0-1.0,,null,"<p> Are you ready to play a practice game? </p> <p>In this practice game, you'll be digging up barrels of gems. But, in the real game, you'll be digging up the gems themselves. </p>",null,"<p>In this game, your goal is to collect as many gems as you can. That’s how you will win bonus money. </p> <p>The entire game will last 20 minutes no matter how many gems you collect or how many planets you visit. </p><p>To stay on a planet and dig again, press the letter A on your keyboard. To leave for a new planet, press the letter L.</p><p>The more you dig on a planet, the fewer gems you’ll get with each dig which is why you might consider leaving for a new planet. </p><p>When you arrive at a new planet, you’ll be greeted by an alien. What the alien looks like does not tell you anything about how much treasure is on the planet. </p>",,,,,,,,,,,,,,,,,,,,,,
instruc_repeat_continue,45,316398,0.0-16.0-2.0,,1943,"<p> Are you ready to play a practice game? </p> <p>In this practice game, you'll be digging up barrels of gems. But, in the real game, you'll be digging up the gems themselves. </p>",,,,,,0,,,,,,,,,,,,,,,,,,
quiz_q_1_ask,46,322145,0.0-16.0-3.0,,5743.8,run_exp/static/audio/clip_11_q1_ask.m4a,,,,,,2,,,,,,,,,,,,,,,,,,
quiz_q_1_fb_correct,47,326009,0.0-17.0-0.0,,null,run_exp/static/audio/clip_12_q1_corrrect.m4a,null,<p>That’s correct. You win extra money by collecting more gems.</p>,,,,,,,,,,,,,,,,,,,,,,
quiz_q_2_ask,48,331483,0.0-17.0-1.0,,5468.3,run_exp/static/audio/clip_14_q2_ask.m4a,,,,,,1,,,,,,,,,,,,,,,,,,
quiz_q_2_fb_correct,49,335507,0.0-18.0-0.0,,null,run_exp/static/audio/clip_15_q2_correct.m4a,null,<p>That’s correct. The experiment is 20 minutes no matter what.</p>,,,,,,,,,,,,,,,,,,,,,,
quiz_q_3_ask,50,338992,0.0-18.0-1.0,,3481.6,run_exp/static/audio/clip_17_q3_ask.m4a,,,,,,1,,,,,,,,,,,,,,,,,,
quiz_q_3_fb_correct,51,342988,0.0-19.0-0.0,,null,run_exp/static/audio/clip_18_q3_correct.m4a,null,<p> That’s correct. You press the letter L to travel to a new planet.</p>,,,,,,,,,,,,,,,,,,,,,,
quiz_q_4_ask,52,345749,0.0-19.0-1.0,,2754.6,run_exp/static/audio/clip_20_q4_ask.m4a,,,,,,0,,,,,,,,,,,,,,,,,,
quiz_q_4_fb_correct,53,351088,0.0-20.0-0.0,,null,run_exp/static/audio/clip_21_q4_correct.m4a,null,<p> That’s correct. The more you dig on a planet the fewer gems you’ll get with each dig. </p>,,,,,,,,,,,,,,,,,,,,,,
quiz_q_5_ask,54,353672,0.0-20.0-1.0,,2579.3,run_exp/static/audio/clip_23_q5_ask.m4a,,,,,,1,,,,,,,,,,,,,,,,,,
quiz_q_5_fb_correct,55,358707,0.0-21.0-0.0,,null,run_exp/static/audio/clip_24_q5_correct.m4a,null,<p> That’s correct. The alien tells you nothing about how much treasure is on the planet.</p>,,,,,,,,,,,,,,,,,,,,,,
quiz_correct,56,362168,0.0-22.0-0.0,,null,run_exp/static/audio/clip_26_correct_quiz.m4a,null,,,,,,,,,,,,,,,,,,,,,,,
quiz_correct_continue,57,364215,0.0-22.0-1.0,,2044.6,<p>Good job! You're now ready to move on to the real game!</p>,,,,,,0,,,,,,,,,,,,,,,,,,
audio-keyboard-response,58,374346,0.0-22.0-2.0,,null,run_exp/static/audio/clip_28_real_game.m4a,null,,,,,,,,,,,,,,,,,,,,,,,
instruc_begin_exp_contine,59,376582,0.0-22.0-3.0,,2231.5,"<p>Now that you know how  to dig for space treasure and travel to new planets,you can start exploring! </p><p>Do you want to go over the instructions again or get started with the real game?</p>",,,,,,1,,,,,,1,,,,,,,,,,,,
alien_welcome,60,381603,0.0-23.0-0.0,,null,run_exp/static/images/task_images/aliens/old_aliens/planet/alien_planet-50.jpg,null,,,,,,,,,,,,50,"50,72,43,41,64,75,22,31,53,7,73,12,68,18,51,37,14,69,11,44,2,8,34,40,39,70,28,38,5,77,62,56,60,32,45,49,29,24",,,,,,,,,,
land,61,382123,0.0-23.0-1.0,,null,run_exp/static/images/task_images/land.jpg,null,,,,,,98,,,1,,,,,,,,,,,,,,
dig,62,384133,0.0-23.0-2.0,,,,,,,,,,,"[{""stimulus"":""run_exp/static/images/task_images/dig.jpg"",""time"":0.5},{""stimulus"":""run_exp/static/images/task_images/land.jpg"",""time"":682},{""stimulus"":""run_exp/static/images/task_images/dig.jpg"",""time"":1348.800000011921}]",[],1,,,,,,,,,,,,,,
harvest,63,385142,0.0-23.0-3.0,,null,run_exp/static/images/task_images/gems/98.jpg,null,,,,,,24,,,1,,,,,98,0.24286469,0.244897959,,,,,,,
decision,64,386673,0.0-23.0-4.0,,1527.8,run_exp/static/images/task_images/land.jpg,65,,,,,,24,,,1,,,,,,,,10089,1,0,FALSE,,,
dig,65,388174,0.0-24.0-0.0,,,,,,,,,,,"[{""stimulus"":""run_exp/static/images/task_images/dig.jpg"",""time"":0.3999999761581421},{""stimulus"":""run_exp/static/images/task_images/land.jpg"",""time"":503.89999997615814},{""stimulus"":""run_exp/static/images/task_images/dig.jpg"",""time"":984.6999999880791}]",[],1,,,,,,,,,,,,,,
harvest,66,389183,0.0-24.0-1.0,,null,run_exp/static/images/task_images/gems/24.jpg,null,,,,,,4,,,1,,,,,24,0.151664378,0.166666667,,,,,,,
decision,67,389960,0.0-24.0-2.0,,774.8,run_exp/static/images/task_images/land.jpg,65,,,,,,4,,,1,,,,,,,,13375,1,1,FALSE,,,
dig,68,392213,0.0-25.0-0.0,,,,,,,,,,,"[{""stimulus"":""run_exp/static/images/task_images/dig.jpg"",""time"":0.30000001192092896},{""stimulus"":""run_exp/static/images/task_images/land.jpg"",""time"":752.8999999761581},{""stimulus"":""run_exp/static/images/task_images/dig.jpg"",""time"":1484.800000011921}]",[],1,,,,,,,,,,,,,,
harvest,69,393223,0.0-25.0-1.0,,null,run_exp/static/images/task_images/gems/4.jpg,null,,,,,,1,,,1,,,,,4,0.223990273,0.25,,,,,,,
decision,70,395000,0.0-25.0-2.0,,1768.5,run_exp/static/images/task_images/land.jpg,65,,,,,,1,,,1,,,,,,,,18415,1,2,FALSE,,,
dig,71,396245,0.0-26.0-0.0,,,,,,,,,,,"[{""stimulus"":""run_exp/static/images/task_images/dig.jpg"",""time"":0.5},{""stimulus"":""run_exp/static/images/task_images/land.jpg"",""time"":420.80000001192093},{""stimulus"":""run_exp/static/images/task_images/dig.jpg"",""time"":828.6999999880791}]",[],1,,,,,,,,,,,,,,
harvest,72,397267,0.0-26.0-1.0,,null,run_exp/static/images/task_images/gems/1.jpg,null,,,,,,0,,,1,,,,,1,0.165894622,0,,,,,,,
decision,73,398900,0.0-26.0-2.0,,1627.4,run_exp/static/images/task_images/land.jpg,65,,,,,,0,,,1,,,,,,,,22315,1,3,FALSE,,,
dig,74,400298,0.0-27.0-0.0,,,,,,,,,,,"[{""stimulus"":""run_exp/static/images/task_images/dig.jpg"",""time"":0.800000011920929},{""stimulus"":""run_exp/static/images/task_images/land.jpg"",""time"":465.69999998807907},{""stimulus"":""run_exp/static/images/task_images/dig.jpg"",""time"":921.6000000238419}]",[],1,,,,,,,,,,,,,,
harvest,75,401304,0.0-27.0-1.0,,null,run_exp/static/images/task_images/gems/0.jpg,null,,,,,,0,,,1,,,,,0,0.266440496,NaN,,,,,,,
decision,76,402507,0.0-27.0-2.0,,1199.2,run_exp/static/images/task_images/land.jpg,76,,,,,,0,,,1,,,,,,,,25922,1,4,TRUE,,,
travel,77,411323,0.0-28.0-0.0,,,,,,,,,,,"[{""stimulus"":""run_exp/static/images/task_images/rocket-01.jpg"",""time"":0.7000000476837158},{""stimulus"":""run_exp/static/images/task_images/rocket-02.jpg"",""time"":985.5},{""stimulus"":""run_exp/static/images/task_images/rocket-03.jpg"",""time"":1964.9000000357628},{""stimulus"":""run_exp/static/images/task_images/rocket-04.jpg"",""time"":2935.600000023842},{""stimulus"":""run_exp/static/images/task_images/rocket-05.jpg"",""time"":3915.100000023842},{""stimulus"":""run_exp/static/images/task_images/rocket-06.jpg"",""time"":4889.900000035763},{""stimulus"":""run_exp/static/images/task_images/rocket-07.jpg"",""time"":5886.600000023842},{""stimulus"":""run_exp/static/images/task_images/rocket-08.jpg"",""time"":6845.900000035763},{""stimulus"":""run_exp/static/images/task_images/rocket-09.jpg"",""time"":7825}]",[],1,,,,,,,,,,,,,,
alien_welcome,78,416334,0.0-28.0-1.0,,null,run_exp/static/images/task_images/aliens/old_aliens/planet/alien_planet-72.jpg,null,,,,,,,,,,,,72,"50,72,43,41,64,75,22,31,53,7,73,12,68,18,51,37,14,69,11,44,2,8,34,40,39,70,28,38,5,77,62,56,60,32,45,49,29,24",,,,,,,,,,
land,79,416853,0.0-28.0-2.0,,null,run_exp/static/images/task_images/land.jpg,null,,,,,,104,,,2,,,,,,,,,,,,,,
dig,80,418877,0.0-28.0-3.0,,,,,,,,,,,"[{""stimulus"":""run_exp/static/images/task_images/dig.jpg"",""time"":0.5999999642372131},{""stimulus"":""run_exp/static/images/task_images/land.jpg"",""time"":670.3000000119209},{""stimulus"":""run_exp/static/images/task_images/dig.jpg"",""time"":1337.300000011921}]",[],2,,,,,,,,,,,,,,
harvest,81,419884,0.0-28.0-4.0,,null,run_exp/static/images/task_images/gems/104.jpg,null,,,,,,21,,,2,,,,,104,0.203454266,0.201923077,,,,,,,
decision,82,420716,0.0-28.0-5.0,,827.3,run_exp/static/images/task_images/land.jpg,65,,,,,,21,,,2,,,,,,,,44132,1,0,FALSE,,,
dig,83,422914,0.0-29.0-0.0,,,,,,,,,,,"[{""stimulus"":""run_exp/static/images/task_images/dig.jpg"",""time"":0.699999988079071},{""stimulus"":""run_exp/static/images/task_images/land.jpg"",""time"":734.8000000119209},{""stimulus"":""run_exp/static/images/task_images/dig.jpg"",""time"":1451.6000000238419}]",[],2,,,,,,,,,,,,,,
harvest,84,423928,0.0-29.0-1.0,,null,run_exp/static/images/task_images/gems/21.jpg,null,,,,,,4,,,2,,,,,21,0.168408925,0.19047619,,,,,,,
decision,85,424527,0.0-29.0-2.0,,597.1,run_exp/static/images/task_images/land.jpg,65,,,,,,4,,,2,,,,,,,,47942,1,1,FALSE,,,
dig,86,426954,0.0-30.0-0.0,,,,,,,,,,,"[{""stimulus"":""run_exp/static/images/task_images/dig.jpg"",""time"":0.6000000238418579},{""stimulus"":""run_exp/static/images/task_images/land.jpg"",""time"":808.1000000238419},{""stimulus"":""run_exp/static/images/task_images/dig.jpg"",""time"":1612.9000000357628}]",[],2,,,,,,,,,,,,,,
harvest,87,427972,0.0-30.0-1.0,,null,run_exp/static/images/task_images/gems/4.jpg,null,,,,,,1,,,2,,,,,4,0.147305449,0.25,,,,,,,
decision,88,429211,0.0-30.0-2.0,,1231.6,run_exp/static/images/task_images/land.jpg,65,,,,,,1,,,2,,,,,,,,52626,1,2,FALSE,,,
dig,89,431024,0.0-31.0-0.0,,,,,,,,,,,"[{""stimulus"":""run_exp/static/images/task_images/dig.jpg"",""time"":0.699999988079071},{""stimulus"":""run_exp/static/images/task_images/land.jpg"",""time"":595.8000000119209},{""stimulus"":""run_exp/static/images/task_images/dig.jpg"",""time"":1192.699999988079}]",[],2,,,,,,,,,,,,,,
harvest,90,432037,0.0-31.0-1.0,,null,run_exp/static/images/task_images/gems/1.jpg,null,,,,,,0,,,2,,,,,1,0.187159986,0,,,,,,,
decision,91,433581,0.0-31.0-2.0,,1538.5,run_exp/static/images/task_images/land.jpg,65,,,,,,0,,,2,,,,,,,,56996,1,3,FALSE,,,
dig,92,435063,0.0-32.0-0.0,,,,,,,,,,,"[{""stimulus"":""run_exp/static/images/task_images/dig.jpg"",""time"":0.3999999761581421},{""stimulus"":""run_exp/static/images/task_images/land.jpg"",""time"":498.19999998807907},{""stimulus"":""run_exp/static/images/task_images/dig.jpg"",""time"":978.1999999880791}]",[],2,,,,,,,,,,,,,,
harvest,93,436073,0.0-32.0-1.0,,null,run_exp/static/images/task_images/gems/0.jpg,null,,,,,,0,,,2,,,,,0,0.31364667,NaN,,,,,,,
decision,94,437540,0.0-32.0-2.0,,1463.4,run_exp/static/images/task_images/land.jpg,65,,,,,,0,,,2,,,,,,,,60955,1,4,FALSE,,,
dig,95,439103,0.0-33.0-0.0,,,,,,,,,,,"[{""stimulus"":""run_exp/static/images/task_images/dig.jpg"",""time"":0.5},{""stimulus"":""run_exp/static/images/task_images/land.jpg"",""time"":529.4000000357628},{""stimulus"":""run_exp/static/images/task_images/dig.jpg"",""time"":1039}]",[],2,,,,,,,,,,,,,,
harvest,96,440113,0.0-33.0-1.0,,null,run_exp/static/images/task_images/gems/0.jpg,null,,,,,,0,,,2,,,,,0,0.241808882,NaN,,,,,,,
decision,97,440314,0.0-33.0-2.0,,196.6,run_exp/static/images/task_images/land.jpg,76,,,,,,0,,,2,,,,,,,,63729,1,5,TRUE,,,
travel,98,450144,0.0-34.0-0.0,,,,,,,,,,,"[{""stimulus"":""run_exp/static/images/task_images/rocket-01.jpg"",""time"":0.5999999642372131},{""stimulus"":""run_exp/static/images/task_images/rocket-02.jpg"",""time"":1097.8999999761581},{""stimulus"":""run_exp/static/images/task_images/rocket-03.jpg"",""time"":2203.099999964237},{""stimulus"":""run_exp/static/images/task_images/rocket-04.jpg"",""time"":3279.599999964237},{""stimulus"":""run_exp/static/images/task_images/rocket-05.jpg"",""time"":4370},{""stimulus"":""run_exp/static/images/task_images/rocket-06.jpg"",""time"":5460.899999976158},{""stimulus"":""run_exp/static/images/task_images/rocket-07.jpg"",""time"":6539.599999964237},{""stimulus"":""run_exp/static/images/task_images/rocket-08.jpg"",""time"":7639.5},{""stimulus"":""run_exp/static/images/task_images/rocket-09.jpg"",""time"":8719.299999952316}]",[],2,,,,,,,,,,,,,,
alien_welcome,99,455166,0.0-34.0-1.0,,null,run_exp/static/images/task_images/aliens/old_aliens/planet/alien_planet-43.jpg,null,,,,,,,,,,,,43,"50,72,43,41,64,75,22,31,53,7,73,12,68,18,51,37,14,69,11,44,2,8,34,40,39,70,28,38,5,77,62,56,60,32,45,49,29,24",,,,,,,,,,
land,100,455683,0.0-34.0-2.0,,null,run_exp/static/images/task_images/land.jpg,null,,,,,,97,,,3,,,,,,,,,,,,,,
dig,101,457702,0.0-34.0-3.0,,,,,,,,,,,"[{""stimulus"":""run_exp/static/images/task_images/dig.jpg"",""time"":0.5999999642372131},{""stimulus"":""run_exp/static/images/task_images/land.jpg"",""time"":676},{""stimulus"":""run_exp/static/images/task_images/dig.jpg"",""time"":1339.800000011921}]",[],3,,,,,,,,,,,,,,
harvest,102,458725,0.0-34.0-4.0,,null,run_exp/static/images/task_images/gems/97.jpg,null,,,,,,52,,,3,,,,,97,0.536125332,0.536082474,,,,,,,
decision,103,459326,0.0-34.0-5.0,,598.4,run_exp/static/images/task_images/land.jpg,65,,,,,,52,,,3,,,,,,,,82741,1,0,FALSE,,,
dig,104,461753,0.0-35.0-0.0,,,,,,,,,,,"[{""stimulus"":""run_exp/static/images/task_images/dig.jpg"",""time"":0.40000003576278687},{""stimulus"":""run_exp/static/images/task_images/land.jpg"",""time"":835.5},{""stimulus"":""run_exp/static/images/task_images/dig.jpg"",""time"":1612}]",[],3,,,,,,,,,,,,,,
harvest,105,462771,0.0-35.0-1.0,,null,run_exp/static/images/task_images/gems/52.jpg,null,,,,,,26,,,3,,,,,52,0.50419727,0.5,,,,,,,
decision,106,463329,0.0-35.0-2.0,,553.2,run_exp/static/images/task_images/land.jpg,65,,,,,,26,,,3,,,,,,,,86744,1,1,FALSE,,,
dig,107,465794,0.0-36.0-0.0,,,,,,,,,,,"[{""stimulus"":""run_exp/static/images/task_images/dig.jpg"",""time"":0.5},{""stimulus"":""run_exp/static/images/task_images/land.jpg"",""time"":825.6999999880791},{""stimulus"":""run_exp/static/images/task_images/dig.jpg"",""time"":1635.5}]",[],3,,,,,,,,,,,,,,
harvest,108,466806,0.0-36.0-1.0,,null,run_exp/static/images/task_images/gems/26.jpg,null,,,,,,13,,,3,,,,,26,0.503992129,0.5,,,,,,,
decision,109,467391,0.0-36.0-2.0,,581.1,run_exp/static/images/task_images/land.jpg,65,,,,,,13,,,3,,,,,,,,90806,1,2,FALSE,,,
dig,110,469834,0.0-37.0-0.0,,,,,,,,,,,"[{""stimulus"":""run_exp/static/images/task_images/dig.jpg"",""time"":0.5},{""stimulus"":""run_exp/static/images/task_images/land.jpg"",""time"":822.5},{""stimulus"":""run_exp/static/images/task_images/dig.jpg"",""time"":1622.699999988079}]",[],3,,,,,,,,,,,,,,
harvest,111,470836,0.0-37.0-1.0,,null,run_exp/static/images/task_images/gems/13.jpg,null,,,,,,7,,,3,,,,,13,0.503734785,0.538461538,,,,,,,
decision,112,471291,0.0-37.0-2.0,,451.9,run_exp/static/images/task_images/land.jpg,65,,,,,,7,,,3,,,,,,,,94706,1,3,FALSE,,,
dig,113,473853,0.0-38.0-0.0,,,,,,,,,,,"[{""stimulus"":""run_exp/static/images/task_images/dig.jpg"",""time"":0.30000001192092896},{""stimulus"":""run_exp/static/images/task_images/land.jpg"",""time"":868},{""stimulus"":""run_exp/static/images/task_images/dig.jpg"",""time"":1708.6000000238419}]",[],3,,,,,,,,,,,,,,
harvest,114,474862,0.0-38.0-1.0,,null,run_exp/static/images/task_images/gems/7.jpg,null,,,,,,4,,,3,,,,,7,0.533689575,0.571428571,,,,,,,
decision,115,475129,0.0-38.0-2.0,,264.8,run_exp/static/images/task_images/land.jpg,65,,,,,,4,,,3,,,,,,,,98544,1,4,FALSE,,,
dig,116,477884,0.0-39.0-0.0,,,,,,,,,,,"[{""stimulus"":""run_exp/static/images/task_images/dig.jpg"",""time"":0.5999999642372131},{""stimulus"":""run_exp/static/images/task_images/land.jpg"",""time"":923.6999999880791},{""stimulus"":""run_exp/static/images/task_images/dig.jpg"",""time"":1834.199999988079}]",[],3,,,,,,,,,,,,,,
harvest,117,478893,0.0-39.0-1.0,,null,run_exp/static/images/task_images/gems/4.jpg,null,,,,,,2,,,3,,,,,4,0.480683368,0.5,,,,,,,
decision,118,479077,0.0-39.0-2.0,,179.7,run_exp/static/images/task_images/land.jpg,65,,,,,,2,,,3,,,,,,,,102492,1,5,FALSE,,,
dig,119,481933,0.0-40.0-0.0,,,,,,,,,,,"[{""stimulus"":""run_exp/static/images/task_images/dig.jpg"",""time"":0.40000003576278687},{""stimulus"":""run_exp/static/images/task_images/land.jpg"",""time"":954.3000000119209},{""stimulus"":""run_exp/static/images/task_images/dig.jpg"",""time"":1895}]",[],3,,,,,,,,,,,,,,
harvest,120,482937,0.0-40.0-1.0,,null,run_exp/static/images/task_images/gems/2.jpg,null,,,,,,1,,,3,,,,,2,0.470716719,0.5,,,,,,,
decision,121,483531,0.0-40.0-2.0,,591.3,run_exp/static/images/task_images/land.jpg,65,,,,,,1,,,3,,,,,,,,106947,1,6,FALSE,,,
dig,122,485974,0.0-41.0-0.0,,,,,,,,,,,"[{""stimulus"":""run_exp/static/images/task_images/dig.jpg"",""time"":0.5},{""stimulus"":""run_exp/static/images/task_images/land.jpg"",""time"":822.3000000119209},{""stimulus"":""run_exp/static/images/task_images/dig.jpg"",""time"":1622.4000000357628}]",[],3,,,,,,,,,,,,,,
harvest,123,486985,0.0-41.0-1.0,,null,run_exp/static/images/task_images/gems/1.jpg,null,,,,,,0,,,3,,,,,1,0.44524923,0,,,,,,,
decision,124,487642,0.0-41.0-2.0,,654,run_exp/static/images/task_images/land.jpg,65,,,,,,0,,,3,,,,,,,,111057,1,7,FALSE,,,
dig,125,490013,0.0-42.0-0.0,,,,,,,,,,,"[{""stimulus"":""run_exp/static/images/task_images/dig.jpg"",""time"":0.40000003576278687},{""stimulus"":""run_exp/static/images/task_images/land.jpg"",""time"":791.9000000357628},{""stimulus"":""run_exp/static/images/task_images/dig.jpg"",""time"":1582}]",[],3,,,,,,,,,,,,,,
harvest,126,491038,0.0-42.0-1.0,,null,run_exp/static/images/task_images/gems/0.jpg,null,,,,,,0,,,3,,,,,0,0.531756832,NaN,,,,,,,
decision,127,492142,0.0-42.0-2.0,,1101,run_exp/static/images/task_images/land.jpg,76,,,,,,0,,,3,,,,,,,,115558,1,8,TRUE,,,
travel,128,501063,0.0-43.0-0.0,,,,,,,,,,,"[{""stimulus"":""run_exp/static/images/task_images/rocket-01.jpg"",""time"":0.5},{""stimulus"":""run_exp/static/images/task_images/rocket-02.jpg"",""time"":1007.8000000119209},{""stimulus"":""run_exp/static/images/task_images/rocket-03.jpg"",""time"":1987.9000000357628},{""stimulus"":""run_exp/static/images/task_images/rocket-04.jpg"",""time"":2967.900000035763},{""stimulus"":""run_exp/static/images/task_images/rocket-05.jpg"",""time"":3967.800000011921},{""stimulus"":""run_exp/static/images/task_images/rocket-06.jpg"",""time"":4960.700000047684},{""stimulus"":""run_exp/static/images/task_images/rocket-07.jpg"",""time"":5937.800000011921},{""stimulus"":""run_exp/static/images/task_images/rocket-08.jpg"",""time"":6937.700000047684},{""stimulus"":""run_exp/static/images/task_images/rocket-09.jpg"",""time"":7907.600000023842}]",[],3,,,,,,,,,,,,,,
alien_welcome,129,506077,0.0-43.0-1.0,,null,run_exp/static/images/task_images/aliens/old_aliens/planet/alien_planet-41.jpg,null,,,,,,,,,,,,41,"50,72,43,41,64,75,22,31,53,7,73,12,68,18,51,37,14,69,11,44,2,8,34,40,39,70,28,38,5,77,62,56,60,32,45,49,29,24",,,,,,,,,,
land,130,506596,0.0-43.0-2.0,,null,run_exp/static/images/task_images/land.jpg,null,,,,,,105,,,4,,,,,,,,,,,,,,
dig,131,508613,0.0-43.0-3.0,,,,,,,,,,,"[{""stimulus"":""run_exp/static/images/task_images/dig.jpg"",""time"":0.5},{""stimulus"":""run_exp/static/images/task_images/land.jpg"",""time"":691.1999999880791},{""stimulus"":""run_exp/static/images/task_images/dig.jpg"",""time"":1343}]",[],4,,,,,,,,,,,,,,
harvest,132,509628,0.0-43.0-4.0,,null,run_exp/static/images/task_images/gems/105.jpg,null,,,,,,60,,,4,,,,,105,0.570195856,0.571428571,,,,,,,
decision,133,510065,0.0-43.0-5.0,,433.5,run_exp/static/images/task_images/land.jpg,65,,,,,,60,,,4,,,,,,,,133480,1,0,FALSE,,,
dig,134,512653,0.0-44.0-0.0,,,,,,,,,,,"[{""stimulus"":""run_exp/static/images/task_images/dig.jpg"",""time"":0.699999988079071},{""stimulus"":""run_exp/static/images/task_images/land.jpg"",""time"":870},{""stimulus"":""run_exp/static/images/task_images/dig.jpg"",""time"":1727.8999999761581}]",[],4,,,,,,,,,,,,,,
harvest,135,513657,0.0-44.0-1.0,,null,run_exp/static/images/task_images/gems/60.jpg,null,,,,,,24,,,4,,,,,60,0.393111568,0.4,,,,,,,
decision,136,514540,0.0-44.0-2.0,,881.4,run_exp/static/images/task_images/land.jpg,65,,,,,,24,,,4,,,,,,,,137956,1,1,FALSE,,,
dig,137,516683,0.0-45.0-0.0,,,,,,,,,,,"[{""stimulus"":""run_exp/static/images/task_images/dig.jpg"",""time"":0.6000000238418579},{""stimulus"":""run_exp/static/images/task_images/land.jpg"",""time"":712},{""stimulus"":""run_exp/static/images/task_images/dig.jpg"",""time"":1417}]",[],4,,,,,,,,,,,,,,
harvest,138,517702,0.0-45.0-1.0,,null,run_exp/static/images/task_images/gems/24.jpg,null,,,,,,12,,,4,,,,,24,0.49680767,0.5,,,,,,,
decision,139,517956,0.0-45.0-2.0,,248.2,run_exp/static/images/task_images/land.jpg,65,,,,,,12,,,4,,,,,,,,141371,1,2,FALSE,,,
dig,140,520723,0.0-46.0-0.0,,,,,,,,,,,"[{""stimulus"":""run_exp/static/images/task_images/dig.jpg"",""time"":0.40000003576278687},{""stimulus"":""run_exp/static/images/task_images/land.jpg"",""time"":924.2000000476837},{""stimulus"":""run_exp/static/images/task_images/dig.jpg"",""time"":1838.2000000476837}]",[],4,,,,,,,,,,,,,,
harvest,141,521734,0.0-46.0-1.0,,null,run_exp/static/images/task_images/gems/12.jpg,null,,,,,,4,,,4,,,,,12,0.37040347,0.333333333,,,,,,,
decision,142,522009,0.0-46.0-2.0,,273.7,run_exp/static/images/task_images/land.jpg,65,,,,,,4,,,4,,,,,,,,145424,1,3,FALSE,,,
dig,143,524744,0.0-47.0-0.0,,,,,,,,,,,"[{""stimulus"":""run_exp/static/images/task_images/dig.jpg"",""time"":0.20000004768371582},{""stimulus"":""run_exp/static/images/task_images/land.jpg"",""time"":927.7000000476837},{""stimulus"":""run_exp/static/images/task_images/dig.jpg"",""time"":1827.800000011921}]",[],4,,,,,,,,,,,,,,
harvest,144,525754,0.0-47.0-1.0,,null,run_exp/static/images/task_images/gems/4.jpg,null,,,,,,2,,,4,,,,,4,0.551740003,0.5,,,,,,,
decision,145,525921,0.0-47.0-2.0,,164.6,run_exp/static/images/task_images/land.jpg,65,,,,,,2,,,4,,,,,,,,149336,1,4,FALSE,,,
dig,146,528772,0.0-48.0-0.0,,,,,,,,,,,"[{""stimulus"":""run_exp/static/images/task_images/dig.jpg"",""time"":0.800000011920929},{""stimulus"":""run_exp/static/images/task_images/land.jpg"",""time"":949.3000000119209},{""stimulus"":""run_exp/static/images/task_images/dig.jpg"",""time"":1904.4000000357628}]",[],4,,,,,,,,,,,,,,
harvest,147,529786,0.0-48.0-1.0,,null,run_exp/static/images/task_images/gems/2.jpg,null,,,,,,1,,,4,,,,,2,0.490696264,0.5,,,,,,,
decision,148,530296,0.0-48.0-2.0,,507.8,run_exp/static/images/task_images/land.jpg,65,,,,,,1,,,4,,,,,,,,153712,1,5,FALSE,,,
dig,149,532813,0.0-49.0-0.0,,,,,,,,,,,"[{""stimulus"":""run_exp/static/images/task_images/dig.jpg"",""time"":0.5},{""stimulus"":""run_exp/static/images/task_images/land.jpg"",""time"":836.8999999761581},{""stimulus"":""run_exp/static/images/task_images/dig.jpg"",""time"":1687.699999988079}]",[],4,,,,,,,,,,,,,,
harvest,150,533817,0.0-49.0-1.0,,null,run_exp/static/images/task_images/gems/1.jpg,null,,,,,,0,,,4,,,,,1,0.498236194,0,,,,,,,
decision,151,535319,0.0-49.0-2.0,,1499.6,run_exp/static/images/task_images/land.jpg,76,,,,,,0,,,4,,,,,,,,158734,1,6,TRUE,,,
travel,152,543833,0.0-50.0-0.0,,,,,,,,,,,"[{""stimulus"":""run_exp/static/images/task_images/rocket-01.jpg"",""time"":0.3999999761581421},{""stimulus"":""run_exp/static/images/task_images/rocket-02.jpg"",""time"":954.3999999761581},{""stimulus"":""run_exp/static/images/task_images/rocket-03.jpg"",""time"":1894.699999988079},{""stimulus"":""run_exp/static/images/task_images/rocket-04.jpg"",""time"":2840},{""stimulus"":""run_exp/static/images/task_images/rocket-05.jpg"",""time"":3794.800000011921},{""stimulus"":""run_exp/static/images/task_images/rocket-06.jpg"",""time"":4744.300000011921},{""stimulus"":""run_exp/static/images/task_images/rocket-07.jpg"",""time"":5678.699999988079},{""stimulus"":""run_exp/static/images/task_images/rocket-08.jpg"",""time"":6624.300000011921},{""stimulus"":""run_exp/static/images/task_images/rocket-09.jpg"",""time"":7564.800000011921}]",[],4,,,,,,,,,,,,,,
alien_welcome,153,548843,0.0-50.0-1.0,,null,run_exp/static/images/task_images/aliens/old_aliens/planet/alien_planet-64.jpg,null,,,,,,,,,,,,64,"50,72,43,41,64,75,22,31,53,7,73,12,68,18,51,37,14,69,11,44,2,8,34,40,39,70,28,38,5,77,62,56,60,32,45,49,29,24",,,,,,,,,,
land,154,549347,0.0-50.0-2.0,,null,run_exp/static/images/task_images/land.jpg,null,,,,,,102,,,5,,,,,,,,,,,,,,
dig,155,551362,0.0-50.0-3.0,,,,,,,,,,,"[{""stimulus"":""run_exp/static/images/task_images/dig.jpg"",""time"":0.20000004768371582},{""stimulus"":""run_exp/static/images/task_images/land.jpg"",""time"":673.2000000476837},{""stimulus"":""run_exp/static/images/task_images/dig.jpg"",""time"":1348}]",[],5,,,,,,,,,,,,,,
harvest,156,552372,0.0-50.0-4.0,,null,run_exp/static/images/task_images/gems/102.jpg,null,,,,,,47,,,5,,,,,102,0.460676657,0.460784314,,,,,,,
decision,157,553056,0.0-50.0-5.0,,680.6,run_exp/static/images/task_images/land.jpg,65,,,,,,47,,,5,,,,,,,,176471,1,0,FALSE,,,
dig,158,555394,0.0-51.0-0.0,,,,,,,,,,,"[{""stimulus"":""run_exp/static/images/task_images/dig.jpg"",""time"":0.5},{""stimulus"":""run_exp/static/images/task_images/land.jpg"",""time"":780.5999999642372},{""stimulus"":""run_exp/static/images/task_images/dig.jpg"",""time"":1568.5}]",[],5,,,,,,,,,,,,,,
harvest,159,556402,0.0-51.0-1.0,,null,run_exp/static/images/task_images/gems/47.jpg,null,,,,,,25,,,5,,,,,47,0.527068721,0.531914894,,,,,,,
decision,160,556885,0.0-51.0-2.0,,480.8,run_exp/static/images/task_images/land.jpg,65,,,,,,25,,,5,,,,,,,,180300,1,1,FALSE,,,
dig,161,559426,0.0-52.0-0.0,,,,,,,,,,,"[{""stimulus"":""run_exp/static/images/task_images/dig.jpg"",""time"":0.6000000238418579},{""stimulus"":""run_exp/static/images/task_images/land.jpg"",""time"":847.6000000238419},{""stimulus"":""run_exp/static/images/task_images/dig.jpg"",""time"":1699.699999988079}]",[],5,,,,,,,,,,,,,,
harvest,162,560430,0.0-52.0-1.0,,null,run_exp/static/images/task_images/gems/25.jpg,null,,,,,,11,,,5,,,,,25,0.449134228,0.44,,,,,,,
decision,163,560950,0.0-52.0-2.0,,514.2,run_exp/static/images/task_images/land.jpg,65,,,,,,11,,,5,,,,,,,,184365,1,2,FALSE,,,
dig,164,563448,0.0-53.0-0.0,,,,,,,,,,,"[{""stimulus"":""run_exp/static/images/task_images/dig.jpg"",""time"":0.30000001192092896},{""stimulus"":""run_exp/static/images/task_images/land.jpg"",""time"":833.4000000357628},{""stimulus"":""run_exp/static/images/task_images/dig.jpg"",""time"":1668.300000011921}]",[],5,,,,,,,,,,,,,,
harvest,165,564457,0.0-53.0-1.0,,null,run_exp/static/images/task_images/gems/11.jpg,null,,,,,,5,,,5,,,,,11,0.455471811,0.454545455,,,,,,,
decision,166,565398,0.0-53.0-2.0,,938.1,run_exp/static/images/task_images/land.jpg,76,,,,,,5,,,5,,,,,,,,188813,1,3,TRUE,,,
travel,167,574463,0.0-54.0-0.0,,,,,,,,,,,"[{""stimulus"":""run_exp/static/images/task_images/rocket-01.jpg"",""time"":0.30000001192092896},{""stimulus"":""run_exp/static/images/task_images/rocket-02.jpg"",""time"":1018.4000000357628},{""stimulus"":""run_exp/static/images/task_images/rocket-03.jpg"",""time"":2017.800000011921},{""stimulus"":""run_exp/static/images/task_images/rocket-04.jpg"",""time"":3027.900000035763},{""stimulus"":""run_exp/static/images/task_images/rocket-05.jpg"",""time"":4033.2000000476837},{""stimulus"":""run_exp/static/images/task_images/rocket-06.jpg"",""time"":5048.900000035763},{""stimulus"":""run_exp/static/images/task_images/rocket-07.jpg"",""time"":6057.700000047684},{""stimulus"":""run_exp/static/images/task_images/rocket-08.jpg"",""time"":7057.900000035763},{""stimulus"":""run_exp/static/images/task_images/rocket-09.jpg"",""time"":8056.900000035763}]",[],5,,,,,,,,,,,,,,
alien_welcome,168,579477,0.0-54.0-1.0,,null,run_exp/static/images/task_images/aliens/old_aliens/planet/alien_planet-75.jpg,null,,,,,,,,,,,,75,"50,72,43,41,64,75,22,31,53,7,73,12,68,18,51,37,14,69,11,44,2,8,34,40,39,70,28,38,5,77,62,56,60,32,45,49,29,24",,,,,,,,,,
land,169,579986,0.0-54.0-2.0,,null,run_exp/static/images/task_images/land.jpg,null,,,,,,103,,,6,,,,,,,,,,,,,,
dig,170,582010,0.0-54.0-3.0,,,,,,,,,,,"[{""stimulus"":""run_exp/static/images/task_images/dig.jpg"",""time"":0.7000000476837158},{""stimulus"":""run_exp/static/images/task_images/land.jpg"",""time"":681.3000000119209},{""stimulus"":""run_exp/static/images/task_images/dig.jpg"",""time"":1344.9000000357628}]",[],6,,,,,,,,,,,,,,
harvest,171,583030,0.0-54.0-4.0,,null,run_exp/static/images/task_images/gems/103.jpg,null,,,,,,85,,,6,,,,,103,0.820726631,0.825242718,,,,,,,
decision,172,583918,0.0-54.0-5.0,,885.3,run_exp/static/images/task_images/land.jpg,65,,,,,,85,,,6,,,,,,,,207334,1,0,FALSE,,,
dig,173,586054,0.0-55.0-0.0,,,,,,,,,,,"[{""stimulus"":""run_exp/static/images/task_images/dig.jpg"",""time"":0.5},{""stimulus"":""run_exp/static/images/task_images/land.jpg"",""time"":710.5},{""stimulus"":""run_exp/static/images/task_images/dig.jpg"",""time"":1420.800000011921}]",[],6,,,,,,,,,,,,,,
harvest,174,587073,0.0-55.0-1.0,,null,run_exp/static/images/task_images/gems/85.jpg,null,,,,,,60,,,6,,,,,85,0.709970101,0.705882353,,,,,,,
decision,175,587378,0.0-55.0-2.0,,301.8,run_exp/static/images/task_images/land.jpg,65,,,,,,60,,,6,,,,,,,,210793,1,1,FALSE,,,
dig,176,590093,0.0-56.0-0.0,,,,,,,,,,,"[{""stimulus"":""run_exp/static/images/task_images/dig.jpg"",""time"":0.30000001192092896},{""stimulus"":""run_exp/static/images/task_images/land.jpg"",""time"":916.8999999761581},{""stimulus"":""run_exp/static/images/task_images/dig.jpg"",""time"":1820.5}]",[],6,,,,,,,,,,,,,,
harvest,177,591111,0.0-56.0-1.0,,null,run_exp/static/images/task_images/gems/60.jpg,null,,,,,,48,,,6,,,,,60,0.796203765,0.8,,,,,,,
decision,178,591274,0.0-56.0-2.0,,159.9,run_exp/static/images/task_images/land.jpg,65,,,,,,48,,,6,,,,,,,,214689,1,2,FALSE,,,
dig,179,594134,0.0-57.0-0.0,,,,,,,,,,,"[{""stimulus"":""run_exp/static/images/task_images/dig.jpg"",""time"":0.20000004768371582},{""stimulus"":""run_exp/static/images/task_images/land.jpg"",""time"":965.5},{""stimulus"":""run_exp/static/images/task_images/dig.jpg"",""time"":1895.6000000238419}]",[],6,,,,,,,,,,,,,,
harvest,180,595139,0.0-57.0-1.0,,null,run_exp/static/images/task_images/gems/48.jpg,null,,,,,,36,,,6,,,,,48,0.748988335,0.75,,,,,,,
decision,181,595543,0.0-57.0-2.0,,402.2,run_exp/static/images/task_images/land.jpg,65,,,,,,36,,,6,,,,,,,,218958,1,3,FALSE,,,
dig,182,598153,0.0-58.0-0.0,,,,,,,,,,,"[{""stimulus"":""run_exp/static/images/task_images/dig.jpg"",""time"":0.6000000238418579},{""stimulus"":""run_exp/static/images/task_images/land.jpg"",""time"":870.1000000238419},{""stimulus"":""run_exp/static/images/task_images/dig.jpg"",""time"":1750.6000000238419}]",[],6,,,,,,,,,,,,,,
harvest,183,599156,0.0-58.0-1.0,,null,run_exp/static/images/task_images/gems/36.jpg,null,,,,,,24,,,6,,,,,36,0.666620728,0.666666667,,,,,,,
decision,184,599559,0.0-58.0-2.0,,401.2,run_exp/static/images/task_images/land.jpg,65,,,,,,24,,,6,,,,,,,,222974,1,4,FALSE,,,
dig,185,602183,0.0-59.0-0.0,,,,,,,,,,,"[{""stimulus"":""run_exp/static/images/task_images/dig.jpg"",""time"":0.6000000238418579},{""stimulus"":""run_exp/static/images/task_images/land.jpg"",""time"":884.3000000119209},{""stimulus"":""run_exp/static/images/task_images/dig.jpg"",""time"":1753.7000000476837}]",[],6,,,,,,,,,,,,,,
harvest,186,603187,0.0-59.0-1.0,,null,run_exp/static/images/task_images/gems/24.jpg,null,,,,,,20,,,6,,,,,24,0.82917482,0.833333333,,,,,,,
decision,187,603625,0.0-59.0-2.0,,435.3,run_exp/static/images/task_images/land.jpg,65,,,,,,20,,,6,,,,,,,,227040,1,5,FALSE,,,
dig,188,606214,0.0-60.0-0.0,,,,,,,,,,,"[{""stimulus"":""run_exp/static/images/task_images/dig.jpg"",""time"":0.9000000357627869},{""stimulus"":""run_exp/static/images/task_images/land.jpg"",""time"":868.9000000357628},{""stimulus"":""run_exp/static/images/task_images/dig.jpg"",""time"":1727.4000000357628}]",[],6,,,,,,,,,,,,,,
harvest,189,607221,0.0-60.0-1.0,,null,run_exp/static/images/task_images/gems/20.jpg,null,,,,,,16,,,6,,,,,20,0.813670873,0.8,,,,,,,
decision,190,607866,0.0-60.0-2.0,,642.7,run_exp/static/images/task_images/land.jpg,65,,,,,,16,,,6,,,,,,,,231281,1,6,FALSE,,,
dig,191,610234,0.0-61.0-0.0,,,,,,,,,,,"[{""stimulus"":""run_exp/static/images/task_images/dig.jpg"",""time"":0.5},{""stimulus"":""run_exp/static/images/task_images/land.jpg"",""time"":807.8000000119209},{""stimulus"":""run_exp/static/images/task_images/dig.jpg"",""time"":1597.4000000357628}]",[],6,,,,,,,,,,,,,,
harvest,192,611255,0.0-61.0-1.0,,null,run_exp/static/images/task_images/gems/16.jpg,null,,,,,,12,,,6,,,,,16,0.752890692,0.75,,,,,,,
decision,193,611723,0.0-61.0-2.0,,463.3,run_exp/static/images/task_images/land.jpg,76,,,,,,12,,,6,,,,,,,,235138,1,7,TRUE,,,
travel,194,621284,0.0-62.0-0.0,,,,,,,,,,,"[{""stimulus"":""run_exp/static/images/task_images/rocket-01.jpg"",""time"":0.699999988079071},{""stimulus"":""run_exp/static/images/task_images/rocket-02.jpg"",""time"":1067.300000011921},{""stimulus"":""run_exp/static/images/task_images/rocket-03.jpg"",""time"":2126.300000011921},{""stimulus"":""run_exp/static/images/task_images/rocket-04.jpg"",""time"":3196.800000011921},{""stimulus"":""run_exp/static/images/task_images/rocket-05.jpg"",""time"":4246.300000011921},{""stimulus"":""run_exp/static/images/task_images/rocket-06.jpg"",""time"":5311.800000011921},{""stimulus"":""run_exp/static/images/task_images/rocket-07.jpg"",""time"":6366.599999964237},{""stimulus"":""run_exp/static/images/task_images/rocket-08.jpg"",""time"":7437.099999964237},{""stimulus"":""run_exp/static/images/task_images/rocket-09.jpg"",""time"":8485.099999964237}]",[],6,,,,,,,,,,,,,,
alien_welcome,195,626297,0.0-62.0-1.0,,null,run_exp/static/images/task_images/aliens/old_aliens/planet/alien_planet-22.jpg,null,,,,,,,,,,,,22,"50,72,43,41,64,75,22,31,53,7,73,12,68,18,51,37,14,69,11,44,2,8,34,40,39,70,28,38,5,77,62,56,60,32,45,49,29,24",,,,,,,,,,
land,196,626817,0.0-62.0-2.0,,null,run_exp/static/images/task_images/land.jpg,null,,,,,,95,,,7,,,,,,,,,,,,,,
dig,197,628844,0.0-62.0-3.0,,,,,,,,,,,"[{""stimulus"":""run_exp/static/images/task_images/dig.jpg"",""time"":0.6000000238418579},{""stimulus"":""run_exp/static/images/task_images/land.jpg"",""time"":671.8000000119209},{""stimulus"":""run_exp/static/images/task_images/dig.jpg"",""time"":1338.9000000357628}]",[],7,,,,,,,,,,,,,,
harvest,198,629858,0.0-62.0-4.0,,null,run_exp/static/images/task_images/gems/95.jpg,null,,,,,,79,,,7,,,,,95,0.830272239,0.831578947,,,,,,,
decision,199,632873,0.0-62.0-5.0,,null,run_exp/static/images/task_images/land.jpg,null,,,,,,79,,,7,,,,,,,,256288,1,0,FALSE,,,
time_out,200,634893,0.0-63.0-0.0,,null,run_exp/static/images/task_images/time_out.jpg,null,,,,,,79,,,,,,,,,,,,,,,,,
decision,201,635011,0.0-63.0-1.0,,113.2,run_exp/static/images/task_images/land.jpg,65,,,,,,79,,,7,,,,,,,,258426,1,0,FALSE,,,
dig,202,637914,0.0-64.0-0.0,,,,,,,,,,,"[{""stimulus"":""run_exp/static/images/task_images/dig.jpg"",""time"":1},{""stimulus"":""run_exp/static/images/task_images/land.jpg"",""time"":965.7000000476837},{""stimulus"":""run_exp/static/images/task_images/dig.jpg"",""time"":1946.1000000238419}]",[],7,,,,,,,,,,,,,,
harvest,203,638923,0.0-64.0-1.0,,null,run_exp/static/images/task_images/gems/79.jpg,null,,,,,,64,,,7,,,,,79,0.811259919,0.810126582,,,,,,,
decision,204,639268,0.0-64.0-2.0,,342.8,run_exp/static/images/task_images/land.jpg,65,,,,,,64,,,7,,,,,,,,262684,1,1,FALSE,,,
dig,205,641954,0.0-65.0-0.0,,,,,,,,,,,"[{""stimulus"":""run_exp/static/images/task_images/dig.jpg"",""time"":0.9000000357627869},{""stimulus"":""run_exp/static/images/task_images/land.jpg"",""time"":903.4000000357628},{""stimulus"":""run_exp/static/images/task_images/dig.jpg"",""time"":1774.4000000357628}]",[],7,,,,,,,,,,,,,,
harvest,206,642961,0.0-65.0-1.0,,null,run_exp/static/images/task_images/gems/64.jpg,null,,,,,,47,,,7,,,,,64,0.733327559,0.734375,,,,,,,
decision,207,643281,0.0-65.0-2.0,,316.2,run_exp/static/images/task_images/land.jpg,65,,,,,,47,,,7,,,,,,,,266696,1,2,FALSE,,,
dig,208,645989,0.0-66.0-0.0,,,,,,,,,,,"[{""stimulus"":""run_exp/static/images/task_images/dig.jpg"",""time"":0.19999998807907104},{""stimulus"":""run_exp/static/images/task_images/land.jpg"",""time"":898.2999999523163},{""stimulus"":""run_exp/static/images/task_images/dig.jpg"",""time"":1798.0999999642372}]",[],7,,,,,,,,,,,,,,
harvest,209,647002,0.0-66.0-1.0,,null,run_exp/static/images/task_images/gems/47.jpg,null,,,,,,41,,,7,,,,,47,0.863320068,0.872340426,,,,,,,
decision,210,647180,0.0-66.0-2.0,,175.8,run_exp/static/images/task_images/land.jpg,65,,,,,,41,,,7,,,,,,,,270595,1,3,FALSE,,,
dig,211,650014,0.0-67.0-0.0,,,,,,,,,,,"[{""stimulus"":""run_exp/static/images/task_images/dig.jpg"",""time"":0.19999998807907104},{""stimulus"":""run_exp/static/images/task_images/land.jpg"",""time"":962.1999999880791},{""stimulus"":""run_exp/static/images/task_images/dig.jpg"",""time"":1888.3999999761581}]",[],7,,,,,,,,,,,,,,
harvest,212,651024,0.0-67.0-1.0,,null,run_exp/static/images/task_images/gems/41.jpg,null,,,,,,35,,,7,,,,,41,0.862172533,0.853658537,,,,,,,
decision,213,651250,0.0-67.0-2.0,,223,run_exp/static/images/task_images/land.jpg,65,,,,,,35,,,7,,,,,,,,274665,1,4,FALSE,,,
dig,214,654035,0.0-68.0-0.0,,,,,,,,,,,"[{""stimulus"":""run_exp/static/images/task_images/dig.jpg"",""time"":0.19999998807907104},{""stimulus"":""run_exp/static/images/task_images/land.jpg"",""time"":943.1000000238419},{""stimulus"":""run_exp/static/images/task_images/dig.jpg"",""time"":1869.5}]",[],7,,,,,,,,,,,,,,
harvest,215,655044,0.0-68.0-1.0,,null,run_exp/static/images/task_images/gems/35.jpg,null,,,,,,29,,,7,,,,,35,0.82160992,0.828571429,,,,,,,
decision,216,655490,0.0-68.0-2.0,,442.7,run_exp/static/images/task_images/land.jpg,65,,,,,,29,,,7,,,,,,,,278905,1,5,FALSE,,,
dig,217,658064,0.0-69.0-0.0,,,,,,,,,,,"[{""stimulus"":""run_exp/static/images/task_images/dig.jpg"",""time"":1},{""stimulus"":""run_exp/static/images/task_images/land.jpg"",""time"":862.1000000238419},{""stimulus"":""run_exp/static/images/task_images/dig.jpg"",""time"":1722.9000000357628}]",[],7,,,,,,,,,,,,,,
harvest,218,659084,0.0-69.0-1.0,,null,run_exp/static/images/task_images/gems/29.jpg,null,,,,,,23,,,7,,,,,29,0.80667065,0.793103448,,,,,,,
decision,219,659323,0.0-69.0-2.0,,236.6,run_exp/static/images/task_images/land.jpg,65,,,,,,23,,,7,,,,,,,,282738,1,6,FALSE,,,
dig,220,662112,0.0-70.0-0.0,,,,,,,,,,,"[{""stimulus"":""run_exp/static/images/task_images/dig.jpg"",""time"":1},{""stimulus"":""run_exp/static/images/task_images/land.jpg"",""time"":931.5},{""stimulus"":""run_exp/static/images/task_images/dig.jpg"",""time"":1857.300000011921}]",[],7,,,,,,,,,,,,,,
harvest,221,663116,0.0-70.0-1.0,,null,run_exp/static/images/task_images/gems/23.jpg,null,,,,,,19,,,7,,,,,23,0.833715329,0.826086957,,,,,,,
decision,222,663250,0.0-70.0-2.0,,132.8,run_exp/static/images/task_images/land.jpg,65,,,,,,19,,,7,,,,,,,,286665,1,7,FALSE,,,
dig,223,666134,0.0-71.0-0.0,,,,,,,,,,,"[{""stimulus"":""run_exp/static/images/task_images/dig.jpg"",""time"":0.30000001192092896},{""stimulus"":""run_exp/static/images/task_images/land.jpg"",""time"":968.4000000357628},{""stimulus"":""run_exp/static/images/task_images/dig.jpg"",""time"":1928.300000011921}]",[],7,,,,,,,,,,,,,,
harvest,224,667143,0.0-71.0-1.0,,null,run_exp/static/images/task_images/gems/19.jpg,null,,,,,,17,,,7,,,,,19,0.873133025,0.894736842,,,,,,,
decision,225,667274,0.0-71.0-2.0,,128.1,run_exp/static/images/task_images/land.jpg,65,,,,,,17,,,7,,,,,,,,290690,1,8,FALSE,,,
dig,226,670174,0.0-72.0-0.0,,,,,,,,,,,"[{""stimulus"":""run_exp/static/images/task_images/dig.jpg"",""time"":0.19999998807907104},{""stimulus"":""run_exp/static/images/task_images/land.jpg"",""time"":968.3000000119209},{""stimulus"":""run_exp/static/images/task_images/dig.jpg"",""time"":1930.199999988079}]",[],7,,,,,,,,,,,,,,
harvest,227,671184,0.0-72.0-1.0,,null,run_exp/static/images/task_images/gems/17.jpg,null,,,,,,13,,,7,,,,,17,0.753303521,0.764705882,,,,,,,
decision,228,671492,0.0-72.0-2.0,,306.3,run_exp/static/images/task_images/land.jpg,65,,,,,,13,,,7,,,,,,,,294908,1,9,FALSE,,,
dig,229,674204,0.0-73.0-0.0,,,,,,,,,,,"[{""stimulus"":""run_exp/static/images/task_images/dig.jpg"",""time"":0.5999999642372131},{""stimulus"":""run_exp/static/images/task_images/land.jpg"",""time"":915.8999999761581},{""stimulus"":""run_exp/static/images/task_images/dig.jpg"",""time"":1805.3999999761581}]",[],7,,,,,,,,,,,,,,
harvest,230,675213,0.0-73.0-1.0,,null,run_exp/static/images/task_images/gems/13.jpg,null,,,,,,10,,,7,,,,,13,0.756729491,0.769230769,,,,,,,
decision,231,676609,0.0-73.0-2.0,,1393.6,run_exp/static/images/task_images/land.jpg,76,,,,,,10,,,7,,,,,,,,300024,1,10,TRUE,,,
end_of_block_continue,232,685530,0.0-74.0-0.0,,null,run_exp/static/audio/clip_32_block_end.m4a,,,,,,null,,,,,,,,,,,,,,,,,,
alien_welcome,233,690556,0.0-75.0-0.0,,null,run_exp/static/images/task_images/aliens/old_aliens/planet/alien_planet-31.jpg,null,,,,,,,,,,,,31,"50,72,43,41,64,75,22,31,53,7,73,12,68,18,51,37,14,69,11,44,2,8,34,40,39,70,28,38,5,77,62,56,60,32,45,49,29,24",,,,,,,,,,
land,234,691081,0.0-75.0-1.0,,null,run_exp/static/images/task_images/land.jpg,null,,,,,,99,,,8,,,,,,,,,,,,,,
dig,235,693092,0.0-75.0-2.0,,,,,,,,,,,"[{""stimulus"":""run_exp/static/images/task_images/dig.jpg"",""time"":0.5},{""stimulus"":""run_exp/static/images/task_images/land.jpg"",""time"":672.8999999761581},{""stimulus"":""run_exp/static/images/task_images/dig.jpg"",""time"":1350.5}]",[],8,,,,,,,,,,,,,,
harvest,236,694105,0.0-75.0-3.0,,null,run_exp/static/images/task_images/gems/99.jpg,null,,,,,,23,,,8,,,,,99,0.23526473,0.232323232,,,,,,,
decision,237,694755,0.0-75.0-4.0,,647,run_exp/static/images/task_images/land.jpg,65,,,,,,23,,,8,,,,,,,,9205,2,0,FALSE,,,
dig,238,697123,0.0-76.0-0.0,,,,,,,,,,,"[{""stimulus"":""run_exp/static/images/task_images/dig.jpg"",""time"":0.20000004768371582},{""stimulus"":""run_exp/static/images/task_images/land.jpg"",""time"":793.1000000238419},{""stimulus"":""run_exp/static/images/task_images/dig.jpg"",""time"":1589.7000000476837}]",[],8,,,,,,,,,,,,,,
harvest,239,698136,0.0-76.0-1.0,,null,run_exp/static/images/task_images/gems/23.jpg,null,,,,,,5,,,8,,,,,23,0.219369606,0.217391304,,,,,,,
decision,240,699119,0.0-76.0-2.0,,979.1,run_exp/static/images/task_images/land.jpg,65,,,,,,5,,,8,,,,,,,,13569,2,1,FALSE,,,
dig,241,701153,0.0-77.0-0.0,,,,,,,,,,,"[{""stimulus"":""run_exp/static/images/task_images/dig.jpg"",""time"":1.0999999642372131},{""stimulus"":""run_exp/static/images/task_images/land.jpg"",""time"":683.0999999642372},{""stimulus"":""run_exp/static/images/task_images/dig.jpg"",""time"":1350.199999988079}]",[],8,,,,,,,,,,,,,,
harvest,242,702163,0.0-77.0-1.0,,null,run_exp/static/images/task_images/gems/5.jpg,null,,,,,,1,,,8,,,,,5,0.211839737,0.2,,,,,,,
decision,243,703043,0.0-77.0-2.0,,876.3,run_exp/static/images/task_images/land.jpg,76,,,,,,1,,,8,,,,,,,,17493,2,2,TRUE,,,
travel,244,712193,0.0-78.0-0.0,,,,,,,,,,,"[{""stimulus"":""run_exp/static/images/task_images/rocket-01.jpg"",""time"":0.5},{""stimulus"":""run_exp/static/images/task_images/rocket-02.jpg"",""time"":1018.8999999761581},{""stimulus"":""run_exp/static/images/task_images/rocket-03.jpg"",""time"":2037.0999999642372},{""stimulus"":""run_exp/static/images/task_images/rocket-04.jpg"",""time"":3048},{""stimulus"":""run_exp/static/images/task_images/rocket-05.jpg"",""time"":4057.699999988079},{""stimulus"":""run_exp/static/images/task_images/rocket-06.jpg"",""time"":5068.099999964237},{""stimulus"":""run_exp/static/images/task_images/rocket-07.jpg"",""time"":6098},{""stimulus"":""run_exp/static/images/task_images/rocket-08.jpg"",""time"":7097.199999988079},{""stimulus"":""run_exp/static/images/task_images/rocket-09.jpg"",""time"":8117.799999952316}]",[],8,,,,,,,,,,,,,,
alien_welcome,245,717206,0.0-78.0-1.0,,null,run_exp/static/images/task_images/aliens/old_aliens/planet/alien_planet-53.jpg,null,,,,,,,,,,,,53,"50,72,43,41,64,75,22,31,53,7,73,12,68,18,51,37,14,69,11,44,2,8,34,40,39,70,28,38,5,77,62,56,60,32,45,49,29,24",,,,,,,,,,
land,246,717727,0.0-78.0-2.0,,null,run_exp/static/images/task_images/land.jpg,null,,,,,,107,,,9,,,,,,,,,,,,,,
dig,247,719743,0.0-78.0-3.0,,,,,,,,,,,"[{""stimulus"":""run_exp/static/images/task_images/dig.jpg"",""time"":0.6000000238418579},{""stimulus"":""run_exp/static/images/task_images/land.jpg"",""time"":681},{""stimulus"":""run_exp/static/images/task_images/dig.jpg"",""time"":1343.4000000357628}]",[],9,,,,,,,,,,,,,,
harvest,248,720754,0.0-78.0-4.0,,null,run_exp/static/images/task_images/gems/107.jpg,null,,,,,,18,,,9,,,,,107,0.172555446,0.168224299,,,,,,,
decision,249,721015,0.0-78.0-5.0,,256.6,run_exp/static/images/task_images/land.jpg,65,,,,,,18,,,9,,,,,,,,35465,2,0,FALSE,,,
dig,250,723774,0.0-79.0-0.0,,,,,,,,,,,"[{""stimulus"":""run_exp/static/images/task_images/dig.jpg"",""time"":0.40000003576278687},{""stimulus"":""run_exp/static/images/task_images/land.jpg"",""time"":930.1999999880791},{""stimulus"":""run_exp/static/images/task_images/dig.jpg"",""time"":1848}]",[],9,,,,,,,,,,,,,,
harvest,251,724792,0.0-79.0-1.0,,null,run_exp/static/images/task_images/gems/18.jpg,null,,,,,,3,,,9,,,,,18,0.139576026,0.166666667,,,,,,,
decision,252,725094,0.0-79.0-2.0,,298.8,run_exp/static/images/task_images/land.jpg,65,,,,,,3,,,9,,,,,,,,39544,2,1,FALSE,,,
dig,253,727804,0.0-80.0-0.0,,,,,,,,,,,"[{""stimulus"":""run_exp/static/images/task_images/dig.jpg"",""time"":0.19999998807907104},{""stimulus"":""run_exp/static/images/task_images/land.jpg"",""time"":916.5},{""stimulus"":""run_exp/static/images/task_images/dig.jpg"",""time"":1805.300000011921}]",[],9,,,,,,,,,,,,,,
harvest,254,728810,0.0-80.0-1.0,,null,run_exp/static/images/task_images/gems/3.jpg,null,,,,,,0,,,9,,,,,3,0.139328891,0,,,,,,,
decision,255,729298,0.0-80.0-2.0,,485.6,run_exp/static/images/task_images/land.jpg,76,,,,,,0,,,9,,,,,,,,43748,2,2,TRUE,,,
travel,256,738845,0.0-81.0-0.0,,,,,,,,,,,"[{""stimulus"":""run_exp/static/images/task_images/rocket-01.jpg"",""time"":0.5999999642372131},{""stimulus"":""run_exp/static/images/task_images/rocket-02.jpg"",""time"":1063.300000011921},{""stimulus"":""run_exp/static/images/task_images/rocket-03.jpg"",""time"":2121.899999976158},{""stimulus"":""run_exp/static/images/task_images/rocket-04.jpg"",""time"":3181.599999964237},{""stimulus"":""run_exp/static/images/task_images/rocket-05.jpg"",""time"":4241.5},{""stimulus"":""run_exp/static/images/task_images/rocket-06.jpg"",""time"":5292.199999988079},{""stimulus"":""run_exp/static/images/task_images/rocket-07.jpg"",""time"":6363.199999988079},{""stimulus"":""run_exp/static/images/task_images/rocket-08.jpg"",""time"":7421.699999988079},{""stimulus"":""run_exp/static/images/task_images/rocket-09.jpg"",""time"":8462.199999988079}]",[],9,,,,,,,,,,,,,,
alien_welcome,257,743867,0.0-81.0-1.0,,null,run_exp/static/images/task_images/aliens/old_aliens/planet/alien_planet-7.jpg,null,,,,,,,,,,,,7,"50,72,43,41,64,75,22,31,53,7,73,12,68,18,51,37,14,69,11,44,2,8,34,40,39,70,28,38,5,77,62,56,60,32,45,49,29,24",,,,,,,,,,
land,258,744381,0.0-81.0-2.0,,null,run_exp/static/images/task_images/land.jpg,null,,,,,,102,,,10,,,,,,,,,,,,,,
dig,259,746400,0.0-81.0-3.0,,,,,,,,,,,"[{""stimulus"":""run_exp/static/images/task_images/dig.jpg"",""time"":0.6000000238418579},{""stimulus"":""run_exp/static/images/task_images/land.jpg"",""time"":686.5},{""stimulus"":""run_exp/static/images/task_images/dig.jpg"",""time"":1347.4000000357628}]",[],10,,,,,,,,,,,,,,
harvest,260,747419,0.0-81.0-4.0,,null,run_exp/static/images/task_images/gems/102.jpg,null,,,,,,18,,,10,,,,,102,0.175159854,0.176470588,,,,,,,
decision,261,747971,0.0-81.0-5.0,,548.3,run_exp/static/images/task_images/land.jpg,65,,,,,,18,,,10,,,,,,,,62421,2,0,FALSE,,,
dig,262,750444,0.0-82.0-0.0,,,,,,,,,,,"[{""stimulus"":""run_exp/static/images/task_images/dig.jpg"",""time"":0.5},{""stimulus"":""run_exp/static/images/task_images/land.jpg"",""time"":821.8000000119209},{""stimulus"":""run_exp/static/images/task_images/dig.jpg"",""time"":1653.300000011921}]",[],10,,,,,,,,,,,,,,
harvest,263,751462,0.0-82.0-1.0,,null,run_exp/static/images/task_images/gems/18.jpg,null,,,,,,3,,,10,,,,,18,0.149947551,0.166666667,,,,,,,
decision,264,752247,0.0-82.0-2.0,,780.5,run_exp/static/images/task_images/land.jpg,76,,,,,,3,,,10,,,,,,,,66697,2,1,TRUE,,,
travel,265,761499,0.0-83.0-0.0,,,,,,,,,,,"[{""stimulus"":""run_exp/static/images/task_images/rocket-01.jpg"",""time"":0.5},{""stimulus"":""run_exp/static/images/task_images/rocket-02.jpg"",""time"":1036.2000000476837},{""stimulus"":""run_exp/static/images/task_images/rocket-03.jpg"",""time"":2057.400000035763},{""stimulus"":""run_exp/static/images/task_images/rocket-04.jpg"",""time"":3076.800000011921},{""stimulus"":""run_exp/static/images/task_images/rocket-05.jpg"",""time"":4117.700000047684},{""stimulus"":""run_exp/static/images/task_images/rocket-06.jpg"",""time"":5137.600000023842},{""stimulus"":""run_exp/static/images/task_images/rocket-07.jpg"",""time"":6147.400000035763},{""stimulus"":""run_exp/static/images/task_images/rocket-08.jpg"",""time"":7187.600000023842},{""stimulus"":""run_exp/static/images/task_images/rocket-09.jpg"",""time"":8200.800000011921}]",[],10,,,,,,,,,,,,,,
alien_welcome,266,766514,0.0-83.0-1.0,,null,run_exp/static/images/task_images/aliens/old_aliens/planet/alien_planet-73.jpg,null,,,,,,,,,,,,73,"50,72,43,41,64,75,22,31,53,7,73,12,68,18,51,37,14,69,11,44,2,8,34,40,39,70,28,38,5,77,62,56,60,32,45,49,29,24",,,,,,,,,,
land,267,767037,0.0-83.0-2.0,,null,run_exp/static/images/task_images/land.jpg,null,,,,,,100,,,11,,,,,,,,,,,,,,
dig,268,769065,0.0-83.0-3.0,,,,,,,,,,,"[{""stimulus"":""run_exp/static/images/task_images/dig.jpg"",""time"":0.5999999642372131},{""stimulus"":""run_exp/static/images/task_images/land.jpg"",""time"":671.0999999642372},{""stimulus"":""run_exp/static/images/task_images/dig.jpg"",""time"":1344.199999988079}]",[],11,,,,,,,,,,,,,,
harvest,269,770074,0.0-83.0-4.0,,null,run_exp/static/images/task_images/gems/100.jpg,null,,,,,,78,,,11,,,,,100,0.784577085,0.78,,,,,,,
decision,270,770496,0.0-83.0-5.0,,417.8,run_exp/static/images/task_images/land.jpg,65,,,,,,78,,,11,,,,,,,,84946,2,0,FALSE,,,
dig,271,773107,0.0-84.0-0.0,,,,,,,,,,,"[{""stimulus"":""run_exp/static/images/task_images/dig.jpg"",""time"":0.3999999761581421},{""stimulus"":""run_exp/static/images/task_images/land.jpg"",""time"":867.0999999642372},{""stimulus"":""run_exp/static/images/task_images/dig.jpg"",""time"":1726.0999999642372}]",[],11,,,,,,,,,,,,,,
harvest,272,774115,0.0-84.0-1.0,,null,run_exp/static/images/task_images/gems/78.jpg,null,,,,,,65,,,11,,,,,78,0.833710771,0.833333333,,,,,,,
decision,273,774649,0.0-84.0-2.0,,530.3,run_exp/static/images/task_images/land.jpg,65,,,,,,65,,,11,,,,,,,,89099,2,1,FALSE,,,
dig,274,777139,0.0-85.0-0.0,,,,,,,,,,,"[{""stimulus"":""run_exp/static/images/task_images/dig.jpg"",""time"":0.699999988079071},{""stimulus"":""run_exp/static/images/task_images/land.jpg"",""time"":831.6999999880791},{""stimulus"":""run_exp/static/images/task_images/dig.jpg"",""time"":1651.8999999761581}]",[],11,,,,,,,,,,,,,,
harvest,275,778151,0.0-85.0-1.0,,null,run_exp/static/images/task_images/gems/65.jpg,null,,,,,,49,,,11,,,,,65,0.7604079,0.753846154,,,,,,,
decision,276,778585,0.0-85.0-2.0,,429.5,run_exp/static/images/task_images/land.jpg,65,,,,,,49,,,11,,,,,,,,93036,2,2,FALSE,,,
dig,277,781185,0.0-86.0-0.0,,,,,,,,,,,"[{""stimulus"":""run_exp/static/images/task_images/dig.jpg"",""time"":0.5},{""stimulus"":""run_exp/static/images/task_images/land.jpg"",""time"":877},{""stimulus"":""run_exp/static/images/task_images/dig.jpg"",""time"":1726.7000000476837}]",[],11,,,,,,,,,,,,,,
harvest,278,782188,0.0-86.0-1.0,,null,run_exp/static/images/task_images/gems/49.jpg,null,,,,,,42,,,11,,,,,49,0.864154756,0.857142857,,,,,,,
decision,279,782507,0.0-86.0-2.0,,316.5,run_exp/static/images/task_images/land.jpg,65,,,,,,42,,,11,,,,,,,,96957,2,3,FALSE,,,
dig,280,785213,0.0-87.0-0.0,,,,,,,,,,,"[{""stimulus"":""run_exp/static/images/task_images/dig.jpg"",""time"":0.3999999761581421},{""stimulus"":""run_exp/static/images/task_images/land.jpg"",""time"":915},{""stimulus"":""run_exp/static/images/task_images/dig.jpg"",""time"":1799.7999999523163}]",[],11,,,,,,,,,,,,,,
harvest,281,786223,0.0-87.0-1.0,,null,run_exp/static/images/task_images/gems/42.jpg,null,,,,,,34,,,11,,,,,42,0.82066843,0.80952381,,,,,,,
decision,282,786433,0.0-87.0-2.0,,207.6,run_exp/static/images/task_images/land.jpg,65,,,,,,34,,,11,,,,,,,,100883,2,4,FALSE,,,
dig,283,789254,0.0-88.0-0.0,,,,,,,,,,,"[{""stimulus"":""run_exp/static/images/task_images/dig.jpg"",""time"":0.800000011920929},{""stimulus"":""run_exp/static/images/task_images/land.jpg"",""time"":949.6999999880791},{""stimulus"":""run_exp/static/images/task_images/dig.jpg"",""time"":1879.699999988079}]",[],11,,,,,,,,,,,,,,
harvest,284,790269,0.0-88.0-1.0,,null,run_exp/static/images/task_images/gems/34.jpg,null,,,,,,26,,,11,,,,,34,0.760830521,0.764705882,,,,,,,
decision,285,790602,0.0-88.0-2.0,,331.4,run_exp/static/images/task_images/land.jpg,65,,,,,,26,,,11,,,,,,,,105052,2,5,FALSE,,,
dig,286,793284,0.0-89.0-0.0,,,,,,,,,,,"[{""stimulus"":""run_exp/static/images/task_images/dig.jpg"",""time"":0.30000001192092896},{""stimulus"":""run_exp/static/images/task_images/land.jpg"",""time"":892.1000000238419},{""stimulus"":""run_exp/static/images/task_images/dig.jpg"",""time"":1787}]",[],11,,,,,,,,,,,,,,
harvest,287,794289,0.0-89.0-1.0,,null,run_exp/static/images/task_images/gems/26.jpg,null,,,,,,20,,,11,,,,,26,0.772776746,0.769230769,,,,,,,
decision,288,794498,0.0-89.0-2.0,,205.4,run_exp/static/images/task_images/land.jpg,65,,,,,,20,,,11,,,,,,,,108948,2,6,FALSE,,,
dig,289,797303,0.0-90.0-0.0,,,,,,,,,,,"[{""stimulus"":""run_exp/static/images/task_images/dig.jpg"",""time"":0.30000001192092896},{""stimulus"":""run_exp/static/images/task_images/land.jpg"",""time"":942.5},{""stimulus"":""run_exp/static/images/task_images/dig.jpg"",""time"":1882.5}]",[],11,,,,,,,,,,,,,,
harvest,290,798315,0.0-90.0-1.0,,null,run_exp/static/images/task_images/gems/20.jpg,null,,,,,,16,,,11,,,,,20,0.78612011,0.8,,,,,,,
decision,291,798532,0.0-90.0-2.0,,214,run_exp/static/images/task_images/land.jpg,76,,,,,,16,,,11,,,,,,,,112983,2,7,TRUE,,,
travel,292,808331,0.0-91.0-0.0,,,,,,,,,,,"[{""stimulus"":""run_exp/static/images/task_images/rocket-01.jpg"",""time"":0.19999998807907104},{""stimulus"":""run_exp/static/images/task_images/rocket-02.jpg"",""time"":1099.3999999761581},{""stimulus"":""run_exp/static/images/task_images/rocket-03.jpg"",""time"":2181.800000011921},{""stimulus"":""run_exp/static/images/task_images/rocket-04.jpg"",""time"":3276.899999976158},{""stimulus"":""run_exp/static/images/task_images/rocket-05.jpg"",""time"":4355.600000023842},{""stimulus"":""run_exp/static/images/task_images/rocket-06.jpg"",""time"":5458.899999976158},{""stimulus"":""run_exp/static/images/task_images/rocket-07.jpg"",""time"":6535.699999988079},{""stimulus"":""run_exp/static/images/task_images/rocket-08.jpg"",""time"":7625.399999976158},{""stimulus"":""run_exp/static/images/task_images/rocket-09.jpg"",""time"":8715.800000011921}]",[],11,,,,,,,,,,,,,,
alien_welcome,293,813338,0.0-91.0-1.0,,null,run_exp/static/images/task_images/aliens/old_aliens/planet/alien_planet-12.jpg,null,,,,,,,,,,,,12,"50,72,43,41,64,75,22,31,53,7,73,12,68,18,51,37,14,69,11,44,2,8,34,40,39,70,28,38,5,77,62,56,60,32,45,49,29,24",,,,,,,,,,
land,294,813857,0.0-91.0-2.0,,null,run_exp/static/images/task_images/land.jpg,null,,,,,,103,,,12,,,,,,,,,,,,,,
dig,295,815882,0.0-91.0-3.0,,,,,,,,,,,"[{""stimulus"":""run_exp/static/images/task_images/dig.jpg"",""time"":0.6000000238418579},{""stimulus"":""run_exp/static/images/task_images/land.jpg"",""time"":671},{""stimulus"":""run_exp/static/images/task_images/dig.jpg"",""time"":1348}]",[],12,,,,,,,,,,,,,,
harvest,296,816897,0.0-91.0-4.0,,null,run_exp/static/images/task_images/gems/103.jpg,null,,,,,,88,,,12,,,,,103,0.854357385,0.854368932,,,,,,,
decision,297,817327,0.0-91.0-5.0,,426,run_exp/static/images/task_images/land.jpg,65,,,,,,88,,,12,,,,,,,,131777,2,0,FALSE,,,
dig,298,819933,0.0-92.0-0.0,,,,,,,,,,,"[{""stimulus"":""run_exp/static/images/task_images/dig.jpg"",""time"":0.5},{""stimulus"":""run_exp/static/images/task_images/land.jpg"",""time"":864.5},{""stimulus"":""run_exp/static/images/task_images/dig.jpg"",""time"":1733.800000011921}]",[],12,,,,,,,,,,,,,,
harvest,299,820944,0.0-92.0-1.0,,null,run_exp/static/images/task_images/gems/88.jpg,null,,,,,,74,,,12,,,,,88,0.83810045,0.840909091,,,,,,,
decision,300,821398,0.0-92.0-2.0,,447.9,run_exp/static/images/task_images/land.jpg,65,,,,,,74,,,12,,,,,,,,135848,2,1,FALSE,,,
dig,301,823963,0.0-93.0-0.0,,,,,,,,,,,"[{""stimulus"":""run_exp/static/images/task_images/dig.jpg"",""time"":0.5},{""stimulus"":""run_exp/static/images/task_images/land.jpg"",""time"":852.1999999880791},{""stimulus"":""run_exp/static/images/task_images/dig.jpg"",""time"":1708.199999988079}]",[],12,,,,,,,,,,,,,,
harvest,302,824976,0.0-93.0-1.0,,null,run_exp/static/images/task_images/gems/74.jpg,null,,,,,,62,,,12,,,,,74,0.841505214,0.837837838,,,,,,,
decision,303,825305,0.0-93.0-2.0,,325.3,run_exp/static/images/task_images/land.jpg,65,,,,,,62,,,12,,,,,,,,139755,2,2,FALSE,,,
dig,304,828003,0.0-94.0-0.0,,,,,,,,,,,"[{""stimulus"":""run_exp/static/images/task_images/dig.jpg"",""time"":0.5},{""stimulus"":""run_exp/static/images/task_images/land.jpg"",""time"":895.2000000476837},{""stimulus"":""run_exp/static/images/task_images/dig.jpg"",""time"":1794.9000000357628}]",[],12,,,,,,,,,,,,,,
harvest,305,829019,0.0-94.0-1.0,,null,run_exp/static/images/task_images/gems/62.jpg,null,,,,,,48,,,12,,,,,62,0.781811681,0.774193548,,,,,,,
decision,306,829238,0.0-94.0-2.0,,217,run_exp/static/images/task_images/land.jpg,65,,,,,,48,,,12,,,,,,,,143688,2,3,FALSE,,,
dig,307,832052,0.0-95.0-0.0,,,,,,,,,,,"[{""stimulus"":""run_exp/static/images/task_images/dig.jpg"",""time"":0.5},{""stimulus"":""run_exp/static/images/task_images/land.jpg"",""time"":941.3000000119209},{""stimulus"":""run_exp/static/images/task_images/dig.jpg"",""time"":1861.0999999642372}]",[],12,,,,,,,,,,,,,,
harvest,308,833058,0.0-95.0-1.0,,null,run_exp/static/images/task_images/gems/48.jpg,null,,,,,,34,,,12,,,,,48,0.717366497,0.708333333,,,,,,,
decision,309,833226,0.0-95.0-2.0,,164.9,run_exp/static/images/task_images/land.jpg,65,,,,,,34,,,12,,,,,,,,147677,2,4,FALSE,,,
dig,310,836093,0.0-96.0-0.0,,,,,,,,,,,"[{""stimulus"":""run_exp/static/images/task_images/dig.jpg"",""time"":0.8999999761581421},{""stimulus"":""run_exp/static/images/task_images/land.jpg"",""time"":950.6999999880791},{""stimulus"":""run_exp/static/images/task_images/dig.jpg"",""time"":1911}]",[],12,,,,,,,,,,,,,,
harvest,311,837100,0.0-96.0-1.0,,null,run_exp/static/images/task_images/gems/34.jpg,null,,,,,,28,,,12,,,,,34,0.822287915,0.823529412,,,,,,,
decision,312,837237,0.0-96.0-2.0,,131.8,run_exp/static/images/task_images/land.jpg,76,,,,,,28,,,12,,,,,,,,151687,2,5,TRUE,,,
travel,313,847127,0.0-97.0-0.0,,,,,,,,,,,"[{""stimulus"":""run_exp/static/images/task_images/rocket-01.jpg"",""time"":0.3999999761581421},{""stimulus"":""run_exp/static/images/task_images/rocket-02.jpg"",""time"":1104},{""stimulus"":""run_exp/static/images/task_images/rocket-03.jpg"",""time"":2214.199999988079},{""stimulus"":""run_exp/static/images/task_images/rocket-04.jpg"",""time"":3304.099999964237},{""stimulus"":""run_exp/static/images/task_images/rocket-05.jpg"",""time"":4405.800000011921},{""stimulus"":""run_exp/static/images/task_images/rocket-06.jpg"",""time"":5490},{""stimulus"":""run_exp/static/images/task_images/rocket-07.jpg"",""time"":6583.800000011921},{""stimulus"":""run_exp/static/images/task_images/rocket-08.jpg"",""time"":7683.5},{""stimulus"":""run_exp/static/images/task_images/rocket-09.jpg"",""time"":8783.5}]",[],12,,,,,,,,,,,,,,
alien_welcome,314,852173,0.0-97.0-1.0,,null,run_exp/static/images/task_images/aliens/old_aliens/planet/alien_planet-68.jpg,null,,,,,,,,,,,,68,"50,72,43,41,64,75,22,31,53,7,73,12,68,18,51,37,14,69,11,44,2,8,34,40,39,70,28,38,5,77,62,56,60,32,45,49,29,24",,,,,,,,,,
land,315,852692,0.0-97.0-2.0,,null,run_exp/static/images/task_images/land.jpg,null,,,,,,99,,,13,,,,,,,,,,,,,,
dig,316,854723,0.0-97.0-3.0,,,,,,,,,,,"[{""stimulus"":""run_exp/static/images/task_images/dig.jpg"",""time"":0.5999999642372131},{""stimulus"":""run_exp/static/images/task_images/land.jpg"",""time"":673.0999999642372},{""stimulus"":""run_exp/static/images/task_images/dig.jpg"",""time"":1351.300000011921}]",[],13,,,,,,,,,,,,,,
harvest,317,855727,0.0-97.0-4.0,,null,run_exp/static/images/task_images/gems/99.jpg,null,,,,,,84,,,13,,,,,99,0.844916728,0.848484848,,,,,,,
decision,318,855997,0.0-97.0-5.0,,265.8,run_exp/static/images/task_images/land.jpg,65,,,,,,84,,,13,,,,,,,,170447,2,0,FALSE,,,
dig,319,858764,0.0-98.0-0.0,,,,,,,,,,,"[{""stimulus"":""run_exp/static/images/task_images/dig.jpg"",""time"":0.699999988079071},{""stimulus"":""run_exp/static/images/task_images/land.jpg"",""time"":925.5},{""stimulus"":""run_exp/static/images/task_images/dig.jpg"",""time"":1842}]",[],13,,,,,,,,,,,,,,
harvest,320,859769,0.0-98.0-1.0,,null,run_exp/static/images/task_images/gems/84.jpg,null,,,,,,73,,,13,,,,,84,0.868302808,0.869047619,,,,,,,
decision,321,860213,0.0-98.0-2.0,,442,run_exp/static/images/task_images/land.jpg,65,,,,,,73,,,13,,,,,,,,174663,2,1,FALSE,,,
dig,322,862794,0.0-99.0-0.0,,,,,,,,,,,"[{""stimulus"":""run_exp/static/images/task_images/dig.jpg"",""time"":0.30000001192092896},{""stimulus"":""run_exp/static/images/task_images/land.jpg"",""time"":866.1000000238419},{""stimulus"":""run_exp/static/images/task_images/dig.jpg"",""time"":1715.800000011921}]",[],13,,,,,,,,,,,,,,
harvest,323,863807,0.0-99.0-1.0,,null,run_exp/static/images/task_images/gems/73.jpg,null,,,,,,60,,,13,,,,,73,0.821672885,0.821917808,,,,,,,
decision,324,864011,0.0-99.0-2.0,,201.5,run_exp/static/images/task_images/land.jpg,65,,,,,,60,,,13,,,,,,,,178461,2,2,FALSE,,,
dig,325,866824,0.0-100.0-0.0,,,,,,,,,,,"[{""stimulus"":""run_exp/static/images/task_images/dig.jpg"",""time"":0.5},{""stimulus"":""run_exp/static/images/task_images/land.jpg"",""time"":949.9000000357628},{""stimulus"":""run_exp/static/images/task_images/dig.jpg"",""time"":1893.2000000476837}]",[],13,,,,,,,,,,,,,,
harvest,326,867835,0.0-100.0-1.0,,null,run_exp/static/images/task_images/gems/60.jpg,null,,,,,,50,,,13,,,,,60,0.828423272,0.833333333,,,,,,,
decision,327,868131,0.0-100.0-2.0,,293.7,run_exp/static/images/task_images/land.jpg,65,,,,,,50,,,13,,,,,,,,182581,2,3,FALSE,,,
dig,328,870864,0.0-101.0-0.0,,,,,,,,,,,"[{""stimulus"":""run_exp/static/images/task_images/dig.jpg"",""time"":0.20000004768371582},{""stimulus"":""run_exp/static/images/task_images/land.jpg"",""time"":917.6000000238419},{""stimulus"":""run_exp/static/images/task_images/dig.jpg"",""time"":1817.4000000357628}]",[],13,,,,,,,,,,,,,,
harvest,329,871866,0.0-101.0-1.0,,null,run_exp/static/images/task_images/gems/50.jpg,null,,,,,,43,,,13,,,,,50,0.866175332,0.86,,,,,,,
decision,330,872059,0.0-101.0-2.0,,188.7,run_exp/static/images/task_images/land.jpg,65,,,,,,43,,,13,,,,,,,,186509,2,4,FALSE,,,
dig,331,874904,0.0-102.0-0.0,,,,,,,,,,,"[{""stimulus"":""run_exp/static/images/task_images/dig.jpg"",""time"":0.5},{""stimulus"":""run_exp/static/images/task_images/land.jpg"",""time"":948.6999999880791},{""stimulus"":""run_exp/static/images/task_images/dig.jpg"",""time"":1878.800000011921}]",[],13,,,,,,,,,,,,,,
harvest,332,875909,0.0-102.0-1.0,,null,run_exp/static/images/task_images/gems/43.jpg,null,,,,,,32,,,13,,,,,43,0.742745257,0.744186047,,,,,,,
decision,333,876095,0.0-102.0-2.0,,184.5,run_exp/static/images/task_images/land.jpg,65,,,,,,32,,,13,,,,,,,,190545,2,5,FALSE,,,
dig,334,878926,0.0-103.0-0.0,,,,,,,,,,,"[{""stimulus"":""run_exp/static/images/task_images/dig.jpg"",""time"":0.20000004768371582},{""stimulus"":""run_exp/static/images/task_images/land.jpg"",""time"":955.9000000357628},{""stimulus"":""run_exp/static/images/task_images/dig.jpg"",""time"":1883}]",[],13,,,,,,,,,,,,,,
harvest,335,879941,0.0-103.0-1.0,,null,run_exp/static/images/task_images/gems/32.jpg,null,,,,,,24,,,13,,,,,32,0.748396662,0.75,,,,,,,
decision,336,880090,0.0-103.0-2.0,,147.3,run_exp/static/images/task_images/land.jpg,76,,,,,,24,,,13,,,,,,,,194540,2,6,TRUE,,,
travel,337,889974,0.0-104.0-0.0,,,,,,,,,,,"[{""stimulus"":""run_exp/static/images/task_images/rocket-01.jpg"",""time"":0.800000011920929},{""stimulus"":""run_exp/static/images/task_images/rocket-02.jpg"",""time"":1108.9000000357628},{""stimulus"":""run_exp/static/images/task_images/rocket-03.jpg"",""time"":2199},{""stimulus"":""run_exp/static/images/task_images/rocket-04.jpg"",""time"":3289.199999988079},{""stimulus"":""run_exp/static/images/task_images/rocket-05.jpg"",""time"":4389},{""stimulus"":""run_exp/static/images/task_images/rocket-06.jpg"",""time"":5474.100000023842},{""stimulus"":""run_exp/static/images/task_images/rocket-07.jpg"",""time"":6568.900000035763},{""stimulus"":""run_exp/static/images/task_images/rocket-08.jpg"",""time"":7668.800000011921},{""stimulus"":""run_exp/static/images/task_images/rocket-09.jpg"",""time"":8768.699999988079}]",[],13,,,,,,,,,,,,,,
alien_welcome,338,894988,0.0-104.0-1.0,,null,run_exp/static/images/task_images/aliens/old_aliens/planet/alien_planet-18.jpg,null,,,,,,,,,,,,18,"50,72,43,41,64,75,22,31,53,7,73,12,68,18,51,37,14,69,11,44,2,8,34,40,39,70,28,38,5,77,62,56,60,32,45,49,29,24",,,,,,,,,,
land,339,895504,0.0-104.0-2.0,,null,run_exp/static/images/task_images/land.jpg,null,,,,,,99,,,14,,,,,,,,,,,,,,
dig,340,897514,0.0-104.0-3.0,,,,,,,,,,,"[{""stimulus"":""run_exp/static/images/task_images/dig.jpg"",""time"":0.6000000238418579},{""stimulus"":""run_exp/static/images/task_images/land.jpg"",""time"":684.8999999761581},{""stimulus"":""run_exp/static/images/task_images/dig.jpg"",""time"":1342}]",[],14,,,,,,,,,,,,,,
harvest,341,898519,0.0-104.0-4.0,,null,run_exp/static/images/task_images/gems/99.jpg,null,,,,,,78,,,14,,,,,99,0.783239689,0.787878788,,,,,,,
decision,342,899096,0.0-104.0-5.0,,572.4,run_exp/static/images/task_images/land.jpg,65,,,,,,78,,,14,,,,,,,,213546,2,0,FALSE,,,
dig,343,901544,0.0-105.0-0.0,,,,,,,,,,,"[{""stimulus"":""run_exp/static/images/task_images/dig.jpg"",""time"":0.5},{""stimulus"":""run_exp/static/images/task_images/land.jpg"",""time"":817.7000000476837},{""stimulus"":""run_exp/static/images/task_images/dig.jpg"",""time"":1623.800000011921}]",[],14,,,,,,,,,,,,,,
harvest,344,902560,0.0-105.0-1.0,,null,run_exp/static/images/task_images/gems/78.jpg,null,,,,,,67,,,14,,,,,78,0.853603067,0.858974359,,,,,,,
decision,345,902761,0.0-105.0-2.0,,197.4,run_exp/static/images/task_images/land.jpg,65,,,,,,67,,,14,,,,,,,,217211,2,1,FALSE,,,
dig,346,905593,0.0-106.0-0.0,,,,,,,,,,,"[{""stimulus"":""run_exp/static/images/task_images/dig.jpg"",""time"":1},{""stimulus"":""run_exp/static/images/task_images/land.jpg"",""time"":947.1999999880791},{""stimulus"":""run_exp/static/images/task_images/dig.jpg"",""time"":1877.199999988079}]",[],14,,,,,,,,,,,,,,
harvest,347,906601,0.0-106.0-1.0,,null,run_exp/static/images/task_images/gems/67.jpg,null,,,,,,54,,,14,,,,,67,0.812990056,0.805970149,,,,,,,
decision,348,906743,0.0-106.0-2.0,,139,run_exp/static/images/task_images/land.jpg,65,,,,,,54,,,14,,,,,,,,221193,2,2,FALSE,,,
dig,349,909614,0.0-107.0-0.0,,,,,,,,,,,"[{""stimulus"":""run_exp/static/images/task_images/dig.jpg"",""time"":0.19999998807907104},{""stimulus"":""run_exp/static/images/task_images/land.jpg"",""time"":965},{""stimulus"":""run_exp/static/images/task_images/dig.jpg"",""time"":1925.2999999523163}]",[],14,,,,,,,,,,,,,,
harvest,350,910627,0.0-107.0-1.0,,null,run_exp/static/images/task_images/gems/54.jpg,null,,,,,,44,,,14,,,,,54,0.812751386,0.814814815,,,,,,,
decision,351,910841,0.0-107.0-2.0,,211.2,run_exp/static/images/task_images/land.jpg,65,,,,,,44,,,14,,,,,,,,225292,2,3,FALSE,,,
dig,352,913644,0.0-108.0-0.0,,,,,,,,,,,"[{""stimulus"":""run_exp/static/images/task_images/dig.jpg"",""time"":0.19999998807907104},{""stimulus"":""run_exp/static/images/task_images/land.jpg"",""time"":945.6000000238419},{""stimulus"":""run_exp/static/images/task_images/dig.jpg"",""time"":1861.4000000357628}]",[],14,,,,,,,,,,,,,,
harvest,353,914651,0.0-108.0-1.0,,null,run_exp/static/images/task_images/gems/44.jpg,null,,,,,,38,,,14,,,,,44,0.873744706,0.863636364,,,,,,,
decision,354,914863,0.0-108.0-2.0,,209.1,run_exp/static/images/task_images/land.jpg,76,,,,,,38,,,14,,,,,,,,229313,2,4,TRUE,,,
travel,355,924674,0.0-109.0-0.0,,,,,,,,,,,"[{""stimulus"":""run_exp/static/images/task_images/rocket-01.jpg"",""time"":0.10000002384185791},{""stimulus"":""run_exp/static/images/task_images/rocket-02.jpg"",""time"":1106},{""stimulus"":""run_exp/static/images/task_images/rocket-03.jpg"",""time"":2195.199999988079},{""stimulus"":""run_exp/static/images/task_images/rocket-04.jpg"",""time"":3270.199999988079},{""stimulus"":""run_exp/static/images/task_images/rocket-05.jpg"",""time"":4366.100000023842},{""stimulus"":""run_exp/static/images/task_images/rocket-06.jpg"",""time"":5446.5},{""stimulus"":""run_exp/static/images/task_images/rocket-07.jpg"",""time"":6526.399999976158},{""stimulus"":""run_exp/static/images/task_images/rocket-08.jpg"",""time"":7625.300000011921},{""stimulus"":""run_exp/static/images/task_images/rocket-09.jpg"",""time"":8705.100000023842}]",[],14,,,,,,,,,,,,,,
alien_welcome,356,929687,0.0-109.0-1.0,,null,run_exp/static/images/task_images/aliens/old_aliens/planet/alien_planet-51.jpg,null,,,,,,,,,,,,51,"50,72,43,41,64,75,22,31,53,7,73,12,68,18,51,37,14,69,11,44,2,8,34,40,39,70,28,38,5,77,62,56,60,32,45,49,29,24",,,,,,,,,,
land,357,930204,0.0-109.0-2.0,,null,run_exp/static/images/task_images/land.jpg,null,,,,,,108,,,15,,,,,,,,,,,,,,
dig,358,932213,0.0-109.0-3.0,,,,,,,,,,,"[{""stimulus"":""run_exp/static/images/task_images/dig.jpg"",""time"":0.3999999761581421},{""stimulus"":""run_exp/static/images/task_images/land.jpg"",""time"":688.3000000119209},{""stimulus"":""run_exp/static/images/task_images/dig.jpg"",""time"":1347.8999999761581}]",[],15,,,,,,,,,,,,,,
harvest,359,933224,0.0-109.0-4.0,,null,run_exp/static/images/task_images/gems/108.jpg,null,,,,,,82,,,15,,,,,108,0.756573214,0.759259259,,,,,,,
decision,360,933630,0.0-109.0-5.0,,401.2,run_exp/static/images/task_images/land.jpg,65,,,,,,82,,,15,,,,,,,,248080,2,0,FALSE,,,
dig,361,936254,0.0-110.0-0.0,,,,,,,,,,,"[{""stimulus"":""run_exp/static/images/task_images/dig.jpg"",""time"":0.5},{""stimulus"":""run_exp/static/images/task_images/land.jpg"",""time"":878.5},{""stimulus"":""run_exp/static/images/task_images/dig.jpg"",""time"":1758.7000000476837}]",[],15,,,,,,,,,,,,,,
harvest,362,937260,0.0-110.0-1.0,,null,run_exp/static/images/task_images/gems/82.jpg,null,,,,,,66,,,15,,,,,82,0.810850357,0.804878049,,,,,,,
decision,363,937580,0.0-110.0-2.0,,317.3,run_exp/static/images/task_images/land.jpg,65,,,,,,66,,,15,,,,,,,,252030,2,1,FALSE,,,
dig,364,940294,0.0-111.0-0.0,,,,,,,,,,,"[{""stimulus"":""run_exp/static/images/task_images/dig.jpg"",""time"":0.5},{""stimulus"":""run_exp/static/images/task_images/land.jpg"",""time"":901.1000000238419},{""stimulus"":""run_exp/static/images/task_images/dig.jpg"",""time"":1800}]",[],15,,,,,,,,,,,,,,
harvest,365,941297,0.0-111.0-1.0,,null,run_exp/static/images/task_images/gems/66.jpg,null,,,,,,52,,,15,,,,,66,0.795120744,0.787878788,,,,,,,
decision,366,941839,0.0-111.0-2.0,,539.4,run_exp/static/images/task_images/land.jpg,65,,,,,,52,,,15,,,,,,,,256289,2,2,FALSE,,,
dig,367,944334,0.0-112.0-0.0,,,,,,,,,,,"[{""stimulus"":""run_exp/static/images/task_images/dig.jpg"",""time"":0.6000000238418579},{""stimulus"":""run_exp/static/images/task_images/land.jpg"",""time"":830.8999999761581},{""stimulus"":""run_exp/static/images/task_images/dig.jpg"",""time"":1660.3999999761581}]",[],15,,,,,,,,,,,,,,
harvest,368,945342,0.0-112.0-1.0,,null,run_exp/static/images/task_images/gems/52.jpg,null,,,,,,42,,,15,,,,,52,0.816496359,0.807692308,,,,,,,
decision,369,946200,0.0-112.0-2.0,,854,run_exp/static/images/task_images/land.jpg,65,,,,,,42,,,15,,,,,,,,260650,2,3,FALSE,,,
dig,370,948365,0.0-113.0-0.0,,,,,,,,,,,"[{""stimulus"":""run_exp/static/images/task_images/dig.jpg"",""time"":0.3999999761581421},{""stimulus"":""run_exp/static/images/task_images/land.jpg"",""time"":731.3999999761581},{""stimulus"":""run_exp/static/images/task_images/dig.jpg"",""time"":1451.5}]",[],15,,,,,,,,,,,,,,
harvest,371,949373,0.0-113.0-1.0,,null,run_exp/static/images/task_images/gems/42.jpg,null,,,,,,37,,,15,,,,,42,0.883715208,0.880952381,,,,,,,
decision,372,949519,0.0-113.0-2.0,,141.8,run_exp/static/images/task_images/land.jpg,76,,,,,,37,,,15,,,,,,,,263970,2,4,TRUE,,,
travel,373,959394,0.0-114.0-0.0,,,,,,,,,,,"[{""stimulus"":""run_exp/static/images/task_images/rocket-01.jpg"",""time"":0.10000002384185791},{""stimulus"":""run_exp/static/images/task_images/rocket-02.jpg"",""time"":1114.300000011921},{""stimulus"":""run_exp/static/images/task_images/rocket-03.jpg"",""time"":2204.800000011921},{""stimulus"":""run_exp/static/images/task_images/rocket-04.jpg"",""time"":3294},{""stimulus"":""run_exp/static/images/task_images/rocket-05.jpg"",""time"":4387.100000023842},{""stimulus"":""run_exp/static/images/task_images/rocket-06.jpg"",""time"":5487.100000023842},{""stimulus"":""run_exp/static/images/task_images/rocket-07.jpg"",""time"":6584.300000011921},{""stimulus"":""run_exp/static/images/task_images/rocket-08.jpg"",""time"":7684.600000023842},{""stimulus"":""run_exp/static/images/task_images/rocket-09.jpg"",""time"":8774.399999976158}]",[],15,,,,,,,,,,,,,,
alien_welcome,374,964403,0.0-114.0-1.0,,null,run_exp/static/images/task_images/aliens/old_aliens/planet/alien_planet-37.jpg,null,,,,,,,,,,,,37,"50,72,43,41,64,75,22,31,53,7,73,12,68,18,51,37,14,69,11,44,2,8,34,40,39,70,28,38,5,77,62,56,60,32,45,49,29,24",,,,,,,,,,
land,375,964913,0.0-114.0-2.0,,null,run_exp/static/images/task_images/land.jpg,null,,,,,,107,,,16,,,,,,,,,,,,,,
dig,376,966931,0.0-114.0-3.0,,,,,,,,,,,"[{""stimulus"":""run_exp/static/images/task_images/dig.jpg"",""time"":0.30000001192092896},{""stimulus"":""run_exp/static/images/task_images/land.jpg"",""time"":678.9000000357628},{""stimulus"":""run_exp/static/images/task_images/dig.jpg"",""time"":1346.199999988079}]",[],16,,,,,,,,,,,,,,
harvest,377,967954,0.0-114.0-4.0,,null,run_exp/static/images/task_images/gems/107.jpg,null,,,,,,57,,,16,,,,,107,0.535085381,0.53271028,,,,,,,
decision,378,968890,0.0-114.0-5.0,,932.4,run_exp/static/images/task_images/land.jpg,65,,,,,,57,,,16,,,,,,,,283340,2,0,FALSE,,,
dig,379,970984,0.0-115.0-0.0,,,,,,,,,,,"[{""stimulus"":""run_exp/static/images/task_images/dig.jpg"",""time"":0.40000003576278687},{""stimulus"":""run_exp/static/images/task_images/land.jpg"",""time"":698.2000000476837},{""stimulus"":""run_exp/static/images/task_images/dig.jpg"",""time"":1389.300000011921}]",[],16,,,,,,,,,,,,,,
harvest,380,972004,0.0-115.0-1.0,,null,run_exp/static/images/task_images/gems/57.jpg,null,,,,,,25,,,16,,,,,57,0.434947898,0.438596491,,,,,,,
decision,381,972993,0.0-115.0-2.0,,983.2,run_exp/static/images/task_images/land.jpg,76,,,,,,25,,,16,,,,,,,,287443,2,1,TRUE,,,
travel,382,982024,0.0-116.0-0.0,,,,,,,,,,,"[{""stimulus"":""run_exp/static/images/task_images/rocket-01.jpg"",""time"":0.30000001192092896},{""stimulus"":""run_exp/static/images/task_images/rocket-02.jpg"",""time"":1013.8000000119209},{""stimulus"":""run_exp/static/images/task_images/rocket-03.jpg"",""time"":2013.300000011921},{""stimulus"":""run_exp/static/images/task_images/rocket-04.jpg"",""time"":3013.600000023842},{""stimulus"":""run_exp/static/images/task_images/rocket-05.jpg"",""time"":4013.400000035763},{""stimulus"":""run_exp/static/images/task_images/rocket-06.jpg"",""time"":5013.300000011921},{""stimulus"":""run_exp/static/images/task_images/rocket-07.jpg"",""time"":6012.800000011921},{""stimulus"":""run_exp/static/images/task_images/rocket-08.jpg"",""time"":7012.800000011921},{""stimulus"":""run_exp/static/images/task_images/rocket-09.jpg"",""time"":8012.900000035763}]",[],16,,,,,,,,,,,,,,
alien_welcome,383,987054,0.0-116.0-1.0,,null,run_exp/static/images/task_images/aliens/old_aliens/planet/alien_planet-14.jpg,null,,,,,,,,,,,,14,"50,72,43,41,64,75,22,31,53,7,73,12,68,18,51,37,14,69,11,44,2,8,34,40,39,70,28,38,5,77,62,56,60,32,45,49,29,24",,,,,,,,,,
land,384,987567,0.0-116.0-2.0,,null,run_exp/static/images/task_images/land.jpg,null,,,,,,93,,,17,,,,,,,,,,,,,,
dig,385,989585,0.0-116.0-3.0,,,,,,,,,,,"[{""stimulus"":""run_exp/static/images/task_images/dig.jpg"",""time"":0.30000001192092896},{""stimulus"":""run_exp/static/images/task_images/land.jpg"",""time"":675.6000000238419},{""stimulus"":""run_exp/static/images/task_images/dig.jpg"",""time"":1339.6000000238419}]",[],17,,,,,,,,,,,,,,
harvest,386,990604,0.0-116.0-4.0,,null,run_exp/static/images/task_images/gems/93.jpg,null,,,,,,75,,,17,,,,,93,0.810126323,0.806451613,,,,,,,
decision,387,991133,0.0-116.0-5.0,,522.9,run_exp/static/images/task_images/land.jpg,65,,,,,,75,,,17,,,,,,,,305583,2,0,TRUE,,,
end_of_block_continue,388,1000056,0.0-117.0-0.0,,null,run_exp/static/audio/clip_32_block_end.m4a,,,,,,null,,,,,,,,,,,,,,,,,,
alien_welcome,389,1005080,0.0-118.0-0.0,,null,run_exp/static/images/task_images/aliens/old_aliens/planet/alien_planet-69.jpg,null,,,,,,,,,,,,69,"50,72,43,41,64,75,22,31,53,7,73,12,68,18,51,37,14,69,11,44,2,8,34,40,39,70,28,38,5,77,62,56,60,32,45,49,29,24",,,,,,,,,,
land,390,1005607,0.0-118.0-1.0,,null,run_exp/static/images/task_images/land.jpg,null,,,,,,105,,,18,,,,,,,,,,,,,,
dig,391,1007633,0.0-118.0-2.0,,,,,,,,,,,"[{""stimulus"":""run_exp/static/images/task_images/dig.jpg"",""time"":0.699999988079071},{""stimulus"":""run_exp/static/images/task_images/land.jpg"",""time"":669.7999999523163},{""stimulus"":""run_exp/static/images/task_images/dig.jpg"",""time"":1337.3999999761581}]",[],18,,,,,,,,,,,,,,
harvest,392,1008653,0.0-118.0-3.0,,null,run_exp/static/images/task_images/gems/105.jpg,null,,,,,,61,,,18,,,,,105,0.585200065,0.580952381,,,,,,,
decision,393,1009138,0.0-118.0-4.0,,481.9,run_exp/static/images/task_images/land.jpg,65,,,,,,61,,,18,,,,,,,,9072,3,0,FALSE,,,
dig,394,1011670,0.0-119.0-0.0,,,,,,,,,,,"[{""stimulus"":""run_exp/static/images/task_images/dig.jpg"",""time"":0.30000001192092896},{""stimulus"":""run_exp/static/images/task_images/land.jpg"",""time"":851.3000000119209},{""stimulus"":""run_exp/static/images/task_images/dig.jpg"",""time"":1701.699999988079}]",[],18,,,,,,,,,,,,,,
harvest,395,1012683,0.0-119.0-1.0,,null,run_exp/static/images/task_images/gems/61.jpg,null,,,,,,23,,,18,,,,,61,0.380267601,0.37704918,,,,,,,
decision,396,1013650,0.0-119.0-2.0,,964,run_exp/static/images/task_images/land.jpg,65,,,,,,23,,,18,,,,,,,,13584,3,1,FALSE,,,
dig,397,1015714,0.0-120.0-0.0,,,,,,,,,,,"[{""stimulus"":""run_exp/static/images/task_images/dig.jpg"",""time"":0.40000003576278687},{""stimulus"":""run_exp/static/images/task_images/land.jpg"",""time"":699.6000000238419},{""stimulus"":""run_exp/static/images/task_images/dig.jpg"",""time"":1361.4000000357628}]",[],18,,,,,,,,,,,,,,
harvest,398,1016730,0.0-120.0-1.0,,null,run_exp/static/images/task_images/gems/23.jpg,null,,,,,,13,,,18,,,,,23,0.574056478,0.565217391,,,,,,,
decision,399,1016949,0.0-120.0-2.0,,214.5,run_exp/static/images/task_images/land.jpg,76,,,,,,13,,,18,,,,,,,,16883,3,2,TRUE,,,
travel,400,1026764,0.0-121.0-0.0,,,,,,,,,,,"[{""stimulus"":""run_exp/static/images/task_images/rocket-01.jpg"",""time"":0.6000000238418579},{""stimulus"":""run_exp/static/images/task_images/rocket-02.jpg"",""time"":1100.300000011921},{""stimulus"":""run_exp/static/images/task_images/rocket-03.jpg"",""time"":2180.5},{""stimulus"":""run_exp/static/images/task_images/rocket-04.jpg"",""time"":3281},{""stimulus"":""run_exp/static/images/task_images/rocket-05.jpg"",""time"":4360.600000023842},{""stimulus"":""run_exp/static/images/task_images/rocket-06.jpg"",""time"":5439.699999988079},{""stimulus"":""run_exp/static/images/task_images/rocket-07.jpg"",""time"":6540.5},{""stimulus"":""run_exp/static/images/task_images/rocket-08.jpg"",""time"":7624.900000035763},{""stimulus"":""run_exp/static/images/task_images/rocket-09.jpg"",""time"":8699.900000035763}]",[],18,,,,,,,,,,,,,,
alien_welcome,401,1031774,0.0-121.0-1.0,,null,run_exp/static/images/task_images/aliens/old_aliens/planet/alien_planet-11.jpg,null,,,,,,,,,,,,11,"50,72,43,41,64,75,22,31,53,7,73,12,68,18,51,37,14,69,11,44,2,8,34,40,39,70,28,38,5,77,62,56,60,32,45,49,29,24",,,,,,,,,,
land,402,1032287,0.0-121.0-2.0,,null,run_exp/static/images/task_images/land.jpg,null,,,,,,95,,,19,,,,,,,,,,,,,,
dig,403,1034304,0.0-121.0-3.0,,,,,,,,,,,"[{""stimulus"":""run_exp/static/images/task_images/dig.jpg"",""time"":0.8999999761581421},{""stimulus"":""run_exp/static/images/task_images/land.jpg"",""time"":690.3000000119209},{""stimulus"":""run_exp/static/images/task_images/dig.jpg"",""time"":1347.800000011921}]",[],19,,,,,,,,,,,,,,
harvest,404,1035324,0.0-121.0-4.0,,null,run_exp/static/images/task_images/gems/95.jpg,null,,,,,,72,,,19,,,,,95,0.756934737,0.757894737,,,,,,,
decision,405,1035747,0.0-121.0-5.0,,417.6,run_exp/static/images/task_images/land.jpg,65,,,,,,72,,,19,,,,,,,,35681,3,0,FALSE,,,
dig,406,1038346,0.0-122.0-0.0,,,,,,,,,,,"[{""stimulus"":""run_exp/static/images/task_images/dig.jpg"",""time"":0.5},{""stimulus"":""run_exp/static/images/task_images/land.jpg"",""time"":864.8000000119209},{""stimulus"":""run_exp/static/images/task_images/dig.jpg"",""time"":1743.4000000357628}]",[],19,,,,,,,,,,,,,,
harvest,407,1039353,0.0-122.0-1.0,,null,run_exp/static/images/task_images/gems/72.jpg,null,,,,,,63,,,19,,,,,72,0.868278882,0.875,,,,,,,
decision,408,1039778,0.0-122.0-2.0,,422.2,run_exp/static/images/task_images/land.jpg,65,,,,,,63,,,19,,,,,,,,39712,3,1,FALSE,,,
dig,409,1042374,0.0-123.0-0.0,,,,,,,,,,,"[{""stimulus"":""run_exp/static/images/task_images/dig.jpg"",""time"":0.6000000238418579},{""stimulus"":""run_exp/static/images/task_images/land.jpg"",""time"":870.8000000119209},{""stimulus"":""run_exp/static/images/task_images/dig.jpg"",""time"":1731.800000011921}]",[],19,,,,,,,,,,,,,,
harvest,410,1043384,0.0-123.0-1.0,,null,run_exp/static/images/task_images/gems/63.jpg,null,,,,,,43,,,19,,,,,63,0.682080382,0.682539683,,,,,,,
decision,411,1043802,0.0-123.0-2.0,,415.4,run_exp/static/images/task_images/land.jpg,65,,,,,,43,,,19,,,,,,,,43736,3,2,FALSE,,,
dig,412,1046415,0.0-124.0-0.0,,,,,,,,,,,"[{""stimulus"":""run_exp/static/images/task_images/dig.jpg"",""time"":0.6000000238418579},{""stimulus"":""run_exp/static/images/task_images/land.jpg"",""time"":867.3000000119209},{""stimulus"":""run_exp/static/images/task_images/dig.jpg"",""time"":1737.1000000238419}]",[],19,,,,,,,,,,,,,,
harvest,413,1047428,0.0-124.0-1.0,,null,run_exp/static/images/task_images/gems/43.jpg,null,,,,,,36,,,19,,,,,43,0.848488036,0.837209302,,,,,,,
decision,414,1047672,0.0-124.0-2.0,,242.2,run_exp/static/images/task_images/land.jpg,65,,,,,,36,,,19,,,,,,,,47607,3,3,FALSE,,,
dig,415,1050455,0.0-125.0-0.0,,,,,,,,,,,"[{""stimulus"":""run_exp/static/images/task_images/dig.jpg"",""time"":0.19999998807907104},{""stimulus"":""run_exp/static/images/task_images/land.jpg"",""time"":925.8999999761581},{""stimulus"":""run_exp/static/images/task_images/dig.jpg"",""time"":1845.7999999523163}]",[],19,,,,,,,,,,,,,,
