trial_type,trial_index,time_elapsed,internal_node_id,success,rt,stimulus,key_press,prompt,subject_id,age,gender,button_pressed,next_reward,animation_sequence,responses,planet,curr_prac_trial,n_prac_rounds,alien,aliens,reward_received,decay_rate_actual,decay_rate_exp,time_in_block,block_num,prt,last_trial_on_planet,button_html,bonus,num_failures
pavlovia,0,4,0.0-0.0,,,,,,,,,,,,,,,,,,,,,,,,,,,
fullscreen,1,2470,0.0-1.0,TRUE,,,,,,,,,,,,,,,,,,,,,,,,,,
instruc_welcome,2,12237,0.0-2.0,,null,run_exp/static/audio/clip_1_welcome.m4a,null,"<p>Howdy! In this experiment, you’ll be an explorer traveling through space to collect space treasure.</p><p>Your mission is to collect as much treasure as possible.</p><br><br><p><img src='run_exp/static/images/task_images/opening_img-01.jpg' height='300' width='auto'></p>",tVphN4kLn5EdXBI_1Y3uCvx5VSxv8Zo_MLRP_3WR2wVzZCgWLbEi,17.23,male,,,,,,,,,,,,,,,,,,,
audio-keyboard-response,3,28811,0.0-3.0,,null,run_exp/static/audio/clip_2_move.m4a,null,,,,,,,,,,,,,,,,,,,,,,,
welcome_dec,4,35451,0.0-4.0,,6630.8,"<p>Howdy! In this experiment, you’ll be an explorer traveling through space to collect space treasure.</p><p>Your mission is to collect as much treasure as possible.</p><br><br><p><img src='run_exp/static/images/task_images/opening_img-01.jpg' height='300' width='auto'></p>",,,,,,1,,,,,,,,,,,,,,,,,,
html-keyboard-response,5,36634,0.0-5.0,,1178.9,"<p>Howdy! In this experiment, you’ll be an explorer traveling through space to collect space treasure.</p><p>Your mission is to collect as much treasure as possible.</p><br><br><p><img src='run_exp/static/images/task_images/opening_img-01.jpg' height='300' width='auto'></p><button class=""jspsych-html-btn-unchosen""><img src=""run_exp/static/images/task_images/planet-01.jpg"" height=""50""></button><button class=""jspsych-html-btn-chosen""><img src=""run_exp/static/images/task_images/planet-02.jpg"" height=""50""></button><p><b>[press the space bar to lock in your answer]<b><br></p>",32,,,,,,,,,,,,,,,,,,,,,,,
instruc_goal,6,46688,0.0-6.0-0.0,,null,run_exp/static/audio/clip_3_goal.m4a,null,"<p> As a space explorer, you’ll visit different planets to dig for space treasure, these pink gems.</p> <p> The more treasure you dig up, the more bonus money you’ll win! </p><br><br><p><img src='run_exp/static/images/task_images/pink_gem.jpg' height='300' width='auto'></p>",,,,,,,,,,,,,,,,,,,,,,
instruc_goal,7,50652,0.0-6.0-1.0,,3959.4,"<p> As a space explorer, you’ll visit different planets to dig for space treasure, these pink gems.</p> <p> The more treasure you dig up, the more bonus money you’ll win! </p><br><br><p><img src='run_exp/static/images/task_images/pink_gem.jpg' height='300' width='auto'></p>",,,,,,1,,,,,,,,,,,,,,,,,,
html-keyboard-response,8,51468,0.0-6.0-2.0,,813.4,"<p> As a space explorer, you’ll visit different planets to dig for space treasure, these pink gems.</p> <p> The more treasure you dig up, the more bonus money you’ll win! </p><br><br><p><img src='run_exp/static/images/task_images/pink_gem.jpg' height='300' width='auto'></p><button class=""jspsych-html-btn-unchosen""><img src=""run_exp/static/images/task_images/planet-01.jpg"" height=""50""></button><button class=""jspsych-html-btn-chosen""><img src=""run_exp/static/images/task_images/planet-02.jpg"" height=""50""></button><p><b>[press the space bar to lock in your answer]<b><br></p>",32,,,,,,,,,,,,,,,,,,,,,,,
instruc_dig,9,67467,0.0-7.0-0.0,,null,run_exp/static/audio/clip_4_dig.m4a,null,,,,,,100,,,,,,,,,,,,,,,,,
instruc_dig_try,10,68015,0.0-7.0-1.0,,545.4,"<p> When you’ve arrived at a new planet, you will dig once. </p> <p>Then, you get to decide if you want to stay on the planet and dig again or travel to a new planet and dig there.</p> <p> To stay and dig, press the letter <strong>‘A’</strong> on your keyboard. Try pressing it now! </p><p><img src='run_exp/static/images/task_images/land.jpg'  height='700' width='auto'></p>",65,"<p> When you’ve arrived at a new planet, you will dig once. </p> <p>Then, you get to decide if you want to stay on the planet and dig again or travel to a new planet and dig there.</p> <p> To stay and dig, press the letter <strong>‘A’</strong> on your keyboard. Try pressing it now! </p><p><img src='run_exp/static/images/task_images/land.jpg'  height='700' width='auto'></p>",,,,,100,,,,,,,,,,,,,,,,,
dig_prac,11,70036,0.0-7.0-2.0,,,,,,,,,,,"[{""stimulus"":""run_exp/static/images/task_images/dig.jpg"",""time"":0.5},{""stimulus"":""run_exp/static/images/task_images/land.jpg"",""time"":669.2999999970198},{""stimulus"":""run_exp/static/images/task_images/dig.jpg"",""time"":1338.8999999910593}]",[],,,,,,,,,,,,,,,
instruc_travel,12,106251,0.0-7.0-3.0,,null,run_exp/static/audio/clip_5_travel.m4a,null,"<p>Every time you dig up gems, there are less gems on the planet, so the more you dig on a planet the fewer gems you’ll get with each dig.</p><p>When gems are running low, you may want to travel to a new planet. </p> <p>  Planets are very far apart in this galaxy, so it will take some time to travel between them. </p> <br><p>There are lots and lots of planets for you to visit, so you won’t be able to return to any planets you’ve seen before. </p><br><p>To leave this planet and travel to a new one, press the letter <strong>‘L’</strong> on your keyboard. Try pressing it now! </p><p><img src='run_exp/static/images/task_images/rocket-01.jpg'  height='600' width='auto'></p>",,,,,,,,,,,,,,,,,,,,,,
instruc_travel_try,13,107860,0.0-7.0-4.0,,1606.2,"<p>Every time you dig up gems, there are less gems on the planet, so the more you dig on a planet the fewer gems you’ll get with each dig.</p><p>When gems are running low, you may want to travel to a new planet. </p> <p>  Planets are very far apart in this galaxy, so it will take some time to travel between them. </p> <br><p>There are lots and lots of planets for you to visit, so you won’t be able to return to any planets you’ve seen before. </p><br><p>To leave this planet and travel to a new one, press the letter <strong>‘L’</strong> on your keyboard. Try pressing it now! </p><p><img src='run_exp/static/images/task_images/rocket-01.jpg'  height='600' width='auto'></p>",76,"<p>Every time you dig up gems, there are less gems on the planet, so the more you dig on a planet the fewer gems you’ll get with each dig.</p><p>When gems are running low, you may want to travel to a new planet. </p> <p>  Planets are very far apart in this galaxy, so it will take some time to travel between them. </p> <br><p>There are lots and lots of planets for you to visit, so you won’t be able to return to any planets you’ve seen before. </p><br><p>To leave this planet and travel to a new one, press the letter <strong>‘L’</strong> on your keyboard. Try pressing it now! </p><p><img src='run_exp/static/images/task_images/rocket-01.jpg'  height='600' width='auto'></p>",,,,,,,,,,,,,,,,,,,,,,
travel_prac,14,117863,0.0-7.0-5.0,,,,,,,,,,,"[{""stimulus"":""run_exp/static/images/task_images/rocket-01.jpg"",""time"":0.4000000059604645},{""stimulus"":""run_exp/static/images/task_images/rocket-02.jpg"",""time"":1117.9000000059605},{""stimulus"":""run_exp/static/images/task_images/rocket-03.jpg"",""time"":2225.2000000029802},{""stimulus"":""run_exp/static/images/task_images/rocket-04.jpg"",""time"":3339.7000000029802},{""stimulus"":""run_exp/static/images/task_images/rocket-05.jpg"",""time"":4447.79999999702},{""stimulus"":""run_exp/static/images/task_images/rocket-06.jpg"",""time"":5557.9000000059605},{""stimulus"":""run_exp/static/images/task_images/rocket-07.jpg"",""time"":6673},{""stimulus"":""run_exp/static/images/task_images/rocket-08.jpg"",""time"":7779.79999999702},{""stimulus"":""run_exp/static/images/task_images/rocket-09.jpg"",""time"":8891.10000000894}]",[],0,,,,,,,,,,,,,,
instruc_alien_greet,15,145056,0.0-7.0-6.0,,null,run_exp/static/audio/clip_6_alien.m4a,null,"<p>When you arrive at a new planet, the alien who owns the treasure mine on that planet will greet you!</p><p>The better an alien takes care of their mine the easier it is to dig for gems. Some aliens take better care of their mine than others. So, you won’t get exactly the same amount of gems on each planet.</p><p>What the alien looks like does not tell you anything about how many gems there are on the planet.</p><br><p><img src=""run_exp/static/images/task_images/aliens/instructions_aliens/planet/alien_planet-1.jpg""  height=""600"" width=""auto""></p>",,,,,,,,,,,,,,,,,,,,,,
instruc_alien_greet,16,147944,0.0-7.0-7.0,,2883.6,"<p>When you arrive at a new planet, the alien who owns the treasure mine on that planet will greet you!</p><p>The better an alien takes care of their mine the easier it is to dig for gems. Some aliens take better care of their mine than others. So, you won’t get exactly the same amount of gems on each planet.</p><p>What the alien looks like does not tell you anything about how many gems there are on the planet.</p><br><p><img src=""run_exp/static/images/task_images/aliens/instructions_aliens/planet/alien_planet-1.jpg""  height=""600"" width=""auto""></p>",,,,,,1,,,,,,,,,,,,,,,,,,
html-keyboard-response,17,148610,0.0-7.0-8.0,,663,"<p>When you arrive at a new planet, the alien who owns the treasure mine on that planet will greet you!</p><p>The better an alien takes care of their mine the easier it is to dig for gems. Some aliens take better care of their mine than others. So, you won’t get exactly the same amount of gems on each planet.</p><p>What the alien looks like does not tell you anything about how many gems there are on the planet.</p><br><p><img src=""run_exp/static/images/task_images/aliens/instructions_aliens/planet/alien_planet-1.jpg""  height=""600"" width=""auto""></p><button class=""jspsych-html-btn-unchosen""><img src=""run_exp/static/images/task_images/planet-01.jpg"" height=""50""></button><button class=""jspsych-html-btn-chosen""><img src=""run_exp/static/images/task_images/planet-02.jpg"" height=""50""></button><p><b>[press the space bar to lock in your answer]<b><br></p>",32,,,,,,,,,,,,,,,,,,,,,,,
time_out,18,159691,0.0-8.0-0.0,,null,run_exp/static/audio/clip_7_timeout.m4a,null,"<p>If you don't make your choice fast enough, you’ll have to wait a few seconds before you can make another one.</p><p>You can’t dig for more gems or travel to new planets. You just have to sit and wait.</p><br><p><img src='run_exp/static/images/task_images/time_out.jpg'  height='600' width='auto'></p>",,,,,,,,,,,,,,,,,,,,,,
time_out,19,162979,0.0-8.0-1.0,,3284.4,"<p>If you don't make your choice fast enough, you’ll have to wait a few seconds before you can make another one.</p><p>You can’t dig for more gems or travel to new planets. You just have to sit and wait.</p><br><p><img src='run_exp/static/images/task_images/time_out.jpg'  height='600' width='auto'></p>",,,,,,1,,,,,,,,,,,,,,,,,,
html-keyboard-response,20,163208,0.0-8.0-2.0,,226,"<p>If you don't make your choice fast enough, you’ll have to wait a few seconds before you can make another one.</p><p>You can’t dig for more gems or travel to new planets. You just have to sit and wait.</p><br><p><img src='run_exp/static/images/task_images/time_out.jpg'  height='600' width='auto'></p><button class=""jspsych-html-btn-unchosen""><img src=""run_exp/static/images/task_images/planet-01.jpg"" height=""50""></button><button class=""jspsych-html-btn-chosen""><img src=""run_exp/static/images/task_images/planet-02.jpg"" height=""50""></button><p><b>[press the space bar to lock in your answer]<b><br></p>",32,,,,,,,,,,,,,,,,,,,,,,,
instruc_break,21,178869,0.0-9.0-0.0,,null,run_exp/static/audio/clip_8_break.m4a,null,"<p> After digging and traveling for a while, you’ll be able to take a break at home base. </p><p>The game will last 20 minutes no matter what.</p><p>You will visit home base every 5 minutes, so, you will visit home base three times during the game.</p><br><p><img src='run_exp/static/images/task_images/home_base.jpg' height='600' width='auto'></p>",,,,,,,,,,,,,,,,,,,,,,
instruc_break,22,180721,0.0-9.0-1.0,,1847.7,"<p> After digging and traveling for a while, you’ll be able to take a break at home base. </p><p>The game will last 20 minutes no matter what.</p><p>You will visit home base every 5 minutes, so, you will visit home base three times during the game.</p><br><p><img src='run_exp/static/images/task_images/home_base.jpg' height='600' width='auto'></p>",,,,,,1,,,,,,,,,,,,,,,,,,
html-keyboard-response,23,180844,0.0-9.0-2.0,,120.5,"<p> After digging and traveling for a while, you’ll be able to take a break at home base. </p><p>The game will last 20 minutes no matter what.</p><p>You will visit home base every 5 minutes, so, you will visit home base three times during the game.</p><br><p><img src='run_exp/static/images/task_images/home_base.jpg' height='600' width='auto'></p><button class=""jspsych-html-btn-unchosen""><img src=""run_exp/static/images/task_images/planet-01.jpg"" height=""50""></button><button class=""jspsych-html-btn-chosen""><img src=""run_exp/static/images/task_images/planet-02.jpg"" height=""50""></button><p><b>[press the space bar to lock in your answer]<b><br></p>",32,,,,,,,,,,,,,,,,,,,,,,,
instruc_prac_game,24,190965,0.0-10.0-0.0,,null,run_exp/static/audio/clip_9_practice.m4a,null,"<p> Are you ready to play a practice game? </p> <p>In this practice game, you'll be digging up barrels of gems. But, in the real game, you'll be digging up the gems themselves. </p>",,,,,,,,,,,,,,,,,,,,,,
html-button-response,25,192285,0.0-10.0-1.0,,1316.7,"<p> Are you ready to play a practice game? </p> <p>In this practice game, you'll be digging up barrels of gems. But, in the real game, you'll be digging up the gems themselves. </p>",,,,,,0,,,,,,,,,,,,,,,,,,
alien_welcome_prac,26,197290,0.0-11.0-0.0,,null,run_exp/static/images/task_images/aliens/practice_aliens/planet/alien_planet-5.jpg,null,,,,,,,,,,,,,,,,,,,,,,,
land_prac,27,197796,0.0-11.0-1.0,,null,run_exp/static/images/task_images/land.jpg,null,,,,,,98,,,0,,,,,,,,,,,,,,
dig_prac,28,199807,0.0-11.0-2.0,,,,,,,,,,,"[{""stimulus"":""run_exp/static/images/task_images/dig.jpg"",""time"":0.6000000089406967},{""stimulus"":""run_exp/static/images/task_images/land.jpg"",""time"":674},{""stimulus"":""run_exp/static/images/task_images/dig.jpg"",""time"":1340.1000000089407}]",[],,,,,,,,,,,,,,,
harvest_prac,29,200814,0.0-11.0-3.0,,null,run_exp/static/images/task_images/barrel_text.jpg,null,,,,,,,,,,,,,,,,,,,,,,,
decision_prac,30,201282,0.0-11.0-4.0,,465.3,run_exp/static/images/task_images/land.jpg,65,,,,,,,,,,1,,,,,,,,,,,,,
dig_prac,31,203289,0.0-12.0-0.0,,,,,,,,,,,"[{""stimulus"":""run_exp/static/images/task_images/dig.jpg"",""time"":0.29999999701976776},{""stimulus"":""run_exp/static/images/task_images/land.jpg"",""time"":669.7999999970198},{""stimulus"":""run_exp/static/images/task_images/dig.jpg"",""time"":1336.1000000089407}]",[],,,,,,,,,,,,,,,
harvest_prac,32,204296,0.0-12.0-1.0,,null,run_exp/static/images/task_images/barrel_text.jpg,null,,,,,,,,,,,,,,,,,,,,,,,
decision_prac,33,204359,0.0-12.0-2.0,,60.30000001,run_exp/static/images/task_images/land.jpg,65,,,,,,,,,,2,,,,,,,,,,,,,
dig_prac,34,206367,0.0-13.0-0.0,,,,,,,,,,,"[{""stimulus"":""run_exp/static/images/task_images/dig.jpg"",""time"":0.3999999910593033},{""stimulus"":""run_exp/static/images/task_images/land.jpg"",""time"":674},{""stimulus"":""run_exp/static/images/task_images/dig.jpg"",""time"":1340.7999999970198}]",[],,,,,,,,,,,,,,,
harvest_prac,35,207372,0.0-13.0-1.0,,null,run_exp/static/images/task_images/barrel_text.jpg,null,,,,,,,,,,,,,,,,,,,,,,,
decision_prac,36,207784,0.0-13.0-2.0,,410.6,run_exp/static/images/task_images/land.jpg,65,,,,,,,,,,3,,,,,,,,,,,,,
dig_prac,37,209791,0.0-14.0-0.0,,,,,,,,,,,"[{""stimulus"":""run_exp/static/images/task_images/dig.jpg"",""time"":0.10000000894069672},{""stimulus"":""run_exp/static/images/task_images/land.jpg"",""time"":673.8000000119209},{""stimulus"":""run_exp/static/images/task_images/dig.jpg"",""time"":1339.9000000059605}]",[],,,,,,,,,,,,,,,
harvest_prac,38,210793,0.0-14.0-1.0,,null,run_exp/static/images/task_images/barrel_text.jpg,null,,,,,,,,,,,,,,,,,,,,,,,
decision_prac,39,210946,0.0-14.0-2.0,,150.8,run_exp/static/images/task_images/land.jpg,65,,,,,,,,,,4,,,,,,,,,,,,,
dig_prac,40,212959,0.0-15.0-0.0,,,,,,,,,,,"[{""stimulus"":""run_exp/static/images/task_images/dig.jpg"",""time"":0.20000000298023224},{""stimulus"":""run_exp/static/images/task_images/land.jpg"",""time"":673.5},{""stimulus"":""run_exp/static/images/task_images/dig.jpg"",""time"":1335.8999999910593}]",[],,,,,,,,,,,,,,,
harvest_prac,41,213966,0.0-15.0-1.0,,null,run_exp/static/images/task_images/barrel_text.jpg,null,,,,,,,,,,,,,,,,,,,,,,,
decision_prac,42,214122,0.0-15.0-2.0,,154,run_exp/static/images/task_images/land.jpg,65,,,,,,,,,,,1,,,,,,,,,,,,
quiz_instruc,43,216812,0.0-16.0-0.0,,2683.4,run_exp/static/audio/clip_10_quiz.m4a,,,,,,0,,,,,,,,,,,,,,,,,,
instruc_repeat,44,259574,0.0-16.0-1.0,,null,"<p> Are you ready to play a practice game? </p> <p>In this practice game, you'll be digging up barrels of gems. But, in the real game, you'll be digging up the gems themselves. </p>",null,"<p>In this game, your goal is to collect as many gems as you can. That’s how you will win bonus money. </p> <p>The entire game will last 20 minutes no matter how many gems you collect or how many planets you visit. </p><p>To stay on a planet and dig again, press the letter A on your keyboard. To leave for a new planet, press the letter L.</p><p>The more you dig on a planet, the fewer gems you’ll get with each dig which is why you might consider leaving for a new planet. </p><p>When you arrive at a new planet, you’ll be greeted by an alien. What the alien looks like does not tell you anything about how much treasure is on the planet. </p>",,,,,,,,,,,,,,,,,,,,,,
instruc_repeat_continue,45,260626,0.0-16.0-2.0,,1050.1,"<p> Are you ready to play a practice game? </p> <p>In this practice game, you'll be digging up barrels of gems. But, in the real game, you'll be digging up the gems themselves. </p>",,,,,,0,,,,,,,,,,,,,,,,,,
quiz_q_1_ask,46,263224,0.0-16.0-3.0,,2596.3,run_exp/static/audio/clip_11_q1_ask.m4a,,,,,,2,,,,,,,,,,,,,,,,,,
quiz_q_1_fb_correct,47,267061,0.0-17.0-0.0,,null,run_exp/static/audio/clip_12_q1_corrrect.m4a,null,<p>That’s correct. You win extra money by collecting more gems.</p>,,,,,,,,,,,,,,,,,,,,,,
quiz_q_2_ask,48,268879,0.0-17.0-1.0,,1814,run_exp/static/audio/clip_14_q2_ask.m4a,,,,,,1,,,,,,,,,,,,,,,,,,
quiz_q_2_fb_correct,49,272864,0.0-18.0-0.0,,null,run_exp/static/audio/clip_15_q2_correct.m4a,null,<p>That’s correct. The experiment is 20 minutes no matter what.</p>,,,,,,,,,,,,,,,,,,,,,,
quiz_q_3_ask,50,274552,0.0-18.0-1.0,,1685.6,run_exp/static/audio/clip_17_q3_ask.m4a,,,,,,1,,,,,,,,,,,,,,,,,,
quiz_q_3_fb_correct,51,278517,0.0-19.0-0.0,,null,run_exp/static/audio/clip_18_q3_correct.m4a,null,<p> That’s correct. You press the letter L to travel to a new planet.</p>,,,,,,,,,,,,,,,,,,,,,,
quiz_q_4_ask,52,280922,0.0-19.0-1.0,,2401.1,run_exp/static/audio/clip_20_q4_ask.m4a,,,,,,0,,,,,,,,,,,,,,,,,,
quiz_q_4_fb_correct,53,286240,0.0-20.0-0.0,,null,run_exp/static/audio/clip_21_q4_correct.m4a,null,<p> That’s correct. The more you dig on a planet the fewer gems you’ll get with each dig. </p>,,,,,,,,,,,,,,,,,,,,,,
quiz_q_5_ask,54,288137,0.0-20.0-1.0,,1893.6,run_exp/static/audio/clip_23_q5_ask.m4a,,,,,,1,,,,,,,,,,,,,,,,,,
quiz_q_5_fb_correct,55,293131,0.0-21.0-0.0,,null,run_exp/static/audio/clip_24_q5_correct.m4a,null,<p> That’s correct. The alien tells you nothing about how much treasure is on the planet.</p>,,,,,,,,,,,,,,,,,,,,,,
quiz_correct,56,296587,0.0-22.0-0.0,,null,run_exp/static/audio/clip_26_correct_quiz.m4a,null,,,,,,,,,,,,,,,,,,,,,,,
quiz_correct_continue,57,297466,0.0-22.0-1.0,,874.5,<p>Good job! You're now ready to move on to the real game!</p>,,,,,,0,,,,,,,,,,,,,,,,,,
audio-keyboard-response,58,307573,0.0-22.0-2.0,,null,run_exp/static/audio/clip_28_real_game.m4a,null,,,,,,,,,,,,,,,,,,,,,,,
instruc_begin_exp_contine,59,308403,0.0-22.0-3.0,,827.3,"<p>Now that you know how  to dig for space treasure and travel to new planets,you can start exploring! </p><p>Do you want to go over the instructions again or get started with the real game?</p>",,,,,,1,,,,,,1,,,,,,,,,,,,
alien_welcome,60,313413,0.0-23.0-0.0,,null,run_exp/static/images/task_images/aliens/old_aliens/planet/alien_planet-44.jpg,null,,,,,,,,,,,,44,"44,50,77,22,16,17,38,12,18,78,74,40,11,52,1,20,62,73,54,26,32,7,47,31,63,69,65,53,24,3,51,68,5,41,10,48,61,70,39,14,34",,,,,,,,,,
land,61,313921,0.0-23.0-1.0,,null,run_exp/static/images/task_images/land.jpg,null,,,,,,104,,,1,,,,,,,,,,,,,,
dig,62,315932,0.0-23.0-2.0,,,,,,,,,,,"[{""stimulus"":""run_exp/static/images/task_images/dig.jpg"",""time"":0.5},{""stimulus"":""run_exp/static/images/task_images/land.jpg"",""time"":674.1000000089407},{""stimulus"":""run_exp/static/images/task_images/dig.jpg"",""time"":1340.2999999970198}]",[],1,,,,,,,,,,,,,,
harvest,63,316936,0.0-23.0-3.0,,null,run_exp/static/images/task_images/gems/104.jpg,null,,,,,,26,,,1,,,,,104,0.251444467,0.25,,,,,,,
decision,64,317125,0.0-23.0-4.0,,186.1,run_exp/static/images/task_images/land.jpg,65,,,,,,26,,,1,,,,,,,,8720,1,0,FALSE,,,
dig,65,319949,0.0-24.0-0.0,,,,,,,,,,,"[{""stimulus"":""run_exp/static/images/task_images/dig.jpg"",""time"":0.5},{""stimulus"":""run_exp/static/images/task_images/land.jpg"",""time"":943.7999999970198},{""stimulus"":""run_exp/static/images/task_images/dig.jpg"",""time"":1876.2000000029802}]",[],1,,,,,,,,,,,,,,
harvest,66,320954,0.0-24.0-1.0,,null,run_exp/static/images/task_images/gems/26.jpg,null,,,,,,4,,,1,,,,,26,0.143409588,0.153846154,,,,,,,
decision,67,321132,0.0-24.0-2.0,,175.2,run_exp/static/images/task_images/land.jpg,65,,,,,,4,,,1,,,,,,,,12727,1,1,FALSE,,,
dig,68,323967,0.0-25.0-0.0,,,,,,,,,,,"[{""stimulus"":""run_exp/static/images/task_images/dig.jpg"",""time"":0.20000000298023224},{""stimulus"":""run_exp/static/images/task_images/land.jpg"",""time"":946},{""stimulus"":""run_exp/static/images/task_images/dig.jpg"",""time"":1887.0999999940395}]",[],1,,,,,,,,,,,,,,
harvest,69,324971,0.0-25.0-1.0,,null,run_exp/static/images/task_images/gems/4.jpg,null,,,,,,1,,,1,,,,,4,0.13894368,0.25,,,,,,,
decision,70,325084,0.0-25.0-2.0,,110.6,run_exp/static/images/task_images/land.jpg,76,,,,,,1,,,1,,,,,,,,16678,1,2,TRUE,,,
travel,71,334978,0.0-26.0-0.0,,,,,,,,,,,"[{""stimulus"":""run_exp/static/images/task_images/rocket-01.jpg"",""time"":0.29999999701976776},{""stimulus"":""run_exp/static/images/task_images/rocket-02.jpg"",""time"":1101.0999999940395},{""stimulus"":""run_exp/static/images/task_images/rocket-03.jpg"",""time"":2202.5},{""stimulus"":""run_exp/static/images/task_images/rocket-04.jpg"",""time"":3298.2999999970198},{""stimulus"":""run_exp/static/images/task_images/rocket-05.jpg"",""time"":4397.0999999940395},{""stimulus"":""run_exp/static/images/task_images/rocket-06.jpg"",""time"":5494.79999999702},{""stimulus"":""run_exp/static/images/task_images/rocket-07.jpg"",""time"":6592.199999988079},{""stimulus"":""run_exp/static/images/task_images/rocket-08.jpg"",""time"":7688.29999999702},{""stimulus"":""run_exp/static/images/task_images/rocket-09.jpg"",""time"":8790.29999999702}]",[],1,,,,,,,,,,,,,,
alien_welcome,72,339986,0.0-26.0-1.0,,null,run_exp/static/images/task_images/aliens/old_aliens/planet/alien_planet-50.jpg,null,,,,,,,,,,,,50,"44,50,77,22,16,17,38,12,18,78,74,40,11,52,1,20,62,73,54,26,32,7,47,31,63,69,65,53,24,3,51,68,5,41,10,48,61,70,39,14,34",,,,,,,,,,
land,73,340494,0.0-26.0-2.0,,null,run_exp/static/images/task_images/land.jpg,null,,,,,,100,,,2,,,,,,,,,,,,,,
dig,74,342502,0.0-26.0-3.0,,,,,,,,,,,"[{""stimulus"":""run_exp/static/images/task_images/dig.jpg"",""time"":0.800000011920929},{""stimulus"":""run_exp/static/images/task_images/land.jpg"",""time"":670.4000000059605},{""stimulus"":""run_exp/static/images/task_images/dig.jpg"",""time"":1336.9000000059605}]",[],2,,,,,,,,,,,,,,
harvest,75,343510,0.0-26.0-4.0,,null,run_exp/static/images/task_images/gems/100.jpg,null,,,,,,21,,,2,,,,,100,0.214164136,0.21,,,,,,,
decision,76,343512,0.0-26.0-5.0,,0.400000006,run_exp/static/images/task_images/land.jpg,65,,,,,,21,,,2,,,,,,,,35107,1,0,FALSE,,,
dig,77,346519,0.0-27.0-0.0,,,,,,,,,,,"[{""stimulus"":""run_exp/static/images/task_images/dig.jpg"",""time"":0.20000000298023224},{""stimulus"":""run_exp/static/images/task_images/land.jpg"",""time"":1005.4000000059605},{""stimulus"":""run_exp/static/images/task_images/dig.jpg"",""time"":1999.6000000089407}]",[],2,,,,,,,,,,,,,,
harvest,78,347522,0.0-27.0-1.0,,null,run_exp/static/images/task_images/gems/21.jpg,null,,,,,,3,,,2,,,,,21,0.152133535,0.142857143,,,,,,,
decision,79,347644,0.0-27.0-2.0,,118.6,run_exp/static/images/task_images/land.jpg,65,,,,,,3,,,2,,,,,,,,39238,1,1,FALSE,,,
dig,80,350533,0.0-28.0-0.0,,,,,,,,,,,"[{""stimulus"":""run_exp/static/images/task_images/dig.jpg"",""time"":0.19999998807907104},{""stimulus"":""run_exp/static/images/task_images/land.jpg"",""time"":966.1999999880791},{""stimulus"":""run_exp/static/images/task_images/dig.jpg"",""time"":1921.199999988079}]",[],2,,,,,,,,,,,,,,
harvest,81,351537,0.0-28.0-1.0,,null,run_exp/static/images/task_images/gems/3.jpg,null,,,,,,1,,,2,,,,,3,0.268732054,0.333333333,,,,,,,
decision,82,351703,0.0-28.0-2.0,,163.6,run_exp/static/images/task_images/land.jpg,76,,,,,,1,,,2,,,,,,,,43297,1,2,TRUE,,,
travel,83,361541,0.0-29.0-0.0,,,,,,,,,,,"[{""stimulus"":""run_exp/static/images/task_images/rocket-01.jpg"",""time"":0.20000000298023224},{""stimulus"":""run_exp/static/images/task_images/rocket-02.jpg"",""time"":1098.3999999910593},{""stimulus"":""run_exp/static/images/task_images/rocket-03.jpg"",""time"":2184.7999999970198},{""stimulus"":""run_exp/static/images/task_images/rocket-04.jpg"",""time"":3277.7999999970198},{""stimulus"":""run_exp/static/images/task_images/rocket-05.jpg"",""time"":4374.5},{""stimulus"":""run_exp/static/images/task_images/rocket-06.jpg"",""time"":5464.29999999702},{""stimulus"":""run_exp/static/images/task_images/rocket-07.jpg"",""time"":6557.29999999702},{""stimulus"":""run_exp/static/images/task_images/rocket-08.jpg"",""time"":7647.70000000298},{""stimulus"":""run_exp/static/images/task_images/rocket-09.jpg"",""time"":8741.59999999404}]",[],2,,,,,,,,,,,,,,
alien_welcome,84,366549,0.0-29.0-1.0,,null,run_exp/static/images/task_images/aliens/old_aliens/planet/alien_planet-77.jpg,null,,,,,,,,,,,,77,"44,50,77,22,16,17,38,12,18,78,74,40,11,52,1,20,62,73,54,26,32,7,47,31,63,69,65,53,24,3,51,68,5,41,10,48,61,70,39,14,34",,,,,,,,,,
land,85,367056,0.0-29.0-2.0,,null,run_exp/static/images/task_images/land.jpg,null,,,,,,101,,,3,,,,,,,,,,,,,,
dig,86,369063,0.0-29.0-3.0,,,,,,,,,,,"[{""stimulus"":""run_exp/static/images/task_images/dig.jpg"",""time"":0.5999999940395355},{""stimulus"":""run_exp/static/images/task_images/land.jpg"",""time"":671.5999999940395},{""stimulus"":""run_exp/static/images/task_images/dig.jpg"",""time"":1338.0999999940395}]",[],3,,,,,,,,,,,,,,
harvest,87,370067,0.0-29.0-4.0,,null,run_exp/static/images/task_images/gems/101.jpg,null,,,,,,46,,,3,,,,,101,0.454058589,0.455445545,,,,,,,
decision,88,370243,0.0-29.0-5.0,,173.2,run_exp/static/images/task_images/land.jpg,65,,,,,,46,,,3,,,,,,,,61837,1,0,FALSE,,,
dig,89,373078,0.0-30.0-0.0,,,,,,,,,,,"[{""stimulus"":""run_exp/static/images/task_images/dig.jpg"",""time"":0.09999999403953552},{""stimulus"":""run_exp/static/images/task_images/land.jpg"",""time"":946.2999999970198},{""stimulus"":""run_exp/static/images/task_images/dig.jpg"",""time"":1889.7000000029802}]",[],3,,,,,,,,,,,,,,
harvest,90,374088,0.0-30.0-1.0,,null,run_exp/static/images/task_images/gems/46.jpg,null,,,,,,18,,,3,,,,,46,0.398194227,0.391304348,,,,,,,
decision,91,374140,0.0-30.0-2.0,,48.90000001,run_exp/static/images/task_images/land.jpg,65,,,,,,18,,,3,,,,,,,,65734,1,1,FALSE,,,
dig,92,377096,0.0-31.0-0.0,,,,,,,,,,,"[{""stimulus"":""run_exp/static/images/task_images/dig.jpg"",""time"":0},{""stimulus"":""run_exp/static/images/task_images/land.jpg"",""time"":989.3999999910593},{""stimulus"":""run_exp/static/images/task_images/dig.jpg"",""time"":1972.2999999970198}]",[],3,,,,,,,,,,,,,,
harvest,93,378099,0.0-31.0-1.0,,null,run_exp/static/images/task_images/gems/18.jpg,null,,,,,,10,,,3,,,,,18,0.558769556,0.555555556,,,,,,,
decision,94,378208,0.0-31.0-2.0,,106.3,run_exp/static/images/task_images/land.jpg,76,,,,,,10,,,3,,,,,,,,69803,1,2,TRUE,,,
travel,95,388106,0.0-32.0-0.0,,,,,,,,,,,"[{""stimulus"":""run_exp/static/images/task_images/rocket-01.jpg"",""time"":0.29999999701976776},{""stimulus"":""run_exp/static/images/task_images/rocket-02.jpg"",""time"":1103.6000000089407},{""stimulus"":""run_exp/static/images/task_images/rocket-03.jpg"",""time"":2204.5},{""stimulus"":""run_exp/static/images/task_images/rocket-04.jpg"",""time"":3303.6000000089407},{""stimulus"":""run_exp/static/images/task_images/rocket-05.jpg"",""time"":4399},{""stimulus"":""run_exp/static/images/task_images/rocket-06.jpg"",""time"":5501.100000008941},{""stimulus"":""run_exp/static/images/task_images/rocket-07.jpg"",""time"":6600.5},{""stimulus"":""run_exp/static/images/task_images/rocket-08.jpg"",""time"":7698.20000000298},{""stimulus"":""run_exp/static/images/task_images/rocket-09.jpg"",""time"":8795.40000000596}]",[],3,,,,,,,,,,,,,,
alien_welcome,96,393110,0.0-32.0-1.0,,null,run_exp/static/images/task_images/aliens/old_aliens/planet/alien_planet-22.jpg,null,,,,,,,,,,,,22,"44,50,77,22,16,17,38,12,18,78,74,40,11,52,1,20,62,73,54,26,32,7,47,31,63,69,65,53,24,3,51,68,5,41,10,48,61,70,39,14,34",,,,,,,,,,
land,97,393617,0.0-32.0-2.0,,null,run_exp/static/images/task_images/land.jpg,null,,,,,,109,,,4,,,,,,,,,,,,,,
dig,98,395628,0.0-32.0-3.0,,,,,,,,,,,"[{""stimulus"":""run_exp/static/images/task_images/dig.jpg"",""time"":0.5999999940395355},{""stimulus"":""run_exp/static/images/task_images/land.jpg"",""time"":673.0999999940395},{""stimulus"":""run_exp/static/images/task_images/dig.jpg"",""time"":1340.0999999940395}]",[],4,,,,,,,,,,,,,,
harvest,99,396633,0.0-32.0-4.0,,null,run_exp/static/images/task_images/gems/109.jpg,null,,,,,,54,,,4,,,,,109,0.496421915,0.495412844,,,,,,,
decision,100,396649,0.0-32.0-5.0,,13.69999999,run_exp/static/images/task_images/land.jpg,65,,,,,,54,,,4,,,,,,,,88243,1,0,FALSE,,,
dig,101,399641,0.0-33.0-0.0,,,,,,,,,,,"[{""stimulus"":""run_exp/static/images/task_images/dig.jpg"",""time"":0.10000000894069672},{""stimulus"":""run_exp/static/images/task_images/land.jpg"",""time"":1001.4000000059605},{""stimulus"":""run_exp/static/images/task_images/dig.jpg"",""time"":1995.4000000059605}]",[],4,,,,,,,,,,,,,,
harvest,102,400646,0.0-33.0-1.0,,null,run_exp/static/images/task_images/gems/54.jpg,null,,,,,,32,,,4,,,,,54,0.591138865,0.592592593,,,,,,,
decision,103,400790,0.0-33.0-2.0,,141.6,run_exp/static/images/task_images/land.jpg,65,,,,,,32,,,4,,,,,,,,92384,1,1,FALSE,,,
dig,104,403657,0.0-34.0-0.0,,,,,,,,,,,"[{""stimulus"":""run_exp/static/images/task_images/dig.jpg"",""time"":0.29999999701976776},{""stimulus"":""run_exp/static/images/task_images/land.jpg"",""time"":958.5},{""stimulus"":""run_exp/static/images/task_images/dig.jpg"",""time"":1910.7000000029802}]",[],4,,,,,,,,,,,,,,
harvest,105,404663,0.0-34.0-1.0,,null,run_exp/static/images/task_images/gems/32.jpg,null,,,,,,16,,,4,,,,,32,0.49919195,0.5,,,,,,,
decision,106,404717,0.0-34.0-2.0,,51.90000001,run_exp/static/images/task_images/land.jpg,65,,,,,,16,,,4,,,,,,,,96311,1,2,FALSE,,,
dig,107,407673,0.0-35.0-0.0,,,,,,,,,,,"[{""stimulus"":""run_exp/static/images/task_images/dig.jpg"",""time"":0.09999999403953552},{""stimulus"":""run_exp/static/images/task_images/land.jpg"",""time"":987.5999999940395},{""stimulus"":""run_exp/static/images/task_images/dig.jpg"",""time"":1965.699999988079}]",[],4,,,,,,,,,,,,,,
harvest,108,408680,0.0-35.0-1.0,,null,run_exp/static/images/task_images/gems/16.jpg,null,,,,,,9,,,4,,,,,16,0.590767073,0.5625,,,,,,,
decision,109,408749,0.0-35.0-2.0,,65.89999999,run_exp/static/images/task_images/land.jpg,76,,,,,,9,,,4,,,,,,,,100343,1,3,TRUE,,,
travel,110,418687,0.0-36.0-0.0,,,,,,,,,,,"[{""stimulus"":""run_exp/static/images/task_images/rocket-01.jpg"",""time"":0.20000000298023224},{""stimulus"":""run_exp/static/images/task_images/rocket-02.jpg"",""time"":1106},{""stimulus"":""run_exp/static/images/task_images/rocket-03.jpg"",""time"":2208.7999999970198},{""stimulus"":""run_exp/static/images/task_images/rocket-04.jpg"",""time"":3310.5999999940395},{""stimulus"":""run_exp/static/images/task_images/rocket-05.jpg"",""time"":4413.5999999940395},{""stimulus"":""run_exp/static/images/task_images/rocket-06.jpg"",""time"":5517.5},{""stimulus"":""run_exp/static/images/task_images/rocket-07.jpg"",""time"":6620.20000000298},{""stimulus"":""run_exp/static/images/task_images/rocket-08.jpg"",""time"":7727.5999999940395},{""stimulus"":""run_exp/static/images/task_images/rocket-09.jpg"",""time"":8830.59999999404}]",[],4,,,,,,,,,,,,,,
alien_welcome,111,423694,0.0-36.0-1.0,,null,run_exp/static/images/task_images/aliens/old_aliens/planet/alien_planet-16.jpg,null,,,,,,,,,,,,16,"44,50,77,22,16,17,38,12,18,78,74,40,11,52,1,20,62,73,54,26,32,7,47,31,63,69,65,53,24,3,51,68,5,41,10,48,61,70,39,14,34",,,,,,,,,,
land,112,424196,0.0-36.0-2.0,,null,run_exp/static/images/task_images/land.jpg,null,,,,,,99,,,5,,,,,,,,,,,,,,
dig,113,426205,0.0-36.0-3.0,,,,,,,,,,,"[{""stimulus"":""run_exp/static/images/task_images/dig.jpg"",""time"":0.7000000029802322},{""stimulus"":""run_exp/static/images/task_images/land.jpg"",""time"":674.1000000089407},{""stimulus"":""run_exp/static/images/task_images/dig.jpg"",""time"":1340.7999999970198}]",[],5,,,,,,,,,,,,,,
harvest,114,427213,0.0-36.0-4.0,,null,run_exp/static/images/task_images/gems/99.jpg,null,,,,,,49,,,5,,,,,99,0.496847488,0.494949495,,,,,,,
decision,115,427337,0.0-36.0-5.0,,122,run_exp/static/images/task_images/land.jpg,65,,,,,,49,,,5,,,,,,,,118931,1,0,FALSE,,,
dig,116,430225,0.0-37.0-0.0,,,,,,,,,,,"[{""stimulus"":""run_exp/static/images/task_images/dig.jpg"",""time"":0.20000000298023224},{""stimulus"":""run_exp/static/images/task_images/land.jpg"",""time"":962.0999999940395},{""stimulus"":""run_exp/static/images/task_images/dig.jpg"",""time"":1921.7999999970198}]",[],5,,,,,,,,,,,,,,
harvest,117,431229,0.0-37.0-1.0,,null,run_exp/static/images/task_images/gems/49.jpg,null,,,,,,23,,,5,,,,,49,0.469060193,0.469387755,,,,,,,
decision,118,431380,0.0-37.0-2.0,,148.5,run_exp/static/images/task_images/land.jpg,65,,,,,,23,,,5,,,,,,,,122974,1,1,FALSE,,,
dig,119,434241,0.0-38.0-0.0,,,,,,,,,,,"[{""stimulus"":""run_exp/static/images/task_images/dig.jpg"",""time"":0.29999999701976776},{""stimulus"":""run_exp/static/images/task_images/land.jpg"",""time"":956.1999999880791},{""stimulus"":""run_exp/static/images/task_images/dig.jpg"",""time"":1906.5999999940395}]",[],5,,,,,,,,,,,,,,
harvest,120,435248,0.0-38.0-1.0,,null,run_exp/static/images/task_images/gems/23.jpg,null,,,,,,11,,,5,,,,,23,0.457541277,0.47826087,,,,,,,
decision,121,435834,0.0-38.0-2.0,,583.7,run_exp/static/images/task_images/land.jpg,76,,,,,,11,,,5,,,,,,,,127428,1,2,TRUE,,,
travel,122,445258,0.0-39.0-0.0,,,,,,,,,,,"[{""stimulus"":""run_exp/static/images/task_images/rocket-01.jpg"",""time"":0.4000000059604645},{""stimulus"":""run_exp/static/images/task_images/rocket-02.jpg"",""time"":1052.5},{""stimulus"":""run_exp/static/images/task_images/rocket-03.jpg"",""time"":2095},{""stimulus"":""run_exp/static/images/task_images/rocket-04.jpg"",""time"":3144.800000011921},{""stimulus"":""run_exp/static/images/task_images/rocket-05.jpg"",""time"":4187.5},{""stimulus"":""run_exp/static/images/task_images/rocket-06.jpg"",""time"":5232.20000000298},{""stimulus"":""run_exp/static/images/task_images/rocket-07.jpg"",""time"":6280.70000000298},{""stimulus"":""run_exp/static/images/task_images/rocket-08.jpg"",""time"":7328.800000011921},{""stimulus"":""run_exp/static/images/task_images/rocket-09.jpg"",""time"":8374.300000011921}]",[],5,,,,,,,,,,,,,,
alien_welcome,123,450267,0.0-39.0-1.0,,null,run_exp/static/images/task_images/aliens/old_aliens/planet/alien_planet-17.jpg,null,,,,,,,,,,,,17,"44,50,77,22,16,17,38,12,18,78,74,40,11,52,1,20,62,73,54,26,32,7,47,31,63,69,65,53,24,3,51,68,5,41,10,48,61,70,39,14,34",,,,,,,,,,
land,124,450774,0.0-39.0-2.0,,null,run_exp/static/images/task_images/land.jpg,null,,,,,,91,,,6,,,,,,,,,,,,,,
dig,125,452785,0.0-39.0-3.0,,,,,,,,,,,"[{""stimulus"":""run_exp/static/images/task_images/dig.jpg"",""time"":0.7000000029802322},{""stimulus"":""run_exp/static/images/task_images/land.jpg"",""time"":672.5999999940395},{""stimulus"":""run_exp/static/images/task_images/dig.jpg"",""time"":1339.7000000029802}]",[],6,,,,,,,,,,,,,,
harvest,126,453792,0.0-39.0-4.0,,null,run_exp/static/images/task_images/gems/91.jpg,null,,,,,,74,,,6,,,,,91,0.816785239,0.813186813,,,,,,,
decision,127,453849,0.0-39.0-5.0,,54.90000001,run_exp/static/images/task_images/land.jpg,65,,,,,,74,,,6,,,,,,,,145443,1,0,FALSE,,,
dig,128,456800,0.0-40.0-0.0,,,,,,,,,,,"[{""stimulus"":""run_exp/static/images/task_images/dig.jpg"",""time"":0.09999999403953552},{""stimulus"":""run_exp/static/images/task_images/land.jpg"",""time"":985},{""stimulus"":""run_exp/static/images/task_images/dig.jpg"",""time"":1966.5}]",[],6,,,,,,,,,,,,,,
harvest,129,457806,0.0-40.0-1.0,,null,run_exp/static/images/task_images/gems/74.jpg,null,,,,,,63,,,6,,,,,74,0.848141328,0.851351351,,,,,,,
decision,130,457832,0.0-40.0-2.0,,23.09999999,run_exp/static/images/task_images/land.jpg,65,,,,,,63,,,6,,,,,,,,149426,1,1,FALSE,,,
dig,131,460815,0.0-41.0-0.0,,,,,,,,,,,"[{""stimulus"":""run_exp/static/images/task_images/dig.jpg"",""time"":0.4000000059604645},{""stimulus"":""run_exp/static/images/task_images/land.jpg"",""time"":996.2000000029802},{""stimulus"":""run_exp/static/images/task_images/dig.jpg"",""time"":1990.5}]",[],6,,,,,,,,,,,,,,
harvest,132,461820,0.0-41.0-1.0,,null,run_exp/static/images/task_images/gems/63.jpg,null,,,,,,50,,,6,,,,,63,0.798284933,0.793650794,,,,,,,
decision,133,461891,0.0-41.0-2.0,,68.80000001,run_exp/static/images/task_images/land.jpg,65,,,,,,50,,,6,,,,,,,,153485,1,2,FALSE,,,
dig,134,464833,0.0-42.0-0.0,,,,,,,,,,,"[{""stimulus"":""run_exp/static/images/task_images/dig.jpg"",""time"":0.29999999701976776},{""stimulus"":""run_exp/static/images/task_images/land.jpg"",""time"":979.7000000029802},{""stimulus"":""run_exp/static/images/task_images/dig.jpg"",""time"":1957.7000000029802}]",[],6,,,,,,,,,,,,,,
harvest,135,465837,0.0-42.0-1.0,,null,run_exp/static/images/task_images/gems/50.jpg,null,,,,,,41,,,6,,,,,50,0.821715909,0.82,,,,,,,
decision,136,465936,0.0-42.0-2.0,,96.8,run_exp/static/images/task_images/land.jpg,65,,,,,,41,,,6,,,,,,,,157530,1,3,FALSE,,,
dig,137,468847,0.0-43.0-0.0,,,,,,,,,,,"[{""stimulus"":""run_exp/static/images/task_images/dig.jpg"",""time"":0.09999999403953552},{""stimulus"":""run_exp/static/images/task_images/land.jpg"",""time"":971.2999999970198},{""stimulus"":""run_exp/static/images/task_images/dig.jpg"",""time"":1935.7000000029802}]",[],6,,,,,,,,,,,,,,
harvest,138,469852,0.0-43.0-1.0,,null,run_exp/static/images/task_images/gems/41.jpg,null,,,,,,34,,,6,,,,,41,0.836230606,0.829268293,,,,,,,
decision,139,470049,0.0-43.0-2.0,,194.7,run_exp/static/images/task_images/land.jpg,65,,,,,,34,,,6,,,,,,,,161643,1,4,FALSE,,,
dig,140,472865,0.0-44.0-0.0,,,,,,,,,,,"[{""stimulus"":""run_exp/static/images/task_images/dig.jpg"",""time"":0.20000000298023224},{""stimulus"":""run_exp/static/images/task_images/land.jpg"",""time"":937.2999999970198},{""stimulus"":""run_exp/static/images/task_images/dig.jpg"",""time"":1876.2999999970198}]",[],6,,,,,,,,,,,,,,
harvest,141,473872,0.0-44.0-1.0,,null,run_exp/static/images/task_images/gems/34.jpg,null,,,,,,27,,,6,,,,,34,0.785760467,0.794117647,,,,,,,
decision,142,473898,0.0-44.0-2.0,,23.80000001,run_exp/static/images/task_images/land.jpg,76,,,,,,27,,,6,,,,,,,,165492,1,5,TRUE,,,
travel,143,483875,0.0-45.0-0.0,,,,,,,,,,,"[{""stimulus"":""run_exp/static/images/task_images/rocket-01.jpg"",""time"":0.19999998807907104},{""stimulus"":""run_exp/static/images/task_images/rocket-02.jpg"",""time"":1114.3999999910593},{""stimulus"":""run_exp/static/images/task_images/rocket-03.jpg"",""time"":2222.5},{""stimulus"":""run_exp/static/images/task_images/rocket-04.jpg"",""time"":3327.5999999940395},{""stimulus"":""run_exp/static/images/task_images/rocket-05.jpg"",""time"":4435.29999999702},{""stimulus"":""run_exp/static/images/task_images/rocket-06.jpg"",""time"":5546.29999999702},{""stimulus"":""run_exp/static/images/task_images/rocket-07.jpg"",""time"":6652.199999988079},{""stimulus"":""run_exp/static/images/task_images/rocket-08.jpg"",""time"":7760.29999999702},{""stimulus"":""run_exp/static/images/task_images/rocket-09.jpg"",""time"":8869.29999999702}]",[],6,,,,,,,,,,,,,,
alien_welcome,144,488882,0.0-45.0-1.0,,null,run_exp/static/images/task_images/aliens/old_aliens/planet/alien_planet-38.jpg,null,,,,,,,,,,,,38,"44,50,77,22,16,17,38,12,18,78,74,40,11,52,1,20,62,73,54,26,32,7,47,31,63,69,65,53,24,3,51,68,5,41,10,48,61,70,39,14,34",,,,,,,,,,
land,145,489387,0.0-45.0-2.0,,null,run_exp/static/images/task_images/land.jpg,null,,,,,,97,,,7,,,,,,,,,,,,,,
dig,146,491394,0.0-45.0-3.0,,,,,,,,,,,"[{""stimulus"":""run_exp/static/images/task_images/dig.jpg"",""time"":0.7000000029802322},{""stimulus"":""run_exp/static/images/task_images/land.jpg"",""time"":674},{""stimulus"":""run_exp/static/images/task_images/dig.jpg"",""time"":1338.2000000029802}]",[],7,,,,,,,,,,,,,,
harvest,147,492398,0.0-45.0-4.0,,null,run_exp/static/images/task_images/gems/97.jpg,null,,,,,,80,,,7,,,,,97,0.82432812,0.824742268,,,,,,,
decision,148,492507,0.0-45.0-5.0,,105.6,run_exp/static/images/task_images/land.jpg,65,,,,,,80,,,7,,,,,,,,184101,1,0,FALSE,,,
dig,149,495408,0.0-46.0-0.0,,,,,,,,,,,"[{""stimulus"":""run_exp/static/images/task_images/dig.jpg"",""time"":0},{""stimulus"":""run_exp/static/images/task_images/land.jpg"",""time"":965.8999999910593},{""stimulus"":""run_exp/static/images/task_images/dig.jpg"",""time"":1932.3999999910593}]",[],7,,,,,,,,,,,,,,
harvest,150,496413,0.0-46.0-1.0,,null,run_exp/static/images/task_images/gems/80.jpg,null,,,,,,68,,,7,,,,,80,0.851847152,0.85,,,,,,,
decision,151,496424,0.0-46.0-2.0,,8.900000006,run_exp/static/images/task_images/land.jpg,65,,,,,,68,,,7,,,,,,,,188018,1,1,FALSE,,,
dig,152,499424,0.0-47.0-0.0,,,,,,,,,,,"[{""stimulus"":""run_exp/static/images/task_images/dig.jpg"",""time"":0.20000000298023224},{""stimulus"":""run_exp/static/images/task_images/land.jpg"",""time"":1003.4000000059605},{""stimulus"":""run_exp/static/images/task_images/dig.jpg"",""time"":2000.1000000089407}]",[],7,,,,,,,,,,,,,,
harvest,153,500428,0.0-47.0-1.0,,null,run_exp/static/images/task_images/gems/68.jpg,null,,,,,,53,,,7,,,,,68,0.782612367,0.779411765,,,,,,,
decision,154,500616,0.0-47.0-2.0,,185.4,run_exp/static/images/task_images/land.jpg,65,,,,,,53,,,7,,,,,,,,192210,1,2,FALSE,,,
dig,155,503440,0.0-48.0-0.0,,,,,,,,,,,"[{""stimulus"":""run_exp/static/images/task_images/dig.jpg"",""time"":0.20000000298023224},{""stimulus"":""run_exp/static/images/task_images/land.jpg"",""time"":944.3999999910593},{""stimulus"":""run_exp/static/images/task_images/dig.jpg"",""time"":1882.2999999970198}]",[],7,,,,,,,,,,,,,,
harvest,156,504444,0.0-48.0-1.0,,null,run_exp/static/images/task_images/gems/53.jpg,null,,,,,,45,,,7,,,,,53,0.856406047,0.849056604,,,,,,,
decision,157,504482,0.0-48.0-2.0,,35.7,run_exp/static/images/task_images/land.jpg,65,,,,,,45,,,7,,,,,,,,196076,1,3,FALSE,,,
dig,158,507457,0.0-49.0-0.0,,,,,,,,,,,"[{""stimulus"":""run_exp/static/images/task_images/dig.jpg"",""time"":0.19999998807907104},{""stimulus"":""run_exp/static/images/task_images/land.jpg"",""time"":994.6999999880791},{""stimulus"":""run_exp/static/images/task_images/dig.jpg"",""time"":1982.5999999940395}]",[],7,,,,,,,,,,,,,,
harvest,159,508463,0.0-49.0-1.0,,null,run_exp/static/images/task_images/gems/45.jpg,null,,,,,,38,,,7,,,,,45,0.839922109,0.844444444,,,,,,,
decision,160,508480,0.0-49.0-2.0,,14.90000001,run_exp/static/images/task_images/land.jpg,65,,,,,,38,,,7,,,,,,,,200074,1,4,FALSE,,,
dig,161,511470,0.0-50.0-0.0,,,,,,,,,,,"[{""stimulus"":""run_exp/static/images/task_images/dig.jpg"",""time"":0.09999999403953552},{""stimulus"":""run_exp/static/images/task_images/land.jpg"",""time"":1001.2999999970198},{""stimulus"":""run_exp/static/images/task_images/dig.jpg"",""time"":1996.2999999970198}]",[],7,,,,,,,,,,,,,,
harvest,162,512473,0.0-50.0-1.0,,null,run_exp/static/images/task_images/gems/38.jpg,null,,,,,,32,,,7,,,,,38,0.834530762,0.842105263,,,,,,,
decision,163,512607,0.0-50.0-2.0,,130.9,run_exp/static/images/task_images/land.jpg,65,,,,,,32,,,7,,,,,,,,204201,1,5,FALSE,,,
dig,164,515486,0.0-51.0-0.0,,,,,,,,,,,"[{""stimulus"":""run_exp/static/images/task_images/dig.jpg"",""time"":0.30000001192092896},{""stimulus"":""run_exp/static/images/task_images/land.jpg"",""time"":960},{""stimulus"":""run_exp/static/images/task_images/dig.jpg"",""time"":1917.6000000089407}]",[],7,,,,,,,,,,,,,,
harvest,165,516494,0.0-51.0-1.0,,null,run_exp/static/images/task_images/gems/32.jpg,null,,,,,,26,,,7,,,,,32,0.820524495,0.8125,,,,,,,
decision,166,516565,0.0-51.0-2.0,,68.7,run_exp/static/images/task_images/land.jpg,65,,,,,,26,,,7,,,,,,,,208159,1,6,FALSE,,,
dig,167,519504,0.0-52.0-0.0,,,,,,,,,,,"[{""stimulus"":""run_exp/static/images/task_images/dig.jpg"",""time"":0.20000000298023224},{""stimulus"":""run_exp/static/images/task_images/land.jpg"",""time"":983.3999999910593},{""stimulus"":""run_exp/static/images/task_images/dig.jpg"",""time"":1958.5999999940395}]",[],7,,,,,,,,,,,,,,
harvest,168,520512,0.0-52.0-1.0,,null,run_exp/static/images/task_images/gems/26.jpg,null,,,,,,20,,,7,,,,,26,0.764095398,0.769230769,,,,,,,
decision,169,520642,0.0-52.0-2.0,,127.2,run_exp/static/images/task_images/land.jpg,76,,,,,,20,,,7,,,,,,,,212236,1,7,TRUE,,,
travel,170,530518,0.0-53.0-0.0,,,,,,,,,,,"[{""stimulus"":""run_exp/static/images/task_images/rocket-01.jpg"",""time"":0.3999999910593033},{""stimulus"":""run_exp/static/images/task_images/rocket-02.jpg"",""time"":1102.199999988079},{""stimulus"":""run_exp/static/images/task_images/rocket-03.jpg"",""time"":2198.199999988079},{""stimulus"":""run_exp/static/images/task_images/rocket-04.jpg"",""time"":3292},{""stimulus"":""run_exp/static/images/task_images/rocket-05.jpg"",""time"":4390.5999999940395},{""stimulus"":""run_exp/static/images/task_images/rocket-06.jpg"",""time"":5482.699999988079},{""stimulus"":""run_exp/static/images/task_images/rocket-07.jpg"",""time"":6579.399999991059},{""stimulus"":""run_exp/static/images/task_images/rocket-08.jpg"",""time"":7676.199999988079},{""stimulus"":""run_exp/static/images/task_images/rocket-09.jpg"",""time"":8771.699999988079}]",[],7,,,,,,,,,,,,,,
alien_welcome,171,535526,0.0-53.0-1.0,,null,run_exp/static/images/task_images/aliens/old_aliens/planet/alien_planet-12.jpg,null,,,,,,,,,,,,12,"44,50,77,22,16,17,38,12,18,78,74,40,11,52,1,20,62,73,54,26,32,7,47,31,63,69,65,53,24,3,51,68,5,41,10,48,61,70,39,14,34",,,,,,,,,,
land,172,536035,0.0-53.0-2.0,,null,run_exp/static/images/task_images/land.jpg,null,,,,,,103,,,8,,,,,,,,,,,,,,
dig,173,538046,0.0-53.0-3.0,,,,,,,,,,,"[{""stimulus"":""run_exp/static/images/task_images/dig.jpg"",""time"":0.6000000089406967},{""stimulus"":""run_exp/static/images/task_images/land.jpg"",""time"":673.9000000059605},{""stimulus"":""run_exp/static/images/task_images/dig.jpg"",""time"":1341.2000000029802}]",[],8,,,,,,,,,,,,,,
harvest,174,539050,0.0-53.0-4.0,,null,run_exp/static/images/task_images/gems/103.jpg,null,,,,,,89,,,8,,,,,103,0.863035874,0.86407767,,,,,,,
decision,175,539082,0.0-53.0-5.0,,29,run_exp/static/images/task_images/land.jpg,65,,,,,,89,,,8,,,,,,,,230676,1,0,FALSE,,,
dig,176,542057,0.0-54.0-0.0,,,,,,,,,,,"[{""stimulus"":""run_exp/static/images/task_images/dig.jpg"",""time"":0.10000000894069672},{""stimulus"":""run_exp/static/images/task_images/land.jpg"",""time"":993},{""stimulus"":""run_exp/static/images/task_images/dig.jpg"",""time"":1982.7999999970198}]",[],8,,,,,,,,,,,,,,
harvest,177,543062,0.0-54.0-1.0,,null,run_exp/static/images/task_images/gems/89.jpg,null,,,,,,66,,,8,,,,,89,0.739824591,0.741573034,,,,,,,
decision,178,543071,0.0-54.0-2.0,,7.299999997,run_exp/static/images/task_images/land.jpg,65,,,,,,66,,,8,,,,,,,,234665,1,1,FALSE,,,
dig,179,546067,0.0-55.0-0.0,,,,,,,,,,,"[{""stimulus"":""run_exp/static/images/task_images/dig.jpg"",""time"":0.20000000298023224},{""stimulus"":""run_exp/static/images/task_images/land.jpg"",""time"":1000.7000000029802},{""stimulus"":""run_exp/static/images/task_images/dig.jpg"",""time"":2000.300000011921}]",[],8,,,,,,,,,,,,,,
harvest,180,547070,0.0-55.0-1.0,,null,run_exp/static/images/task_images/gems/66.jpg,null,,,,,,54,,,8,,,,,66,0.824202596,0.818181818,,,,,,,
decision,181,547276,0.0-55.0-2.0,,203.7,run_exp/static/images/task_images/land.jpg,65,,,,,,54,,,8,,,,,,,,238871,1,2,FALSE,,,
dig,182,550080,0.0-56.0-0.0,,,,,,,,,,,"[{""stimulus"":""run_exp/static/images/task_images/dig.jpg"",""time"":0.20000000298023224},{""stimulus"":""run_exp/static/images/task_images/land.jpg"",""time"":936},{""stimulus"":""run_exp/static/images/task_images/dig.jpg"",""time"":1870.3999999910593}]",[],8,,,,,,,,,,,,,,
harvest,183,551086,0.0-56.0-1.0,,null,run_exp/static/images/task_images/gems/54.jpg,null,,,,,,41,,,8,,,,,54,0.764715645,0.759259259,,,,,,,
decision,184,551190,0.0-56.0-2.0,,100.5,run_exp/static/images/task_images/land.jpg,65,,,,,,41,,,8,,,,,,,,242784,1,3,FALSE,,,
dig,185,554100,0.0-57.0-0.0,,,,,,,,,,,"[{""stimulus"":""run_exp/static/images/task_images/dig.jpg"",""time"":0.4000000059604645},{""stimulus"":""run_exp/static/images/task_images/land.jpg"",""time"":972.7999999970198},{""stimulus"":""run_exp/static/images/task_images/dig.jpg"",""time"":1934.5}]",[],8,,,,,,,,,,,,,,
harvest,186,555105,0.0-57.0-1.0,,null,run_exp/static/images/task_images/gems/41.jpg,null,,,,,,29,,,8,,,,,41,0.70493471,0.707317073,,,,,,,
decision,187,555141,0.0-57.0-2.0,,32.7,run_exp/static/images/task_images/land.jpg,65,,,,,,29,,,8,,,,,,,,246735,1,4,FALSE,,,
dig,188,558116,0.0-58.0-0.0,,,,,,,,,,,"[{""stimulus"":""run_exp/static/images/task_images/dig.jpg"",""time"":0.10000000894069672},{""stimulus"":""run_exp/static/images/task_images/land.jpg"",""time"":995.5},{""stimulus"":""run_exp/static/images/task_images/dig.jpg"",""time"":1981.5}]",[],8,,,,,,,,,,,,,,
harvest,189,559119,0.0-58.0-1.0,,null,run_exp/static/images/task_images/gems/29.jpg,null,,,,,,25,,,8,,,,,29,0.864815743,0.862068966,,,,,,,
decision,190,559176,0.0-58.0-2.0,,54.59999999,run_exp/static/images/task_images/land.jpg,76,,,,,,25,,,8,,,,,,,,250770,1,5,TRUE,,,
travel,191,569129,0.0-59.0-0.0,,,,,,,,,,,"[{""stimulus"":""run_exp/static/images/task_images/rocket-01.jpg"",""time"":0.30000001192092896},{""stimulus"":""run_exp/static/images/task_images/rocket-02.jpg"",""time"":1110.4000000059605},{""stimulus"":""run_exp/static/images/task_images/rocket-03.jpg"",""time"":2216.2000000029802},{""stimulus"":""run_exp/static/images/task_images/rocket-04.jpg"",""time"":3317.7000000029802},{""stimulus"":""run_exp/static/images/task_images/rocket-05.jpg"",""time"":4426.800000011921},{""stimulus"":""run_exp/static/images/task_images/rocket-06.jpg"",""time"":5528.70000000298},{""stimulus"":""run_exp/static/images/task_images/rocket-07.jpg"",""time"":6635.5},{""stimulus"":""run_exp/static/images/task_images/rocket-08.jpg"",""time"":7740.800000011921},{""stimulus"":""run_exp/static/images/task_images/rocket-09.jpg"",""time"":8843}]",[],8,,,,,,,,,,,,,,
alien_welcome,192,574136,0.0-59.0-1.0,,null,run_exp/static/images/task_images/aliens/old_aliens/planet/alien_planet-18.jpg,null,,,,,,,,,,,,18,"44,50,77,22,16,17,38,12,18,78,74,40,11,52,1,20,62,73,54,26,32,7,47,31,63,69,65,53,24,3,51,68,5,41,10,48,61,70,39,14,34",,,,,,,,,,
land,193,574644,0.0-59.0-2.0,,null,run_exp/static/images/task_images/land.jpg,null,,,,,,101,,,9,,,,,,,,,,,,,,
dig,194,576654,0.0-59.0-3.0,,,,,,,,,,,"[{""stimulus"":""run_exp/static/images/task_images/dig.jpg"",""time"":0.6000000089406967},{""stimulus"":""run_exp/static/images/task_images/land.jpg"",""time"":673.8000000119209},{""stimulus"":""run_exp/static/images/task_images/dig.jpg"",""time"":1340.7000000029802}]",[],9,,,,,,,,,,,,,,
harvest,195,577657,0.0-59.0-4.0,,null,run_exp/static/images/task_images/gems/101.jpg,null,,,,,,29,,,9,,,,,101,0.291540019,0.287128713,,,,,,,
decision,196,577737,0.0-59.0-5.0,,77.30000001,run_exp/static/images/task_images/land.jpg,65,,,,,,29,,,9,,,,,,,,269332,1,0,FALSE,,,
dig,197,580670,0.0-60.0-0.0,,,,,,,,,,,"[{""stimulus"":""run_exp/static/images/task_images/dig.jpg"",""time"":0.19999998807907104},{""stimulus"":""run_exp/static/images/task_images/land.jpg"",""time"":977.6999999880791},{""stimulus"":""run_exp/static/images/task_images/dig.jpg"",""time"":1954.3999999910593}]",[],9,,,,,,,,,,,,,,
harvest,198,581675,0.0-60.0-1.0,,null,run_exp/static/images/task_images/gems/29.jpg,null,,,,,,7,,,9,,,,,29,0.239974359,0.24137931,,,,,,,
decision,199,581703,0.0-60.0-2.0,,25.10000001,run_exp/static/images/task_images/land.jpg,76,,,,,,7,,,9,,,,,,,,273297,1,1,TRUE,,,
travel,200,591684,0.0-61.0-0.0,,,,,,,,,,,"[{""stimulus"":""run_exp/static/images/task_images/rocket-01.jpg"",""time"":0.20000000298023224},{""stimulus"":""run_exp/static/images/task_images/rocket-02.jpg"",""time"":1114.4000000059605},{""stimulus"":""run_exp/static/images/task_images/rocket-03.jpg"",""time"":2217.800000011921},{""stimulus"":""run_exp/static/images/task_images/rocket-04.jpg"",""time"":3326.6000000089407},{""stimulus"":""run_exp/static/images/task_images/rocket-05.jpg"",""time"":4435.100000008941},{""stimulus"":""run_exp/static/images/task_images/rocket-06.jpg"",""time"":5546.300000011921},{""stimulus"":""run_exp/static/images/task_images/rocket-07.jpg"",""time"":6654.4000000059605},{""stimulus"":""run_exp/static/images/task_images/rocket-08.jpg"",""time"":7762.600000008941},{""stimulus"":""run_exp/static/images/task_images/rocket-09.jpg"",""time"":8870.40000000596}]",[],9,,,,,,,,,,,,,,
alien_welcome,201,596690,0.0-61.0-1.0,,null,run_exp/static/images/task_images/aliens/old_aliens/planet/alien_planet-78.jpg,null,,,,,,,,,,,,78,"44,50,77,22,16,17,38,12,18,78,74,40,11,52,1,20,62,73,54,26,32,7,47,31,63,69,65,53,24,3,51,68,5,41,10,48,61,70,39,14,34",,,,,,,,,,
land,202,597194,0.0-61.0-2.0,,null,run_exp/static/images/task_images/land.jpg,null,,,,,,100,,,10,,,,,,,,,,,,,,
dig,203,599203,0.0-61.0-3.0,,,,,,,,,,,"[{""stimulus"":""run_exp/static/images/task_images/dig.jpg"",""time"":0.5999999940395355},{""stimulus"":""run_exp/static/images/task_images/land.jpg"",""time"":669.6999999880791},{""stimulus"":""run_exp/static/images/task_images/dig.jpg"",""time"":1341.0999999940395}]",[],10,,,,,,,,,,,,,,
harvest,204,600208,0.0-61.0-4.0,,null,run_exp/static/images/task_images/gems/100.jpg,null,,,,,,27,,,10,,,,,100,0.272279687,0.27,,,,,,,
decision,205,600247,0.0-61.0-5.0,,36.09999999,run_exp/static/images/task_images/land.jpg,65,,,,,,27,,,10,,,,,,,,291842,1,0,FALSE,,,
dig,206,603219,0.0-62.0-0.0,,,,,,,,,,,"[{""stimulus"":""run_exp/static/images/task_images/dig.jpg"",""time"":0.20000000298023224},{""stimulus"":""run_exp/static/images/task_images/land.jpg"",""time"":992.8000000119209},{""stimulus"":""run_exp/static/images/task_images/dig.jpg"",""time"":1976.2000000029802}]",[],10,,,,,,,,,,,,,,
harvest,207,604222,0.0-62.0-1.0,,null,run_exp/static/images/task_images/gems/27.jpg,null,,,,,,4,,,10,,,,,27,0.153500291,0.148148148,,,,,,,
decision,208,604305,0.0-62.0-2.0,,80.5,run_exp/static/images/task_images/land.jpg,76,,,,,,4,,,10,,,,,,,,295899,1,1,TRUE,,,
travel,209,614230,0.0-63.0-0.0,,,,,,,,,,,"[{""stimulus"":""run_exp/static/images/task_images/rocket-01.jpg"",""time"":0.20000000298023224},{""stimulus"":""run_exp/static/images/task_images/rocket-02.jpg"",""time"":1104},{""stimulus"":""run_exp/static/images/task_images/rocket-03.jpg"",""time"":2210.2999999970198},{""stimulus"":""run_exp/static/images/task_images/rocket-04.jpg"",""time"":3308.5},{""stimulus"":""run_exp/static/images/task_images/rocket-05.jpg"",""time"":4410.5},{""stimulus"":""run_exp/static/images/task_images/rocket-06.jpg"",""time"":5514.0999999940395},{""stimulus"":""run_exp/static/images/task_images/rocket-07.jpg"",""time"":6613.79999999702},{""stimulus"":""run_exp/static/images/task_images/rocket-08.jpg"",""time"":7715.5},{""stimulus"":""run_exp/static/images/task_images/rocket-09.jpg"",""time"":8821.09999999404}]",[],10,,,,,,,,,,,,,,
alien_welcome,210,619233,0.0-63.0-1.0,,null,run_exp/static/images/task_images/aliens/old_aliens/planet/alien_planet-74.jpg,null,,,,,,,,,,,,74,"44,50,77,22,16,17,38,12,18,78,74,40,11,52,1,20,62,73,54,26,32,7,47,31,63,69,65,53,24,3,51,68,5,41,10,48,61,70,39,14,34",,,,,,,,,,
land,211,619738,0.0-63.0-2.0,,null,run_exp/static/images/task_images/land.jpg,null,,,,,,98,,,11,,,,,,,,,,,,,,
dig,212,621742,0.0-63.0-3.0,,,,,,,,,,,"[{""stimulus"":""run_exp/static/images/task_images/dig.jpg"",""time"":0.20000000298023224},{""stimulus"":""run_exp/static/images/task_images/land.jpg"",""time"":672.7999999970198},{""stimulus"":""run_exp/static/images/task_images/dig.jpg"",""time"":1339.6000000089407}]",[],11,,,,,,,,,,,,,,
harvest,213,622748,0.0-63.0-4.0,,null,run_exp/static/images/task_images/gems/98.jpg,null,,,,,,24,,,11,,,,,98,0.242977616,0.244897959,,,,,,,
decision,214,622814,0.0-63.0-5.0,,63,run_exp/static/images/task_images/land.jpg,65,,,,,,24,,,11,,,,,,,,314408,1,0,TRUE,,,
end_of_block_continue,215,631627,0.0-64.0-0.0,,null,run_exp/static/audio/clip_32_block_end.m4a,,,,,,null,,,,,,,,,,,,,,,,,,
alien_welcome,216,636644,0.0-65.0-0.0,,null,run_exp/static/images/task_images/aliens/old_aliens/planet/alien_planet-40.jpg,null,,,,,,,,,,,,40,"44,50,77,22,16,17,38,12,18,78,74,40,11,52,1,20,62,73,54,26,32,7,47,31,63,69,65,53,24,3,51,68,5,41,10,48,61,70,39,14,34",,,,,,,,,,
land,217,637152,0.0-65.0-1.0,,null,run_exp/static/images/task_images/land.jpg,null,,,,,,102,,,12,,,,,,,,,,,,,,
dig,218,639160,0.0-65.0-2.0,,,,,,,,,,,"[{""stimulus"":""run_exp/static/images/task_images/dig.jpg"",""time"":0.7999999970197678},{""stimulus"":""run_exp/static/images/task_images/land.jpg"",""time"":671.7000000029802},{""stimulus"":""run_exp/static/images/task_images/dig.jpg"",""time"":1336.3999999910593}]",[],12,,,,,,,,,,,,,,
harvest,219,640168,0.0-65.0-3.0,,null,run_exp/static/images/task_images/gems/102.jpg,null,,,,,,16,,,12,,,,,102,0.15687299,0.156862745,,,,,,,
decision,220,640312,0.0-65.0-4.0,,141.3,run_exp/static/images/task_images/land.jpg,65,,,,,,16,,,12,,,,,,,,8675,2,0,FALSE,,,
dig,221,643175,0.0-66.0-0.0,,,,,,,,,,,"[{""stimulus"":""run_exp/static/images/task_images/dig.jpg"",""time"":0.09999999403953552},{""stimulus"":""run_exp/static/images/task_images/land.jpg"",""time"":956.5},{""stimulus"":""run_exp/static/images/task_images/dig.jpg"",""time"":1910.2999999970198}]",[],12,,,,,,,,,,,,,,
harvest,222,644181,0.0-66.0-1.0,,null,run_exp/static/images/task_images/gems/16.jpg,null,,,,,,2,,,12,,,,,16,0.123296258,0.125,,,,,,,
decision,223,644283,0.0-66.0-2.0,,98.90000001,run_exp/static/images/task_images/land.jpg,76,,,,,,2,,,12,,,,,,,,12646,2,1,TRUE,,,
travel,224,654193,0.0-67.0-0.0,,,,,,,,,,,"[{""stimulus"":""run_exp/static/images/task_images/rocket-01.jpg"",""time"":0.5},{""stimulus"":""run_exp/static/images/task_images/rocket-02.jpg"",""time"":1102.2999999970198},{""stimulus"":""run_exp/static/images/task_images/rocket-03.jpg"",""time"":2206.7000000029802},{""stimulus"":""run_exp/static/images/task_images/rocket-04.jpg"",""time"":3306.7999999970198},{""stimulus"":""run_exp/static/images/task_images/rocket-05.jpg"",""time"":4402.4000000059605},{""stimulus"":""run_exp/static/images/task_images/rocket-06.jpg"",""time"":5506.29999999702},{""stimulus"":""run_exp/static/images/task_images/rocket-07.jpg"",""time"":6606.9000000059605},{""stimulus"":""run_exp/static/images/task_images/rocket-08.jpg"",""time"":7705.70000000298},{""stimulus"":""run_exp/static/images/task_images/rocket-09.jpg"",""time"":8804.29999999702}]",[],12,,,,,,,,,,,,,,
alien_welcome,225,659202,0.0-67.0-1.0,,null,run_exp/static/images/task_images/aliens/old_aliens/planet/alien_planet-11.jpg,null,,,,,,,,,,,,11,"44,50,77,22,16,17,38,12,18,78,74,40,11,52,1,20,62,73,54,26,32,7,47,31,63,69,65,53,24,3,51,68,5,41,10,48,61,70,39,14,34",,,,,,,,,,
land,226,659706,0.0-67.0-2.0,,null,run_exp/static/images/task_images/land.jpg,null,,,,,,109,,,13,,,,,,,,,,,,,,
dig,227,661712,0.0-67.0-3.0,,,,,,,,,,,"[{""stimulus"":""run_exp/static/images/task_images/dig.jpg"",""time"":0.5999999940395355},{""stimulus"":""run_exp/static/images/task_images/land.jpg"",""time"":674},{""stimulus"":""run_exp/static/images/task_images/dig.jpg"",""time"":1340.5}]",[],13,,,,,,,,,,,,,,
harvest,228,662716,0.0-67.0-4.0,,null,run_exp/static/images/task_images/gems/109.jpg,null,,,,,,33,,,13,,,,,109,0.305194604,0.302752294,,,,,,,
decision,229,662927,0.0-67.0-5.0,,208.2,run_exp/static/images/task_images/land.jpg,65,,,,,,33,,,13,,,,,,,,31291,2,0,FALSE,,,
dig,230,665728,0.0-68.0-0.0,,,,,,,,,,,"[{""stimulus"":""run_exp/static/images/task_images/dig.jpg"",""time"":0.09999999403953552},{""stimulus"":""run_exp/static/images/task_images/land.jpg"",""time"":934.2000000029802},{""stimulus"":""run_exp/static/images/task_images/dig.jpg"",""time"":1861.5999999940395}]",[],13,,,,,,,,,,,,,,
harvest,231,666730,0.0-68.0-1.0,,null,run_exp/static/images/task_images/gems/33.jpg,null,,,,,,9,,,13,,,,,33,0.278338546,0.272727273,,,,,,,
decision,232,666779,0.0-68.0-2.0,,46.60000001,run_exp/static/images/task_images/land.jpg,76,,,,,,9,,,13,,,,,,,,35143,2,1,TRUE,,,
travel,233,676737,0.0-69.0-0.0,,,,,,,,,,,"[{""stimulus"":""run_exp/static/images/task_images/rocket-01.jpg"",""time"":0.29999999701976776},{""stimulus"":""run_exp/static/images/task_images/rocket-02.jpg"",""time"":1110.2000000029802},{""stimulus"":""run_exp/static/images/task_images/rocket-03.jpg"",""time"":2214.0999999940395},{""stimulus"":""run_exp/static/images/task_images/rocket-04.jpg"",""time"":3319.5},{""stimulus"":""run_exp/static/images/task_images/rocket-05.jpg"",""time"":4426.20000000298},{""stimulus"":""run_exp/static/images/task_images/rocket-06.jpg"",""time"":5527.79999999702},{""stimulus"":""run_exp/static/images/task_images/rocket-07.jpg"",""time"":6632},{""stimulus"":""run_exp/static/images/task_images/rocket-08.jpg"",""time"":7741.5999999940395},{""stimulus"":""run_exp/static/images/task_images/rocket-09.jpg"",""time"":8843}]",[],13,,,,,,,,,,,,,,
alien_welcome,234,681743,0.0-69.0-1.0,,null,run_exp/static/images/task_images/aliens/old_aliens/planet/alien_planet-52.jpg,null,,,,,,,,,,,,52,"44,50,77,22,16,17,38,12,18,78,74,40,11,52,1,20,62,73,54,26,32,7,47,31,63,69,65,53,24,3,51,68,5,41,10,48,61,70,39,14,34",,,,,,,,,,
land,235,682251,0.0-69.0-2.0,,null,run_exp/static/images/task_images/land.jpg,null,,,,,,102,,,14,,,,,,,,,,,,,,
dig,236,684256,0.0-69.0-3.0,,,,,,,,,,,"[{""stimulus"":""run_exp/static/images/task_images/dig.jpg"",""time"":0.5},{""stimulus"":""run_exp/static/images/task_images/land.jpg"",""time"":673.7000000029802},{""stimulus"":""run_exp/static/images/task_images/dig.jpg"",""time"":1336.7000000029802}]",[],14,,,,,,,,,,,,,,
harvest,237,685264,0.0-69.0-4.0,,null,run_exp/static/images/task_images/gems/102.jpg,null,,,,,,21,,,14,,,,,102,0.204532045,0.205882353,,,,,,,
decision,238,685277,0.0-69.0-5.0,,11.09999999,run_exp/static/images/task_images/land.jpg,65,,,,,,21,,,14,,,,,,,,53640,2,0,FALSE,,,
dig,239,688274,0.0-70.0-0.0,,,,,,,,,,,"[{""stimulus"":""run_exp/static/images/task_images/dig.jpg"",""time"":0.10000000894069672},{""stimulus"":""run_exp/static/images/task_images/land.jpg"",""time"":1002.4000000059605},{""stimulus"":""run_exp/static/images/task_images/dig.jpg"",""time"":1993.7000000029802}]",[],14,,,,,,,,,,,,,,
harvest,240,689279,0.0-70.0-1.0,,null,run_exp/static/images/task_images/gems/21.jpg,null,,,,,,4,,,14,,,,,21,0.168347249,0.19047619,,,,,,,
decision,241,689327,0.0-70.0-2.0,,45.2,run_exp/static/images/task_images/land.jpg,76,,,,,,4,,,14,,,,,,,,57690,2,1,TRUE,,,
travel,242,699293,0.0-71.0-0.0,,,,,,,,,,,"[{""stimulus"":""run_exp/static/images/task_images/rocket-01.jpg"",""time"":0.4000000059604645},{""stimulus"":""run_exp/static/images/task_images/rocket-02.jpg"",""time"":1111},{""stimulus"":""run_exp/static/images/task_images/rocket-03.jpg"",""time"":2218.800000011921},{""stimulus"":""run_exp/static/images/task_images/rocket-04.jpg"",""time"":3322.300000011921},{""stimulus"":""run_exp/static/images/task_images/rocket-05.jpg"",""time"":4430.800000011921},{""stimulus"":""run_exp/static/images/task_images/rocket-06.jpg"",""time"":5534.5},{""stimulus"":""run_exp/static/images/task_images/rocket-07.jpg"",""time"":6639.9000000059605},{""stimulus"":""run_exp/static/images/task_images/rocket-08.jpg"",""time"":7748.4000000059605},{""stimulus"":""run_exp/static/images/task_images/rocket-09.jpg"",""time"":8854.70000000298}]",[],14,,,,,,,,,,,,,,
alien_welcome,243,704297,0.0-71.0-1.0,,null,run_exp/static/images/task_images/aliens/old_aliens/planet/alien_planet-1.jpg,null,,,,,,,,,,,,1,"44,50,77,22,16,17,38,12,18,78,74,40,11,52,1,20,62,73,54,26,32,7,47,31,63,69,65,53,24,3,51,68,5,41,10,48,61,70,39,14,34",,,,,,,,,,
land,244,704804,0.0-71.0-2.0,,null,run_exp/static/images/task_images/land.jpg,null,,,,,,89,,,15,,,,,,,,,,,,,,
dig,245,706811,0.0-71.0-3.0,,,,,,,,,,,"[{""stimulus"":""run_exp/static/images/task_images/dig.jpg"",""time"":0.7000000029802322},{""stimulus"":""run_exp/static/images/task_images/land.jpg"",""time"":669.5},{""stimulus"":""run_exp/static/images/task_images/dig.jpg"",""time"":1336.7000000029802}]",[],15,,,,,,,,,,,,,,
harvest,246,707817,0.0-71.0-4.0,,null,run_exp/static/images/task_images/gems/89.jpg,null,,,,,,73,,,15,,,,,89,0.825564278,0.820224719,,,,,,,
decision,247,707920,0.0-71.0-5.0,,101.3,run_exp/static/images/task_images/land.jpg,65,,,,,,73,,,15,,,,,,,,76284,2,0,FALSE,,,
dig,248,710830,0.0-72.0-0.0,,,,,,,,,,,"[{""stimulus"":""run_exp/static/images/task_images/dig.jpg"",""time"":0.19999998807907104},{""stimulus"":""run_exp/static/images/task_images/land.jpg"",""time"":970.3999999910593},{""stimulus"":""run_exp/static/images/task_images/dig.jpg"",""time"":1934.0999999940395}]",[],15,,,,,,,,,,,,,,
harvest,249,711834,0.0-72.0-1.0,,null,run_exp/static/images/task_images/gems/73.jpg,null,,,,,,55,,,15,,,,,73,0.750462825,0.753424658,,,,,,,
decision,250,711929,0.0-72.0-2.0,,92.40000001,run_exp/static/images/task_images/land.jpg,65,,,,,,55,,,15,,,,,,,,80292,2,1,FALSE,,,
dig,251,714843,0.0-73.0-0.0,,,,,,,,,,,"[{""stimulus"":""run_exp/static/images/task_images/dig.jpg"",""time"":0.19999998807907104},{""stimulus"":""run_exp/static/images/task_images/land.jpg"",""time"":972.5},{""stimulus"":""run_exp/static/images/task_images/dig.jpg"",""time"":1942.0999999940395}]",[],15,,,,,,,,,,,,,,
harvest,252,715846,0.0-73.0-1.0,,null,run_exp/static/images/task_images/gems/55.jpg,null,,,,,,44,,,15,,,,,55,0.802416277,0.8,,,,,,,
decision,253,716029,0.0-73.0-2.0,,179.6,run_exp/static/images/task_images/land.jpg,65,,,,,,44,,,15,,,,,,,,84392,2,2,FALSE,,,
dig,254,718861,0.0-74.0-0.0,,,,,,,,,,,"[{""stimulus"":""run_exp/static/images/task_images/dig.jpg"",""time"":0.4000000059604645},{""stimulus"":""run_exp/static/images/task_images/land.jpg"",""time"":942},{""stimulus"":""run_exp/static/images/task_images/dig.jpg"",""time"":1886.6000000089407}]",[],15,,,,,,,,,,,,,,
harvest,255,719867,0.0-74.0-1.0,,null,run_exp/static/images/task_images/gems/44.jpg,null,,,,,,33,,,15,,,,,44,0.748935571,0.75,,,,,,,
decision,256,719883,0.0-74.0-2.0,,12.7,run_exp/static/images/task_images/land.jpg,65,,,,,,33,,,15,,,,,,,,88246,2,3,FALSE,,,
dig,257,722877,0.0-75.0-0.0,,,,,,,,,,,"[{""stimulus"":""run_exp/static/images/task_images/dig.jpg"",""time"":0.09999999403953552},{""stimulus"":""run_exp/static/images/task_images/land.jpg"",""time"":999},{""stimulus"":""run_exp/static/images/task_images/dig.jpg"",""time"":1995.5}]",[],15,,,,,,,,,,,,,,
harvest,258,723880,0.0-75.0-1.0,,null,run_exp/static/images/task_images/gems/33.jpg,null,,,,,,28,,,15,,,,,33,0.858642124,0.848484848,,,,,,,
decision,259,724003,0.0-75.0-2.0,,120.5,run_exp/static/images/task_images/land.jpg,76,,,,,,28,,,15,,,,,,,,92367,2,4,TRUE,,,
travel,260,733889,0.0-76.0-0.0,,,,,,,,,,,"[{""stimulus"":""run_exp/static/images/task_images/rocket-01.jpg"",""time"":0.5},{""stimulus"":""run_exp/static/images/task_images/rocket-02.jpg"",""time"":1101.7000000029802},{""stimulus"":""run_exp/static/images/task_images/rocket-03.jpg"",""time"":2200.300000011921},{""stimulus"":""run_exp/static/images/task_images/rocket-04.jpg"",""time"":3293.2000000029802},{""stimulus"":""run_exp/static/images/task_images/rocket-05.jpg"",""time"":4394.70000000298},{""stimulus"":""run_exp/static/images/task_images/rocket-06.jpg"",""time"":5489},{""stimulus"":""run_exp/static/images/task_images/rocket-07.jpg"",""time"":6588.9000000059605},{""stimulus"":""run_exp/static/images/task_images/rocket-08.jpg"",""time"":7685.70000000298},{""stimulus"":""run_exp/static/images/task_images/rocket-09.jpg"",""time"":8779.300000011921}]",[],15,,,,,,,,,,,,,,
alien_welcome,261,738897,0.0-76.0-1.0,,null,run_exp/static/images/task_images/aliens/old_aliens/planet/alien_planet-20.jpg,null,,,,,,,,,,,,20,"44,50,77,22,16,17,38,12,18,78,74,40,11,52,1,20,62,73,54,26,32,7,47,31,63,69,65,53,24,3,51,68,5,41,10,48,61,70,39,14,34",,,,,,,,,,
land,262,739403,0.0-76.0-2.0,,null,run_exp/static/images/task_images/land.jpg,null,,,,,,92,,,16,,,,,,,,,,,,,,
dig,263,741409,0.0-76.0-3.0,,,,,,,,,,,"[{""stimulus"":""run_exp/static/images/task_images/dig.jpg"",""time"":0.7000000029802322},{""stimulus"":""run_exp/static/images/task_images/land.jpg"",""time"":674},{""stimulus"":""run_exp/static/images/task_images/dig.jpg"",""time"":1336.2000000029802}]",[],16,,,,,,,,,,,,,,
harvest,264,742417,0.0-76.0-4.0,,null,run_exp/static/images/task_images/gems/92.jpg,null,,,,,,69,,,16,,,,,92,0.747751213,0.75,,,,,,,
decision,265,742549,0.0-76.0-5.0,,128.6,run_exp/static/images/task_images/land.jpg,65,,,,,,69,,,16,,,,,,,,110912,2,0,FALSE,,,
dig,266,745434,0.0-77.0-0.0,,,,,,,,,,,"[{""stimulus"":""run_exp/static/images/task_images/dig.jpg"",""time"":0.4000000059604645},{""stimulus"":""run_exp/static/images/task_images/land.jpg"",""time"":963.6000000089407},{""stimulus"":""run_exp/static/images/task_images/dig.jpg"",""time"":1920.800000011921}]",[],16,,,,,,,,,,,,,,
harvest,267,746439,0.0-77.0-1.0,,null,run_exp/static/images/task_images/gems/69.jpg,null,,,,,,56,,,16,,,,,69,0.81082685,0.811594203,,,,,,,
decision,268,746577,0.0-77.0-2.0,,134.5,run_exp/static/images/task_images/land.jpg,65,,,,,,56,,,16,,,,,,,,114940,2,1,FALSE,,,
dig,269,749454,0.0-78.0-0.0,,,,,,,,,,,"[{""stimulus"":""run_exp/static/images/task_images/dig.jpg"",""time"":0.09999999403953552},{""stimulus"":""run_exp/static/images/task_images/land.jpg"",""time"":961.5999999940395},{""stimulus"":""run_exp/static/images/task_images/dig.jpg"",""time"":1913.5999999940395}]",[],16,,,,,,,,,,,,,,
harvest,270,750457,0.0-78.0-1.0,,null,run_exp/static/images/task_images/gems/56.jpg,null,,,,,,42,,,16,,,,,56,0.745663521,0.75,,,,,,,
decision,271,750593,0.0-78.0-2.0,,132.4,run_exp/static/images/task_images/land.jpg,65,,,,,,42,,,16,,,,,,,,118956,2,2,FALSE,,,
dig,272,753469,0.0-79.0-0.0,,,,,,,,,,,"[{""stimulus"":""run_exp/static/images/task_images/dig.jpg"",""time"":0.3999999910593033},{""stimulus"":""run_exp/static/images/task_images/land.jpg"",""time"":958},{""stimulus"":""run_exp/static/images/task_images/dig.jpg"",""time"":1916.699999988079}]",[],16,,,,,,,,,,,,,,
harvest,273,754477,0.0-79.0-1.0,,null,run_exp/static/images/task_images/gems/42.jpg,null,,,,,,38,,,16,,,,,42,0.902566495,0.904761905,,,,,,,
decision,274,754499,0.0-79.0-2.0,,20.10000001,run_exp/static/images/task_images/land.jpg,65,,,,,,38,,,16,,,,,,,,122862,2,3,FALSE,,,
dig,275,757492,0.0-80.0-0.0,,,,,,,,,,,"[{""stimulus"":""run_exp/static/images/task_images/dig.jpg"",""time"":0.09999999403953552},{""stimulus"":""run_exp/static/images/task_images/land.jpg"",""time"":999.2999999970198},{""stimulus"":""run_exp/static/images/task_images/dig.jpg"",""time"":1987.199999988079}]",[],16,,,,,,,,,,,,,,
harvest,276,758496,0.0-80.0-1.0,,null,run_exp/static/images/task_images/gems/38.jpg,null,,,,,,32,,,16,,,,,38,0.840068992,0.842105263,,,,,,,
decision,277,758844,0.0-80.0-2.0,,344.1,run_exp/static/images/task_images/land.jpg,65,,,,,,32,,,16,,,,,,,,127207,2,4,FALSE,,,
dig,278,761508,0.0-81.0-0.0,,,,,,,,,,,"[{""stimulus"":""run_exp/static/images/task_images/dig.jpg"",""time"":0.29999999701976776},{""stimulus"":""run_exp/static/images/task_images/land.jpg"",""time"":891},{""stimulus"":""run_exp/static/images/task_images/dig.jpg"",""time"":1771.7000000029802}]",[],16,,,,,,,,,,,,,,
harvest,279,762512,0.0-81.0-1.0,,null,run_exp/static/images/task_images/gems/32.jpg,null,,,,,,28,,,16,,,,,32,0.878395644,0.875,,,,,,,
decision,280,762529,0.0-81.0-2.0,,14.7,run_exp/static/images/task_images/land.jpg,76,,,,,,28,,,16,,,,,,,,130893,2,5,TRUE,,,
travel,281,772522,0.0-82.0-0.0,,,,,,,,,,,"[{""stimulus"":""run_exp/static/images/task_images/rocket-01.jpg"",""time"":0.20000000298023224},{""stimulus"":""run_exp/static/images/task_images/rocket-02.jpg"",""time"":1115.4000000059605},{""stimulus"":""run_exp/static/images/task_images/rocket-03.jpg"",""time"":2224.6000000089407},{""stimulus"":""run_exp/static/images/task_images/rocket-04.jpg"",""time"":3333.4000000059605},{""stimulus"":""run_exp/static/images/task_images/rocket-05.jpg"",""time"":4440.300000011921},{""stimulus"":""run_exp/static/images/task_images/rocket-06.jpg"",""time"":5547.600000008941},{""stimulus"":""run_exp/static/images/task_images/rocket-07.jpg"",""time"":6660.600000008941},{""stimulus"":""run_exp/static/images/task_images/rocket-08.jpg"",""time"":7766.600000008941},{""stimulus"":""run_exp/static/images/task_images/rocket-09.jpg"",""time"":8878.40000000596}]",[],16,,,,,,,,,,,,,,
alien_welcome,282,777527,0.0-82.0-1.0,,null,run_exp/static/images/task_images/aliens/old_aliens/planet/alien_planet-62.jpg,null,,,,,,,,,,,,62,"44,50,77,22,16,17,38,12,18,78,74,40,11,52,1,20,62,73,54,26,32,7,47,31,63,69,65,53,24,3,51,68,5,41,10,48,61,70,39,14,34",,,,,,,,,,
land,283,778031,0.0-82.0-2.0,,null,run_exp/static/images/task_images/land.jpg,null,,,,,,103,,,17,,,,,,,,,,,,,,
dig,284,780042,0.0-82.0-3.0,,,,,,,,,,,"[{""stimulus"":""run_exp/static/images/task_images/dig.jpg"",""time"":0.5999999940395355},{""stimulus"":""run_exp/static/images/task_images/land.jpg"",""time"":669.5},{""stimulus"":""run_exp/static/images/task_images/dig.jpg"",""time"":1337.199999988079}]",[],17,,,,,,,,,,,,,,
harvest,285,781045,0.0-82.0-4.0,,null,run_exp/static/images/task_images/gems/103.jpg,null,,,,,,77,,,17,,,,,103,0.744400287,0.747572816,,,,,,,
decision,286,781182,0.0-82.0-5.0,,134.3,run_exp/static/images/task_images/land.jpg,65,,,,,,77,,,17,,,,,,,,149545,2,0,FALSE,,,
dig,287,784056,0.0-83.0-0.0,,,,,,,,,,,"[{""stimulus"":""run_exp/static/images/task_images/dig.jpg"",""time"":0.19999998807907104},{""stimulus"":""run_exp/static/images/task_images/land.jpg"",""time"":960.5999999940395},{""stimulus"":""run_exp/static/images/task_images/dig.jpg"",""time"":1916.5999999940395}]",[],17,,,,,,,,,,,,,,
harvest,288,785064,0.0-83.0-1.0,,null,run_exp/static/images/task_images/gems/77.jpg,null,,,,,,65,,,17,,,,,77,0.83981965,0.844155844,,,,,,,
decision,289,785073,0.0-83.0-2.0,,6.400000006,run_exp/static/images/task_images/land.jpg,65,,,,,,65,,,17,,,,,,,,153437,2,1,FALSE,,,
dig,290,788074,0.0-84.0-0.0,,,,,,,,,,,"[{""stimulus"":""run_exp/static/images/task_images/dig.jpg"",""time"":0.20000000298023224},{""stimulus"":""run_exp/static/images/task_images/land.jpg"",""time"":1000.8999999910593},{""stimulus"":""run_exp/static/images/task_images/dig.jpg"",""time"":2000.5}]",[],17,,,,,,,,,,,,,,
harvest,291,789079,0.0-84.0-1.0,,null,run_exp/static/images/task_images/gems/65.jpg,null,,,,,,49,,,17,,,,,65,0.7481878,0.753846154,,,,,,,
decision,292,789161,0.0-84.0-2.0,,79.10000001,run_exp/static/images/task_images/land.jpg,65,,,,,,49,,,17,,,,,,,,157524,2,2,FALSE,,,
dig,293,792093,0.0-85.0-0.0,,,,,,,,,,,"[{""stimulus"":""run_exp/static/images/task_images/dig.jpg"",""time"":0.10000000894069672},{""stimulus"":""run_exp/static/images/task_images/land.jpg"",""time"":975.4000000059605},{""stimulus"":""run_exp/static/images/task_images/dig.jpg"",""time"":1948}]",[],17,,,,,,,,,,,,,,
harvest,294,793097,0.0-85.0-1.0,,null,run_exp/static/images/task_images/gems/49.jpg,null,,,,,,41,,,17,,,,,49,0.846506758,0.836734694,,,,,,,
decision,295,793203,0.0-85.0-2.0,,103.2,run_exp/static/images/task_images/land.jpg,65,,,,,,41,,,17,,,,,,,,161566,2,3,FALSE,,,
dig,296,796108,0.0-86.0-0.0,,,,,,,,,,,"[{""stimulus"":""run_exp/static/images/task_images/dig.jpg"",""time"":0.29999999701976776},{""stimulus"":""run_exp/static/images/task_images/land.jpg"",""time"":970.7999999970198},{""stimulus"":""run_exp/static/images/task_images/dig.jpg"",""time"":1933.5999999940395}]",[],17,,,,,,,,,,,,,,
harvest,297,797114,0.0-86.0-1.0,,null,run_exp/static/images/task_images/gems/41.jpg,null,,,,,,34,,,17,,,,,41,0.825864136,0.829268293,,,,,,,
decision,298,797125,0.0-86.0-2.0,,8.600000009,run_exp/static/images/task_images/land.jpg,65,,,,,,34,,,17,,,,,,,,165488,2,4,FALSE,,,
dig,299,800126,0.0-87.0-0.0,,,,,,,,,,,"[{""stimulus"":""run_exp/static/images/task_images/dig.jpg"",""time"":0.09999999403953552},{""stimulus"":""run_exp/static/images/task_images/land.jpg"",""time"":1003.2999999970198},{""stimulus"":""run_exp/static/images/task_images/dig.jpg"",""time"":1995.7000000029802}]",[],17,,,,,,,,,,,,,,
harvest,300,801130,0.0-87.0-1.0,,null,run_exp/static/images/task_images/gems/34.jpg,null,,,,,,25,,,17,,,,,34,0.740021539,0.735294118,,,,,,,
decision,301,801241,0.0-87.0-2.0,,108.1,run_exp/static/images/task_images/land.jpg,65,,,,,,25,,,17,,,,,,,,169605,2,5,FALSE,,,
dig,302,804139,0.0-88.0-0.0,,,,,,,,,,,"[{""stimulus"":""run_exp/static/images/task_images/dig.jpg"",""time"":0.30000001192092896},{""stimulus"":""run_exp/static/images/task_images/land.jpg"",""time"":969.5},{""stimulus"":""run_exp/static/images/task_images/dig.jpg"",""time"":1928.5}]",[],17,,,,,,,,,,,,,,
harvest,303,805142,0.0-88.0-1.0,,null,run_exp/static/images/task_images/gems/25.jpg,null,,,,,,20,,,17,,,,,25,0.816440773,0.8,,,,,,,
decision,304,805312,0.0-88.0-2.0,,167.4,run_exp/static/images/task_images/land.jpg,76,,,,,,20,,,17,,,,,,,,173675,2,6,TRUE,,,
travel,305,815151,0.0-89.0-0.0,,,,,,,,,,,"[{""stimulus"":""run_exp/static/images/task_images/rocket-01.jpg"",""time"":0.29999999701976776},{""stimulus"":""run_exp/static/images/task_images/rocket-02.jpg"",""time"":1095},{""stimulus"":""run_exp/static/images/task_images/rocket-03.jpg"",""time"":2190.5999999940395},{""stimulus"":""run_exp/static/images/task_images/rocket-04.jpg"",""time"":3278.5999999940395},{""stimulus"":""run_exp/static/images/task_images/rocket-05.jpg"",""time"":4372.399999991059},{""stimulus"":""run_exp/static/images/task_images/rocket-06.jpg"",""time"":5462.0999999940395},{""stimulus"":""run_exp/static/images/task_images/rocket-07.jpg"",""time"":6555.899999991059},{""stimulus"":""run_exp/static/images/task_images/rocket-08.jpg"",""time"":7648.699999988079},{""stimulus"":""run_exp/static/images/task_images/rocket-09.jpg"",""time"":8739.39999999106}]",[],17,,,,,,,,,,,,,,
alien_welcome,306,820157,0.0-89.0-1.0,,null,run_exp/static/images/task_images/aliens/old_aliens/planet/alien_planet-73.jpg,null,,,,,,,,,,,,73,"44,50,77,22,16,17,38,12,18,78,74,40,11,52,1,20,62,73,54,26,32,7,47,31,63,69,65,53,24,3,51,68,5,41,10,48,61,70,39,14,34",,,,,,,,,,
land,307,820665,0.0-89.0-2.0,,null,run_exp/static/images/task_images/land.jpg,null,,,,,,98,,,18,,,,,,,,,,,,,,
dig,308,822676,0.0-89.0-3.0,,,,,,,,,,,"[{""stimulus"":""run_exp/static/images/task_images/dig.jpg"",""time"":0.7999999970197678},{""stimulus"":""run_exp/static/images/task_images/land.jpg"",""time"":671.2000000029802},{""stimulus"":""run_exp/static/images/task_images/dig.jpg"",""time"":1336.5}]",[],18,,,,,,,,,,,,,,
harvest,309,823684,0.0-89.0-4.0,,null,run_exp/static/images/task_images/gems/98.jpg,null,,,,,,78,,,18,,,,,98,0.791981298,0.795918367,,,,,,,
decision,310,823789,0.0-89.0-5.0,,102.4,run_exp/static/images/task_images/land.jpg,65,,,,,,78,,,18,,,,,,,,192152,2,0,FALSE,,,
dig,311,826694,0.0-90.0-0.0,,,,,,,,,,,"[{""stimulus"":""run_exp/static/images/task_images/dig.jpg"",""time"":0.29999999701976776},{""stimulus"":""run_exp/static/images/task_images/land.jpg"",""time"":971.5999999940395},{""stimulus"":""run_exp/static/images/task_images/dig.jpg"",""time"":1936.7999999970198}]",[],18,,,,,,,,,,,,,,
harvest,312,827701,0.0-90.0-1.0,,null,run_exp/static/images/task_images/gems/78.jpg,null,,,,,,66,,,18,,,,,78,0.840965063,0.846153846,,,,,,,
decision,313,827742,0.0-90.0-2.0,,38.40000001,run_exp/static/images/task_images/land.jpg,65,,,,,,66,,,18,,,,,,,,196105,2,1,FALSE,,,
dig,314,830713,0.0-91.0-0.0,,,,,,,,,,,"[{""stimulus"":""run_exp/static/images/task_images/dig.jpg"",""time"":0.4000000059604645},{""stimulus"":""run_exp/static/images/task_images/land.jpg"",""time"":989.4000000059605},{""stimulus"":""run_exp/static/images/task_images/dig.jpg"",""time"":1979.300000011921}]",[],18,,,,,,,,,,,,,,
harvest,315,831717,0.0-91.0-1.0,,null,run_exp/static/images/task_images/gems/66.jpg,null,,,,,,57,,,18,,,,,66,0.858655616,0.863636364,,,,,,,
decision,316,832039,0.0-91.0-2.0,,319.3,run_exp/static/images/task_images/land.jpg,65,,,,,,57,,,18,,,,,,,,200403,2,2,FALSE,,,
dig,317,834731,0.0-92.0-0.0,,,,,,,,,,,"[{""stimulus"":""run_exp/static/images/task_images/dig.jpg"",""time"":0.29999999701976776},{""stimulus"":""run_exp/static/images/task_images/land.jpg"",""time"":898},{""stimulus"":""run_exp/static/images/task_images/dig.jpg"",""time"":1792.7000000029802}]",[],18,,,,,,,,,,,,,,
harvest,318,835736,0.0-92.0-1.0,,null,run_exp/static/images/task_images/gems/57.jpg,null,,,,,,49,,,18,,,,,57,0.858558666,0.859649123,,,,,,,
decision,319,835902,0.0-92.0-2.0,,162.9,run_exp/static/images/task_images/land.jpg,65,,,,,,49,,,18,,,,,,,,204265,2,3,FALSE,,,
dig,320,838745,0.0-93.0-0.0,,,,,,,,,,,"[{""stimulus"":""run_exp/static/images/task_images/dig.jpg"",""time"":0.20000000298023224},{""stimulus"":""run_exp/static/images/task_images/land.jpg"",""time"":947.7999999970198},{""stimulus"":""run_exp/static/images/task_images/dig.jpg"",""time"":1891.5999999940395}]",[],18,,,,,,,,,,,,,,
harvest,321,839753,0.0-93.0-1.0,,null,run_exp/static/images/task_images/gems/49.jpg,null,,,,,,35,,,18,,,,,49,0.709309136,0.714285714,,,,,,,
decision,322,839769,0.0-93.0-2.0,,13.09999999,run_exp/static/images/task_images/land.jpg,65,,,,,,35,,,18,,,,,,,,208132,2,4,FALSE,,,
dig,323,842764,0.0-94.0-0.0,,,,,,,,,,,"[{""stimulus"":""run_exp/static/images/task_images/dig.jpg"",""time"":0},{""stimulus"":""run_exp/static/images/task_images/land.jpg"",""time"":1001.2000000029802},{""stimulus"":""run_exp/static/images/task_images/dig.jpg"",""time"":1992.3999999910593}]",[],18,,,,,,,,,,,,,,
harvest,324,843769,0.0-94.0-1.0,,null,run_exp/static/images/task_images/gems/35.jpg,null,,,,,,28,,,18,,,,,35,0.802850928,0.8,,,,,,,
decision,325,843999,0.0-94.0-2.0,,227.5,run_exp/static/images/task_images/land.jpg,65,,,,,,28,,,18,,,,,,,,212363,2,5,FALSE,,,
dig,326,846780,0.0-95.0-0.0,,,,,,,,,,,"[{""stimulus"":""run_exp/static/images/task_images/dig.jpg"",""time"":0.29999999701976776},{""stimulus"":""run_exp/static/images/task_images/land.jpg"",""time"":930.5999999940395},{""stimulus"":""run_exp/static/images/task_images/dig.jpg"",""time"":1850.4000000059605}]",[],18,,,,,,,,,,,,,,
harvest,327,847784,0.0-95.0-1.0,,null,run_exp/static/images/task_images/gems/28.jpg,null,,,,,,24,,,18,,,,,28,0.865087004,0.857142857,,,,,,,
decision,328,847921,0.0-95.0-2.0,,134.2,run_exp/static/images/task_images/land.jpg,76,,,,,,24,,,18,,,,,,,,216284,2,6,TRUE,,,
travel,329,857796,0.0-96.0-0.0,,,,,,,,,,,"[{""stimulus"":""run_exp/static/images/task_images/rocket-01.jpg"",""time"":0.20000000298023224},{""stimulus"":""run_exp/static/images/task_images/rocket-02.jpg"",""time"":1097.9000000059605},{""stimulus"":""run_exp/static/images/task_images/rocket-03.jpg"",""time"":2198.6000000089407},{""stimulus"":""run_exp/static/images/task_images/rocket-04.jpg"",""time"":3292},{""stimulus"":""run_exp/static/images/task_images/rocket-05.jpg"",""time"":4388.9000000059605},{""stimulus"":""run_exp/static/images/task_images/rocket-06.jpg"",""time"":5486.5},{""stimulus"":""run_exp/static/images/task_images/rocket-07.jpg"",""time"":6579.600000008941},{""stimulus"":""run_exp/static/images/task_images/rocket-08.jpg"",""time"":7678.5},{""stimulus"":""run_exp/static/images/task_images/rocket-09.jpg"",""time"":8770.40000000596}]",[],18,,,,,,,,,,,,,,
alien_welcome,330,862805,0.0-96.0-1.0,,null,run_exp/static/images/task_images/aliens/old_aliens/planet/alien_planet-54.jpg,null,,,,,,,,,,,,54,"44,50,77,22,16,17,38,12,18,78,74,40,11,52,1,20,62,73,54,26,32,7,47,31,63,69,65,53,24,3,51,68,5,41,10,48,61,70,39,14,34",,,,,,,,,,
land,331,863312,0.0-96.0-2.0,,null,run_exp/static/images/task_images/land.jpg,null,,,,,,101,,,19,,,,,,,,,,,,,,
dig,332,865321,0.0-96.0-3.0,,,,,,,,,,,"[{""stimulus"":""run_exp/static/images/task_images/dig.jpg"",""time"":0.5999999940395355},{""stimulus"":""run_exp/static/images/task_images/land.jpg"",""time"":674},{""stimulus"":""run_exp/static/images/task_images/dig.jpg"",""time"":1341}]",[],19,,,,,,,,,,,,,,
harvest,333,866326,0.0-96.0-4.0,,null,run_exp/static/images/task_images/gems/101.jpg,null,,,,,,84,,,19,,,,,101,0.830368049,0.831683168,,,,,,,
decision,334,866433,0.0-96.0-5.0,,103.6,run_exp/static/images/task_images/land.jpg,65,,,,,,84,,,19,,,,,,,,234798,2,0,FALSE,,,
dig,335,869342,0.0-97.0-0.0,,,,,,,,,,,"[{""stimulus"":""run_exp/static/images/task_images/dig.jpg"",""time"":0.5},{""stimulus"":""run_exp/static/images/task_images/land.jpg"",""time"":971.7999999970198},{""stimulus"":""run_exp/static/images/task_images/dig.jpg"",""time"":1936.7999999970198}]",[],19,,,,,,,,,,,,,,
harvest,336,870346,0.0-97.0-1.0,,null,run_exp/static/images/task_images/gems/84.jpg,null,,,,,,59,,,19,,,,,84,0.703220567,0.702380952,,,,,,,
decision,337,870394,0.0-97.0-2.0,,45.40000001,run_exp/static/images/task_images/land.jpg,65,,,,,,59,,,19,,,,,,,,238758,2,1,FALSE,,,
dig,338,873358,0.0-98.0-0.0,,,,,,,,,,,"[{""stimulus"":""run_exp/static/images/task_images/dig.jpg"",""time"":0.10000000894069672},{""stimulus"":""run_exp/static/images/task_images/land.jpg"",""time"":990.2999999970198},{""stimulus"":""run_exp/static/images/task_images/dig.jpg"",""time"":1974.2999999970198}]",[],19,,,,,,,,,,,,,,
harvest,339,874364,0.0-98.0-1.0,,null,run_exp/static/images/task_images/gems/59.jpg,null,,,,,,45,,,19,,,,,59,0.76239348,0.762711864,,,,,,,
decision,340,874556,0.0-98.0-2.0,,187.5,run_exp/static/images/task_images/land.jpg,65,,,,,,45,,,19,,,,,,,,242919,2,2,FALSE,,,
dig,341,877379,0.0-99.0-0.0,,,,,,,,,,,"[{""stimulus"":""run_exp/static/images/task_images/dig.jpg"",""time"":0.09999999403953552},{""stimulus"":""run_exp/static/images/task_images/land.jpg"",""time"":943.5},{""stimulus"":""run_exp/static/images/task_images/dig.jpg"",""time"":1878.5999999940395}]",[],19,,,,,,,,,,,,,,
harvest,342,878384,0.0-99.0-1.0,,null,run_exp/static/images/task_images/gems/45.jpg,null,,,,,,34,,,19,,,,,45,0.766309341,0.755555556,,,,,,,
decision,343,878504,0.0-99.0-2.0,,117.1,run_exp/static/images/task_images/land.jpg,65,,,,,,34,,,19,,,,,,,,246867,2,3,FALSE,,,
dig,344,881393,0.0-100.0-0.0,,,,,,,,,,,"[{""stimulus"":""run_exp/static/images/task_images/dig.jpg"",""time"":0.29999999701976776},{""stimulus"":""run_exp/static/images/task_images/land.jpg"",""time"":962.7000000029802},{""stimulus"":""run_exp/static/images/task_images/dig.jpg"",""time"":1926.5}]",[],19,,,,,,,,,,,,,,
harvest,345,882401,0.0-100.0-1.0,,null,run_exp/static/images/task_images/gems/34.jpg,null,,,,,,26,,,19,,,,,34,0.76024479,0.764705882,,,,,,,
decision,346,882446,0.0-100.0-2.0,,41.7,run_exp/static/images/task_images/land.jpg,65,,,,,,26,,,19,,,,,,,,250809,2,4,FALSE,,,
dig,347,885412,0.0-101.0-0.0,,,,,,,,,,,"[{""stimulus"":""run_exp/static/images/task_images/dig.jpg"",""time"":0.3999999910593033},{""stimulus"":""run_exp/static/images/task_images/land.jpg"",""time"":988.2000000029802},{""stimulus"":""run_exp/static/images/task_images/dig.jpg"",""time"":1976.2999999970198}]",[],19,,,,,,,,,,,,,,
harvest,348,886417,0.0-101.0-1.0,,null,run_exp/static/images/task_images/gems/26.jpg,null,,,,,,22,,,19,,,,,26,0.850627112,0.846153846,,,,,,,
decision,349,886548,0.0-101.0-2.0,,127.9,run_exp/static/images/task_images/land.jpg,76,,,,,,22,,,19,,,,,,,,254912,2,5,TRUE,,,
travel,350,896425,0.0-102.0-0.0,,,,,,,,,,,"[{""stimulus"":""run_exp/static/images/task_images/rocket-01.jpg"",""time"":0.20000000298023224},{""stimulus"":""run_exp/static/images/task_images/rocket-02.jpg"",""time"":1102.4000000059605},{""stimulus"":""run_exp/static/images/task_images/rocket-03.jpg"",""time"":2198.4000000059605},{""stimulus"":""run_exp/static/images/task_images/rocket-04.jpg"",""time"":3291.2999999970198},{""stimulus"":""run_exp/static/images/task_images/rocket-05.jpg"",""time"":4388.9000000059605},{""stimulus"":""run_exp/static/images/task_images/rocket-06.jpg"",""time"":5483},{""stimulus"":""run_exp/static/images/task_images/rocket-07.jpg"",""time"":6579.20000000298},{""stimulus"":""run_exp/static/images/task_images/rocket-08.jpg"",""time"":7676.20000000298},{""stimulus"":""run_exp/static/images/task_images/rocket-09.jpg"",""time"":8769.79999999702}]",[],19,,,,,,,,,,,,,,
alien_welcome,351,901433,0.0-102.0-1.0,,null,run_exp/static/images/task_images/aliens/old_aliens/planet/alien_planet-26.jpg,null,,,,,,,,,,,,26,"44,50,77,22,16,17,38,12,18,78,74,40,11,52,1,20,62,73,54,26,32,7,47,31,63,69,65,53,24,3,51,68,5,41,10,48,61,70,39,14,34",,,,,,,,,,
land,352,901938,0.0-102.0-2.0,,null,run_exp/static/images/task_images/land.jpg,null,,,,,,95,,,20,,,,,,,,,,,,,,
dig,353,903943,0.0-102.0-3.0,,,,,,,,,,,"[{""stimulus"":""run_exp/static/images/task_images/dig.jpg"",""time"":0.5999999940395355},{""stimulus"":""run_exp/static/images/task_images/land.jpg"",""time"":673.8999999910593},{""stimulus"":""run_exp/static/images/task_images/dig.jpg"",""time"":1335.8999999910593}]",[],20,,,,,,,,,,,,,,
harvest,354,904951,0.0-102.0-4.0,,null,run_exp/static/images/task_images/gems/95.jpg,null,,,,,,50,,,20,,,,,95,0.528613796,0.526315789,,,,,,,
decision,355,905099,0.0-102.0-5.0,,144.6,run_exp/static/images/task_images/land.jpg,65,,,,,,50,,,20,,,,,,,,273462,2,0,FALSE,,,
dig,356,907962,0.0-103.0-0.0,,,,,,,,,,,"[{""stimulus"":""run_exp/static/images/task_images/dig.jpg"",""time"":0.29999999701976776},{""stimulus"":""run_exp/static/images/task_images/land.jpg"",""time"":957.7000000029802},{""stimulus"":""run_exp/static/images/task_images/dig.jpg"",""time"":1908.5}]",[],20,,,,,,,,,,,,,,
harvest,357,908967,0.0-103.0-1.0,,null,run_exp/static/images/task_images/gems/50.jpg,null,,,,,,28,,,20,,,,,50,0.55946836,0.56,,,,,,,
decision,358,908977,0.0-103.0-2.0,,7.299999997,run_exp/static/images/task_images/land.jpg,76,,,,,,28,,,20,,,,,,,,277340,2,1,TRUE,,,
travel,359,918975,0.0-104.0-0.0,,,,,,,,,,,"[{""stimulus"":""run_exp/static/images/task_images/rocket-01.jpg"",""time"":0.20000000298023224},{""stimulus"":""run_exp/static/images/task_images/rocket-02.jpg"",""time"":1116.6000000089407},{""stimulus"":""run_exp/static/images/task_images/rocket-03.jpg"",""time"":2225.7000000029802},{""stimulus"":""run_exp/static/images/task_images/rocket-04.jpg"",""time"":3336},{""stimulus"":""run_exp/static/images/task_images/rocket-05.jpg"",""time"":4443.9000000059605},{""stimulus"":""run_exp/static/images/task_images/rocket-06.jpg"",""time"":5553.100000008941},{""stimulus"":""run_exp/static/images/task_images/rocket-07.jpg"",""time"":6664.29999999702},{""stimulus"":""run_exp/static/images/task_images/rocket-08.jpg"",""time"":7772.9000000059605},{""stimulus"":""run_exp/static/images/task_images/rocket-09.jpg"",""time"":8882}]",[],20,,,,,,,,,,,,,,
alien_welcome,360,923980,0.0-104.0-1.0,,null,run_exp/static/images/task_images/aliens/old_aliens/planet/alien_planet-32.jpg,null,,,,,,,,,,,,32,"44,50,77,22,16,17,38,12,18,78,74,40,11,52,1,20,62,73,54,26,32,7,47,31,63,69,65,53,24,3,51,68,5,41,10,48,61,70,39,14,34",,,,,,,,,,
land,361,924484,0.0-104.0-2.0,,null,run_exp/static/images/task_images/land.jpg,null,,,,,,99,,,21,,,,,,,,,,,,,,
dig,362,926491,0.0-104.0-3.0,,,,,,,,,,,"[{""stimulus"":""run_exp/static/images/task_images/dig.jpg"",""time"":0.7999999970197678},{""stimulus"":""run_exp/static/images/task_images/land.jpg"",""time"":674.2000000029802},{""stimulus"":""run_exp/static/images/task_images/dig.jpg"",""time"":1336.9000000059605}]",[],21,,,,,,,,,,,,,,
harvest,363,927494,0.0-104.0-4.0,,null,run_exp/static/images/task_images/gems/99.jpg,null,,,,,,84,,,21,,,,,99,0.849310582,0.848484848,,,,,,,
decision,364,927675,0.0-104.0-5.0,,178.3,run_exp/static/images/task_images/land.jpg,65,,,,,,84,,,21,,,,,,,,296038,2,0,FALSE,,,
dig,365,930508,0.0-105.0-0.0,,,,,,,,,,,"[{""stimulus"":""run_exp/static/images/task_images/dig.jpg"",""time"":0.3999999910593033},{""stimulus"":""run_exp/static/images/task_images/land.jpg"",""time"":946.5999999940395},{""stimulus"":""run_exp/static/images/task_images/dig.jpg"",""time"":1882.2999999970198}]",[],21,,,,,,,,,,,,,,
harvest,366,931513,0.0-105.0-1.0,,null,run_exp/static/images/task_images/gems/84.jpg,null,,,,,,71,,,21,,,,,84,0.843613847,0.845238095,,,,,,,
decision,367,931629,0.0-105.0-2.0,,113.3,run_exp/static/images/task_images/land.jpg,65,,,,,,71,,,21,,,,,,,,299993,2,1,FALSE,,,
dig,368,934524,0.0-106.0-0.0,,,,,,,,,,,"[{""stimulus"":""run_exp/static/images/task_images/dig.jpg"",""time"":0.3999999910593033},{""stimulus"":""run_exp/static/images/task_images/land.jpg"",""time"":968.7000000029802},{""stimulus"":""run_exp/static/images/task_images/dig.jpg"",""time"":1928.2999999970198}]",[],21,,,,,,,,,,,,,,
harvest,369,935530,0.0-106.0-1.0,,null,run_exp/static/images/task_images/gems/71.jpg,null,,,,,,60,,,21,,,,,71,0.83890014,0.845070423,,,,,,,
decision,370,935635,0.0-106.0-2.0,,102,run_exp/static/images/task_images/land.jpg,65,,,,,,60,,,21,,,,,,,,303998,2,2,TRUE,,,
end_of_block_continue,371,944460,0.0-107.0-0.0,,null,run_exp/static/audio/clip_32_block_end.m4a,,,,,,null,,,,,,,,,,,,,,,,,,
alien_welcome,372,949472,0.0-108.0-0.0,,null,run_exp/static/images/task_images/aliens/old_aliens/planet/alien_planet-7.jpg,null,,,,,,,,,,,,7,"44,50,77,22,16,17,38,12,18,78,74,40,11,52,1,20,62,73,54,26,32,7,47,31,63,69,65,53,24,3,51,68,5,41,10,48,61,70,39,14,34",,,,,,,,,,
land,373,949976,0.0-108.0-1.0,,null,run_exp/static/images/task_images/land.jpg,null,,,,,,106,,,22,,,,,,,,,,,,,,
dig,374,951987,0.0-108.0-2.0,,,,,,,,,,,"[{""stimulus"":""run_exp/static/images/task_images/dig.jpg"",""time"":0.5999999940395355},{""stimulus"":""run_exp/static/images/task_images/land.jpg"",""time"":671.3999999910593},{""stimulus"":""run_exp/static/images/task_images/dig.jpg"",""time"":1337.0999999940395}]",[],22,,,,,,,,,,,,,,
harvest,375,952995,0.0-108.0-3.0,,null,run_exp/static/images/task_images/gems/106.jpg,null,,,,,,69,,,22,,,,,106,0.652470152,0.650943396,,,,,,,
decision,376,953093,0.0-108.0-4.0,,93.8,run_exp/static/images/task_images/land.jpg,65,,,,,,69,,,22,,,,,,,,8625,3,0,FALSE,,,
dig,377,956011,0.0-109.0-0.0,,,,,,,,,,,"[{""stimulus"":""run_exp/static/images/task_images/dig.jpg"",""time"":0.4000000059604645},{""stimulus"":""run_exp/static/images/task_images/land.jpg"",""time"":970.7999999970198},{""stimulus"":""run_exp/static/images/task_images/dig.jpg"",""time"":1938.6000000089407}]",[],22,,,,,,,,,,,,,,
harvest,378,957016,0.0-109.0-1.0,,null,run_exp/static/images/task_images/gems/69.jpg,null,,,,,,33,,,22,,,,,69,0.476960023,0.47826087,,,,,,,
decision,379,957084,0.0-109.0-2.0,,64.7,run_exp/static/images/task_images/land.jpg,65,,,,,,33,,,22,,,,,,,,12616,3,1,FALSE,,,
dig,380,960031,0.0-110.0-0.0,,,,,,,,,,,"[{""stimulus"":""run_exp/static/images/task_images/dig.jpg"",""time"":0.4000000059604645},{""stimulus"":""run_exp/static/images/task_images/land.jpg"",""time"":980.5},{""stimulus"":""run_exp/static/images/task_images/dig.jpg"",""time"":1959.0999999940395}]",[],22,,,,,,,,,,,,,,
harvest,381,961036,0.0-110.0-1.0,,null,run_exp/static/images/task_images/gems/33.jpg,null,,,,,,15,,,22,,,,,33,0.463832633,0.454545455,,,,,,,
decision,382,961179,0.0-110.0-2.0,,140.5,run_exp/static/images/task_images/land.jpg,76,,,,,,15,,,22,,,,,,,,16712,3,2,TRUE,,,
travel,383,971045,0.0-111.0-0.0,,,,,,,,,,,"[{""stimulus"":""run_exp/static/images/task_images/rocket-01.jpg"",""time"":0.19999998807907104},{""stimulus"":""run_exp/static/images/task_images/rocket-02.jpg"",""time"":1101.5},{""stimulus"":""run_exp/static/images/task_images/rocket-03.jpg"",""time"":2196.5999999940395},{""stimulus"":""run_exp/static/images/task_images/rocket-04.jpg"",""time"":3291.5},{""stimulus"":""run_exp/static/images/task_images/rocket-05.jpg"",""time"":4386.5999999940395},{""stimulus"":""run_exp/static/images/task_images/rocket-06.jpg"",""time"":5481.29999999702},{""stimulus"":""run_exp/static/images/task_images/rocket-07.jpg"",""time"":6574.79999999702},{""stimulus"":""run_exp/static/images/task_images/rocket-08.jpg"",""time"":7666.5},{""stimulus"":""run_exp/static/images/task_images/rocket-09.jpg"",""time"":8765.39999999106}]",[],22,,,,,,,,,,,,,,
alien_welcome,384,976055,0.0-111.0-1.0,,null,run_exp/static/images/task_images/aliens/old_aliens/planet/alien_planet-47.jpg,null,,,,,,,,,,,,47,"44,50,77,22,16,17,38,12,18,78,74,40,11,52,1,20,62,73,54,26,32,7,47,31,63,69,65,53,24,3,51,68,5,41,10,48,61,70,39,14,34",,,,,,,,,,
land,385,976560,0.0-111.0-2.0,,null,run_exp/static/images/task_images/land.jpg,null,,,,,,101,,,23,,,,,,,,,,,,,,
dig,386,978568,0.0-111.0-3.0,,,,,,,,,,,"[{""stimulus"":""run_exp/static/images/task_images/dig.jpg"",""time"":0.5},{""stimulus"":""run_exp/static/images/task_images/land.jpg"",""time"":670.5},{""stimulus"":""run_exp/static/images/task_images/dig.jpg"",""time"":1337.7999999970198}]",[],23,,,,,,,,,,,,,,
harvest,387,979576,0.0-111.0-4.0,,null,run_exp/static/images/task_images/gems/101.jpg,null,,,,,,76,,,23,,,,,101,0.752744343,0.752475248,,,,,,,
decision,388,979601,0.0-111.0-5.0,,22.39999999,run_exp/static/images/task_images/land.jpg,65,,,,,,76,,,23,,,,,,,,35133,3,0,FALSE,,,
dig,389,982587,0.0-112.0-0.0,,,,,,,,,,,"[{""stimulus"":""run_exp/static/images/task_images/dig.jpg"",""time"":0.20000000298023224},{""stimulus"":""run_exp/static/images/task_images/land.jpg"",""time"":995.1000000089407},{""stimulus"":""run_exp/static/images/task_images/dig.jpg"",""time"":1988.1000000089407}]",[],23,,,,,,,,,,,,,,
harvest,390,983589,0.0-112.0-1.0,,null,run_exp/static/images/task_images/gems/76.jpg,null,,,,,,65,,,23,,,,,76,0.859742991,0.855263158,,,,,,,
decision,391,983765,0.0-112.0-2.0,,172.8,run_exp/static/images/task_images/land.jpg,65,,,,,,65,,,23,,,,,,,,39298,3,1,FALSE,,,
dig,392,986603,0.0-113.0-0.0,,,,,,,,,,,"[{""stimulus"":""run_exp/static/images/task_images/dig.jpg"",""time"":0.09999999403953552},{""stimulus"":""run_exp/static/images/task_images/land.jpg"",""time"":948.3999999910593},{""stimulus"":""run_exp/static/images/task_images/dig.jpg"",""time"":1890.2999999970198}]",[],23,,,,,,,,,,,,,,
harvest,393,987610,0.0-113.0-1.0,,null,run_exp/static/images/task_images/gems/65.jpg,null,,,,,,44,,,23,,,,,65,0.679739893,0.676923077,,,,,,,
decision,394,987775,0.0-113.0-2.0,,161.3,run_exp/static/images/task_images/land.jpg,65,,,,,,44,,,23,,,,,,,,43307,3,2,FALSE,,,
dig,395,990625,0.0-114.0-0.0,,,,,,,,,,,"[{""stimulus"":""run_exp/static/images/task_images/dig.jpg"",""time"":0.20000000298023224},{""stimulus"":""run_exp/static/images/task_images/land.jpg"",""time"":949.7000000029802},{""stimulus"":""run_exp/static/images/task_images/dig.jpg"",""time"":1896}]",[],23,,,,,,,,,,,,,,
harvest,396,991632,0.0-114.0-1.0,,null,run_exp/static/images/task_images/gems/44.jpg,null,,,,,,34,,,23,,,,,44,0.768321599,0.772727273,,,,,,,
decision,397,991643,0.0-114.0-2.0,,8.200000003,run_exp/static/images/task_images/land.jpg,65,,,,,,34,,,23,,,,,,,,47175,3,3,FALSE,,,
