trial_type,trial_index,time_elapsed,internal_node_id,interactions,blur_events,focus_events,fullscreenenter_events,fullscreenexit_events,success,rt,stimulus,key_press,prompt,subject_id,participant_id,age,gender,button_pressed,next_reward,animation_sequence,responses,planet,curr_prac_trial,n_prac_rounds,alien,aliens,reward_received,decay_rate_actual,decay_rate_exp,time_in_block,block_num,prt,last_trial_on_planet,button_html,bonus,num_failures
pavlovia,0,3,0.0-0.0,"""event"",""trial"",""time""
""fullscreenenter"",""1"",""3546""
","
","
","""event"",""trial"",""time""
""fullscreenenter"",""1"",""3546""
","
",,,,,,,,,,,,,,,,,,,,,,,,,,,,
fullscreen,1,4540,0.0-1.0,"""event"",""trial"",""time""
""fullscreenenter"",""1"",""3546""
","
","
","""event"",""trial"",""time""
""fullscreenenter"",""1"",""3546""
","
",TRUE,,,,,,,,,,,,,,,,,,,,,,,,,,,
instruc_welcome,2,14335,0.0-2.0,"""event"",""trial"",""time""
""fullscreenenter"",""1"",""3546""
","
","
","""event"",""trial"",""time""
""fullscreenenter"",""1"",""3546""
","
",,null,run_exp/static/audio/clip_1_welcome.m4a,null,"<p>Howdy! In this experiment, you’ll be an explorer traveling through space to collect space treasure.</p><p>Your mission is to collect as much treasure as possible.</p><br><br><p><img src='run_exp/static/images/task_images/opening_img-01.jpg' height='300' width='auto'></p>",7943,3158,19.36,Male,,,,,,,,,,,,,,,,,,,
audio-keyboard-response,3,30959,0.0-3.0,"""event"",""trial"",""time""
""fullscreenenter"",""1"",""3546""
","
","
","""event"",""trial"",""time""
""fullscreenenter"",""1"",""3546""
","
",,null,run_exp/static/audio/clip_2_move.m4a,null,,,,,,,,,,,,,,,,,,,,,,,,
welcome_dec,4,34240,0.0-4.0,"""event"",""trial"",""time""
""fullscreenenter"",""1"",""3546""
","
","
","""event"",""trial"",""time""
""fullscreenenter"",""1"",""3546""
","
",,3277.4,"<p>Howdy! In this experiment, you’ll be an explorer traveling through space to collect space treasure.</p><p>Your mission is to collect as much treasure as possible.</p><br><br><p><img src='run_exp/static/images/task_images/opening_img-01.jpg' height='300' width='auto'></p>",,,,,,,1,,,,,,,,,,,,,,,,,,
html-keyboard-response,5,36423,0.0-5.0,"""event"",""trial"",""time""
""fullscreenenter"",""1"",""3546""
","
","
","""event"",""trial"",""time""
""fullscreenenter"",""1"",""3546""
","
",,2180.1,"<p>Howdy! In this experiment, you’ll be an explorer traveling through space to collect space treasure.</p><p>Your mission is to collect as much treasure as possible.</p><br><br><p><img src='run_exp/static/images/task_images/opening_img-01.jpg' height='300' width='auto'></p><button class=""jspsych-html-btn-unchosen""><img src=""run_exp/static/images/task_images/planet-01.jpg"" height=""50""></button><button class=""jspsych-html-btn-chosen""><img src=""run_exp/static/images/task_images/planet-02.jpg"" height=""50""></button><p><b>[press the space bar to lock in your answer]<b><br></p>",32,,,,,,,,,,,,,,,,,,,,,,,,
instruc_goal,6,46517,0.0-6.0-0.0,"""event"",""trial"",""time""
""fullscreenenter"",""1"",""3546""
","
","
","""event"",""trial"",""time""
""fullscreenenter"",""1"",""3546""
","
",,null,run_exp/static/audio/clip_3_goal.m4a,null,"<p> As a space explorer, you’ll visit different planets to dig for space treasure, these pink gems.</p> <p> The more treasure you dig up, the more bonus money you’ll win! </p><br><br><p><img src='run_exp/static/images/task_images/pink_gem.jpg' height='300' width='auto'></p>",,,,,,,,,,,,,,,,,,,,,,,
instruc_goal,7,49223,0.0-6.0-1.0,"""event"",""trial"",""time""
""fullscreenenter"",""1"",""3546""
","
","
","""event"",""trial"",""time""
""fullscreenenter"",""1"",""3546""
","
",,2704.2,"<p> As a space explorer, you’ll visit different planets to dig for space treasure, these pink gems.</p> <p> The more treasure you dig up, the more bonus money you’ll win! </p><br><br><p><img src='run_exp/static/images/task_images/pink_gem.jpg' height='300' width='auto'></p>",,,,,,,1,,,,,,,,,,,,,,,,,,
html-keyboard-response,8,54318,0.0-6.0-2.0,"""event"",""trial"",""time""
""fullscreenenter"",""1"",""3546""
","
","
","""event"",""trial"",""time""
""fullscreenenter"",""1"",""3546""
","
",,5093.3,"<p> As a space explorer, you’ll visit different planets to dig for space treasure, these pink gems.</p> <p> The more treasure you dig up, the more bonus money you’ll win! </p><br><br><p><img src='run_exp/static/images/task_images/pink_gem.jpg' height='300' width='auto'></p><button class=""jspsych-html-btn-unchosen""><img src=""run_exp/static/images/task_images/planet-01.jpg"" height=""50""></button><button class=""jspsych-html-btn-chosen""><img src=""run_exp/static/images/task_images/planet-02.jpg"" height=""50""></button><p><b>[press the space bar to lock in your answer]<b><br></p>",32,,,,,,,,,,,,,,,,,,,,,,,,
instruc_dig,9,70364,0.0-7.0-0.0,"""event"",""trial"",""time""
""fullscreenenter"",""1"",""3546""
","
","
","""event"",""trial"",""time""
""fullscreenenter"",""1"",""3546""
","
",,null,run_exp/static/audio/clip_4_dig.m4a,null,,,,,,,100,,,,,,,,,,,,,,,,,
instruc_dig_try,10,81565,0.0-7.0-1.0,"""event"",""trial"",""time""
""fullscreenenter"",""1"",""3546""
","
","
","""event"",""trial"",""time""
""fullscreenenter"",""1"",""3546""
","
",,11199.7,"<p> When you’ve arrived at a new planet, you will dig once. </p> <p>Then, you get to decide if you want to stay on the planet and dig again or travel to a new planet and dig there.</p> <p> To stay and dig, press the letter <strong>‘A’</strong> on your keyboard. Try pressing it now! </p><p><img src='run_exp/static/images/task_images/land.jpg'  height='700' width='auto'></p>",65,"<p> When you’ve arrived at a new planet, you will dig once. </p> <p>Then, you get to decide if you want to stay on the planet and dig again or travel to a new planet and dig there.</p> <p> To stay and dig, press the letter <strong>‘A’</strong> on your keyboard. Try pressing it now! </p><p><img src='run_exp/static/images/task_images/land.jpg'  height='700' width='auto'></p>",,,,,,100,,,,,,,,,,,,,,,,,
dig_prac,11,83577,0.0-7.0-2.0,"""event"",""trial"",""time""
""fullscreenenter"",""1"",""3546""
","
","
","""event"",""trial"",""time""
""fullscreenenter"",""1"",""3546""
","
",,,,,,,,,,,,"[{""stimulus"":""run_exp/static/images/task_images/dig.jpg"",""time"":0.3999999761581421},{""stimulus"":""run_exp/static/images/task_images/land.jpg"",""time"":677.5},{""stimulus"":""run_exp/static/images/task_images/dig.jpg"",""time"":1339}]",[],,,,,,,,,,,,,,,
instruc_travel,12,119818,0.0-7.0-3.0,"""event"",""trial"",""time""
""fullscreenenter"",""1"",""3546""
","
","
","""event"",""trial"",""time""
""fullscreenenter"",""1"",""3546""
","
",,null,run_exp/static/audio/clip_5_travel.m4a,null,"<p>Every time you dig up gems, there are less gems on the planet, so the more you dig on a planet the fewer gems you’ll get with each dig.</p><p>When gems are running low, you may want to travel to a new planet. </p> <p>  Planets are very far apart in this galaxy, so it will take some time to travel between them. </p> <br><p>There are lots and lots of planets for you to visit, so you won’t be able to return to any planets you’ve seen before. </p><br><p>To leave this planet and travel to a new one, press the letter <strong>‘L’</strong> on your keyboard. Try pressing it now! </p><p><img src='run_exp/static/images/task_images/rocket-01.jpg'  height='600' width='auto'></p>",,,,,,,,,,,,,,,,,,,,,,,
instruc_travel_try,13,121155,0.0-7.0-4.0,"""event"",""trial"",""time""
""fullscreenenter"",""1"",""3546""
","
","
","""event"",""trial"",""time""
""fullscreenenter"",""1"",""3546""
","
",,1335.3,"<p>Every time you dig up gems, there are less gems on the planet, so the more you dig on a planet the fewer gems you’ll get with each dig.</p><p>When gems are running low, you may want to travel to a new planet. </p> <p>  Planets are very far apart in this galaxy, so it will take some time to travel between them. </p> <br><p>There are lots and lots of planets for you to visit, so you won’t be able to return to any planets you’ve seen before. </p><br><p>To leave this planet and travel to a new one, press the letter <strong>‘L’</strong> on your keyboard. Try pressing it now! </p><p><img src='run_exp/static/images/task_images/rocket-01.jpg'  height='600' width='auto'></p>",76,"<p>Every time you dig up gems, there are less gems on the planet, so the more you dig on a planet the fewer gems you’ll get with each dig.</p><p>When gems are running low, you may want to travel to a new planet. </p> <p>  Planets are very far apart in this galaxy, so it will take some time to travel between them. </p> <br><p>There are lots and lots of planets for you to visit, so you won’t be able to return to any planets you’ve seen before. </p><br><p>To leave this planet and travel to a new one, press the letter <strong>‘L’</strong> on your keyboard. Try pressing it now! </p><p><img src='run_exp/static/images/task_images/rocket-01.jpg'  height='600' width='auto'></p>",,,,,,,,,,,,,,,,,,,,,,,
travel_prac,14,131162,0.0-7.0-5.0,"""event"",""trial"",""time""
""fullscreenenter"",""1"",""3546""
","
","
","""event"",""trial"",""time""
""fullscreenenter"",""1"",""3546""
","
",,,,,,,,,,,,"[{""stimulus"":""run_exp/static/images/task_images/rocket-01.jpg"",""time"":0.19999998807907104},{""stimulus"":""run_exp/static/images/task_images/rocket-02.jpg"",""time"":1117.6000000238419},{""stimulus"":""run_exp/static/images/task_images/rocket-03.jpg"",""time"":2226.300000011921},{""stimulus"":""run_exp/static/images/task_images/rocket-04.jpg"",""time"":3341},{""stimulus"":""run_exp/static/images/task_images/rocket-05.jpg"",""time"":4452.900000035763},{""stimulus"":""run_exp/static/images/task_images/rocket-06.jpg"",""time"":5564.300000011921},{""stimulus"":""run_exp/static/images/task_images/rocket-07.jpg"",""time"":6675.199999988079},{""stimulus"":""run_exp/static/images/task_images/rocket-08.jpg"",""time"":7786.600000023842},{""stimulus"":""run_exp/static/images/task_images/rocket-09.jpg"",""time"":8890.5}]",[],0,,,,,,,,,,,,,,
instruc_alien_greet,15,158363,0.0-7.0-6.0,"""event"",""trial"",""time""
""fullscreenenter"",""1"",""3546""
","
","
","""event"",""trial"",""time""
""fullscreenenter"",""1"",""3546""
","
",,null,run_exp/static/audio/clip_6_alien.m4a,null,"<p>When you arrive at a new planet, the alien who owns the treasure mine on that planet will greet you!</p><p>The better an alien takes care of their mine the easier it is to dig for gems. Some aliens take better care of their mine than others. So, you won’t get exactly the same amount of gems on each planet.</p><p>What the alien looks like does not tell you anything about how many gems there are on the planet.</p><br><p><img src=""run_exp/static/images/task_images/aliens/instructions_aliens/planet/alien_planet-1.jpg""  height=""600"" width=""auto""></p>",,,,,,,,,,,,,,,,,,,,,,,
instruc_alien_greet,16,175690,0.0-7.0-7.0,"""event"",""trial"",""time""
""fullscreenenter"",""1"",""3546""
","
","
","""event"",""trial"",""time""
""fullscreenenter"",""1"",""3546""
","
",,17324.5,"<p>When you arrive at a new planet, the alien who owns the treasure mine on that planet will greet you!</p><p>The better an alien takes care of their mine the easier it is to dig for gems. Some aliens take better care of their mine than others. So, you won’t get exactly the same amount of gems on each planet.</p><p>What the alien looks like does not tell you anything about how many gems there are on the planet.</p><br><p><img src=""run_exp/static/images/task_images/aliens/instructions_aliens/planet/alien_planet-1.jpg""  height=""600"" width=""auto""></p>",,,,,,,1,,,,,,,,,,,,,,,,,,
html-keyboard-response,17,177587,0.0-7.0-8.0,"""event"",""trial"",""time""
""fullscreenenter"",""1"",""3546""
","
","
","""event"",""trial"",""time""
""fullscreenenter"",""1"",""3546""
","
",,1895.1,"<p>When you arrive at a new planet, the alien who owns the treasure mine on that planet will greet you!</p><p>The better an alien takes care of their mine the easier it is to dig for gems. Some aliens take better care of their mine than others. So, you won’t get exactly the same amount of gems on each planet.</p><p>What the alien looks like does not tell you anything about how many gems there are on the planet.</p><br><p><img src=""run_exp/static/images/task_images/aliens/instructions_aliens/planet/alien_planet-1.jpg""  height=""600"" width=""auto""></p><button class=""jspsych-html-btn-unchosen""><img src=""run_exp/static/images/task_images/planet-01.jpg"" height=""50""></button><button class=""jspsych-html-btn-chosen""><img src=""run_exp/static/images/task_images/planet-02.jpg"" height=""50""></button><p><b>[press the space bar to lock in your answer]<b><br></p>",32,,,,,,,,,,,,,,,,,,,,,,,,
time_out,18,188731,0.0-8.0-0.0,"""event"",""trial"",""time""
""fullscreenenter"",""1"",""3546""
","
","
","""event"",""trial"",""time""
""fullscreenenter"",""1"",""3546""
","
",,null,run_exp/static/audio/clip_7_timeout.m4a,null,"<p>If you don't make your choice fast enough, you’ll have to wait a few seconds before you can make another one.</p><p>You can’t dig for more gems or travel to new planets. You just have to sit and wait.</p><br><p><img src='run_exp/static/images/task_images/time_out.jpg'  height='600' width='auto'></p>",,,,,,,,,,,,,,,,,,,,,,,
time_out,19,189657,0.0-8.0-1.0,"""event"",""trial"",""time""
""fullscreenenter"",""1"",""3546""
","
","
","""event"",""trial"",""time""
""fullscreenenter"",""1"",""3546""
","
",,923,"<p>If you don't make your choice fast enough, you’ll have to wait a few seconds before you can make another one.</p><p>You can’t dig for more gems or travel to new planets. You just have to sit and wait.</p><br><p><img src='run_exp/static/images/task_images/time_out.jpg'  height='600' width='auto'></p>",,,,,,,1,,,,,,,,,,,,,,,,,,
html-keyboard-response,20,190273,0.0-8.0-2.0,"""event"",""trial"",""time""
""fullscreenenter"",""1"",""3546""
","
","
","""event"",""trial"",""time""
""fullscreenenter"",""1"",""3546""
","
",,615,"<p>If you don't make your choice fast enough, you’ll have to wait a few seconds before you can make another one.</p><p>You can’t dig for more gems or travel to new planets. You just have to sit and wait.</p><br><p><img src='run_exp/static/images/task_images/time_out.jpg'  height='600' width='auto'></p><button class=""jspsych-html-btn-unchosen""><img src=""run_exp/static/images/task_images/planet-01.jpg"" height=""50""></button><button class=""jspsych-html-btn-chosen""><img src=""run_exp/static/images/task_images/planet-02.jpg"" height=""50""></button><p><b>[press the space bar to lock in your answer]<b><br></p>",32,,,,,,,,,,,,,,,,,,,,,,,,
instruc_break,21,205960,0.0-9.0-0.0,"""event"",""trial"",""time""
""fullscreenenter"",""1"",""3546""
""blur"",""22"",""207725""
""focus"",""22"",""215741""
","""event"",""trial"",""time""
""blur"",""22"",""207725""
","""event"",""trial"",""time""
""focus"",""22"",""215741""
","""event"",""trial"",""time""
""fullscreenenter"",""1"",""3546""
","
",,null,run_exp/static/audio/clip_8_break.m4a,null,"<p> After digging and traveling for a while, you’ll be able to take a break at home base. </p><p>The game will last 20 minutes no matter what.</p><p>You will visit home base every 5 minutes, so, you will visit home base three times during the game.</p><br><p><img src='run_exp/static/images/task_images/home_base.jpg' height='600' width='auto'></p>",,,,,,,,,,,,,,,,,,,,,,,
instruc_break,22,217319,0.0-9.0-1.0,"""event"",""trial"",""time""
""fullscreenenter"",""1"",""3546""
""blur"",""22"",""207725""
""focus"",""22"",""215741""
","""event"",""trial"",""time""
""blur"",""22"",""207725""
","""event"",""trial"",""time""
""focus"",""22"",""215741""
","""event"",""trial"",""time""
""fullscreenenter"",""1"",""3546""
","
",,11356.2,"<p> After digging and traveling for a while, you’ll be able to take a break at home base. </p><p>The game will last 20 minutes no matter what.</p><p>You will visit home base every 5 minutes, so, you will visit home base three times during the game.</p><br><p><img src='run_exp/static/images/task_images/home_base.jpg' height='600' width='auto'></p>",,,,,,,1,,,,,,,,,,,,,,,,,,
html-keyboard-response,23,217733,0.0-9.0-2.0,"""event"",""trial"",""time""
""fullscreenenter"",""1"",""3546""
""blur"",""22"",""207725""
""focus"",""22"",""215741""
","""event"",""trial"",""time""
""blur"",""22"",""207725""
","""event"",""trial"",""time""
""focus"",""22"",""215741""
","""event"",""trial"",""time""
""fullscreenenter"",""1"",""3546""
","
",,412,"<p> After digging and traveling for a while, you’ll be able to take a break at home base. </p><p>The game will last 20 minutes no matter what.</p><p>You will visit home base every 5 minutes, so, you will visit home base three times during the game.</p><br><p><img src='run_exp/static/images/task_images/home_base.jpg' height='600' width='auto'></p><button class=""jspsych-html-btn-unchosen""><img src=""run_exp/static/images/task_images/planet-01.jpg"" height=""50""></button><button class=""jspsych-html-btn-chosen""><img src=""run_exp/static/images/task_images/planet-02.jpg"" height=""50""></button><p><b>[press the space bar to lock in your answer]<b><br></p>",32,,,,,,,,,,,,,,,,,,,,,,,,
instruc_prac_game,24,227894,0.0-10.0-0.0,"""event"",""trial"",""time""
""fullscreenenter"",""1"",""3546""
""blur"",""22"",""207725""
""focus"",""22"",""215741""
","""event"",""trial"",""time""
""blur"",""22"",""207725""
","""event"",""trial"",""time""
""focus"",""22"",""215741""
","""event"",""trial"",""time""
""fullscreenenter"",""1"",""3546""
","
",,null,run_exp/static/audio/clip_9_practice.m4a,null,"<p> Are you ready to play a practice game? </p> <p>In this practice game, you'll be digging up barrels of gems. But, in the real game, you'll be digging up the gems themselves. </p>",,,,,,,,,,,,,,,,,,,,,,,
html-button-response,25,229691,0.0-10.0-1.0,"""event"",""trial"",""time""
""fullscreenenter"",""1"",""3546""
""blur"",""22"",""207725""
""focus"",""22"",""215741""
","""event"",""trial"",""time""
""blur"",""22"",""207725""
","""event"",""trial"",""time""
""focus"",""22"",""215741""
","""event"",""trial"",""time""
""fullscreenenter"",""1"",""3546""
","
",,1796.1,"<p> Are you ready to play a practice game? </p> <p>In this practice game, you'll be digging up barrels of gems. But, in the real game, you'll be digging up the gems themselves. </p>",,,,,,,0,,,,,,,,,,,,,,,,,,
alien_welcome_prac,26,234703,0.0-11.0-0.0,"""event"",""trial"",""time""
""fullscreenenter"",""1"",""3546""
""blur"",""22"",""207725""
""focus"",""22"",""215741""
","""event"",""trial"",""time""
""blur"",""22"",""207725""
","""event"",""trial"",""time""
""focus"",""22"",""215741""
","""event"",""trial"",""time""
""fullscreenenter"",""1"",""3546""
","
",,null,run_exp/static/images/task_images/aliens/practice_aliens/planet/alien_planet-5.jpg,null,,,,,,,,,,,,,,,,,,,,,,,,
land_prac,27,235214,0.0-11.0-1.0,"""event"",""trial"",""time""
""fullscreenenter"",""1"",""3546""
""blur"",""22"",""207725""
""focus"",""22"",""215741""
","""event"",""trial"",""time""
""blur"",""22"",""207725""
","""event"",""trial"",""time""
""focus"",""22"",""215741""
","""event"",""trial"",""time""
""fullscreenenter"",""1"",""3546""
","
",,null,run_exp/static/images/task_images/land.jpg,null,,,,,,,104,,,0,,,,,,,,,,,,,,
dig_prac,28,237221,0.0-11.0-2.0,"""event"",""trial"",""time""
""fullscreenenter"",""1"",""3546""
""blur"",""22"",""207725""
""focus"",""22"",""215741""
","""event"",""trial"",""time""
""blur"",""22"",""207725""
","""event"",""trial"",""time""
""focus"",""22"",""215741""
","""event"",""trial"",""time""
""fullscreenenter"",""1"",""3546""
","
",,,,,,,,,,,,"[{""stimulus"":""run_exp/static/images/task_images/dig.jpg"",""time"":0.5},{""stimulus"":""run_exp/static/images/task_images/land.jpg"",""time"":677},{""stimulus"":""run_exp/static/images/task_images/dig.jpg"",""time"":1340.5999999642372}]",[],,,,,,,,,,,,,,,
harvest_prac,29,238232,0.0-11.0-3.0,"""event"",""trial"",""time""
""fullscreenenter"",""1"",""3546""
""blur"",""22"",""207725""
""focus"",""22"",""215741""
","""event"",""trial"",""time""
""blur"",""22"",""207725""
","""event"",""trial"",""time""
""focus"",""22"",""215741""
","""event"",""trial"",""time""
""fullscreenenter"",""1"",""3546""
","
",,null,run_exp/static/images/task_images/barrel_text.jpg,null,,,,,,,,,,,,,,,,,,,,,,,,
decision_prac,30,241239,0.0-11.0-4.0,"""event"",""trial"",""time""
""fullscreenenter"",""1"",""3546""
""blur"",""22"",""207725""
""focus"",""22"",""215741""
","""event"",""trial"",""time""
""blur"",""22"",""207725""
","""event"",""trial"",""time""
""focus"",""22"",""215741""
","""event"",""trial"",""time""
""fullscreenenter"",""1"",""3546""
","
",,null,run_exp/static/images/task_images/land.jpg,null,,,,,,,,,,,1,,,,,,,,,,,,,
time_out,31,243253,0.0-12.0-0.0,"""event"",""trial"",""time""
""fullscreenenter"",""1"",""3546""
""blur"",""22"",""207725""
""focus"",""22"",""215741""
","""event"",""trial"",""time""
""blur"",""22"",""207725""
","""event"",""trial"",""time""
""focus"",""22"",""215741""
","""event"",""trial"",""time""
""fullscreenenter"",""1"",""3546""
","
",,null,run_exp/static/images/task_images/time_out.jpg,null,,,,,,,,,,,,,,,,,,,,,,,,
decision_prac,32,243690,0.0-12.0-1.0,"""event"",""trial"",""time""
""fullscreenenter"",""1"",""3546""
""blur"",""22"",""207725""
""focus"",""22"",""215741""
","""event"",""trial"",""time""
""blur"",""22"",""207725""
","""event"",""trial"",""time""
""focus"",""22"",""215741""
","""event"",""trial"",""time""
""fullscreenenter"",""1"",""3546""
","
",,433.9,run_exp/static/images/task_images/land.jpg,65,,,,,,,,,,,2,,,,,,,,,,,,,
dig_prac,33,245703,0.0-13.0-0.0,"""event"",""trial"",""time""
""fullscreenenter"",""1"",""3546""
""blur"",""22"",""207725""
""focus"",""22"",""215741""
","""event"",""trial"",""time""
""blur"",""22"",""207725""
","""event"",""trial"",""time""
""focus"",""22"",""215741""
","""event"",""trial"",""time""
""fullscreenenter"",""1"",""3546""
","
",,,,,,,,,,,,"[{""stimulus"":""run_exp/static/images/task_images/dig.jpg"",""time"":0.19999998807907104},{""stimulus"":""run_exp/static/images/task_images/land.jpg"",""time"":671.8999999761581},{""stimulus"":""run_exp/static/images/task_images/dig.jpg"",""time"":1342.199999988079}]",[],,,,,,,,,,,,,,,
harvest_prac,34,246708,0.0-13.0-1.0,"""event"",""trial"",""time""
""fullscreenenter"",""1"",""3546""
""blur"",""22"",""207725""
""focus"",""22"",""215741""
","""event"",""trial"",""time""
""blur"",""22"",""207725""
","""event"",""trial"",""time""
""focus"",""22"",""215741""
","""event"",""trial"",""time""
""fullscreenenter"",""1"",""3546""
","
",,null,run_exp/static/images/task_images/barrel_text.jpg,null,,,,,,,,,,,,,,,,,,,,,,,,
decision_prac,35,247042,0.0-13.0-2.0,"""event"",""trial"",""time""
""fullscreenenter"",""1"",""3546""
""blur"",""22"",""207725""
""focus"",""22"",""215741""
","""event"",""trial"",""time""
""blur"",""22"",""207725""
","""event"",""trial"",""time""
""focus"",""22"",""215741""
","""event"",""trial"",""time""
""fullscreenenter"",""1"",""3546""
","
",,332.4,run_exp/static/images/task_images/land.jpg,65,,,,,,,,,,,3,,,,,,,,,,,,,
dig_prac,36,249052,0.0-14.0-0.0,"""event"",""trial"",""time""
""fullscreenenter"",""1"",""3546""
""blur"",""22"",""207725""
""focus"",""22"",""215741""
","""event"",""trial"",""time""
""blur"",""22"",""207725""
","""event"",""trial"",""time""
""focus"",""22"",""215741""
","""event"",""trial"",""time""
""fullscreenenter"",""1"",""3546""
","
",,,,,,,,,,,,"[{""stimulus"":""run_exp/static/images/task_images/dig.jpg"",""time"":0.10000002384185791},{""stimulus"":""run_exp/static/images/task_images/land.jpg"",""time"":673.1000000238419},{""stimulus"":""run_exp/static/images/task_images/dig.jpg"",""time"":1336.5}]",[],,,,,,,,,,,,,,,
harvest_prac,37,250062,0.0-14.0-1.0,"""event"",""trial"",""time""
""fullscreenenter"",""1"",""3546""
""blur"",""22"",""207725""
""focus"",""22"",""215741""
","""event"",""trial"",""time""
""blur"",""22"",""207725""
","""event"",""trial"",""time""
""focus"",""22"",""215741""
","""event"",""trial"",""time""
""fullscreenenter"",""1"",""3546""
","
",,null,run_exp/static/images/task_images/barrel_text.jpg,null,,,,,,,,,,,,,,,,,,,,,,,,
decision_prac,38,250357,0.0-14.0-2.0,"""event"",""trial"",""time""
""fullscreenenter"",""1"",""3546""
""blur"",""22"",""207725""
""focus"",""22"",""215741""
","""event"",""trial"",""time""
""blur"",""22"",""207725""
","""event"",""trial"",""time""
""focus"",""22"",""215741""
","""event"",""trial"",""time""
""fullscreenenter"",""1"",""3546""
","
",,293.1,run_exp/static/images/task_images/land.jpg,65,,,,,,,,,,,4,,,,,,,,,,,,,
dig_prac,39,252367,0.0-15.0-0.0,"""event"",""trial"",""time""
""fullscreenenter"",""1"",""3546""
""blur"",""22"",""207725""
""focus"",""22"",""215741""
","""event"",""trial"",""time""
""blur"",""22"",""207725""
","""event"",""trial"",""time""
""focus"",""22"",""215741""
","""event"",""trial"",""time""
""fullscreenenter"",""1"",""3546""
","
",,,,,,,,,,,,"[{""stimulus"":""run_exp/static/images/task_images/dig.jpg"",""time"":0.30000001192092896},{""stimulus"":""run_exp/static/images/task_images/land.jpg"",""time"":676.5},{""stimulus"":""run_exp/static/images/task_images/dig.jpg"",""time"":1340.1000000238419}]",[],,,,,,,,,,,,,,,
harvest_prac,40,253375,0.0-15.0-1.0,"""event"",""trial"",""time""
""fullscreenenter"",""1"",""3546""
""blur"",""22"",""207725""
""focus"",""22"",""215741""
","""event"",""trial"",""time""
""blur"",""22"",""207725""
","""event"",""trial"",""time""
""focus"",""22"",""215741""
","""event"",""trial"",""time""
""fullscreenenter"",""1"",""3546""
","
",,null,run_exp/static/images/task_images/barrel_text.jpg,null,,,,,,,,,,,,,,,,,,,,,,,,
decision_prac,41,253800,0.0-15.0-2.0,"""event"",""trial"",""time""
""fullscreenenter"",""1"",""3546""
""blur"",""22"",""207725""
""focus"",""22"",""215741""
","""event"",""trial"",""time""
""blur"",""22"",""207725""
","""event"",""trial"",""time""
""focus"",""22"",""215741""
","""event"",""trial"",""time""
""fullscreenenter"",""1"",""3546""
","
",,422.7,run_exp/static/images/task_images/land.jpg,65,,,,,,,,,,,,1,,,,,,,,,,,,
quiz_instruc,42,257739,0.0-16.0-0.0,"""event"",""trial"",""time""
""fullscreenenter"",""1"",""3546""
""blur"",""22"",""207725""
""focus"",""22"",""215741""
","""event"",""trial"",""time""
""blur"",""22"",""207725""
","""event"",""trial"",""time""
""focus"",""22"",""215741""
","""event"",""trial"",""time""
""fullscreenenter"",""1"",""3546""
","
",,3935.5,run_exp/static/audio/clip_10_quiz.m4a,,,,,,,0,,,,,,,,,,,,,,,,,,
instruc_repeat,43,300526,0.0-16.0-1.0,"""event"",""trial"",""time""
""fullscreenenter"",""1"",""3546""
""blur"",""22"",""207725""
""focus"",""22"",""215741""
","""event"",""trial"",""time""
""blur"",""22"",""207725""
","""event"",""trial"",""time""
""focus"",""22"",""215741""
","""event"",""trial"",""time""
""fullscreenenter"",""1"",""3546""
","
",,null,"<p> Are you ready to play a practice game? </p> <p>In this practice game, you'll be digging up barrels of gems. But, in the real game, you'll be digging up the gems themselves. </p>",null,"<p>In this game, your goal is to collect as many gems as you can. That’s how you will win bonus money. </p> <p>The entire game will last 20 minutes no matter how many gems you collect or how many planets you visit. </p><p>To stay on a planet and dig again, press the letter A on your keyboard. To leave for a new planet, press the letter L.</p><p>The more you dig on a planet, the fewer gems you’ll get with each dig which is why you might consider leaving for a new planet. </p><p>When you arrive at a new planet, you’ll be greeted by an alien. What the alien looks like does not tell you anything about how much treasure is on the planet. </p>",,,,,,,,,,,,,,,,,,,,,,,
instruc_repeat_continue,44,301676,0.0-16.0-2.0,"""event"",""trial"",""time""
""fullscreenenter"",""1"",""3546""
""blur"",""22"",""207725""
""focus"",""22"",""215741""
","""event"",""trial"",""time""
""blur"",""22"",""207725""
","""event"",""trial"",""time""
""focus"",""22"",""215741""
","""event"",""trial"",""time""
""fullscreenenter"",""1"",""3546""
","
",,1148.7,"<p> Are you ready to play a practice game? </p> <p>In this practice game, you'll be digging up barrels of gems. But, in the real game, you'll be digging up the gems themselves. </p>",,,,,,,0,,,,,,,,,,,,,,,,,,
quiz_q_1_ask,45,304170,0.0-16.0-3.0,"""event"",""trial"",""time""
""fullscreenenter"",""1"",""3546""
""blur"",""22"",""207725""
""focus"",""22"",""215741""
","""event"",""trial"",""time""
""blur"",""22"",""207725""
","""event"",""trial"",""time""
""focus"",""22"",""215741""
","""event"",""trial"",""time""
""fullscreenenter"",""1"",""3546""
","
",,2493.5,run_exp/static/audio/clip_11_q1_ask.m4a,,,,,,,2,,,,,,,,,,,,,,,,,,
quiz_q_1_fb_correct,46,308026,0.0-17.0-0.0,"""event"",""trial"",""time""
""fullscreenenter"",""1"",""3546""
""blur"",""22"",""207725""
""focus"",""22"",""215741""
","""event"",""trial"",""time""
""blur"",""22"",""207725""
","""event"",""trial"",""time""
""focus"",""22"",""215741""
","""event"",""trial"",""time""
""fullscreenenter"",""1"",""3546""
","
",,null,run_exp/static/audio/clip_12_q1_correct.m4a,null,<p>That’s correct. You win extra money by collecting more gems.</p>,,,,,,,,,,,,,,,,,,,,,,,
quiz_q_2_ask,47,310772,0.0-17.0-1.0,"""event"",""trial"",""time""
""fullscreenenter"",""1"",""3546""
""blur"",""22"",""207725""
""focus"",""22"",""215741""
","""event"",""trial"",""time""
""blur"",""22"",""207725""
","""event"",""trial"",""time""
""focus"",""22"",""215741""
","""event"",""trial"",""time""
""fullscreenenter"",""1"",""3546""
","
",,2744.2,run_exp/static/audio/clip_14_q2_ask.m4a,,,,,,,1,,,,,,,,,,,,,,,,,,
quiz_q_2_fb_correct,48,314760,0.0-18.0-0.0,"""event"",""trial"",""time""
""fullscreenenter"",""1"",""3546""
""blur"",""22"",""207725""
""focus"",""22"",""215741""
","""event"",""trial"",""time""
""blur"",""22"",""207725""
","""event"",""trial"",""time""
""focus"",""22"",""215741""
","""event"",""trial"",""time""
""fullscreenenter"",""1"",""3546""
","
",,null,run_exp/static/audio/clip_15_q2_correct.m4a,null,<p>That’s correct. The experiment is 20 minutes no matter what.</p>,,,,,,,,,,,,,,,,,,,,,,,
quiz_q_3_ask,49,318673,0.0-18.0-1.0,"""event"",""trial"",""time""
""fullscreenenter"",""1"",""3546""
""blur"",""22"",""207725""
""focus"",""22"",""215741""
","""event"",""trial"",""time""
""blur"",""22"",""207725""
","""event"",""trial"",""time""
""focus"",""22"",""215741""
","""event"",""trial"",""time""
""fullscreenenter"",""1"",""3546""
","
",,3911.8,run_exp/static/audio/clip_17_q3_ask.m4a,,,,,,,1,,,,,,,,,,,,,,,,,,
quiz_q_3_fb_correct,50,322655,0.0-19.0-0.0,"""event"",""trial"",""time""
""fullscreenenter"",""1"",""3546""
""blur"",""22"",""207725""
""focus"",""22"",""215741""
","""event"",""trial"",""time""
""blur"",""22"",""207725""
","""event"",""trial"",""time""
""focus"",""22"",""215741""
","""event"",""trial"",""time""
""fullscreenenter"",""1"",""3546""
","
",,null,run_exp/static/audio/clip_18_q3_correct.m4a,null,<p> That’s correct. You press the letter L to travel to a new planet.</p>,,,,,,,,,,,,,,,,,,,,,,,
quiz_q_4_ask,51,325306,0.0-19.0-1.0,"""event"",""trial"",""time""
""fullscreenenter"",""1"",""3546""
""blur"",""22"",""207725""
""focus"",""22"",""215741""
","""event"",""trial"",""time""
""blur"",""22"",""207725""
","""event"",""trial"",""time""
""focus"",""22"",""215741""
","""event"",""trial"",""time""
""fullscreenenter"",""1"",""3546""
","
",,2649.3,run_exp/static/audio/clip_20_q4_ask.m4a,,,,,,,0,,,,,,,,,,,,,,,,,,
quiz_q_4_fb_correct,52,330619,0.0-20.0-0.0,"""event"",""trial"",""time""
""fullscreenenter"",""1"",""3546""
""blur"",""22"",""207725""
""focus"",""22"",""215741""
","""event"",""trial"",""time""
""blur"",""22"",""207725""
","""event"",""trial"",""time""
""focus"",""22"",""215741""
","""event"",""trial"",""time""
""fullscreenenter"",""1"",""3546""
","
",,null,run_exp/static/audio/clip_21_q4_correct.m4a,null,<p> That’s correct. The more you dig on a planet the fewer gems you’ll get with each dig. </p>,,,,,,,,,,,,,,,,,,,,,,,
quiz_q_5_ask,53,332542,0.0-20.0-1.0,"""event"",""trial"",""time""
""fullscreenenter"",""1"",""3546""
""blur"",""22"",""207725""
""focus"",""22"",""215741""
","""event"",""trial"",""time""
""blur"",""22"",""207725""
","""event"",""trial"",""time""
""focus"",""22"",""215741""
","""event"",""trial"",""time""
""fullscreenenter"",""1"",""3546""
","
",,1920.7,run_exp/static/audio/clip_23_q5_ask.m4a,,,,,,,1,,,,,,,,,,,,,,,,,,
quiz_q_5_fb_correct,54,337539,0.0-21.0-0.0,"""event"",""trial"",""time""
""fullscreenenter"",""1"",""3546""
""blur"",""22"",""207725""
""focus"",""22"",""215741""
","""event"",""trial"",""time""
""blur"",""22"",""207725""
","""event"",""trial"",""time""
""focus"",""22"",""215741""
","""event"",""trial"",""time""
""fullscreenenter"",""1"",""3546""
","
",,null,run_exp/static/audio/clip_24_q5_correct.m4a,null,<p> That’s correct. The alien tells you nothing about how much treasure is on the planet.</p>,,,,,,,,,,,,,,,,,,,,,,,
quiz_correct,55,340998,0.0-22.0-0.0,"""event"",""trial"",""time""
""fullscreenenter"",""1"",""3546""
""blur"",""22"",""207725""
""focus"",""22"",""215741""
","""event"",""trial"",""time""
""blur"",""22"",""207725""
","""event"",""trial"",""time""
""focus"",""22"",""215741""
","""event"",""trial"",""time""
""fullscreenenter"",""1"",""3546""
","
",,null,run_exp/static/audio/clip_26_correct_quiz.m4a,null,,,,,,,,,,,,,,,,,,,,,,,,
quiz_correct_continue,56,341856,0.0-22.0-1.0,"""event"",""trial"",""time""
""fullscreenenter"",""1"",""3546""
""blur"",""22"",""207725""
""focus"",""22"",""215741""
","""event"",""trial"",""time""
""blur"",""22"",""207725""
","""event"",""trial"",""time""
""focus"",""22"",""215741""
","""event"",""trial"",""time""
""fullscreenenter"",""1"",""3546""
","
",,856.4,<p>Good job! You're now ready to move on to the real game!</p>,,,,,,,0,,,,,,,,,,,,,,,,,,
audio-keyboard-response,57,351981,0.0-22.0-2.0,"""event"",""trial"",""time""
""fullscreenenter"",""1"",""3546""
""blur"",""22"",""207725""
""focus"",""22"",""215741""
","""event"",""trial"",""time""
""blur"",""22"",""207725""
","""event"",""trial"",""time""
""focus"",""22"",""215741""
","""event"",""trial"",""time""
""fullscreenenter"",""1"",""3546""
","
",,null,run_exp/static/audio/clip_28_real_game.m4a,null,,,,,,,,,,,,,,,,,,,,,,,,
instruc_begin_exp_contine,58,353406,0.0-22.0-3.0,"""event"",""trial"",""time""
""fullscreenenter"",""1"",""3546""
""blur"",""22"",""207725""
""focus"",""22"",""215741""
","""event"",""trial"",""time""
""blur"",""22"",""207725""
","""event"",""trial"",""time""
""focus"",""22"",""215741""
","""event"",""trial"",""time""
""fullscreenenter"",""1"",""3546""
","
",,1422.8,"<p>Now that you know how  to dig for space treasure and travel to new planets,you can start exploring! </p><p>Do you want to go over the instructions again or get started with the real game?</p>",,,,,,,1,,,,,,1,,,,,,,,,,,,
alien_welcome,59,358410,0.0-23.0-0.0,"""event"",""trial"",""time""
""fullscreenenter"",""1"",""3546""
""blur"",""22"",""207725""
""focus"",""22"",""215741""
","""event"",""trial"",""time""
""blur"",""22"",""207725""
","""event"",""trial"",""time""
""focus"",""22"",""215741""
","""event"",""trial"",""time""
""fullscreenenter"",""1"",""3546""
","
",,null,run_exp/static/images/task_images/aliens/old_aliens/planet/alien_planet-37.jpg,null,,,,,,,,,,,,,37,"37,41,70,49,66,4,51,65,77,13,8,72,73,9,63,46,14,3,1,67,48,78,56,75,26,34,5,80,18,57,42,21,44,19,11,71,59,53,35",,,,,,,,,,
land,60,358914,0.0-23.0-1.0,"""event"",""trial"",""time""
""fullscreenenter"",""1"",""3546""
""blur"",""22"",""207725""
""focus"",""22"",""215741""
","""event"",""trial"",""time""
""blur"",""22"",""207725""
","""event"",""trial"",""time""
""focus"",""22"",""215741""
","""event"",""trial"",""time""
""fullscreenenter"",""1"",""3546""
","
",,null,run_exp/static/images/task_images/land.jpg,null,,,,,,,108,,,1,,,,,,,,,,,,,,
dig,61,360924,0.0-23.0-2.0,"""event"",""trial"",""time""
""fullscreenenter"",""1"",""3546""
""blur"",""22"",""207725""
""focus"",""22"",""215741""
","""event"",""trial"",""time""
""blur"",""22"",""207725""
","""event"",""trial"",""time""
""focus"",""22"",""215741""
","""event"",""trial"",""time""
""fullscreenenter"",""1"",""3546""
","
",,,,,,,,,,,,"[{""stimulus"":""run_exp/static/images/task_images/dig.jpg"",""time"":0.5},{""stimulus"":""run_exp/static/images/task_images/land.jpg"",""time"":672.1000000238419},{""stimulus"":""run_exp/static/images/task_images/dig.jpg"",""time"":1342.4000000357628}]",[],1,,,,,,,,,,,,,,
harvest,62,361934,0.0-23.0-3.0,"""event"",""trial"",""time""
""fullscreenenter"",""1"",""3546""
""blur"",""22"",""207725""
""focus"",""22"",""215741""
","""event"",""trial"",""time""
""blur"",""22"",""207725""
","""event"",""trial"",""time""
""focus"",""22"",""215741""
","""event"",""trial"",""time""
""fullscreenenter"",""1"",""3546""
","
",,null,run_exp/static/images/task_images/gems/108.jpg,null,,,,,,,35,,,1,,,,,108,0.319446062,0.324074074,,,,,,,
decision,63,362450,0.0-23.0-4.0,"""event"",""trial"",""time""
""fullscreenenter"",""1"",""3546""
""blur"",""22"",""207725""
""focus"",""22"",""215741""
","""event"",""trial"",""time""
""blur"",""22"",""207725""
","""event"",""trial"",""time""
""focus"",""22"",""215741""
","""event"",""trial"",""time""
""fullscreenenter"",""1"",""3546""
","
",,512.8,run_exp/static/images/task_images/land.jpg,65,,,,,,,35,,,1,,,,,,,,9042,1,0,FALSE,,,
dig,64,364946,0.0-24.0-0.0,"""event"",""trial"",""time""
""fullscreenenter"",""1"",""3546""
""blur"",""22"",""207725""
""focus"",""22"",""215741""
","""event"",""trial"",""time""
""blur"",""22"",""207725""
","""event"",""trial"",""time""
""focus"",""22"",""215741""
","""event"",""trial"",""time""
""fullscreenenter"",""1"",""3546""
","
",,,,,,,,,,,,"[{""stimulus"":""run_exp/static/images/task_images/dig.jpg"",""time"":0.10000002384185791},{""stimulus"":""run_exp/static/images/task_images/land.jpg"",""time"":838.9000000357628},{""stimulus"":""run_exp/static/images/task_images/dig.jpg"",""time"":1663.2000000476837}]",[],1,,,,,,,,,,,,,,
harvest,65,365957,0.0-24.0-1.0,"""event"",""trial"",""time""
""fullscreenenter"",""1"",""3546""
""blur"",""22"",""207725""
""focus"",""22"",""215741""
","""event"",""trial"",""time""
""blur"",""22"",""207725""
","""event"",""trial"",""time""
""focus"",""22"",""215741""
","""event"",""trial"",""time""
""fullscreenenter"",""1"",""3546""
","
",,null,run_exp/static/images/task_images/gems/35.jpg,null,,,,,,,6,,,1,,,,,35,0.160434635,0.171428571,,,,,,,
decision,66,366241,0.0-24.0-2.0,"""event"",""trial"",""time""
""fullscreenenter"",""1"",""3546""
""blur"",""22"",""207725""
""focus"",""22"",""215741""
","""event"",""trial"",""time""
""blur"",""22"",""207725""
","""event"",""trial"",""time""
""focus"",""22"",""215741""
","""event"",""trial"",""time""
""fullscreenenter"",""1"",""3546""
","
",,282.3,run_exp/static/images/task_images/land.jpg,65,,,,,,,6,,,1,,,,,,,,12833,1,1,FALSE,,,
dig,67,368964,0.0-25.0-0.0,"""event"",""trial"",""time""
""fullscreenenter"",""1"",""3546""
""blur"",""22"",""207725""
""focus"",""22"",""215741""
","""event"",""trial"",""time""
""blur"",""22"",""207725""
","""event"",""trial"",""time""
""focus"",""22"",""215741""
","""event"",""trial"",""time""
""fullscreenenter"",""1"",""3546""
","
",,,,,,,,,,,,"[{""stimulus"":""run_exp/static/images/task_images/dig.jpg"",""time"":0.20000004768371582},{""stimulus"":""run_exp/static/images/task_images/land.jpg"",""time"":910.3000000119209},{""stimulus"":""run_exp/static/images/task_images/dig.jpg"",""time"":1813.9000000357628}]",[],1,,,,,,,,,,,,,,
harvest,68,369974,0.0-25.0-1.0,"""event"",""trial"",""time""
""fullscreenenter"",""1"",""3546""
""blur"",""22"",""207725""
""focus"",""22"",""215741""
","""event"",""trial"",""time""
""blur"",""22"",""207725""
","""event"",""trial"",""time""
""focus"",""22"",""215741""
","""event"",""trial"",""time""
""fullscreenenter"",""1"",""3546""
","
",,null,run_exp/static/images/task_images/gems/6.jpg,null,,,,,,,1,,,1,,,,,6,0.114050137,0.166666667,,,,,,,
decision,69,370434,0.0-25.0-2.0,"""event"",""trial"",""time""
""fullscreenenter"",""1"",""3546""
""blur"",""22"",""207725""
""focus"",""22"",""215741""
","""event"",""trial"",""time""
""blur"",""22"",""207725""
","""event"",""trial"",""time""
""focus"",""22"",""215741""
","""event"",""trial"",""time""
""fullscreenenter"",""1"",""3546""
","
",,457.9,run_exp/static/images/task_images/land.jpg,76,,,,,,,1,,,1,,,,,,,,17026,1,2,TRUE,,,
travel,70,379989,0.0-26.0-0.0,"""event"",""trial"",""time""
""fullscreenenter"",""1"",""3546""
""blur"",""22"",""207725""
""focus"",""22"",""215741""
","""event"",""trial"",""time""
""blur"",""22"",""207725""
","""event"",""trial"",""time""
""focus"",""22"",""215741""
","""event"",""trial"",""time""
""fullscreenenter"",""1"",""3546""
","
",,,,,,,,,,,,"[{""stimulus"":""run_exp/static/images/task_images/rocket-01.jpg"",""time"":0.2999999523162842},{""stimulus"":""run_exp/static/images/task_images/rocket-02.jpg"",""time"":1063.199999988079},{""stimulus"":""run_exp/static/images/task_images/rocket-03.jpg"",""time"":2125.399999976158},{""stimulus"":""run_exp/static/images/task_images/rocket-04.jpg"",""time"":3187.899999976158},{""stimulus"":""run_exp/static/images/task_images/rocket-05.jpg"",""time"":4244.099999964237},{""stimulus"":""run_exp/static/images/task_images/rocket-06.jpg"",""time"":5312.299999952316},{""stimulus"":""run_exp/static/images/task_images/rocket-07.jpg"",""time"":6368.799999952316},{""stimulus"":""run_exp/static/images/task_images/rocket-08.jpg"",""time"":7431.199999988079},{""stimulus"":""run_exp/static/images/task_images/rocket-09.jpg"",""time"":8487.5}]",[],1,,,,,,,,,,,,,,
alien_welcome,71,384997,0.0-26.0-1.0,"""event"",""trial"",""time""
""fullscreenenter"",""1"",""3546""
""blur"",""22"",""207725""
""focus"",""22"",""215741""
","""event"",""trial"",""time""
""blur"",""22"",""207725""
","""event"",""trial"",""time""
""focus"",""22"",""215741""
","""event"",""trial"",""time""
""fullscreenenter"",""1"",""3546""
","
",,null,run_exp/static/images/task_images/aliens/old_aliens/planet/alien_planet-41.jpg,null,,,,,,,,,,,,,41,"37,41,70,49,66,4,51,65,77,13,8,72,73,9,63,46,14,3,1,67,48,78,56,75,26,34,5,80,18,57,42,21,44,19,11,71,59,53,35",,,,,,,,,,
land,72,385508,0.0-26.0-2.0,"""event"",""trial"",""time""
""fullscreenenter"",""1"",""3546""
""blur"",""22"",""207725""
""focus"",""22"",""215741""
","""event"",""trial"",""time""
""blur"",""22"",""207725""
","""event"",""trial"",""time""
""focus"",""22"",""215741""
","""event"",""trial"",""time""
""fullscreenenter"",""1"",""3546""
","
",,null,run_exp/static/images/task_images/land.jpg,null,,,,,,,104,,,2,,,,,,,,,,,,,,
dig,73,387516,0.0-26.0-3.0,"""event"",""trial"",""time""
""fullscreenenter"",""1"",""3546""
""blur"",""22"",""207725""
""focus"",""22"",""215741""
","""event"",""trial"",""time""
""blur"",""22"",""207725""
","""event"",""trial"",""time""
""focus"",""22"",""215741""
","""event"",""trial"",""time""
""fullscreenenter"",""1"",""3546""
","
",,,,,,,,,,,,"[{""stimulus"":""run_exp/static/images/task_images/dig.jpg"",""time"":0.5},{""stimulus"":""run_exp/static/images/task_images/land.jpg"",""time"":676.6000000238419},{""stimulus"":""run_exp/static/images/task_images/dig.jpg"",""time"":1340.4000000357628}]",[],2,,,,,,,,,,,,,,
harvest,74,388522,0.0-26.0-4.0,"""event"",""trial"",""time""
""fullscreenenter"",""1"",""3546""
""blur"",""22"",""207725""
""focus"",""22"",""215741""
","""event"",""trial"",""time""
""blur"",""22"",""207725""
","""event"",""trial"",""time""
""focus"",""22"",""215741""
","""event"",""trial"",""time""
""fullscreenenter"",""1"",""3546""
","
",,null,run_exp/static/images/task_images/gems/104.jpg,null,,,,,,,14,,,2,,,,,104,0.134753032,0.134615385,,,,,,,
decision,75,388822,0.0-26.0-5.0,"""event"",""trial"",""time""
""fullscreenenter"",""1"",""3546""
""blur"",""22"",""207725""
""focus"",""22"",""215741""
","""event"",""trial"",""time""
""blur"",""22"",""207725""
","""event"",""trial"",""time""
""focus"",""22"",""215741""
","""event"",""trial"",""time""
""fullscreenenter"",""1"",""3546""
","
",,297.7,run_exp/static/images/task_images/land.jpg,65,,,,,,,14,,,2,,,,,,,,35414,1,0,FALSE,,,
dig,76,391533,0.0-27.0-0.0,"""event"",""trial"",""time""
""fullscreenenter"",""1"",""3546""
""blur"",""22"",""207725""
""focus"",""22"",""215741""
","""event"",""trial"",""time""
""blur"",""22"",""207725""
","""event"",""trial"",""time""
""focus"",""22"",""215741""
","""event"",""trial"",""time""
""fullscreenenter"",""1"",""3546""
","
",,,,,,,,,,,,"[{""stimulus"":""run_exp/static/images/task_images/dig.jpg"",""time"":0.19999998807907104},{""stimulus"":""run_exp/static/images/task_images/land.jpg"",""time"":908.0999999642372},{""stimulus"":""run_exp/static/images/task_images/dig.jpg"",""time"":1808}]",[],2,,,,,,,,,,,,,,
harvest,77,392537,0.0-27.0-1.0,"""event"",""trial"",""time""
""fullscreenenter"",""1"",""3546""
""blur"",""22"",""207725""
""focus"",""22"",""215741""
","""event"",""trial"",""time""
""blur"",""22"",""207725""
","""event"",""trial"",""time""
""focus"",""22"",""215741""
","""event"",""trial"",""time""
""fullscreenenter"",""1"",""3546""
","
",,null,run_exp/static/images/task_images/gems/14.jpg,null,,,,,,,3,,,2,,,,,14,0.17882993,0.214285714,,,,,,,
decision,78,392614,0.0-27.0-2.0,"""event"",""trial"",""time""
""fullscreenenter"",""1"",""3546""
""blur"",""22"",""207725""
""focus"",""22"",""215741""
","""event"",""trial"",""time""
""blur"",""22"",""207725""
","""event"",""trial"",""time""
""focus"",""22"",""215741""
","""event"",""trial"",""time""
""fullscreenenter"",""1"",""3546""
","
",,74.90000004,run_exp/static/images/task_images/land.jpg,76,,,,,,,3,,,2,,,,,,,,39206,1,1,TRUE,,,
travel,79,402546,0.0-28.0-0.0,"""event"",""trial"",""time""
""fullscreenenter"",""1"",""3546""
""blur"",""22"",""207725""
""focus"",""22"",""215741""
","""event"",""trial"",""time""
""blur"",""22"",""207725""
","""event"",""trial"",""time""
""focus"",""22"",""215741""
","""event"",""trial"",""time""
""fullscreenenter"",""1"",""3546""
","
",,,,,,,,,,,,"[{""stimulus"":""run_exp/static/images/task_images/rocket-01.jpg"",""time"":0.40000003576278687},{""stimulus"":""run_exp/static/images/task_images/rocket-02.jpg"",""time"":1115.2000000476837},{""stimulus"":""run_exp/static/images/task_images/rocket-03.jpg"",""time"":2208.600000023842},{""stimulus"":""run_exp/static/images/task_images/rocket-04.jpg"",""time"":3315.2000000476837},{""stimulus"":""run_exp/static/images/task_images/rocket-05.jpg"",""time"":4418.400000035763},{""stimulus"":""run_exp/static/images/task_images/rocket-06.jpg"",""time"":5520.800000011921},{""stimulus"":""run_exp/static/images/task_images/rocket-07.jpg"",""time"":6618.5},{""stimulus"":""run_exp/static/images/task_images/rocket-08.jpg"",""time"":7716},{""stimulus"":""run_exp/static/images/task_images/rocket-09.jpg"",""time"":8824.400000035763}]",[],2,,,,,,,,,,,,,,
alien_welcome,80,407554,0.0-28.0-1.0,"""event"",""trial"",""time""
""fullscreenenter"",""1"",""3546""
""blur"",""22"",""207725""
""focus"",""22"",""215741""
","""event"",""trial"",""time""
""blur"",""22"",""207725""
","""event"",""trial"",""time""
""focus"",""22"",""215741""
","""event"",""trial"",""time""
""fullscreenenter"",""1"",""3546""
","
",,null,run_exp/static/images/task_images/aliens/old_aliens/planet/alien_planet-70.jpg,null,,,,,,,,,,,,,70,"37,41,70,49,66,4,51,65,77,13,8,72,73,9,63,46,14,3,1,67,48,78,56,75,26,34,5,80,18,57,42,21,44,19,11,71,59,53,35",,,,,,,,,,
land,81,408065,0.0-28.0-2.0,"""event"",""trial"",""time""
""fullscreenenter"",""1"",""3546""
""blur"",""22"",""207725""
""focus"",""22"",""215741""
","""event"",""trial"",""time""
""blur"",""22"",""207725""
","""event"",""trial"",""time""
""focus"",""22"",""215741""
","""event"",""trial"",""time""
""fullscreenenter"",""1"",""3546""
","
",,null,run_exp/static/images/task_images/land.jpg,null,,,,,,,99,,,3,,,,,,,,,,,,,,
dig,82,410074,0.0-28.0-3.0,"""event"",""trial"",""time""
""fullscreenenter"",""1"",""3546""
""blur"",""22"",""207725""
""focus"",""22"",""215741""
","""event"",""trial"",""time""
""blur"",""22"",""207725""
","""event"",""trial"",""time""
""focus"",""22"",""215741""
","""event"",""trial"",""time""
""fullscreenenter"",""1"",""3546""
","
",,,,,,,,,,,,"[{""stimulus"":""run_exp/static/images/task_images/dig.jpg"",""time"":0.5999999642372131},{""stimulus"":""run_exp/static/images/task_images/land.jpg"",""time"":670.6999999880791},{""stimulus"":""run_exp/static/images/task_images/dig.jpg"",""time"":1342.2999999523163}]",[],3,,,,,,,,,,,,,,
harvest,83,411084,0.0-28.0-4.0,"""event"",""trial"",""time""
""fullscreenenter"",""1"",""3546""
""blur"",""22"",""207725""
""focus"",""22"",""215741""
","""event"",""trial"",""time""
""blur"",""22"",""207725""
","""event"",""trial"",""time""
""focus"",""22"",""215741""
","""event"",""trial"",""time""
""fullscreenenter"",""1"",""3546""
","
",,null,run_exp/static/images/task_images/gems/99.jpg,null,,,,,,,56,,,3,,,,,99,0.569898225,0.565656566,,,,,,,
decision,84,411581,0.0-28.0-5.0,"""event"",""trial"",""time""
""fullscreenenter"",""1"",""3546""
""blur"",""22"",""207725""
""focus"",""22"",""215741""
","""event"",""trial"",""time""
""blur"",""22"",""207725""
","""event"",""trial"",""time""
""focus"",""22"",""215741""
","""event"",""trial"",""time""
""fullscreenenter"",""1"",""3546""
","
",,495.4,run_exp/static/images/task_images/land.jpg,65,,,,,,,56,,,3,,,,,,,,58174,1,0,FALSE,,,
dig,85,414090,0.0-29.0-0.0,"""event"",""trial"",""time""
""fullscreenenter"",""1"",""3546""
""blur"",""22"",""207725""
""focus"",""22"",""215741""
","""event"",""trial"",""time""
""blur"",""22"",""207725""
","""event"",""trial"",""time""
""focus"",""22"",""215741""
","""event"",""trial"",""time""
""fullscreenenter"",""1"",""3546""
","
",,,,,,,,,,,,"[{""stimulus"":""run_exp/static/images/task_images/dig.jpg"",""time"":0.19999998807907104},{""stimulus"":""run_exp/static/images/task_images/land.jpg"",""time"":842.6999999880791},{""stimulus"":""run_exp/static/images/task_images/dig.jpg"",""time"":1675.699999988079}]",[],3,,,,,,,,,,,,,,
harvest,86,415097,0.0-29.0-1.0,"""event"",""trial"",""time""
""fullscreenenter"",""1"",""3546""
""blur"",""22"",""207725""
""focus"",""22"",""215741""
","""event"",""trial"",""time""
""blur"",""22"",""207725""
","""event"",""trial"",""time""
""focus"",""22"",""215741""
","""event"",""trial"",""time""
""fullscreenenter"",""1"",""3546""
","
",,null,run_exp/static/images/task_images/gems/56.jpg,null,,,,,,,33,,,3,,,,,56,0.583334511,0.589285714,,,,,,,
decision,87,415390,0.0-29.0-2.0,"""event"",""trial"",""time""
""fullscreenenter"",""1"",""3546""
""blur"",""22"",""207725""
""focus"",""22"",""215741""
","""event"",""trial"",""time""
""blur"",""22"",""207725""
","""event"",""trial"",""time""
""focus"",""22"",""215741""
","""event"",""trial"",""time""
""fullscreenenter"",""1"",""3546""
","
",,290.9,run_exp/static/images/task_images/land.jpg,65,,,,,,,33,,,3,,,,,,,,61982,1,1,FALSE,,,
dig,88,418107,0.0-30.0-0.0,"""event"",""trial"",""time""
""fullscreenenter"",""1"",""3546""
""blur"",""22"",""207725""
""focus"",""22"",""215741""
","""event"",""trial"",""time""
""blur"",""22"",""207725""
","""event"",""trial"",""time""
""focus"",""22"",""215741""
","""event"",""trial"",""time""
""fullscreenenter"",""1"",""3546""
","
",,,,,,,,,,,,"[{""stimulus"":""run_exp/static/images/task_images/dig.jpg"",""time"":0.19999998807907104},{""stimulus"":""run_exp/static/images/task_images/land.jpg"",""time"":904.8000000119209},{""stimulus"":""run_exp/static/images/task_images/dig.jpg"",""time"":1810.1000000238419}]",[],3,,,,,,,,,,,,,,
harvest,89,419113,0.0-30.0-1.0,"""event"",""trial"",""time""
""fullscreenenter"",""1"",""3546""
""blur"",""22"",""207725""
""focus"",""22"",""215741""
","""event"",""trial"",""time""
""blur"",""22"",""207725""
","""event"",""trial"",""time""
""focus"",""22"",""215741""
","""event"",""trial"",""time""
""fullscreenenter"",""1"",""3546""
","
",,null,run_exp/static/images/task_images/gems/33.jpg,null,,,,,,,16,,,3,,,,,33,0.490479039,0.484848485,,,,,,,
decision,90,419541,0.0-30.0-2.0,"""event"",""trial"",""time""
""fullscreenenter"",""1"",""3546""
""blur"",""22"",""207725""
""focus"",""22"",""215741""
","""event"",""trial"",""time""
""blur"",""22"",""207725""
","""event"",""trial"",""time""
""focus"",""22"",""215741""
","""event"",""trial"",""time""
""fullscreenenter"",""1"",""3546""
","
",,425.7,run_exp/static/images/task_images/land.jpg,65,,,,,,,16,,,3,,,,,,,,66133,1,2,FALSE,,,
dig,91,422124,0.0-31.0-0.0,"""event"",""trial"",""time""
""fullscreenenter"",""1"",""3546""
""blur"",""22"",""207725""
""focus"",""22"",""215741""
","""event"",""trial"",""time""
""blur"",""22"",""207725""
","""event"",""trial"",""time""
""focus"",""22"",""215741""
","""event"",""trial"",""time""
""fullscreenenter"",""1"",""3546""
","
",,,,,,,,,,,,"[{""stimulus"":""run_exp/static/images/task_images/dig.jpg"",""time"":0.19999998807907104},{""stimulus"":""run_exp/static/images/task_images/land.jpg"",""time"":868},{""stimulus"":""run_exp/static/images/task_images/dig.jpg"",""time"":1721.300000011921}]",[],3,,,,,,,,,,,,,,
harvest,92,423129,0.0-31.0-1.0,"""event"",""trial"",""time""
""fullscreenenter"",""1"",""3546""
""blur"",""22"",""207725""
""focus"",""22"",""215741""
","""event"",""trial"",""time""
""blur"",""22"",""207725""
","""event"",""trial"",""time""
""focus"",""22"",""215741""
","""event"",""trial"",""time""
""fullscreenenter"",""1"",""3546""
","
",,null,run_exp/static/images/task_images/gems/16.jpg,null,,,,,,,7,,,3,,,,,16,0.44598844,0.4375,,,,,,,
decision,93,423336,0.0-31.0-2.0,"""event"",""trial"",""time""
""fullscreenenter"",""1"",""3546""
""blur"",""22"",""207725""
""focus"",""22"",""215741""
","""event"",""trial"",""time""
""blur"",""22"",""207725""
","""event"",""trial"",""time""
""focus"",""22"",""215741""
","""event"",""trial"",""time""
""fullscreenenter"",""1"",""3546""
","
",,205.2,run_exp/static/images/task_images/land.jpg,76,,,,,,,7,,,3,,,,,,,,69928,1,3,TRUE,,,
travel,94,433136,0.0-32.0-0.0,"""event"",""trial"",""time""
""fullscreenenter"",""1"",""3546""
""blur"",""22"",""207725""
""focus"",""22"",""215741""
","""event"",""trial"",""time""
""blur"",""22"",""207725""
","""event"",""trial"",""time""
""focus"",""22"",""215741""
","""event"",""trial"",""time""
""fullscreenenter"",""1"",""3546""
","
",,,,,,,,,,,,"[{""stimulus"":""run_exp/static/images/task_images/rocket-01.jpg"",""time"":0.09999996423721313},{""stimulus"":""run_exp/static/images/task_images/rocket-02.jpg"",""time"":1094.5},{""stimulus"":""run_exp/static/images/task_images/rocket-03.jpg"",""time"":2180.099999964237},{""stimulus"":""run_exp/static/images/task_images/rocket-04.jpg"",""time"":3271.5},{""stimulus"":""run_exp/static/images/task_images/rocket-05.jpg"",""time"":4359.199999988079},{""stimulus"":""run_exp/static/images/task_images/rocket-06.jpg"",""time"":5448.399999976158},{""stimulus"":""run_exp/static/images/task_images/rocket-07.jpg"",""time"":6533.800000011921},{""stimulus"":""run_exp/static/images/task_images/rocket-08.jpg"",""time"":7624.599999964237},{""stimulus"":""run_exp/static/images/task_images/rocket-09.jpg"",""time"":8710.599999964237}]",[],3,,,,,,,,,,,,,,
alien_welcome,95,438145,0.0-32.0-1.0,"""event"",""trial"",""time""
""fullscreenenter"",""1"",""3546""
""blur"",""22"",""207725""
""focus"",""22"",""215741""
","""event"",""trial"",""time""
""blur"",""22"",""207725""
","""event"",""trial"",""time""
""focus"",""22"",""215741""
","""event"",""trial"",""time""
""fullscreenenter"",""1"",""3546""
","
",,null,run_exp/static/images/task_images/aliens/old_aliens/planet/alien_planet-49.jpg,null,,,,,,,,,,,,,49,"37,41,70,49,66,4,51,65,77,13,8,72,73,9,63,46,14,3,1,67,48,78,56,75,26,34,5,80,18,57,42,21,44,19,11,71,59,53,35",,,,,,,,,,
land,96,438656,0.0-32.0-2.0,"""event"",""trial"",""time""
""fullscreenenter"",""1"",""3546""
""blur"",""22"",""207725""
""focus"",""22"",""215741""
","""event"",""trial"",""time""
""blur"",""22"",""207725""
","""event"",""trial"",""time""
""focus"",""22"",""215741""
","""event"",""trial"",""time""
""fullscreenenter"",""1"",""3546""
","
",,null,run_exp/static/images/task_images/land.jpg,null,,,,,,,100,,,4,,,,,,,,,,,,,,
dig,97,440665,0.0-32.0-3.0,"""event"",""trial"",""time""
""fullscreenenter"",""1"",""3546""
""blur"",""22"",""207725""
""focus"",""22"",""215741""
","""event"",""trial"",""time""
""blur"",""22"",""207725""
","""event"",""trial"",""time""
""focus"",""22"",""215741""
","""event"",""trial"",""time""
""fullscreenenter"",""1"",""3546""
","
",,,,,,,,,,,,"[{""stimulus"":""run_exp/static/images/task_images/dig.jpg"",""time"":0.5},{""stimulus"":""run_exp/static/images/task_images/land.jpg"",""time"":671.1000000238419},{""stimulus"":""run_exp/static/images/task_images/dig.jpg"",""time"":1341.300000011921}]",[],4,,,,,,,,,,,,,,
harvest,98,441675,0.0-32.0-4.0,"""event"",""trial"",""time""
""fullscreenenter"",""1"",""3546""
""blur"",""22"",""207725""
""focus"",""22"",""215741""
","""event"",""trial"",""time""
""blur"",""22"",""207725""
","""event"",""trial"",""time""
""focus"",""22"",""215741""
","""event"",""trial"",""time""
""fullscreenenter"",""1"",""3546""
","
",,null,run_exp/static/images/task_images/gems/100.jpg,null,,,,,,,43,,,4,,,,,100,0.430018594,0.43,,,,,,,
decision,99,441965,0.0-32.0-5.0,"""event"",""trial"",""time""
""fullscreenenter"",""1"",""3546""
""blur"",""22"",""207725""
""focus"",""22"",""215741""
","""event"",""trial"",""time""
""blur"",""22"",""207725""
","""event"",""trial"",""time""
""focus"",""22"",""215741""
","""event"",""trial"",""time""
""fullscreenenter"",""1"",""3546""
","
",,287.8,run_exp/static/images/task_images/land.jpg,65,,,,,,,43,,,4,,,,,,,,88558,1,0,FALSE,,,
dig,100,444688,0.0-33.0-0.0,"""event"",""trial"",""time""
""fullscreenenter"",""1"",""3546""
""blur"",""22"",""207725""
""focus"",""22"",""215741""
","""event"",""trial"",""time""
""blur"",""22"",""207725""
","""event"",""trial"",""time""
""focus"",""22"",""215741""
","""event"",""trial"",""time""
""fullscreenenter"",""1"",""3546""
","
",,,,,,,,,,,,"[{""stimulus"":""run_exp/static/images/task_images/dig.jpg"",""time"":0.10000002384185791},{""stimulus"":""run_exp/static/images/task_images/land.jpg"",""time"":914.1000000238419},{""stimulus"":""run_exp/static/images/task_images/dig.jpg"",""time"":1819.199999988079}]",[],4,,,,,,,,,,,,,,
harvest,101,445698,0.0-33.0-1.0,"""event"",""trial"",""time""
""fullscreenenter"",""1"",""3546""
""blur"",""22"",""207725""
""focus"",""22"",""215741""
","""event"",""trial"",""time""
""blur"",""22"",""207725""
","""event"",""trial"",""time""
""focus"",""22"",""215741""
","""event"",""trial"",""time""
""fullscreenenter"",""1"",""3546""
","
",,null,run_exp/static/images/task_images/gems/43.jpg,null,,,,,,,20,,,4,,,,,43,0.455847203,0.465116279,,,,,,,
decision,102,446011,0.0-33.0-2.0,"""event"",""trial"",""time""
""fullscreenenter"",""1"",""3546""
""blur"",""22"",""207725""
""focus"",""22"",""215741""
","""event"",""trial"",""time""
""blur"",""22"",""207725""
","""event"",""trial"",""time""
""focus"",""22"",""215741""
","""event"",""trial"",""time""
""fullscreenenter"",""1"",""3546""
","
",,310.4,run_exp/static/images/task_images/land.jpg,65,,,,,,,20,,,4,,,,,,,,92603,1,1,FALSE,,,
dig,103,448704,0.0-34.0-0.0,"""event"",""trial"",""time""
""fullscreenenter"",""1"",""3546""
""blur"",""22"",""207725""
""focus"",""22"",""215741""
","""event"",""trial"",""time""
""blur"",""22"",""207725""
","""event"",""trial"",""time""
""focus"",""22"",""215741""
","""event"",""trial"",""time""
""fullscreenenter"",""1"",""3546""
","
",,,,,,,,,,,,"[{""stimulus"":""run_exp/static/images/task_images/dig.jpg"",""time"":0.19999998807907104},{""stimulus"":""run_exp/static/images/task_images/land.jpg"",""time"":902.6999999880791},{""stimulus"":""run_exp/static/images/task_images/dig.jpg"",""time"":1797.300000011921}]",[],4,,,,,,,,,,,,,,
harvest,104,449715,0.0-34.0-1.0,"""event"",""trial"",""time""
""fullscreenenter"",""1"",""3546""
""blur"",""22"",""207725""
""focus"",""22"",""215741""
","""event"",""trial"",""time""
""blur"",""22"",""207725""
","""event"",""trial"",""time""
""focus"",""22"",""215741""
","""event"",""trial"",""time""
""fullscreenenter"",""1"",""3546""
","
",,null,run_exp/static/images/task_images/gems/20.jpg,null,,,,,,,11,,,4,,,,,20,0.541597081,0.55,,,,,,,
decision,105,449754,0.0-34.0-2.0,"""event"",""trial"",""time""
""fullscreenenter"",""1"",""3546""
""blur"",""22"",""207725""
""focus"",""22"",""215741""
","""event"",""trial"",""time""
""blur"",""22"",""207725""
","""event"",""trial"",""time""
""focus"",""22"",""215741""
","""event"",""trial"",""time""
""fullscreenenter"",""1"",""3546""
","
",,37.09999996,run_exp/static/images/task_images/land.jpg,65,,,,,,,11,,,4,,,,,,,,96346,1,2,FALSE,,,
dig,106,452721,0.0-35.0-0.0,"""event"",""trial"",""time""
""fullscreenenter"",""1"",""3546""
""blur"",""22"",""207725""
""focus"",""22"",""215741""
","""event"",""trial"",""time""
""blur"",""22"",""207725""
","""event"",""trial"",""time""
""focus"",""22"",""215741""
","""event"",""trial"",""time""
""fullscreenenter"",""1"",""3546""
","
",,,,,,,,,,,,"[{""stimulus"":""run_exp/static/images/task_images/dig.jpg"",""time"":0.10000002384185791},{""stimulus"":""run_exp/static/images/task_images/land.jpg"",""time"":997},{""stimulus"":""run_exp/static/images/task_images/dig.jpg"",""time"":1979.699999988079}]",[],4,,,,,,,,,,,,,,
harvest,107,453732,0.0-35.0-1.0,"""event"",""trial"",""time""
""fullscreenenter"",""1"",""3546""
""blur"",""22"",""207725""
""focus"",""22"",""215741""
","""event"",""trial"",""time""
""blur"",""22"",""207725""
","""event"",""trial"",""time""
""focus"",""22"",""215741""
","""event"",""trial"",""time""
""fullscreenenter"",""1"",""3546""
","
",,null,run_exp/static/images/task_images/gems/11.jpg,null,,,,,,,6,,,4,,,,,11,0.521508038,0.545454545,,,,,,,
decision,108,454248,0.0-35.0-2.0,"""event"",""trial"",""time""
""fullscreenenter"",""1"",""3546""
""blur"",""22"",""207725""
""focus"",""22"",""215741""
","""event"",""trial"",""time""
""blur"",""22"",""207725""
","""event"",""trial"",""time""
""focus"",""22"",""215741""
","""event"",""trial"",""time""
""fullscreenenter"",""1"",""3546""
","
",,514.2,run_exp/static/images/task_images/land.jpg,76,,,,,,,6,,,4,,,,,,,,100840,1,3,TRUE,,,
travel,109,463739,0.0-36.0-0.0,"""event"",""trial"",""time""
""fullscreenenter"",""1"",""3546""
""blur"",""22"",""207725""
""focus"",""22"",""215741""
","""event"",""trial"",""time""
""blur"",""22"",""207725""
","""event"",""trial"",""time""
""focus"",""22"",""215741""
","""event"",""trial"",""time""
""fullscreenenter"",""1"",""3546""
","
",,,,,,,,,,,,"[{""stimulus"":""run_exp/static/images/task_images/rocket-01.jpg"",""time"":0.2999999523162842},{""stimulus"":""run_exp/static/images/task_images/rocket-02.jpg"",""time"":1061},{""stimulus"":""run_exp/static/images/task_images/rocket-03.jpg"",""time"":2115.5},{""stimulus"":""run_exp/static/images/task_images/rocket-04.jpg"",""time"":3165.699999988079},{""stimulus"":""run_exp/static/images/task_images/rocket-05.jpg"",""time"":4222.799999952316},{""stimulus"":""run_exp/static/images/task_images/rocket-06.jpg"",""time"":5269.5},{""stimulus"":""run_exp/static/images/task_images/rocket-07.jpg"",""time"":6324.099999964237},{""stimulus"":""run_exp/static/images/task_images/rocket-08.jpg"",""time"":7380.599999964237},{""stimulus"":""run_exp/static/images/task_images/rocket-09.jpg"",""time"":8431.399999976158}]",[],4,,,,,,,,,,,,,,
alien_welcome,110,468747,0.0-36.0-1.0,"""event"",""trial"",""time""
""fullscreenenter"",""1"",""3546""
""blur"",""22"",""207725""
""focus"",""22"",""215741""
","""event"",""trial"",""time""
""blur"",""22"",""207725""
","""event"",""trial"",""time""
""focus"",""22"",""215741""
","""event"",""trial"",""time""
""fullscreenenter"",""1"",""3546""
","
",,null,run_exp/static/images/task_images/aliens/old_aliens/planet/alien_planet-66.jpg,null,,,,,,,,,,,,,66,"37,41,70,49,66,4,51,65,77,13,8,72,73,9,63,46,14,3,1,67,48,78,56,75,26,34,5,80,18,57,42,21,44,19,11,71,59,53,35",,,,,,,,,,
land,111,469259,0.0-36.0-2.0,"""event"",""trial"",""time""
""fullscreenenter"",""1"",""3546""
""blur"",""22"",""207725""
""focus"",""22"",""215741""
","""event"",""trial"",""time""
""blur"",""22"",""207725""
","""event"",""trial"",""time""
""focus"",""22"",""215741""
","""event"",""trial"",""time""
""fullscreenenter"",""1"",""3546""
","
",,null,run_exp/static/images/task_images/land.jpg,null,,,,,,,88,,,5,,,,,,,,,,,,,,
dig,112,471274,0.0-36.0-3.0,"""event"",""trial"",""time""
""fullscreenenter"",""1"",""3546""
""blur"",""22"",""207725""
""focus"",""22"",""215741""
","""event"",""trial"",""time""
""blur"",""22"",""207725""
","""event"",""trial"",""time""
""focus"",""22"",""215741""
","""event"",""trial"",""time""
""fullscreenenter"",""1"",""3546""
","
",,,,,,,,,,,,"[{""stimulus"":""run_exp/static/images/task_images/dig.jpg"",""time"":0.3999999761581421},{""stimulus"":""run_exp/static/images/task_images/land.jpg"",""time"":678.5},{""stimulus"":""run_exp/static/images/task_images/dig.jpg"",""time"":1339.199999988079}]",[],5,,,,,,,,,,,,,,
harvest,113,472284,0.0-36.0-4.0,"""event"",""trial"",""time""
""fullscreenenter"",""1"",""3546""
""blur"",""22"",""207725""
""focus"",""22"",""215741""
","""event"",""trial"",""time""
""blur"",""22"",""207725""
","""event"",""trial"",""time""
""focus"",""22"",""215741""
","""event"",""trial"",""time""
""fullscreenenter"",""1"",""3546""
","
",,null,run_exp/static/images/task_images/gems/88.jpg,null,,,,,,,43,,,5,,,,,88,0.487781727,0.488636364,,,,,,,
decision,114,472597,0.0-36.0-5.0,"""event"",""trial"",""time""
""fullscreenenter"",""1"",""3546""
""blur"",""22"",""207725""
""focus"",""22"",""215741""
","""event"",""trial"",""time""
""blur"",""22"",""207725""
","""event"",""trial"",""time""
""focus"",""22"",""215741""
","""event"",""trial"",""time""
""fullscreenenter"",""1"",""3546""
","
",,311.4,run_exp/static/images/task_images/land.jpg,65,,,,,,,43,,,5,,,,,,,,119189,1,0,FALSE,,,
dig,115,475297,0.0-37.0-0.0,"""event"",""trial"",""time""
""fullscreenenter"",""1"",""3546""
""blur"",""22"",""207725""
""focus"",""22"",""215741""
","""event"",""trial"",""time""
""blur"",""22"",""207725""
","""event"",""trial"",""time""
""focus"",""22"",""215741""
","""event"",""trial"",""time""
""fullscreenenter"",""1"",""3546""
","
",,,,,,,,,,,,"[{""stimulus"":""run_exp/static/images/task_images/dig.jpg"",""time"":0.19999998807907104},{""stimulus"":""run_exp/static/images/task_images/land.jpg"",""time"":902.8999999761581},{""stimulus"":""run_exp/static/images/task_images/dig.jpg"",""time"":1802}]",[],5,,,,,,,,,,,,,,
harvest,116,476307,0.0-37.0-1.0,"""event"",""trial"",""time""
""fullscreenenter"",""1"",""3546""
""blur"",""22"",""207725""
""focus"",""22"",""215741""
","""event"",""trial"",""time""
""blur"",""22"",""207725""
","""event"",""trial"",""time""
""focus"",""22"",""215741""
","""event"",""trial"",""time""
""fullscreenenter"",""1"",""3546""
","
",,null,run_exp/static/images/task_images/gems/43.jpg,null,,,,,,,23,,,5,,,,,43,0.530658512,0.534883721,,,,,,,
decision,117,476319,0.0-37.0-2.0,"""event"",""trial"",""time""
""fullscreenenter"",""1"",""3546""
""blur"",""22"",""207725""
""focus"",""22"",""215741""
","""event"",""trial"",""time""
""blur"",""22"",""207725""
","""event"",""trial"",""time""
""focus"",""22"",""215741""
","""event"",""trial"",""time""
""fullscreenenter"",""1"",""3546""
","
",,10,run_exp/static/images/task_images/land.jpg,65,,,,,,,23,,,5,,,,,,,,122911,1,1,FALSE,,,
dig,118,479313,0.0-38.0-0.0,"""event"",""trial"",""time""
""fullscreenenter"",""1"",""3546""
""blur"",""22"",""207725""
""focus"",""22"",""215741""
","""event"",""trial"",""time""
""blur"",""22"",""207725""
","""event"",""trial"",""time""
""focus"",""22"",""215741""
","""event"",""trial"",""time""
""fullscreenenter"",""1"",""3546""
","
",,,,,,,,,,,,"[{""stimulus"":""run_exp/static/images/task_images/dig.jpg"",""time"":0.09999996423721313},{""stimulus"":""run_exp/static/images/task_images/land.jpg"",""time"":1001.5},{""stimulus"":""run_exp/static/images/task_images/dig.jpg"",""time"":2000}]",[],5,,,,,,,,,,,,,,
harvest,119,480320,0.0-38.0-1.0,"""event"",""trial"",""time""
""fullscreenenter"",""1"",""3546""
""blur"",""22"",""207725""
""focus"",""22"",""215741""
","""event"",""trial"",""time""
""blur"",""22"",""207725""
","""event"",""trial"",""time""
""focus"",""22"",""215741""
","""event"",""trial"",""time""
""fullscreenenter"",""1"",""3546""
","
",,null,run_exp/static/images/task_images/gems/23.jpg,null,,,,,,,11,,,5,,,,,23,0.479507388,0.47826087,,,,,,,
decision,120,480710,0.0-38.0-2.0,"""event"",""trial"",""time""
""fullscreenenter"",""1"",""3546""
""blur"",""22"",""207725""
""focus"",""22"",""215741""
","""event"",""trial"",""time""
""blur"",""22"",""207725""
","""event"",""trial"",""time""
""focus"",""22"",""215741""
","""event"",""trial"",""time""
""fullscreenenter"",""1"",""3546""
","
",,388,run_exp/static/images/task_images/land.jpg,76,,,,,,,11,,,5,,,,,,,,127302,1,2,TRUE,,,
travel,121,490327,0.0-39.0-0.0,"""event"",""trial"",""time""
""fullscreenenter"",""1"",""3546""
""blur"",""22"",""207725""
""focus"",""22"",""215741""
","""event"",""trial"",""time""
""blur"",""22"",""207725""
","""event"",""trial"",""time""
""focus"",""22"",""215741""
","""event"",""trial"",""time""
""fullscreenenter"",""1"",""3546""
","
",,,,,,,,,,,,"[{""stimulus"":""run_exp/static/images/task_images/rocket-01.jpg"",""time"":0.30000001192092896},{""stimulus"":""run_exp/static/images/task_images/rocket-02.jpg"",""time"":1074},{""stimulus"":""run_exp/static/images/task_images/rocket-03.jpg"",""time"":2142.100000023842},{""stimulus"":""run_exp/static/images/task_images/rocket-04.jpg"",""time"":3206.699999988079},{""stimulus"":""run_exp/static/images/task_images/rocket-05.jpg"",""time"":4278.300000011921},{""stimulus"":""run_exp/static/images/task_images/rocket-06.jpg"",""time"":5346.400000035763},{""stimulus"":""run_exp/static/images/task_images/rocket-07.jpg"",""time"":6414.400000035763},{""stimulus"":""run_exp/static/images/task_images/rocket-08.jpg"",""time"":7482.600000023842},{""stimulus"":""run_exp/static/images/task_images/rocket-09.jpg"",""time"":8550.100000023842}]",[],5,,,,,,,,,,,,,,
alien_welcome,122,495335,0.0-39.0-1.0,"""event"",""trial"",""time""
""fullscreenenter"",""1"",""3546""
""blur"",""22"",""207725""
""focus"",""22"",""215741""
","""event"",""trial"",""time""
""blur"",""22"",""207725""
","""event"",""trial"",""time""
""focus"",""22"",""215741""
","""event"",""trial"",""time""
""fullscreenenter"",""1"",""3546""
","
",,null,run_exp/static/images/task_images/aliens/old_aliens/planet/alien_planet-4.jpg,null,,,,,,,,,,,,,4,"37,41,70,49,66,4,51,65,77,13,8,72,73,9,63,46,14,3,1,67,48,78,56,75,26,34,5,80,18,57,42,21,44,19,11,71,59,53,35",,,,,,,,,,
land,123,495841,0.0-39.0-2.0,"""event"",""trial"",""time""
""fullscreenenter"",""1"",""3546""
""blur"",""22"",""207725""
""focus"",""22"",""215741""
","""event"",""trial"",""time""
""blur"",""22"",""207725""
","""event"",""trial"",""time""
""focus"",""22"",""215741""
","""event"",""trial"",""time""
""fullscreenenter"",""1"",""3546""
","
",,null,run_exp/static/images/task_images/land.jpg,null,,,,,,,102,,,6,,,,,,,,,,,,,,
dig,124,497849,0.0-39.0-3.0,"""event"",""trial"",""time""
""fullscreenenter"",""1"",""3546""
""blur"",""22"",""207725""
""focus"",""22"",""215741""
","""event"",""trial"",""time""
""blur"",""22"",""207725""
","""event"",""trial"",""time""
""focus"",""22"",""215741""
","""event"",""trial"",""time""
""fullscreenenter"",""1"",""3546""
","
",,,,,,,,,,,,"[{""stimulus"":""run_exp/static/images/task_images/dig.jpg"",""time"":0.3999999761581421},{""stimulus"":""run_exp/static/images/task_images/land.jpg"",""time"":676.3000000119209},{""stimulus"":""run_exp/static/images/task_images/dig.jpg"",""time"":1340.3999999761581}]",[],6,,,,,,,,,,,,,,
harvest,125,498858,0.0-39.0-4.0,"""event"",""trial"",""time""
""fullscreenenter"",""1"",""3546""
""blur"",""22"",""207725""
""focus"",""22"",""215741""
","""event"",""trial"",""time""
""blur"",""22"",""207725""
","""event"",""trial"",""time""
""focus"",""22"",""215741""
","""event"",""trial"",""time""
""fullscreenenter"",""1"",""3546""
","
",,null,run_exp/static/images/task_images/gems/102.jpg,null,,,,,,,76,,,6,,,,,102,0.748883884,0.745098039,,,,,,,
decision,126,499325,0.0-39.0-5.0,"""event"",""trial"",""time""
""fullscreenenter"",""1"",""3546""
""blur"",""22"",""207725""
""focus"",""22"",""215741""
","""event"",""trial"",""time""
""blur"",""22"",""207725""
","""event"",""trial"",""time""
""focus"",""22"",""215741""
","""event"",""trial"",""time""
""fullscreenenter"",""1"",""3546""
","
",,465.4,run_exp/static/images/task_images/land.jpg,65,,,,,,,76,,,6,,,,,,,,145917,1,0,FALSE,,,
dig,127,501866,0.0-40.0-0.0,"""event"",""trial"",""time""
""fullscreenenter"",""1"",""3546""
""blur"",""22"",""207725""
""focus"",""22"",""215741""
","""event"",""trial"",""time""
""blur"",""22"",""207725""
","""event"",""trial"",""time""
""focus"",""22"",""215741""
","""event"",""trial"",""time""
""fullscreenenter"",""1"",""3546""
","
",,,,,,,,,,,,"[{""stimulus"":""run_exp/static/images/task_images/dig.jpg"",""time"":0.09999996423721313},{""stimulus"":""run_exp/static/images/task_images/land.jpg"",""time"":849.0999999642372},{""stimulus"":""run_exp/static/images/task_images/dig.jpg"",""time"":1696.5999999642372}]",[],6,,,,,,,,,,,,,,
harvest,128,502874,0.0-40.0-1.0,"""event"",""trial"",""time""
""fullscreenenter"",""1"",""3546""
""blur"",""22"",""207725""
""focus"",""22"",""215741""
","""event"",""trial"",""time""
""blur"",""22"",""207725""
","""event"",""trial"",""time""
""focus"",""22"",""215741""
","""event"",""trial"",""time""
""fullscreenenter"",""1"",""3546""
","
",,null,run_exp/static/images/task_images/gems/76.jpg,null,,,,,,,66,,,6,,,,,76,0.873834831,0.868421053,,,,,,,
decision,129,502964,0.0-40.0-2.0,"""event"",""trial"",""time""
""fullscreenenter"",""1"",""3546""
""blur"",""22"",""207725""
""focus"",""22"",""215741""
","""event"",""trial"",""time""
""blur"",""22"",""207725""
","""event"",""trial"",""time""
""focus"",""22"",""215741""
","""event"",""trial"",""time""
""fullscreenenter"",""1"",""3546""
","
",,87.60000002,run_exp/static/images/task_images/land.jpg,65,,,,,,,66,,,6,,,,,,,,149556,1,1,FALSE,,,
dig,130,505889,0.0-41.0-0.0,"""event"",""trial"",""time""
""fullscreenenter"",""1"",""3546""
""blur"",""22"",""207725""
""focus"",""22"",""215741""
","""event"",""trial"",""time""
""blur"",""22"",""207725""
","""event"",""trial"",""time""
""focus"",""22"",""215741""
","""event"",""trial"",""time""
""fullscreenenter"",""1"",""3546""
","
",,,,,,,,,,,,"[{""stimulus"":""run_exp/static/images/task_images/dig.jpg"",""time"":0.40000003576278687},{""stimulus"":""run_exp/static/images/task_images/land.jpg"",""time"":975.1999999880791},{""stimulus"":""run_exp/static/images/task_images/dig.jpg"",""time"":1944.9000000357628}]",[],6,,,,,,,,,,,,,,
harvest,131,506899,0.0-41.0-1.0,"""event"",""trial"",""time""
""fullscreenenter"",""1"",""3546""
""blur"",""22"",""207725""
""focus"",""22"",""215741""
","""event"",""trial"",""time""
""blur"",""22"",""207725""
","""event"",""trial"",""time""
""focus"",""22"",""215741""
","""event"",""trial"",""time""
""fullscreenenter"",""1"",""3546""
","
",,null,run_exp/static/images/task_images/gems/66.jpg,null,,,,,,,56,,,6,,,,,66,0.843008757,0.848484848,,,,,,,
decision,132,507039,0.0-41.0-2.0,"""event"",""trial"",""time""
""fullscreenenter"",""1"",""3546""
""blur"",""22"",""207725""
""focus"",""22"",""215741""
","""event"",""trial"",""time""
""blur"",""22"",""207725""
","""event"",""trial"",""time""
""focus"",""22"",""215741""
","""event"",""trial"",""time""
""fullscreenenter"",""1"",""3546""
","
",,138.5,run_exp/static/images/task_images/land.jpg,65,,,,,,,56,,,6,,,,,,,,153631,1,2,FALSE,,,
dig,133,509911,0.0-42.0-0.0,"""event"",""trial"",""time""
""fullscreenenter"",""1"",""3546""
""blur"",""22"",""207725""
""focus"",""22"",""215741""
","""event"",""trial"",""time""
""blur"",""22"",""207725""
","""event"",""trial"",""time""
""focus"",""22"",""215741""
","""event"",""trial"",""time""
""fullscreenenter"",""1"",""3546""
","
",,,,,,,,,,,,"[{""stimulus"":""run_exp/static/images/task_images/dig.jpg"",""time"":0},{""stimulus"":""run_exp/static/images/task_images/land.jpg"",""time"":959.2000000476837},{""stimulus"":""run_exp/static/images/task_images/dig.jpg"",""time"":1911.1000000238419}]",[],6,,,,,,,,,,,,,,
harvest,134,510922,0.0-42.0-1.0,"""event"",""trial"",""time""
""fullscreenenter"",""1"",""3546""
""blur"",""22"",""207725""
""focus"",""22"",""215741""
","""event"",""trial"",""time""
""blur"",""22"",""207725""
","""event"",""trial"",""time""
""focus"",""22"",""215741""
","""event"",""trial"",""time""
""fullscreenenter"",""1"",""3546""
","
",,null,run_exp/static/images/task_images/gems/56.jpg,null,,,,,,,45,,,6,,,,,56,0.80729034,0.803571429,,,,,,,
decision,135,511209,0.0-42.0-2.0,"""event"",""trial"",""time""
""fullscreenenter"",""1"",""3546""
""blur"",""22"",""207725""
""focus"",""22"",""215741""
","""event"",""trial"",""time""
""blur"",""22"",""207725""
","""event"",""trial"",""time""
""focus"",""22"",""215741""
","""event"",""trial"",""time""
""fullscreenenter"",""1"",""3546""
","
",,285.3,run_exp/static/images/task_images/land.jpg,65,,,,,,,45,,,6,,,,,,,,157801,1,3,FALSE,,,
dig,136,513934,0.0-43.0-0.0,"""event"",""trial"",""time""
""fullscreenenter"",""1"",""3546""
""blur"",""22"",""207725""
""focus"",""22"",""215741""
","""event"",""trial"",""time""
""blur"",""22"",""207725""
","""event"",""trial"",""time""
""focus"",""22"",""215741""
","""event"",""trial"",""time""
""fullscreenenter"",""1"",""3546""
","
",,,,,,,,,,,,"[{""stimulus"":""run_exp/static/images/task_images/dig.jpg"",""time"":0.19999998807907104},{""stimulus"":""run_exp/static/images/task_images/land.jpg"",""time"":916.0999999642372},{""stimulus"":""run_exp/static/images/task_images/dig.jpg"",""time"":1821.5999999642372}]",[],6,,,,,,,,,,,,,,
harvest,137,514944,0.0-43.0-1.0,"""event"",""trial"",""time""
""fullscreenenter"",""1"",""3546""
""blur"",""22"",""207725""
""focus"",""22"",""215741""
","""event"",""trial"",""time""
""blur"",""22"",""207725""
","""event"",""trial"",""time""
""focus"",""22"",""215741""
","""event"",""trial"",""time""
""fullscreenenter"",""1"",""3546""
","
",,null,run_exp/static/images/task_images/gems/45.jpg,null,,,,,,,38,,,6,,,,,45,0.845170713,0.844444444,,,,,,,
decision,138,515129,0.0-43.0-2.0,"""event"",""trial"",""time""
""fullscreenenter"",""1"",""3546""
""blur"",""22"",""207725""
""focus"",""22"",""215741""
","""event"",""trial"",""time""
""blur"",""22"",""207725""
","""event"",""trial"",""time""
""focus"",""22"",""215741""
","""event"",""trial"",""time""
""fullscreenenter"",""1"",""3546""
","
",,183.4,run_exp/static/images/task_images/land.jpg,65,,,,,,,38,,,6,,,,,,,,161722,1,4,FALSE,,,
dig,139,517951,0.0-44.0-0.0,"""event"",""trial"",""time""
""fullscreenenter"",""1"",""3546""
""blur"",""22"",""207725""
""focus"",""22"",""215741""
","""event"",""trial"",""time""
""blur"",""22"",""207725""
","""event"",""trial"",""time""
""focus"",""22"",""215741""
","""event"",""trial"",""time""
""fullscreenenter"",""1"",""3546""
","
",,,,,,,,,,,,"[{""stimulus"":""run_exp/static/images/task_images/dig.jpg"",""time"":0.20000004768371582},{""stimulus"":""run_exp/static/images/task_images/land.jpg"",""time"":949.2000000476837},{""stimulus"":""run_exp/static/images/task_images/dig.jpg"",""time"":1883.800000011921}]",[],6,,,,,,,,,,,,,,
harvest,140,518961,0.0-44.0-1.0,"""event"",""trial"",""time""
""fullscreenenter"",""1"",""3546""
""blur"",""22"",""207725""
""focus"",""22"",""215741""
","""event"",""trial"",""time""
""blur"",""22"",""207725""
","""event"",""trial"",""time""
""focus"",""22"",""215741""
","""event"",""trial"",""time""
""fullscreenenter"",""1"",""3546""
","
",,null,run_exp/static/images/task_images/gems/38.jpg,null,,,,,,,30,,,6,,,,,38,0.788396388,0.789473684,,,,,,,
decision,141,519186,0.0-44.0-2.0,"""event"",""trial"",""time""
""fullscreenenter"",""1"",""3546""
""blur"",""22"",""207725""
""focus"",""22"",""215741""
","""event"",""trial"",""time""
""blur"",""22"",""207725""
","""event"",""trial"",""time""
""focus"",""22"",""215741""
","""event"",""trial"",""time""
""fullscreenenter"",""1"",""3546""
","
",,222.5,run_exp/static/images/task_images/land.jpg,65,,,,,,,30,,,6,,,,,,,,165778,1,5,FALSE,,,
dig,142,521968,0.0-45.0-0.0,"""event"",""trial"",""time""
""fullscreenenter"",""1"",""3546""
""blur"",""22"",""207725""
""focus"",""22"",""215741""
","""event"",""trial"",""time""
""blur"",""22"",""207725""
","""event"",""trial"",""time""
""focus"",""22"",""215741""
","""event"",""trial"",""time""
""fullscreenenter"",""1"",""3546""
","
",,,,,,,,,,,,"[{""stimulus"":""run_exp/static/images/task_images/dig.jpg"",""time"":0.19999998807907104},{""stimulus"":""run_exp/static/images/task_images/land.jpg"",""time"":933.5999999642372},{""stimulus"":""run_exp/static/images/task_images/dig.jpg"",""time"":1858.5999999642372}]",[],6,,,,,,,,,,,,,,
harvest,143,522978,0.0-45.0-1.0,"""event"",""trial"",""time""
""fullscreenenter"",""1"",""3546""
""blur"",""22"",""207725""
""focus"",""22"",""215741""
","""event"",""trial"",""time""
""blur"",""22"",""207725""
","""event"",""trial"",""time""
""focus"",""22"",""215741""
","""event"",""trial"",""time""
""fullscreenenter"",""1"",""3546""
","
",,null,run_exp/static/images/task_images/gems/30.jpg,null,,,,,,,25,,,6,,,,,30,0.821081633,0.833333333,,,,,,,
decision,144,523188,0.0-45.0-2.0,"""event"",""trial"",""time""
""fullscreenenter"",""1"",""3546""
""blur"",""22"",""207725""
""focus"",""22"",""215741""
","""event"",""trial"",""time""
""blur"",""22"",""207725""
","""event"",""trial"",""time""
""focus"",""22"",""215741""
","""event"",""trial"",""time""
""fullscreenenter"",""1"",""3546""
","
",,207.6,run_exp/static/images/task_images/land.jpg,65,,,,,,,25,,,6,,,,,,,,169780,1,6,FALSE,,,
dig,145,525991,0.0-46.0-0.0,"""event"",""trial"",""time""
""fullscreenenter"",""1"",""3546""
""blur"",""22"",""207725""
""focus"",""22"",""215741""
","""event"",""trial"",""time""
""blur"",""22"",""207725""
","""event"",""trial"",""time""
""focus"",""22"",""215741""
","""event"",""trial"",""time""
""fullscreenenter"",""1"",""3546""
","
",,,,,,,,,,,,"[{""stimulus"":""run_exp/static/images/task_images/dig.jpg"",""time"":0.20000004768371582},{""stimulus"":""run_exp/static/images/task_images/land.jpg"",""time"":935.6000000238419},{""stimulus"":""run_exp/static/images/task_images/dig.jpg"",""time"":1864.7000000476837}]",[],6,,,,,,,,,,,,,,
harvest,146,527001,0.0-46.0-1.0,"""event"",""trial"",""time""
""fullscreenenter"",""1"",""3546""
""blur"",""22"",""207725""
""focus"",""22"",""215741""
","""event"",""trial"",""time""
""blur"",""22"",""207725""
","""event"",""trial"",""time""
""focus"",""22"",""215741""
","""event"",""trial"",""time""
""fullscreenenter"",""1"",""3546""
","
",,null,run_exp/static/images/task_images/gems/25.jpg,null,,,,,,,23,,,6,,,,,25,0.902484737,0.92,,,,,,,
decision,147,527116,0.0-46.0-2.0,"""event"",""trial"",""time""
""fullscreenenter"",""1"",""3546""
""blur"",""22"",""207725""
""focus"",""22"",""215741""
","""event"",""trial"",""time""
""blur"",""22"",""207725""
","""event"",""trial"",""time""
""focus"",""22"",""215741""
","""event"",""trial"",""time""
""fullscreenenter"",""1"",""3546""
","
",,112.5,run_exp/static/images/task_images/land.jpg,65,,,,,,,23,,,6,,,,,,,,173708,1,7,FALSE,,,
dig,148,530014,0.0-47.0-0.0,"""event"",""trial"",""time""
""fullscreenenter"",""1"",""3546""
""blur"",""22"",""207725""
""focus"",""22"",""215741""
","""event"",""trial"",""time""
""blur"",""22"",""207725""
","""event"",""trial"",""time""
""focus"",""22"",""215741""
","""event"",""trial"",""time""
""fullscreenenter"",""1"",""3546""
","
",,,,,,,,,,,,"[{""stimulus"":""run_exp/static/images/task_images/dig.jpg"",""time"":0.19999998807907104},{""stimulus"":""run_exp/static/images/task_images/land.jpg"",""time"":967.2999999523163},{""stimulus"":""run_exp/static/images/task_images/dig.jpg"",""time"":1930.7999999523163}]",[],6,,,,,,,,,,,,,,
harvest,149,531024,0.0-47.0-1.0,"""event"",""trial"",""time""
""fullscreenenter"",""1"",""3546""
""blur"",""22"",""207725""
""focus"",""22"",""215741""
","""event"",""trial"",""time""
""blur"",""22"",""207725""
","""event"",""trial"",""time""
""focus"",""22"",""215741""
","""event"",""trial"",""time""
""fullscreenenter"",""1"",""3546""
","
",,null,run_exp/static/images/task_images/gems/23.jpg,null,,,,,,,18,,,6,,,,,23,0.781391222,0.782608696,,,,,,,
decision,150,531143,0.0-47.0-2.0,"""event"",""trial"",""time""
""fullscreenenter"",""1"",""3546""
""blur"",""22"",""207725""
""focus"",""22"",""215741""
","""event"",""trial"",""time""
""blur"",""22"",""207725""
","""event"",""trial"",""time""
""focus"",""22"",""215741""
","""event"",""trial"",""time""
""fullscreenenter"",""1"",""3546""
","
",,116.7,run_exp/static/images/task_images/land.jpg,65,,,,,,,18,,,6,,,,,,,,177735,1,8,FALSE,,,
dig,151,534042,0.0-48.0-0.0,"""event"",""trial"",""time""
""fullscreenenter"",""1"",""3546""
""blur"",""22"",""207725""
""focus"",""22"",""215741""
","""event"",""trial"",""time""
""blur"",""22"",""207725""
","""event"",""trial"",""time""
""focus"",""22"",""215741""
","""event"",""trial"",""time""
""fullscreenenter"",""1"",""3546""
","
",,,,,,,,,,,,"[{""stimulus"":""run_exp/static/images/task_images/dig.jpg"",""time"":0.19999998807907104},{""stimulus"":""run_exp/static/images/task_images/land.jpg"",""time"":964.6999999880791},{""stimulus"":""run_exp/static/images/task_images/dig.jpg"",""time"":1932.199999988079}]",[],6,,,,,,,,,,,,,,
harvest,152,535046,0.0-48.0-1.0,"""event"",""trial"",""time""
""fullscreenenter"",""1"",""3546""
""blur"",""22"",""207725""
""focus"",""22"",""215741""
","""event"",""trial"",""time""
""blur"",""22"",""207725""
","""event"",""trial"",""time""
""focus"",""22"",""215741""
","""event"",""trial"",""time""
""fullscreenenter"",""1"",""3546""
","
",,null,run_exp/static/images/task_images/gems/18.jpg,null,,,,,,,15,,,6,,,,,18,0.842233084,0.833333333,,,,,,,
decision,153,535222,0.0-48.0-2.0,"""event"",""trial"",""time""
""fullscreenenter"",""1"",""3546""
""blur"",""22"",""207725""
""focus"",""22"",""215741""
","""event"",""trial"",""time""
""blur"",""22"",""207725""
","""event"",""trial"",""time""
""focus"",""22"",""215741""
","""event"",""trial"",""time""
""fullscreenenter"",""1"",""3546""
","
",,173.2,run_exp/static/images/task_images/land.jpg,76,,,,,,,15,,,6,,,,,,,,181814,1,9,TRUE,,,
travel,154,545048,0.0-49.0-0.0,"""event"",""trial"",""time""
""fullscreenenter"",""1"",""3546""
""blur"",""22"",""207725""
""focus"",""22"",""215741""
","""event"",""trial"",""time""
""blur"",""22"",""207725""
","""event"",""trial"",""time""
""focus"",""22"",""215741""
","""event"",""trial"",""time""
""fullscreenenter"",""1"",""3546""
","
",,,,,,,,,,,,"[{""stimulus"":""run_exp/static/images/task_images/rocket-01.jpg"",""time"":0.19999998807907104},{""stimulus"":""run_exp/static/images/task_images/rocket-02.jpg"",""time"":1092.8999999761581},{""stimulus"":""run_exp/static/images/task_images/rocket-03.jpg"",""time"":2189.5},{""stimulus"":""run_exp/static/images/task_images/rocket-04.jpg"",""time"":3281.199999988079},{""stimulus"":""run_exp/static/images/task_images/rocket-05.jpg"",""time"":4372.5},{""stimulus"":""run_exp/static/images/task_images/rocket-06.jpg"",""time"":5457.100000023842},{""stimulus"":""run_exp/static/images/task_images/rocket-07.jpg"",""time"":6549.399999976158},{""stimulus"":""run_exp/static/images/task_images/rocket-08.jpg"",""time"":7645.399999976158},{""stimulus"":""run_exp/static/images/task_images/rocket-09.jpg"",""time"":8737.5}]",[],6,,,,,,,,,,,,,,
alien_welcome,155,550058,0.0-49.0-1.0,"""event"",""trial"",""time""
""fullscreenenter"",""1"",""3546""
""blur"",""22"",""207725""
""focus"",""22"",""215741""
","""event"",""trial"",""time""
""blur"",""22"",""207725""
","""event"",""trial"",""time""
""focus"",""22"",""215741""
","""event"",""trial"",""time""
""fullscreenenter"",""1"",""3546""
","
",,null,run_exp/static/images/task_images/aliens/old_aliens/planet/alien_planet-51.jpg,null,,,,,,,,,,,,,51,"37,41,70,49,66,4,51,65,77,13,8,72,73,9,63,46,14,3,1,67,48,78,56,75,26,34,5,80,18,57,42,21,44,19,11,71,59,53,35",,,,,,,,,,
land,156,550569,0.0-49.0-2.0,"""event"",""trial"",""time""
""fullscreenenter"",""1"",""3546""
""blur"",""22"",""207725""
""focus"",""22"",""215741""
","""event"",""trial"",""time""
""blur"",""22"",""207725""
","""event"",""trial"",""time""
""focus"",""22"",""215741""
","""event"",""trial"",""time""
""fullscreenenter"",""1"",""3546""
","
",,null,run_exp/static/images/task_images/land.jpg,null,,,,,,,91,,,7,,,,,,,,,,,,,,
dig,157,552583,0.0-49.0-3.0,"""event"",""trial"",""time""
""fullscreenenter"",""1"",""3546""
""blur"",""22"",""207725""
""focus"",""22"",""215741""
","""event"",""trial"",""time""
""blur"",""22"",""207725""
","""event"",""trial"",""time""
""focus"",""22"",""215741""
","""event"",""trial"",""time""
""fullscreenenter"",""1"",""3546""
","
",,,,,,,,,,,,"[{""stimulus"":""run_exp/static/images/task_images/dig.jpg"",""time"":0.3999999761581421},{""stimulus"":""run_exp/static/images/task_images/land.jpg"",""time"":677.1999999880791},{""stimulus"":""run_exp/static/images/task_images/dig.jpg"",""time"":1338.8999999761581}]",[],7,,,,,,,,,,,,,,
harvest,158,553593,0.0-49.0-4.0,"""event"",""trial"",""time""
""fullscreenenter"",""1"",""3546""
""blur"",""22"",""207725""
""focus"",""22"",""215741""
","""event"",""trial"",""time""
""blur"",""22"",""207725""
","""event"",""trial"",""time""
""focus"",""22"",""215741""
","""event"",""trial"",""time""
""fullscreenenter"",""1"",""3546""
","
",,null,run_exp/static/images/task_images/gems/91.jpg,null,,,,,,,69,,,7,,,,,91,0.759860216,0.758241758,,,,,,,
decision,159,554078,0.0-49.0-5.0,"""event"",""trial"",""time""
""fullscreenenter"",""1"",""3546""
""blur"",""22"",""207725""
""focus"",""22"",""215741""
","""event"",""trial"",""time""
""blur"",""22"",""207725""
","""event"",""trial"",""time""
""focus"",""22"",""215741""
","""event"",""trial"",""time""
""fullscreenenter"",""1"",""3546""
","
",,483.3,run_exp/static/images/task_images/land.jpg,65,,,,,,,69,,,7,,,,,,,,200670,1,0,FALSE,,,
dig,160,556600,0.0-50.0-0.0,"""event"",""trial"",""time""
""fullscreenenter"",""1"",""3546""
""blur"",""22"",""207725""
""focus"",""22"",""215741""
","""event"",""trial"",""time""
""blur"",""22"",""207725""
","""event"",""trial"",""time""
""focus"",""22"",""215741""
","""event"",""trial"",""time""
""fullscreenenter"",""1"",""3546""
","
",,,,,,,,,,,,"[{""stimulus"":""run_exp/static/images/task_images/dig.jpg"",""time"":0.19999998807907104},{""stimulus"":""run_exp/static/images/task_images/land.jpg"",""time"":847},{""stimulus"":""run_exp/static/images/task_images/dig.jpg"",""time"":1688.8999999761581}]",[],7,,,,,,,,,,,,,,
harvest,161,557610,0.0-50.0-1.0,"""event"",""trial"",""time""
""fullscreenenter"",""1"",""3546""
""blur"",""22"",""207725""
""focus"",""22"",""215741""
","""event"",""trial"",""time""
""blur"",""22"",""207725""
","""event"",""trial"",""time""
""focus"",""22"",""215741""
","""event"",""trial"",""time""
""fullscreenenter"",""1"",""3546""
","
",,null,run_exp/static/images/task_images/gems/69.jpg,null,,,,,,,59,,,7,,,,,69,0.858278385,0.855072464,,,,,,,
decision,162,557677,0.0-50.0-2.0,"""event"",""trial"",""time""
""fullscreenenter"",""1"",""3546""
""blur"",""22"",""207725""
""focus"",""22"",""215741""
","""event"",""trial"",""time""
""blur"",""22"",""207725""
","""event"",""trial"",""time""
""focus"",""22"",""215741""
","""event"",""trial"",""time""
""fullscreenenter"",""1"",""3546""
","
",,66.19999999,run_exp/static/images/task_images/land.jpg,65,,,,,,,59,,,7,,,,,,,,204269,1,1,FALSE,,,
dig,163,560617,0.0-51.0-0.0,"""event"",""trial"",""time""
""fullscreenenter"",""1"",""3546""
""blur"",""22"",""207725""
""focus"",""22"",""215741""
","""event"",""trial"",""time""
""blur"",""22"",""207725""
","""event"",""trial"",""time""
""focus"",""22"",""215741""
","""event"",""trial"",""time""
""fullscreenenter"",""1"",""3546""
","
",,,,,,,,,,,,"[{""stimulus"":""run_exp/static/images/task_images/dig.jpg"",""time"":0.19999998807907104},{""stimulus"":""run_exp/static/images/task_images/land.jpg"",""time"":983.7999999523163},{""stimulus"":""run_exp/static/images/task_images/dig.jpg"",""time"":1963}]",[],7,,,,,,,,,,,,,,
harvest,164,561621,0.0-51.0-1.0,"""event"",""trial"",""time""
""fullscreenenter"",""1"",""3546""
""blur"",""22"",""207725""
""focus"",""22"",""215741""
","""event"",""trial"",""time""
""blur"",""22"",""207725""
","""event"",""trial"",""time""
""focus"",""22"",""215741""
","""event"",""trial"",""time""
""fullscreenenter"",""1"",""3546""
","
",,null,run_exp/static/images/task_images/gems/59.jpg,null,,,,,,,46,,,7,,,,,59,0.787847791,0.779661017,,,,,,,
decision,165,562081,0.0-51.0-2.0,"""event"",""trial"",""time""
""fullscreenenter"",""1"",""3546""
""blur"",""22"",""207725""
""focus"",""22"",""215741""
","""event"",""trial"",""time""
""blur"",""22"",""207725""
","""event"",""trial"",""time""
""focus"",""22"",""215741""
","""event"",""trial"",""time""
""fullscreenenter"",""1"",""3546""
","
",,457.1,run_exp/static/images/task_images/land.jpg,65,,,,,,,46,,,7,,,,,,,,208673,1,2,FALSE,,,
dig,166,564630,0.0-52.0-0.0,"""event"",""trial"",""time""
""fullscreenenter"",""1"",""3546""
""blur"",""22"",""207725""
""focus"",""22"",""215741""
","""event"",""trial"",""time""
""blur"",""22"",""207725""
","""event"",""trial"",""time""
""focus"",""22"",""215741""
","""event"",""trial"",""time""
""fullscreenenter"",""1"",""3546""
","
",,,,,,,,,,,,"[{""stimulus"":""run_exp/static/images/task_images/dig.jpg"",""time"":0.30000001192092896},{""stimulus"":""run_exp/static/images/task_images/land.jpg"",""time"":848.6000000238419},{""stimulus"":""run_exp/static/images/task_images/dig.jpg"",""time"":1697.800000011921}]",[],7,,,,,,,,,,,,,,
harvest,167,565638,0.0-52.0-1.0,"""event"",""trial"",""time""
""fullscreenenter"",""1"",""3546""
""blur"",""22"",""207725""
""focus"",""22"",""215741""
","""event"",""trial"",""time""
""blur"",""22"",""207725""
","""event"",""trial"",""time""
""focus"",""22"",""215741""
","""event"",""trial"",""time""
""fullscreenenter"",""1"",""3546""
","
",,null,run_exp/static/images/task_images/gems/46.jpg,null,,,,,,,37,,,7,,,,,46,0.806925968,0.804347826,,,,,,,
decision,168,566038,0.0-52.0-2.0,"""event"",""trial"",""time""
""fullscreenenter"",""1"",""3546""
""blur"",""22"",""207725""
""focus"",""22"",""215741""
","""event"",""trial"",""time""
""blur"",""22"",""207725""
","""event"",""trial"",""time""
""focus"",""22"",""215741""
","""event"",""trial"",""time""
""fullscreenenter"",""1"",""3546""
","
",,398.3,run_exp/static/images/task_images/land.jpg,65,,,,,,,37,,,7,,,,,,,,212631,1,3,FALSE,,,
dig,169,568645,0.0-53.0-0.0,"""event"",""trial"",""time""
""fullscreenenter"",""1"",""3546""
""blur"",""22"",""207725""
""focus"",""22"",""215741""
","""event"",""trial"",""time""
""blur"",""22"",""207725""
","""event"",""trial"",""time""
""focus"",""22"",""215741""
","""event"",""trial"",""time""
""fullscreenenter"",""1"",""3546""
","
",,,,,,,,,,,,"[{""stimulus"":""run_exp/static/images/task_images/dig.jpg"",""time"":0.10000002384185791},{""stimulus"":""run_exp/static/images/task_images/land.jpg"",""time"":877.9000000357628},{""stimulus"":""run_exp/static/images/task_images/dig.jpg"",""time"":1740.199999988079}]",[],7,,,,,,,,,,,,,,
harvest,170,569654,0.0-53.0-1.0,"""event"",""trial"",""time""
""fullscreenenter"",""1"",""3546""
""blur"",""22"",""207725""
""focus"",""22"",""215741""
","""event"",""trial"",""time""
""blur"",""22"",""207725""
","""event"",""trial"",""time""
""focus"",""22"",""215741""
","""event"",""trial"",""time""
""fullscreenenter"",""1"",""3546""
","
",,null,run_exp/static/images/task_images/gems/37.jpg,null,,,,,,,30,,,7,,,,,37,0.811876061,0.810810811,,,,,,,
decision,171,569675,0.0-53.0-2.0,"""event"",""trial"",""time""
""fullscreenenter"",""1"",""3546""
""blur"",""22"",""207725""
""focus"",""22"",""215741""
","""event"",""trial"",""time""
""blur"",""22"",""207725""
","""event"",""trial"",""time""
""focus"",""22"",""215741""
","""event"",""trial"",""time""
""fullscreenenter"",""1"",""3546""
","
",,18.09999996,run_exp/static/images/task_images/land.jpg,65,,,,,,,30,,,7,,,,,,,,216267,1,4,FALSE,,,
dig,172,572662,0.0-54.0-0.0,"""event"",""trial"",""time""
""fullscreenenter"",""1"",""3546""
""blur"",""22"",""207725""
""focus"",""22"",""215741""
","""event"",""trial"",""time""
""blur"",""22"",""207725""
","""event"",""trial"",""time""
""focus"",""22"",""215741""
","""event"",""trial"",""time""
""fullscreenenter"",""1"",""3546""
","
",,,,,,,,,,,,"[{""stimulus"":""run_exp/static/images/task_images/dig.jpg"",""time"":0.19999998807907104},{""stimulus"":""run_exp/static/images/task_images/land.jpg"",""time"":998.8999999761581},{""stimulus"":""run_exp/static/images/task_images/dig.jpg"",""time"":1991.5}]",[],7,,,,,,,,,,,,,,
harvest,173,573672,0.0-54.0-1.0,"""event"",""trial"",""time""
""fullscreenenter"",""1"",""3546""
""blur"",""22"",""207725""
""focus"",""22"",""215741""
","""event"",""trial"",""time""
""blur"",""22"",""207725""
","""event"",""trial"",""time""
""focus"",""22"",""215741""
","""event"",""trial"",""time""
""fullscreenenter"",""1"",""3546""
","
",,null,run_exp/static/images/task_images/gems/30.jpg,null,,,,,,,23,,,7,,,,,30,0.769600544,0.766666667,,,,,,,
decision,174,574364,0.0-54.0-2.0,"""event"",""trial"",""time""
""fullscreenenter"",""1"",""3546""
""blur"",""22"",""207725""
""focus"",""22"",""215741""
","""event"",""trial"",""time""
""blur"",""22"",""207725""
","""event"",""trial"",""time""
""focus"",""22"",""215741""
","""event"",""trial"",""time""
""fullscreenenter"",""1"",""3546""
","
",,690.1,run_exp/static/images/task_images/land.jpg,65,,,,,,,23,,,7,,,,,,,,220957,1,5,FALSE,,,
dig,175,576679,0.0-55.0-0.0,"""event"",""trial"",""time""
""fullscreenenter"",""1"",""3546""
""blur"",""22"",""207725""
""focus"",""22"",""215741""
","""event"",""trial"",""time""
""blur"",""22"",""207725""
","""event"",""trial"",""time""
""focus"",""22"",""215741""
","""event"",""trial"",""time""
""fullscreenenter"",""1"",""3546""
","
",,,,,,,,,,,,"[{""stimulus"":""run_exp/static/images/task_images/dig.jpg"",""time"":0.09999996423721313},{""stimulus"":""run_exp/static/images/task_images/land.jpg"",""time"":772.6999999880791},{""stimulus"":""run_exp/static/images/task_images/dig.jpg"",""time"":1544.699999988079}]",[],7,,,,,,,,,,,,,,
harvest,176,577689,0.0-55.0-1.0,"""event"",""trial"",""time""
""fullscreenenter"",""1"",""3546""
""blur"",""22"",""207725""
""focus"",""22"",""215741""
","""event"",""trial"",""time""
""blur"",""22"",""207725""
","""event"",""trial"",""time""
""focus"",""22"",""215741""
","""event"",""trial"",""time""
""fullscreenenter"",""1"",""3546""
","
",,null,run_exp/static/images/task_images/gems/23.jpg,null,,,,,,,16,,,7,,,,,23,0.695055788,0.695652174,,,,,,,
decision,177,577863,0.0-55.0-2.0,"""event"",""trial"",""time""
""fullscreenenter"",""1"",""3546""
""blur"",""22"",""207725""
""focus"",""22"",""215741""
","""event"",""trial"",""time""
""blur"",""22"",""207725""
","""event"",""trial"",""time""
""focus"",""22"",""215741""
","""event"",""trial"",""time""
""fullscreenenter"",""1"",""3546""
","
",,172,run_exp/static/images/task_images/land.jpg,76,,,,,,,16,,,7,,,,,,,,224455,1,6,TRUE,,,
travel,178,587702,0.0-56.0-0.0,"""event"",""trial"",""time""
""fullscreenenter"",""1"",""3546""
""blur"",""22"",""207725""
""focus"",""22"",""215741""
","""event"",""trial"",""time""
""blur"",""22"",""207725""
","""event"",""trial"",""time""
""focus"",""22"",""215741""
","""event"",""trial"",""time""
""fullscreenenter"",""1"",""3546""
","
