trial_type,trial_index,time_elapsed,internal_node_id,success,rt,stimulus,key_press,prompt,subject_id,age,gender,button_pressed,next_reward,animation_sequence,responses,planet,curr_prac_trial,n_prac_rounds,alien,aliens,reward_received,decay_rate_actual,decay_rate_exp,time_in_block,block_num,prt,last_trial_on_planet,button_html,bonus,num_failures
pavlovia,0,10,0.0-0.0,,,,,,,,,,,,,,,,,,,,,,,,,,,
fullscreen,1,13006,0.0-1.0,TRUE,,,,,,,,,,,,,,,,,,,,,,,,,,
instruc_welcome,2,23193,0.0-2.0,,null,run_exp/static/audio/clip_1_welcome.m4a,null,"<p>Howdy! In this experiment, you’ll be an explorer traveling through space to collect space treasure.</p><p>Your mission is to collect as much treasure as possible.</p><br><br><p><img src='run_exp/static/images/task_images/opening_img-01.jpg' height='300' width='auto'></p>",p79bmmg6Ma0DxiA_1Y3uCvx5VSxv8Zo_MLRP_a5Gien0cRG4AJ9k,15.31,female,,,,,,,,,,,,,,,,,,,
audio-keyboard-response,3,40024,0.0-3.0,,null,run_exp/static/audio/clip_2_move.m4a,null,,,,,,,,,,,,,,,,,,,,,,,
welcome_dec,4,46277,0.0-4.0,,6248.7,"<p>Howdy! In this experiment, you’ll be an explorer traveling through space to collect space treasure.</p><p>Your mission is to collect as much treasure as possible.</p><br><br><p><img src='run_exp/static/images/task_images/opening_img-01.jpg' height='300' width='auto'></p>",,,,,,1,,,,,,,,,,,,,,,,,,
html-keyboard-response,5,47414,0.0-5.0,,1133,"<p>Howdy! In this experiment, you’ll be an explorer traveling through space to collect space treasure.</p><p>Your mission is to collect as much treasure as possible.</p><br><br><p><img src='run_exp/static/images/task_images/opening_img-01.jpg' height='300' width='auto'></p><button class=""jspsych-html-btn-unchosen""><img src=""run_exp/static/images/task_images/planet-01.jpg"" height=""50""></button><button class=""jspsych-html-btn-chosen""><img src=""run_exp/static/images/task_images/planet-02.jpg"" height=""50""></button><p><b>[press the space bar to lock in your answer]<b><br></p>",32,,,,,,,,,,,,,,,,,,,,,,,
instruc_goal,6,57668,0.0-6.0-0.0,,null,run_exp/static/audio/clip_3_goal.m4a,null,"<p> As a space explorer, you’ll visit different planets to dig for space treasure, these pink gems.</p> <p> The more treasure you dig up, the more bonus money you’ll win! </p><br><br><p><img src='run_exp/static/images/task_images/pink_gem.jpg' height='300' width='auto'></p>",,,,,,,,,,,,,,,,,,,,,,
instruc_goal,7,58663,0.0-6.0-1.0,,980.4,"<p> As a space explorer, you’ll visit different planets to dig for space treasure, these pink gems.</p> <p> The more treasure you dig up, the more bonus money you’ll win! </p><br><br><p><img src='run_exp/static/images/task_images/pink_gem.jpg' height='300' width='auto'></p>",,,,,,1,,,,,,,,,,,,,,,,,,
html-keyboard-response,8,59598,0.0-6.0-2.0,,933.3,"<p> As a space explorer, you’ll visit different planets to dig for space treasure, these pink gems.</p> <p> The more treasure you dig up, the more bonus money you’ll win! </p><br><br><p><img src='run_exp/static/images/task_images/pink_gem.jpg' height='300' width='auto'></p><button class=""jspsych-html-btn-unchosen""><img src=""run_exp/static/images/task_images/planet-01.jpg"" height=""50""></button><button class=""jspsych-html-btn-chosen""><img src=""run_exp/static/images/task_images/planet-02.jpg"" height=""50""></button><p><b>[press the space bar to lock in your answer]<b><br></p>",32,,,,,,,,,,,,,,,,,,,,,,,
instruc_dig,9,75822,0.0-7.0-0.0,,null,run_exp/static/audio/clip_4_dig.m4a,null,,,,,,100,,,,,,,,,,,,,,,,,
instruc_dig_try,10,77038,0.0-7.0-1.0,,1213.6,"<p> When you’ve arrived at a new planet, you will dig once. </p> <p>Then, you get to decide if you want to stay on the planet and dig again or travel to a new planet and dig there.</p> <p> To stay and dig, press the letter <strong>‘A’</strong> on your keyboard. Try pressing it now! </p><p><img src='run_exp/static/images/task_images/land.jpg'  height='700' width='auto'></p>",65,"<p> When you’ve arrived at a new planet, you will dig once. </p> <p>Then, you get to decide if you want to stay on the planet and dig again or travel to a new planet and dig there.</p> <p> To stay and dig, press the letter <strong>‘A’</strong> on your keyboard. Try pressing it now! </p><p><img src='run_exp/static/images/task_images/land.jpg'  height='700' width='auto'></p>",,,,,100,,,,,,,,,,,,,,,,,
dig_prac,11,79053,0.0-7.0-2.0,,,,,,,,,,,"[{""stimulus"":""run_exp/static/images/task_images/dig.jpg"",""time"":0.3999999985098839},{""stimulus"":""run_exp/static/images/task_images/land.jpg"",""time"":671.1999999992549},{""stimulus"":""run_exp/static/images/task_images/dig.jpg"",""time"":1336.300000000745}]",[],,,,,,,,,,,,,,,
instruc_travel,12,115483,0.0-7.0-3.0,,null,run_exp/static/audio/clip_5_travel.m4a,null,"<p>Every time you dig up gems, there are less gems on the planet, so the more you dig on a planet the fewer gems you’ll get with each dig.</p><p>When gems are running low, you may want to travel to a new planet. </p> <p>  Planets are very far apart in this galaxy, so it will take some time to travel between them. </p> <br><p>There are lots and lots of planets for you to visit, so you won’t be able to return to any planets you’ve seen before. </p><br><p>To leave this planet and travel to a new one, press the letter <strong>‘L’</strong> on your keyboard. Try pressing it now! </p><p><img src='run_exp/static/images/task_images/rocket-01.jpg'  height='600' width='auto'></p>",,,,,,,,,,,,,,,,,,,,,,
instruc_travel_try,13,116269,0.0-7.0-4.0,,774.7,"<p>Every time you dig up gems, there are less gems on the planet, so the more you dig on a planet the fewer gems you’ll get with each dig.</p><p>When gems are running low, you may want to travel to a new planet. </p> <p>  Planets are very far apart in this galaxy, so it will take some time to travel between them. </p> <br><p>There are lots and lots of planets for you to visit, so you won’t be able to return to any planets you’ve seen before. </p><br><p>To leave this planet and travel to a new one, press the letter <strong>‘L’</strong> on your keyboard. Try pressing it now! </p><p><img src='run_exp/static/images/task_images/rocket-01.jpg'  height='600' width='auto'></p>",76,"<p>Every time you dig up gems, there are less gems on the planet, so the more you dig on a planet the fewer gems you’ll get with each dig.</p><p>When gems are running low, you may want to travel to a new planet. </p> <p>  Planets are very far apart in this galaxy, so it will take some time to travel between them. </p> <br><p>There are lots and lots of planets for you to visit, so you won’t be able to return to any planets you’ve seen before. </p><br><p>To leave this planet and travel to a new one, press the letter <strong>‘L’</strong> on your keyboard. Try pressing it now! </p><p><img src='run_exp/static/images/task_images/rocket-01.jpg'  height='600' width='auto'></p>",,,,,,,,,,,,,,,,,,,,,,
travel_prac,14,126276,0.0-7.0-5.0,,,,,,,,,,,"[{""stimulus"":""run_exp/static/images/task_images/rocket-01.jpg"",""time"":0.5},{""stimulus"":""run_exp/static/images/task_images/rocket-02.jpg"",""time"":1113},{""stimulus"":""run_exp/static/images/task_images/rocket-03.jpg"",""time"":2228.699999999255},{""stimulus"":""run_exp/static/images/task_images/rocket-04.jpg"",""time"":3336.5},{""stimulus"":""run_exp/static/images/task_images/rocket-05.jpg"",""time"":4447},{""stimulus"":""run_exp/static/images/task_images/rocket-06.jpg"",""time"":5557.699999999255},{""stimulus"":""run_exp/static/images/task_images/rocket-07.jpg"",""time"":6672.599999997765},{""stimulus"":""run_exp/static/images/task_images/rocket-08.jpg"",""time"":7783.39999999851},{""stimulus"":""run_exp/static/images/task_images/rocket-09.jpg"",""time"":8894.199999999255}]",[],0,,,,,,,,,,,,,,
instruc_alien_greet,15,153670,0.0-7.0-6.0,,null,run_exp/static/audio/clip_6_alien.m4a,null,"<p>When you arrive at a new planet, the alien who owns the treasure mine on that planet will greet you!</p><p>The better an alien takes care of their mine the easier it is to dig for gems. Some aliens take better care of their mine than others. So, you won’t get exactly the same amount of gems on each planet.</p><p>What the alien looks like does not tell you anything about how many gems there are on the planet.</p><br><p><img src=""run_exp/static/images/task_images/aliens/instructions_aliens/planet/alien_planet-1.jpg""  height=""600"" width=""auto""></p>",,,,,,,,,,,,,,,,,,,,,,
instruc_alien_greet,16,156490,0.0-7.0-7.0,,2817.1,"<p>When you arrive at a new planet, the alien who owns the treasure mine on that planet will greet you!</p><p>The better an alien takes care of their mine the easier it is to dig for gems. Some aliens take better care of their mine than others. So, you won’t get exactly the same amount of gems on each planet.</p><p>What the alien looks like does not tell you anything about how many gems there are on the planet.</p><br><p><img src=""run_exp/static/images/task_images/aliens/instructions_aliens/planet/alien_planet-1.jpg""  height=""600"" width=""auto""></p>",,,,,,1,,,,,,,,,,,,,,,,,,
html-keyboard-response,17,156853,0.0-7.0-8.0,,361.6,"<p>When you arrive at a new planet, the alien who owns the treasure mine on that planet will greet you!</p><p>The better an alien takes care of their mine the easier it is to dig for gems. Some aliens take better care of their mine than others. So, you won’t get exactly the same amount of gems on each planet.</p><p>What the alien looks like does not tell you anything about how many gems there are on the planet.</p><br><p><img src=""run_exp/static/images/task_images/aliens/instructions_aliens/planet/alien_planet-1.jpg""  height=""600"" width=""auto""></p><button class=""jspsych-html-btn-unchosen""><img src=""run_exp/static/images/task_images/planet-01.jpg"" height=""50""></button><button class=""jspsych-html-btn-chosen""><img src=""run_exp/static/images/task_images/planet-02.jpg"" height=""50""></button><p><b>[press the space bar to lock in your answer]<b><br></p>",32,,,,,,,,,,,,,,,,,,,,,,,
time_out,18,168134,0.0-8.0-0.0,,null,run_exp/static/audio/clip_7_timeout.m4a,null,"<p>If you don't make your choice fast enough, you’ll have to wait a few seconds before you can make another one.</p><p>You can’t dig for more gems or travel to new planets. You just have to sit and wait.</p><br><p><img src='run_exp/static/images/task_images/time_out.jpg'  height='600' width='auto'></p>",,,,,,,,,,,,,,,,,,,,,,
time_out,19,170053,0.0-8.0-1.0,,1906.8,"<p>If you don't make your choice fast enough, you’ll have to wait a few seconds before you can make another one.</p><p>You can’t dig for more gems or travel to new planets. You just have to sit and wait.</p><br><p><img src='run_exp/static/images/task_images/time_out.jpg'  height='600' width='auto'></p>",,,,,,1,,,,,,,,,,,,,,,,,,
html-keyboard-response,20,170492,0.0-8.0-2.0,,437.8,"<p>If you don't make your choice fast enough, you’ll have to wait a few seconds before you can make another one.</p><p>You can’t dig for more gems or travel to new planets. You just have to sit and wait.</p><br><p><img src='run_exp/static/images/task_images/time_out.jpg'  height='600' width='auto'></p><button class=""jspsych-html-btn-unchosen""><img src=""run_exp/static/images/task_images/planet-01.jpg"" height=""50""></button><button class=""jspsych-html-btn-chosen""><img src=""run_exp/static/images/task_images/planet-02.jpg"" height=""50""></button><p><b>[press the space bar to lock in your answer]<b><br></p>",32,,,,,,,,,,,,,,,,,,,,,,,
instruc_break,21,186376,0.0-9.0-0.0,,null,run_exp/static/audio/clip_8_break.m4a,null,"<p> After digging and traveling for a while, you’ll be able to take a break at home base. </p><p>The game will last 20 minutes no matter what.</p><p>You will visit home base every 5 minutes, so, you will visit home base three times during the game.</p><br><p><img src='run_exp/static/images/task_images/home_base.jpg' height='600' width='auto'></p>",,,,,,,,,,,,,,,,,,,,,,
instruc_break,22,189052,0.0-9.0-1.0,,2672.6,"<p> After digging and traveling for a while, you’ll be able to take a break at home base. </p><p>The game will last 20 minutes no matter what.</p><p>You will visit home base every 5 minutes, so, you will visit home base three times during the game.</p><br><p><img src='run_exp/static/images/task_images/home_base.jpg' height='600' width='auto'></p>",,,,,,1,,,,,,,,,,,,,,,,,,
html-keyboard-response,23,189383,0.0-9.0-2.0,,329.1,"<p> After digging and traveling for a while, you’ll be able to take a break at home base. </p><p>The game will last 20 minutes no matter what.</p><p>You will visit home base every 5 minutes, so, you will visit home base three times during the game.</p><br><p><img src='run_exp/static/images/task_images/home_base.jpg' height='600' width='auto'></p><button class=""jspsych-html-btn-unchosen""><img src=""run_exp/static/images/task_images/planet-01.jpg"" height=""50""></button><button class=""jspsych-html-btn-chosen""><img src=""run_exp/static/images/task_images/planet-02.jpg"" height=""50""></button><p><b>[press the space bar to lock in your answer]<b><br></p>",32,,,,,,,,,,,,,,,,,,,,,,,
instruc_prac_game,24,199708,0.0-10.0-0.0,,null,run_exp/static/audio/clip_9_practice.m4a,null,"<p> Are you ready to play a practice game? </p> <p>In this practice game, you'll be digging up barrels of gems. But, in the real game, you'll be digging up the gems themselves. </p>",,,,,,,,,,,,,,,,,,,,,,
html-button-response,25,201232,0.0-10.0-1.0,,1522.7,"<p> Are you ready to play a practice game? </p> <p>In this practice game, you'll be digging up barrels of gems. But, in the real game, you'll be digging up the gems themselves. </p>",,,,,,0,,,,,,,,,,,,,,,,,,
alien_welcome_prac,26,206240,0.0-11.0-0.0,,null,run_exp/static/images/task_images/aliens/practice_aliens/planet/alien_planet-5.jpg,null,,,,,,,,,,,,,,,,,,,,,,,
land_prac,27,206743,0.0-11.0-1.0,,null,run_exp/static/images/task_images/land.jpg,null,,,,,,105,,,0,,,,,,,,,,,,,,
dig_prac,28,208752,0.0-11.0-2.0,,,,,,,,,,,"[{""stimulus"":""run_exp/static/images/task_images/dig.jpg"",""time"":0.4000000022351742},{""stimulus"":""run_exp/static/images/task_images/land.jpg"",""time"":672.3000000007451},{""stimulus"":""run_exp/static/images/task_images/dig.jpg"",""time"":1340.6000000014901}]",[],,,,,,,,,,,,,,,
harvest_prac,29,209755,0.0-11.0-3.0,,null,run_exp/static/images/task_images/barrel_text.jpg,null,,,,,,,,,,,,,,,,,,,,,,,
decision_prac,30,212340,0.0-11.0-4.0,,2584.2,run_exp/static/images/task_images/land.jpg,65,,,,,,,,,,1,,,,,,,,,,,,,
dig_prac,31,214347,0.0-12.0-0.0,,,,,,,,,,,"[{""stimulus"":""run_exp/static/images/task_images/dig.jpg"",""time"":0.30000000074505806},{""stimulus"":""run_exp/static/images/task_images/land.jpg"",""time"":669.6999999992549},{""stimulus"":""run_exp/static/images/task_images/dig.jpg"",""time"":1338.199999999255}]",[],,,,,,,,,,,,,,,
harvest_prac,32,215350,0.0-12.0-1.0,,null,run_exp/static/images/task_images/barrel_text.jpg,null,,,,,,,,,,,,,,,,,,,,,,,
decision_prac,33,216779,0.0-12.0-2.0,,1427.7,run_exp/static/images/task_images/land.jpg,65,,,,,,,,,,2,,,,,,,,,,,,,
dig_prac,34,218790,0.0-13.0-0.0,,,,,,,,,,,"[{""stimulus"":""run_exp/static/images/task_images/dig.jpg"",""time"":0.19999999925494194},{""stimulus"":""run_exp/static/images/task_images/land.jpg"",""time"":673.1999999992549},{""stimulus"":""run_exp/static/images/task_images/dig.jpg"",""time"":1339.6000000014901}]",[],,,,,,,,,,,,,,,
harvest_prac,35,219795,0.0-13.0-1.0,,null,run_exp/static/images/task_images/barrel_text.jpg,null,,,,,,,,,,,,,,,,,,,,,,,
decision_prac,36,220673,0.0-13.0-2.0,,877.1,run_exp/static/images/task_images/land.jpg,76,,,,,,,,,,3,,,,,,,,,,,,,
travel,37,229795,0.0-14.0-0.0,,,,,,,,,,,"[{""stimulus"":""run_exp/static/images/task_images/rocket-01.jpg"",""time"":0.20000000298023224},{""stimulus"":""run_exp/static/images/task_images/rocket-02.jpg"",""time"":1016.1000000014901},{""stimulus"":""run_exp/static/images/task_images/rocket-03.jpg"",""time"":2029.5},{""stimulus"":""run_exp/static/images/task_images/rocket-04.jpg"",""time"":3040.900000002235},{""stimulus"":""run_exp/static/images/task_images/rocket-05.jpg"",""time"":4056},{""stimulus"":""run_exp/static/images/task_images/rocket-06.jpg"",""time"":5069.60000000149},{""stimulus"":""run_exp/static/images/task_images/rocket-07.jpg"",""time"":6083},{""stimulus"":""run_exp/static/images/task_images/rocket-08.jpg"",""time"":7092.400000002235},{""stimulus"":""run_exp/static/images/task_images/rocket-09.jpg"",""time"":8109.800000000745}]",[],0,,,,,,,,,,,,,,
alien_welcome_prac,38,234802,0.0-14.0-1.0,,null,run_exp/static/images/task_images/aliens/practice_aliens/planet/alien_planet-4.jpg,null,,,,,,,,,,,,,,,,,,,,,,,
land_prac,39,235309,0.0-14.0-2.0,,null,run_exp/static/images/task_images/land.jpg,null,,,,,,105,,,0,,,,,,,,,,,,,,
dig_prac,40,237317,0.0-14.0-3.0,,,,,,,,,,,"[{""stimulus"":""run_exp/static/images/task_images/dig.jpg"",""time"":0.4000000022351742},{""stimulus"":""run_exp/static/images/task_images/land.jpg"",""time"":673.8000000007451},{""stimulus"":""run_exp/static/images/task_images/dig.jpg"",""time"":1340.6000000014901}]",[],,,,,,,,,,,,,,,
harvest_prac,41,238322,0.0-14.0-4.0,,null,run_exp/static/images/task_images/barrel_text.jpg,null,,,,,,,,,,,,,,,,,,,,,,,
decision_prac,42,239575,0.0-14.0-5.0,,1251.5,run_exp/static/images/task_images/land.jpg,65,,,,,,,,,,4,,,,,,,,,,,,,
dig_prac,43,241582,0.0-15.0-0.0,,,,,,,,,,,"[{""stimulus"":""run_exp/static/images/task_images/dig.jpg"",""time"":0.29999999701976776},{""stimulus"":""run_exp/static/images/task_images/land.jpg"",""time"":669.6999999992549},{""stimulus"":""run_exp/static/images/task_images/dig.jpg"",""time"":1340.3999999985099}]",[],,,,,,,,,,,,,,,
harvest_prac,44,242585,0.0-15.0-1.0,,null,run_exp/static/images/task_images/barrel_text.jpg,null,,,,,,,,,,,,,,,,,,,,,,,
decision_prac,45,243015,0.0-15.0-2.0,,428.2,run_exp/static/images/task_images/land.jpg,65,,,,,,,,,,,1,,,,,,,,,,,,
quiz_instruc,46,254720,0.0-16.0-0.0,,11700.3,run_exp/static/audio/clip_10_quiz.m4a,,,,,,0,,,,,,,,,,,,,,,,,,
instruc_repeat,47,297673,0.0-16.0-1.0,,null,"<p> Are you ready to play a practice game? </p> <p>In this practice game, you'll be digging up barrels of gems. But, in the real game, you'll be digging up the gems themselves. </p>",null,"<p>In this game, your goal is to collect as many gems as you can. That’s how you will win bonus money. </p> <p>The entire game will last 20 minutes no matter how many gems you collect or how many planets you visit. </p><p>To stay on a planet and dig again, press the letter A on your keyboard. To leave for a new planet, press the letter L.</p><p>The more you dig on a planet, the fewer gems you’ll get with each dig which is why you might consider leaving for a new planet. </p><p>When you arrive at a new planet, you’ll be greeted by an alien. What the alien looks like does not tell you anything about how much treasure is on the planet. </p>",,,,,,,,,,,,,,,,,,,,,,
instruc_repeat_continue,48,299289,0.0-16.0-2.0,,1614.5,"<p> Are you ready to play a practice game? </p> <p>In this practice game, you'll be digging up barrels of gems. But, in the real game, you'll be digging up the gems themselves. </p>",,,,,,0,,,,,,,,,,,,,,,,,,
quiz_q_1_ask,49,303041,0.0-16.0-3.0,,3749.9,run_exp/static/audio/clip_11_q1_ask.m4a,,,,,,2,,,,,,,,,,,,,,,,,,
quiz_q_1_fb_correct,50,307081,0.0-17.0-0.0,,null,run_exp/static/audio/clip_12_q1_corrrect.m4a,null,<p>That’s correct. You win extra money by collecting more gems.</p>,,,,,,,,,,,,,,,,,,,,,,
quiz_q_2_ask,51,310918,0.0-17.0-1.0,,3834.4,run_exp/static/audio/clip_14_q2_ask.m4a,,,,,,1,,,,,,,,,,,,,,,,,,
quiz_q_2_fb_correct,52,315125,0.0-18.0-0.0,,null,run_exp/static/audio/clip_15_q2_correct.m4a,null,<p>That’s correct. The experiment is 20 minutes no matter what.</p>,,,,,,,,,,,,,,,,,,,,,,
quiz_q_3_ask,53,317709,0.0-18.0-1.0,,2582.7,run_exp/static/audio/clip_17_q3_ask.m4a,,,,,,1,,,,,,,,,,,,,,,,,,
quiz_q_3_fb_correct,54,321866,0.0-19.0-0.0,,null,run_exp/static/audio/clip_18_q3_correct.m4a,null,<p> That’s correct. You press the letter L to travel to a new planet.</p>,,,,,,,,,,,,,,,,,,,,,,
quiz_q_4_ask,55,326066,0.0-19.0-1.0,,4198,run_exp/static/audio/clip_20_q4_ask.m4a,,,,,,0,,,,,,,,,,,,,,,,,,
quiz_q_4_fb_correct,56,331572,0.0-20.0-0.0,,null,run_exp/static/audio/clip_21_q4_correct.m4a,null,<p> That’s correct. The more you dig on a planet the fewer gems you’ll get with each dig. </p>,,,,,,,,,,,,,,,,,,,,,,
quiz_q_5_ask,57,333753,0.0-20.0-1.0,,2177.9,run_exp/static/audio/clip_23_q5_ask.m4a,,,,,,1,,,,,,,,,,,,,,,,,,
quiz_q_5_fb_correct,58,338954,0.0-21.0-0.0,,null,run_exp/static/audio/clip_24_q5_correct.m4a,null,<p> That’s correct. The alien tells you nothing about how much treasure is on the planet.</p>,,,,,,,,,,,,,,,,,,,,,,
quiz_correct,59,342580,0.0-22.0-0.0,,null,run_exp/static/audio/clip_26_correct_quiz.m4a,null,,,,,,,,,,,,,,,,,,,,,,,
quiz_correct_continue,60,344161,0.0-22.0-1.0,,1578.8,<p>Good job! You're now ready to move on to the real game!</p>,,,,,,0,,,,,,,,,,,,,,,,,,
audio-keyboard-response,61,354464,0.0-22.0-2.0,,null,run_exp/static/audio/clip_28_real_game.m4a,null,,,,,,,,,,,,,,,,,,,,,,,
instruc_begin_exp_contine,62,355484,0.0-22.0-3.0,,1019,"<p>Now that you know how  to dig for space treasure and travel to new planets,you can start exploring! </p><p>Do you want to go over the instructions again or get started with the real game?</p>",,,,,,1,,,,,,1,,,,,,,,,,,,
alien_welcome,63,360494,0.0-23.0-0.0,,null,run_exp/static/images/task_images/aliens/old_aliens/planet/alien_planet-5.jpg,null,,,,,,,,,,,,5,"5,19,64,58,55,33,45,62,75,16,18,65,73,28,3,34,69,48,37,29,74,49,51,32,60,21,56,42,1,63,59,72,23,76,4,17,47,27,77,46,39",,,,,,,,,,
land,64,361001,0.0-23.0-1.0,,null,run_exp/static/images/task_images/land.jpg,null,,,,,,97,,,1,,,,,,,,,,,,,,
dig,65,363007,0.0-23.0-2.0,,,,,,,,,,,"[{""stimulus"":""run_exp/static/images/task_images/dig.jpg"",""time"":0.3999999985098839},{""stimulus"":""run_exp/static/images/task_images/land.jpg"",""time"":671},{""stimulus"":""run_exp/static/images/task_images/dig.jpg"",""time"":1340.3999999985099}]",[],1,,,,,,,,,,,,,,
harvest,66,364008,0.0-23.0-3.0,,null,run_exp/static/images/task_images/gems/97.jpg,null,,,,,,18,,,1,,,,,97,0.183871131,0.18556701,,,,,,,
decision,67,365658,0.0-23.0-4.0,,1647.2,run_exp/static/images/task_images/land.jpg,65,,,,,,18,,,1,,,,,,,,10169,1,0,FALSE,,,
dig,68,367015,0.0-24.0-0.0,,,,,,,,,,,"[{""stimulus"":""run_exp/static/images/task_images/dig.jpg"",""time"":0.19999999925494194},{""stimulus"":""run_exp/static/images/task_images/land.jpg"",""time"":455.5},{""stimulus"":""run_exp/static/images/task_images/dig.jpg"",""time"":906}]",[],1,,,,,,,,,,,,,,
harvest,69,368018,0.0-24.0-1.0,,null,run_exp/static/images/task_images/gems/18.jpg,null,,,,,,3,,,1,,,,,18,0.165725205,0.166666667,,,,,,,
decision,70,369416,0.0-24.0-2.0,,1395,run_exp/static/images/task_images/land.jpg,76,,,,,,3,,,1,,,,,,,,13927,1,1,TRUE,,,
travel,71,378026,0.0-25.0-0.0,,,,,,,,,,,"[{""stimulus"":""run_exp/static/images/task_images/rocket-01.jpg"",""time"":0.30000000074505806},{""stimulus"":""run_exp/static/images/task_images/rocket-02.jpg"",""time"":957.9000000022352},{""stimulus"":""run_exp/static/images/task_images/rocket-03.jpg"",""time"":1917.9000000022352},{""stimulus"":""run_exp/static/images/task_images/rocket-04.jpg"",""time"":2872.10000000149},{""stimulus"":""run_exp/static/images/task_images/rocket-05.jpg"",""time"":3825.400000002235},{""stimulus"":""run_exp/static/images/task_images/rocket-06.jpg"",""time"":4786.10000000149},{""stimulus"":""run_exp/static/images/task_images/rocket-07.jpg"",""time"":5737.900000002235},{""stimulus"":""run_exp/static/images/task_images/rocket-08.jpg"",""time"":6696.900000002235},{""stimulus"":""run_exp/static/images/task_images/rocket-09.jpg"",""time"":7653.5}]",[],1,,,,,,,,,,,,,,
alien_welcome,72,383030,0.0-25.0-1.0,,null,run_exp/static/images/task_images/aliens/old_aliens/planet/alien_planet-19.jpg,null,,,,,,,,,,,,19,"5,19,64,58,55,33,45,62,75,16,18,65,73,28,3,34,69,48,37,29,74,49,51,32,60,21,56,42,1,63,59,72,23,76,4,17,47,27,77,46,39",,,,,,,,,,
land,73,383534,0.0-25.0-2.0,,null,run_exp/static/images/task_images/land.jpg,null,,,,,,105,,,2,,,,,,,,,,,,,,
dig,74,385543,0.0-25.0-3.0,,,,,,,,,,,"[{""stimulus"":""run_exp/static/images/task_images/dig.jpg"",""time"":0.30000000074505806},{""stimulus"":""run_exp/static/images/task_images/land.jpg"",""time"":671.6000000014901},{""stimulus"":""run_exp/static/images/task_images/dig.jpg"",""time"":1340.3999999985099}]",[],2,,,,,,,,,,,,,,
harvest,75,386546,0.0-25.0-4.0,,null,run_exp/static/images/task_images/gems/105.jpg,null,,,,,,17,,,2,,,,,105,0.16385985,0.161904762,,,,,,,
decision,76,387054,0.0-25.0-5.0,,505.8,run_exp/static/images/task_images/land.jpg,65,,,,,,17,,,2,,,,,,,,31565,1,0,FALSE,,,
dig,77,389553,0.0-26.0-0.0,,,,,,,,,,,"[{""stimulus"":""run_exp/static/images/task_images/dig.jpg"",""time"":0.29999999701976776},{""stimulus"":""run_exp/static/images/task_images/land.jpg"",""time"":832.5},{""stimulus"":""run_exp/static/images/task_images/dig.jpg"",""time"":1666.199999999255}]",[],2,,,,,,,,,,,,,,
harvest,78,390555,0.0-26.0-1.0,,null,run_exp/static/images/task_images/gems/17.jpg,null,,,,,,2,,,2,,,,,17,0.134857406,0.117647059,,,,,,,
decision,79,392283,0.0-26.0-2.0,,1726.9,run_exp/static/images/task_images/land.jpg,76,,,,,,2,,,2,,,,,,,,36794,1,1,TRUE,,,
travel,80,400561,0.0-27.0-0.0,,,,,,,,,,,"[{""stimulus"":""run_exp/static/images/task_images/rocket-01.jpg"",""time"":0.3999999985098839},{""stimulus"":""run_exp/static/images/task_images/rocket-02.jpg"",""time"":925.5},{""stimulus"":""run_exp/static/images/task_images/rocket-03.jpg"",""time"":1842.800000000745},{""stimulus"":""run_exp/static/images/task_images/rocket-04.jpg"",""time"":2760.199999999255},{""stimulus"":""run_exp/static/images/task_images/rocket-05.jpg"",""time"":3680.599999997765},{""stimulus"":""run_exp/static/images/task_images/rocket-06.jpg"",""time"":4596.599999997765},{""stimulus"":""run_exp/static/images/task_images/rocket-07.jpg"",""time"":5516.300000000745},{""stimulus"":""run_exp/static/images/task_images/rocket-08.jpg"",""time"":6438.599999997765},{""stimulus"":""run_exp/static/images/task_images/rocket-09.jpg"",""time"":7357.699999999255}]",[],2,,,,,,,,,,,,,,
alien_welcome,81,405565,0.0-27.0-1.0,,null,run_exp/static/images/task_images/aliens/old_aliens/planet/alien_planet-64.jpg,null,,,,,,,,,,,,64,"5,19,64,58,55,33,45,62,75,16,18,65,73,28,3,34,69,48,37,29,74,49,51,32,60,21,56,42,1,63,59,72,23,76,4,17,47,27,77,46,39",,,,,,,,,,
land,82,406070,0.0-27.0-2.0,,null,run_exp/static/images/task_images/land.jpg,null,,,,,,99,,,3,,,,,,,,,,,,,,
dig,83,408076,0.0-27.0-3.0,,,,,,,,,,,"[{""stimulus"":""run_exp/static/images/task_images/dig.jpg"",""time"":0.4000000022351742},{""stimulus"":""run_exp/static/images/task_images/land.jpg"",""time"":668.1000000014901},{""stimulus"":""run_exp/static/images/task_images/dig.jpg"",""time"":1336}]",[],3,,,,,,,,,,,,,,
harvest,84,409078,0.0-27.0-4.0,,null,run_exp/static/images/task_images/gems/99.jpg,null,,,,,,62,,,3,,,,,99,0.630759794,0.626262626,,,,,,,
decision,85,409589,0.0-27.0-5.0,,507.4,run_exp/static/images/task_images/land.jpg,65,,,,,,62,,,3,,,,,,,,54100,1,0,FALSE,,,
dig,86,412086,0.0-28.0-0.0,,,,,,,,,,,"[{""stimulus"":""run_exp/static/images/task_images/dig.jpg"",""time"":0.20000000298023224},{""stimulus"":""run_exp/static/images/task_images/land.jpg"",""time"":831.2000000029802},{""stimulus"":""run_exp/static/images/task_images/dig.jpg"",""time"":1661.300000000745}]",[],3,,,,,,,,,,,,,,
harvest,87,413089,0.0-28.0-1.0,,null,run_exp/static/images/task_images/gems/62.jpg,null,,,,,,29,,,3,,,,,62,0.472091419,0.467741935,,,,,,,
decision,88,413536,0.0-28.0-2.0,,445.7,run_exp/static/images/task_images/land.jpg,65,,,,,,29,,,3,,,,,,,,58048,1,1,FALSE,,,
dig,89,416097,0.0-29.0-0.0,,,,,,,,,,,"[{""stimulus"":""run_exp/static/images/task_images/dig.jpg"",""time"":0.20000000298023224},{""stimulus"":""run_exp/static/images/task_images/land.jpg"",""time"":857.3000000007451},{""stimulus"":""run_exp/static/images/task_images/dig.jpg"",""time"":1703.800000000745}]",[],3,,,,,,,,,,,,,,
harvest,90,417099,0.0-29.0-1.0,,null,run_exp/static/images/task_images/gems/29.jpg,null,,,,,,17,,,3,,,,,29,0.573725262,0.586206897,,,,,,,
decision,91,417572,0.0-29.0-2.0,,471.2,run_exp/static/images/task_images/land.jpg,65,,,,,,17,,,3,,,,,,,,62083,1,2,FALSE,,,
dig,92,420103,0.0-30.0-0.0,,,,,,,,,,,"[{""stimulus"":""run_exp/static/images/task_images/dig.jpg"",""time"":0.30000000074505806},{""stimulus"":""run_exp/static/images/task_images/land.jpg"",""time"":846.6999999992549},{""stimulus"":""run_exp/static/images/task_images/dig.jpg"",""time"":1688.5999999977648}]",[],3,,,,,,,,,,,,,,
harvest,93,421105,0.0-30.0-1.0,,null,run_exp/static/images/task_images/gems/17.jpg,null,,,,,,9,,,3,,,,,17,0.511552299,0.529411765,,,,,,,
decision,94,421711,0.0-30.0-2.0,,604.1,run_exp/static/images/task_images/land.jpg,76,,,,,,9,,,3,,,,,,,,66222,1,3,TRUE,,,
travel,95,431107,0.0-31.0-0.0,,,,,,,,,,,"[{""stimulus"":""run_exp/static/images/task_images/rocket-01.jpg"",""time"":0.30000000074505806},{""stimulus"":""run_exp/static/images/task_images/rocket-02.jpg"",""time"":1046},{""stimulus"":""run_exp/static/images/task_images/rocket-03.jpg"",""time"":2091.10000000149},{""stimulus"":""run_exp/static/images/task_images/rocket-04.jpg"",""time"":3130.199999999255},{""stimulus"":""run_exp/static/images/task_images/rocket-05.jpg"",""time"":4175},{""stimulus"":""run_exp/static/images/task_images/rocket-06.jpg"",""time"":5220.300000000745},{""stimulus"":""run_exp/static/images/task_images/rocket-07.jpg"",""time"":6263.39999999851},{""stimulus"":""run_exp/static/images/task_images/rocket-08.jpg"",""time"":7303.89999999851},{""stimulus"":""run_exp/static/images/task_images/rocket-09.jpg"",""time"":8350.300000000745}]",[],3,,,,,,,,,,,,,,
alien_welcome,96,436114,0.0-31.0-1.0,,null,run_exp/static/images/task_images/aliens/old_aliens/planet/alien_planet-58.jpg,null,,,,,,,,,,,,58,"5,19,64,58,55,33,45,62,75,16,18,65,73,28,3,34,69,48,37,29,74,49,51,32,60,21,56,42,1,63,59,72,23,76,4,17,47,27,77,46,39",,,,,,,,,,
land,97,436618,0.0-31.0-2.0,,null,run_exp/static/images/task_images/land.jpg,null,,,,,,112,,,4,,,,,,,,,,,,,,
dig,98,438625,0.0-31.0-3.0,,,,,,,,,,,"[{""stimulus"":""run_exp/static/images/task_images/dig.jpg"",""time"":0.4000000022351742},{""stimulus"":""run_exp/static/images/task_images/land.jpg"",""time"":672.7000000029802},{""stimulus"":""run_exp/static/images/task_images/dig.jpg"",""time"":1340.5}]",[],4,,,,,,,,,,,,,,
harvest,99,439628,0.0-31.0-4.0,,null,run_exp/static/images/task_images/gems/112.jpg,null,,,,,,48,,,4,,,,,112,0.427789715,0.428571429,,,,,,,
decision,100,440039,0.0-31.0-5.0,,408.6,run_exp/static/images/task_images/land.jpg,65,,,,,,48,,,4,,,,,,,,84550,1,0,FALSE,,,
dig,101,442633,0.0-32.0-0.0,,,,,,,,,,,"[{""stimulus"":""run_exp/static/images/task_images/dig.jpg"",""time"":0.30000000074505806},{""stimulus"":""run_exp/static/images/task_images/land.jpg"",""time"":865},{""stimulus"":""run_exp/static/images/task_images/dig.jpg"",""time"":1732.300000000745}]",[],4,,,,,,,,,,,,,,
harvest,102,443639,0.0-32.0-1.0,,null,run_exp/static/images/task_images/gems/48.jpg,null,,,,,,23,,,4,,,,,48,0.489067741,0.479166667,,,,,,,
decision,103,444016,0.0-32.0-2.0,,375.5,run_exp/static/images/task_images/land.jpg,65,,,,,,23,,,4,,,,,,,,88527,1,1,FALSE,,,
dig,104,446650,0.0-33.0-0.0,,,,,,,,,,,"[{""stimulus"":""run_exp/static/images/task_images/dig.jpg"",""time"":0.4000000022351742},{""stimulus"":""run_exp/static/images/task_images/land.jpg"",""time"":876.6999999992549},{""stimulus"":""run_exp/static/images/task_images/dig.jpg"",""time"":1750.300000000745}]",[],4,,,,,,,,,,,,,,
harvest,105,447656,0.0-33.0-1.0,,null,run_exp/static/images/task_images/gems/23.jpg,null,,,,,,11,,,4,,,,,23,0.489340119,0.47826087,,,,,,,
decision,106,449426,0.0-33.0-2.0,,1768.8,run_exp/static/images/task_images/land.jpg,65,,,,,,11,,,4,,,,,,,,93937,1,2,FALSE,,,
dig,107,450662,0.0-34.0-0.0,,,,,,,,,,,"[{""stimulus"":""run_exp/static/images/task_images/dig.jpg"",""time"":0.30000000074505806},{""stimulus"":""run_exp/static/images/task_images/land.jpg"",""time"":416.3999999985099},{""stimulus"":""run_exp/static/images/task_images/dig.jpg"",""time"":822.8999999985099}]",[],4,,,,,,,,,,,,,,
harvest,108,451666,0.0-34.0-1.0,,null,run_exp/static/images/task_images/gems/11.jpg,null,,,,,,5,,,4,,,,,11,0.482707818,0.454545455,,,,,,,
decision,109,454053,0.0-34.0-2.0,,2386.4,run_exp/static/images/task_images/land.jpg,76,,,,,,5,,,4,,,,,,,,98565,1,3,TRUE,,,
travel,110,461667,0.0-35.0-0.0,,,,,,,,,,,"[{""stimulus"":""run_exp/static/images/task_images/rocket-01.jpg"",""time"":0.30000000074505806},{""stimulus"":""run_exp/static/images/task_images/rocket-02.jpg"",""time"":847},{""stimulus"":""run_exp/static/images/task_images/rocket-03.jpg"",""time"":1693},{""stimulus"":""run_exp/static/images/task_images/rocket-04.jpg"",""time"":2536.699999999255},{""stimulus"":""run_exp/static/images/task_images/rocket-05.jpg"",""time"":3384.300000000745},{""stimulus"":""run_exp/static/images/task_images/rocket-06.jpg"",""time"":4231.39999999851},{""stimulus"":""run_exp/static/images/task_images/rocket-07.jpg"",""time"":5075.099999997765},{""stimulus"":""run_exp/static/images/task_images/rocket-08.jpg"",""time"":5919.300000000745},{""stimulus"":""run_exp/static/images/task_images/rocket-09.jpg"",""time"":6763.89999999851}]",[],4,,,,,,,,,,,,,,
alien_welcome,111,466671,0.0-35.0-1.0,,null,run_exp/static/images/task_images/aliens/old_aliens/planet/alien_planet-55.jpg,null,,,,,,,,,,,,55,"5,19,64,58,55,33,45,62,75,16,18,65,73,28,3,34,69,48,37,29,74,49,51,32,60,21,56,42,1,63,59,72,23,76,4,17,47,27,77,46,39",,,,,,,,,,
land,112,467175,0.0-35.0-2.0,,null,run_exp/static/images/task_images/land.jpg,null,,,,,,103,,,5,,,,,,,,,,,,,,
dig,113,469180,0.0-35.0-3.0,,,,,,,,,,,"[{""stimulus"":""run_exp/static/images/task_images/dig.jpg"",""time"":0.30000000074505806},{""stimulus"":""run_exp/static/images/task_images/land.jpg"",""time"":668.9000000022352},{""stimulus"":""run_exp/static/images/task_images/dig.jpg"",""time"":1339.9000000022352}]",[],5,,,,,,,,,,,,,,
harvest,114,470182,0.0-35.0-4.0,,null,run_exp/static/images/task_images/gems/103.jpg,null,,,,,,45,,,5,,,,,103,0.436385987,0.436893204,,,,,,,
decision,115,470562,0.0-35.0-5.0,,378.3,run_exp/static/images/task_images/land.jpg,65,,,,,,45,,,5,,,,,,,,115073,1,0,FALSE,,,
dig,116,473185,0.0-36.0-0.0,,,,,,,,,,,"[{""stimulus"":""run_exp/static/images/task_images/dig.jpg"",""time"":0.30000000074505806},{""stimulus"":""run_exp/static/images/task_images/land.jpg"",""time"":877},{""stimulus"":""run_exp/static/images/task_images/dig.jpg"",""time"":1747.6000000014901}]",[],5,,,,,,,,,,,,,,
harvest,117,474189,0.0-36.0-1.0,,null,run_exp/static/images/task_images/gems/45.jpg,null,,,,,,21,,,5,,,,,45,0.458420538,0.466666667,,,,,,,
decision,118,474629,0.0-36.0-2.0,,438.2,run_exp/static/images/task_images/land.jpg,65,,,,,,21,,,5,,,,,,,,119140,1,1,FALSE,,,
dig,119,477196,0.0-37.0-0.0,,,,,,,,,,,"[{""stimulus"":""run_exp/static/images/task_images/dig.jpg"",""time"":0.30000000074505806},{""stimulus"":""run_exp/static/images/task_images/land.jpg"",""time"":857.8000000007451},{""stimulus"":""run_exp/static/images/task_images/dig.jpg"",""time"":1710.699999999255}]",[],5,,,,,,,,,,,,,,
harvest,120,478200,0.0-37.0-1.0,,null,run_exp/static/images/task_images/gems/21.jpg,null,,,,,,9,,,5,,,,,21,0.42958347,0.428571429,,,,,,,
decision,121,478468,0.0-37.0-2.0,,266.9,run_exp/static/images/task_images/land.jpg,65,,,,,,9,,,5,,,,,,,,122980,1,2,FALSE,,,
dig,122,481206,0.0-38.0-0.0,,,,,,,,,,,"[{""stimulus"":""run_exp/static/images/task_images/dig.jpg"",""time"":0.30000000074505806},{""stimulus"":""run_exp/static/images/task_images/land.jpg"",""time"":913.5999999977648},{""stimulus"":""run_exp/static/images/task_images/dig.jpg"",""time"":1827.699999999255}]",[],5,,,,,,,,,,,,,,
harvest,123,482210,0.0-38.0-1.0,,null,run_exp/static/images/task_images/gems/9.jpg,null,,,,,,4,,,5,,,,,9,0.481046359,0.444444444,,,,,,,
decision,124,483166,0.0-38.0-2.0,,953.8,run_exp/static/images/task_images/land.jpg,76,,,,,,4,,,5,,,,,,,,127677,1,3,TRUE,,,
travel,125,492218,0.0-39.0-0.0,,,,,,,,,,,"[{""stimulus"":""run_exp/static/images/task_images/rocket-01.jpg"",""time"":0.29999999701976776},{""stimulus"":""run_exp/static/images/task_images/rocket-02.jpg"",""time"":1006.8999999985099},{""stimulus"":""run_exp/static/images/task_images/rocket-03.jpg"",""time"":2011.5},{""stimulus"":""run_exp/static/images/task_images/rocket-04.jpg"",""time"":3017.099999997765},{""stimulus"":""run_exp/static/images/task_images/rocket-05.jpg"",""time"":4021.599999997765},{""stimulus"":""run_exp/static/images/task_images/rocket-06.jpg"",""time"":5026.39999999851},{""stimulus"":""run_exp/static/images/task_images/rocket-07.jpg"",""time"":6032.699999999255},{""stimulus"":""run_exp/static/images/task_images/rocket-08.jpg"",""time"":7040.599999997765},{""stimulus"":""run_exp/static/images/task_images/rocket-09.jpg"",""time"":8043.199999999255}]",[],5,,,,,,,,,,,,,,
alien_welcome,126,497221,0.0-39.0-1.0,,null,run_exp/static/images/task_images/aliens/old_aliens/planet/alien_planet-33.jpg,null,,,,,,,,,,,,33,"5,19,64,58,55,33,45,62,75,16,18,65,73,28,3,34,69,48,37,29,74,49,51,32,60,21,56,42,1,63,59,72,23,76,4,17,47,27,77,46,39",,,,,,,,,,
land,127,497727,0.0-39.0-2.0,,null,run_exp/static/images/task_images/land.jpg,null,,,,,,97,,,6,,,,,,,,,,,,,,
dig,128,499733,0.0-39.0-3.0,,,,,,,,,,,"[{""stimulus"":""run_exp/static/images/task_images/dig.jpg"",""time"":0.5},{""stimulus"":""run_exp/static/images/task_images/land.jpg"",""time"":669.5999999977648},{""stimulus"":""run_exp/static/images/task_images/dig.jpg"",""time"":1336.0999999977648}]",[],6,,,,,,,,,,,,,,
harvest,129,500738,0.0-39.0-4.0,,null,run_exp/static/images/task_images/gems/97.jpg,null,,,,,,80,,,6,,,,,97,0.825239838,0.824742268,,,,,,,
decision,130,501239,0.0-39.0-5.0,,498.7,run_exp/static/images/task_images/land.jpg,65,,,,,,80,,,6,,,,,,,,145750,1,0,FALSE,,,
dig,131,503745,0.0-40.0-0.0,,,,,,,,,,,"[{""stimulus"":""run_exp/static/images/task_images/dig.jpg"",""time"":0.3999999985098839},{""stimulus"":""run_exp/static/images/task_images/land.jpg"",""time"":835.8999999985099},{""stimulus"":""run_exp/static/images/task_images/dig.jpg"",""time"":1672.5}]",[],6,,,,,,,,,,,,,,
harvest,132,504747,0.0-40.0-1.0,,null,run_exp/static/images/task_images/gems/80.jpg,null,,,,,,61,,,6,,,,,80,0.761767008,0.7625,,,,,,,
decision,133,505149,0.0-40.0-2.0,,401.3,run_exp/static/images/task_images/land.jpg,65,,,,,,61,,,6,,,,,,,,149661,1,1,FALSE,,,
dig,134,507753,0.0-41.0-0.0,,,,,,,,,,,"[{""stimulus"":""run_exp/static/images/task_images/dig.jpg"",""time"":0.30000000074505806},{""stimulus"":""run_exp/static/images/task_images/land.jpg"",""time"":873},{""stimulus"":""run_exp/static/images/task_images/dig.jpg"",""time"":1736.8999999985099}]",[],6,,,,,,,,,,,,,,
harvest,135,508755,0.0-41.0-1.0,,null,run_exp/static/images/task_images/gems/61.jpg,null,,,,,,49,,,6,,,,,61,0.80897269,0.803278689,,,,,,,
decision,136,509138,0.0-41.0-2.0,,381.1,run_exp/static/images/task_images/land.jpg,65,,,,,,49,,,6,,,,,,,,153649,1,2,FALSE,,,
dig,137,511759,0.0-42.0-0.0,,,,,,,,,,,"[{""stimulus"":""run_exp/static/images/task_images/dig.jpg"",""time"":0.20000000298023224},{""stimulus"":""run_exp/static/images/task_images/land.jpg"",""time"":876},{""stimulus"":""run_exp/static/images/task_images/dig.jpg"",""time"":1749.6000000014901}]",[],6,,,,,,,,,,,,,,
harvest,138,512762,0.0-42.0-1.0,,null,run_exp/static/images/task_images/gems/49.jpg,null,,,,,,37,,,6,,,,,49,0.753365624,0.755102041,,,,,,,
decision,139,513164,0.0-42.0-2.0,,400.6,run_exp/static/images/task_images/land.jpg,65,,,,,,37,,,6,,,,,,,,157676,1,3,FALSE,,,
dig,140,515769,0.0-43.0-0.0,,,,,,,,,,,"[{""stimulus"":""run_exp/static/images/task_images/dig.jpg"",""time"":0.30000000074505806},{""stimulus"":""run_exp/static/images/task_images/land.jpg"",""time"":871.4000000022352},{""stimulus"":""run_exp/static/images/task_images/dig.jpg"",""time"":1735.9000000022352}]",[],6,,,,,,,,,,,,,,
harvest,141,516772,0.0-43.0-1.0,,null,run_exp/static/images/task_images/gems/37.jpg,null,,,,,,31,,,6,,,,,37,0.832499098,0.837837838,,,,,,,
decision,142,517086,0.0-43.0-2.0,,312.7,run_exp/static/images/task_images/land.jpg,76,,,,,,31,,,6,,,,,,,,161597,1,4,TRUE,,,
travel,143,526777,0.0-44.0-0.0,,,,,,,,,,,"[{""stimulus"":""run_exp/static/images/task_images/rocket-01.jpg"",""time"":0.29999999701976776},{""stimulus"":""run_exp/static/images/task_images/rocket-02.jpg"",""time"":1082.5},{""stimulus"":""run_exp/static/images/task_images/rocket-03.jpg"",""time"":2155.5},{""stimulus"":""run_exp/static/images/task_images/rocket-04.jpg"",""time"":3233.5},{""stimulus"":""run_exp/static/images/task_images/rocket-05.jpg"",""time"":4307.199999999255},{""stimulus"":""run_exp/static/images/task_images/rocket-06.jpg"",""time"":5382.199999999255},{""stimulus"":""run_exp/static/images/task_images/rocket-07.jpg"",""time"":6459.699999999255},{""stimulus"":""run_exp/static/images/task_images/rocket-08.jpg"",""time"":7533.39999999851},{""stimulus"":""run_exp/static/images/task_images/rocket-09.jpg"",""time"":8614.39999999851}]",[],6,,,,,,,,,,,,,,
alien_welcome,144,531780,0.0-44.0-1.0,,null,run_exp/static/images/task_images/aliens/old_aliens/planet/alien_planet-45.jpg,null,,,,,,,,,,,,45,"5,19,64,58,55,33,45,62,75,16,18,65,73,28,3,34,69,48,37,29,74,49,51,32,60,21,56,42,1,63,59,72,23,76,4,17,47,27,77,46,39",,,,,,,,,,
land,145,532282,0.0-44.0-2.0,,null,run_exp/static/images/task_images/land.jpg,null,,,,,,101,,,7,,,,,,,,,,,,,,
dig,146,534286,0.0-44.0-3.0,,,,,,,,,,,"[{""stimulus"":""run_exp/static/images/task_images/dig.jpg"",""time"":0.5},{""stimulus"":""run_exp/static/images/task_images/land.jpg"",""time"":669},{""stimulus"":""run_exp/static/images/task_images/dig.jpg"",""time"":1339.0999999977648}]",[],7,,,,,,,,,,,,,,
harvest,147,535289,0.0-44.0-4.0,,null,run_exp/static/images/task_images/gems/101.jpg,null,,,,,,88,,,7,,,,,101,0.875124303,0.871287129,,,,,,,
decision,148,535670,0.0-44.0-5.0,,378.9,run_exp/static/images/task_images/land.jpg,65,,,,,,88,,,7,,,,,,,,180181,1,0,FALSE,,,
dig,149,538294,0.0-45.0-0.0,,,,,,,,,,,"[{""stimulus"":""run_exp/static/images/task_images/dig.jpg"",""time"":0.09999999776482582},{""stimulus"":""run_exp/static/images/task_images/land.jpg"",""time"":875.1999999992549},{""stimulus"":""run_exp/static/images/task_images/dig.jpg"",""time"":1749.199999999255}]",[],7,,,,,,,,,,,,,,
harvest,150,539300,0.0-45.0-1.0,,null,run_exp/static/images/task_images/gems/88.jpg,null,,,,,,76,,,7,,,,,88,0.864073972,0.863636364,,,,,,,
decision,151,539583,0.0-45.0-2.0,,281.7,run_exp/static/images/task_images/land.jpg,65,,,,,,76,,,7,,,,,,,,184094,1,1,FALSE,,,
dig,152,542308,0.0-46.0-0.0,,,,,,,,,,,"[{""stimulus"":""run_exp/static/images/task_images/dig.jpg"",""time"":0.30000000074505806},{""stimulus"":""run_exp/static/images/task_images/land.jpg"",""time"":908.1999999992549},{""stimulus"":""run_exp/static/images/task_images/dig.jpg"",""time"":1813.5}]",[],7,,,,,,,,,,,,,,
harvest,153,543311,0.0-46.0-1.0,,null,run_exp/static/images/task_images/gems/76.jpg,null,,,,,,63,,,7,,,,,76,0.831198481,0.828947368,,,,,,,
decision,154,544714,0.0-46.0-2.0,,1401.4,run_exp/static/images/task_images/land.jpg,65,,,,,,63,,,7,,,,,,,,189225,1,2,FALSE,,,
dig,155,546315,0.0-47.0-0.0,,,,,,,,,,,"[{""stimulus"":""run_exp/static/images/task_images/dig.jpg"",""time"":0.19999999925494194},{""stimulus"":""run_exp/static/images/task_images/land.jpg"",""time"":536.5999999977648},{""stimulus"":""run_exp/static/images/task_images/dig.jpg"",""time"":1068.2999999970198}]",[],7,,,,,,,,,,,,,,
harvest,156,547321,0.0-47.0-1.0,,null,run_exp/static/images/task_images/gems/63.jpg,null,,,,,,55,,,7,,,,,63,0.870259181,0.873015873,,,,,,,
decision,157,547688,0.0-47.0-2.0,,364.9,run_exp/static/images/task_images/land.jpg,65,,,,,,55,,,7,,,,,,,,192199,1,3,FALSE,,,
dig,158,550329,0.0-48.0-0.0,,,,,,,,,,,"[{""stimulus"":""run_exp/static/images/task_images/dig.jpg"",""time"":0.30000000074505806},{""stimulus"":""run_exp/static/images/task_images/land.jpg"",""time"":881.1000000014901},{""stimulus"":""run_exp/static/images/task_images/dig.jpg"",""time"":1762}]",[],7,,,,,,,,,,,,,,
harvest,159,551333,0.0-48.0-1.0,,null,run_exp/static/images/task_images/gems/55.jpg,null,,,,,,38,,,7,,,,,55,0.692049838,0.690909091,,,,,,,
decision,160,552542,0.0-48.0-2.0,,1207.3,run_exp/static/images/task_images/land.jpg,65,,,,,,38,,,7,,,,,,,,197053,1,4,FALSE,,,
dig,161,554340,0.0-49.0-0.0,,,,,,,,,,,"[{""stimulus"":""run_exp/static/images/task_images/dig.jpg"",""time"":0.19999999925494194},{""stimulus"":""run_exp/static/images/task_images/land.jpg"",""time"":598.2999999970198},{""stimulus"":""run_exp/static/images/task_images/dig.jpg"",""time"":1196.0999999977648}]",[],7,,,,,,,,,,,,,,
harvest,162,555343,0.0-49.0-1.0,,null,run_exp/static/images/task_images/gems/38.jpg,null,,,,,,30,,,7,,,,,38,0.790401543,0.789473684,,,,,,,
decision,163,556437,0.0-49.0-2.0,,1092.2,run_exp/static/images/task_images/land.jpg,76,,,,,,30,,,7,,,,,,,,200948,1,5,TRUE,,,
travel,164,565348,0.0-50.0-0.0,,,,,,,,,,,"[{""stimulus"":""run_exp/static/images/task_images/rocket-01.jpg"",""time"":0.20000000298023224},{""stimulus"":""run_exp/static/images/task_images/rocket-02.jpg"",""time"":991.2000000029802},{""stimulus"":""run_exp/static/images/task_images/rocket-03.jpg"",""time"":1979.5},{""stimulus"":""run_exp/static/images/task_images/rocket-04.jpg"",""time"":2968.5},{""stimulus"":""run_exp/static/images/task_images/rocket-05.jpg"",""time"":3958.400000002235},{""stimulus"":""run_exp/static/images/task_images/rocket-06.jpg"",""time"":4948.5},{""stimulus"":""run_exp/static/images/task_images/rocket-07.jpg"",""time"":5935.400000002235},{""stimulus"":""run_exp/static/images/task_images/rocket-08.jpg"",""time"":6924.60000000149},{""stimulus"":""run_exp/static/images/task_images/rocket-09.jpg"",""time"":7913.300000000745}]",[],7,,,,,,,,,,,,,,
alien_welcome,165,570354,0.0-50.0-1.0,,null,run_exp/static/images/task_images/aliens/old_aliens/planet/alien_planet-62.jpg,null,,,,,,,,,,,,62,"5,19,64,58,55,33,45,62,75,16,18,65,73,28,3,34,69,48,37,29,74,49,51,32,60,21,56,42,1,63,59,72,23,76,4,17,47,27,77,46,39",,,,,,,,,,
land,166,570858,0.0-50.0-2.0,,null,run_exp/static/images/task_images/land.jpg,null,,,,,,94,,,8,,,,,,,,,,,,,,
dig,167,572863,0.0-50.0-3.0,,,,,,,,,,,"[{""stimulus"":""run_exp/static/images/task_images/dig.jpg"",""time"":0.29999999701976776},{""stimulus"":""run_exp/static/images/task_images/land.jpg"",""time"":674.0999999977648},{""stimulus"":""run_exp/static/images/task_images/dig.jpg"",""time"":1337.5999999977648}]",[],8,,,,,,,,,,,,,,
harvest,168,573866,0.0-50.0-4.0,,null,run_exp/static/images/task_images/gems/94.jpg,null,,,,,,74,,,8,,,,,94,0.788579697,0.787234043,,,,,,,
decision,169,574170,0.0-50.0-5.0,,302.3,run_exp/static/images/task_images/land.jpg,65,,,,,,74,,,8,,,,,,,,218681,1,0,FALSE,,,
dig,170,576876,0.0-51.0-0.0,,,,,,,,,,,"[{""stimulus"":""run_exp/static/images/task_images/dig.jpg"",""time"":0.19999999925494194},{""stimulus"":""run_exp/static/images/task_images/land.jpg"",""time"":901},{""stimulus"":""run_exp/static/images/task_images/dig.jpg"",""time"":1802.699999999255}]",[],8,,,,,,,,,,,,,,
harvest,171,577879,0.0-51.0-1.0,,null,run_exp/static/images/task_images/gems/74.jpg,null,,,,,,56,,,8,,,,,74,0.758290019,0.756756757,,,,,,,
decision,172,578271,0.0-51.0-2.0,,391.1,run_exp/static/images/task_images/land.jpg,65,,,,,,56,,,8,,,,,,,,222782,1,1,FALSE,,,
dig,173,580886,0.0-52.0-0.0,,,,,,,,,,,"[{""stimulus"":""run_exp/static/images/task_images/dig.jpg"",""time"":0.19999999925494194},{""stimulus"":""run_exp/static/images/task_images/land.jpg"",""time"":985.1999999992549},{""stimulus"":""run_exp/static/images/task_images/dig.jpg"",""time"":1739.300000000745}]",[],8,,,,,,,,,,,,,,
harvest,174,581889,0.0-52.0-1.0,,null,run_exp/static/images/task_images/gems/56.jpg,null,,,,,,47,,,8,,,,,56,0.830826503,0.839285714,,,,,,,
decision,175,582271,0.0-52.0-2.0,,379.6,run_exp/static/images/task_images/land.jpg,65,,,,,,47,,,8,,,,,,,,226783,1,2,FALSE,,,
dig,176,584896,0.0-53.0-0.0,,,,,,,,,,,"[{""stimulus"":""run_exp/static/images/task_images/dig.jpg"",""time"":0.3999999985098839},{""stimulus"":""run_exp/static/images/task_images/land.jpg"",""time"":876.0999999977648},{""stimulus"":""run_exp/static/images/task_images/dig.jpg"",""time"":1748}]",[],8,,,,,,,,,,,,,,
harvest,177,585902,0.0-53.0-1.0,,null,run_exp/static/images/task_images/gems/47.jpg,null,,,,,,37,,,8,,,,,47,0.786263776,0.787234043,,,,,,,
decision,178,586534,0.0-53.0-2.0,,630.5,run_exp/static/images/task_images/land.jpg,76,,,,,,37,,,8,,,,,,,,231046,1,3,TRUE,,,
travel,179,595914,0.0-54.0-0.0,,,,,,,,,,,"[{""stimulus"":""run_exp/static/images/task_images/rocket-01.jpg"",""time"":0.30000000074505806},{""stimulus"":""run_exp/static/images/task_images/rocket-02.jpg"",""time"":1045.8999999985099},{""stimulus"":""run_exp/static/images/task_images/rocket-03.jpg"",""time"":2085.699999999255},{""stimulus"":""run_exp/static/images/task_images/rocket-04.jpg"",""time"":3129.5},{""stimulus"":""run_exp/static/images/task_images/rocket-05.jpg"",""time"":4170.300000000745},{""stimulus"":""run_exp/static/images/task_images/rocket-06.jpg"",""time"":5207.699999999255},{""stimulus"":""run_exp/static/images/task_images/rocket-07.jpg"",""time"":6248.800000000745},{""stimulus"":""run_exp/static/images/task_images/rocket-08.jpg"",""time"":7289.699999999255},{""stimulus"":""run_exp/static/images/task_images/rocket-09.jpg"",""time"":8334.60000000149}]",[],8,,,,,,,,,,,,,,
alien_welcome,180,600922,0.0-54.0-1.0,,null,run_exp/static/images/task_images/aliens/old_aliens/planet/alien_planet-75.jpg,null,,,,,,,,,,,,75,"5,19,64,58,55,33,45,62,75,16,18,65,73,28,3,34,69,48,37,29,74,49,51,32,60,21,56,42,1,63,59,72,23,76,4,17,47,27,77,46,39",,,,,,,,,,
land,181,601424,0.0-54.0-2.0,,null,run_exp/static/images/task_images/land.jpg,null,,,,,,102,,,9,,,,,,,,,,,,,,
dig,182,603430,0.0-54.0-3.0,,,,,,,,,,,"[{""stimulus"":""run_exp/static/images/task_images/dig.jpg"",""time"":0.30000000074505806},{""stimulus"":""run_exp/static/images/task_images/land.jpg"",""time"":673.3000000007451},{""stimulus"":""run_exp/static/images/task_images/dig.jpg"",""time"":1336.5}]",[],9,,,,,,,,,,,,,,
harvest,183,604433,0.0-54.0-4.0,,null,run_exp/static/images/task_images/gems/102.jpg,null,,,,,,12,,,9,,,,,102,0.118713338,0.117647059,,,,,,,
decision,184,604787,0.0-54.0-5.0,,353,run_exp/static/images/task_images/land.jpg,65,,,,,,12,,,9,,,,,,,,249298,1,0,FALSE,,,
dig,185,607440,0.0-55.0-0.0,,,,,,,,,,,"[{""stimulus"":""run_exp/static/images/task_images/dig.jpg"",""time"":0.09999999776482582},{""stimulus"":""run_exp/static/images/task_images/land.jpg"",""time"":886.0999999977648},{""stimulus"":""run_exp/static/images/task_images/dig.jpg"",""time"":1769}]",[],9,,,,,,,,,,,,,,
harvest,186,608443,0.0-55.0-1.0,,null,run_exp/static/images/task_images/gems/12.jpg,null,,,,,,2,,,9,,,,,12,0.153700598,0.166666667,,,,,,,
decision,187,608800,0.0-55.0-2.0,,355.6,run_exp/static/images/task_images/land.jpg,76,,,,,,2,,,9,,,,,,,,253311,1,1,TRUE,,,
travel,188,618447,0.0-56.0-0.0,,,,,,,,,,,"[{""stimulus"":""run_exp/static/images/task_images/rocket-01.jpg"",""time"":0.30000000074505806},{""stimulus"":""run_exp/static/images/task_images/rocket-02.jpg"",""time"":1077.300000000745},{""stimulus"":""run_exp/static/images/task_images/rocket-03.jpg"",""time"":2144.300000000745},{""stimulus"":""run_exp/static/images/task_images/rocket-04.jpg"",""time"":3215.199999999255},{""stimulus"":""run_exp/static/images/task_images/rocket-05.jpg"",""time"":4289.5},{""stimulus"":""run_exp/static/images/task_images/rocket-06.jpg"",""time"":5358.60000000149},{""stimulus"":""run_exp/static/images/task_images/rocket-07.jpg"",""time"":6432.400000002235},{""stimulus"":""run_exp/static/images/task_images/rocket-08.jpg"",""time"":7501.699999999255},{""stimulus"":""run_exp/static/images/task_images/rocket-09.jpg"",""time"":8569.400000002235}]",[],9,,,,,,,,,,,,,,
alien_welcome,189,623451,0.0-56.0-1.0,,null,run_exp/static/images/task_images/aliens/old_aliens/planet/alien_planet-16.jpg,null,,,,,,,,,,,,16,"5,19,64,58,55,33,45,62,75,16,18,65,73,28,3,34,69,48,37,29,74,49,51,32,60,21,56,42,1,63,59,72,23,76,4,17,47,27,77,46,39",,,,,,,,,,
land,190,623953,0.0-56.0-2.0,,null,run_exp/static/images/task_images/land.jpg,null,,,,,,103,,,10,,,,,,,,,,,,,,
dig,191,625958,0.0-56.0-3.0,,,,,,,,,,,"[{""stimulus"":""run_exp/static/images/task_images/dig.jpg"",""time"":0.3999999985098839},{""stimulus"":""run_exp/static/images/task_images/land.jpg"",""time"":672.2999999970198},{""stimulus"":""run_exp/static/images/task_images/dig.jpg"",""time"":1340.5}]",[],10,,,,,,,,,,,,,,
harvest,192,626961,0.0-56.0-4.0,,null,run_exp/static/images/task_images/gems/103.jpg,null,,,,,,24,,,10,,,,,103,0.229603073,0.233009709,,,,,,,
decision,193,627767,0.0-56.0-5.0,,804.1,run_exp/static/images/task_images/land.jpg,65,,,,,,24,,,10,,,,,,,,272278,1,0,FALSE,,,
dig,194,629969,0.0-57.0-0.0,,,,,,,,,,,"[{""stimulus"":""run_exp/static/images/task_images/dig.jpg"",""time"":0.3999999985098839},{""stimulus"":""run_exp/static/images/task_images/land.jpg"",""time"":732.1999999992549},{""stimulus"":""run_exp/static/images/task_images/dig.jpg"",""time"":1468.3999999985099}]",[],10,,,,,,,,,,,,,,
harvest,195,630975,0.0-57.0-1.0,,null,run_exp/static/images/task_images/gems/24.jpg,null,,,,,,6,,,10,,,,,24,0.263130212,0.25,,,,,,,
decision,196,631624,0.0-57.0-2.0,,647.6,run_exp/static/images/task_images/land.jpg,76,,,,,,6,,,10,,,,,,,,276136,1,1,TRUE,,,
travel,197,640984,0.0-58.0-0.0,,,,,,,,,,,"[{""stimulus"":""run_exp/static/images/task_images/rocket-01.jpg"",""time"":0.09999999776482582},{""stimulus"":""run_exp/static/images/task_images/rocket-02.jpg"",""time"":1041.3999999985099},{""stimulus"":""run_exp/static/images/task_images/rocket-03.jpg"",""time"":2082.699999999255},{""stimulus"":""run_exp/static/images/task_images/rocket-04.jpg"",""time"":3118.599999997765},{""stimulus"":""run_exp/static/images/task_images/rocket-05.jpg"",""time"":4160.39999999851},{""stimulus"":""run_exp/static/images/task_images/rocket-06.jpg"",""time"":5196.599999997765},{""stimulus"":""run_exp/static/images/task_images/rocket-07.jpg"",""time"":6235.5},{""stimulus"":""run_exp/static/images/task_images/rocket-08.jpg"",""time"":7276.39999999851},{""stimulus"":""run_exp/static/images/task_images/rocket-09.jpg"",""time"":8313.39999999851}]",[],10,,,,,,,,,,,,,,
alien_welcome,198,645988,0.0-58.0-1.0,,null,run_exp/static/images/task_images/aliens/old_aliens/planet/alien_planet-18.jpg,null,,,,,,,,,,,,18,"5,19,64,58,55,33,45,62,75,16,18,65,73,28,3,34,69,48,37,29,74,49,51,32,60,21,56,42,1,63,59,72,23,76,4,17,47,27,77,46,39",,,,,,,,,,
land,199,646494,0.0-58.0-2.0,,null,run_exp/static/images/task_images/land.jpg,null,,,,,,97,,,11,,,,,,,,,,,,,,
dig,200,648501,0.0-58.0-3.0,,,,,,,,,,,"[{""stimulus"":""run_exp/static/images/task_images/dig.jpg"",""time"":0.3999999985098839},{""stimulus"":""run_exp/static/images/task_images/land.jpg"",""time"":668.8000000007451},{""stimulus"":""run_exp/static/images/task_images/dig.jpg"",""time"":1337.8999999985099}]",[],11,,,,,,,,,,,,,,
harvest,201,649506,0.0-58.0-4.0,,null,run_exp/static/images/task_images/gems/97.jpg,null,,,,,,23,,,11,,,,,97,0.236128266,0.237113402,,,,,,,
decision,202,649831,0.0-58.0-5.0,,323.7,run_exp/static/images/task_images/land.jpg,65,,,,,,23,,,11,,,,,,,,294342,1,0,FALSE,,,
dig,203,652513,0.0-59.0-0.0,,,,,,,,,,,"[{""stimulus"":""run_exp/static/images/task_images/dig.jpg"",""time"":0.19999999925494194},{""stimulus"":""run_exp/static/images/task_images/land.jpg"",""time"":893.3999999985099},{""stimulus"":""run_exp/static/images/task_images/dig.jpg"",""time"":1787.1000000014901}]",[],11,,,,,,,,,,,,,,
harvest,204,653516,0.0-59.0-1.0,,null,run_exp/static/images/task_images/gems/23.jpg,null,,,,,,4,,,11,,,,,23,0.192308125,0.173913043,,,,,,,
decision,205,653918,0.0-59.0-2.0,,400.4,run_exp/static/images/task_images/land.jpg,76,,,,,,4,,,11,,,,,,,,298429,1,1,TRUE,,,
travel,206,663522,0.0-60.0-0.0,,,,,,,,,,,"[{""stimulus"":""run_exp/static/images/task_images/rocket-01.jpg"",""time"":0.30000000074505806},{""stimulus"":""run_exp/static/images/task_images/rocket-02.jpg"",""time"":1071.5},{""stimulus"":""run_exp/static/images/task_images/rocket-03.jpg"",""time"":2138.10000000149},{""stimulus"":""run_exp/static/images/task_images/rocket-04.jpg"",""time"":3200.800000000745},{""stimulus"":""run_exp/static/images/task_images/rocket-05.jpg"",""time"":4265.10000000149},{""stimulus"":""run_exp/static/images/task_images/rocket-06.jpg"",""time"":5336.39999999851},{""stimulus"":""run_exp/static/images/task_images/rocket-07.jpg"",""time"":6397.39999999851},{""stimulus"":""run_exp/static/images/task_images/rocket-08.jpg"",""time"":7468.300000000745},{""stimulus"":""run_exp/static/images/task_images/rocket-09.jpg"",""time"":8533.300000000745}]",[],11,,,,,,,,,,,,,,
alien_welcome,207,668525,0.0-60.0-1.0,,null,run_exp/static/images/task_images/aliens/old_aliens/planet/alien_planet-65.jpg,null,,,,,,,,,,,,65,"5,19,64,58,55,33,45,62,75,16,18,65,73,28,3,34,69,48,37,29,74,49,51,32,60,21,56,42,1,63,59,72,23,76,4,17,47,27,77,46,39",,,,,,,,,,
land,208,669028,0.0-60.0-2.0,,null,run_exp/static/images/task_images/land.jpg,null,,,,,,99,,,12,,,,,,,,,,,,,,
dig,209,671036,0.0-60.0-3.0,,,,,,,,,,,"[{""stimulus"":""run_exp/static/images/task_images/dig.jpg"",""time"":0.6999999992549419},{""stimulus"":""run_exp/static/images/task_images/land.jpg"",""time"":674},{""stimulus"":""run_exp/static/images/task_images/dig.jpg"",""time"":1336.199999999255}]",[],12,,,,,,,,,,,,,,
harvest,210,672039,0.0-60.0-4.0,,null,run_exp/static/images/task_images/gems/99.jpg,null,,,,,,28,,,12,,,,,99,0.279813471,0.282828283,,,,,,,
decision,211,672407,0.0-60.0-5.0,,366.1,run_exp/static/images/task_images/land.jpg,65,,,,,,28,,,12,,,,,,,,316918,1,0,TRUE,,,
end_of_block_continue,212,681448,0.0-61.0-0.0,,null,run_exp/static/audio/clip_32_block_end.m4a,,,,,,null,,,,,,,,,,,,,,,,,,
alien_welcome,213,686473,0.0-62.0-0.0,,null,run_exp/static/images/task_images/aliens/old_aliens/planet/alien_planet-73.jpg,null,,,,,,,,,,,,73,"5,19,64,58,55,33,45,62,75,16,18,65,73,28,3,34,69,48,37,29,74,49,51,32,60,21,56,42,1,63,59,72,23,76,4,17,47,27,77,46,39",,,,,,,,,,
land,214,686976,0.0-62.0-1.0,,null,run_exp/static/images/task_images/land.jpg,null,,,,,,93,,,13,,,,,,,,,,,,,,
dig,215,688983,0.0-62.0-2.0,,,,,,,,,,,"[{""stimulus"":""run_exp/static/images/task_images/dig.jpg"",""time"":0.5},{""stimulus"":""run_exp/static/images/task_images/land.jpg"",""time"":670.1999999992549},{""stimulus"":""run_exp/static/images/task_images/dig.jpg"",""time"":1339}]",[],13,,,,,,,,,,,,,,
harvest,216,689988,0.0-62.0-3.0,,null,run_exp/static/images/task_images/gems/93.jpg,null,,,,,,19,,,13,,,,,93,0.202871677,0.204301075,,,,,,,
decision,217,690160,0.0-62.0-4.0,,171.1,run_exp/static/images/task_images/land.jpg,65,,,,,,19,,,13,,,,,,,,8689,2,0,FALSE,,,
dig,218,692990,0.0-63.0-0.0,,,,,,,,,,,"[{""stimulus"":""run_exp/static/images/task_images/dig.jpg"",""time"":0.19999999925494194},{""stimulus"":""run_exp/static/images/task_images/land.jpg"",""time"":948.1999999992549},{""stimulus"":""run_exp/static/images/task_images/dig.jpg"",""time"":1889.5}]",[],13,,,,,,,,,,,,,,
harvest,219,693996,0.0-63.0-1.0,,null,run_exp/static/images/task_images/gems/19.jpg,null,,,,,,2,,,13,,,,,19,0.125769945,0.105263158,,,,,,,
decision,220,694117,0.0-63.0-2.0,,119.8,run_exp/static/images/task_images/land.jpg,76,,,,,,2,,,13,,,,,,,,12646,2,1,TRUE,,,
travel,221,703998,0.0-64.0-0.0,,,,,,,,,,,"[{""stimulus"":""run_exp/static/images/task_images/rocket-01.jpg"",""time"":0.19999999925494194},{""stimulus"":""run_exp/static/images/task_images/rocket-02.jpg"",""time"":1100.5999999977648},{""stimulus"":""run_exp/static/images/task_images/rocket-03.jpg"",""time"":2197.199999999255},{""stimulus"":""run_exp/static/images/task_images/rocket-04.jpg"",""time"":3292.699999999255},{""stimulus"":""run_exp/static/images/task_images/rocket-05.jpg"",""time"":4389.099999997765},{""stimulus"":""run_exp/static/images/task_images/rocket-06.jpg"",""time"":5487.800000000745},{""stimulus"":""run_exp/static/images/task_images/rocket-07.jpg"",""time"":6588.39999999851},{""stimulus"":""run_exp/static/images/task_images/rocket-08.jpg"",""time"":7683},{""stimulus"":""run_exp/static/images/task_images/rocket-09.jpg"",""time"":8778.099999997765}]",[],13,,,,,,,,,,,,,,
alien_welcome,222,709001,0.0-64.0-1.0,,null,run_exp/static/images/task_images/aliens/old_aliens/planet/alien_planet-28.jpg,null,,,,,,,,,,,,28,"5,19,64,58,55,33,45,62,75,16,18,65,73,28,3,34,69,48,37,29,74,49,51,32,60,21,56,42,1,63,59,72,23,76,4,17,47,27,77,46,39",,,,,,,,,,
land,223,709505,0.0-64.0-2.0,,null,run_exp/static/images/task_images/land.jpg,null,,,,,,102,,,14,,,,,,,,,,,,,,
dig,224,711514,0.0-64.0-3.0,,,,,,,,,,,"[{""stimulus"":""run_exp/static/images/task_images/dig.jpg"",""time"":0.3999999985098839},{""stimulus"":""run_exp/static/images/task_images/land.jpg"",""time"":673.5999999977648},{""stimulus"":""run_exp/static/images/task_images/dig.jpg"",""time"":1337.5}]",[],14,,,,,,,,,,,,,,
harvest,225,712521,0.0-64.0-4.0,,null,run_exp/static/images/task_images/gems/102.jpg,null,,,,,,14,,,14,,,,,102,0.13657439,0.137254902,,,,,,,
decision,226,713106,0.0-64.0-5.0,,583.2,run_exp/static/images/task_images/land.jpg,65,,,,,,14,,,14,,,,,,,,31635,2,0,FALSE,,,
dig,227,715527,0.0-65.0-0.0,,,,,,,,,,,"[{""stimulus"":""run_exp/static/images/task_images/dig.jpg"",""time"":0.19999999925494194},{""stimulus"":""run_exp/static/images/task_images/land.jpg"",""time"":809},{""stimulus"":""run_exp/static/images/task_images/dig.jpg"",""time"":1616.300000000745}]",[],14,,,,,,,,,,,,,,
harvest,228,716532,0.0-65.0-1.0,,null,run_exp/static/images/task_images/gems/14.jpg,null,,,,,,4,,,14,,,,,14,0.266176922,0.285714286,,,,,,,
decision,229,716713,0.0-65.0-2.0,,180,run_exp/static/images/task_images/land.jpg,76,,,,,,4,,,14,,,,,,,,35242,2,1,TRUE,,,
travel,230,726538,0.0-66.0-0.0,,,,,,,,,,,"[{""stimulus"":""run_exp/static/images/task_images/rocket-01.jpg"",""time"":0.19999999925494194},{""stimulus"":""run_exp/static/images/task_images/rocket-02.jpg"",""time"":1097.1000000014901},{""stimulus"":""run_exp/static/images/task_images/rocket-03.jpg"",""time"":2188.300000000745},{""stimulus"":""run_exp/static/images/task_images/rocket-04.jpg"",""time"":3279.199999999255},{""stimulus"":""run_exp/static/images/task_images/rocket-05.jpg"",""time"":4368},{""stimulus"":""run_exp/static/images/task_images/rocket-06.jpg"",""time"":5456},{""stimulus"":""run_exp/static/images/task_images/rocket-07.jpg"",""time"":6552.199999999255},{""stimulus"":""run_exp/static/images/task_images/rocket-08.jpg"",""time"":7640},{""stimulus"":""run_exp/static/images/task_images/rocket-09.jpg"",""time"":8729.199999999255}]",[],14,,,,,,,,,,,,,,
alien_welcome,231,731546,0.0-66.0-1.0,,null,run_exp/static/images/task_images/aliens/old_aliens/planet/alien_planet-3.jpg,null,,,,,,,,,,,,3,"5,19,64,58,55,33,45,62,75,16,18,65,73,28,3,34,69,48,37,29,74,49,51,32,60,21,56,42,1,63,59,72,23,76,4,17,47,27,77,46,39",,,,,,,,,,
land,232,732048,0.0-66.0-2.0,,null,run_exp/static/images/task_images/land.jpg,null,,,,,,87,,,15,,,,,,,,,,,,,,
dig,233,734057,0.0-66.0-3.0,,,,,,,,,,,"[{""stimulus"":""run_exp/static/images/task_images/dig.jpg"",""time"":0.30000000074505806},{""stimulus"":""run_exp/static/images/task_images/land.jpg"",""time"":669.4000000022352},{""stimulus"":""run_exp/static/images/task_images/dig.jpg"",""time"":1340.5}]",[],15,,,,,,,,,,,,,,
harvest,234,735059,0.0-66.0-4.0,,null,run_exp/static/images/task_images/gems/87.jpg,null,,,,,,18,,,15,,,,,87,0.211831106,0.206896552,,,,,,,
decision,235,736117,0.0-66.0-5.0,,1055.6,run_exp/static/images/task_images/land.jpg,65,,,,,,18,,,15,,,,,,,,54646,2,0,FALSE,,,
dig,236,738067,0.0-67.0-0.0,,,,,,,,,,,"[{""stimulus"":""run_exp/static/images/task_images/dig.jpg"",""time"":0.30000000074505806},{""stimulus"":""run_exp/static/images/task_images/land.jpg"",""time"":654.3000000007451},{""stimulus"":""run_exp/static/images/task_images/dig.jpg"",""time"":1297.5}]",[],15,,,,,,,,,,,,,,
harvest,237,739070,0.0-67.0-1.0,,null,run_exp/static/images/task_images/gems/18.jpg,null,,,,,,2,,,15,,,,,18,0.131613545,0.111111111,,,,,,,
decision,238,739081,0.0-67.0-2.0,,9.600000001,run_exp/static/images/task_images/land.jpg,76,,,,,,2,,,15,,,,,,,,57611,2,1,TRUE,,,
travel,239,749079,0.0-68.0-0.0,,,,,,,,,,,"[{""stimulus"":""run_exp/static/images/task_images/rocket-01.jpg"",""time"":0.30000000074505806},{""stimulus"":""run_exp/static/images/task_images/rocket-02.jpg"",""time"":1112.3999999985099},{""stimulus"":""run_exp/static/images/task_images/rocket-03.jpg"",""time"":2223.800000000745},{""stimulus"":""run_exp/static/images/task_images/rocket-04.jpg"",""time"":3333.39999999851},{""stimulus"":""run_exp/static/images/task_images/rocket-05.jpg"",""time"":4442.800000000745},{""stimulus"":""run_exp/static/images/task_images/rocket-06.jpg"",""time"":5552.099999997765},{""stimulus"":""run_exp/static/images/task_images/rocket-07.jpg"",""time"":6662},{""stimulus"":""run_exp/static/images/task_images/rocket-08.jpg"",""time"":7772.099999997765},{""stimulus"":""run_exp/static/images/task_images/rocket-09.jpg"",""time"":8881.599999997765}]",[],15,,,,,,,,,,,,,,
alien_welcome,240,754082,0.0-68.0-1.0,,null,run_exp/static/images/task_images/aliens/old_aliens/planet/alien_planet-34.jpg,null,,,,,,,,,,,,34,"5,19,64,58,55,33,45,62,75,16,18,65,73,28,3,34,69,48,37,29,74,49,51,32,60,21,56,42,1,63,59,72,23,76,4,17,47,27,77,46,39",,,,,,,,,,
land,241,754589,0.0-68.0-2.0,,null,run_exp/static/images/task_images/land.jpg,null,,,,,,102,,,16,,,,,,,,,,,,,,
dig,242,756596,0.0-68.0-3.0,,,,,,,,,,,"[{""stimulus"":""run_exp/static/images/task_images/dig.jpg"",""time"":0.4000000022351742},{""stimulus"":""run_exp/static/images/task_images/land.jpg"",""time"":670.2000000029802},{""stimulus"":""run_exp/static/images/task_images/dig.jpg"",""time"":1335.2000000029802}]",[],16,,,,,,,,,,,,,,
harvest,243,757598,0.0-68.0-4.0,,null,run_exp/static/images/task_images/gems/102.jpg,null,,,,,,69,,,16,,,,,102,0.677703206,0.676470588,,,,,,,
decision,244,758654,0.0-68.0-5.0,,1054.8,run_exp/static/images/task_images/land.jpg,65,,,,,,69,,,16,,,,,,,,77183,2,0,FALSE,,,
dig,245,760604,0.0-69.0-0.0,,,,,,,,,,,"[{""stimulus"":""run_exp/static/images/task_images/dig.jpg"",""time"":0.30000000074505806},{""stimulus"":""run_exp/static/images/task_images/land.jpg"",""time"":651.9000000022352},{""stimulus"":""run_exp/static/images/task_images/dig.jpg"",""time"":1297.7000000029802}]",[],16,,,,,,,,,,,,,,
harvest,246,761606,0.0-69.0-1.0,,null,run_exp/static/images/task_images/gems/69.jpg,null,,,,,,53,,,16,,,,,69,0.766132394,0.768115942,,,,,,,
decision,247,762087,0.0-69.0-2.0,,478.8,run_exp/static/images/task_images/land.jpg,65,,,,,,53,,,16,,,,,,,,80616,2,1,FALSE,,,
dig,248,764613,0.0-70.0-0.0,,,,,,,,,,,"[{""stimulus"":""run_exp/static/images/task_images/dig.jpg"",""time"":0.30000000074505806},{""stimulus"":""run_exp/static/images/task_images/land.jpg"",""time"":843.7000000029802},{""stimulus"":""run_exp/static/images/task_images/dig.jpg"",""time"":1681.6000000014901}]",[],16,,,,,,,,,,,,,,
harvest,249,765620,0.0-70.0-1.0,,null,run_exp/static/images/task_images/gems/53.jpg,null,,,,,,41,,,16,,,,,53,0.776878658,0.773584906,,,,,,,
decision,250,765824,0.0-70.0-2.0,,202.1,run_exp/static/images/task_images/land.jpg,65,,,,,,41,,,16,,,,,,,,84353,2,2,FALSE,,,
dig,251,768626,0.0-71.0-0.0,,,,,,,,,,,"[{""stimulus"":""run_exp/static/images/task_images/dig.jpg"",""time"":0.19999999925494194},{""stimulus"":""run_exp/static/images/task_images/land.jpg"",""time"":933.8000000007451},{""stimulus"":""run_exp/static/images/task_images/dig.jpg"",""time"":1870.800000000745}]",[],16,,,,,,,,,,,,,,
harvest,252,769632,0.0-71.0-1.0,,null,run_exp/static/images/task_images/gems/41.jpg,null,,,,,,33,,,16,,,,,41,0.812629887,0.804878049,,,,,,,
decision,253,769686,0.0-71.0-2.0,,52.4,run_exp/static/images/task_images/land.jpg,65,,,,,,33,,,16,,,,,,,,88215,2,3,FALSE,,,
dig,254,772639,0.0-72.0-0.0,,,,,,,,,,,"[{""stimulus"":""run_exp/static/images/task_images/dig.jpg"",""time"":0.19999999925494194},{""stimulus"":""run_exp/static/images/task_images/land.jpg"",""time"":983.1999999992549},{""stimulus"":""run_exp/static/images/task_images/dig.jpg"",""time"":1969.3999999985099}]",[],16,,,,,,,,,,,,,,
harvest,255,773646,0.0-72.0-1.0,,null,run_exp/static/images/task_images/gems/33.jpg,null,,,,,,26,,,16,,,,,33,0.802024057,0.787878788,,,,,,,
decision,256,774671,0.0-72.0-2.0,,1023.5,run_exp/static/images/task_images/land.jpg,76,,,,,,26,,,16,,,,,,,,93200,2,4,TRUE,,,
travel,257,783651,0.0-73.0-0.0,,,,,,,,,,,"[{""stimulus"":""run_exp/static/images/task_images/rocket-01.jpg"",""time"":0.4000000022351742},{""stimulus"":""run_exp/static/images/task_images/rocket-02.jpg"",""time"":999.3000000007451},{""stimulus"":""run_exp/static/images/task_images/rocket-03.jpg"",""time"":1996.300000000745},{""stimulus"":""run_exp/static/images/task_images/rocket-04.jpg"",""time"":2997.5},{""stimulus"":""run_exp/static/images/task_images/rocket-05.jpg"",""time"":3990.2000000029802},{""stimulus"":""run_exp/static/images/task_images/rocket-06.jpg"",""time"":4986.900000002235},{""stimulus"":""run_exp/static/images/task_images/rocket-07.jpg"",""time"":5988.5},{""stimulus"":""run_exp/static/images/task_images/rocket-08.jpg"",""time"":6985.10000000149},{""stimulus"":""run_exp/static/images/task_images/rocket-09.jpg"",""time"":7977.5}]",[],16,,,,,,,,,,,,,,
alien_welcome,258,788658,0.0-73.0-1.0,,null,run_exp/static/images/task_images/aliens/old_aliens/planet/alien_planet-69.jpg,null,,,,,,,,,,,,69,"5,19,64,58,55,33,45,62,75,16,18,65,73,28,3,34,69,48,37,29,74,49,51,32,60,21,56,42,1,63,59,72,23,76,4,17,47,27,77,46,39",,,,,,,,,,
land,259,789161,0.0-73.0-2.0,,null,run_exp/static/images/task_images/land.jpg,null,,,,,,105,,,17,,,,,,,,,,,,,,
dig,260,791168,0.0-73.0-3.0,,,,,,,,,,,"[{""stimulus"":""run_exp/static/images/task_images/dig.jpg"",""time"":0.3999999985098839},{""stimulus"":""run_exp/static/images/task_images/land.jpg"",""time"":670},{""stimulus"":""run_exp/static/images/task_images/dig.jpg"",""time"":1338.699999999255}]",[],17,,,,,,,,,,,,,,
harvest,261,792170,0.0-73.0-4.0,,null,run_exp/static/images/task_images/gems/105.jpg,null,,,,,,68,,,17,,,,,105,0.643113465,0.647619048,,,,,,,
decision,262,792688,0.0-73.0-5.0,,517.1,run_exp/static/images/task_images/land.jpg,65,,,,,,68,,,17,,,,,,,,111217,2,0,FALSE,,,
dig,263,795177,0.0-74.0-0.0,,,,,,,,,,,"[{""stimulus"":""run_exp/static/images/task_images/dig.jpg"",""time"":0},{""stimulus"":""run_exp/static/images/task_images/land.jpg"",""time"":829.2999999970198},{""stimulus"":""run_exp/static/images/task_images/dig.jpg"",""time"":1658.8999999985099}]",[],17,,,,,,,,,,,,,,
harvest,264,796181,0.0-74.0-1.0,,null,run_exp/static/images/task_images/gems/68.jpg,null,,,,,,61,,,17,,,,,68,0.902041652,0.897058824,,,,,,,
decision,265,797301,0.0-74.0-2.0,,1118,run_exp/static/images/task_images/land.jpg,65,,,,,,61,,,17,,,,,,,,115830,2,1,FALSE,,,
dig,266,799188,0.0-75.0-0.0,,,,,,,,,,,"[{""stimulus"":""run_exp/static/images/task_images/dig.jpg"",""time"":0.19999999925494194},{""stimulus"":""run_exp/static/images/task_images/land.jpg"",""time"":633.3000000007451},{""stimulus"":""run_exp/static/images/task_images/dig.jpg"",""time"":1258.1000000014901}]",[],17,,,,,,,,,,,,,,
harvest,267,800190,0.0-75.0-1.0,,null,run_exp/static/images/task_images/gems/61.jpg,null,,,,,,54,,,17,,,,,61,0.889154069,0.885245902,,,,,,,
decision,268,801448,0.0-75.0-2.0,,1256.4,run_exp/static/images/task_images/land.jpg,65,,,,,,54,,,17,,,,,,,,119977,2,2,FALSE,,,
dig,269,803199,0.0-76.0-0.0,,,,,,,,,,,"[{""stimulus"":""run_exp/static/images/task_images/dig.jpg"",""time"":0.20000000298023224},{""stimulus"":""run_exp/static/images/task_images/land.jpg"",""time"":584.4000000022352},{""stimulus"":""run_exp/static/images/task_images/dig.jpg"",""time"":1164.9000000022352}]",[],17,,,,,,,,,,,,,,
harvest,270,804202,0.0-76.0-1.0,,null,run_exp/static/images/task_images/gems/54.jpg,null,,,,,,44,,,17,,,,,54,0.818146864,0.814814815,,,,,,,
decision,271,804641,0.0-76.0-2.0,,437.9,run_exp/static/images/task_images/land.jpg,65,,,,,,44,,,17,,,,,,,,123170,2,3,FALSE,,,
dig,272,807214,0.0-77.0-0.0,,,,,,,,,,,"[{""stimulus"":""run_exp/static/images/task_images/dig.jpg"",""time"":0.3999999985098839},{""stimulus"":""run_exp/static/images/task_images/land.jpg"",""time"":855.7999999970198},{""stimulus"":""run_exp/static/images/task_images/dig.jpg"",""time"":1710}]",[],17,,,,,,,,,,,,,,
harvest,273,808217,0.0-77.0-1.0,,null,run_exp/static/images/task_images/gems/44.jpg,null,,,,,,31,,,17,,,,,44,0.702945145,0.704545455,,,,,,,
decision,274,808372,0.0-77.0-2.0,,152.5,run_exp/static/images/task_images/land.jpg,65,,,,,,31,,,17,,,,,,,,126901,2,4,FALSE,,,
dig,275,811224,0.0-78.0-0.0,,,,,,,,,,,"[{""stimulus"":""run_exp/static/images/task_images/dig.jpg"",""time"":0.19999999925494194},{""stimulus"":""run_exp/static/images/task_images/land.jpg"",""time"":955.5},{""stimulus"":""run_exp/static/images/task_images/dig.jpg"",""time"":1900.6000000014901}]",[],17,,,,,,,,,,,,,,
harvest,276,812231,0.0-78.0-1.0,,null,run_exp/static/images/task_images/gems/31.jpg,null,,,,,,23,,,17,,,,,31,0.757084987,0.741935484,,,,,,,
decision,277,812974,0.0-78.0-2.0,,741.6,run_exp/static/images/task_images/land.jpg,65,,,,,,23,,,17,,,,,,,,131503,2,5,FALSE,,,
dig,278,815237,0.0-79.0-0.0,,,,,,,,,,,"[{""stimulus"":""run_exp/static/images/task_images/dig.jpg"",""time"":0.19999999925494194},{""stimulus"":""run_exp/static/images/task_images/land.jpg"",""time"":758.0999999977648},{""stimulus"":""run_exp/static/images/task_images/dig.jpg"",""time"":1507.0999999977648}]",[],17,,,,,,,,,,,,,,
harvest,279,816239,0.0-79.0-1.0,,null,run_exp/static/images/task_images/gems/23.jpg,null,,,,,,20,,,17,,,,,23,0.891146925,0.869565217,,,,,,,
decision,280,817668,0.0-79.0-2.0,,1426.9,run_exp/static/images/task_images/land.jpg,76,,,,,,20,,,17,,,,,,,,136197,2,6,TRUE,,,
travel,281,826243,0.0-80.0-0.0,,,,,,,,,,,"[{""stimulus"":""run_exp/static/images/task_images/rocket-01.jpg"",""time"":0.19999999925494194},{""stimulus"":""run_exp/static/images/task_images/rocket-02.jpg"",""time"":957},{""stimulus"":""run_exp/static/images/task_images/rocket-03.jpg"",""time"":1907.9000000022352},{""stimulus"":""run_exp/static/images/task_images/rocket-04.jpg"",""time"":2861.699999999255},{""stimulus"":""run_exp/static/images/task_images/rocket-05.jpg"",""time"":3810},{""stimulus"":""run_exp/static/images/task_images/rocket-06.jpg"",""time"":4762.300000000745},{""stimulus"":""run_exp/static/images/task_images/rocket-07.jpg"",""time"":5714.10000000149},{""stimulus"":""run_exp/static/images/task_images/rocket-08.jpg"",""time"":6668.900000002235},{""stimulus"":""run_exp/static/images/task_images/rocket-09.jpg"",""time"":7618}]",[],17,,,,,,,,,,,,,,
alien_welcome,282,831250,0.0-80.0-1.0,,null,run_exp/static/images/task_images/aliens/old_aliens/planet/alien_planet-48.jpg,null,,,,,,,,,,,,48,"5,19,64,58,55,33,45,62,75,16,18,65,73,28,3,34,69,48,37,29,74,49,51,32,60,21,56,42,1,63,59,72,23,76,4,17,47,27,77,46,39",,,,,,,,,,
land,283,831757,0.0-80.0-2.0,,null,run_exp/static/images/task_images/land.jpg,null,,,,,,101,,,18,,,,,,,,,,,,,,
dig,284,833765,0.0-80.0-3.0,,,,,,,,,,,"[{""stimulus"":""run_exp/static/images/task_images/dig.jpg"",""time"":0.4000000022351742},{""stimulus"":""run_exp/static/images/task_images/land.jpg"",""time"":668.5},{""stimulus"":""run_exp/static/images/task_images/dig.jpg"",""time"":1339.199999999255}]",[],18,,,,,,,,,,,,,,
harvest,285,834772,0.0-80.0-4.0,,null,run_exp/static/images/task_images/gems/101.jpg,null,,,,,,74,,,18,,,,,101,0.734808967,0.732673267,,,,,,,
decision,286,835233,0.0-80.0-5.0,,460.1,run_exp/static/images/task_images/land.jpg,65,,,,,,74,,,18,,,,,,,,153763,2,0,FALSE,,,
dig,287,837781,0.0-81.0-0.0,,,,,,,,,,,"[{""stimulus"":""run_exp/static/images/task_images/dig.jpg"",""time"":0.19999999925494194},{""stimulus"":""run_exp/static/images/task_images/land.jpg"",""time"":852.2999999970198},{""stimulus"":""run_exp/static/images/task_images/dig.jpg"",""time"":1694.0999999977648}]",[],18,,,,,,,,,,,,,,
harvest,288,838784,0.0-81.0-1.0,,null,run_exp/static/images/task_images/gems/74.jpg,null,,,,,,62,,,18,,,,,74,0.83285704,0.837837838,,,,,,,
decision,289,840045,0.0-81.0-2.0,,1258.7,run_exp/static/images/task_images/land.jpg,65,,,,,,62,,,18,,,,,,,,158574,2,1,FALSE,,,
dig,290,841791,0.0-82.0-0.0,,,,,,,,,,,"[{""stimulus"":""run_exp/static/images/task_images/dig.jpg"",""time"":0.10000000149011612},{""stimulus"":""run_exp/static/images/task_images/land.jpg"",""time"":581.7000000029802},{""stimulus"":""run_exp/static/images/task_images/dig.jpg"",""time"":1162.800000000745}]",[],18,,,,,,,,,,,,,,
harvest,291,842794,0.0-82.0-1.0,,null,run_exp/static/images/task_images/gems/62.jpg,null,,,,,,43,,,18,,,,,62,0.698964957,0.693548387,,,,,,,
decision,292,843844,0.0-82.0-2.0,,1047.6,run_exp/static/images/task_images/land.jpg,65,,,,,,43,,,18,,,,,,,,162373,2,2,FALSE,,,
dig,293,845800,0.0-83.0-0.0,,,,,,,,,,,"[{""stimulus"":""run_exp/static/images/task_images/dig.jpg"",""time"":0.19999999925494194},{""stimulus"":""run_exp/static/images/task_images/land.jpg"",""time"":653.6999999992549},{""stimulus"":""run_exp/static/images/task_images/dig.jpg"",""time"":1303.5}]",[],18,,,,,,,,,,,,,,
harvest,294,846801,0.0-83.0-1.0,,null,run_exp/static/images/task_images/gems/43.jpg,null,,,,,,36,,,18,,,,,43,0.834327361,0.837209302,,,,,,,
decision,295,848390,0.0-83.0-2.0,,1586.6,run_exp/static/images/task_images/land.jpg,65,,,,,,36,,,18,,,,,,,,166919,2,3,FALSE,,,
dig,296,849808,0.0-84.0-0.0,,,,,,,,,,,"[{""stimulus"":""run_exp/static/images/task_images/dig.jpg"",""time"":0.19999999925494194},{""stimulus"":""run_exp/static/images/task_images/land.jpg"",""time"":472.5},{""stimulus"":""run_exp/static/images/task_images/dig.jpg"",""time"":948.3000000007451}]",[],18,,,,,,,,,,,,,,
harvest,297,850816,0.0-84.0-1.0,,null,run_exp/static/images/task_images/gems/36.jpg,null,,,,,,26,,,18,,,,,36,0.710719524,0.722222222,,,,,,,
decision,298,850937,0.0-84.0-2.0,,119.1,run_exp/static/images/task_images/land.jpg,65,,,,,,26,,,18,,,,,,,,169466,2,4,FALSE,,,
dig,299,853825,0.0-85.0-0.0,,,,,,,,,,,"[{""stimulus"":""run_exp/static/images/task_images/dig.jpg"",""time"":0.7000000029802322},{""stimulus"":""run_exp/static/images/task_images/land.jpg"",""time"":961.7000000029802},{""stimulus"":""run_exp/static/images/task_images/dig.jpg"",""time"":1921.7000000029802}]",[],18,,,,,,,,,,,,,,
harvest,300,854829,0.0-85.0-1.0,,null,run_exp/static/images/task_images/gems/26.jpg,null,,,,,,21,,,18,,,,,26,0.795625516,0.807692308,,,,,,,
decision,301,856944,0.0-85.0-2.0,,2112,run_exp/static/images/task_images/land.jpg,76,,,,,,21,,,18,,,,,,,,175474,2,5,TRUE,,,
travel,302,864843,0.0-86.0-0.0,,,,,,,,,,,"[{""stimulus"":""run_exp/static/images/task_images/rocket-01.jpg"",""time"":0.19999999925494194},{""stimulus"":""run_exp/static/images/task_images/rocket-02.jpg"",""time"":882.1999999992549},{""stimulus"":""run_exp/static/images/task_images/rocket-03.jpg"",""time"":1755.300000000745},{""stimulus"":""run_exp/static/images/task_images/rocket-04.jpg"",""time"":2629.599999997765},{""stimulus"":""run_exp/static/images/task_images/rocket-05.jpg"",""time"":3510.300000000745},{""stimulus"":""run_exp/static/images/task_images/rocket-06.jpg"",""time"":4385},{""stimulus"":""run_exp/static/images/task_images/rocket-07.jpg"",""time"":5259.599999997765},{""stimulus"":""run_exp/static/images/task_images/rocket-08.jpg"",""time"":6134.300000000745},{""stimulus"":""run_exp/static/images/task_images/rocket-09.jpg"",""time"":7009.099999997765}]",[],18,,,,,,,,,,,,,,
alien_welcome,303,869847,0.0-86.0-1.0,,null,run_exp/static/images/task_images/aliens/old_aliens/planet/alien_planet-37.jpg,null,,,,,,,,,,,,37,"5,19,64,58,55,33,45,62,75,16,18,65,73,28,3,34,69,48,37,29,74,49,51,32,60,21,56,42,1,63,59,72,23,76,4,17,47,27,77,46,39",,,,,,,,,,
land,304,870353,0.0-86.0-2.0,,null,run_exp/static/images/task_images/land.jpg,null,,,,,,99,,,19,,,,,,,,,,,,,,
dig,305,872356,0.0-86.0-3.0,,,,,,,,,,,"[{""stimulus"":""run_exp/static/images/task_images/dig.jpg"",""time"":0.19999999925494194},{""stimulus"":""run_exp/static/images/task_images/land.jpg"",""time"":668.3000000007451},{""stimulus"":""run_exp/static/images/task_images/dig.jpg"",""time"":1337.1000000014901}]",[],19,,,,,,,,,,,,,,
harvest,306,873357,0.0-86.0-4.0,,null,run_exp/static/images/task_images/gems/99.jpg,null,,,,,,74,,,19,,,,,99,0.74256013,0.747474747,,,,,,,
decision,307,874210,0.0-86.0-5.0,,851,run_exp/static/images/task_images/land.jpg,65,,,,,,74,,,19,,,,,,,,192739,2,0,FALSE,,,
dig,308,876364,0.0-87.0-0.0,,,,,,,,,,,"[{""stimulus"":""run_exp/static/images/task_images/dig.jpg"",""time"":0.19999999925494194},{""stimulus"":""run_exp/static/images/task_images/land.jpg"",""time"":722.3000000007451},{""stimulus"":""run_exp/static/images/task_images/dig.jpg"",""time"":1435.300000000745}]",[],19,,,,,,,,,,,,,,
harvest,309,877371,0.0-87.0-1.0,,null,run_exp/static/images/task_images/gems/74.jpg,null,,,,,,60,,,19,,,,,74,0.808328683,0.810810811,,,,,,,
decision,310,877759,0.0-87.0-2.0,,386.7,run_exp/static/images/task_images/land.jpg,65,,,,,,60,,,19,,,,,,,,196288,2,1,FALSE,,,
dig,311,880380,0.0-88.0-0.0,,,,,,,,,,,"[{""stimulus"":""run_exp/static/images/task_images/dig.jpg"",""time"":0.19999999925494194},{""stimulus"":""run_exp/static/images/task_images/land.jpg"",""time"":873.3000000007451},{""stimulus"":""run_exp/static/images/task_images/dig.jpg"",""time"":1746}]",[],19,,,,,,,,,,,,,,
harvest,312,881381,0.0-88.0-1.0,,null,run_exp/static/images/task_images/gems/60.jpg,null,,,,,,53,,,19,,,,,60,0.890713584,0.883333333,,,,,,,
decision,313,881837,0.0-88.0-2.0,,454.5,run_exp/static/images/task_images/land.jpg,65,,,,,,53,,,19,,,,,,,,200366,2,2,FALSE,,,
dig,314,884387,0.0-89.0-0.0,,,,,,,,,,,"[{""stimulus"":""run_exp/static/images/task_images/dig.jpg"",""time"":0.19999999925494194},{""stimulus"":""run_exp/static/images/task_images/land.jpg"",""time"":849.5},{""stimulus"":""run_exp/static/images/task_images/dig.jpg"",""time"":1697.5}]",[],19,,,,,,,,,,,,,,
harvest,315,885393,0.0-89.0-1.0,,null,run_exp/static/images/task_images/gems/53.jpg,null,,,,,,44,,,19,,,,,53,0.824708622,0.830188679,,,,,,,
decision,316,885930,0.0-89.0-2.0,,534.8,run_exp/static/images/task_images/land.jpg,65,,,,,,44,,,19,,,,,,,,204459,2,3,FALSE,,,
dig,317,888400,0.0-90.0-0.0,,,,,,,,,,,"[{""stimulus"":""run_exp/static/images/task_images/dig.jpg"",""time"":0.19999999925494194},{""stimulus"":""run_exp/static/images/task_images/land.jpg"",""time"":827.3000000007451},{""stimulus"":""run_exp/static/images/task_images/dig.jpg"",""time"":1646.4000000022352}]",[],19,,,,,,,,,,,,,,
harvest,318,889407,0.0-90.0-1.0,,null,run_exp/static/images/task_images/gems/44.jpg,null,,,,,,36,,,19,,,,,44,0.809828404,0.818181818,,,,,,,
decision,319,889878,0.0-90.0-2.0,,469.4,run_exp/static/images/task_images/land.jpg,65,,,,,,36,,,19,,,,,,,,208407,2,4,FALSE,,,
dig,320,892415,0.0-91.0-0.0,,,,,,,,,,,"[{""stimulus"":""run_exp/static/images/task_images/dig.jpg"",""time"":0.30000000074505806},{""stimulus"":""run_exp/static/images/task_images/land.jpg"",""time"":848.4000000022352},{""stimulus"":""run_exp/static/images/task_images/dig.jpg"",""time"":1692.5}]",[],19,,,,,,,,,,,,,,
harvest,321,893420,0.0-91.0-1.0,,null,run_exp/static/images/task_images/gems/36.jpg,null,,,,,,30,,,19,,,,,36,0.825230185,0.833333333,,,,,,,
decision,322,894272,0.0-91.0-2.0,,850.6,run_exp/static/images/task_images/land.jpg,76,,,,,,30,,,19,,,,,,,,212802,2,5,TRUE,,,
travel,323,903426,0.0-92.0-0.0,,,,,,,,,,,"[{""stimulus"":""run_exp/static/images/task_images/rocket-01.jpg"",""time"":0.19999999925494194},{""stimulus"":""run_exp/static/images/task_images/rocket-02.jpg"",""time"":1018.1999999992549},{""stimulus"":""run_exp/static/images/task_images/rocket-03.jpg"",""time"":2033.3999999985099},{""stimulus"":""run_exp/static/images/task_images/rocket-04.jpg"",""time"":3049.60000000149},{""stimulus"":""run_exp/static/images/task_images/rocket-05.jpg"",""time"":4070.60000000149},{""stimulus"":""run_exp/static/images/task_images/rocket-06.jpg"",""time"":5085.5},{""stimulus"":""run_exp/static/images/task_images/rocket-07.jpg"",""time"":6099.5},{""stimulus"":""run_exp/static/images/task_images/rocket-08.jpg"",""time"":7116.199999999255},{""stimulus"":""run_exp/static/images/task_images/rocket-09.jpg"",""time"":8131.89999999851}]",[],19,,,,,,,,,,,,,,
alien_welcome,324,908435,0.0-92.0-1.0,,null,run_exp/static/images/task_images/aliens/old_aliens/planet/alien_planet-29.jpg,null,,,,,,,,,,,,29,"5,19,64,58,55,33,45,62,75,16,18,65,73,28,3,34,69,48,37,29,74,49,51,32,60,21,56,42,1,63,59,72,23,76,4,17,47,27,77,46,39",,,,,,,,,,
land,325,908941,0.0-92.0-2.0,,null,run_exp/static/images/task_images/land.jpg,null,,,,,,93,,,20,,,,,,,,,,,,,,
dig,326,910945,0.0-92.0-3.0,,,,,,,,,,,"[{""stimulus"":""run_exp/static/images/task_images/dig.jpg"",""time"":0.3999999985098839},{""stimulus"":""run_exp/static/images/task_images/land.jpg"",""time"":670.3999999985099},{""stimulus"":""run_exp/static/images/task_images/dig.jpg"",""time"":1338.5999999977648}]",[],20,,,,,,,,,,,,,,
harvest,327,911949,0.0-92.0-4.0,,null,run_exp/static/images/task_images/gems/93.jpg,null,,,,,,65,,,20,,,,,93,0.694002386,0.698924731,,,,,,,
decision,328,912016,0.0-92.0-5.0,,65.1,run_exp/static/images/task_images/land.jpg,65,,,,,,65,,,20,,,,,,,,230545,2,0,FALSE,,,
dig,329,914958,0.0-93.0-0.0,,,,,,,,,,,"[{""stimulus"":""run_exp/static/images/task_images/dig.jpg"",""time"":0.30000000074505806},{""stimulus"":""run_exp/static/images/task_images/land.jpg"",""time"":981.8000000007451},{""stimulus"":""run_exp/static/images/task_images/dig.jpg"",""time"":1958.9000000022352}]",[],20,,,,,,,,,,,,,,
harvest,330,915965,0.0-93.0-1.0,,null,run_exp/static/images/task_images/gems/65.jpg,null,,,,,,49,,,20,,,,,65,0.747674289,0.753846154,,,,,,,
decision,331,916040,0.0-93.0-2.0,,72.9,run_exp/static/images/task_images/land.jpg,65,,,,,,49,,,20,,,,,,,,234569,2,1,FALSE,,,
dig,332,918971,0.0-94.0-0.0,,,,,,,,,,,"[{""stimulus"":""run_exp/static/images/task_images/dig.jpg"",""time"":0.29999999701976776},{""stimulus"":""run_exp/static/images/task_images/land.jpg"",""time"":980.3999999985099},{""stimulus"":""run_exp/static/images/task_images/dig.jpg"",""time"":1952.699999999255}]",[],20,,,,,,,,,,,,,,
harvest,333,919976,0.0-94.0-1.0,,null,run_exp/static/images/task_images/gems/49.jpg,null,,,,,,40,,,20,,,,,49,0.809369628,0.816326531,,,,,,,
decision,334,922188,0.0-94.0-2.0,,2209.8,run_exp/static/images/task_images/land.jpg,65,,,,,,40,,,20,,,,,,,,240717,2,2,FALSE,,,
dig,335,922984,0.0-95.0-0.0,,,,,,,,,,,"[{""stimulus"":""run_exp/static/images/task_images/dig.jpg"",""time"":0.30000000074505806},{""stimulus"":""run_exp/static/images/task_images/land.jpg"",""time"":264.19999999925494},{""stimulus"":""run_exp/static/images/task_images/dig.jpg"",""time"":530}]",[],20,,,,,,,,,,,,,,
harvest,336,923991,0.0-95.0-1.0,,null,run_exp/static/images/task_images/gems/40.jpg,null,,,,,,32,,,20,,,,,40,0.793755965,0.8,,,,,,,
decision,337,924650,0.0-95.0-2.0,,657.5,run_exp/static/images/task_images/land.jpg,65,,,,,,32,,,20,,,,,,,,243179,2,3,FALSE,,,
dig,338,927000,0.0-96.0-0.0,,,,,,,,,,,"[{""stimulus"":""run_exp/static/images/task_images/dig.jpg"",""time"":0.19999999925494194},{""stimulus"":""run_exp/static/images/task_images/land.jpg"",""time"":781.6999999992549},{""stimulus"":""run_exp/static/images/task_images/dig.jpg"",""time"":1563.699999999255}]",[],20,,,,,,,,,,,,,,
harvest,339,928003,0.0-96.0-1.0,,null,run_exp/static/images/task_images/gems/32.jpg,null,,,,,,24,,,20,,,,,32,0.747116286,0.75,,,,,,,
decision,340,928668,0.0-96.0-2.0,,663,run_exp/static/images/task_images/land.jpg,76,,,,,,24,,,20,,,,,,,,247197,2,4,TRUE,,,
travel,341,938009,0.0-97.0-0.0,,,,,,,,,,,"[{""stimulus"":""run_exp/static/images/task_images/rocket-01.jpg"",""time"":0.09999999776482582},{""stimulus"":""run_exp/static/images/task_images/rocket-02.jpg"",""time"":1043.199999999255},{""stimulus"":""run_exp/static/images/task_images/rocket-03.jpg"",""time"":2077.800000000745},{""stimulus"":""run_exp/static/images/task_images/rocket-04.jpg"",""time"":3114.699999999255},{""stimulus"":""run_exp/static/images/task_images/rocket-05.jpg"",""time"":4150},{""stimulus"":""run_exp/static/images/task_images/rocket-06.jpg"",""time"":5189.099999997765},{""stimulus"":""run_exp/static/images/task_images/rocket-07.jpg"",""time"":6223.300000000745},{""stimulus"":""run_exp/static/images/task_images/rocket-08.jpg"",""time"":7265},{""stimulus"":""run_exp/static/images/task_images/rocket-09.jpg"",""time"":8301.699999999255}]",[],20,,,,,,,,,,,,,,
alien_welcome,342,943014,0.0-97.0-1.0,,null,run_exp/static/images/task_images/aliens/old_aliens/planet/alien_planet-74.jpg,null,,,,,,,,,,,,74,"5,19,64,58,55,33,45,62,75,16,18,65,73,28,3,34,69,48,37,29,74,49,51,32,60,21,56,42,1,63,59,72,23,76,4,17,47,27,77,46,39",,,,,,,,,,
land,343,943520,0.0-97.0-2.0,,null,run_exp/static/images/task_images/land.jpg,null,,,,,,101,,,21,,,,,,,,,,,,,,
dig,344,945525,0.0-97.0-3.0,,,,,,,,,,,"[{""stimulus"":""run_exp/static/images/task_images/dig.jpg"",""time"":0.3999999985098839},{""stimulus"":""run_exp/static/images/task_images/land.jpg"",""time"":673},{""stimulus"":""run_exp/static/images/task_images/dig.jpg"",""time"":1336}]",[],21,,,,,,,,,,,,,,
harvest,345,946527,0.0-97.0-4.0,,null,run_exp/static/images/task_images/gems/101.jpg,null,,,,,,60,,,21,,,,,101,0.592338106,0.594059406,,,,,,,
decision,346,947240,0.0-97.0-5.0,,710.9,run_exp/static/images/task_images/land.jpg,65,,,,,,60,,,21,,,,,,,,265769,2,0,FALSE,,,
dig,347,949536,0.0-98.0-0.0,,,,,,,,,,,"[{""stimulus"":""run_exp/static/images/task_images/dig.jpg"",""time"":0.19999999925494194},{""stimulus"":""run_exp/static/images/task_images/land.jpg"",""time"":765.3000000007451},{""stimulus"":""run_exp/static/images/task_images/dig.jpg"",""time"":1529.8999999985099}]",[],21,,,,,,,,,,,,,,
harvest,348,950538,0.0-98.0-1.0,,null,run_exp/static/images/task_images/gems/60.jpg,null,,,,,,31,,,21,,,,,60,0.5243372,0.516666667,,,,,,,
decision,349,952265,0.0-98.0-2.0,,1725.7,run_exp/static/images/task_images/land.jpg,65,,,,,,31,,,21,,,,,,,,270794,2,1,FALSE,,,
dig,350,953544,0.0-99.0-0.0,,,,,,,,,,,"[{""stimulus"":""run_exp/static/images/task_images/dig.jpg"",""time"":0.19999999925494194},{""stimulus"":""run_exp/static/images/task_images/land.jpg"",""time"":425.19999999925494},{""stimulus"":""run_exp/static/images/task_images/dig.jpg"",""time"":854.1999999992549}]",[],21,,,,,,,,,,,,,,
harvest,351,954548,0.0-99.0-1.0,,null,run_exp/static/images/task_images/gems/31.jpg,null,,,,,,17,,,21,,,,,31,0.555026179,0.548387097,,,,,,,
decision,352,954998,0.0-99.0-2.0,,448.3,run_exp/static/images/task_images/land.jpg,65,,,,,,17,,,21,,,,,,,,273527,2,2,FALSE,,,
dig,353,957557,0.0-100.0-0.0,,,,,,,,,,,"[{""stimulus"":""run_exp/static/images/task_images/dig.jpg"",""time"":0.19999999925494194},{""stimulus"":""run_exp/static/images/task_images/land.jpg"",""time"":854.6999999992549},{""stimulus"":""run_exp/static/images/task_images/dig.jpg"",""time"":1701.699999999255}]",[],21,,,,,,,,,,,,,,
harvest,354,958560,0.0-100.0-1.0,,null,run_exp/static/images/task_images/gems/17.jpg,null,,,,,,8,,,21,,,,,17,0.4413029,0.470588235,,,,,,,
decision,355,960251,0.0-100.0-2.0,,1689.1,run_exp/static/images/task_images/land.jpg,76,,,,,,8,,,21,,,,,,,,278780,2,3,TRUE,,,
travel,356,968564,0.0-101.0-0.0,,,,,,,,,,,"[{""stimulus"":""run_exp/static/images/task_images/rocket-01.jpg"",""time"":0.30000000074505806},{""stimulus"":""run_exp/static/images/task_images/rocket-02.jpg"",""time"":928.7000000029802},{""stimulus"":""run_exp/static/images/task_images/rocket-03.jpg"",""time"":1851.9000000022352},{""stimulus"":""run_exp/static/images/task_images/rocket-04.jpg"",""time"":2774.10000000149},{""stimulus"":""run_exp/static/images/task_images/rocket-05.jpg"",""time"":3694.2000000029802},{""stimulus"":""run_exp/static/images/task_images/rocket-06.jpg"",""time"":4621.400000002235},{""stimulus"":""run_exp/static/images/task_images/rocket-07.jpg"",""time"":5540.70000000298},{""stimulus"":""run_exp/static/images/task_images/rocket-08.jpg"",""time"":6467.400000002235},{""stimulus"":""run_exp/static/images/task_images/rocket-09.jpg"",""time"":7387.60000000149}]",[],21,,,,,,,,,,,,,,
alien_welcome,357,973569,0.0-101.0-1.0,,null,run_exp/static/images/task_images/aliens/old_aliens/planet/alien_planet-49.jpg,null,,,,,,,,,,,,49,"5,19,64,58,55,33,45,62,75,16,18,65,73,28,3,34,69,48,37,29,74,49,51,32,60,21,56,42,1,63,59,72,23,76,4,17,47,27,77,46,39",,,,,,,,,,
land,358,974076,0.0-101.0-2.0,,null,run_exp/static/images/task_images/land.jpg,null,,,,,,94,,,22,,,,,,,,,,,,,,
dig,359,976084,0.0-101.0-3.0,,,,,,,,,,,"[{""stimulus"":""run_exp/static/images/task_images/dig.jpg"",""time"":0.3999999985098839},{""stimulus"":""run_exp/static/images/task_images/land.jpg"",""time"":669.3999999985099},{""stimulus"":""run_exp/static/images/task_images/dig.jpg"",""time"":1340.5}]",[],22,,,,,,,,,,,,,,
harvest,360,977086,0.0-101.0-4.0,,null,run_exp/static/images/task_images/gems/94.jpg,null,,,,,,74,,,22,,,,,94,0.782561241,0.787234043,,,,,,,
decision,361,977194,0.0-101.0-5.0,,105.8,run_exp/static/images/task_images/land.jpg,65,,,,,,74,,,22,,,,,,,,295723,2,0,FALSE,,,
dig,362,980093,0.0-102.0-0.0,,,,,,,,,,,"[{""stimulus"":""run_exp/static/images/task_images/dig.jpg"",""time"":0.30000000074505806},{""stimulus"":""run_exp/static/images/task_images/land.jpg"",""time"":970.3000000007451},{""stimulus"":""run_exp/static/images/task_images/dig.jpg"",""time"":1931.7000000029802}]",[],22,,,,,,,,,,,,,,
harvest,363,981100,0.0-102.0-1.0,,null,run_exp/static/images/task_images/gems/74.jpg,null,,,,,,56,,,22,,,,,74,0.759926804,0.756756757,,,,,,,
decision,364,981495,0.0-102.0-2.0,,393.9,run_exp/static/images/task_images/land.jpg,65,,,,,,56,,,22,,,,,,,,300024,2,1,TRUE,,,
end_of_block_continue,365,983932,0.0-103.0-0.0,,2430.5,run_exp/static/audio/clip_32_block_end.m4a,,,,,,0,,,,,,,,,,,,,,,,,,
alien_welcome,366,988940,0.0-104.0-0.0,,null,run_exp/static/images/task_images/aliens/old_aliens/planet/alien_planet-51.jpg,null,,,,,,,,,,,,51,"5,19,64,58,55,33,45,62,75,16,18,65,73,28,3,34,69,48,37,29,74,49,51,32,60,21,56,42,1,63,59,72,23,76,4,17,47,27,77,46,39",,,,,,,,,,
land,367,989444,0.0-104.0-1.0,,null,run_exp/static/images/task_images/land.jpg,null,,,,,,109,,,23,,,,,,,,,,,,,,
dig,368,991449,0.0-104.0-2.0,,,,,,,,,,,"[{""stimulus"":""run_exp/static/images/task_images/dig.jpg"",""time"":0.3999999985098839},{""stimulus"":""run_exp/static/images/task_images/land.jpg"",""time"":673},{""stimulus"":""run_exp/static/images/task_images/dig.jpg"",""time"":1340.800000000745}]",[],23,,,,,,,,,,,,,,
harvest,369,992452,0.0-104.0-3.0,,null,run_exp/static/images/task_images/gems/109.jpg,null,,,,,,53,,,23,,,,,109,0.488196375,0.486238532,,,,,,,
decision,370,993427,0.0-104.0-4.0,,973.5,run_exp/static/images/task_images/land.jpg,65,,,,,,53,,,23,,,,,,,,9491,3,0,FALSE,,,
dig,371,995458,0.0-105.0-0.0,,,,,,,,,,,"[{""stimulus"":""run_exp/static/images/task_images/dig.jpg"",""time"":0.10000000149011612},{""stimulus"":""run_exp/static/images/task_images/land.jpg"",""time"":676.8000000007451},{""stimulus"":""run_exp/static/images/task_images/dig.jpg"",""time"":1355}]",[],23,,,,,,,,,,,,,,
harvest,372,996460,0.0-105.0-1.0,,null,run_exp/static/images/task_images/gems/53.jpg,null,,,,,,31,,,23,,,,,53,0.586447999,0.58490566,,,,,,,
decision,373,998564,0.0-105.0-2.0,,2101.2,run_exp/static/images/task_images/land.jpg,65,,,,,,31,,,23,,,,,,,,14628,3,1,FALSE,,,
dig,374,999468,0.0-106.0-0.0,,,,,,,,,,,"[{""stimulus"":""run_exp/static/images/task_images/dig.jpg"",""time"":0.19999999925494194},{""stimulus"":""run_exp/static/images/task_images/land.jpg"",""time"":301.3999999985099},{""stimulus"":""run_exp/static/images/task_images/dig.jpg"",""time"":603.3999999985099}]",[],23,,,,,,,,,,,,,,
harvest,375,1000474,0.0-106.0-1.0,,null,run_exp/static/images/task_images/gems/31.jpg,null,,,,,,14,,,23,,,,,31,0.452574601,0.451612903,,,,,,,
decision,376,1000486,0.0-106.0-2.0,,10.5,run_exp/static/images/task_images/land.jpg,65,,,,,,14,,,23,,,,,,,,16550,3,2,FALSE,,,
dig,377,1003479,0.0-107.0-0.0,,,,,,,,,,,"[{""stimulus"":""run_exp/static/images/task_images/dig.jpg"",""time"":0.09999999776482582},{""stimulus"":""run_exp/static/images/task_images/land.jpg"",""time"":1000.8999999985099},{""stimulus"":""run_exp/static/images/task_images/dig.jpg"",""time"":1994.199999999255}]",[],23,,,,,,,,,,,,,,
harvest,378,1004482,0.0-107.0-1.0,,null,run_exp/static/images/task_images/gems/14.jpg,null,,,,,,7,,,23,,,,,14,0.498943051,0.5,,,,,,,
decision,379,1004899,0.0-107.0-2.0,,415.2,run_exp/static/images/task_images/land.jpg,76,,,,,,7,,,23,,,,,,,,20963,3,3,TRUE,,,
travel,380,1014484,0.0-108.0-0.0,,,,,,,,,,,"[{""stimulus"":""run_exp/static/images/task_images/rocket-01.jpg"",""time"":0.30000000074505806},{""stimulus"":""run_exp/static/images/task_images/rocket-02.jpg"",""time"":1067.8999999985099},{""stimulus"":""run_exp/static/images/task_images/rocket-03.jpg"",""time"":2131.800000000745},{""stimulus"":""run_exp/static/images/task_images/rocket-04.jpg"",""time"":3195.300000000745},{""stimulus"":""run_exp/static/images/task_images/rocket-05.jpg"",""time"":4262.39999999851},{""stimulus"":""run_exp/static/images/task_images/rocket-06.jpg"",""time"":5322.39999999851},{""stimulus"":""run_exp/static/images/task_images/rocket-07.jpg"",""time"":6386.099999997765},{""stimulus"":""run_exp/static/images/task_images/rocket-08.jpg"",""time"":7452.5},{""stimulus"":""run_exp/static/images/task_images/rocket-09.jpg"",""time"":8517.599999997765}]",[],23,,,,,,,,,,,,,,
alien_welcome,381,1019491,0.0-108.0-1.0,,null,run_exp/static/images/task_images/aliens/old_aliens/planet/alien_planet-32.jpg,null,,,,,,,,,,,,32,"5,19,64,58,55,33,45,62,75,16,18,65,73,28,3,34,69,48,37,29,74,49,51,32,60,21,56,42,1,63,59,72,23,76,4,17,47,27,77,46,39",,,,,,,,,,
land,382,1019997,0.0-108.0-2.0,,null,run_exp/static/images/task_images/land.jpg,null,,,,,,96,,,24,,,,,,,,,,,,,,
dig,383,1022004,0.0-108.0-3.0,,,,,,,,,,,"[{""stimulus"":""run_exp/static/images/task_images/dig.jpg"",""time"":0.3999999985098839},{""stimulus"":""run_exp/static/images/task_images/land.jpg"",""time"":672.5},{""stimulus"":""run_exp/static/images/task_images/dig.jpg"",""time"":1336.3999999985099}]",[],24,,,,,,,,,,,,,,
harvest,384,1023008,0.0-108.0-4.0,,null,run_exp/static/images/task_images/gems/96.jpg,null,,,,,,78,,,24,,,,,96,0.813679014,0.8125,,,,,,,
decision,385,1025311,0.0-108.0-5.0,,2301.3,run_exp/static/images/task_images/land.jpg,65,,,,,,78,,,24,,,,,,,,41375,3,0,FALSE,,,
dig,386,1026015,0.0-109.0-0.0,,,,,,,,,,,"[{""stimulus"":""run_exp/static/images/task_images/dig.jpg"",""time"":0.20000000298023224},{""stimulus"":""run_exp/static/images/task_images/land.jpg"",""time"":238.20000000298023},{""stimulus"":""run_exp/static/images/task_images/dig.jpg"",""time"":465.4000000022352}]",[],24,,,,,,,,,,,,,,
harvest,387,1027018,0.0-109.0-1.0,,null,run_exp/static/images/task_images/gems/78.jpg,null,,,,,,65,,,24,,,,,78,0.830669639,0.833333333,,,,,,,
decision,388,1027562,0.0-109.0-2.0,,542.4,run_exp/static/images/task_images/land.jpg,65,,,,,,65,,,24,,,,,,,,43626,3,1,FALSE,,,
dig,389,1030026,0.0-110.0-0.0,,,,,,,,,,,"[{""stimulus"":""run_exp/static/images/task_images/dig.jpg"",""time"":0.3999999985098839},{""stimulus"":""run_exp/static/images/task_images/land.jpg"",""time"":822.0999999977648},{""stimulus"":""run_exp/static/images/task_images/dig.jpg"",""time"":1643.699999999255}]",[],24,,,,,,,,,,,,,,
harvest,390,1031029,0.0-110.0-1.0,,null,run_exp/static/images/task_images/gems/65.jpg,null,,,,,,47,,,24,,,,,65,0.728301327,0.723076923,,,,,,,
decision,391,1031273,0.0-110.0-2.0,,242.1,run_exp/static/images/task_images/land.jpg,65,,,,,,47,,,24,,,,,,,,47337,3,2,FALSE,,,
