trial_type,trial_index,time_elapsed,internal_node_id,success,rt,stimulus,key_press,prompt,subject_id,age,gender,button_pressed,next_reward,animation_sequence,responses,planet,curr_prac_trial,n_prac_rounds,alien,aliens,reward_received,decay_rate_actual,decay_rate_exp,time_in_block,block_num,prt,last_trial_on_planet,button_html,bonus,num_failures
pavlovia,0,4,0.0-0.0,,,,,,,,,,,,,,,,,,,,,,,,,,,
fullscreen,1,2495,0.0-1.0,TRUE,,,,,,,,,,,,,,,,,,,,,,,,,,
instruc_welcome,2,12251,0.0-2.0,,null,run_exp/static/audio/clip_1_welcome.m4a,null,"<p>Howdy! In this experiment, you’ll be an explorer traveling through space to collect space treasure.</p><p>Your mission is to collect as much treasure as possible.</p><br><br><p><img src='run_exp/static/images/task_images/opening_img-01.jpg' height='300' width='auto'></p>",trEiwhVO8K99ZMh_a5Ke5UddwllDBGZ_MLRP_2iulzJqNMlFNTtY,11.23,female,,,,,,,,,,,,,,,,,,,
audio-keyboard-response,3,28853,0.0-3.0,,null,run_exp/static/audio/clip_2_move.m4a,null,,,,,,,,,,,,,,,,,,,,,,,
welcome_dec,4,34649,0.0-4.0,,5793.72,"<p>Howdy! In this experiment, you’ll be an explorer traveling through space to collect space treasure.</p><p>Your mission is to collect as much treasure as possible.</p><br><br><p><img src='run_exp/static/images/task_images/opening_img-01.jpg' height='300' width='auto'></p>",,,,,,1,,,,,,,,,,,,,,,,,,
html-keyboard-response,5,36179,0.0-5.0,,1528.705,"<p>Howdy! In this experiment, you’ll be an explorer traveling through space to collect space treasure.</p><p>Your mission is to collect as much treasure as possible.</p><br><br><p><img src='run_exp/static/images/task_images/opening_img-01.jpg' height='300' width='auto'></p><button class=""jspsych-html-btn-unchosen""><img src=""run_exp/static/images/task_images/planet-01.jpg"" height=""50""></button><button class=""jspsych-html-btn-chosen""><img src=""run_exp/static/images/task_images/planet-02.jpg"" height=""50""></button><p><b>[press the space bar to lock in your answer]<b><br></p>",32,,,,,,,,,,,,,,,,,,,,,,,
instruc_goal,6,46245,0.0-6.0-0.0,,null,run_exp/static/audio/clip_3_goal.m4a,null,"<p> As a space explorer, you’ll visit different planets to dig for space treasure, these pink gems.</p> <p> The more treasure you dig up, the more bonus money you’ll win! </p><br><br><p><img src='run_exp/static/images/task_images/pink_gem.jpg' height='300' width='auto'></p>",,,,,,,,,,,,,,,,,,,,,,
instruc_goal,7,48858,0.0-6.0-1.0,,2611.785,"<p> As a space explorer, you’ll visit different planets to dig for space treasure, these pink gems.</p> <p> The more treasure you dig up, the more bonus money you’ll win! </p><br><br><p><img src='run_exp/static/images/task_images/pink_gem.jpg' height='300' width='auto'></p>",,,,,,1,,,,,,,,,,,,,,,,,,
html-keyboard-response,8,50196,0.0-6.0-2.0,,1337.76,"<p> As a space explorer, you’ll visit different planets to dig for space treasure, these pink gems.</p> <p> The more treasure you dig up, the more bonus money you’ll win! </p><br><br><p><img src='run_exp/static/images/task_images/pink_gem.jpg' height='300' width='auto'></p><button class=""jspsych-html-btn-unchosen""><img src=""run_exp/static/images/task_images/planet-01.jpg"" height=""50""></button><button class=""jspsych-html-btn-chosen""><img src=""run_exp/static/images/task_images/planet-02.jpg"" height=""50""></button><p><b>[press the space bar to lock in your answer]<b><br></p>",32,,,,,,,,,,,,,,,,,,,,,,,
instruc_dig,9,66214,0.0-7.0-0.0,,null,run_exp/static/audio/clip_4_dig.m4a,null,,,,,,100,,,,,,,,,,,,,,,,,
instruc_dig_try,10,66993,0.0-7.0-1.0,,779.05,"<p> When you’ve arrived at a new planet, you will dig once. </p> <p>Then, you get to decide if you want to stay on the planet and dig again or travel to a new planet and dig there.</p> <p> To stay and dig, press the letter <strong>‘A’</strong> on your keyboard. Try pressing it now! </p><p><img src='run_exp/static/images/task_images/land.jpg'  height='700' width='auto'></p>",65,"<p> When you’ve arrived at a new planet, you will dig once. </p> <p>Then, you get to decide if you want to stay on the planet and dig again or travel to a new planet and dig there.</p> <p> To stay and dig, press the letter <strong>‘A’</strong> on your keyboard. Try pressing it now! </p><p><img src='run_exp/static/images/task_images/land.jpg'  height='700' width='auto'></p>",,,,,100,,,,,,,,,,,,,,,,,
dig_prac,11,69003,0.0-7.0-2.0,,,,,,,,,,,"[{""stimulus"":""run_exp/static/images/task_images/dig.jpg"",""time"":0.18999999156221747},{""stimulus"":""run_exp/static/images/task_images/land.jpg"",""time"":668.390000006184},{""stimulus"":""run_exp/static/images/task_images/dig.jpg"",""time"":1335.2799999993294}]",[],,,,,,,,,,,,,,,
instruc_travel,12,105223,0.0-7.0-3.0,,null,run_exp/static/audio/clip_5_travel.m4a,null,"<p>Every time you dig up gems, there are less gems on the planet, so the more you dig on a planet the fewer gems you’ll get with each dig.</p><p>When gems are running low, you may want to travel to a new planet. </p> <p>  Planets are very far apart in this galaxy, so it will take some time to travel between them. </p> <br><p>There are lots and lots of planets for you to visit, so you won’t be able to return to any planets you’ve seen before. </p><br><p>To leave this planet and travel to a new one, press the letter <strong>‘L’</strong> on your keyboard. Try pressing it now! </p><p><img src='run_exp/static/images/task_images/rocket-01.jpg'  height='600' width='auto'></p>",,,,,,,,,,,,,,,,,,,,,,
instruc_travel_try,13,106560,0.0-7.0-4.0,,1336.355,"<p>Every time you dig up gems, there are less gems on the planet, so the more you dig on a planet the fewer gems you’ll get with each dig.</p><p>When gems are running low, you may want to travel to a new planet. </p> <p>  Planets are very far apart in this galaxy, so it will take some time to travel between them. </p> <br><p>There are lots and lots of planets for you to visit, so you won’t be able to return to any planets you’ve seen before. </p><br><p>To leave this planet and travel to a new one, press the letter <strong>‘L’</strong> on your keyboard. Try pressing it now! </p><p><img src='run_exp/static/images/task_images/rocket-01.jpg'  height='600' width='auto'></p>",76,"<p>Every time you dig up gems, there are less gems on the planet, so the more you dig on a planet the fewer gems you’ll get with each dig.</p><p>When gems are running low, you may want to travel to a new planet. </p> <p>  Planets are very far apart in this galaxy, so it will take some time to travel between them. </p> <br><p>There are lots and lots of planets for you to visit, so you won’t be able to return to any planets you’ve seen before. </p><br><p>To leave this planet and travel to a new one, press the letter <strong>‘L’</strong> on your keyboard. Try pressing it now! </p><p><img src='run_exp/static/images/task_images/rocket-01.jpg'  height='600' width='auto'></p>",,,,,,,,,,,,,,,,,,,,,,
travel_prac,14,116564,0.0-7.0-5.0,,,,,,,,,,,"[{""stimulus"":""run_exp/static/images/task_images/rocket-01.jpg"",""time"":0.13499998021870852},{""stimulus"":""run_exp/static/images/task_images/rocket-02.jpg"",""time"":1111.6150000016205},{""stimulus"":""run_exp/static/images/task_images/rocket-03.jpg"",""time"":2227.14500001166},{""stimulus"":""run_exp/static/images/task_images/rocket-04.jpg"",""time"":3334.3600000371225},{""stimulus"":""run_exp/static/images/task_images/rocket-05.jpg"",""time"":4448.329999984708},{""stimulus"":""run_exp/static/images/task_images/rocket-06.jpg"",""time"":5560.400000016671},{""stimulus"":""run_exp/static/images/task_images/rocket-07.jpg"",""time"":6668.7849999871105},{""stimulus"":""run_exp/static/images/task_images/rocket-08.jpg"",""time"":7778.860000020359},{""stimulus"":""run_exp/static/images/task_images/rocket-09.jpg"",""time"":8893.770000024233}]",[],0,,,,,,,,,,,,,,
instruc_alien_greet,15,143744,0.0-7.0-6.0,,null,run_exp/static/audio/clip_6_alien.m4a,null,"<p>When you arrive at a new planet, the alien who owns the treasure mine on that planet will greet you!</p><p>The better an alien takes care of their mine the easier it is to dig for gems. Some aliens take better care of their mine than others. So, you won’t get exactly the same amount of gems on each planet.</p><p>What the alien looks like does not tell you anything about how many gems there are on the planet.</p><br><p><img src=""run_exp/static/images/task_images/aliens/instructions_aliens/planet/alien_planet-1.jpg""  height=""600"" width=""auto""></p>",,,,,,,,,,,,,,,,,,,,,,
instruc_alien_greet,16,154857,0.0-7.0-7.0,,11111.975,"<p>When you arrive at a new planet, the alien who owns the treasure mine on that planet will greet you!</p><p>The better an alien takes care of their mine the easier it is to dig for gems. Some aliens take better care of their mine than others. So, you won’t get exactly the same amount of gems on each planet.</p><p>What the alien looks like does not tell you anything about how many gems there are on the planet.</p><br><p><img src=""run_exp/static/images/task_images/aliens/instructions_aliens/planet/alien_planet-1.jpg""  height=""600"" width=""auto""></p>",,,,,,1,,,,,,,,,,,,,,,,,,
html-keyboard-response,17,157456,0.0-7.0-8.0,,2598.035,"<p>When you arrive at a new planet, the alien who owns the treasure mine on that planet will greet you!</p><p>The better an alien takes care of their mine the easier it is to dig for gems. Some aliens take better care of their mine than others. So, you won’t get exactly the same amount of gems on each planet.</p><p>What the alien looks like does not tell you anything about how many gems there are on the planet.</p><br><p><img src=""run_exp/static/images/task_images/aliens/instructions_aliens/planet/alien_planet-1.jpg""  height=""600"" width=""auto""></p><button class=""jspsych-html-btn-unchosen""><img src=""run_exp/static/images/task_images/planet-01.jpg"" height=""50""></button><button class=""jspsych-html-btn-chosen""><img src=""run_exp/static/images/task_images/planet-02.jpg"" height=""50""></button><p><b>[press the space bar to lock in your answer]<b><br></p>",32,,,,,,,,,,,,,,,,,,,,,,,
time_out,18,168527,0.0-8.0-0.0,,null,run_exp/static/audio/clip_7_timeout.m4a,null,"<p>If you don't make your choice fast enough, you’ll have to wait a few seconds before you can make another one.</p><p>You can’t dig for more gems or travel to new planets. You just have to sit and wait.</p><br><p><img src='run_exp/static/images/task_images/time_out.jpg'  height='600' width='auto'></p>",,,,,,,,,,,,,,,,,,,,,,
time_out,19,170449,0.0-8.0-1.0,,1921.495,"<p>If you don't make your choice fast enough, you’ll have to wait a few seconds before you can make another one.</p><p>You can’t dig for more gems or travel to new planets. You just have to sit and wait.</p><br><p><img src='run_exp/static/images/task_images/time_out.jpg'  height='600' width='auto'></p>",,,,,,1,,,,,,,,,,,,,,,,,,
html-keyboard-response,20,171810,0.0-8.0-2.0,,1360.285,"<p>If you don't make your choice fast enough, you’ll have to wait a few seconds before you can make another one.</p><p>You can’t dig for more gems or travel to new planets. You just have to sit and wait.</p><br><p><img src='run_exp/static/images/task_images/time_out.jpg'  height='600' width='auto'></p><button class=""jspsych-html-btn-unchosen""><img src=""run_exp/static/images/task_images/planet-01.jpg"" height=""50""></button><button class=""jspsych-html-btn-chosen""><img src=""run_exp/static/images/task_images/planet-02.jpg"" height=""50""></button><p><b>[press the space bar to lock in your answer]<b><br></p>",32,,,,,,,,,,,,,,,,,,,,,,,
instruc_break,21,187497,0.0-9.0-0.0,,null,run_exp/static/audio/clip_8_break.m4a,null,"<p> After digging and traveling for a while, you’ll be able to take a break at home base. </p><p>The game will last 20 minutes no matter what.</p><p>You will visit home base every 5 minutes, so, you will visit home base three times during the game.</p><br><p><img src='run_exp/static/images/task_images/home_base.jpg' height='600' width='auto'></p>",,,,,,,,,,,,,,,,,,,,,,
instruc_break,22,189766,0.0-9.0-1.0,,2267.375,"<p> After digging and traveling for a while, you’ll be able to take a break at home base. </p><p>The game will last 20 minutes no matter what.</p><p>You will visit home base every 5 minutes, so, you will visit home base three times during the game.</p><br><p><img src='run_exp/static/images/task_images/home_base.jpg' height='600' width='auto'></p>",,,,,,1,,,,,,,,,,,,,,,,,,
html-keyboard-response,23,191769,0.0-9.0-2.0,,2001.955,"<p> After digging and traveling for a while, you’ll be able to take a break at home base. </p><p>The game will last 20 minutes no matter what.</p><p>You will visit home base every 5 minutes, so, you will visit home base three times during the game.</p><br><p><img src='run_exp/static/images/task_images/home_base.jpg' height='600' width='auto'></p><button class=""jspsych-html-btn-unchosen""><img src=""run_exp/static/images/task_images/planet-01.jpg"" height=""50""></button><button class=""jspsych-html-btn-chosen""><img src=""run_exp/static/images/task_images/planet-02.jpg"" height=""50""></button><p><b>[press the space bar to lock in your answer]<b><br></p>",32,,,,,,,,,,,,,,,,,,,,,,,
instruc_prac_game,24,201894,0.0-10.0-0.0,,null,run_exp/static/audio/clip_9_practice.m4a,null,"<p> Are you ready to play a practice game? </p> <p>In this practice game, you'll be digging up barrels of gems. But, in the real game, you'll be digging up the gems themselves. </p>",,,,,,,,,,,,,,,,,,,,,,
html-button-response,25,203615,0.0-10.0-1.0,,1720.575,"<p> Are you ready to play a practice game? </p> <p>In this practice game, you'll be digging up barrels of gems. But, in the real game, you'll be digging up the gems themselves. </p>",,,,,,0,,,,,,,,,,,,,,,,,,
alien_welcome_prac,26,208618,0.0-11.0-0.0,,null,run_exp/static/images/task_images/aliens/practice_aliens/planet/alien_planet-5.jpg,null,,,,,,,,,,,,,,,,,,,,,,,
land_prac,27,209119,0.0-11.0-1.0,,null,run_exp/static/images/task_images/land.jpg,null,,,,,,93,,,0,,,,,,,,,,,,,,
dig_prac,28,211123,0.0-11.0-2.0,,,,,,,,,,,"[{""stimulus"":""run_exp/static/images/task_images/dig.jpg"",""time"":0.1550000160932541},{""stimulus"":""run_exp/static/images/task_images/land.jpg"",""time"":668.3100000373088},{""stimulus"":""run_exp/static/images/task_images/dig.jpg"",""time"":1334.560000046622}]",[],,,,,,,,,,,,,,,
harvest_prac,29,212126,0.0-11.0-3.0,,null,run_exp/static/images/task_images/barrel_text.jpg,null,,,,,,,,,,,,,,,,,,,,,,,
decision_prac,30,215127,0.0-11.0-4.0,,null,run_exp/static/images/task_images/land.jpg,null,,,,,,,,,,1,,,,,,,,,,,,,
time_out,31,217130,0.0-12.0-0.0,,null,run_exp/static/images/task_images/time_out.jpg,null,,,,,,,,,,,,,,,,,,,,,,,
decision_prac,32,220136,0.0-12.0-1.0,,null,run_exp/static/images/task_images/land.jpg,null,,,,,,,,,,2,,,,,,,,,,,,,
time_out,33,222139,0.0-13.0-0.0,,null,run_exp/static/images/task_images/time_out.jpg,null,,,,,,,,,,,,,,,,,,,,,,,
decision_prac,34,222538,0.0-13.0-1.0,,397.9,run_exp/static/images/task_images/land.jpg,76,,,,,,,,,,3,,,,,,,,,,,,,
travel,35,232135,0.0-14.0-0.0,,,,,,,,,,,"[{""stimulus"":""run_exp/static/images/task_images/rocket-01.jpg"",""time"":0.13499998021870852},{""stimulus"":""run_exp/static/images/task_images/rocket-02.jpg"",""time"":1066.7499999981374},{""stimulus"":""run_exp/static/images/task_images/rocket-03.jpg"",""time"":2134.5499999588355},{""stimulus"":""run_exp/static/images/task_images/rocket-04.jpg"",""time"":3201.3499999884516},{""stimulus"":""run_exp/static/images/task_images/rocket-05.jpg"",""time"":4266.100000008009},{""stimulus"":""run_exp/static/images/task_images/rocket-06.jpg"",""time"":5334.359999978915},{""stimulus"":""run_exp/static/images/task_images/rocket-07.jpg"",""time"":6401.629999978468},{""stimulus"":""run_exp/static/images/task_images/rocket-08.jpg"",""time"":7465.9150000079535},{""stimulus"":""run_exp/static/images/task_images/rocket-09.jpg"",""time"":8530.099999974482}]",[],0,,,,,,,,,,,,,,
alien_welcome_prac,36,237137,0.0-14.0-1.0,,null,run_exp/static/images/task_images/aliens/practice_aliens/planet/alien_planet-4.jpg,null,,,,,,,,,,,,,,,,,,,,,,,
land_prac,37,237640,0.0-14.0-2.0,,null,run_exp/static/images/task_images/land.jpg,null,,,,,,102,,,0,,,,,,,,,,,,,,
dig_prac,38,239645,0.0-14.0-3.0,,,,,,,,,,,"[{""stimulus"":""run_exp/static/images/task_images/dig.jpg"",""time"":0.1550000160932541},{""stimulus"":""run_exp/static/images/task_images/land.jpg"",""time"":669.0400000079535},{""stimulus"":""run_exp/static/images/task_images/dig.jpg"",""time"":1334.8300000070594}]",[],,,,,,,,,,,,,,,
harvest_prac,39,240650,0.0-14.0-4.0,,null,run_exp/static/images/task_images/barrel_text.jpg,null,,,,,,,,,,,,,,,,,,,,,,,
decision_prac,40,241055,0.0-14.0-5.0,,404.985,run_exp/static/images/task_images/land.jpg,65,,,,,,,,,,4,,,,,,,,,,,,,
dig_prac,41,243061,0.0-15.0-0.0,,,,,,,,,,,"[{""stimulus"":""run_exp/static/images/task_images/dig.jpg"",""time"":0.12500002048909664},{""stimulus"":""run_exp/static/images/task_images/land.jpg"",""time"":668.3450000127777},{""stimulus"":""run_exp/static/images/task_images/dig.jpg"",""time"":1339.3149999901652}]",[],,,,,,,,,,,,,,,
harvest_prac,42,244062,0.0-15.0-1.0,,null,run_exp/static/images/task_images/barrel_text.jpg,null,,,,,,,,,,,,,,,,,,,,,,,
decision_prac,43,246827,0.0-15.0-2.0,,2764.005,run_exp/static/images/task_images/land.jpg,65,,,,,,,,,,,1,,,,,,,,,,,,
quiz_instruc,44,259225,0.0-16.0-0.0,,12396.125,run_exp/static/audio/clip_10_quiz.m4a,,,,,,0,,,,,,,,,,,,,,,,,,
instruc_repeat,45,301983,0.0-16.0-1.0,,null,"<p> Are you ready to play a practice game? </p> <p>In this practice game, you'll be digging up barrels of gems. But, in the real game, you'll be digging up the gems themselves. </p>",null,"<p>In this game, your goal is to collect as many gems as you can. That’s how you will win bonus money. </p> <p>The entire game will last 20 minutes no matter how many gems you collect or how many planets you visit. </p><p>To stay on a planet and dig again, press the letter A on your keyboard. To leave for a new planet, press the letter L.</p><p>The more you dig on a planet, the fewer gems you’ll get with each dig which is why you might consider leaving for a new planet. </p><p>When you arrive at a new planet, you’ll be greeted by an alien. What the alien looks like does not tell you anything about how much treasure is on the planet. </p>",,,,,,,,,,,,,,,,,,,,,,
instruc_repeat_continue,46,303235,0.0-16.0-2.0,,1251.315,"<p> Are you ready to play a practice game? </p> <p>In this practice game, you'll be digging up barrels of gems. But, in the real game, you'll be digging up the gems themselves. </p>",,,,,,0,,,,,,,,,,,,,,,,,,
quiz_q_1_ask,47,313484,0.0-16.0-3.0,,10248.165,run_exp/static/audio/clip_11_q1_ask.m4a,,,,,,2,,,,,,,,,,,,,,,,,,
quiz_q_1_fb_correct,48,317331,0.0-17.0-0.0,,null,run_exp/static/audio/clip_12_q1_corrrect.m4a,null,<p>That’s correct. You win extra money by collecting more gems.</p>,,,,,,,,,,,,,,,,,,,,,,
quiz_q_2_ask,49,329347,0.0-17.0-1.0,,12014.79,run_exp/static/audio/clip_14_q2_ask.m4a,,,,,,1,,,,,,,,,,,,,,,,,,
quiz_q_2_fb_correct,50,333330,0.0-18.0-0.0,,null,run_exp/static/audio/clip_15_q2_correct.m4a,null,<p>That’s correct. The experiment is 20 minutes no matter what.</p>,,,,,,,,,,,,,,,,,,,,,,
quiz_q_3_ask,51,337897,0.0-18.0-1.0,,4566.475,run_exp/static/audio/clip_17_q3_ask.m4a,,,,,,1,,,,,,,,,,,,,,,,,,
quiz_q_3_fb_correct,52,341875,0.0-19.0-0.0,,null,run_exp/static/audio/clip_18_q3_correct.m4a,null,<p> That’s correct. You press the letter L to travel to a new planet.</p>,,,,,,,,,,,,,,,,,,,,,,
quiz_q_4_ask,53,351071,0.0-19.0-1.0,,9195.975,run_exp/static/audio/clip_20_q4_ask.m4a,,,,,,0,,,,,,,,,,,,,,,,,,
quiz_q_4_fb_correct,54,356387,0.0-20.0-0.0,,null,run_exp/static/audio/clip_21_q4_correct.m4a,null,<p> That’s correct. The more you dig on a planet the fewer gems you’ll get with each dig. </p>,,,,,,,,,,,,,,,,,,,,,,
quiz_q_5_ask,55,362772,0.0-20.0-1.0,,6383.575,run_exp/static/audio/clip_23_q5_ask.m4a,,,,,,1,,,,,,,,,,,,,,,,,,
quiz_q_5_fb_correct,56,367788,0.0-21.0-0.0,,null,run_exp/static/audio/clip_24_q5_correct.m4a,null,<p> That’s correct. The alien tells you nothing about how much treasure is on the planet.</p>,,,,,,,,,,,,,,,,,,,,,,
quiz_correct,57,371247,0.0-22.0-0.0,,null,run_exp/static/audio/clip_26_correct_quiz.m4a,null,,,,,,,,,,,,,,,,,,,,,,,
quiz_correct_continue,58,372941,0.0-22.0-1.0,,1693.265,<p>Good job! You're now ready to move on to the real game!</p>,,,,,,0,,,,,,,,,,,,,,,,,,
audio-keyboard-response,59,383066,0.0-22.0-2.0,,null,run_exp/static/audio/clip_28_real_game.m4a,null,,,,,,,,,,,,,,,,,,,,,,,
instruc_begin_exp_contine,60,384923,0.0-22.0-3.0,,1855.745,"<p>Now that you know how  to dig for space treasure and travel to new planets,you can start exploring! </p><p>Do you want to go over the instructions again or get started with the real game?</p>",,,,,,1,,,,,,1,,,,,,,,,,,,
alien_welcome,61,389925,0.0-23.0-0.0,,null,run_exp/static/images/task_images/aliens/old_aliens/planet/alien_planet-2.jpg,null,,,,,,,,,,,,2,"2,38,33,37,64,6,14,77,8,69,10,70,65,26,39,56,18,31,23,20,9,11,59,12,80,27,74,19,47",,,,,,,,,,
land,62,390427,0.0-23.0-1.0,,null,run_exp/static/images/task_images/land.jpg,null,,,,,,93,,,1,,,,,,,,,,,,,,
dig,63,392434,0.0-23.0-2.0,,,,,,,,,,,"[{""stimulus"":""run_exp/static/images/task_images/dig.jpg"",""time"":0.15000003622844815},{""stimulus"":""run_exp/static/images/task_images/land.jpg"",""time"":671.2399999960326},{""stimulus"":""run_exp/static/images/task_images/dig.jpg"",""time"":1338.7250000378117}]",[],1,,,,,,,,,,,,,,
harvest,64,393437,0.0-23.0-3.0,,null,run_exp/static/images/task_images/gems/93.jpg,null,,,,,,23,,,1,,,,,93,0.24901084,0.247311828,,,,,,,
decision,65,394744,0.0-23.0-4.0,,1306.095,run_exp/static/images/task_images/land.jpg,65,,,,,,23,,,1,,,,,,,,9821,1,0,FALSE,,,
dig,66,396439,0.0-24.0-0.0,,,,,,,,,,,"[{""stimulus"":""run_exp/static/images/task_images/dig.jpg"",""time"":0.13500003842636943},{""stimulus"":""run_exp/static/images/task_images/land.jpg"",""time"":565.9150000428781},{""stimulus"":""run_exp/static/images/task_images/dig.jpg"",""time"":1130.4450000170618}]",[],1,,,,,,,,,,,,,,
harvest,67,397444,0.0-24.0-1.0,,null,run_exp/static/images/task_images/gems/23.jpg,null,,,,,,5,,,1,,,,,23,0.228022045,0.217391304,,,,,,,
decision,68,398603,0.0-24.0-2.0,,1158.425,run_exp/static/images/task_images/land.jpg,65,,,,,,5,,,1,,,,,,,,13679,1,1,FALSE,,,
dig,69,400448,0.0-25.0-0.0,,,,,,,,,,,"[{""stimulus"":""run_exp/static/images/task_images/dig.jpg"",""time"":0.13000000035390258},{""stimulus"":""run_exp/static/images/task_images/land.jpg"",""time"":614.0100000193343},{""stimulus"":""run_exp/static/images/task_images/dig.jpg"",""time"":1230.5100000230595}]",[],1,,,,,,,,,,,,,,
harvest,70,401450,0.0-25.0-1.0,,null,run_exp/static/images/task_images/gems/5.jpg,null,,,,,,1,,,1,,,,,5,0.253562573,0.2,,,,,,,
decision,71,402563,0.0-25.0-2.0,,1112.285,run_exp/static/images/task_images/land.jpg,65,,,,,,1,,,1,,,,,,,,17639,1,2,FALSE,,,
dig,72,404452,0.0-26.0-0.0,,,,,,,,,,,"[{""stimulus"":""run_exp/static/images/task_images/dig.jpg"",""time"":0.11000002268701792},{""stimulus"":""run_exp/static/images/task_images/land.jpg"",""time"":632.9700000351295},{""stimulus"":""run_exp/static/images/task_images/dig.jpg"",""time"":1259.76000004448}]",[],1,,,,,,,,,,,,,,
harvest,73,405456,0.0-26.0-1.0,,null,run_exp/static/images/task_images/gems/1.jpg,null,,,,,,0,,,1,,,,,1,0.22351455,0,,,,,,,
decision,74,406613,0.0-26.0-2.0,,1156.05,run_exp/static/images/task_images/land.jpg,76,,,,,,0,,,1,,,,,,,,21689,1,3,TRUE,,,
travel,75,415457,0.0-27.0-0.0,,,,,,,,,,,"[{""stimulus"":""run_exp/static/images/task_images/rocket-01.jpg"",""time"":0.11500000255182385},{""stimulus"":""run_exp/static/images/task_images/rocket-02.jpg"",""time"":984.6549999783747},{""stimulus"":""run_exp/static/images/task_images/rocket-03.jpg"",""time"":1965.5499999644235},{""stimulus"":""run_exp/static/images/task_images/rocket-04.jpg"",""time"":2951.245000003837},{""stimulus"":""run_exp/static/images/task_images/rocket-05.jpg"",""time"":3933.504999964498},{""stimulus"":""run_exp/static/images/task_images/rocket-06.jpg"",""time"":4914.485000015702},{""stimulus"":""run_exp/static/images/task_images/rocket-07.jpg"",""time"":5894.06500000041},{""stimulus"":""run_exp/static/images/task_images/rocket-08.jpg"",""time"":6879.7149999882095},{""stimulus"":""run_exp/static/images/task_images/rocket-09.jpg"",""time"":7860.954999981914}]",[],1,,,,,,,,,,,,,,
alien_welcome,76,420461,0.0-27.0-1.0,,null,run_exp/static/images/task_images/aliens/old_aliens/planet/alien_planet-38.jpg,null,,,,,,,,,,,,38,"2,38,33,37,64,6,14,77,8,69,10,70,65,26,39,56,18,31,23,20,9,11,59,12,80,27,74,19,47",,,,,,,,,,
land,77,420963,0.0-27.0-2.0,,null,run_exp/static/images/task_images/land.jpg,null,,,,,,86,,,2,,,,,,,,,,,,,,
dig,78,422968,0.0-27.0-3.0,,,,,,,,,,,"[{""stimulus"":""run_exp/static/images/task_images/dig.jpg"",""time"":0.20000000949949026},{""stimulus"":""run_exp/static/images/task_images/land.jpg"",""time"":668.1800000369549},{""stimulus"":""run_exp/static/images/task_images/dig.jpg"",""time"":1337.9600000334904}]",[],2,,,,,,,,,,,,,,
harvest,79,423968,0.0-27.0-4.0,,null,run_exp/static/images/task_images/gems/86.jpg,null,,,,,,19,,,2,,,,,86,0.219906266,0.220930233,,,,,,,
decision,80,424928,0.0-27.0-5.0,,958.455,run_exp/static/images/task_images/land.jpg,65,,,,,,19,,,2,,,,,,,,40004,1,0,FALSE,,,
dig,81,426975,0.0-28.0-0.0,,,,,,,,,,,"[{""stimulus"":""run_exp/static/images/task_images/dig.jpg"",""time"":0.11500000255182385},{""stimulus"":""run_exp/static/images/task_images/land.jpg"",""time"":685.7050000107847},{""stimulus"":""run_exp/static/images/task_images/dig.jpg"",""time"":1361.254999996163}]",[],2,,,,,,,,,,,,,,
harvest,82,427977,0.0-28.0-1.0,,null,run_exp/static/images/task_images/gems/19.jpg,null,,,,,,3,,,2,,,,,19,0.181703001,0.157894737,,,,,,,
decision,83,428709,0.0-28.0-2.0,,730.36,run_exp/static/images/task_images/land.jpg,65,,,,,,3,,,2,,,,,,,,43785,1,1,FALSE,,,
dig,84,430979,0.0-29.0-0.0,,,,,,,,,,,"[{""stimulus"":""run_exp/static/images/task_images/dig.jpg"",""time"":0.11999998241662979},{""stimulus"":""run_exp/static/images/task_images/land.jpg"",""time"":757.1650000172667},{""stimulus"":""run_exp/static/images/task_images/dig.jpg"",""time"":1513.3700000005774}]",[],2,,,,,,,,,,,,,,
harvest,85,431984,0.0-29.0-1.0,,null,run_exp/static/images/task_images/gems/3.jpg,null,,,,,,1,,,2,,,,,3,0.205941281,0.333333333,,,,,,,
decision,86,433524,0.0-29.0-2.0,,1538.575,run_exp/static/images/task_images/land.jpg,65,,,,,,1,,,2,,,,,,,,48600,1,2,FALSE,,,
dig,87,434989,0.0-30.0-0.0,,,,,,,,,,,"[{""stimulus"":""run_exp/static/images/task_images/dig.jpg"",""time"":0.11999998241662979},{""stimulus"":""run_exp/static/images/task_images/land.jpg"",""time"":487.64999996637926},{""stimulus"":""run_exp/static/images/task_images/dig.jpg"",""time"":979.7299999627285}]",[],2,,,,,,,,,,,,,,
harvest,88,435995,0.0-30.0-1.0,,null,run_exp/static/images/task_images/gems/1.jpg,null,,,,,,0,,,2,,,,,1,0.306035279,0,,,,,,,
decision,89,436157,0.0-30.0-2.0,,161.175,run_exp/static/images/task_images/land.jpg,76,,,,,,0,,,2,,,,,,,,51233,1,3,TRUE,,,
travel,90,445998,0.0-31.0-0.0,,,,,,,,,,,"[{""stimulus"":""run_exp/static/images/task_images/rocket-01.jpg"",""time"":0.0950000248849392},{""stimulus"":""run_exp/static/images/task_images/rocket-02.jpg"",""time"":1097.2850000252947},{""stimulus"":""run_exp/static/images/task_images/rocket-03.jpg"",""time"":2188.925000024028},{""stimulus"":""run_exp/static/images/task_images/rocket-04.jpg"",""time"":3283.6699999752454},{""stimulus"":""run_exp/static/images/task_images/rocket-05.jpg"",""time"":4376.564999984112},{""stimulus"":""run_exp/static/images/task_images/rocket-06.jpg"",""time"":5470.160000026226},{""stimulus"":""run_exp/static/images/task_images/rocket-07.jpg"",""time"":6562.570000009146},{""stimulus"":""run_exp/static/images/task_images/rocket-08.jpg"",""time"":7656.710000010207},{""stimulus"":""run_exp/static/images/task_images/rocket-09.jpg"",""time"":8749.739999999292}]",[],2,,,,,,,,,,,,,,
alien_welcome,91,451004,0.0-31.0-1.0,,null,run_exp/static/images/task_images/aliens/old_aliens/planet/alien_planet-33.jpg,null,,,,,,,,,,,,33,"2,38,33,37,64,6,14,77,8,69,10,70,65,26,39,56,18,31,23,20,9,11,59,12,80,27,74,19,47",,,,,,,,,,
land,92,451506,0.0-31.0-2.0,,null,run_exp/static/images/task_images/land.jpg,null,,,,,,111,,,3,,,,,,,,,,,,,,
dig,93,453513,0.0-31.0-3.0,,,,,,,,,,,"[{""stimulus"":""run_exp/static/images/task_images/dig.jpg"",""time"":0.15999999595806003},{""stimulus"":""run_exp/static/images/task_images/land.jpg"",""time"":669.8149999720044},{""stimulus"":""run_exp/static/images/task_images/dig.jpg"",""time"":1337.444999953732}]",[],3,,,,,,,,,,,,,,
harvest,94,454519,0.0-31.0-4.0,,null,run_exp/static/images/task_images/gems/111.jpg,null,,,,,,64,,,3,,,,,111,0.574475966,0.576576577,,,,,,,
decision,95,456136,0.0-31.0-5.0,,1616.64,run_exp/static/images/task_images/land.jpg,65,,,,,,64,,,3,,,,,,,,71212,1,0,FALSE,,,
dig,96,457523,0.0-32.0-0.0,,,,,,,,,,,"[{""stimulus"":""run_exp/static/images/task_images/dig.jpg"",""time"":0.22000004537403584},{""stimulus"":""run_exp/static/images/task_images/land.jpg"",""time"":464.22500000335276},{""stimulus"":""run_exp/static/images/task_images/dig.jpg"",""time"":926.5650000306778}]",[],3,,,,,,,,,,,,,,
harvest,97,458528,0.0-32.0-1.0,,null,run_exp/static/images/task_images/gems/64.jpg,null,,,,,,31,,,3,,,,,64,0.489415722,0.484375,,,,,,,
decision,98,459523,0.0-32.0-2.0,,993.89,run_exp/static/images/task_images/land.jpg,65,,,,,,31,,,3,,,,,,,,74599,1,1,FALSE,,,
dig,99,461531,0.0-33.0-0.0,,,,,,,,,,,"[{""stimulus"":""run_exp/static/images/task_images/dig.jpg"",""time"":0.13500003842636943},{""stimulus"":""run_exp/static/images/task_images/land.jpg"",""time"":672.080000047572},{""stimulus"":""run_exp/static/images/task_images/dig.jpg"",""time"":1338.8450000202283}]",[],3,,,,,,,,,,,,,,
harvest,100,462532,0.0-33.0-1.0,,null,run_exp/static/images/task_images/gems/31.jpg,null,,,,,,17,,,3,,,,,31,0.54051688,0.548387097,,,,,,,
decision,101,462853,0.0-33.0-2.0,,320.265,run_exp/static/images/task_images/land.jpg,65,,,,,,17,,,3,,,,,,,,77929,1,2,FALSE,,,
dig,102,465538,0.0-34.0-0.0,,,,,,,,,,,"[{""stimulus"":""run_exp/static/images/task_images/dig.jpg"",""time"":0.11500000255182385},{""stimulus"":""run_exp/static/images/task_images/land.jpg"",""time"":898.7199999974109},{""stimulus"":""run_exp/static/images/task_images/dig.jpg"",""time"":1791.6799999657087}]",[],3,,,,,,,,,,,,,,
harvest,103,466541,0.0-34.0-1.0,,null,run_exp/static/images/task_images/gems/17.jpg,null,,,,,,10,,,3,,,,,17,0.57933229,0.588235294,,,,,,,
decision,104,466633,0.0-34.0-2.0,,91.04999999,run_exp/static/images/task_images/land.jpg,65,,,,,,10,,,3,,,,,,,,81709,1,3,FALSE,,,
dig,105,469543,0.0-35.0-0.0,,,,,,,,,,,"[{""stimulus"":""run_exp/static/images/task_images/dig.jpg"",""time"":0.15000003622844815},{""stimulus"":""run_exp/static/images/task_images/land.jpg"",""time"":974.480000033509},{""stimulus"":""run_exp/static/images/task_images/dig.jpg"",""time"":1938.9749999972992}]",[],3,,,,,,,,,,,,,,
harvest,106,470548,0.0-35.0-1.0,,null,run_exp/static/images/task_images/gems/10.jpg,null,,,,,,5,,,3,,,,,10,0.499833199,0.5,,,,,,,
decision,107,470874,0.0-35.0-2.0,,324.96,run_exp/static/images/task_images/land.jpg,65,,,,,,5,,,3,,,,,,,,85950,1,4,FALSE,,,
dig,108,473553,0.0-36.0-0.0,,,,,,,,,,,"[{""stimulus"":""run_exp/static/images/task_images/dig.jpg"",""time"":0.1200000406242907},{""stimulus"":""run_exp/static/images/task_images/land.jpg"",""time"":895.920000039041},{""stimulus"":""run_exp/static/images/task_images/dig.jpg"",""time"":1787.6900000264868}]",[],3,,,,,,,,,,,,,,
harvest,109,474558,0.0-36.0-1.0,,null,run_exp/static/images/task_images/gems/5.jpg,null,,,,,,3,,,3,,,,,5,0.546966943,0.6,,,,,,,
decision,110,475599,0.0-36.0-2.0,,1040.295,run_exp/static/images/task_images/land.jpg,76,,,,,,3,,,3,,,,,,,,90675,1,5,TRUE,,,
travel,111,484559,0.0-37.0-0.0,,,,,,,,,,,"[{""stimulus"":""run_exp/static/images/task_images/rocket-01.jpg"",""time"":0.09499996667727828},{""stimulus"":""run_exp/static/images/task_images/rocket-02.jpg"",""time"":997.754999960307},{""stimulus"":""run_exp/static/images/task_images/rocket-03.jpg"",""time"":1991.3700000033714},{""stimulus"":""run_exp/static/images/task_images/rocket-04.jpg"",""time"":2990.6900000059977},{""stimulus"":""run_exp/static/images/task_images/rocket-05.jpg"",""time"":3981.5949999610893},{""stimulus"":""run_exp/static/images/task_images/rocket-06.jpg"",""time"":4976.449999958277},{""stimulus"":""run_exp/static/images/task_images/rocket-07.jpg"",""time"":5975.674999994226},{""stimulus"":""run_exp/static/images/task_images/rocket-08.jpg"",""time"":6969.614999950863},{""stimulus"":""run_exp/static/images/task_images/rocket-09.jpg"",""time"":7960.489999968559}]",[],3,,,,,,,,,,,,,,
alien_welcome,112,489564,0.0-37.0-1.0,,null,run_exp/static/images/task_images/aliens/old_aliens/planet/alien_planet-37.jpg,null,,,,,,,,,,,,37,"2,38,33,37,64,6,14,77,8,69,10,70,65,26,39,56,18,31,23,20,9,11,59,12,80,27,74,19,47",,,,,,,,,,
land,113,490069,0.0-37.0-2.0,,null,run_exp/static/images/task_images/land.jpg,null,,,,,,100,,,4,,,,,,,,,,,,,,
dig,114,492073,0.0-37.0-3.0,,,,,,,,,,,"[{""stimulus"":""run_exp/static/images/task_images/dig.jpg"",""time"":0.15999999595806003},{""stimulus"":""run_exp/static/images/task_images/land.jpg"",""time"":668.2349999900907},{""stimulus"":""run_exp/static/images/task_images/dig.jpg"",""time"":1336.4600000204518}]",[],4,,,,,,,,,,,,,,
harvest,115,493079,0.0-37.0-4.0,,null,run_exp/static/images/task_images/gems/100.jpg,null,,,,,,38,,,4,,,,,100,0.378880675,0.38,,,,,,,
decision,116,493903,0.0-37.0-5.0,,823.5150001,run_exp/static/images/task_images/land.jpg,65,,,,,,38,,,4,,,,,,,,108979,1,0,FALSE,,,
dig,117,496082,0.0-38.0-0.0,,,,,,,,,,,"[{""stimulus"":""run_exp/static/images/task_images/dig.jpg"",""time"":0.11500000255182385},{""stimulus"":""run_exp/static/images/task_images/land.jpg"",""time"":730.455000011716},{""stimulus"":""run_exp/static/images/task_images/dig.jpg"",""time"":1453.0599999707192}]",[],4,,,,,,,,,,,,,,
harvest,118,497084,0.0-38.0-1.0,,null,run_exp/static/images/task_images/gems/38.jpg,null,,,,,,20,,,4,,,,,38,0.516860928,0.526315789,,,,,,,
decision,119,497998,0.0-38.0-2.0,,913.735,run_exp/static/images/task_images/land.jpg,65,,,,,,20,,,4,,,,,,,,113075,1,1,FALSE,,,
dig,120,500090,0.0-39.0-0.0,,,,,,,,,,,"[{""stimulus"":""run_exp/static/images/task_images/dig.jpg"",""time"":0.12499996228143573},{""stimulus"":""run_exp/static/images/task_images/land.jpg"",""time"":698.6399999586865},{""stimulus"":""run_exp/static/images/task_images/dig.jpg"",""time"":1392.5799999851733}]",[],4,,,,,,,,,,,,,,
harvest,121,501093,0.0-39.0-1.0,,null,run_exp/static/images/task_images/gems/20.jpg,null,,,,,,8,,,4,,,,,20,0.413273036,0.4,,,,,,,
decision,122,502285,0.0-39.0-2.0,,1191.22,run_exp/static/images/task_images/land.jpg,65,,,,,,8,,,4,,,,,,,,117361,1,2,FALSE,,,
dig,123,504093,0.0-40.0-0.0,,,,,,,,,,,"[{""stimulus"":""run_exp/static/images/task_images/dig.jpg"",""time"":0.11999998241662979},{""stimulus"":""run_exp/static/images/task_images/land.jpg"",""time"":606.5999999991618},{""stimulus"":""run_exp/static/images/task_images/dig.jpg"",""time"":1205.6400000001304}]",[],4,,,,,,,,,,,,,,
harvest,124,505094,0.0-40.0-1.0,,null,run_exp/static/images/task_images/gems/8.jpg,null,,,,,,4,,,4,,,,,8,0.479676136,0.5,,,,,,,
decision,125,505592,0.0-40.0-2.0,,496.985,run_exp/static/images/task_images/land.jpg,76,,,,,,4,,,4,,,,,,,,120668,1,3,TRUE,,,
travel,126,515093,0.0-41.0-0.0,,,,,,,,,,,"[{""stimulus"":""run_exp/static/images/task_images/rocket-01.jpg"",""time"":0.11999998241662979},{""stimulus"":""run_exp/static/images/task_images/rocket-02.jpg"",""time"":1057.5250000110827},{""stimulus"":""run_exp/static/images/task_images/rocket-03.jpg"",""time"":2115.1299999910407},{""stimulus"":""run_exp/static/images/task_images/rocket-04.jpg"",""time"":3167.0199999934994},{""stimulus"":""run_exp/static/images/task_images/rocket-05.jpg"",""time"":4224.830000021029},{""stimulus"":""run_exp/static/images/task_images/rocket-06.jpg"",""time"":5275.590000033844},{""stimulus"":""run_exp/static/images/task_images/rocket-07.jpg"",""time"":6335.109999985434},{""stimulus"":""run_exp/static/images/task_images/rocket-08.jpg"",""time"":7385.974999982864},{""stimulus"":""run_exp/static/images/task_images/rocket-09.jpg"",""time"":8443.190000019968}]",[],4,,,,,,,,,,,,,,
alien_welcome,127,520098,0.0-41.0-1.0,,null,run_exp/static/images/task_images/aliens/old_aliens/planet/alien_planet-64.jpg,null,,,,,,,,,,,,64,"2,38,33,37,64,6,14,77,8,69,10,70,65,26,39,56,18,31,23,20,9,11,59,12,80,27,74,19,47",,,,,,,,,,
land,128,520599,0.0-41.0-2.0,,null,run_exp/static/images/task_images/land.jpg,null,,,,,,103,,,5,,,,,,,,,,,,,,
dig,129,522607,0.0-41.0-3.0,,,,,,,,,,,"[{""stimulus"":""run_exp/static/images/task_images/dig.jpg"",""time"":0.15999999595806003},{""stimulus"":""run_exp/static/images/task_images/land.jpg"",""time"":667.989999987185},{""stimulus"":""run_exp/static/images/task_images/dig.jpg"",""time"":1337.775000021793}]",[],5,,,,,,,,,,,,,,
harvest,130,523610,0.0-41.0-4.0,,null,run_exp/static/images/task_images/gems/103.jpg,null,,,,,,52,,,5,,,,,103,0.500032597,0.504854369,,,,,,,
decision,131,524425,0.0-41.0-5.0,,814.15,run_exp/static/images/task_images/land.jpg,65,,,,,,52,,,5,,,,,,,,139501,1,0,FALSE,,,
dig,132,526615,0.0-42.0-0.0,,,,,,,,,,,"[{""stimulus"":""run_exp/static/images/task_images/dig.jpg"",""time"":0.15999999595806003},{""stimulus"":""run_exp/static/images/task_images/land.jpg"",""time"":733.0949999741279},{""stimulus"":""run_exp/static/images/task_images/dig.jpg"",""time"":1461.7699999944307}]",[],5,,,,,,,,,,,,,,
harvest,133,527618,0.0-42.0-1.0,,null,run_exp/static/images/task_images/gems/52.jpg,null,,,,,,25,,,5,,,,,52,0.489296678,0.480769231,,,,,,,
decision,134,528081,0.0-42.0-2.0,,463.06,run_exp/static/images/task_images/land.jpg,65,,,,,,25,,,5,,,,,,,,143158,1,1,FALSE,,,
dig,135,530624,0.0-43.0-0.0,,,,,,,,,,,"[{""stimulus"":""run_exp/static/images/task_images/dig.jpg"",""time"":0.12499996228143573},{""stimulus"":""run_exp/static/images/task_images/land.jpg"",""time"":847.559999965597},{""stimulus"":""run_exp/static/images/task_images/dig.jpg"",""time"":1692.9399999789894}]",[],5,,,,,,,,,,,,,,
harvest,136,531626,0.0-43.0-1.0,,null,run_exp/static/images/task_images/gems/25.jpg,null,,,,,,14,,,5,,,,,25,0.561197656,0.56,,,,,,,
decision,137,531985,0.0-43.0-2.0,,358.575,run_exp/static/images/task_images/land.jpg,65,,,,,,14,,,5,,,,,,,,147061,1,2,FALSE,,,
dig,138,534628,0.0-44.0-0.0,,,,,,,,,,,"[{""stimulus"":""run_exp/static/images/task_images/dig.jpg"",""time"":0.12499996228143573},{""stimulus"":""run_exp/static/images/task_images/land.jpg"",""time"":882.2549999458715},{""stimulus"":""run_exp/static/images/task_images/dig.jpg"",""time"":1765.6549999956042}]",[],5,,,,,,,,,,,,,,
harvest,139,535633,0.0-44.0-1.0,,null,run_exp/static/images/task_images/gems/14.jpg,null,,,,,,7,,,5,,,,,14,0.528016959,0.5,,,,,,,
decision,140,536103,0.0-44.0-2.0,,468.58,run_exp/static/images/task_images/land.jpg,65,,,,,,7,,,5,,,,,,,,151179,1,3,FALSE,,,
dig,141,538638,0.0-45.0-0.0,,,,,,,,,,,"[{""stimulus"":""run_exp/static/images/task_images/dig.jpg"",""time"":0.15000003622844815},{""stimulus"":""run_exp/static/images/task_images/land.jpg"",""time"":845.4650000203401},{""stimulus"":""run_exp/static/images/task_images/dig.jpg"",""time"":1687.86500004353}]",[],5,,,,,,,,,,,,,,
harvest,142,539640,0.0-45.0-1.0,,null,run_exp/static/images/task_images/gems/7.jpg,null,,,,,,3,,,5,,,,,7,0.419221502,0.428571429,,,,,,,
decision,143,542291,0.0-45.0-2.0,,2649.91,run_exp/static/images/task_images/land.jpg,65,,,,,,3,,,5,,,,,,,,157367,1,4,FALSE,,,
dig,144,542646,0.0-46.0-0.0,,,,,,,,,,,"[{""stimulus"":""run_exp/static/images/task_images/dig.jpg"",""time"":0.13000000035390258},{""stimulus"":""run_exp/static/images/task_images/land.jpg"",""time"":117.75000003399327},{""stimulus"":""run_exp/static/images/task_images/dig.jpg"",""time"":235.06000003544614}]",[],5,,,,,,,,,,,,,,
harvest,145,543647,0.0-46.0-1.0,,null,run_exp/static/images/task_images/gems/3.jpg,null,,,,,,1,,,5,,,,,3,0.444149978,0.333333333,,,,,,,
decision,146,544405,0.0-46.0-2.0,,757.715,run_exp/static/images/task_images/land.jpg,76,,,,,,1,,,5,,,,,,,,159481,1,5,TRUE,,,
travel,147,553642,0.0-47.0-0.0,,,,,,,,,,,"[{""stimulus"":""run_exp/static/images/task_images/rocket-01.jpg"",""time"":0.1200000406242907},{""stimulus"":""run_exp/static/images/task_images/rocket-02.jpg"",""time"":1031.4000000362284},{""stimulus"":""run_exp/static/images/task_images/rocket-03.jpg"",""time"":2054.6900000190362},{""stimulus"":""run_exp/static/images/task_images/rocket-04.jpg"",""time"":3083.314999996219},{""stimulus"":""run_exp/static/images/task_images/rocket-05.jpg"",""time"":4104.920000012498},{""stimulus"":""run_exp/static/images/task_images/rocket-06.jpg"",""time"":5134.66999999946},{""stimulus"":""run_exp/static/images/task_images/rocket-07.jpg"",""time"":6158.560000010766},{""stimulus"":""run_exp/static/images/task_images/rocket-08.jpg"",""time"":7184.910000010859},{""stimulus"":""run_exp/static/images/task_images/rocket-09.jpg"",""time"":8209.18000000529}]",[],5,,,,,,,,,,,,,,
alien_welcome,148,558644,0.0-47.0-1.0,,null,run_exp/static/images/task_images/aliens/old_aliens/planet/alien_planet-6.jpg,null,,,,,,,,,,,,6,"2,38,33,37,64,6,14,77,8,69,10,70,65,26,39,56,18,31,23,20,9,11,59,12,80,27,74,19,47",,,,,,,,,,
land,149,559145,0.0-47.0-2.0,,null,run_exp/static/images/task_images/land.jpg,null,,,,,,99,,,6,,,,,,,,,,,,,,
dig,150,561150,0.0-47.0-3.0,,,,,,,,,,,"[{""stimulus"":""run_exp/static/images/task_images/dig.jpg"",""time"":0.14999997802078724},{""stimulus"":""run_exp/static/images/task_images/land.jpg"",""time"":668.7749999691732},{""stimulus"":""run_exp/static/images/task_images/dig.jpg"",""time"":1339.6899999934249}]",[],6,,,,,,,,,,,,,,
harvest,151,562153,0.0-47.0-4.0,,null,run_exp/static/images/task_images/gems/99.jpg,null,,,,,,78,,,6,,,,,99,0.79013881,0.787878788,,,,,,,
decision,152,563070,0.0-47.0-5.0,,916.485,run_exp/static/images/task_images/land.jpg,65,,,,,,78,,,6,,,,,,,,178146,1,0,FALSE,,,
dig,153,565154,0.0-48.0-0.0,,,,,,,,,,,"[{""stimulus"":""run_exp/static/images/task_images/dig.jpg"",""time"":0.13000000035390258},{""stimulus"":""run_exp/static/images/task_images/land.jpg"",""time"":698.084999981802},{""stimulus"":""run_exp/static/images/task_images/dig.jpg"",""time"":1391.364999988582}]",[],6,,,,,,,,,,,,,,
harvest,154,566160,0.0-48.0-1.0,,null,run_exp/static/images/task_images/gems/78.jpg,null,,,,,,69,,,6,,,,,78,0.881038452,0.884615385,,,,,,,
decision,155,566591,0.0-48.0-2.0,,429.8,run_exp/static/images/task_images/land.jpg,65,,,,,,69,,,6,,,,,,,,181667,1,1,FALSE,,,
dig,156,569162,0.0-49.0-0.0,,,,,,,,,,,"[{""stimulus"":""run_exp/static/images/task_images/dig.jpg"",""time"":0.11500000255182385},{""stimulus"":""run_exp/static/images/task_images/land.jpg"",""time"":859.4750000047497},{""stimulus"":""run_exp/static/images/task_images/dig.jpg"",""time"":1716.7400000034831}]",[],6,,,,,,,,,,,,,,
harvest,157,570166,0.0-49.0-1.0,,null,run_exp/static/images/task_images/gems/69.jpg,null,,,,,,54,,,6,,,,,69,0.781540431,0.782608696,,,,,,,
decision,158,570337,0.0-49.0-2.0,,169.755,run_exp/static/images/task_images/land.jpg,65,,,,,,54,,,6,,,,,,,,185413,1,2,FALSE,,,
dig,159,573169,0.0-50.0-0.0,,,,,,,,,,,"[{""stimulus"":""run_exp/static/images/task_images/dig.jpg"",""time"":0.13000000035390258},{""stimulus"":""run_exp/static/images/task_images/land.jpg"",""time"":944.9250000179745},{""stimulus"":""run_exp/static/images/task_images/dig.jpg"",""time"":1887.8699999768287}]",[],6,,,,,,,,,,,,,,
harvest,160,574172,0.0-50.0-1.0,,null,run_exp/static/images/task_images/gems/54.jpg,null,,,,,,44,,,6,,,,,54,0.807387235,0.814814815,,,,,,,
decision,161,574410,0.0-50.0-2.0,,237.28,run_exp/static/images/task_images/land.jpg,65,,,,,,44,,,6,,,,,,,,189486,1,3,FALSE,,,
dig,162,577174,0.0-51.0-0.0,,,,,,,,,,,"[{""stimulus"":""run_exp/static/images/task_images/dig.jpg"",""time"":0.13500003842636943},{""stimulus"":""run_exp/static/images/task_images/land.jpg"",""time"":923.3799999929033},{""stimulus"":""run_exp/static/images/task_images/dig.jpg"",""time"":1840.9250000258908}]",[],6,,,,,,,,,,,,,,
harvest,163,578180,0.0-51.0-1.0,,null,run_exp/static/images/task_images/gems/44.jpg,null,,,,,,37,,,6,,,,,44,0.842110874,0.840909091,,,,,,,
decision,164,578572,0.0-51.0-2.0,,391.31,run_exp/static/images/task_images/land.jpg,65,,,,,,37,,,6,,,,,,,,193648,1,4,FALSE,,,
dig,165,581184,0.0-52.0-0.0,,,,,,,,,,,"[{""stimulus"":""run_exp/static/images/task_images/dig.jpg"",""time"":0.14000001829117537},{""stimulus"":""run_exp/static/images/task_images/land.jpg"",""time"":872.1500000101514},{""stimulus"":""run_exp/static/images/task_images/dig.jpg"",""time"":1738.8350000255741}]",[],6,,,,,,,,,,,,,,
harvest,166,582190,0.0-52.0-1.0,,null,run_exp/static/images/task_images/gems/37.jpg,null,,,,,,31,,,6,,,,,37,0.827653593,0.837837838,,,,,,,
decision,167,582904,0.0-52.0-2.0,,712.57,run_exp/static/images/task_images/land.jpg,65,,,,,,31,,,6,,,,,,,,197980,1,5,FALSE,,,
dig,168,585193,0.0-53.0-0.0,,,,,,,,,,,"[{""stimulus"":""run_exp/static/images/task_images/dig.jpg"",""time"":0.13000000035390258},{""stimulus"":""run_exp/static/images/task_images/land.jpg"",""time"":763.3700000005774},{""stimulus"":""run_exp/static/images/task_images/dig.jpg"",""time"":1527.63500000583}]",[],6,,,,,,,,,,,,,,
harvest,169,586195,0.0-53.0-1.0,,null,run_exp/static/images/task_images/gems/31.jpg,null,,,,,,27,,,6,,,,,31,0.873040743,0.870967742,,,,,,,
decision,170,586796,0.0-53.0-2.0,,600.27,run_exp/static/images/task_images/land.jpg,65,,,,,,27,,,6,,,,,,,,201872,1,6,FALSE,,,
dig,171,589201,0.0-54.0-0.0,,,,,,,,,,,"[{""stimulus"":""run_exp/static/images/task_images/dig.jpg"",""time"":0.13000000035390258},{""stimulus"":""run_exp/static/images/task_images/land.jpg"",""time"":804.7199999564327},{""stimulus"":""run_exp/static/images/task_images/dig.jpg"",""time"":1600.1699999906123}]",[],6,,,,,,,,,,,,,,
harvest,172,590204,0.0-54.0-1.0,,null,run_exp/static/images/task_images/gems/27.jpg,null,,,,,,20,,,6,,,,,27,0.73734288,0.740740741,,,,,,,
decision,173,590531,0.0-54.0-2.0,,326.125,run_exp/static/images/task_images/land.jpg,65,,,,,,20,,,6,,,,,,,,205607,1,7,FALSE,,,
dig,174,593209,0.0-55.0-0.0,,,,,,,,,,,"[{""stimulus"":""run_exp/static/images/task_images/dig.jpg"",""time"":0.12500002048909664},{""stimulus"":""run_exp/static/images/task_images/land.jpg"",""time"":894.0900000161491},{""stimulus"":""run_exp/static/images/task_images/dig.jpg"",""time"":1787.7650000154972}]",[],6,,,,,,,,,,,,,,
harvest,175,594211,0.0-55.0-1.0,,null,run_exp/static/images/task_images/gems/20.jpg,null,,,,,,15,,,6,,,,,20,0.761634373,0.75,,,,,,,
decision,176,594750,0.0-55.0-2.0,,538.02,run_exp/static/images/task_images/land.jpg,65,,,,,,15,,,6,,,,,,,,209826,1,8,FALSE,,,
dig,177,597214,0.0-56.0-0.0,,,,,,,,,,,"[{""stimulus"":""run_exp/static/images/task_images/dig.jpg"",""time"":0.11999998241662979},{""stimulus"":""run_exp/static/images/task_images/land.jpg"",""time"":821.1449999944307},{""stimulus"":""run_exp/static/images/task_images/dig.jpg"",""time"":1644.9099999736063}]",[],6,,,,,,,,,,,,,,
harvest,178,598214,0.0-56.0-1.0,,null,run_exp/static/images/task_images/gems/15.jpg,null,,,,,,11,,,6,,,,,15,0.745781635,0.733333333,,,,,,,
decision,179,600307,0.0-56.0-2.0,,2092.46,run_exp/static/images/task_images/land.jpg,65,,,,,,11,,,6,,,,,,,,215383,1,9,FALSE,,,
dig,180,601216,0.0-57.0-0.0,,,,,,,,,,,"[{""stimulus"":""run_exp/static/images/task_images/dig.jpg"",""time"":0.10500004282221198},{""stimulus"":""run_exp/static/images/task_images/land.jpg"",""time"":302.5900000357069},{""stimulus"":""run_exp/static/images/task_images/dig.jpg"",""time"":605.4450000519864}]",[],6,,,,,,,,,,,,,,
harvest,181,602220,0.0-57.0-1.0,,null,run_exp/static/images/task_images/gems/11.jpg,null,,,,,,9,,,6,,,,,11,0.80243603,0.818181818,,,,,,,
decision,182,604189,0.0-57.0-2.0,,1967.87,run_exp/static/images/task_images/land.jpg,65,,,,,,9,,,6,,,,,,,,219265,1,10,FALSE,,,
dig,183,605225,0.0-58.0-0.0,,,,,,,,,,,"[{""stimulus"":""run_exp/static/images/task_images/dig.jpg"",""time"":0.1449999981559813},{""stimulus"":""run_exp/static/images/task_images/land.jpg"",""time"":346.54500003671274},{""stimulus"":""run_exp/static/images/task_images/dig.jpg"",""time"":693.1500000064261}]",[],6,,,,,,,,,,,,,,
harvest,184,606226,0.0-58.0-1.0,,null,run_exp/static/images/task_images/gems/9.jpg,null,,,,,,8,,,6,,,,,9,0.847295881,0.888888889,,,,,,,
decision,185,606900,0.0-58.0-2.0,,673.53,run_exp/static/images/task_images/land.jpg,65,,,,,,8,,,6,,,,,,,,221976,1,11,FALSE,,,
dig,186,609232,0.0-59.0-0.0,,,,,,,,,,,"[{""stimulus"":""run_exp/static/images/task_images/dig.jpg"",""time"":0.13000000035390258},{""stimulus"":""run_exp/static/images/task_images/land.jpg"",""time"":780.4100000066683},{""stimulus"":""run_exp/static/images/task_images/dig.jpg"",""time"":1555.7600000174716}]",[],6,,,,,,,,,,,,,,
harvest,187,610234,0.0-59.0-1.0,,null,run_exp/static/images/task_images/gems/8.jpg,null,,,,,,6,,,6,,,,,8,0.789069031,0.75,,,,,,,
decision,188,610489,0.0-59.0-2.0,,254.265,run_exp/static/images/task_images/land.jpg,65,,,,,,6,,,6,,,,,,,,225565,1,12,FALSE,,,
dig,189,613237,0.0-60.0-0.0,,,,,,,,,,,"[{""stimulus"":""run_exp/static/images/task_images/dig.jpg"",""time"":0.1449999981559813},{""stimulus"":""run_exp/static/images/task_images/land.jpg"",""time"":916.2150000338443},{""stimulus"":""run_exp/static/images/task_images/dig.jpg"",""time"":1835.7550000073388}]",[],6,,,,,,,,,,,,,,
harvest,190,614242,0.0-60.0-1.0,,null,run_exp/static/images/task_images/gems/6.jpg,null,,,,,,5,,,6,,,,,6,0.808093331,0.833333333,,,,,,,
decision,191,614607,0.0-60.0-2.0,,364.27,run_exp/static/images/task_images/land.jpg,76,,,,,,5,,,6,,,,,,,,229683,1,13,TRUE,,,
travel,192,624239,0.0-61.0-0.0,,,,,,,,,,,"[{""stimulus"":""run_exp/static/images/task_images/rocket-01.jpg"",""time"":0.13500003842636943},{""stimulus"":""run_exp/static/images/task_images/rocket-02.jpg"",""time"":1074.3550000479445},{""stimulus"":""run_exp/static/images/task_images/rocket-03.jpg"",""time"":2140.7950000138953},{""stimulus"":""run_exp/static/images/task_images/rocket-04.jpg"",""time"":3211.410000047181},{""stimulus"":""run_exp/static/images/task_images/rocket-05.jpg"",""time"":4285.7350000413135},{""stimulus"":""run_exp/static/images/task_images/rocket-06.jpg"",""time"":5355.175000033341},{""stimulus"":""run_exp/static/images/task_images/rocket-07.jpg"",""time"":6425.750000053085},{""stimulus"":""run_exp/static/images/task_images/rocket-08.jpg"",""time"":7491.165000014007},{""stimulus"":""run_exp/static/images/task_images/rocket-09.jpg"",""time"":8563.135000003967}]",[],6,,,,,,,,,,,,,,
alien_welcome,193,629242,0.0-61.0-1.0,,null,run_exp/static/images/task_images/aliens/old_aliens/planet/alien_planet-14.jpg,null,,,,,,,,,,,,14,"2,38,33,37,64,6,14,77,8,69,10,70,65,26,39,56,18,31,23,20,9,11,59,12,80,27,74,19,47",,,,,,,,,,
land,194,629742,0.0-61.0-2.0,,null,run_exp/static/images/task_images/land.jpg,null,,,,,,107,,,7,,,,,,,,,,,,,,
dig,195,631749,0.0-61.0-3.0,,,,,,,,,,,"[{""stimulus"":""run_exp/static/images/task_images/dig.jpg"",""time"":0.14999997802078724},{""stimulus"":""run_exp/static/images/task_images/land.jpg"",""time"":670.6499999854714},{""stimulus"":""run_exp/static/images/task_images/dig.jpg"",""time"":1339.6049999864772}]",[],7,,,,,,,,,,,,,,
harvest,196,632750,0.0-61.0-4.0,,null,run_exp/static/images/task_images/gems/107.jpg,null,,,,,,89,,,7,,,,,107,0.831007491,0.831775701,,,,,,,
decision,197,633484,0.0-61.0-5.0,,733.11,run_exp/static/images/task_images/land.jpg,65,,,,,,89,,,7,,,,,,,,248560,1,0,FALSE,,,
dig,198,635752,0.0-62.0-0.0,,,,,,,,,,,"[{""stimulus"":""run_exp/static/images/task_images/dig.jpg"",""time"":0.1200000406242907},{""stimulus"":""run_exp/static/images/task_images/land.jpg"",""time"":755.8300000382587},{""stimulus"":""run_exp/static/images/task_images/dig.jpg"",""time"":1510.7150000403635}]",[],7,,,,,,,,,,,,,,
harvest,199,636757,0.0-62.0-1.0,,null,run_exp/static/images/task_images/gems/89.jpg,null,,,,,,72,,,7,,,,,89,0.810353162,0.808988764,,,,,,,
decision,200,636927,0.0-62.0-2.0,,168.755,run_exp/static/images/task_images/land.jpg,65,,,,,,72,,,7,,,,,,,,252003,1,1,FALSE,,,
dig,201,639760,0.0-63.0-0.0,,,,,,,,,,,"[{""stimulus"":""run_exp/static/images/task_images/dig.jpg"",""time"":0.1449999981559813},{""stimulus"":""run_exp/static/images/task_images/land.jpg"",""time"":944.4500000099652},{""stimulus"":""run_exp/static/images/task_images/dig.jpg"",""time"":1889.45000001695}]",[],7,,,,,,,,,,,,,,
harvest,202,640761,0.0-63.0-1.0,,null,run_exp/static/images/task_images/gems/72.jpg,null,,,,,,54,,,7,,,,,72,0.756215285,0.75,,,,,,,
decision,203,641326,0.0-63.0-2.0,,563.895,run_exp/static/images/task_images/land.jpg,65,,,,,,54,,,7,,,,,,,,256402,1,2,FALSE,,,
dig,204,643764,0.0-64.0-0.0,,,,,,,,,,,"[{""stimulus"":""run_exp/static/images/task_images/dig.jpg"",""time"":0.13499998021870852},{""stimulus"":""run_exp/static/images/task_images/land.jpg"",""time"":814.5800000056624},{""stimulus"":""run_exp/static/images/task_images/dig.jpg"",""time"":1626.0849999962375}]",[],7,,,,,,,,,,,,,,
harvest,205,644770,0.0-64.0-1.0,,null,run_exp/static/images/task_images/gems/54.jpg,null,,,,,,48,,,7,,,,,54,0.880166969,0.888888889,,,,,,,
decision,206,645308,0.0-64.0-2.0,,537.1599999,run_exp/static/images/task_images/land.jpg,65,,,,,,48,,,7,,,,,,,,260384,1,3,FALSE,,,
dig,207,647771,0.0-65.0-0.0,,,,,,,,,,,"[{""stimulus"":""run_exp/static/images/task_images/dig.jpg"",""time"":0.1449999981559813},{""stimulus"":""run_exp/static/images/task_images/land.jpg"",""time"":825.2150000189431},{""stimulus"":""run_exp/static/images/task_images/dig.jpg"",""time"":1644.5700000040233}]",[],7,,,,,,,,,,,,,,
harvest,208,648772,0.0-65.0-1.0,,null,run_exp/static/images/task_images/gems/48.jpg,null,,,,,,35,,,7,,,,,48,0.733466155,0.729166667,,,,,,,
decision,209,649482,0.0-65.0-2.0,,709.75,run_exp/static/images/task_images/land.jpg,65,,,,,,35,,,7,,,,,,,,264558,1,4,FALSE,,,
dig,210,651774,0.0-66.0-0.0,,,,,,,,,,,"[{""stimulus"":""run_exp/static/images/task_images/dig.jpg"",""time"":0.11999998241662979},{""stimulus"":""run_exp/static/images/task_images/land.jpg"",""time"":765.2999999700114},{""stimulus"":""run_exp/static/images/task_images/dig.jpg"",""time"":1529.5599999953993}]",[],7,,,,,,,,,,,,,,
harvest,211,652774,0.0-66.0-1.0,,null,run_exp/static/images/task_images/gems/35.jpg,null,,,,,,30,,,7,,,,,35,0.850519741,0.857142857,,,,,,,
decision,212,655163,0.0-66.0-2.0,,2388.08,run_exp/static/images/task_images/land.jpg,65,,,,,,30,,,7,,,,,,,,270239,1,5,FALSE,,,
dig,213,655780,0.0-67.0-0.0,,,,,,,,,,,"[{""stimulus"":""run_exp/static/images/task_images/dig.jpg"",""time"":0.13000000035390258},{""stimulus"":""run_exp/static/images/task_images/land.jpg"",""time"":208.76499998848885},{""stimulus"":""run_exp/static/images/task_images/dig.jpg"",""time"":408.90999999828637}]",[],7,,,,,,,,,,,,,,
harvest,214,656782,0.0-67.0-1.0,,null,run_exp/static/images/task_images/gems/30.jpg,null,,,,,,24,,,7,,,,,30,0.787040294,0.8,,,,,,,
decision,215,659783,0.0-67.0-2.0,,null,run_exp/static/images/task_images/land.jpg,null,,,,,,24,,,7,,,,,,,,274859,1,6,FALSE,,,
time_out,216,661785,0.0-68.0-0.0,,null,run_exp/static/images/task_images/time_out.jpg,null,,,,,,24,,,,,,,,,,,,,,,,,
decision,217,662251,0.0-68.0-1.0,,465.31,run_exp/static/images/task_images/land.jpg,65,,,,,,24,,,7,,,,,,,,277327,1,6,FALSE,,,
dig,218,664789,0.0-69.0-0.0,,,,,,,,,,,"[{""stimulus"":""run_exp/static/images/task_images/dig.jpg"",""time"":0.08999998681247234},{""stimulus"":""run_exp/static/images/task_images/land.jpg"",""time"":847.3850000300445},{""stimulus"":""run_exp/static/images/task_images/dig.jpg"",""time"":1689.8749999818392}]",[],7,,,,,,,,,,,,,,
harvest,219,665794,0.0-69.0-1.0,,null,run_exp/static/images/task_images/gems/24.jpg,null,,,,,,20,,,7,,,,,24,0.820171268,0.833333333,,,,,,,
decision,220,666200,0.0-69.0-2.0,,404.945,run_exp/static/images/task_images/land.jpg,65,,,,,,20,,,7,,,,,,,,281276,1,7,FALSE,,,
dig,221,668798,0.0-70.0-0.0,,,,,,,,,,,"[{""stimulus"":""run_exp/static/images/task_images/dig.jpg"",""time"":0.1449999981559813},{""stimulus"":""run_exp/static/images/task_images/land.jpg"",""time"":866.5400000172667},{""stimulus"":""run_exp/static/images/task_images/dig.jpg"",""time"":1733.5650000022724}]",[],7,,,,,,,,,,,,,,
harvest,222,669799,0.0-70.0-1.0,,null,run_exp/static/images/task_images/gems/20.jpg,null,,,,,,17,,,7,,,,,20,0.827678218,0.85,,,,,,,
decision,223,670475,0.0-70.0-2.0,,674.865,run_exp/static/images/task_images/land.jpg,65,,,,,,17,,,7,,,,,,,,285551,1,8,FALSE,,,
dig,224,672803,0.0-71.0-0.0,,,,,,,,,,,"[{""stimulus"":""run_exp/static/images/task_images/dig.jpg"",""time"":0.12499996228143573},{""stimulus"":""run_exp/static/images/task_images/land.jpg"",""time"":777.9749999754131},{""stimulus"":""run_exp/static/images/task_images/dig.jpg"",""time"":1554.1399999638088}]",[],7,,,,,,,,,,,,,,
harvest,225,673804,0.0-71.0-1.0,,null,run_exp/static/images/task_images/gems/17.jpg,null,,,,,,12,,,7,,,,,17,0.706858231,0.705882353,,,,,,,
decision,226,674221,0.0-71.0-2.0,,416.34,run_exp/static/images/task_images/land.jpg,65,,,,,,12,,,7,,,,,,,,289297,1,9,FALSE,,,
dig,227,676807,0.0-72.0-0.0,,,,,,,,,,,"[{""stimulus"":""run_exp/static/images/task_images/dig.jpg"",""time"":0.12500002048909664},{""stimulus"":""run_exp/static/images/task_images/land.jpg"",""time"":862.7850000048056},{""stimulus"":""run_exp/static/images/task_images/dig.jpg"",""time"":1724.350000033155}]",[],7,,,,,,,,,,,,,,
harvest,228,677813,0.0-72.0-1.0,,null,run_exp/static/images/task_images/gems/12.jpg,null,,,,,,10,,,7,,,,,12,0.861598193,0.833333333,,,,,,,
decision,229,678440,0.0-72.0-2.0,,626.535,run_exp/static/images/task_images/land.jpg,65,,,,,,10,,,7,,,,,,,,293516,1,10,FALSE,,,
dig,230,680816,0.0-73.0-0.0,,,,,,,,,,,"[{""stimulus"":""run_exp/static/images/task_images/dig.jpg"",""time"":0.1200000406242907},{""stimulus"":""run_exp/static/images/task_images/land.jpg"",""time"":792.0600000070408},{""stimulus"":""run_exp/static/images/task_images/dig.jpg"",""time"":1587.5300000188872}]",[],7,,,,,,,,,,,,,,
harvest,231,681822,0.0-73.0-1.0,,null,run_exp/static/images/task_images/gems/10.jpg,null,,,,,,8,,,7,,,,,10,0.798568896,0.8,,,,,,,
decision,232,682197,0.0-73.0-2.0,,374.73,run_exp/static/images/task_images/land.jpg,65,,,,,,8,,,7,,,,,,,,297273,1,11,FALSE,,,
dig,233,684828,0.0-74.0-0.0,,,,,,,,,,,"[{""stimulus"":""run_exp/static/images/task_images/dig.jpg"",""time"":0.12499996228143573},{""stimulus"":""run_exp/static/images/task_images/land.jpg"",""time"":880.704999959562},{""stimulus"":""run_exp/static/images/task_images/dig.jpg"",""time"":1751.2299999943934}]",[],7,,,,,,,,,,,,,,
harvest,234,685834,0.0-74.0-1.0,,null,run_exp/static/images/task_images/gems/8.jpg,null,,,,,,6,,,7,,,,,8,0.77091003,0.75,,,,,,,
decision,235,687496,0.0-74.0-2.0,,1661.785,run_exp/static/images/task_images/land.jpg,76,,,,,,6,,,7,,,,,,,,302572,1,12,TRUE,,,
end_of_block_continue,236,696347,0.0-75.0-0.0,,null,run_exp/static/audio/clip_32_block_end.m4a,,,,,,null,,,,,,,,,,,,,,,,,,
alien_welcome,237,701361,0.0-76.0-0.0,,null,run_exp/static/images/task_images/aliens/old_aliens/planet/alien_planet-77.jpg,null,,,,,,,,,,,,77,"2,38,33,37,64,6,14,77,8,69,10,70,65,26,39,56,18,31,23,20,9,11,59,12,80,27,74,19,47",,,,,,,,,,
land,238,701863,0.0-76.0-1.0,,null,run_exp/static/images/task_images/land.jpg,null,,,,,,96,,,8,,,,,,,,,,,,,,
dig,239,703866,0.0-76.0-2.0,,,,,,,,,,,"[{""stimulus"":""run_exp/static/images/task_images/dig.jpg"",""time"":0.1550000160932541},{""stimulus"":""run_exp/static/images/task_images/land.jpg"",""time"":672.7350000292063},{""stimulus"":""run_exp/static/images/task_images/dig.jpg"",""time"":1339.7300000069663}]",[],8,,,,,,,,,,,,,,
harvest,240,704868,0.0-76.0-3.0,,null,run_exp/static/images/task_images/gems/96.jpg,null,,,,,,33,,,8,,,,,96,0.345073399,0.34375,,,,,,,
decision,241,706757,0.0-76.0-4.0,,1888.06,run_exp/static/images/task_images/land.jpg,65,,,,,,33,,,8,,,,,,,,10399,2,0,FALSE,,,
dig,242,707874,0.0-77.0-0.0,,,,,,,,,,,"[{""stimulus"":""run_exp/static/images/task_images/dig.jpg"",""time"":0.14000001829117537},{""stimulus"":""run_exp/static/images/task_images/land.jpg"",""time"":371.5749999973923},{""stimulus"":""run_exp/static/images/task_images/dig.jpg"",""time"":744.6549999876879}]",[],8,,,,,,,,,,,,,,
harvest,243,708876,0.0-77.0-1.0,,null,run_exp/static/images/task_images/gems/33.jpg,null,,,,,,6,,,8,,,,,33,0.179948806,0.181818182,,,,,,,
decision,244,709333,0.0-77.0-2.0,,455.665,run_exp/static/images/task_images/land.jpg,65,,,,,,6,,,8,,,,,,,,12975,2,1,FALSE,,,
dig,245,711880,0.0-78.0-0.0,,,,,,,,,,,"[{""stimulus"":""run_exp/static/images/task_images/dig.jpg"",""time"":0.1200000406242907},{""stimulus"":""run_exp/static/images/task_images/land.jpg"",""time"":848.7350000068545},{""stimulus"":""run_exp/static/images/task_images/dig.jpg"",""time"":1697.3950000246987}]",[],8,,,,,,,,,,,,,,
harvest,246,712882,0.0-78.0-1.0,,null,run_exp/static/images/task_images/gems/6.jpg,null,,,,,,2,,,8,,,,,6,0.293113302,0.333333333,,,,,,,
decision,247,713315,0.0-78.0-2.0,,432.365,run_exp/static/images/task_images/land.jpg,76,,,,,,2,,,8,,,,,,,,16958,2,2,TRUE,,,
travel,248,722886,0.0-79.0-0.0,,,,,,,,,,,"[{""stimulus"":""run_exp/static/images/task_images/rocket-01.jpg"",""time"":0.12500002048909664},{""stimulus"":""run_exp/static/images/task_images/rocket-02.jpg"",""time"":1065.6399999861605},{""stimulus"":""run_exp/static/images/task_images/rocket-03.jpg"",""time"":2131.7000000271946},{""stimulus"":""run_exp/static/images/task_images/rocket-04.jpg"",""time"":3192.4650000291876},{""stimulus"":""run_exp/static/images/task_images/rocket-05.jpg"",""time"":4257.700000016484},{""stimulus"":""run_exp/static/images/task_images/rocket-06.jpg"",""time"":5317.084999987856},{""stimulus"":""run_exp/static/images/task_images/rocket-07.jpg"",""time"":6381.325000023935},{""stimulus"":""run_exp/static/images/task_images/rocket-08.jpg"",""time"":7444.015000015497},{""stimulus"":""run_exp/static/images/task_images/rocket-09.jpg"",""time"":8509.814999997616}]",[],8,,,,,,,,,,,,,,
alien_welcome,249,727891,0.0-79.0-1.0,,null,run_exp/static/images/task_images/aliens/old_aliens/planet/alien_planet-8.jpg,null,,,,,,,,,,,,8,"2,38,33,37,64,6,14,77,8,69,10,70,65,26,39,56,18,31,23,20,9,11,59,12,80,27,74,19,47",,,,,,,,,,
land,250,728396,0.0-79.0-2.0,,null,run_exp/static/images/task_images/land.jpg,null,,,,,,94,,,9,,,,,,,,,,,,,,
dig,251,730399,0.0-79.0-3.0,,,,,,,,,,,"[{""stimulus"":""run_exp/static/images/task_images/dig.jpg"",""time"":0.1550000160932541},{""stimulus"":""run_exp/static/images/task_images/land.jpg"",""time"":672.7550000068732},{""stimulus"":""run_exp/static/images/task_images/dig.jpg"",""time"":1334.610000019893}]",[],9,,,,,,,,,,,,,,
harvest,252,731403,0.0-79.0-4.0,,null,run_exp/static/images/task_images/gems/94.jpg,null,,,,,,23,,,9,,,,,94,0.249904634,0.244680851,,,,,,,
decision,253,731823,0.0-79.0-5.0,,419.075,run_exp/static/images/task_images/land.jpg,65,,,,,,23,,,9,,,,,,,,35465,2,0,FALSE,,,
dig,254,734407,0.0-80.0-0.0,,,,,,,,,,,"[{""stimulus"":""run_exp/static/images/task_images/dig.jpg"",""time"":0.1449999981559813},{""stimulus"":""run_exp/static/images/task_images/land.jpg"",""time"":860.8449999592267},{""stimulus"":""run_exp/static/images/task_images/dig.jpg"",""time"":1723.6050000065006}]",[],9,,,,,,,,,,,,,,
harvest,255,735413,0.0-80.0-1.0,,null,run_exp/static/images/task_images/gems/23.jpg,null,,,,,,5,,,9,,,,,23,0.226460861,0.217391304,,,,,,,
decision,256,735648,0.0-80.0-2.0,,234.23,run_exp/static/images/task_images/land.jpg,65,,,,,,5,,,9,,,,,,,,39290,2,1,FALSE,,,
dig,257,738416,0.0-81.0-0.0,,,,,,,,,,,"[{""stimulus"":""run_exp/static/images/task_images/dig.jpg"",""time"":0.12500002048909664},{""stimulus"":""run_exp/static/images/task_images/land.jpg"",""time"":923.9700000034645},{""stimulus"":""run_exp/static/images/task_images/dig.jpg"",""time"":1847.7449999772944}]",[],9,,,,,,,,,,,,,,
harvest,258,739418,0.0-81.0-1.0,,null,run_exp/static/images/task_images/gems/5.jpg,null,,,,,,2,,,9,,,,,5,0.304451216,0.4,,,,,,,
decision,259,739922,0.0-81.0-2.0,,503.67,run_exp/static/images/task_images/land.jpg,76,,,,,,2,,,9,,,,,,,,43564,2,2,TRUE,,,
travel,260,749421,0.0-82.0-0.0,,,,,,,,,,,"[{""stimulus"":""run_exp/static/images/task_images/rocket-01.jpg"",""time"":0.13000000035390258},{""stimulus"":""run_exp/static/images/task_images/rocket-02.jpg"",""time"":1060.3249999694526},{""stimulus"":""run_exp/static/images/task_images/rocket-03.jpg"",""time"":2110.5749999987893},{""stimulus"":""run_exp/static/images/task_images/rocket-04.jpg"",""time"":3168.1749999988824},{""stimulus"":""run_exp/static/images/task_images/rocket-05.jpg"",""time"":4225.724999967497},{""stimulus"":""run_exp/static/images/task_images/rocket-06.jpg"",""time"":5278.404999990016},{""stimulus"":""run_exp/static/images/task_images/rocket-07.jpg"",""time"":6335.725000011735},{""stimulus"":""run_exp/static/images/task_images/rocket-08.jpg"",""time"":7388.150000013411},{""stimulus"":""run_exp/static/images/task_images/rocket-09.jpg"",""time"":8445.590000017546}]",[],9,,,,,,,,,,,,,,
alien_welcome,261,754422,0.0-82.0-1.0,,null,run_exp/static/images/task_images/aliens/old_aliens/planet/alien_planet-69.jpg,null,,,,,,,,,,,,69,"2,38,33,37,64,6,14,77,8,69,10,70,65,26,39,56,18,31,23,20,9,11,59,12,80,27,74,19,47",,,,,,,,,,
land,262,754928,0.0-82.0-2.0,,null,run_exp/static/images/task_images/land.jpg,null,,,,,,102,,,10,,,,,,,,,,,,,,
dig,263,756932,0.0-82.0-3.0,,,,,,,,,,,"[{""stimulus"":""run_exp/static/images/task_images/dig.jpg"",""time"":0.15999999595806003},{""stimulus"":""run_exp/static/images/task_images/land.jpg"",""time"":667.5449999747798},{""stimulus"":""run_exp/static/images/task_images/dig.jpg"",""time"":1338.1899999803863}]",[],10,,,,,,,,,,,,,,
harvest,264,757933,0.0-82.0-4.0,,null,run_exp/static/images/task_images/gems/102.jpg,null,,,,,,15,,,10,,,,,102,0.144538655,0.147058824,,,,,,,
decision,265,758496,0.0-82.0-5.0,,562.53,run_exp/static/images/task_images/land.jpg,65,,,,,,15,,,10,,,,,,,,62139,2,0,FALSE,,,
dig,266,760936,0.0-83.0-0.0,,,,,,,,,,,"[{""stimulus"":""run_exp/static/images/task_images/dig.jpg"",""time"":0.14000001829117537},{""stimulus"":""run_exp/static/images/task_images/land.jpg"",""time"":814.4150000298396},{""stimulus"":""run_exp/static/images/task_images/dig.jpg"",""time"":1625.3000000142492}]",[],10,,,,,,,,,,,,,,
harvest,267,761941,0.0-83.0-1.0,,null,run_exp/static/images/task_images/gems/15.jpg,null,,,,,,2,,,10,,,,,15,0.155520607,0.133333333,,,,,,,
decision,268,763761,0.0-83.0-2.0,,1819.81,run_exp/static/images/task_images/land.jpg,65,,,,,,2,,,10,,,,,,,,67403,2,1,FALSE,,,
dig,269,764944,0.0-84.0-0.0,,,,,,,,,,,"[{""stimulus"":""run_exp/static/images/task_images/dig.jpg"",""time"":0.10000000474974513},{""stimulus"":""run_exp/static/images/task_images/land.jpg"",""time"":393.84499995503575},{""stimulus"":""run_exp/static/images/task_images/dig.jpg"",""time"":791.6599999880418}]",[],10,,,,,,,,,,,,,,
harvest,270,765949,0.0-84.0-1.0,,null,run_exp/static/images/task_images/gems/2.jpg,null,,,,,,0,,,10,,,,,2,0.194703993,0,,,,,,,
decision,271,765956,0.0-84.0-2.0,,5.620000011,run_exp/static/images/task_images/land.jpg,76,,,,,,0,,,10,,,,,,,,69598,2,2,TRUE,,,
travel,272,775952,0.0-85.0-0.0,,,,,,,,,,,"[{""stimulus"":""run_exp/static/images/task_images/rocket-01.jpg"",""time"":0.11999998241662979},{""stimulus"":""run_exp/static/images/task_images/rocket-02.jpg"",""time"":1113.0850000190549},{""stimulus"":""run_exp/static/images/task_images/rocket-03.jpg"",""time"":2223.230000003241},{""stimulus"":""run_exp/static/images/task_images/rocket-04.jpg"",""time"":3335.5400000000373},{""stimulus"":""run_exp/static/images/task_images/rocket-05.jpg"",""time"":4442.689999996219},{""stimulus"":""run_exp/static/images/task_images/rocket-06.jpg"",""time"":5552.275000023656},{""stimulus"":""run_exp/static/images/task_images/rocket-07.jpg"",""time"":6665.169999992941},{""stimulus"":""run_exp/static/images/task_images/rocket-08.jpg"",""time"":7774.1900000255555},{""stimulus"":""run_exp/static/images/task_images/rocket-09.jpg"",""time"":8885.705000022426}]",[],10,,,,,,,,,,,,,,
alien_welcome,273,780958,0.0-85.0-1.0,,null,run_exp/static/images/task_images/aliens/old_aliens/planet/alien_planet-10.jpg,null,,,,,,,,,,,,10,"2,38,33,37,64,6,14,77,8,69,10,70,65,26,39,56,18,31,23,20,9,11,59,12,80,27,74,19,47",,,,,,,,,,
land,274,781464,0.0-85.0-2.0,,null,run_exp/static/images/task_images/land.jpg,null,,,,,,106,,,11,,,,,,,,,,,,,,
dig,275,783468,0.0-85.0-3.0,,,,,,,,,,,"[{""stimulus"":""run_exp/static/images/task_images/dig.jpg"",""time"":0.1700000138953328},{""stimulus"":""run_exp/static/images/task_images/land.jpg"",""time"":669.9500000104308},{""stimulus"":""run_exp/static/images/task_images/dig.jpg"",""time"":1335.224999987986}]",[],11,,,,,,,,,,,,,,
harvest,276,784472,0.0-85.0-4.0,,null,run_exp/static/images/task_images/gems/106.jpg,null,,,,,,81,,,11,,,,,106,0.765514618,0.764150943,,,,,,,
decision,277,784878,0.0-85.0-5.0,,405.625,run_exp/static/images/task_images/land.jpg,65,,,,,,81,,,11,,,,,,,,88520,2,0,FALSE,,,
dig,278,787473,0.0-86.0-0.0,,,,,,,,,,,"[{""stimulus"":""run_exp/static/images/task_images/dig.jpg"",""time"":0.14000001829117537},{""stimulus"":""run_exp/static/images/task_images/land.jpg"",""time"":866.9649999937974},{""stimulus"":""run_exp/static/images/task_images/dig.jpg"",""time"":1733.8200000231154}]",[],11,,,,,,,,,,,,,,
harvest,279,788479,0.0-86.0-1.0,,null,run_exp/static/images/task_images/gems/81.jpg,null,,,,,,67,,,11,,,,,81,0.829300784,0.827160494,,,,,,,
decision,280,789142,0.0-86.0-2.0,,662.105,run_exp/static/images/task_images/land.jpg,65,,,,,,67,,,11,,,,,,,,92784,2,1,FALSE,,,
dig,281,791483,0.0-87.0-0.0,,,,,,,,,,,"[{""stimulus"":""run_exp/static/images/task_images/dig.jpg"",""time"":0.1449999981559813},{""stimulus"":""run_exp/static/images/task_images/land.jpg"",""time"":782.4700000346638},{""stimulus"":""run_exp/static/images/task_images/dig.jpg"",""time"":1560.7850000378676}]",[],11,,,,,,,,,,,,,,
harvest,282,792489,0.0-87.0-1.0,,null,run_exp/static/images/task_images/gems/67.jpg,null,,,,,,54,,,11,,,,,67,0.80025114,0.805970149,,,,,,,
decision,283,792854,0.0-87.0-2.0,,364.265,run_exp/static/images/task_images/land.jpg,65,,,,,,54,,,11,,,,,,,,96496,2,2,FALSE,,,
dig,284,795492,0.0-88.0-0.0,,,,,,,,,,,"[{""stimulus"":""run_exp/static/images/task_images/dig.jpg"",""time"":0.11999998241662979},{""stimulus"":""run_exp/static/images/task_images/land.jpg"",""time"":883.6749999900348},{""stimulus"":""run_exp/static/images/task_images/dig.jpg"",""time"":1761.3899999996647}]",[],11,,,,,,,,,,,,,,
harvest,285,796493,0.0-88.0-1.0,,null,run_exp/static/images/task_images/gems/54.jpg,null,,,,,,45,,,11,,,,,54,0.824481395,0.833333333,,,,,,,
decision,286,796837,0.0-88.0-2.0,,343.285,run_exp/static/images/task_images/land.jpg,65,,,,,,45,,,11,,,,,,,,100479,2,3,FALSE,,,
dig,287,799499,0.0-89.0-0.0,,,,,,,,,,,"[{""stimulus"":""run_exp/static/images/task_images/dig.jpg"",""time"":0.11500000255182385},{""stimulus"":""run_exp/static/images/task_images/land.jpg"",""time"":890.7500000204891},{""stimulus"":""run_exp/static/images/task_images/dig.jpg"",""time"":1775.6999999983236}]",[],11,,,,,,,,,,,,,,
harvest,288,800503,0.0-89.0-1.0,,null,run_exp/static/images/task_images/gems/45.jpg,null,,,,,,36,,,11,,,,,45,0.804854145,0.8,,,,,,,
decision,289,800988,0.0-89.0-2.0,,484.39,run_exp/static/images/task_images/land.jpg,65,,,,,,36,,,11,,,,,,,,104630,2,4,FALSE,,,
dig,290,803506,0.0-90.0-0.0,,,,,,,,,,,"[{""stimulus"":""run_exp/static/images/task_images/dig.jpg"",""time"":0.12500002048909664},{""stimulus"":""run_exp/static/images/task_images/land.jpg"",""time"":841.7200000258163},{""stimulus"":""run_exp/static/images/task_images/dig.jpg"",""time"":1677.6500000269152}]",[],11,,,,,,,,,,,,,,
harvest,291,804511,0.0-90.0-1.0,,null,run_exp/static/images/task_images/gems/36.jpg,null,,,,,,28,,,11,,,,,36,0.77364782,0.777777778,,,,,,,
decision,292,804926,0.0-90.0-2.0,,413.28,run_exp/static/images/task_images/land.jpg,65,,,,,,28,,,11,,,,,,,,108568,2,5,FALSE,,,
dig,293,807518,0.0-91.0-0.0,,,,,,,,,,,"[{""stimulus"":""run_exp/static/images/task_images/dig.jpg"",""time"":0.13000000035390258},{""stimulus"":""run_exp/static/images/task_images/land.jpg"",""time"":867.0150000252761},{""stimulus"":""run_exp/static/images/task_images/dig.jpg"",""time"":1726.9150000065565}]",[],11,,,,,,,,,,,,,,
harvest,294,808519,0.0-91.0-1.0,,null,run_exp/static/images/task_images/gems/28.jpg,null,,,,,,23,,,11,,,,,28,0.835574465,0.821428571,,,,,,,
decision,295,809033,0.0-91.0-2.0,,512.23,run_exp/static/images/task_images/land.jpg,65,,,,,,23,,,11,,,,,,,,112675,2,6,FALSE,,,
dig,296,811523,0.0-92.0-0.0,,,,,,,,,,,"[{""stimulus"":""run_exp/static/images/task_images/dig.jpg"",""time"":0.0850000069476664},{""stimulus"":""run_exp/static/images/task_images/land.jpg"",""time"":833.2199999713339},{""stimulus"":""run_exp/static/images/task_images/dig.jpg"",""time"":1662.1799999848008}]",[],11,,,,,,,,,,,,,,
harvest,297,812524,0.0-92.0-1.0,,null,run_exp/static/images/task_images/gems/23.jpg,null,,,,,,19,,,11,,,,,23,0.831629262,0.826086957,,,,,,,
decision,298,812857,0.0-92.0-2.0,,332.82,run_exp/static/images/task_images/land.jpg,65,,,,,,19,,,11,,,,,,,,116499,2,7,FALSE,,,
dig,299,815530,0.0-93.0-0.0,,,,,,,,,,,"[{""stimulus"":""run_exp/static/images/task_images/dig.jpg"",""time"":0.11000002268701792},{""stimulus"":""run_exp/static/images/task_images/land.jpg"",""time"":894.7449999977835},{""stimulus"":""run_exp/static/images/task_images/dig.jpg"",""time"":1780.8400000212714}]",[],11,,,,,,,,,,,,,,
harvest,300,816534,0.0-93.0-1.0,,null,run_exp/static/images/task_images/gems/19.jpg,null,,,,,,16,,,11,,,,,19,0.821484387,0.842105263,,,,,,,
decision,301,817301,0.0-93.0-2.0,,765.75,run_exp/static/images/task_images/land.jpg,76,,,,,,16,,,11,,,,,,,,120943,2,8,TRUE,,,
travel,302,826537,0.0-94.0-0.0,,,,,,,,,,,"[{""stimulus"":""run_exp/static/images/task_images/rocket-01.jpg"",""time"":0.12500002048909664},{""stimulus"":""run_exp/static/images/task_images/rocket-02.jpg"",""time"":1030.8050000458024},{""stimulus"":""run_exp/static/images/task_images/rocket-03.jpg"",""time"":2056.6600000020117},{""stimulus"":""run_exp/static/images/task_images/rocket-04.jpg"",""time"":3079.9950000364333},{""stimulus"":""run_exp/static/images/task_images/rocket-05.jpg"",""time"":4106.339999998454},{""stimulus"":""run_exp/static/images/task_images/rocket-06.jpg"",""time"":5132.39500002237},{""stimulus"":""run_exp/static/images/task_images/rocket-07.jpg"",""time"":6156.600000045728},{""stimulus"":""run_exp/static/images/task_images/rocket-08.jpg"",""time"":7187.695000029635},{""stimulus"":""run_exp/static/images/task_images/rocket-09.jpg"",""time"":8213.280000025406}]",[],11,,,,,,,,,,,,,,
alien_welcome,303,831539,0.0-94.0-1.0,,null,run_exp/static/images/task_images/aliens/old_aliens/planet/alien_planet-70.jpg,null,,,,,,,,,,,,70,"2,38,33,37,64,6,14,77,8,69,10,70,65,26,39,56,18,31,23,20,9,11,59,12,80,27,74,19,47",,,,,,,,,,
land,304,832041,0.0-94.0-2.0,,null,run_exp/static/images/task_images/land.jpg,null,,,,,,95,,,12,,,,,,,,,,,,,,
dig,305,834046,0.0-94.0-3.0,,,,,,,,,,,"[{""stimulus"":""run_exp/static/images/task_images/dig.jpg"",""time"":0.1550000160932541},{""stimulus"":""run_exp/static/images/task_images/land.jpg"",""time"":670.8250000374392},{""stimulus"":""run_exp/static/images/task_images/dig.jpg"",""time"":1339.1849999898113}]",[],12,,,,,,,,,,,,,,
harvest,306,835047,0.0-94.0-4.0,,null,run_exp/static/images/task_images/gems/95.jpg,null,,,,,,74,,,12,,,,,95,0.778268897,0.778947368,,,,,,,
decision,307,835392,0.0-94.0-5.0,,343.7,run_exp/static/images/task_images/land.jpg,65,,,,,,74,,,12,,,,,,,,139034,2,0,FALSE,,,
dig,308,838052,0.0-95.0-0.0,,,,,,,,,,,"[{""stimulus"":""run_exp/static/images/task_images/dig.jpg"",""time"":0.13000000035390258},{""stimulus"":""run_exp/static/images/task_images/land.jpg"",""time"":886.0050000366755},{""stimulus"":""run_exp/static/images/task_images/dig.jpg"",""time"":1775.7650000276044}]",[],12,,,,,,,,,,,,,,
harvest,309,839055,0.0-95.0-1.0,,null,run_exp/static/images/task_images/gems/74.jpg,null,,,,,,57,,,12,,,,,74,0.77483026,0.77027027,,,,,,,
decision,310,839183,0.0-95.0-2.0,,127.035,run_exp/static/images/task_images/land.jpg,65,,,,,,57,,,12,,,,,,,,142825,2,1,FALSE,,,
dig,311,842059,0.0-96.0-0.0,,,,,,,,,,,"[{""stimulus"":""run_exp/static/images/task_images/dig.jpg"",""time"":0.1200000406242907},{""stimulus"":""run_exp/static/images/task_images/land.jpg"",""time"":958.1100000068545},{""stimulus"":""run_exp/static/images/task_images/dig.jpg"",""time"":1919.705000007525}]",[],12,,,,,,,,,,,,,,
harvest,312,843060,0.0-96.0-1.0,,null,run_exp/static/images/task_images/gems/57.jpg,null,,,,,,50,,,12,,,,,57,0.885359905,0.877192982,,,,,,,
decision,313,843435,0.0-96.0-2.0,,374.47,run_exp/static/images/task_images/land.jpg,65,,,,,,50,,,12,,,,,,,,147077,2,2,FALSE,,,
dig,314,846066,0.0-97.0-0.0,,,,,,,,,,,"[{""stimulus"":""run_exp/static/images/task_images/dig.jpg"",""time"":0.11999998241662979},{""stimulus"":""run_exp/static/images/task_images/land.jpg"",""time"":879.6399999991991},{""stimulus"":""run_exp/static/images/task_images/dig.jpg"",""time"":1753.469999996014}]",[],12,,,,,,,,,,,,,,
harvest,315,847069,0.0-97.0-1.0,,null,run_exp/static/images/task_images/gems/50.jpg,null,,,,,,41,,,12,,,,,50,0.813667012,0.82,,,,,,,
decision,316,847429,0.0-97.0-2.0,,358.95,run_exp/static/images/task_images/land.jpg,65,,,,,,41,,,12,,,,,,,,151071,2,3,FALSE,,,
dig,317,850075,0.0-98.0-0.0,,,,,,,,,,,"[{""stimulus"":""run_exp/static/images/task_images/dig.jpg"",""time"":0.11999998241662979},{""stimulus"":""run_exp/static/images/task_images/land.jpg"",""time"":885.7199999620207},{""stimulus"":""run_exp/static/images/task_images/dig.jpg"",""time"":1765.465000004042}]",[],12,,,,,,,,,,,,,,
harvest,318,851076,0.0-98.0-1.0,,null,run_exp/static/images/task_images/gems/41.jpg,null,,,,,,35,,,12,,,,,41,0.84273473,0.853658537,,,,,,,
decision,319,851985,0.0-98.0-2.0,,908.895,run_exp/static/images/task_images/land.jpg,65,,,,,,35,,,12,,,,,,,,155627,2,4,FALSE,,,
dig,320,854079,0.0-99.0-0.0,,,,,,,,,,,"[{""stimulus"":""run_exp/static/images/task_images/dig.jpg"",""time"":0.10500004282221198},{""stimulus"":""run_exp/static/images/task_images/land.jpg"",""time"":700.5600000265986},{""stimulus"":""run_exp/static/images/task_images/dig.jpg"",""time"":1398.1900000362657}]",[],12,,,,,,,,,,,,,,
harvest,321,855081,0.0-99.0-1.0,,null,run_exp/static/images/task_images/gems/35.jpg,null,,,,,,32,,,12,,,,,35,0.901063363,0.914285714,,,,,,,
decision,322,855789,0.0-99.0-2.0,,706.62,run_exp/static/images/task_images/land.jpg,65,,,,,,32,,,12,,,,,,,,159431,2,5,FALSE,,,
dig,323,858087,0.0-100.0-0.0,,,,,,,,,,,"[{""stimulus"":""run_exp/static/images/task_images/dig.jpg"",""time"":0.12499996228143573},{""stimulus"":""run_exp/static/images/task_images/land.jpg"",""time"":767.4699999624863},{""stimulus"":""run_exp/static/images/task_images/dig.jpg"",""time"":1533.6499999975786}]",[],12,,,,,,,,,,,,,,
harvest,324,859092,0.0-100.0-1.0,,null,run_exp/static/images/task_images/gems/32.jpg,null,,,,,,29,,,12,,,,,32,0.902349005,0.90625,,,,,,,
decision,325,859422,0.0-100.0-2.0,,328.985,run_exp/static/images/task_images/land.jpg,65,,,,,,29,,,12,,,,,,,,163064,2,6,FALSE,,,
dig,326,862095,0.0-101.0-0.0,,,,,,,,,,,"[{""stimulus"":""run_exp/static/images/task_images/dig.jpg"",""time"":0.12499996228143573},{""stimulus"":""run_exp/static/images/task_images/land.jpg"",""time"":895.6899999757297},{""stimulus"":""run_exp/static/images/task_images/dig.jpg"",""time"":1782.3349999962375}]",[],12,,,,,,,,,,,,,,
harvest,327,863097,0.0-101.0-1.0,,null,run_exp/static/images/task_images/gems/29.jpg,null,,,,,,25,,,12,,,,,29,0.849989346,0.862068966,,,,,,,
decision,328,863866,0.0-101.0-2.0,,767.445,run_exp/static/images/task_images/land.jpg,65,,,,,,25,,,12,,,,,,,,167508,2,7,FALSE,,,
dig,329,866103,0.0-102.0-0.0,,,,,,,,,,,"[{""stimulus"":""run_exp/static/images/task_images/dig.jpg"",""time"":0.08999998681247234},{""stimulus"":""run_exp/static/images/task_images/land.jpg"",""time"":745.0449999887496},{""stimulus"":""run_exp/static/images/task_images/dig.jpg"",""time"":1493.6799999559298}]",[],12,,,,,,,,,,,,,,
harvest,330,867107,0.0-102.0-1.0,,null,run_exp/static/images/task_images/gems/25.jpg,null,,,,,,20,,,12,,,,,25,0.782403496,0.8,,,,,,,
decision,331,867196,0.0-102.0-2.0,,87.79999998,run_exp/static/images/task_images/land.jpg,65,,,,,,20,,,12,,,,,,,,170838,2,8,FALSE,,,
dig,332,870108,0.0-103.0-0.0,,,,,,,,,,,"[{""stimulus"":""run_exp/static/images/task_images/dig.jpg"",""time"":0.13000000035390258},{""stimulus"":""run_exp/static/images/task_images/land.jpg"",""time"":974.5850000181235},{""stimulus"":""run_exp/static/images/task_images/dig.jpg"",""time"":1942.5550000160001}]",[],12,,,,,,,,,,,,,,
harvest,333,871114,0.0-103.0-1.0,,null,run_exp/static/images/task_images/gems/20.jpg,null,,,,,,17,,,12,,,,,20,0.843635882,0.85,,,,,,,
decision,334,871358,0.0-103.0-2.0,,243.295,run_exp/static/images/task_images/land.jpg,65,,,,,,17,,,12,,,,,,,,175000,2,9,FALSE,,,
dig,335,874115,0.0-104.0-0.0,,,,,,,,,,,"[{""stimulus"":""run_exp/static/images/task_images/dig.jpg"",""time"":0.13000000035390258},{""stimulus"":""run_exp/static/images/task_images/land.jpg"",""time"":921.474999981001},{""stimulus"":""run_exp/static/images/task_images/dig.jpg"",""time"":1838.6450000107288}]",[],12,,,,,,,,,,,,,,
harvest,336,875117,0.0-104.0-1.0,,null,run_exp/static/images/task_images/gems/17.jpg,null,,,,,,12,,,12,,,,,17,0.725289645,0.705882353,,,,,,,
decision,337,875408,0.0-104.0-2.0,,290.68,run_exp/static/images/task_images/land.jpg,65,,,,,,12,,,12,,,,,,,,179050,2,10,FALSE,,,
dig,338,878121,0.0-105.0-0.0,,,,,,,,,,,"[{""stimulus"":""run_exp/static/images/task_images/dig.jpg"",""time"":0.14000001829117537},{""stimulus"":""run_exp/static/images/task_images/land.jpg"",""time"":906.7100000102073},{""stimulus"":""run_exp/static/images/task_images/dig.jpg"",""time"":1806.7900000023656}]",[],12,,,,,,,,,,,,,,
harvest,339,879122,0.0-105.0-1.0,,null,run_exp/static/images/task_images/gems/12.jpg,null,,,,,,10,,,12,,,,,12,0.822958552,0.833333333,,,,,,,
decision,340,879368,0.0-105.0-2.0,,245.47,run_exp/static/images/task_images/land.jpg,76,,,,,,10,,,12,,,,,,,,183010,2,11,TRUE,,,
travel,341,889121,0.0-106.0-0.0,,,,,,,,,,,"[{""stimulus"":""run_exp/static/images/task_images/rocket-01.jpg"",""time"":0.12499996228143573},{""stimulus"":""run_exp/static/images/task_images/rocket-02.jpg"",""time"":1085.2149999700487},{""stimulus"":""run_exp/static/images/task_images/rocket-03.jpg"",""time"":2170.5499999807216},{""stimulus"":""run_exp/static/images/task_images/rocket-04.jpg"",""time"":3250.6200000061654},{""stimulus"":""run_exp/static/images/task_images/rocket-05.jpg"",""time"":4336.294999986421},{""stimulus"":""run_exp/static/images/task_images/rocket-06.jpg"",""time"":5420.449999975972},{""stimulus"":""run_exp/static/images/task_images/rocket-07.jpg"",""time"":6499.62499999674},{""stimulus"":""run_exp/static/images/task_images/rocket-08.jpg"",""time"":7586.8049999699},{""stimulus"":""run_exp/static/images/task_images/rocket-09.jpg"",""time"":8669.739999982994}]",[],12,,,,,,,,,,,,,,
alien_welcome,342,894122,0.0-106.0-1.0,,null,run_exp/static/images/task_images/aliens/old_aliens/planet/alien_planet-65.jpg,null,,,,,,,,,,,,65,"2,38,33,37,64,6,14,77,8,69,10,70,65,26,39,56,18,31,23,20,9,11,59,12,80,27,74,19,47",,,,,,,,,,
land,343,894628,0.0-106.0-2.0,,null,run_exp/static/images/task_images/land.jpg,null,,,,,,99,,,13,,,,,,,,,,,,,,
dig,344,896633,0.0-106.0-3.0,,,,,,,,,,,"[{""stimulus"":""run_exp/static/images/task_images/dig.jpg"",""time"":0.16500003403052688},{""stimulus"":""run_exp/static/images/task_images/land.jpg"",""time"":670.1549999997951},{""stimulus"":""run_exp/static/images/task_images/dig.jpg"",""time"":1337.0299999951385}]",[],13,,,,,,,,,,,,,,
harvest,345,897638,0.0-106.0-4.0,,null,run_exp/static/images/task_images/gems/99.jpg,null,,,,,,84,,,13,,,,,99,0.844412201,0.848484848,,,,,,,
decision,346,897920,0.0-106.0-5.0,,281.18,run_exp/static/images/task_images/land.jpg,65,,,,,,84,,,13,,,,,,,,201562,2,0,FALSE,,,
dig,347,900641,0.0-107.0-0.0,,,,,,,,,,,"[{""stimulus"":""run_exp/static/images/task_images/dig.jpg"",""time"":0.13000000035390258},{""stimulus"":""run_exp/static/images/task_images/land.jpg"",""time"":910.4599999845959},{""stimulus"":""run_exp/static/images/task_images/dig.jpg"",""time"":1815.999999991618}]",[],13,,,,,,,,,,,,,,
harvest,348,901642,0.0-107.0-1.0,,null,run_exp/static/images/task_images/gems/84.jpg,null,,,,,,73,,,13,,,,,84,0.868413062,0.869047619,,,,,,,
decision,349,902116,0.0-107.0-2.0,,473.285,run_exp/static/images/task_images/land.jpg,65,,,,,,73,,,13,,,,,,,,205758,2,1,FALSE,,,
dig,350,904646,0.0-108.0-0.0,,,,,,,,,,,"[{""stimulus"":""run_exp/static/images/task_images/dig.jpg"",""time"":0.13000000035390258},{""stimulus"":""run_exp/static/images/task_images/land.jpg"",""time"":847.7049999637529},{""stimulus"":""run_exp/static/images/task_images/dig.jpg"",""time"":1689.7250000038184}]",[],13,,,,,,,,,,,,,,
harvest,351,905649,0.0-108.0-1.0,,null,run_exp/static/images/task_images/gems/73.jpg,null,,,,,,57,,,13,,,,,73,0.775737572,0.780821918,,,,,,,
decision,352,906324,0.0-108.0-2.0,,674.24,run_exp/static/images/task_images/land.jpg,65,,,,,,57,,,13,,,,,,,,209966,2,2,FALSE,,,
dig,353,908652,0.0-109.0-0.0,,,,,,,,,,,"[{""stimulus"":""run_exp/static/images/task_images/dig.jpg"",""time"":0.11999998241662979},{""stimulus"":""run_exp/static/images/task_images/land.jpg"",""time"":775.9700000169687},{""stimulus"":""run_exp/static/images/task_images/dig.jpg"",""time"":1551.1149999802}]",[],13,,,,,,,,,,,,,,
harvest,354,909654,0.0-109.0-1.0,,null,run_exp/static/images/task_images/gems/57.jpg,null,,,,,,43,,,13,,,,,57,0.749411343,0.754385965,,,,,,,
decision,355,909834,0.0-109.0-2.0,,179.5,run_exp/static/images/task_images/land.jpg,65,,,,,,43,,,13,,,,,,,,213476,2,3,FALSE,,,
dig,356,912659,0.0-110.0-0.0,,,,,,,,,,,"[{""stimulus"":""run_exp/static/images/task_images/dig.jpg"",""time"":0.0849999487400055},{""stimulus"":""run_exp/static/images/task_images/land.jpg"",""time"":944.759999983944},{""stimulus"":""run_exp/static/images/task_images/dig.jpg"",""time"":1884.2249999870546}]",[],13,,,,,,,,,,,,,,
harvest,357,913662,0.0-110.0-1.0,,null,run_exp/static/images/task_images/gems/43.jpg,null,,,,,,33,,,13,,,,,43,0.759970543,0.76744186,,,,,,,
decision,358,913862,0.0-110.0-2.0,,199.255,run_exp/static/images/task_images/land.jpg,65,,,,,,33,,,13,,,,,,,,217504,2,4,FALSE,,,
dig,359,916664,0.0-111.0-0.0,,,,,,,,,,,"[{""stimulus"":""run_exp/static/images/task_images/dig.jpg"",""time"":0.13000000035390258},{""stimulus"":""run_exp/static/images/task_images/land.jpg"",""time"":937.355000001844},{""stimulus"":""run_exp/static/images/task_images/dig.jpg"",""time"":1869.5899999584071}]",[],13,,,,,,,,,,,,,,
harvest,360,917670,0.0-111.0-1.0,,null,run_exp/static/images/task_images/gems/33.jpg,null,,,,,,26,,,13,,,,,33,0.796496592,0.787878788,,,,,,,
decision,361,917754,0.0-111.0-2.0,,83.61500001,run_exp/static/images/task_images/land.jpg,65,,,,,,26,,,13,,,,,,,,221397,2,5,FALSE,,,
dig,362,920673,0.0-112.0-0.0,,,,,,,,,,,"[{""stimulus"":""run_exp/static/images/task_images/dig.jpg"",""time"":0.08999998681247234},{""stimulus"":""run_exp/static/images/task_images/land.jpg"",""time"":974.0050000254996},{""stimulus"":""run_exp/static/images/task_images/dig.jpg"",""time"":1949.7299999929965}]",[],13,,,,,,,,,,,,,,
harvest,363,921675,0.0-112.0-1.0,,null,run_exp/static/images/task_images/gems/26.jpg,null,,,,,,21,,,13,,,,,26,0.824616673,0.807692308,,,,,,,
decision,364,922086,0.0-112.0-2.0,,409.84,run_exp/static/images/task_images/land.jpg,65,,,,,,21,,,13,,,,,,,,225728,2,6,FALSE,,,
dig,365,924680,0.0-113.0-0.0,,,,,,,,,,,"[{""stimulus"":""run_exp/static/images/task_images/dig.jpg"",""time"":0.13000000035390258},{""stimulus"":""run_exp/static/images/task_images/land.jpg"",""time"":864.6350000053644},{""stimulus"":""run_exp/static/images/task_images/dig.jpg"",""time"":1731.3800000119954}]",[],13,,,,,,,,,,,,,,
harvest,366,925682,0.0-113.0-1.0,,null,run_exp/static/images/task_images/gems/21.jpg,null,,,,,,16,,,13,,,,,21,0.778839951,0.761904762,,,,,,,
decision,367,925945,0.0-113.0-2.0,,262.135,run_exp/static/images/task_images/land.jpg,65,,,,,,16,,,13,,,,,,,,229587,2,7,FALSE,,,
dig,368,928684,0.0-114.0-0.0,,,,,,,,,,,"[{""stimulus"":""run_exp/static/images/task_images/dig.jpg"",""time"":0.11500000255182385},{""stimulus"":""run_exp/static/images/task_images/land.jpg"",""time"":917.7550000022165},{""stimulus"":""run_exp/static/images/task_images/dig.jpg"",""time"":1828.4400000120513}]",[],13,,,,,,,,,,,,,,
harvest,369,929689,0.0-114.0-1.0,,null,run_exp/static/images/task_images/gems/16.jpg,null,,,,,,13,,,13,,,,,16,0.835348561,0.8125,,,,,,,
decision,370,929781,0.0-114.0-2.0,,90.44999996,run_exp/static/images/task_images/land.jpg,65,,,,,,13,,,13,,,,,,,,233423,2,8,FALSE,,,
dig,371,932694,0.0-115.0-0.0,,,,,,,,,,,"[{""stimulus"":""run_exp/static/images/task_images/dig.jpg"",""time"":0.15999999595806003},{""stimulus"":""run_exp/static/images/task_images/land.jpg"",""time"":974.8249999829568},{""stimulus"":""run_exp/static/images/task_images/dig.jpg"",""time"":1941.690000006929}]",[],13,,,,,,,,,,,,,,
harvest,372,933698,0.0-115.0-1.0,,null,run_exp/static/images/task_images/gems/13.jpg,null,,,,,,9,,,13,,,,,13,0.725242818,0.692307692,,,,,,,
decision,373,933999,0.0-115.0-2.0,,300.24,run_exp/static/images/task_images/land.jpg,65,,,,,,9,,,13,,,,,,,,237642,2,9,FALSE,,,
dig,374,936703,0.0-116.0-0.0,,,,,,,,,,,"[{""stimulus"":""run_exp/static/images/task_images/dig.jpg"",""time"":0.109999964479357},{""stimulus"":""run_exp/static/images/task_images/land.jpg"",""time"":899.9349999940023},{""stimulus"":""run_exp/static/images/task_images/dig.jpg"",""time"":1800.1700000022538}]",[],13,,,,,,,,,,,,,,
harvest,375,937703,0.0-116.0-1.0,,null,run_exp/static/images/task_images/gems/9.jpg,null,,,,,,7,,,13,,,,,9,0.784253123,0.777777778,,,,,,,
decision,376,937734,0.0-116.0-2.0,,29.935,run_exp/static/images/task_images/land.jpg,76,,,,,,7,,,13,,,,,,,,241376,2,10,TRUE,,,
travel,377,947703,0.0-117.0-0.0,,,,,,,,,,,"[{""stimulus"":""run_exp/static/images/task_images/rocket-01.jpg"",""time"":0.1200000406242907},{""stimulus"":""run_exp/static/images/task_images/rocket-02.jpg"",""time"":1108.8300000410527},{""stimulus"":""run_exp/static/images/task_images/rocket-03.jpg"",""time"":2217.0350000378676},{""stimulus"":""run_exp/static/images/task_images/rocket-04.jpg"",""time"":3322.4600000539795},{""stimulus"":""run_exp/static/images/task_images/rocket-05.jpg"",""time"":4433.725000009872},{""stimulus"":""run_exp/static/images/task_images/rocket-06.jpg"",""time"":5540.115000039805},{""stimulus"":""run_exp/static/images/task_images/rocket-07.jpg"",""time"":6644.785000011325},{""stimulus"":""run_exp/static/images/task_images/rocket-08.jpg"",""time"":7752.120000019204},{""stimulus"":""run_exp/static/images/task_images/rocket-09.jpg"",""time"":8856.690000044182}]",[],13,,,,,,,,,,,,,,
alien_welcome,378,952708,0.0-117.0-1.0,,null,run_exp/static/images/task_images/aliens/old_aliens/planet/alien_planet-26.jpg,null,,,,,,,,,,,,26,"2,38,33,37,64,6,14,77,8,69,10,70,65,26,39,56,18,31,23,20,9,11,59,12,80,27,74,19,47",,,,,,,,,,
land,379,953210,0.0-117.0-2.0,,null,run_exp/static/images/task_images/land.jpg,null,,,,,,100,,,14,,,,,,,,,,,,,,
dig,380,955213,0.0-117.0-3.0,,,,,,,,,,,"[{""stimulus"":""run_exp/static/images/task_images/dig.jpg"",""time"":0.14999997802078724},{""stimulus"":""run_exp/static/images/task_images/land.jpg"",""time"":671.6899999883026},{""stimulus"":""run_exp/static/images/task_images/dig.jpg"",""time"":1339.7850000183098}]",[],14,,,,,,,,,,,,,,
harvest,381,956218,0.0-117.0-4.0,,null,run_exp/static/images/task_images/gems/100.jpg,null,,,,,,81,,,14,,,,,100,0.80632569,0.81,,,,,,,
decision,382,957243,0.0-117.0-5.0,,1023.5,run_exp/static/images/task_images/land.jpg,65,,,,,,81,,,14,,,,,,,,260885,2,0,FALSE,,,
dig,383,959224,0.0-118.0-0.0,,,,,,,,,,,"[{""stimulus"":""run_exp/static/images/task_images/dig.jpg"",""time"":0.11500000255182385},{""stimulus"":""run_exp/static/images/task_images/land.jpg"",""time"":663.7449999689125},{""stimulus"":""run_exp/static/images/task_images/dig.jpg"",""time"":1321.3749999995343}]",[],14,,,,,,,,,,,,,,
harvest,384,960226,0.0-118.0-1.0,,null,run_exp/static/images/task_images/gems/81.jpg,null,,,,,,65,,,14,,,,,81,0.801488762,0.802469136,,,,,,,
decision,385,960786,0.0-118.0-2.0,,559.32,run_exp/static/images/task_images/land.jpg,65,,,,,,65,,,14,,,,,,,,264428,2,1,FALSE,,,
dig,386,963228,0.0-119.0-0.0,,,,,,,,,,,"[{""stimulus"":""run_exp/static/images/task_images/dig.jpg"",""time"":0.13499998021870852},{""stimulus"":""run_exp/static/images/task_images/land.jpg"",""time"":814.6699999924749},{""stimulus"":""run_exp/static/images/task_images/dig.jpg"",""time"":1631.4399999682792}]",[],14,,,,,,,,,,,,,,
harvest,387,964232,0.0-119.0-1.0,,null,run_exp/static/images/task_images/gems/65.jpg,null,,,,,,57,,,14,,,,,65,0.871716281,0.876923077,,,,,,,
decision,388,964892,0.0-119.0-2.0,,658.925,run_exp/static/images/task_images/land.jpg,65,,,,,,57,,,14,,,,,,,,268534,2,2,FALSE,,,
dig,389,967238,0.0-120.0-0.0,,,,,,,,,,,"[{""stimulus"":""run_exp/static/images/task_images/dig.jpg"",""time"":0.13499998021870852},{""stimulus"":""run_exp/static/images/task_images/land.jpg"",""time"":783.5299999569543},{""stimulus"":""run_exp/static/images/task_images/dig.jpg"",""time"":1565.7549999887124}]",[],14,,,,,,,,,,,,,,
harvest,390,968243,0.0-120.0-1.0,,null,run_exp/static/images/task_images/gems/57.jpg,null,,,,,,46,,,14,,,,,57,0.811371167,0.807017544,,,,,,,
decision,391,969291,0.0-120.0-2.0,,1047.195,run_exp/static/images/task_images/land.jpg,65,,,,,,46,,,14,,,,,,,,272933,2,3,FALSE,,,
dig,392,971247,0.0-121.0-0.0,,,,,,,,,,,"[{""stimulus"":""run_exp/static/images/task_images/dig.jpg"",""time"":0.21000002743676305},{""stimulus"":""run_exp/static/images/task_images/land.jpg"",""time"":652.5649999966845},{""stimulus"":""run_exp/static/images/task_images/dig.jpg"",""time"":1302.7200000360608}]",[],14,,,,,,,,,,,,,,
harvest,393,972253,0.0-121.0-1.0,,null,run_exp/static/images/task_images/gems/46.jpg,null,,,,,,36,,,14,,,,,46,0.780575535,0.782608696,,,,,,,
decision,394,972790,0.0-121.0-2.0,,536.505,run_exp/static/images/task_images/land.jpg,65,,,,,,36,,,14,,,,,,,,276432,2,4,FALSE,,,
dig,395,975257,0.0-122.0-0.0,,,,,,,,,,,"[{""stimulus"":""run_exp/static/images/task_images/dig.jpg"",""time"":0.13499998021870852},{""stimulus"":""run_exp/static/images/task_images/land.jpg"",""time"":821.9050000188872},{""stimulus"":""run_exp/static/images/task_images/dig.jpg"",""time"":1646.4900000137277}]",[],14,,,,,,,,,,,,,,
harvest,396,976260,0.0-122.0-1.0,,null,run_exp/static/images/task_images/gems/36.jpg,null,,,,,,28,,,14,,,,,36,0.766504497,0.777777778,,,,,,,
decision,397,976682,0.0-122.0-2.0,,421.35,run_exp/static/images/task_images/land.jpg,65,,,,,,28,,,14,,,,,,,,280324,2,5,FALSE,,,
dig,398,979266,0.0-123.0-0.0,,,,,,,,,,,"[{""stimulus"":""run_exp/static/images/task_images/dig.jpg"",""time"":0.13499998021870852},{""stimulus"":""run_exp/static/images/task_images/land.jpg"",""time"":862.7700000070035},{""stimulus"":""run_exp/static/images/task_images/dig.jpg"",""time"":1723.134999978356}]",[],14,,,,,,,,,,,,,,
harvest,399,980267,0.0-123.0-1.0,,null,run_exp/static/images/task_images/gems/28.jpg,null,,,,,,23,,,14,,,,,28,0.810277997,0.821428571,,,,,,,
decision,400,980350,0.0-123.0-2.0,,82.56000001,run_exp/static/images/task_images/land.jpg,65,,,,,,23,,,14,,,,,,,,283992,2,6,FALSE,,,
dig,401,983272,0.0-124.0-0.0,,,,,,,,,,,"[{""stimulus"":""run_exp/static/images/task_images/dig.jpg"",""time"":0.11500000255182385},{""stimulus"":""run_exp/static/images/task_images/land.jpg"",""time"":975.8900000015274},{""stimulus"":""run_exp/static/images/task_images/dig.jpg"",""time"":1947.2949999617413}]",[],14,,,,,,,,,,,,,,
harvest,402,984276,0.0-124.0-1.0,,null,run_exp/static/images/task_images/gems/23.jpg,null,,,,,,20,,,14,,,,,23,0.878313297,0.869565217,,,,,,,
decision,403,984951,0.0-124.0-2.0,,674.94,run_exp/static/images/task_images/land.jpg,65,,,,,,20,,,14,,,,,,,,288593,2,7,FALSE,,,
dig,404,987280,0.0-125.0-0.0,,,,,,,,,,,"[{""stimulus"":""run_exp/static/images/task_images/dig.jpg"",""time"":0.13499998021870852},{""stimulus"":""run_exp/static/images/task_images/land.jpg"",""time"":780.1450000260957},{""stimulus"":""run_exp/static/images/task_images/dig.jpg"",""time"":1555.54500001017}]",[],14,,,,,,,,,,,,,,
harvest,405,988285,0.0-125.0-1.0,,null,run_exp/static/images/task_images/gems/20.jpg,null,,,,,,15,,,14,,,,,20,0.769788327,0.75,,,,,,,
decision,406,988596,0.0-125.0-2.0,,309.93,run_exp/static/images/task_images/land.jpg,65,,,,,,15,,,14,,,,,,,,292238,2,8,FALSE,,,
dig,407,991287,0.0-126.0-0.0,,,,,,,,,,,"[{""stimulus"":""run_exp/static/images/task_images/dig.jpg"",""time"":0.11500000255182385},{""stimulus"":""run_exp/static/images/task_images/land.jpg"",""time"":896.7500000144355},{""stimulus"":""run_exp/static/images/task_images/dig.jpg"",""time"":1794.594999984838}]",[],14,,,,,,,,,,,,,,
harvest,408,992293,0.0-126.0-1.0,,null,run_exp/static/images/task_images/gems/15.jpg,null,,,,,,13,,,14,,,,,15,0.835684485,0.866666667,,,,,,,
decision,409,992905,0.0-126.0-2.0,,611.35,run_exp/static/images/task_images/land.jpg,65,,,,,,13,,,14,,,,,,,,296547,2,9,FALSE,,,
dig,410,995299,0.0-127.0-0.0,,,,,,,,,,,"[{""stimulus"":""run_exp/static/images/task_images/dig.jpg"",""time"":0.13499998021870852},{""stimulus"":""run_exp/static/images/task_images/land.jpg"",""time"":796.9699999666773},{""stimulus"":""run_exp/static/images/task_images/dig.jpg"",""time"":1596.0349999950267}]",[],14,,,,,,,,,,,,,,
harvest,411,996300,0.0-127.0-1.0,,null,run_exp/static/images/task_images/gems/13.jpg,null,,,,,,10,,,14,,,,,13,0.793676761,0.769230769,,,,,,,
decision,412,996832,0.0-127.0-2.0,,530.25,run_exp/static/images/task_images/land.jpg,65,,,,,,10,,,14,,,,,,,,300474,2,10,TRUE,,,
end_of_block_continue,413,1005680,0.0-128.0-0.0,,null,run_exp/static/audio/clip_32_block_end.m4a,,,,,,null,,,,,,,,,,,,,,,,,,
alien_welcome,414,1010690,0.0-129.0-0.0,,null,run_exp/static/images/task_images/aliens/old_aliens/planet/alien_planet-39.jpg,null,,,,,,,,,,,,39,"2,38,33,37,64,6,14,77,8,69,10,70,65,26,39,56,18,31,23,20,9,11,59,12,80,27,74,19,47",,,,,,,,,,
land,415,1011191,0.0-129.0-1.0,,null,run_exp/static/images/task_images/land.jpg,null,,,,,,94,,,15,,,,,,,,,,,,,,
dig,416,1013199,0.0-129.0-2.0,,,,,,,,,,,"[{""stimulus"":""run_exp/static/images/task_images/dig.jpg"",""time"":0.1449999981559813},{""stimulus"":""run_exp/static/images/task_images/land.jpg"",""time"":672.759999986738},{""stimulus"":""run_exp/static/images/task_images/dig.jpg"",""time"":1337.2549999621697}]",[],15,,,,,,,,,,,,,,
harvest,417,1014203,0.0-129.0-3.0,,null,run_exp/static/images/task_images/gems/94.jpg,null,,,,,,50,,,15,,,,,94,0.535589513,0.531914894,,,,,,,
decision,418,1015068,0.0-129.0-4.0,,864.175,run_exp/static/images/task_images/land.jpg,65,,,,,,50,,,15,,,,,,,,9381,3,0,FALSE,,,
dig,419,1017209,0.0-130.0-0.0,,,,,,,,,,,"[{""stimulus"":""run_exp/static/images/task_images/dig.jpg"",""time"":0.11500000255182385},{""stimulus"":""run_exp/static/images/task_images/land.jpg"",""time"":715.7099999603815},{""stimulus"":""run_exp/static/images/task_images/dig.jpg"",""time"":1424.559999955818}]",[],15,,,,,,,,,,,,,,
harvest,420,1018211,0.0-130.0-1.0,,null,run_exp/static/images/task_images/gems/50.jpg,null,,,,,,28,,,15,,,,,50,0.557931129,0.56,,,,,,,
decision,421,1020806,0.0-130.0-2.0,,2593.605,run_exp/static/images/task_images/land.jpg,65,,,,,,28,,,15,,,,,,,,15119,3,1,FALSE,,,
