trial_type,trial_index,time_elapsed,internal_node_id,interactions,blur_events,focus_events,fullscreenenter_events,fullscreenexit_events,success,rt,stimulus,key_press,prompt,subject_id,participant_id,age,gender,button_pressed,next_reward,animation_sequence,responses,planet,curr_prac_trial,n_prac_rounds,alien,aliens,reward_received,decay_rate_actual,decay_rate_exp,time_in_block,block_num,prt,last_trial_on_planet,button_html,bonus,num_failures
pavlovia,0,2,0.0-0.0,"""event"",""trial"",""time""
""fullscreenenter"",""1"",""2334""
","
","
","""event"",""trial"",""time""
""fullscreenenter"",""1"",""2334""
","
",,,,,,,,,,,,,,,,,,,,,,,,,,,,
fullscreen,1,3321,0.0-1.0,"""event"",""trial"",""time""
""fullscreenenter"",""1"",""2334""
","
","
","""event"",""trial"",""time""
""fullscreenenter"",""1"",""2334""
","
",TRUE,,,,,,,,,,,,,,,,,,,,,,,,,,,
instruc_welcome,2,13130,0.0-2.0,"""event"",""trial"",""time""
""fullscreenenter"",""1"",""2334""
","
","
","""event"",""trial"",""time""
""fullscreenenter"",""1"",""2334""
","
",,null,run_exp/static/audio/clip_1_welcome.m4a,null,"<p>Howdy! In this experiment, you’ll be an explorer traveling through space to collect space treasure.</p><p>Your mission is to collect as much treasure as possible.</p><br><br><p><img src='run_exp/static/images/task_images/opening_img-01.jpg' height='300' width='auto'></p>",8097,2407,21.51,Male,,,,,,,,,,,,,,,,,,,
audio-keyboard-response,3,29706,0.0-3.0,"""event"",""trial"",""time""
""fullscreenenter"",""1"",""2334""
","
","
","""event"",""trial"",""time""
""fullscreenenter"",""1"",""2334""
","
",,null,run_exp/static/audio/clip_2_move.m4a,null,,,,,,,,,,,,,,,,,,,,,,,,
welcome_dec,4,32043,0.0-4.0,"""event"",""trial"",""time""
""fullscreenenter"",""1"",""2334""
","
","
","""event"",""trial"",""time""
""fullscreenenter"",""1"",""2334""
","
",,2335.8,"<p>Howdy! In this experiment, you’ll be an explorer traveling through space to collect space treasure.</p><p>Your mission is to collect as much treasure as possible.</p><br><br><p><img src='run_exp/static/images/task_images/opening_img-01.jpg' height='300' width='auto'></p>",,,,,,,1,,,,,,,,,,,,,,,,,,
html-keyboard-response,5,34289,0.0-5.0,"""event"",""trial"",""time""
""fullscreenenter"",""1"",""2334""
","
","
","""event"",""trial"",""time""
""fullscreenenter"",""1"",""2334""
","
",,2244.7,"<p>Howdy! In this experiment, you’ll be an explorer traveling through space to collect space treasure.</p><p>Your mission is to collect as much treasure as possible.</p><br><br><p><img src='run_exp/static/images/task_images/opening_img-01.jpg' height='300' width='auto'></p><button class=""jspsych-html-btn-unchosen""><img src=""run_exp/static/images/task_images/planet-01.jpg"" height=""50""></button><button class=""jspsych-html-btn-chosen""><img src=""run_exp/static/images/task_images/planet-02.jpg"" height=""50""></button><p><b>[press the space bar to lock in your answer]<b><br></p>",32,,,,,,,,,,,,,,,,,,,,,,,,
instruc_goal,6,44340,0.0-6.0-0.0,"""event"",""trial"",""time""
""fullscreenenter"",""1"",""2334""
","
","
","""event"",""trial"",""time""
""fullscreenenter"",""1"",""2334""
","
",,null,run_exp/static/audio/clip_3_goal.m4a,null,"<p> As a space explorer, you’ll visit different planets to dig for space treasure, these pink gems.</p> <p> The more treasure you dig up, the more bonus money you’ll win! </p><br><br><p><img src='run_exp/static/images/task_images/pink_gem.jpg' height='300' width='auto'></p>",,,,,,,,,,,,,,,,,,,,,,,
instruc_goal,7,64554,0.0-6.0-1.0,"""event"",""trial"",""time""
""fullscreenenter"",""1"",""2334""
","
","
","""event"",""trial"",""time""
""fullscreenenter"",""1"",""2334""
","
",,20221.3,"<p> As a space explorer, you’ll visit different planets to dig for space treasure, these pink gems.</p> <p> The more treasure you dig up, the more bonus money you’ll win! </p><br><br><p><img src='run_exp/static/images/task_images/pink_gem.jpg' height='300' width='auto'></p>",,,,,,,1,,,,,,,,,,,,,,,,,,
html-keyboard-response,8,66171,0.0-6.0-2.0,"""event"",""trial"",""time""
""fullscreenenter"",""1"",""2334""
","
","
","""event"",""trial"",""time""
""fullscreenenter"",""1"",""2334""
","
",,1615.4,"<p> As a space explorer, you’ll visit different planets to dig for space treasure, these pink gems.</p> <p> The more treasure you dig up, the more bonus money you’ll win! </p><br><br><p><img src='run_exp/static/images/task_images/pink_gem.jpg' height='300' width='auto'></p><button class=""jspsych-html-btn-unchosen""><img src=""run_exp/static/images/task_images/planet-01.jpg"" height=""50""></button><button class=""jspsych-html-btn-chosen""><img src=""run_exp/static/images/task_images/planet-02.jpg"" height=""50""></button><p><b>[press the space bar to lock in your answer]<b><br></p>",32,,,,,,,,,,,,,,,,,,,,,,,,
instruc_dig,9,82513,0.0-7.0-0.0,"""event"",""trial"",""time""
""fullscreenenter"",""1"",""2334""
","
","
","""event"",""trial"",""time""
""fullscreenenter"",""1"",""2334""
","
",,null,run_exp/static/audio/clip_4_dig.m4a,null,,,,,,,100,,,,,,,,,,,,,,,,,
instruc_dig_try,10,83407,0.0-7.0-1.0,"""event"",""trial"",""time""
""fullscreenenter"",""1"",""2334""
","
","
","""event"",""trial"",""time""
""fullscreenenter"",""1"",""2334""
","
",,892.8000001,"<p> When you’ve arrived at a new planet, you will dig once. </p> <p>Then, you get to decide if you want to stay on the planet and dig again or travel to a new planet and dig there.</p> <p> To stay and dig, press the letter <strong>‘A’</strong> on your keyboard. Try pressing it now! </p><p><img src='run_exp/static/images/task_images/land.jpg'  height='700' width='auto'></p>",65,"<p> When you’ve arrived at a new planet, you will dig once. </p> <p>Then, you get to decide if you want to stay on the planet and dig again or travel to a new planet and dig there.</p> <p> To stay and dig, press the letter <strong>‘A’</strong> on your keyboard. Try pressing it now! </p><p><img src='run_exp/static/images/task_images/land.jpg'  height='700' width='auto'></p>",,,,,,100,,,,,,,,,,,,,,,,,
dig_prac,11,85426,0.0-7.0-2.0,"""event"",""trial"",""time""
""fullscreenenter"",""1"",""2334""
","
","
","""event"",""trial"",""time""
""fullscreenenter"",""1"",""2334""
","
",,,,,,,,,,,,"[{""stimulus"":""run_exp/static/images/task_images/dig.jpg"",""time"":0.2999999523162842},{""stimulus"":""run_exp/static/images/task_images/land.jpg"",""time"":669.2999999523163},{""stimulus"":""run_exp/static/images/task_images/dig.jpg"",""time"":1349.1000000238419}]",[],,,,,,,,,,,,,,,
instruc_travel,12,121660,0.0-7.0-3.0,"""event"",""trial"",""time""
""fullscreenenter"",""1"",""2334""
","
","
","""event"",""trial"",""time""
""fullscreenenter"",""1"",""2334""
","
",,null,run_exp/static/audio/clip_5_travel.m4a,null,"<p>Every time you dig up gems, there are less gems on the planet, so the more you dig on a planet the fewer gems you’ll get with each dig.</p><p>When gems are running low, you may want to travel to a new planet. </p> <p>  Planets are very far apart in this galaxy, so it will take some time to travel between them. </p> <br><p>There are lots and lots of planets for you to visit, so you won’t be able to return to any planets you’ve seen before. </p><br><p>To leave this planet and travel to a new one, press the letter <strong>‘L’</strong> on your keyboard. Try pressing it now! </p><p><img src='run_exp/static/images/task_images/rocket-01.jpg'  height='600' width='auto'></p>",,,,,,,,,,,,,,,,,,,,,,,
instruc_travel_try,13,124219,0.0-7.0-4.0,"""event"",""trial"",""time""
""fullscreenenter"",""1"",""2334""
","
","
","""event"",""trial"",""time""
""fullscreenenter"",""1"",""2334""
","
",,2565.9,"<p>Every time you dig up gems, there are less gems on the planet, so the more you dig on a planet the fewer gems you’ll get with each dig.</p><p>When gems are running low, you may want to travel to a new planet. </p> <p>  Planets are very far apart in this galaxy, so it will take some time to travel between them. </p> <br><p>There are lots and lots of planets for you to visit, so you won’t be able to return to any planets you’ve seen before. </p><br><p>To leave this planet and travel to a new one, press the letter <strong>‘L’</strong> on your keyboard. Try pressing it now! </p><p><img src='run_exp/static/images/task_images/rocket-01.jpg'  height='600' width='auto'></p>",76,"<p>Every time you dig up gems, there are less gems on the planet, so the more you dig on a planet the fewer gems you’ll get with each dig.</p><p>When gems are running low, you may want to travel to a new planet. </p> <p>  Planets are very far apart in this galaxy, so it will take some time to travel between them. </p> <br><p>There are lots and lots of planets for you to visit, so you won’t be able to return to any planets you’ve seen before. </p><br><p>To leave this planet and travel to a new one, press the letter <strong>‘L’</strong> on your keyboard. Try pressing it now! </p><p><img src='run_exp/static/images/task_images/rocket-01.jpg'  height='600' width='auto'></p>",,,,,,,,,,,,,,,,,,,,,,,
travel_prac,14,134222,0.0-7.0-5.0,"""event"",""trial"",""time""
""fullscreenenter"",""1"",""2334""
","
","
","""event"",""trial"",""time""
""fullscreenenter"",""1"",""2334""
","
",,,,,,,,,,,,"[{""stimulus"":""run_exp/static/images/task_images/rocket-01.jpg"",""time"":0.10000002384185791},{""stimulus"":""run_exp/static/images/task_images/rocket-02.jpg"",""time"":1123.1000000238419},{""stimulus"":""run_exp/static/images/task_images/rocket-03.jpg"",""time"":2226.5},{""stimulus"":""run_exp/static/images/task_images/rocket-04.jpg"",""time"":3346.8000000715256},{""stimulus"":""run_exp/static/images/task_images/rocket-05.jpg"",""time"":4461.600000023842},{""stimulus"":""run_exp/static/images/task_images/rocket-06.jpg"",""time"":5571.300000071526},{""stimulus"":""run_exp/static/images/task_images/rocket-07.jpg"",""time"":6675.100000023842},{""stimulus"":""run_exp/static/images/task_images/rocket-08.jpg"",""time"":7789.700000047684},{""stimulus"":""run_exp/static/images/task_images/rocket-09.jpg"",""time"":8904.200000047684}]",[],0,,,,,,,,,,,,,,
instruc_alien_greet,15,161397,0.0-7.0-6.0,"""event"",""trial"",""time""
""fullscreenenter"",""1"",""2334""
","
","
","""event"",""trial"",""time""
""fullscreenenter"",""1"",""2334""
","
",,null,run_exp/static/audio/clip_6_alien.m4a,null,"<p>When you arrive at a new planet, the alien who owns the treasure mine on that planet will greet you!</p><p>The better an alien takes care of their mine the easier it is to dig for gems. Some aliens take better care of their mine than others. So, you won’t get exactly the same amount of gems on each planet.</p><p>What the alien looks like does not tell you anything about how many gems there are on the planet.</p><br><p><img src=""run_exp/static/images/task_images/aliens/instructions_aliens/planet/alien_planet-1.jpg""  height=""600"" width=""auto""></p>",,,,,,,,,,,,,,,,,,,,,,,
instruc_alien_greet,16,163946,0.0-7.0-7.0,"""event"",""trial"",""time""
""fullscreenenter"",""1"",""2334""
","
","
","""event"",""trial"",""time""
""fullscreenenter"",""1"",""2334""
","
",,2548.4,"<p>When you arrive at a new planet, the alien who owns the treasure mine on that planet will greet you!</p><p>The better an alien takes care of their mine the easier it is to dig for gems. Some aliens take better care of their mine than others. So, you won’t get exactly the same amount of gems on each planet.</p><p>What the alien looks like does not tell you anything about how many gems there are on the planet.</p><br><p><img src=""run_exp/static/images/task_images/aliens/instructions_aliens/planet/alien_planet-1.jpg""  height=""600"" width=""auto""></p>",,,,,,,1,,,,,,,,,,,,,,,,,,
html-keyboard-response,17,164948,0.0-7.0-8.0,"""event"",""trial"",""time""
""fullscreenenter"",""1"",""2334""
","
","
","""event"",""trial"",""time""
""fullscreenenter"",""1"",""2334""
","
",,1000.4,"<p>When you arrive at a new planet, the alien who owns the treasure mine on that planet will greet you!</p><p>The better an alien takes care of their mine the easier it is to dig for gems. Some aliens take better care of their mine than others. So, you won’t get exactly the same amount of gems on each planet.</p><p>What the alien looks like does not tell you anything about how many gems there are on the planet.</p><br><p><img src=""run_exp/static/images/task_images/aliens/instructions_aliens/planet/alien_planet-1.jpg""  height=""600"" width=""auto""></p><button class=""jspsych-html-btn-unchosen""><img src=""run_exp/static/images/task_images/planet-01.jpg"" height=""50""></button><button class=""jspsych-html-btn-chosen""><img src=""run_exp/static/images/task_images/planet-02.jpg"" height=""50""></button><p><b>[press the space bar to lock in your answer]<b><br></p>",32,,,,,,,,,,,,,,,,,,,,,,,,
time_out,18,176032,0.0-8.0-0.0,"""event"",""trial"",""time""
""fullscreenenter"",""1"",""2334""
","
","
","""event"",""trial"",""time""
""fullscreenenter"",""1"",""2334""
","
",,null,run_exp/static/audio/clip_7_timeout.m4a,null,"<p>If you don't make your choice fast enough, you’ll have to wait a few seconds before you can make another one.</p><p>You can’t dig for more gems or travel to new planets. You just have to sit and wait.</p><br><p><img src='run_exp/static/images/task_images/time_out.jpg'  height='600' width='auto'></p>",,,,,,,,,,,,,,,,,,,,,,,
time_out,19,177929,0.0-8.0-1.0,"""event"",""trial"",""time""
""fullscreenenter"",""1"",""2334""
","
","
","""event"",""trial"",""time""
""fullscreenenter"",""1"",""2334""
","
",,1895.9,"<p>If you don't make your choice fast enough, you’ll have to wait a few seconds before you can make another one.</p><p>You can’t dig for more gems or travel to new planets. You just have to sit and wait.</p><br><p><img src='run_exp/static/images/task_images/time_out.jpg'  height='600' width='auto'></p>",,,,,,,1,,,,,,,,,,,,,,,,,,
html-keyboard-response,20,178745,0.0-8.0-2.0,"""event"",""trial"",""time""
""fullscreenenter"",""1"",""2334""
","
","
","""event"",""trial"",""time""
""fullscreenenter"",""1"",""2334""
","
",,816,"<p>If you don't make your choice fast enough, you’ll have to wait a few seconds before you can make another one.</p><p>You can’t dig for more gems or travel to new planets. You just have to sit and wait.</p><br><p><img src='run_exp/static/images/task_images/time_out.jpg'  height='600' width='auto'></p><button class=""jspsych-html-btn-unchosen""><img src=""run_exp/static/images/task_images/planet-01.jpg"" height=""50""></button><button class=""jspsych-html-btn-chosen""><img src=""run_exp/static/images/task_images/planet-02.jpg"" height=""50""></button><p><b>[press the space bar to lock in your answer]<b><br></p>",32,,,,,,,,,,,,,,,,,,,,,,,,
instruc_break,21,194412,0.0-9.0-0.0,"""event"",""trial"",""time""
""fullscreenenter"",""1"",""2334""
","
","
","""event"",""trial"",""time""
""fullscreenenter"",""1"",""2334""
","
",,null,run_exp/static/audio/clip_8_break.m4a,null,"<p> After digging and traveling for a while, you’ll be able to take a break at home base. </p><p>The game will last 20 minutes no matter what.</p><p>You will visit home base every 5 minutes, so, you will visit home base three times during the game.</p><br><p><img src='run_exp/static/images/task_images/home_base.jpg' height='600' width='auto'></p>",,,,,,,,,,,,,,,,,,,,,,,
instruc_break,22,196000,0.0-9.0-1.0,"""event"",""trial"",""time""
""fullscreenenter"",""1"",""2334""
","
","
","""event"",""trial"",""time""
""fullscreenenter"",""1"",""2334""
","
",,1586.7,"<p> After digging and traveling for a while, you’ll be able to take a break at home base. </p><p>The game will last 20 minutes no matter what.</p><p>You will visit home base every 5 minutes, so, you will visit home base three times during the game.</p><br><p><img src='run_exp/static/images/task_images/home_base.jpg' height='600' width='auto'></p>",,,,,,,1,,,,,,,,,,,,,,,,,,
html-keyboard-response,23,196421,0.0-9.0-2.0,"""event"",""trial"",""time""
""fullscreenenter"",""1"",""2334""
","
","
","""event"",""trial"",""time""
""fullscreenenter"",""1"",""2334""
","
",,420.2,"<p> After digging and traveling for a while, you’ll be able to take a break at home base. </p><p>The game will last 20 minutes no matter what.</p><p>You will visit home base every 5 minutes, so, you will visit home base three times during the game.</p><br><p><img src='run_exp/static/images/task_images/home_base.jpg' height='600' width='auto'></p><button class=""jspsych-html-btn-unchosen""><img src=""run_exp/static/images/task_images/planet-01.jpg"" height=""50""></button><button class=""jspsych-html-btn-chosen""><img src=""run_exp/static/images/task_images/planet-02.jpg"" height=""50""></button><p><b>[press the space bar to lock in your answer]<b><br></p>",32,,,,,,,,,,,,,,,,,,,,,,,,
instruc_prac_game,24,206529,0.0-10.0-0.0,"""event"",""trial"",""time""
""fullscreenenter"",""1"",""2334""
","
","
","""event"",""trial"",""time""
""fullscreenenter"",""1"",""2334""
","
",,null,run_exp/static/audio/clip_9_practice.m4a,null,"<p> Are you ready to play a practice game? </p> <p>In this practice game, you'll be digging up barrels of gems. But, in the real game, you'll be digging up the gems themselves. </p>",,,,,,,,,,,,,,,,,,,,,,,
html-button-response,25,207845,0.0-10.0-1.0,"""event"",""trial"",""time""
""fullscreenenter"",""1"",""2334""
","
","
","""event"",""trial"",""time""
""fullscreenenter"",""1"",""2334""
","
",,1315.1,"<p> Are you ready to play a practice game? </p> <p>In this practice game, you'll be digging up barrels of gems. But, in the real game, you'll be digging up the gems themselves. </p>",,,,,,,0,,,,,,,,,,,,,,,,,,
alien_welcome_prac,26,212859,0.0-11.0-0.0,"""event"",""trial"",""time""
""fullscreenenter"",""1"",""2334""
","
","
","""event"",""trial"",""time""
""fullscreenenter"",""1"",""2334""
","
",,null,run_exp/static/images/task_images/aliens/practice_aliens/planet/alien_planet-5.jpg,null,,,,,,,,,,,,,,,,,,,,,,,,
land_prac,27,213362,0.0-11.0-1.0,"""event"",""trial"",""time""
""fullscreenenter"",""1"",""2334""
","
","
","""event"",""trial"",""time""
""fullscreenenter"",""1"",""2334""
","
",,null,run_exp/static/images/task_images/land.jpg,null,,,,,,,98,,,0,,,,,,,,,,,,,,
dig_prac,28,215376,0.0-11.0-2.0,"""event"",""trial"",""time""
""fullscreenenter"",""1"",""2334""
","
","
","""event"",""trial"",""time""
""fullscreenenter"",""1"",""2334""
","
",,,,,,,,,,,,"[{""stimulus"":""run_exp/static/images/task_images/dig.jpg"",""time"":0.19999992847442627},{""stimulus"":""run_exp/static/images/task_images/land.jpg"",""time"":679.5},{""stimulus"":""run_exp/static/images/task_images/dig.jpg"",""time"":1343.1000000238419}]",[],,,,,,,,,,,,,,,
harvest_prac,29,216378,0.0-11.0-3.0,"""event"",""trial"",""time""
""fullscreenenter"",""1"",""2334""
","
","
","""event"",""trial"",""time""
""fullscreenenter"",""1"",""2334""
","
",,null,run_exp/static/images/task_images/barrel_text.jpg,null,,,,,,,,,,,,,,,,,,,,,,,,
decision_prac,30,218735,0.0-11.0-4.0,"""event"",""trial"",""time""
""fullscreenenter"",""1"",""2334""
","
","
","""event"",""trial"",""time""
""fullscreenenter"",""1"",""2334""
","
",,2355.7,run_exp/static/images/task_images/land.jpg,65,,,,,,,,,,,1,,,,,,,,,,,,,
dig_prac,31,220743,0.0-12.0-0.0,"""event"",""trial"",""time""
""fullscreenenter"",""1"",""2334""
","
","
","""event"",""trial"",""time""
""fullscreenenter"",""1"",""2334""
","
",,,,,,,,,,,,"[{""stimulus"":""run_exp/static/images/task_images/dig.jpg"",""time"":0.10000002384185791},{""stimulus"":""run_exp/static/images/task_images/land.jpg"",""time"":678.5},{""stimulus"":""run_exp/static/images/task_images/dig.jpg"",""time"":1344.6000000238419}]",[],,,,,,,,,,,,,,,
harvest_prac,32,221750,0.0-12.0-1.0,"""event"",""trial"",""time""
""fullscreenenter"",""1"",""2334""
","
","
","""event"",""trial"",""time""
""fullscreenenter"",""1"",""2334""
","
",,null,run_exp/static/images/task_images/barrel_text.jpg,null,,,,,,,,,,,,,,,,,,,,,,,,
decision_prac,33,223067,0.0-12.0-2.0,"""event"",""trial"",""time""
""fullscreenenter"",""1"",""2334""
","
","
","""event"",""trial"",""time""
""fullscreenenter"",""1"",""2334""
","
",,1316.2,run_exp/static/images/task_images/land.jpg,65,,,,,,,,,,,2,,,,,,,,,,,,,
dig_prac,34,225077,0.0-13.0-0.0,"""event"",""trial"",""time""
""fullscreenenter"",""1"",""2334""
","
","
","""event"",""trial"",""time""
""fullscreenenter"",""1"",""2334""
","
",,,,,,,,,,,,"[{""stimulus"":""run_exp/static/images/task_images/dig.jpg"",""time"":0.20000004768371582},{""stimulus"":""run_exp/static/images/task_images/land.jpg"",""time"":680.7000000476837},{""stimulus"":""run_exp/static/images/task_images/dig.jpg"",""time"":1336.8000000715256}]",[],,,,,,,,,,,,,,,
harvest_prac,35,226083,0.0-13.0-1.0,"""event"",""trial"",""time""
""fullscreenenter"",""1"",""2334""
","
","
","""event"",""trial"",""time""
""fullscreenenter"",""1"",""2334""
","
",,null,run_exp/static/images/task_images/barrel_text.jpg,null,,,,,,,,,,,,,,,,,,,,,,,,
decision_prac,36,228256,0.0-13.0-2.0,"""event"",""trial"",""time""
""fullscreenenter"",""1"",""2334""
","
","
","""event"",""trial"",""time""
""fullscreenenter"",""1"",""2334""
","
",,2171.3,run_exp/static/images/task_images/land.jpg,65,,,,,,,,,,,3,,,,,,,,,,,,,
dig_prac,37,230262,0.0-14.0-0.0,"""event"",""trial"",""time""
""fullscreenenter"",""1"",""2334""
","
","
","""event"",""trial"",""time""
""fullscreenenter"",""1"",""2334""
","
",,,,,,,,,,,,"[{""stimulus"":""run_exp/static/images/task_images/dig.jpg"",""time"":0.10000002384185791},{""stimulus"":""run_exp/static/images/task_images/land.jpg"",""time"":682},{""stimulus"":""run_exp/static/images/task_images/dig.jpg"",""time"":1345.6000000238419}]",[],,,,,,,,,,,,,,,
harvest_prac,38,231265,0.0-14.0-1.0,"""event"",""trial"",""time""
""fullscreenenter"",""1"",""2334""
","
","
","""event"",""trial"",""time""
""fullscreenenter"",""1"",""2334""
","
",,null,run_exp/static/images/task_images/barrel_text.jpg,null,,,,,,,,,,,,,,,,,,,,,,,,
decision_prac,39,232121,0.0-14.0-2.0,"""event"",""trial"",""time""
""fullscreenenter"",""1"",""2334""
","
","
","""event"",""trial"",""time""
""fullscreenenter"",""1"",""2334""
","
",,855.3,run_exp/static/images/task_images/land.jpg,65,,,,,,,,,,,4,,,,,,,,,,,,,
dig_prac,40,234139,0.0-15.0-0.0,"""event"",""trial"",""time""
""fullscreenenter"",""1"",""2334""
","
","
","""event"",""trial"",""time""
""fullscreenenter"",""1"",""2334""
","
",,,,,,,,,,,,"[{""stimulus"":""run_exp/static/images/task_images/dig.jpg"",""time"":0.10000002384185791},{""stimulus"":""run_exp/static/images/task_images/land.jpg"",""time"":672.7999999523163},{""stimulus"":""run_exp/static/images/task_images/dig.jpg"",""time"":1350.1000000238419}]",[],,,,,,,,,,,,,,,
harvest_prac,41,235147,0.0-15.0-1.0,"""event"",""trial"",""time""
""fullscreenenter"",""1"",""2334""
","
","
","""event"",""trial"",""time""
""fullscreenenter"",""1"",""2334""
","
",,null,run_exp/static/images/task_images/barrel_text.jpg,null,,,,,,,,,,,,,,,,,,,,,,,,
decision_prac,42,235959,0.0-15.0-2.0,"""event"",""trial"",""time""
""fullscreenenter"",""1"",""2334""
","
","
","""event"",""trial"",""time""
""fullscreenenter"",""1"",""2334""
","
",,810.9000001,run_exp/static/images/task_images/land.jpg,65,,,,,,,,,,,,1,,,,,,,,,,,,
quiz_instruc,43,240034,0.0-16.0-0.0,"""event"",""trial"",""time""
""fullscreenenter"",""1"",""2334""
","
","
","""event"",""trial"",""time""
""fullscreenenter"",""1"",""2334""
","
",,4073.1,run_exp/static/audio/clip_10_quiz.m4a,,,,,,,0,,,,,,,,,,,,,,,,,,
instruc_repeat,44,282777,0.0-16.0-1.0,"""event"",""trial"",""time""
""fullscreenenter"",""1"",""2334""
","
","
","""event"",""trial"",""time""
""fullscreenenter"",""1"",""2334""
","
",,null,"<p> Are you ready to play a practice game? </p> <p>In this practice game, you'll be digging up barrels of gems. But, in the real game, you'll be digging up the gems themselves. </p>",null,"<p>In this game, your goal is to collect as many gems as you can. That’s how you will win bonus money. </p> <p>The entire game will last 20 minutes no matter how many gems you collect or how many planets you visit. </p><p>To stay on a planet and dig again, press the letter A on your keyboard. To leave for a new planet, press the letter L.</p><p>The more you dig on a planet, the fewer gems you’ll get with each dig which is why you might consider leaving for a new planet. </p><p>When you arrive at a new planet, you’ll be greeted by an alien. What the alien looks like does not tell you anything about how much treasure is on the planet. </p>",,,,,,,,,,,,,,,,,,,,,,,
instruc_repeat_continue,45,284849,0.0-16.0-2.0,"""event"",""trial"",""time""
""fullscreenenter"",""1"",""2334""
","
","
","""event"",""trial"",""time""
""fullscreenenter"",""1"",""2334""
","
",,2071.7,"<p> Are you ready to play a practice game? </p> <p>In this practice game, you'll be digging up barrels of gems. But, in the real game, you'll be digging up the gems themselves. </p>",,,,,,,0,,,,,,,,,,,,,,,,,,
quiz_q_1_ask,46,293482,0.0-16.0-3.0,"""event"",""trial"",""time""
""fullscreenenter"",""1"",""2334""
","
","
","""event"",""trial"",""time""
""fullscreenenter"",""1"",""2334""
","
",,8631.7,run_exp/static/audio/clip_11_q1_ask.m4a,,,,,,,2,,,,,,,,,,,,,,,,,,
quiz_q_1_fb_correct,47,297326,0.0-17.0-0.0,"""event"",""trial"",""time""
""fullscreenenter"",""1"",""2334""
","
","
","""event"",""trial"",""time""
""fullscreenenter"",""1"",""2334""
","
",,null,run_exp/static/audio/clip_12_q1_correct.m4a,null,<p>That’s correct. You win extra money by collecting more gems.</p>,,,,,,,,,,,,,,,,,,,,,,,
quiz_q_2_ask,48,300038,0.0-17.0-1.0,"""event"",""trial"",""time""
""fullscreenenter"",""1"",""2334""
","
","
","""event"",""trial"",""time""
""fullscreenenter"",""1"",""2334""
","
",,2711.3,run_exp/static/audio/clip_14_q2_ask.m4a,,,,,,,1,,,,,,,,,,,,,,,,,,
quiz_q_2_fb_correct,49,304024,0.0-18.0-0.0,"""event"",""trial"",""time""
""fullscreenenter"",""1"",""2334""
","
","
","""event"",""trial"",""time""
""fullscreenenter"",""1"",""2334""
","
",,null,run_exp/static/audio/clip_15_q2_correct.m4a,null,<p>That’s correct. The experiment is 20 minutes no matter what.</p>,,,,,,,,,,,,,,,,,,,,,,,
quiz_q_3_ask,50,306482,0.0-18.0-1.0,"""event"",""trial"",""time""
""fullscreenenter"",""1"",""2334""
","
","
","""event"",""trial"",""time""
""fullscreenenter"",""1"",""2334""
","
",,2456.9,run_exp/static/audio/clip_17_q3_ask.m4a,,,,,,,1,,,,,,,,,,,,,,,,,,
quiz_q_3_fb_correct,51,310439,0.0-19.0-0.0,"""event"",""trial"",""time""
""fullscreenenter"",""1"",""2334""
","
","
","""event"",""trial"",""time""
""fullscreenenter"",""1"",""2334""
","
",,null,run_exp/static/audio/clip_18_q3_correct.m4a,null,<p> That’s correct. You press the letter L to travel to a new planet.</p>,,,,,,,,,,,,,,,,,,,,,,,
quiz_q_4_ask,52,313395,0.0-19.0-1.0,"""event"",""trial"",""time""
""fullscreenenter"",""1"",""2334""
","
","
","""event"",""trial"",""time""
""fullscreenenter"",""1"",""2334""
","
",,2955.3,run_exp/static/audio/clip_20_q4_ask.m4a,,,,,,,0,,,,,,,,,,,,,,,,,,
quiz_q_4_fb_correct,53,318716,0.0-20.0-0.0,"""event"",""trial"",""time""
""fullscreenenter"",""1"",""2334""
","
","
","""event"",""trial"",""time""
""fullscreenenter"",""1"",""2334""
","
",,null,run_exp/static/audio/clip_21_q4_correct.m4a,null,<p> That’s correct. The more you dig on a planet the fewer gems you’ll get with each dig. </p>,,,,,,,,,,,,,,,,,,,,,,,
quiz_q_5_ask,54,321094,0.0-20.0-1.0,"""event"",""trial"",""time""
""fullscreenenter"",""1"",""2334""
","
","
","""event"",""trial"",""time""
""fullscreenenter"",""1"",""2334""
","
",,2376.5,run_exp/static/audio/clip_23_q5_ask.m4a,,,,,,,1,,,,,,,,,,,,,,,,,,
quiz_q_5_fb_correct,55,326097,0.0-21.0-0.0,"""event"",""trial"",""time""
""fullscreenenter"",""1"",""2334""
","
","
","""event"",""trial"",""time""
""fullscreenenter"",""1"",""2334""
","
",,null,run_exp/static/audio/clip_24_q5_correct.m4a,null,<p> That’s correct. The alien tells you nothing about how much treasure is on the planet.</p>,,,,,,,,,,,,,,,,,,,,,,,
quiz_correct,56,329553,0.0-22.0-0.0,"""event"",""trial"",""time""
""fullscreenenter"",""1"",""2334""
","
","
","""event"",""trial"",""time""
""fullscreenenter"",""1"",""2334""
","
",,null,run_exp/static/audio/clip_26_correct_quiz.m4a,null,,,,,,,,,,,,,,,,,,,,,,,,
quiz_correct_continue,57,330840,0.0-22.0-1.0,"""event"",""trial"",""time""
""fullscreenenter"",""1"",""2334""
","
","
","""event"",""trial"",""time""
""fullscreenenter"",""1"",""2334""
","
",,1285.9,<p>Good job! You're now ready to move on to the real game!</p>,,,,,,,0,,,,,,,,,,,,,,,,,,
audio-keyboard-response,58,340945,0.0-22.0-2.0,"""event"",""trial"",""time""
""fullscreenenter"",""1"",""2334""
","
","
","""event"",""trial"",""time""
""fullscreenenter"",""1"",""2334""
","
",,null,run_exp/static/audio/clip_28_real_game.m4a,null,,,,,,,,,,,,,,,,,,,,,,,,
instruc_begin_exp_contine,59,341814,0.0-22.0-3.0,"""event"",""trial"",""time""
""fullscreenenter"",""1"",""2334""
","
","
","""event"",""trial"",""time""
""fullscreenenter"",""1"",""2334""
","
",,868,"<p>Now that you know how  to dig for space treasure and travel to new planets,you can start exploring! </p><p>Do you want to go over the instructions again or get started with the real game?</p>",,,,,,,1,,,,,,1,,,,,,,,,,,,
alien_welcome,60,346828,0.0-23.0-0.0,"""event"",""trial"",""time""
""fullscreenenter"",""1"",""2334""
","
","
","""event"",""trial"",""time""
""fullscreenenter"",""1"",""2334""
","
",,null,run_exp/static/images/task_images/aliens/old_aliens/planet/alien_planet-63.jpg,null,,,,,,,,,,,,,63,"63,67,38,29,47,62,46,68,3,55,7,10,32,77,79,12,17,19,36,51,57,24,13,18,11,33,6,52,53,80,64,15,39,49,2,69,5,27,56,45,44,23,74,31,21,34,50,40,16,4,76,75,37,30,65,9",,,,,,,,,,
land,61,347332,0.0-23.0-1.0,"""event"",""trial"",""time""
""fullscreenenter"",""1"",""2334""
","
","
","""event"",""trial"",""time""
""fullscreenenter"",""1"",""2334""
","
",,null,run_exp/static/images/task_images/land.jpg,null,,,,,,,102,,,1,,,,,,,,,,,,,,
dig,62,349346,0.0-23.0-2.0,"""event"",""trial"",""time""
""fullscreenenter"",""1"",""2334""
","
","
","""event"",""trial"",""time""
""fullscreenenter"",""1"",""2334""
","
",,,,,,,,,,,,"[{""stimulus"":""run_exp/static/images/task_images/dig.jpg"",""time"":0.10000002384185791},{""stimulus"":""run_exp/static/images/task_images/land.jpg"",""time"":672.2000000476837},{""stimulus"":""run_exp/static/images/task_images/dig.jpg"",""time"":1344.6000000238419}]",[],1,,,,,,,,,,,,,,
harvest,63,350358,0.0-23.0-3.0,"""event"",""trial"",""time""
""fullscreenenter"",""1"",""2334""
","
","
","""event"",""trial"",""time""
""fullscreenenter"",""1"",""2334""
","
",,null,run_exp/static/images/task_images/gems/102.jpg,null,,,,,,,14,,,1,,,,,102,0.13665414,0.137254902,,,,,,,
decision,64,350717,0.0-23.0-4.0,"""event"",""trial"",""time""
""fullscreenenter"",""1"",""2334""
","
","
","""event"",""trial"",""time""
""fullscreenenter"",""1"",""2334""
","
",,357.6,run_exp/static/images/task_images/land.jpg,65,,,,,,,14,,,1,,,,,,,,8902,1,0,FALSE,,,
dig,65,353371,0.0-24.0-0.0,"""event"",""trial"",""time""
""fullscreenenter"",""1"",""2334""
","
","
","""event"",""trial"",""time""
""fullscreenenter"",""1"",""2334""
","
",,,,,,,,,,,,"[{""stimulus"":""run_exp/static/images/task_images/dig.jpg"",""time"":0.09999990463256836},{""stimulus"":""run_exp/static/images/task_images/land.jpg"",""time"":894},{""stimulus"":""run_exp/static/images/task_images/dig.jpg"",""time"":1769.5}]",[],1,,,,,,,,,,,,,,
harvest,66,354379,0.0-24.0-1.0,"""event"",""trial"",""time""
""fullscreenenter"",""1"",""2334""
","
","
","""event"",""trial"",""time""
""fullscreenenter"",""1"",""2334""
","
",,null,run_exp/static/images/task_images/gems/14.jpg,null,,,,,,,3,,,1,,,,,14,0.186964808,0.214285714,,,,,,,
decision,67,354807,0.0-24.0-2.0,"""event"",""trial"",""time""
""fullscreenenter"",""1"",""2334""
","
","
","""event"",""trial"",""time""
""fullscreenenter"",""1"",""2334""
","
",,427.3000001,run_exp/static/images/task_images/land.jpg,65,,,,,,,3,,,1,,,,,,,,12992,1,1,FALSE,,,
dig,68,357392,0.0-25.0-0.0,"""event"",""trial"",""time""
""fullscreenenter"",""1"",""2334""
","
","
","""event"",""trial"",""time""
""fullscreenenter"",""1"",""2334""
","
",,,,,,,,,,,,"[{""stimulus"":""run_exp/static/images/task_images/dig.jpg"",""time"":0},{""stimulus"":""run_exp/static/images/task_images/land.jpg"",""time"":866.5999999046326},{""stimulus"":""run_exp/static/images/task_images/dig.jpg"",""time"":1716.1999999284744}]",[],1,,,,,,,,,,,,,,
harvest,69,358395,0.0-25.0-1.0,"""event"",""trial"",""time""
""fullscreenenter"",""1"",""2334""
","
","
","""event"",""trial"",""time""
""fullscreenenter"",""1"",""2334""
","
",,null,run_exp/static/images/task_images/gems/3.jpg,null,,,,,,,1,,,1,,,,,3,0.26940779,0.333333333,,,,,,,
decision,70,359107,0.0-25.0-2.0,"""event"",""trial"",""time""
""fullscreenenter"",""1"",""2334""
","
","
","""event"",""trial"",""time""
""fullscreenenter"",""1"",""2334""
","
",,711,run_exp/static/images/task_images/land.jpg,65,,,,,,,1,,,1,,,,,,,,17292,1,2,FALSE,,,
dig,71,361414,0.0-26.0-0.0,"""event"",""trial"",""time""
""fullscreenenter"",""1"",""2334""
","
","
","""event"",""trial"",""time""
""fullscreenenter"",""1"",""2334""
","
",,,,,,,,,,,,"[{""stimulus"":""run_exp/static/images/task_images/dig.jpg"",""time"":0},{""stimulus"":""run_exp/static/images/task_images/land.jpg"",""time"":777.0999999046326},{""stimulus"":""run_exp/static/images/task_images/dig.jpg"",""time"":1529.6999999284744}]",[],1,,,,,,,,,,,,,,
harvest,72,362427,0.0-26.0-1.0,"""event"",""trial"",""time""
""fullscreenenter"",""1"",""2334""
","
","
","""event"",""trial"",""time""
""fullscreenenter"",""1"",""2334""
","
",,null,run_exp/static/images/task_images/gems/1.jpg,null,,,,,,,0,,,1,,,,,1,0.180348363,0,,,,,,,
decision,73,363381,0.0-26.0-2.0,"""event"",""trial"",""time""
""fullscreenenter"",""1"",""2334""
","
","
","""event"",""trial"",""time""
""fullscreenenter"",""1"",""2334""
","
",,952.8000001,run_exp/static/images/task_images/land.jpg,76,,,,,,,0,,,1,,,,,,,,21566,1,3,TRUE,,,
travel,74,372425,0.0-27.0-0.0,"""event"",""trial"",""time""
""fullscreenenter"",""1"",""2334""
","
","
","""event"",""trial"",""time""
""fullscreenenter"",""1"",""2334""
","
",,,,,,,,,,,,"[{""stimulus"":""run_exp/static/images/task_images/rocket-01.jpg"",""time"":0.10000002384185791},{""stimulus"":""run_exp/static/images/task_images/rocket-02.jpg"",""time"":1018.2999999523163},{""stimulus"":""run_exp/static/images/task_images/rocket-03.jpg"",""time"":2026.5},{""stimulus"":""run_exp/static/images/task_images/rocket-04.jpg"",""time"":3023.7999999523163},{""stimulus"":""run_exp/static/images/task_images/rocket-05.jpg"",""time"":4025.6999999284744},{""stimulus"":""run_exp/static/images/task_images/rocket-06.jpg"",""time"":5040.100000023842},{""stimulus"":""run_exp/static/images/task_images/rocket-07.jpg"",""time"":6042},{""stimulus"":""run_exp/static/images/task_images/rocket-08.jpg"",""time"":7051.899999976158},{""stimulus"":""run_exp/static/images/task_images/rocket-09.jpg"",""time"":8052.899999976158}]",[],1,,,,,,,,,,,,,,
alien_welcome,75,377438,0.0-27.0-1.0,"""event"",""trial"",""time""
""fullscreenenter"",""1"",""2334""
","
","
","""event"",""trial"",""time""
""fullscreenenter"",""1"",""2334""
","
",,null,run_exp/static/images/task_images/aliens/old_aliens/planet/alien_planet-67.jpg,null,,,,,,,,,,,,,67,"63,67,38,29,47,62,46,68,3,55,7,10,32,77,79,12,17,19,36,51,57,24,13,18,11,33,6,52,53,80,64,15,39,49,2,69,5,27,56,45,44,23,74,31,21,34,50,40,16,4,76,75,37,30,65,9",,,,,,,,,,
land,76,377951,0.0-27.0-2.0,"""event"",""trial"",""time""
""fullscreenenter"",""1"",""2334""
","
","
","""event"",""trial"",""time""
""fullscreenenter"",""1"",""2334""
","
",,null,run_exp/static/images/task_images/land.jpg,null,,,,,,,95,,,2,,,,,,,,,,,,,,
dig,77,379962,0.0-27.0-3.0,"""event"",""trial"",""time""
""fullscreenenter"",""1"",""2334""
","
","
","""event"",""trial"",""time""
""fullscreenenter"",""1"",""2334""
","
",,,,,,,,,,,,"[{""stimulus"":""run_exp/static/images/task_images/dig.jpg"",""time"":0.20000004768371582},{""stimulus"":""run_exp/static/images/task_images/land.jpg"",""time"":676.3999999761581},{""stimulus"":""run_exp/static/images/task_images/dig.jpg"",""time"":1350.5}]",[],2,,,,,,,,,,,,,,
harvest,78,380974,0.0-27.0-4.0,"""event"",""trial"",""time""
""fullscreenenter"",""1"",""2334""
","
","
","""event"",""trial"",""time""
""fullscreenenter"",""1"",""2334""
","
",,null,run_exp/static/images/task_images/gems/95.jpg,null,,,,,,,17,,,2,,,,,95,0.179320118,0.178947368,,,,,,,
decision,79,381536,0.0-27.0-5.0,"""event"",""trial"",""time""
""fullscreenenter"",""1"",""2334""
","
","
","""event"",""trial"",""time""
""fullscreenenter"",""1"",""2334""
","
",,560.6,run_exp/static/images/task_images/land.jpg,65,,,,,,,17,,,2,,,,,,,,39721,1,0,FALSE,,,
dig,80,383988,0.0-28.0-0.0,"""event"",""trial"",""time""
""fullscreenenter"",""1"",""2334""
","
","
","""event"",""trial"",""time""
""fullscreenenter"",""1"",""2334""
","
",,,,,,,,,,,,"[{""stimulus"":""run_exp/static/images/task_images/dig.jpg"",""time"":0.10000002384185791},{""stimulus"":""run_exp/static/images/task_images/land.jpg"",""time"":817.3999999761581},{""stimulus"":""run_exp/static/images/task_images/dig.jpg"",""time"":1628.6999999284744}]",[],2,,,,,,,,,,,,,,
harvest,81,384990,0.0-28.0-1.0,"""event"",""trial"",""time""
""fullscreenenter"",""1"",""2334""
","
","
","""event"",""trial"",""time""
""fullscreenenter"",""1"",""2334""
","
",,null,run_exp/static/images/task_images/gems/17.jpg,null,,,,,,,4,,,2,,,,,17,0.217861084,0.235294118,,,,,,,
decision,82,385435,0.0-28.0-2.0,"""event"",""trial"",""time""
""fullscreenenter"",""1"",""2334""
","
","
","""event"",""trial"",""time""
""fullscreenenter"",""1"",""2334""
","
",,444.1999999,run_exp/static/images/task_images/land.jpg,65,,,,,,,4,,,2,,,,,,,,43620,1,1,FALSE,,,
dig,83,387998,0.0-29.0-0.0,"""event"",""trial"",""time""
""fullscreenenter"",""1"",""2334""
","
","
","""event"",""trial"",""time""
""fullscreenenter"",""1"",""2334""
","
",,,,,,,,,,,,"[{""stimulus"":""run_exp/static/images/task_images/dig.jpg"",""time"":0.10000002384185791},{""stimulus"":""run_exp/static/images/task_images/land.jpg"",""time"":860.5},{""stimulus"":""run_exp/static/images/task_images/dig.jpg"",""time"":1703.4000000953674}]",[],2,,,,,,,,,,,,,,
harvest,84,389001,0.0-29.0-1.0,"""event"",""trial"",""time""
""fullscreenenter"",""1"",""2334""
","
","
","""event"",""trial"",""time""
""fullscreenenter"",""1"",""2334""
","
",,null,run_exp/static/images/task_images/gems/4.jpg,null,,,,,,,1,,,2,,,,,4,0.230783672,0.25,,,,,,,
decision,85,389432,0.0-29.0-2.0,"""event"",""trial"",""time""
""fullscreenenter"",""1"",""2334""
","
","
","""event"",""trial"",""time""
""fullscreenenter"",""1"",""2334""
","
",,429.8,run_exp/static/images/task_images/land.jpg,76,,,,,,,1,,,2,,,,,,,,47617,1,2,TRUE,,,
travel,86,399011,0.0-30.0-0.0,"""event"",""trial"",""time""
""fullscreenenter"",""1"",""2334""
","
","
","""event"",""trial"",""time""
""fullscreenenter"",""1"",""2334""
","
",,,,,,,,,,,,"[{""stimulus"":""run_exp/static/images/task_images/rocket-01.jpg"",""time"":0.20000004768371582},{""stimulus"":""run_exp/static/images/task_images/rocket-02.jpg"",""time"":1072.1000000238419},{""stimulus"":""run_exp/static/images/task_images/rocket-03.jpg"",""time"":2134.2000000476837},{""stimulus"":""run_exp/static/images/task_images/rocket-04.jpg"",""time"":3205},{""stimulus"":""run_exp/static/images/task_images/rocket-05.jpg"",""time"":4256.399999976158},{""stimulus"":""run_exp/static/images/task_images/rocket-06.jpg"",""time"":5328.399999976158},{""stimulus"":""run_exp/static/images/task_images/rocket-07.jpg"",""time"":6389.899999976158},{""stimulus"":""run_exp/static/images/task_images/rocket-08.jpg"",""time"":7446.200000047684},{""stimulus"":""run_exp/static/images/task_images/rocket-09.jpg"",""time"":8512.700000047684}]",[],2,,,,,,,,,,,,,,
alien_welcome,87,404020,0.0-30.0-1.0,"""event"",""trial"",""time""
""fullscreenenter"",""1"",""2334""
","
","
","""event"",""trial"",""time""
""fullscreenenter"",""1"",""2334""
","
",,null,run_exp/static/images/task_images/aliens/old_aliens/planet/alien_planet-38.jpg,null,,,,,,,,,,,,,38,"63,67,38,29,47,62,46,68,3,55,7,10,32,77,79,12,17,19,36,51,57,24,13,18,11,33,6,52,53,80,64,15,39,49,2,69,5,27,56,45,44,23,74,31,21,34,50,40,16,4,76,75,37,30,65,9",,,,,,,,,,
land,88,404523,0.0-30.0-2.0,"""event"",""trial"",""time""
""fullscreenenter"",""1"",""2334""
","
","
","""event"",""trial"",""time""
""fullscreenenter"",""1"",""2334""
","
",,null,run_exp/static/images/task_images/land.jpg,null,,,,,,,101,,,3,,,,,,,,,,,,,,
dig,89,406537,0.0-30.0-3.0,"""event"",""trial"",""time""
""fullscreenenter"",""1"",""2334""
","
","
","""event"",""trial"",""time""
""fullscreenenter"",""1"",""2334""
","
",,,,,,,,,,,,"[{""stimulus"":""run_exp/static/images/task_images/dig.jpg"",""time"":0.10000002384185791},{""stimulus"":""run_exp/static/images/task_images/land.jpg"",""time"":679.7999999523163},{""stimulus"":""run_exp/static/images/task_images/dig.jpg"",""time"":1339.5}]",[],3,,,,,,,,,,,,,,
harvest,90,407546,0.0-30.0-4.0,"""event"",""trial"",""time""
""fullscreenenter"",""1"",""2334""
","
","
","""event"",""trial"",""time""
""fullscreenenter"",""1"",""2334""
","
",,null,run_exp/static/images/task_images/gems/101.jpg,null,,,,,,,47,,,3,,,,,101,0.469487167,0.465346535,,,,,,,
decision,91,407896,0.0-30.0-5.0,"""event"",""trial"",""time""
""fullscreenenter"",""1"",""2334""
","
","
","""event"",""trial"",""time""
""fullscreenenter"",""1"",""2334""
","
",,349.1,run_exp/static/images/task_images/land.jpg,65,,,,,,,47,,,3,,,,,,,,66081,1,0,FALSE,,,
dig,92,410553,0.0-31.0-0.0,"""event"",""trial"",""time""
""fullscreenenter"",""1"",""2334""
","
","
","""event"",""trial"",""time""
""fullscreenenter"",""1"",""2334""
","
",,,,,,,,,,,,"[{""stimulus"":""run_exp/static/images/task_images/dig.jpg"",""time"":0.19999992847442627},{""stimulus"":""run_exp/static/images/task_images/land.jpg"",""time"":885.3999999761581},{""stimulus"":""run_exp/static/images/task_images/dig.jpg"",""time"":1776.3999999761581}]",[],3,,,,,,,,,,,,,,
harvest,93,411561,0.0-31.0-1.0,"""event"",""trial"",""time""
""fullscreenenter"",""1"",""2334""
","
","
","""event"",""trial"",""time""
""fullscreenenter"",""1"",""2334""
","
",,null,run_exp/static/images/task_images/gems/47.jpg,null,,,,,,,22,,,3,,,,,47,0.473633133,0.468085106,,,,,,,
decision,94,412088,0.0-31.0-2.0,"""event"",""trial"",""time""
""fullscreenenter"",""1"",""2334""
","
","
","""event"",""trial"",""time""
""fullscreenenter"",""1"",""2334""
","
",,526,run_exp/static/images/task_images/land.jpg,65,,,,,,,22,,,3,,,,,,,,70273,1,1,FALSE,,,
dig,95,414575,0.0-32.0-0.0,"""event"",""trial"",""time""
""fullscreenenter"",""1"",""2334""
","
","
","""event"",""trial"",""time""
""fullscreenenter"",""1"",""2334""
","
",,,,,,,,,,,,"[{""stimulus"":""run_exp/static/images/task_images/dig.jpg"",""time"":0},{""stimulus"":""run_exp/static/images/task_images/land.jpg"",""time"":839.0999999046326},{""stimulus"":""run_exp/static/images/task_images/dig.jpg"",""time"":1664.0999999046326}]",[],3,,,,,,,,,,,,,,
harvest,96,415580,0.0-32.0-1.0,"""event"",""trial"",""time""
""fullscreenenter"",""1"",""2334""
","
","
","""event"",""trial"",""time""
""fullscreenenter"",""1"",""2334""
","
",,null,run_exp/static/images/task_images/gems/22.jpg,null,,,,,,,11,,,3,,,,,22,0.510262422,0.5,,,,,,,
decision,97,415986,0.0-32.0-2.0,"""event"",""trial"",""time""
""fullscreenenter"",""1"",""2334""
","
","
","""event"",""trial"",""time""
""fullscreenenter"",""1"",""2334""
","
",,404.8000001,run_exp/static/images/task_images/land.jpg,76,,,,,,,11,,,3,,,,,,,,74171,1,2,TRUE,,,
travel,98,425583,0.0-33.0-0.0,"""event"",""trial"",""time""
""fullscreenenter"",""1"",""2334""
","
","
","""event"",""trial"",""time""
""fullscreenenter"",""1"",""2334""
","
",,,,,,,,,,,,"[{""stimulus"":""run_exp/static/images/task_images/rocket-01.jpg"",""time"":0.09999990463256836},{""stimulus"":""run_exp/static/images/task_images/rocket-02.jpg"",""time"":1077.6999999284744},{""stimulus"":""run_exp/static/images/task_images/rocket-03.jpg"",""time"":2139.5},{""stimulus"":""run_exp/static/images/task_images/rocket-04.jpg"",""time"":3211.5999999046326},{""stimulus"":""run_exp/static/images/task_images/rocket-05.jpg"",""time"":4278.5},{""stimulus"":""run_exp/static/images/task_images/rocket-06.jpg"",""time"":5334},{""stimulus"":""run_exp/static/images/task_images/rocket-07.jpg"",""time"":6401.099999904633},{""stimulus"":""run_exp/static/images/task_images/rocket-08.jpg"",""time"":7465.399999976158},{""stimulus"":""run_exp/static/images/task_images/rocket-09.jpg"",""time"":8528.899999976158}]",[],3,,,,,,,,,,,,,,
alien_welcome,99,430585,0.0-33.0-1.0,"""event"",""trial"",""time""
""fullscreenenter"",""1"",""2334""
","
","
","""event"",""trial"",""time""
""fullscreenenter"",""1"",""2334""
","
",,null,run_exp/static/images/task_images/aliens/old_aliens/planet/alien_planet-29.jpg,null,,,,,,,,,,,,,29,"63,67,38,29,47,62,46,68,3,55,7,10,32,77,79,12,17,19,36,51,57,24,13,18,11,33,6,52,53,80,64,15,39,49,2,69,5,27,56,45,44,23,74,31,21,34,50,40,16,4,76,75,37,30,65,9",,,,,,,,,,
land,100,431092,0.0-33.0-2.0,"""event"",""trial"",""time""
""fullscreenenter"",""1"",""2334""
","
","
","""event"",""trial"",""time""
""fullscreenenter"",""1"",""2334""
","
",,null,run_exp/static/images/task_images/land.jpg,null,,,,,,,96,,,4,,,,,,,,,,,,,,
dig,101,433100,0.0-33.0-3.0,"""event"",""trial"",""time""
""fullscreenenter"",""1"",""2334""
","
","
","""event"",""trial"",""time""
""fullscreenenter"",""1"",""2334""
","
",,,,,,,,,,,,"[{""stimulus"":""run_exp/static/images/task_images/dig.jpg"",""time"":0.30000007152557373},{""stimulus"":""run_exp/static/images/task_images/land.jpg"",""time"":681},{""stimulus"":""run_exp/static/images/task_images/dig.jpg"",""time"":1342.3999999761581}]",[],4,,,,,,,,,,,,,,
harvest,102,434108,0.0-33.0-4.0,"""event"",""trial"",""time""
""fullscreenenter"",""1"",""2334""
","
","
","""event"",""trial"",""time""
""fullscreenenter"",""1"",""2334""
","
",,null,run_exp/static/images/task_images/gems/96.jpg,null,,,,,,,41,,,4,,,,,96,0.42590863,0.427083333,,,,,,,
decision,103,434380,0.0-33.0-5.0,"""event"",""trial"",""time""
""fullscreenenter"",""1"",""2334""
","
","
","""event"",""trial"",""time""
""fullscreenenter"",""1"",""2334""
","
",,270.9,run_exp/static/images/task_images/land.jpg,65,,,,,,,41,,,4,,,,,,,,92565,1,0,FALSE,,,
dig,104,437111,0.0-34.0-0.0,"""event"",""trial"",""time""
""fullscreenenter"",""1"",""2334""
","
","
","""event"",""trial"",""time""
""fullscreenenter"",""1"",""2334""
","
",,,,,,,,,,,,"[{""stimulus"":""run_exp/static/images/task_images/dig.jpg"",""time"":0.09999990463256836},{""stimulus"":""run_exp/static/images/task_images/land.jpg"",""time"":916.0999999046326},{""stimulus"":""run_exp/static/images/task_images/dig.jpg"",""time"":1826.8999999761581}]",[],4,,,,,,,,,,,,,,
harvest,105,438124,0.0-34.0-1.0,"""event"",""trial"",""time""
""fullscreenenter"",""1"",""2334""
","
","
","""event"",""trial"",""time""
""fullscreenenter"",""1"",""2334""
","
",,null,run_exp/static/images/task_images/gems/41.jpg,null,,,,,,,18,,,4,,,,,41,0.449895807,0.43902439,,,,,,,
decision,106,438497,0.0-34.0-2.0,"""event"",""trial"",""time""
""fullscreenenter"",""1"",""2334""
","
","
","""event"",""trial"",""time""
""fullscreenenter"",""1"",""2334""
","
",,371.3,run_exp/static/images/task_images/land.jpg,65,,,,,,,18,,,4,,,,,,,,96682,1,1,FALSE,,,
dig,107,441138,0.0-35.0-0.0,"""event"",""trial"",""time""
""fullscreenenter"",""1"",""2334""
","
","
","""event"",""trial"",""time""
""fullscreenenter"",""1"",""2334""
","
",,,,,,,,,,,,"[{""stimulus"":""run_exp/static/images/task_images/dig.jpg"",""time"":0.10000002384185791},{""stimulus"":""run_exp/static/images/task_images/land.jpg"",""time"":885.2999999523163},{""stimulus"":""run_exp/static/images/task_images/dig.jpg"",""time"":1765.1999999284744}]",[],4,,,,,,,,,,,,,,
harvest,108,442154,0.0-35.0-1.0,"""event"",""trial"",""time""
""fullscreenenter"",""1"",""2334""
","
","
","""event"",""trial"",""time""
""fullscreenenter"",""1"",""2334""
","
",,null,run_exp/static/images/task_images/gems/18.jpg,null,,,,,,,9,,,4,,,,,18,0.523440779,0.5,,,,,,,
decision,109,442476,0.0-35.0-2.0,"""event"",""trial"",""time""
""fullscreenenter"",""1"",""2334""
","
","
","""event"",""trial"",""time""
""fullscreenenter"",""1"",""2334""
","
",,320.6999999,run_exp/static/images/task_images/land.jpg,76,,,,,,,9,,,4,,,,,,,,100661,1,2,TRUE,,,
travel,110,452156,0.0-36.0-0.0,"""event"",""trial"",""time""
""fullscreenenter"",""1"",""2334""
","
","
","""event"",""trial"",""time""
""fullscreenenter"",""1"",""2334""
","
",,,,,,,,,,,,"[{""stimulus"":""run_exp/static/images/task_images/rocket-01.jpg"",""time"":0},{""stimulus"":""run_exp/static/images/task_images/rocket-02.jpg"",""time"":1091.5999999046326},{""stimulus"":""run_exp/static/images/task_images/rocket-03.jpg"",""time"":2154.0999999046326},{""stimulus"":""run_exp/static/images/task_images/rocket-04.jpg"",""time"":3225.5999999046326},{""stimulus"":""run_exp/static/images/task_images/rocket-05.jpg"",""time"":4313.399999976158},{""stimulus"":""run_exp/static/images/task_images/rocket-06.jpg"",""time"":5380.5},{""stimulus"":""run_exp/static/images/task_images/rocket-07.jpg"",""time"":6462.899999976158},{""stimulus"":""run_exp/static/images/task_images/rocket-08.jpg"",""time"":7529.5},{""stimulus"":""run_exp/static/images/task_images/rocket-09.jpg"",""time"":8606}]",[],4,,,,,,,,,,,,,,
alien_welcome,111,457164,0.0-36.0-1.0,"""event"",""trial"",""time""
""fullscreenenter"",""1"",""2334""
","
","
","""event"",""trial"",""time""
""fullscreenenter"",""1"",""2334""
","
",,null,run_exp/static/images/task_images/aliens/old_aliens/planet/alien_planet-47.jpg,null,,,,,,,,,,,,,47,"63,67,38,29,47,62,46,68,3,55,7,10,32,77,79,12,17,19,36,51,57,24,13,18,11,33,6,52,53,80,64,15,39,49,2,69,5,27,56,45,44,23,74,31,21,34,50,40,16,4,76,75,37,30,65,9",,,,,,,,,,
land,112,457671,0.0-36.0-2.0,"""event"",""trial"",""time""
""fullscreenenter"",""1"",""2334""
","
","
","""event"",""trial"",""time""
""fullscreenenter"",""1"",""2334""
","
",,null,run_exp/static/images/task_images/land.jpg,null,,,,,,,97,,,5,,,,,,,,,,,,,,
dig,113,459677,0.0-36.0-3.0,"""event"",""trial"",""time""
""fullscreenenter"",""1"",""2334""
","
","
","""event"",""trial"",""time""
""fullscreenenter"",""1"",""2334""
","
",,,,,,,,,,,,"[{""stimulus"":""run_exp/static/images/task_images/dig.jpg"",""time"":0.19999992847442627},{""stimulus"":""run_exp/static/images/task_images/land.jpg"",""time"":682.2999999523163},{""stimulus"":""run_exp/static/images/task_images/dig.jpg"",""time"":1338.2999999523163}]",[],5,,,,,,,,,,,,,,
harvest,114,460685,0.0-36.0-4.0,"""event"",""trial"",""time""
""fullscreenenter"",""1"",""2334""
","
","
","""event"",""trial"",""time""
""fullscreenenter"",""1"",""2334""
","
",,null,run_exp/static/images/task_images/gems/97.jpg,null,,,,,,,39,,,5,,,,,97,0.39877198,0.402061856,,,,,,,
decision,115,460912,0.0-36.0-5.0,"""event"",""trial"",""time""
""fullscreenenter"",""1"",""2334""
","
","
","""event"",""trial"",""time""
""fullscreenenter"",""1"",""2334""
","
",,226.4,run_exp/static/images/task_images/land.jpg,65,,,,,,,39,,,5,,,,,,,,119097,1,0,FALSE,,,
dig,116,463693,0.0-37.0-0.0,"""event"",""trial"",""time""
""fullscreenenter"",""1"",""2334""
","
","
","""event"",""trial"",""time""
""fullscreenenter"",""1"",""2334""
","
",,,,,,,,,,,,"[{""stimulus"":""run_exp/static/images/task_images/dig.jpg"",""time"":0},{""stimulus"":""run_exp/static/images/task_images/land.jpg"",""time"":937.8999999761581},{""stimulus"":""run_exp/static/images/task_images/dig.jpg"",""time"":1848.7999999523163}]",[],5,,,,,,,,,,,,,,
harvest,117,464707,0.0-37.0-1.0,"""event"",""trial"",""time""
""fullscreenenter"",""1"",""2334""
","
","
","""event"",""trial"",""time""
""fullscreenenter"",""1"",""2334""
","
",,null,run_exp/static/images/task_images/gems/39.jpg,null,,,,,,,19,,,5,,,,,39,0.499952714,0.487179487,,,,,,,
decision,118,464892,0.0-37.0-2.0,"""event"",""trial"",""time""
""fullscreenenter"",""1"",""2334""
","
","
","""event"",""trial"",""time""
""fullscreenenter"",""1"",""2334""
","
",,183.6999999,run_exp/static/images/task_images/land.jpg,76,,,,,,,19,,,5,,,,,,,,123077,1,1,TRUE,,,
travel,119,474706,0.0-38.0-0.0,"""event"",""trial"",""time""
""fullscreenenter"",""1"",""2334""
","
","
","""event"",""trial"",""time""
""fullscreenenter"",""1"",""2334""
","
",,,,,,,,,,,,"[{""stimulus"":""run_exp/static/images/task_images/rocket-01.jpg"",""time"":0.10000002384185791},{""stimulus"":""run_exp/static/images/task_images/rocket-02.jpg"",""time"":1095.8999999761581},{""stimulus"":""run_exp/static/images/task_images/rocket-03.jpg"",""time"":2186.2999999523163},{""stimulus"":""run_exp/static/images/task_images/rocket-04.jpg"",""time"":3279.1999999284744},{""stimulus"":""run_exp/static/images/task_images/rocket-05.jpg"",""time"":4362.199999928474},{""stimulus"":""run_exp/static/images/task_images/rocket-06.jpg"",""time"":5465.699999928474},{""stimulus"":""run_exp/static/images/task_images/rocket-07.jpg"",""time"":6554.100000023842},{""stimulus"":""run_exp/static/images/task_images/rocket-08.jpg"",""time"":7647.399999976158},{""stimulus"":""run_exp/static/images/task_images/rocket-09.jpg"",""time"":8729.600000023842}]",[],5,,,,,,,,,,,,,,
alien_welcome,120,479707,0.0-38.0-1.0,"""event"",""trial"",""time""
""fullscreenenter"",""1"",""2334""
","
","
","""event"",""trial"",""time""
""fullscreenenter"",""1"",""2334""
","
",,null,run_exp/static/images/task_images/aliens/old_aliens/planet/alien_planet-62.jpg,null,,,,,,,,,,,,,62,"63,67,38,29,47,62,46,68,3,55,7,10,32,77,79,12,17,19,36,51,57,24,13,18,11,33,6,52,53,80,64,15,39,49,2,69,5,27,56,45,44,23,74,31,21,34,50,40,16,4,76,75,37,30,65,9",,,,,,,,,,
land,121,480210,0.0-38.0-2.0,"""event"",""trial"",""time""
""fullscreenenter"",""1"",""2334""
","
","
","""event"",""trial"",""time""
""fullscreenenter"",""1"",""2334""
","
",,null,run_exp/static/images/task_images/land.jpg,null,,,,,,,91,,,6,,,,,,,,,,,,,,
dig,122,482215,0.0-38.0-3.0,"""event"",""trial"",""time""
""fullscreenenter"",""1"",""2334""
","
","
","""event"",""trial"",""time""
""fullscreenenter"",""1"",""2334""
","
",,,,,,,,,,,,"[{""stimulus"":""run_exp/static/images/task_images/dig.jpg"",""time"":0.20000004768371582},{""stimulus"":""run_exp/static/images/task_images/land.jpg"",""time"":682.2999999523163},{""stimulus"":""run_exp/static/images/task_images/dig.jpg"",""time"":1337.5}]",[],6,,,,,,,,,,,,,,
harvest,123,483229,0.0-38.0-4.0,"""event"",""trial"",""time""
""fullscreenenter"",""1"",""2334""
","
","
","""event"",""trial"",""time""
""fullscreenenter"",""1"",""2334""
","
",,null,run_exp/static/images/task_images/gems/91.jpg,null,,,,,,,79,,,6,,,,,91,0.872911573,0.868131868,,,,,,,
decision,124,483504,0.0-38.0-5.0,"""event"",""trial"",""time""
""fullscreenenter"",""1"",""2334""
","
","
","""event"",""trial"",""time""
""fullscreenenter"",""1"",""2334""
","
",,274.8,run_exp/static/images/task_images/land.jpg,65,,,,,,,79,,,6,,,,,,,,141689,1,0,FALSE,,,
dig,125,486231,0.0-39.0-0.0,"""event"",""trial"",""time""
""fullscreenenter"",""1"",""2334""
","
","
","""event"",""trial"",""time""
""fullscreenenter"",""1"",""2334""
","
",,,,,,,,,,,,"[{""stimulus"":""run_exp/static/images/task_images/dig.jpg"",""time"":0.10000002384185791},{""stimulus"":""run_exp/static/images/task_images/land.jpg"",""time"":919.6000000238419},{""stimulus"":""run_exp/static/images/task_images/dig.jpg"",""time"":1818.8000000715256}]",[],6,,,,,,,,,,,,,,
harvest,126,487238,0.0-39.0-1.0,"""event"",""trial"",""time""
""fullscreenenter"",""1"",""2334""
","
","
","""event"",""trial"",""time""
""fullscreenenter"",""1"",""2334""
","
",,null,run_exp/static/images/task_images/gems/79.jpg,null,,,,,,,60,,,6,,,,,79,0.753279791,0.759493671,,,,,,,
decision,127,487748,0.0-39.0-2.0,"""event"",""trial"",""time""
""fullscreenenter"",""1"",""2334""
","
","
","""event"",""trial"",""time""
""fullscreenenter"",""1"",""2334""
","
",,509,run_exp/static/images/task_images/land.jpg,65,,,,,,,60,,,6,,,,,,,,145933,1,1,FALSE,,,
dig,128,490242,0.0-40.0-0.0,"""event"",""trial"",""time""
""fullscreenenter"",""1"",""2334""
","
","
","""event"",""trial"",""time""
""fullscreenenter"",""1"",""2334""
","
",,,,,,,,,,,,"[{""stimulus"":""run_exp/static/images/task_images/dig.jpg"",""time"":0.10000002384185791},{""stimulus"":""run_exp/static/images/task_images/land.jpg"",""time"":844.3000000715256},{""stimulus"":""run_exp/static/images/task_images/dig.jpg"",""time"":1671.2000000476837}]",[],6,,,,,,,,,,,,,,
harvest,129,491243,0.0-40.0-1.0,"""event"",""trial"",""time""
""fullscreenenter"",""1"",""2334""
","
","
","""event"",""trial"",""time""
""fullscreenenter"",""1"",""2334""
","
",,null,run_exp/static/images/task_images/gems/60.jpg,null,,,,,,,51,,,6,,,,,60,0.8516255,0.85,,,,,,,
decision,130,491342,0.0-40.0-2.0,"""event"",""trial"",""time""
""fullscreenenter"",""1"",""2334""
","
","
","""event"",""trial"",""time""
""fullscreenenter"",""1"",""2334""
","
",,98.19999993,run_exp/static/images/task_images/land.jpg,65,,,,,,,51,,,6,,,,,,,,149527,1,2,FALSE,,,
dig,131,494250,0.0-41.0-0.0,"""event"",""trial"",""time""
""fullscreenenter"",""1"",""2334""
","
","
","""event"",""trial"",""time""
""fullscreenenter"",""1"",""2334""
","
",,,,,,,,,,,,"[{""stimulus"":""run_exp/static/images/task_images/dig.jpg"",""time"":0},{""stimulus"":""run_exp/static/images/task_images/land.jpg"",""time"":978.3999999761581},{""stimulus"":""run_exp/static/images/task_images/dig.jpg"",""time"":1944.2000000476837}]",[],6,,,,,,,,,,,,,,
harvest,132,495263,0.0-41.0-1.0,"""event"",""trial"",""time""
""fullscreenenter"",""1"",""2334""
","
","
","""event"",""trial"",""time""
""fullscreenenter"",""1"",""2334""
","
",,null,run_exp/static/images/task_images/gems/51.jpg,null,,,,,,,42,,,6,,,,,51,0.816038969,0.823529412,,,,,,,
decision,133,496085,0.0-41.0-2.0,"""event"",""trial"",""time""
""fullscreenenter"",""1"",""2334""
","
","
","""event"",""trial"",""time""
""fullscreenenter"",""1"",""2334""
","
",,821.7,run_exp/static/images/task_images/land.jpg,65,,,,,,,42,,,6,,,,,,,,154270,1,3,FALSE,,,
dig,134,498266,0.0-42.0-0.0,"""event"",""trial"",""time""
""fullscreenenter"",""1"",""2334""
","
","
","""event"",""trial"",""time""
""fullscreenenter"",""1"",""2334""
","
",,,,,,,,,,,,"[{""stimulus"":""run_exp/static/images/task_images/dig.jpg"",""time"":0.10000002384185791},{""stimulus"":""run_exp/static/images/task_images/land.jpg"",""time"":739.8000000715256},{""stimulus"":""run_exp/static/images/task_images/dig.jpg"",""time"":1454.5}]",[],6,,,,,,,,,,,,,,
harvest,135,499269,0.0-42.0-1.0,"""event"",""trial"",""time""
""fullscreenenter"",""1"",""2334""
","
","
","""event"",""trial"",""time""
""fullscreenenter"",""1"",""2334""
","
",,null,run_exp/static/images/task_images/gems/42.jpg,null,,,,,,,36,,,6,,,,,42,0.855736926,0.857142857,,,,,,,
decision,136,499622,0.0-42.0-2.0,"""event"",""trial"",""time""
""fullscreenenter"",""1"",""2334""
","
","
","""event"",""trial"",""time""
""fullscreenenter"",""1"",""2334""
","
",,352.5,run_exp/static/images/task_images/land.jpg,65,,,,,,,36,,,6,,,,,,,,157807,1,4,FALSE,,,
dig,137,502280,0.0-43.0-0.0,"""event"",""trial"",""time""
""fullscreenenter"",""1"",""2334""
","
","
","""event"",""trial"",""time""
""fullscreenenter"",""1"",""2334""
","
",,,,,,,,,,,,"[{""stimulus"":""run_exp/static/images/task_images/dig.jpg"",""time"":0},{""stimulus"":""run_exp/static/images/task_images/land.jpg"",""time"":891.3000000715256},{""stimulus"":""run_exp/static/images/task_images/dig.jpg"",""time"":1768.3000000715256}]",[],6,,,,,,,,,,,,,,
harvest,138,503283,0.0-43.0-1.0,"""event"",""trial"",""time""
""fullscreenenter"",""1"",""2334""
","
","
","""event"",""trial"",""time""
""fullscreenenter"",""1"",""2334""
","
",,null,run_exp/static/images/task_images/gems/36.jpg,null,,,,,,,28,,,6,,,,,36,0.773422159,0.777777778,,,,,,,
decision,139,503741,0.0-43.0-2.0,"""event"",""trial"",""time""
""fullscreenenter"",""1"",""2334""
","
","
","""event"",""trial"",""time""
""fullscreenenter"",""1"",""2334""
","
",,456.3000001,run_exp/static/images/task_images/land.jpg,65,,,,,,,28,,,6,,,,,,,,161926,1,5,FALSE,,,
dig,140,506298,0.0-44.0-0.0,"""event"",""trial"",""time""
""fullscreenenter"",""1"",""2334""
","
","
","""event"",""trial"",""time""
""fullscreenenter"",""1"",""2334""
","
",,,,,,,,,,,,"[{""stimulus"":""run_exp/static/images/task_images/dig.jpg"",""time"":0},{""stimulus"":""run_exp/static/images/task_images/land.jpg"",""time"":860.1000000238419},{""stimulus"":""run_exp/static/images/task_images/dig.jpg"",""time"":1702.8000000715256}]",[],6,,,,,,,,,,,,,,
harvest,141,507315,0.0-44.0-1.0,"""event"",""trial"",""time""
""fullscreenenter"",""1"",""2334""
","
","
","""event"",""trial"",""time""
""fullscreenenter"",""1"",""2334""
","
",,null,run_exp/static/images/task_images/gems/28.jpg,null,,,,,,,21,,,6,,,,,28,0.765299413,0.75,,,,,,,
decision,142,507387,0.0-44.0-2.0,"""event"",""trial"",""time""
""fullscreenenter"",""1"",""2334""
","
","
","""event"",""trial"",""time""
""fullscreenenter"",""1"",""2334""
","
",,71.0999999,run_exp/static/images/task_images/land.jpg,76,,,,,,,21,,,6,,,,,,,,165572,1,6,TRUE,,,
travel,143,517317,0.0-45.0-0.0,"""event"",""trial"",""time""
""fullscreenenter"",""1"",""2334""
","
","
","""event"",""trial"",""time""
""fullscreenenter"",""1"",""2334""
","
",,,,,,,,,,,,"[{""stimulus"":""run_exp/static/images/task_images/rocket-01.jpg"",""time"":0.10000002384185791},{""stimulus"":""run_exp/static/images/task_images/rocket-02.jpg"",""time"":1119.5},{""stimulus"":""run_exp/static/images/task_images/rocket-03.jpg"",""time"":2211},{""stimulus"":""run_exp/static/images/task_images/rocket-04.jpg"",""time"":3320.600000023842},{""stimulus"":""run_exp/static/images/task_images/rocket-05.jpg"",""time"":4414.200000047684},{""stimulus"":""run_exp/static/images/task_images/rocket-06.jpg"",""time"":5524},{""stimulus"":""run_exp/static/images/task_images/rocket-07.jpg"",""time"":6622.200000047684},{""stimulus"":""run_exp/static/images/task_images/rocket-08.jpg"",""time"":7736.5},{""stimulus"":""run_exp/static/images/task_images/rocket-09.jpg"",""time"":8835.100000023842}]",[],6,,,,,,,,,,,,,,
alien_welcome,144,522325,0.0-45.0-1.0,"""event"",""trial"",""time""
""fullscreenenter"",""1"",""2334""
","
","
","""event"",""trial"",""time""
""fullscreenenter"",""1"",""2334""
","
",,null,run_exp/static/images/task_images/aliens/old_aliens/planet/alien_planet-46.jpg,null,,,,,,,,,,,,,46,"63,67,38,29,47,62,46,68,3,55,7,10,32,77,79,12,17,19,36,51,57,24,13,18,11,33,6,52,53,80,64,15,39,49,2,69,5,27,56,45,44,23,74,31,21,34,50,40,16,4,76,75,37,30,65,9",,,,,,,,,,
land,145,522827,0.0-45.0-2.0,"""event"",""trial"",""time""
""fullscreenenter"",""1"",""2334""
","
","
","""event"",""trial"",""time""
""fullscreenenter"",""1"",""2334""
","
",,null,run_exp/static/images/task_images/land.jpg,null,,,,,,,101,,,7,,,,,,,,,,,,,,
dig,146,524843,0.0-45.0-3.0,"""event"",""trial"",""time""
""fullscreenenter"",""1"",""2334""
","
","
","""event"",""trial"",""time""
""fullscreenenter"",""1"",""2334""
","
",,,,,,,,,,,,"[{""stimulus"":""run_exp/static/images/task_images/dig.jpg"",""time"":0.20000004768371582},{""stimulus"":""run_exp/static/images/task_images/land.jpg"",""time"":675.7999999523163},{""stimulus"":""run_exp/static/images/task_images/dig.jpg"",""time"":1337.7999999523163}]",[],7,,,,,,,,,,,,,,
harvest,147,525845,0.0-45.0-4.0,"""event"",""trial"",""time""
""fullscreenenter"",""1"",""2334""
","
","
","""event"",""trial"",""time""
""fullscreenenter"",""1"",""2334""
","
",,null,run_exp/static/images/task_images/gems/101.jpg,null,,,,,,,84,,,7,,,,,101,0.835407485,0.831683168,,,,,,,
decision,148,526169,0.0-45.0-5.0,"""event"",""trial"",""time""
""fullscreenenter"",""1"",""2334""
","
","
","""event"",""trial"",""time""
""fullscreenenter"",""1"",""2334""
","
",,323.1999999,run_exp/static/images/task_images/land.jpg,65,,,,,,,84,,,7,,,,,,,,184354,1,0,FALSE,,,
dig,149,528858,0.0-46.0-0.0,"""event"",""trial"",""time""
""fullscreenenter"",""1"",""2334""
","
","
","""event"",""trial"",""time""
""fullscreenenter"",""1"",""2334""
","
",,,,,,,,,,,,"[{""stimulus"":""run_exp/static/images/task_images/dig.jpg"",""time"":0.09999990463256836},{""stimulus"":""run_exp/static/images/task_images/land.jpg"",""time"":900.3999999761581},{""stimulus"":""run_exp/static/images/task_images/dig.jpg"",""time"":1785.6999999284744}]",[],7,,,,,,,,,,,,,,
harvest,150,529870,0.0-46.0-1.0,"""event"",""trial"",""time""
""fullscreenenter"",""1"",""2334""
","
","
","""event"",""trial"",""time""
""fullscreenenter"",""1"",""2334""
","
",,null,run_exp/static/images/task_images/gems/84.jpg,null,,,,,,,69,,,7,,,,,84,0.817438709,0.821428571,,,,,,,
decision,151,530064,0.0-46.0-2.0,"""event"",""trial"",""time""
""fullscreenenter"",""1"",""2334""
","
","
","""event"",""trial"",""time""
""fullscreenenter"",""1"",""2334""
","
",,193.9,run_exp/static/images/task_images/land.jpg,76,,,,,,,69,,,7,,,,,,,,188250,1,1,TRUE,,,
travel,152,539871,0.0-47.0-0.0,"""event"",""trial"",""time""
""fullscreenenter"",""1"",""2334""
","
","
","""event"",""trial"",""time""
""fullscreenenter"",""1"",""2334""
","
",,,,,,,,,,,,"[{""stimulus"":""run_exp/static/images/task_images/rocket-01.jpg"",""time"":0.10000002384185791},{""stimulus"":""run_exp/static/images/task_images/rocket-02.jpg"",""time"":1090.5},{""stimulus"":""run_exp/static/images/task_images/rocket-03.jpg"",""time"":2184.6999999284744},{""stimulus"":""run_exp/static/images/task_images/rocket-04.jpg"",""time"":3272.5},{""stimulus"":""run_exp/static/images/task_images/rocket-05.jpg"",""time"":4365.199999928474},{""stimulus"":""run_exp/static/images/task_images/rocket-06.jpg"",""time"":5459.100000023842},{""stimulus"":""run_exp/static/images/task_images/rocket-07.jpg"",""time"":6536.5},{""stimulus"":""run_exp/static/images/task_images/rocket-08.jpg"",""time"":7629.399999976158},{""stimulus"":""run_exp/static/images/task_images/rocket-09.jpg"",""time"":8723.199999928474}]",[],7,,,,,,,,,,,,,,
alien_welcome,153,544880,0.0-47.0-1.0,"""event"",""trial"",""time""
""fullscreenenter"",""1"",""2334""
","
","
","""event"",""trial"",""time""
""fullscreenenter"",""1"",""2334""
","
",,null,run_exp/static/images/task_images/aliens/old_aliens/planet/alien_planet-68.jpg,null,,,,,,,,,,,,,68,"63,67,38,29,47,62,46,68,3,55,7,10,32,77,79,12,17,19,36,51,57,24,13,18,11,33,6,52,53,80,64,15,39,49,2,69,5,27,56,45,44,23,74,31,21,34,50,40,16,4,76,75,37,30,65,9",,,,,,,,,,
land,154,545387,0.0-47.0-2.0,"""event"",""trial"",""time""
""fullscreenenter"",""1"",""2334""
","
","
","""event"",""trial"",""time""
""fullscreenenter"",""1"",""2334""
","
",,null,run_exp/static/images/task_images/land.jpg,null,,,,,,,93,,,8,,,,,,,,,,,,,,
dig,155,547402,0.0-47.0-3.0,"""event"",""trial"",""time""
""fullscreenenter"",""1"",""2334""
","
","
","""event"",""trial"",""time""
""fullscreenenter"",""1"",""2334""
","
",,,,,,,,,,,,"[{""stimulus"":""run_exp/static/images/task_images/dig.jpg"",""time"":0.20000004768371582},{""stimulus"":""run_exp/static/images/task_images/land.jpg"",""time"":670.7000000476837},{""stimulus"":""run_exp/static/images/task_images/dig.jpg"",""time"":1347.5}]",[],8,,,,,,,,,,,,,,
harvest,156,548416,0.0-47.0-4.0,"""event"",""trial"",""time""
""fullscreenenter"",""1"",""2334""
","
","
","""event"",""trial"",""time""
""fullscreenenter"",""1"",""2334""
","
",,null,run_exp/static/images/task_images/gems/93.jpg,null,,,,,,,68,,,8,,,,,93,0.727484287,0.731182796,,,,,,,
decision,157,548808,0.0-47.0-5.0,"""event"",""trial"",""time""
""fullscreenenter"",""1"",""2334""
","
","
","""event"",""trial"",""time""
""fullscreenenter"",""1"",""2334""
","
",,391.8,run_exp/static/images/task_images/land.jpg,65,,,,,,,68,,,8,,,,,,,,206993,1,0,FALSE,,,
dig,158,551422,0.0-48.0-0.0,"""event"",""trial"",""time""
""fullscreenenter"",""1"",""2334""
","
","
","""event"",""trial"",""time""
""fullscreenenter"",""1"",""2334""
","
",,,,,,,,,,,,"[{""stimulus"":""run_exp/static/images/task_images/dig.jpg"",""time"":0},{""stimulus"":""run_exp/static/images/task_images/land.jpg"",""time"":884.1000000238419},{""stimulus"":""run_exp/static/images/task_images/dig.jpg"",""time"":1752}]",[],8,,,,,,,,,,,,,,
harvest,159,552431,0.0-48.0-1.0,"""event"",""trial"",""time""
""fullscreenenter"",""1"",""2334""
","
","
","""event"",""trial"",""time""
""fullscreenenter"",""1"",""2334""
","
",,null,run_exp/static/images/task_images/gems/68.jpg,null,,,,,,,50,,,8,,,,,68,0.733839567,0.735294118,,,,,,,
decision,160,553094,0.0-48.0-2.0,"""event"",""trial"",""time""
""fullscreenenter"",""1"",""2334""
","
","
","""event"",""trial"",""time""
""fullscreenenter"",""1"",""2334""
","
",,662.2,run_exp/static/images/task_images/land.jpg,65,,,,,,,50,,,8,,,,,,,,211279,1,1,FALSE,,,
dig,161,555445,0.0-49.0-0.0,"""event"",""trial"",""time""
""fullscreenenter"",""1"",""2334""
","
","
","""event"",""trial"",""time""
""fullscreenenter"",""1"",""2334""
","
",,,,,,,,,,,,"[{""stimulus"":""run_exp/static/images/task_images/dig.jpg"",""time"":0},{""stimulus"":""run_exp/static/images/task_images/land.jpg"",""time"":795.3999999761581},{""stimulus"":""run_exp/static/images/task_images/dig.jpg"",""time"":1570.8000000715256}]",[],8,,,,,,,,,,,,,,
harvest,162,556452,0.0-49.0-1.0,"""event"",""trial"",""time""
""fullscreenenter"",""1"",""2334""
","
","
","""event"",""trial"",""time""
""fullscreenenter"",""1"",""2334""
","
",,null,run_exp/static/images/task_images/gems/50.jpg,null,,,,,,,40,,,8,,,,,50,0.806402227,0.8,,,,,,,
decision,163,556832,0.0-49.0-2.0,"""event"",""trial"",""time""
""fullscreenenter"",""1"",""2334""
","
","
","""event"",""trial"",""time""
""fullscreenenter"",""1"",""2334""
","
",,378.5,run_exp/static/images/task_images/land.jpg,76,,,,,,,40,,,8,,,,,,,,215017,1,2,TRUE,,,
travel,164,566463,0.0-50.0-0.0,"""event"",""trial"",""time""
""fullscreenenter"",""1"",""2334""
","
","
","""event"",""trial"",""time""
""fullscreenenter"",""1"",""2334""
","
",,,,,,,,,,,,"[{""stimulus"":""run_exp/static/images/task_images/rocket-01.jpg"",""time"":0.10000002384185791},{""stimulus"":""run_exp/static/images/task_images/rocket-02.jpg"",""time"":1081},{""stimulus"":""run_exp/static/images/task_images/rocket-03.jpg"",""time"":2143.1999999284744},{""stimulus"":""run_exp/static/images/task_images/rocket-04.jpg"",""time"":3209.1999999284744},{""stimulus"":""run_exp/static/images/task_images/rocket-05.jpg"",""time"":4291.899999976158},{""stimulus"":""run_exp/static/images/task_images/rocket-06.jpg"",""time"":5347.699999928474},{""stimulus"":""run_exp/static/images/task_images/rocket-07.jpg"",""time"":6424},{""stimulus"":""run_exp/static/images/task_images/rocket-08.jpg"",""time"":7497.5},{""stimulus"":""run_exp/static/images/task_images/rocket-09.jpg"",""time"":8564}]",[],8,,,,,,,,,,,,,,
alien_welcome,165,571477,0.0-50.0-1.0,"""event"",""trial"",""time""
""fullscreenenter"",""1"",""2334""
","
","
","""event"",""trial"",""time""
""fullscreenenter"",""1"",""2334""
","
",,null,run_exp/static/images/task_images/aliens/old_aliens/planet/alien_planet-3.jpg,null,,,,,,,,,,,,,3,"63,67,38,29,47,62,46,68,3,55,7,10,32,77,79,12,17,19,36,51,57,24,13,18,11,33,6,52,53,80,64,15,39,49,2,69,5,27,56,45,44,23,74,31,21,34,50,40,16,4,76,75,37,30,65,9",,,,,,,,,,
land,166,571984,0.0-50.0-2.0,"""event"",""trial"",""time""
""fullscreenenter"",""1"",""2334""
","
","
","""event"",""trial"",""time""
""fullscreenenter"",""1"",""2334""
","
",,null,run_exp/static/images/task_images/land.jpg,null,,,,,,,97,,,9,,,,,,,,,,,,,,
dig,167,573990,0.0-50.0-3.0,"""event"",""trial"",""time""
""fullscreenenter"",""1"",""2334""
","
","
","""event"",""trial"",""time""
""fullscreenenter"",""1"",""2334""
","
",,,,,,,,,,,,"[{""stimulus"":""run_exp/static/images/task_images/dig.jpg"",""time"":0.2999999523162842},{""stimulus"":""run_exp/static/images/task_images/land.jpg"",""time"":682.2999999523163},{""stimulus"":""run_exp/static/images/task_images/dig.jpg"",""time"":1339.6999999284744}]",[],9,,,,,,,,,,,,,,
harvest,168,575007,0.0-50.0-4.0,"""event"",""trial"",""time""
""fullscreenenter"",""1"",""2334""
","
","
","""event"",""trial"",""time""
""fullscreenenter"",""1"",""2334""
","
",,null,run_exp/static/images/task_images/gems/97.jpg,null,,,,,,,18,,,9,,,,,97,0.184894801,0.18556701,,,,,,,
decision,169,575075,0.0-50.0-5.0,"""event"",""trial"",""time""
""fullscreenenter"",""1"",""2334""
","
","
","""event"",""trial"",""time""
""fullscreenenter"",""1"",""2334""
","
",,67,run_exp/static/images/task_images/land.jpg,65,,,,,,,18,,,9,,,,,,,,233260,1,0,FALSE,,,
dig,170,578021,0.0-51.0-0.0,"""event"",""trial"",""time""
""fullscreenenter"",""1"",""2334""
","
","
","""event"",""trial"",""time""
""fullscreenenter"",""1"",""2334""
","
",,,,,,,,,,,,"[{""stimulus"":""run_exp/static/images/task_images/dig.jpg"",""time"":0.20000004768371582},{""stimulus"":""run_exp/static/images/task_images/land.jpg"",""time"":978.9000000953674},{""stimulus"":""run_exp/static/images/task_images/dig.jpg"",""time"":1957.6000000238419}]",[],9,,,,,,,,,,,,,,
harvest,171,579032,0.0-51.0-1.0,"""event"",""trial"",""time""
""fullscreenenter"",""1"",""2334""
","
","
","""event"",""trial"",""time""
""fullscreenenter"",""1"",""2334""
","
",,null,run_exp/static/images/task_images/gems/18.jpg,null,,,,,,,4,,,9,,,,,18,0.228101143,0.222222222,,,,,,,
decision,172,579151,0.0-51.0-2.0,"""event"",""trial"",""time""
""fullscreenenter"",""1"",""2334""
","
","
","""event"",""trial"",""time""
""fullscreenenter"",""1"",""2334""
","
",,117.9000001,run_exp/static/images/task_images/land.jpg,76,,,,,,,4,,,9,,,,,,,,237336,1,1,TRUE,,,
travel,173,589050,0.0-52.0-0.0,"""event"",""trial"",""time""
""fullscreenenter"",""1"",""2334""
","
","
","""event"",""trial"",""time""
""fullscreenenter"",""1"",""2334""
","
",,,,,,,,,,,,"[{""stimulus"":""run_exp/static/images/task_images/rocket-01.jpg"",""time"":0.10000002384185791},{""stimulus"":""run_exp/static/images/task_images/rocket-02.jpg"",""time"":1113.8999999761581},{""stimulus"":""run_exp/static/images/task_images/rocket-03.jpg"",""time"":2207},{""stimulus"":""run_exp/static/images/task_images/rocket-04.jpg"",""time"":3299.899999976158},{""stimulus"":""run_exp/static/images/task_images/rocket-05.jpg"",""time"":4407.5},{""stimulus"":""run_exp/static/images/task_images/rocket-06.jpg"",""time"":5503.5},{""stimulus"":""run_exp/static/images/task_images/rocket-07.jpg"",""time"":6601.799999952316},{""stimulus"":""run_exp/static/images/task_images/rocket-08.jpg"",""time"":7700.700000047684},{""stimulus"":""run_exp/static/images/task_images/rocket-09.jpg"",""time"":8793.799999952316}]",[],9,,,,,,,,,,,,,,
alien_welcome,174,594055,0.0-52.0-1.0,"""event"",""trial"",""time""
""fullscreenenter"",""1"",""2334""
","
","
","""event"",""trial"",""time""
""fullscreenenter"",""1"",""2334""
","
",,null,run_exp/static/images/task_images/aliens/old_aliens/planet/alien_planet-55.jpg,null,,,,,,,,,,,,,55,"63,67,38,29,47,62,46,68,3,55,7,10,32,77,79,12,17,19,36,51,57,24,13,18,11,33,6,52,53,80,64,15,39,49,2,69,5,27,56,45,44,23,74,31,21,34,50,40,16,4,76,75,37,30,65,9",,,,,,,,,,
land,175,594562,0.0-52.0-2.0,"""event"",""trial"",""time""
""fullscreenenter"",""1"",""2334""
","
","
","""event"",""trial"",""time""
""fullscreenenter"",""1"",""2334""
","
",,null,run_exp/static/images/task_images/land.jpg,null,,,,,,,100,,,10,,,,,,,,,,,,,,
dig,176,596575,0.0-52.0-3.0,"""event"",""trial"",""time""
""fullscreenenter"",""1"",""2334""
","
","
","""event"",""trial"",""time""
""fullscreenenter"",""1"",""2334""
","
",,,,,,,,,,,,"[{""stimulus"":""run_exp/static/images/task_images/dig.jpg"",""time"":0.20000004768371582},{""stimulus"":""run_exp/static/images/task_images/land.jpg"",""time"":674},{""stimulus"":""run_exp/static/images/task_images/dig.jpg"",""time"":1338.6000000238419}]",[],10,,,,,,,,,,,,,,
harvest,177,597588,0.0-52.0-4.0,"""event"",""trial"",""time""
""fullscreenenter"",""1"",""2334""
","
","
","""event"",""trial"",""time""
""fullscreenenter"",""1"",""2334""
","
",,null,run_exp/static/images/task_images/gems/100.jpg,null,,,,,,,25,,,10,,,,,100,0.245556507,0.25,,,,,,,
decision,178,597805,0.0-52.0-5.0,"""event"",""trial"",""time""
""fullscreenenter"",""1"",""2334""
","
","
","""event"",""trial"",""time""
""fullscreenenter"",""1"",""2334""
","
",,215.8000001,run_exp/static/images/task_images/land.jpg,65,,,,,,,25,,,10,,,,,,,,255990,1,0,FALSE,,,
dig,179,600602,0.0-53.0-0.0,"""event"",""trial"",""time""
""fullscreenenter"",""1"",""2334""
","
","
","""event"",""trial"",""time""
""fullscreenenter"",""1"",""2334""
","
",,,,,,,,,,,,"[{""stimulus"":""run_exp/static/images/task_images/dig.jpg"",""time"":0.10000002384185791},{""stimulus"":""run_exp/static/images/task_images/land.jpg"",""time"":936.2999999523163},{""stimulus"":""run_exp/static/images/task_images/dig.jpg"",""time"":1858.3999999761581}]",[],10,,,,,,,,,,,,,,
harvest,180,601604,0.0-53.0-1.0,"""event"",""trial"",""time""
""fullscreenenter"",""1"",""2334""
","
","
","""event"",""trial"",""time""
""fullscreenenter"",""1"",""2334""
","
",,null,run_exp/static/images/task_images/gems/25.jpg,null,,,,,,,4,,,10,,,,,25,0.149858687,0.16,,,,,,,
decision,181,601743,0.0-53.0-2.0,"""event"",""trial"",""time""
""fullscreenenter"",""1"",""2334""
","
","
","""event"",""trial"",""time""
""fullscreenenter"",""1"",""2334""
","
",,137.8,run_exp/static/images/task_images/land.jpg,76,,,,,,,4,,,10,,,,,,,,259928,1,1,TRUE,,,
travel,182,611604,0.0-54.0-0.0,"""event"",""trial"",""time""
""fullscreenenter"",""1"",""2334""
","
","
","""event"",""trial"",""time""
""fullscreenenter"",""1"",""2334""
","
",,,,,,,,,,,,"[{""stimulus"":""run_exp/static/images/task_images/rocket-01.jpg"",""time"":0.10000002384185791},{""stimulus"":""run_exp/static/images/task_images/rocket-02.jpg"",""time"":1097.3999999761581},{""stimulus"":""run_exp/static/images/task_images/rocket-03.jpg"",""time"":2191.399999976158},{""stimulus"":""run_exp/static/images/task_images/rocket-04.jpg"",""time"":3298.7999999523163},{""stimulus"":""run_exp/static/images/task_images/rocket-05.jpg"",""time"":4383.699999928474},{""stimulus"":""run_exp/static/images/task_images/rocket-06.jpg"",""time"":5487.299999952316},{""stimulus"":""run_exp/static/images/task_images/rocket-07.jpg"",""time"":6585.600000023842},{""stimulus"":""run_exp/static/images/task_images/rocket-08.jpg"",""time"":7668.799999952316},{""stimulus"":""run_exp/static/images/task_images/rocket-09.jpg"",""time"":8767}]",[],10,,,,,,,,,,,,,,
alien_welcome,183,616601,0.0-54.0-1.0,"""event"",""trial"",""time""
""fullscreenenter"",""1"",""2334""
","
","
","""event"",""trial"",""time""
""fullscreenenter"",""1"",""2334""
","
",,null,run_exp/static/images/task_images/aliens/old_aliens/planet/alien_planet-7.jpg,null,,,,,,,,,,,,,7,"63,67,38,29,47,62,46,68,3,55,7,10,32,77,79,12,17,19,36,51,57,24,13,18,11,33,6,52,53,80,64,15,39,49,2,69,5,27,56,45,44,23,74,31,21,34,50,40,16,4,76,75,37,30,65,9",,,,,,,,,,
land,184,617108,0.0-54.0-2.0,"""event"",""trial"",""time""
""fullscreenenter"",""1"",""2334""
","
","
","""event"",""trial"",""time""
""fullscreenenter"",""1"",""2334""
","
",,null,run_exp/static/images/task_images/land.jpg,null,,,,,,,101,,,11,,,,,,,,,,,,,,
dig,185,619123,0.0-54.0-3.0,"""event"",""trial"",""time""
""fullscreenenter"",""1"",""2334""
","
","
","""event"",""trial"",""time""
""fullscreenenter"",""1"",""2334""
","
",,,,,,,,,,,,"[{""stimulus"":""run_exp/static/images/task_images/dig.jpg"",""time"":0.2999999523162842},{""stimulus"":""run_exp/static/images/task_images/land.jpg"",""time"":681.6999999284744},{""stimulus"":""run_exp/static/images/task_images/dig.jpg"",""time"":1346.3999999761581}]",[],11,,,,,,,,,,,,,,
harvest,186,620138,0.0-54.0-4.0,"""event"",""trial"",""time""
""fullscreenenter"",""1"",""2334""
","
","
","""event"",""trial"",""time""
""fullscreenenter"",""1"",""2334""
","
",,null,run_exp/static/images/task_images/gems/101.jpg,null,,,,,,,20,,,11,,,,,101,0.193306664,0.198019802,,,,,,,
decision,187,620165,0.0-54.0-5.0,"""event"",""trial"",""time""
""fullscreenenter"",""1"",""2334""
","
","
","""event"",""trial"",""time""
""fullscreenenter"",""1"",""2334""
","
",,26.60000002,run_exp/static/images/task_images/land.jpg,65,,,,,,,20,,,11,,,,,,,,278350,1,0,FALSE,,,
dig,188,623145,0.0-55.0-0.0,"""event"",""trial"",""time""
""fullscreenenter"",""1"",""2334""
","
","
","""event"",""trial"",""time""
""fullscreenenter"",""1"",""2334""
","
",,,,,,,,,,,,"[{""stimulus"":""run_exp/static/images/task_images/dig.jpg"",""time"":0.10000002384185791},{""stimulus"":""run_exp/static/images/task_images/land.jpg"",""time"":999.7000000476837},{""stimulus"":""run_exp/static/images/task_images/dig.jpg"",""time"":1991.3999999761581}]",[],11,,,,,,,,,,,,,,
harvest,189,624150,0.0-55.0-1.0,"""event"",""trial"",""time""
""fullscreenenter"",""1"",""2334""
","
","
","""event"",""trial"",""time""
""fullscreenenter"",""1"",""2334""
","
",,null,run_exp/static/images/task_images/gems/20.jpg,null,,,,,,,4,,,11,,,,,20,0.211078487,0.2,,,,,,,
decision,190,624291,0.0-55.0-2.0,"""event"",""trial"",""time""
""fullscreenenter"",""1"",""2334""
","
","
","""event"",""trial"",""time""
""fullscreenenter"",""1"",""2334""
","
",,139.9,run_exp/static/images/task_images/land.jpg,76,,,,,,,4,,,11,,,,,,,,282476,1,1,TRUE,,,
travel,191,634163,0.0-56.0-0.0,"""event"",""trial"",""time""
""fullscreenenter"",""1"",""2334""
","
","
","""event"",""trial"",""time""
""fullscreenenter"",""1"",""2334""
","
",,,,,,,,,,,,"[{""stimulus"":""run_exp/static/images/task_images/rocket-01.jpg"",""time"":0.19999992847442627},{""stimulus"":""run_exp/static/images/task_images/rocket-02.jpg"",""time"":1109},{""stimulus"":""run_exp/static/images/task_images/rocket-03.jpg"",""time"":2192},{""stimulus"":""run_exp/static/images/task_images/rocket-04.jpg"",""time"":3294},{""stimulus"":""run_exp/static/images/task_images/rocket-05.jpg"",""time"":4388.899999976158},{""stimulus"":""run_exp/static/images/task_images/rocket-06.jpg"",""time"":5482.100000023842},{""stimulus"":""run_exp/static/images/task_images/rocket-07.jpg"",""time"":6575.799999952316},{""stimulus"":""run_exp/static/images/task_images/rocket-08.jpg"",""time"":7674.199999928474},{""stimulus"":""run_exp/static/images/task_images/rocket-09.jpg"",""time"":8773.199999928474}]",[],11,,,,,,,,,,,,,,
alien_welcome,192,639172,0.0-56.0-1.0,"""event"",""trial"",""time""
""fullscreenenter"",""1"",""2334""
","
","
","""event"",""trial"",""time""
""fullscreenenter"",""1"",""2334""
","
",,null,run_exp/static/images/task_images/aliens/old_aliens/planet/alien_planet-10.jpg,null,,,,,,,,,,,,,10,"63,67,38,29,47,62,46,68,3,55,7,10,32,77,79,12,17,19,36,51,57,24,13,18,11,33,6,52,53,80,64,15,39,49,2,69,5,27,56,45,44,23,74,31,21,34,50,40,16,4,76,75,37,30,65,9",,,,,,,,,,
land,193,639673,0.0-56.0-2.0,"""event"",""trial"",""time""
""fullscreenenter"",""1"",""2334""
","
","
","""event"",""trial"",""time""
""fullscreenenter"",""1"",""2334""
","
",,null,run_exp/static/images/task_images/land.jpg,null,,,,,,,108,,,12,,,,,,,,,,,,,,
dig,194,641678,0.0-56.0-3.0,"""event"",""trial"",""time""
""fullscreenenter"",""1"",""2334""
","
","
","""event"",""trial"",""time""
""fullscreenenter"",""1"",""2334""
","
",,,,,,,,,,,,"[{""stimulus"":""run_exp/static/images/task_images/dig.jpg"",""time"":0.10000002384185791},{""stimulus"":""run_exp/static/images/task_images/land.jpg"",""time"":676.2999999523163},{""stimulus"":""run_exp/static/images/task_images/dig.jpg"",""time"":1349.6999999284744}]",[],12,,,,,,,,,,,,,,
harvest,195,642687,0.0-56.0-4.0,"""event"",""trial"",""time""
""fullscreenenter"",""1"",""2334""
","
","
","""event"",""trial"",""time""
""fullscreenenter"",""1"",""2334""
","
",,null,run_exp/static/images/task_images/gems/108.jpg,null,,,,,,,12,,,12,,,,,108,0.112011289,0.111111111,,,,,,,
decision,196,642688,0.0-56.0-5.0,"""event"",""trial"",""time""
""fullscreenenter"",""1"",""2334""
","
","
","""event"",""trial"",""time""
""fullscreenenter"",""1"",""2334""
","
",,0.100000024,run_exp/static/images/task_images/land.jpg,65,,,,,,,12,,,12,,,,,,,,300873,1,0,TRUE,,,
end_of_block_continue,197,651578,0.0-57.0-0.0,"""event"",""trial"",""time""
""fullscreenenter"",""1"",""2334""
","
","
","""event"",""trial"",""time""
""fullscreenenter"",""1"",""2334""
","
",,null,run_exp/static/audio/clip_32_block_end.m4a,,,,,,,null,,,,,,,,,,,,,,,,,,
alien_welcome,198,656585,0.0-58.0-0.0,"""event"",""trial"",""time""
""fullscreenenter"",""1"",""2334""
","
","
","""event"",""trial"",""time""
""fullscreenenter"",""1"",""2334""
","
",,null,run_exp/static/images/task_images/aliens/old_aliens/planet/alien_planet-32.jpg,null,,,,,,,,,,,,,32,"63,67,38,29,47,62,46,68,3,55,7,10,32,77,79,12,17,19,36,51,57,24,13,18,11,33,6,52,53,80,64,15,39,49,2,69,5,27,56,45,44,23,74,31,21,34,50,40,16,4,76,75,37,30,65,9",,,,,,,,,,
land,199,657100,0.0-58.0-1.0,"""event"",""trial"",""time""
""fullscreenenter"",""1"",""2334""
","
","
","""event"",""trial"",""time""
""fullscreenenter"",""1"",""2334""
","
",,null,run_exp/static/images/task_images/land.jpg,null,,,,,,,98,,,13,,,,,,,,,,,,,,
dig,200,659113,0.0-58.0-2.0,"""event"",""trial"",""time""
""fullscreenenter"",""1"",""2334""
","
","
","""event"",""trial"",""time""
""fullscreenenter"",""1"",""2334""
","
",,,,,,,,,,,,"[{""stimulus"":""run_exp/static/images/task_images/dig.jpg"",""time"":0.10000002384185791},{""stimulus"":""run_exp/static/images/task_images/land.jpg"",""time"":679},{""stimulus"":""run_exp/static/images/task_images/dig.jpg"",""time"":1349.3000000715256}]",[],13,,,,,,,,,,,,,,
harvest,201,660121,0.0-58.0-3.0,"""event"",""trial"",""time""
""fullscreenenter"",""1"",""2334""
","
","
","""event"",""trial"",""time""
""fullscreenenter"",""1"",""2334""
","
",,null,run_exp/static/images/task_images/gems/98.jpg,null,,,,,,,14,,,13,,,,,98,0.143908444,0.142857143,,,,,,,
decision,202,660521,0.0-58.0-4.0,"""event"",""trial"",""time""
""fullscreenenter"",""1"",""2334""
","
","
","""event"",""trial"",""time""
""fullscreenenter"",""1"",""2334""
","
",,399.2,run_exp/static/images/task_images/land.jpg,65,,,,,,,14,,,13,,,,,,,,8942,2,0,FALSE,,,
dig,203,663134,0.0-59.0-0.0,"""event"",""trial"",""time""
""fullscreenenter"",""1"",""2334""
","
","
","""event"",""trial"",""time""
""fullscreenenter"",""1"",""2334""
","
",,,,,,,,,,,,"[{""stimulus"":""run_exp/static/images/task_images/dig.jpg"",""time"":0.10000002384185791},{""stimulus"":""run_exp/static/images/task_images/land.jpg"",""time"":867.7000000476837},{""stimulus"":""run_exp/static/images/task_images/dig.jpg"",""time"":1740.8999999761581}]",[],13,,,,,,,,,,,,,,
harvest,204,664142,0.0-59.0-1.0,"""event"",""trial"",""time""
""fullscreenenter"",""1"",""2334""
","
","
","""event"",""trial"",""time""
""fullscreenenter"",""1"",""2334""
","
",,null,run_exp/static/images/task_images/gems/14.jpg,null,,,,,,,3,,,13,,,,,14,0.179480488,0.214285714,,,,,,,
decision,205,664165,0.0-59.0-2.0,"""event"",""trial"",""time""
""fullscreenenter"",""1"",""2334""
","
","
","""event"",""trial"",""time""
""fullscreenenter"",""1"",""2334""
","
",,21.5,run_exp/static/images/task_images/land.jpg,76,,,,,,,3,,,13,,,,,,,,12586,2,1,TRUE,,,
travel,206,674143,0.0-60.0-0.0,"""event"",""trial"",""time""
""fullscreenenter"",""1"",""2334""
","
","
","""event"",""trial"",""time""
""fullscreenenter"",""1"",""2334""
","
",,,,,,,,,,,,"[{""stimulus"":""run_exp/static/images/task_images/rocket-01.jpg"",""time"":0.10000002384185791},{""stimulus"":""run_exp/static/images/task_images/rocket-02.jpg"",""time"":1124.3999999761581},{""stimulus"":""run_exp/static/images/task_images/rocket-03.jpg"",""time"":2221.600000023842},{""stimulus"":""run_exp/static/images/task_images/rocket-04.jpg"",""time"":3335.8000000715256},{""stimulus"":""run_exp/static/images/task_images/rocket-05.jpg"",""time"":4435.600000023842},{""stimulus"":""run_exp/static/images/task_images/rocket-06.jpg"",""time"":5555.600000023842},{""stimulus"":""run_exp/static/images/task_images/rocket-07.jpg"",""time"":6664.300000071526},{""stimulus"":""run_exp/static/images/task_images/rocket-08.jpg"",""time"":7763},{""stimulus"":""run_exp/static/images/task_images/rocket-09.jpg"",""time"":8877.300000071526}]",[],13,,,,,,,,,,,,,,
alien_welcome,207,679145,0.0-60.0-1.0,"""event"",""trial"",""time""
""fullscreenenter"",""1"",""2334""
","
","
","""event"",""trial"",""time""
""fullscreenenter"",""1"",""2334""
","
",,null,run_exp/static/images/task_images/aliens/old_aliens/planet/alien_planet-77.jpg,null,,,,,,,,,,,,,77,"63,67,38,29,47,62,46,68,3,55,7,10,32,77,79,12,17,19,36,51,57,24,13,18,11,33,6,52,53,80,64,15,39,49,2,69,5,27,56,45,44,23,74,31,21,34,50,40,16,4,76,75,37,30,65,9",,,,,,,,,,
land,208,679648,0.0-60.0-2.0,"""event"",""trial"",""time""
""fullscreenenter"",""1"",""2334""
","
","
","""event"",""trial"",""time""
""fullscreenenter"",""1"",""2334""
","
",,null,run_exp/static/images/task_images/land.jpg,null,,,,,,,88,,,14,,,,,,,,,,,,,,
dig,209,681657,0.0-60.0-3.0,"""event"",""trial"",""time""
""fullscreenenter"",""1"",""2334""
","
","
","""event"",""trial"",""time""
""fullscreenenter"",""1"",""2334""
","
",,,,,,,,,,,,"[{""stimulus"":""run_exp/static/images/task_images/dig.jpg"",""time"":0.19999992847442627},{""stimulus"":""run_exp/static/images/task_images/land.jpg"",""time"":676.6999999284744},{""stimulus"":""run_exp/static/images/task_images/dig.jpg"",""time"":1340.5}]",[],14,,,,,,,,,,,,,,
harvest,210,682670,0.0-60.0-4.0,"""event"",""trial"",""time""
""fullscreenenter"",""1"",""2334""
","
","
","""event"",""trial"",""time""
""fullscreenenter"",""1"",""2334""
","
",,null,run_exp/static/images/task_images/gems/88.jpg,null,,,,,,,21,,,14,,,,,88,0.234040656,0.238636364,,,,,,,
decision,211,682958,0.0-60.0-5.0,"""event"",""trial"",""time""
""fullscreenenter"",""1"",""2334""
","
","
","""event"",""trial"",""time""
""fullscreenenter"",""1"",""2334""
","
",,286.6,run_exp/static/images/task_images/land.jpg,76,,,,,,,21,,,14,,,,,,,,31379,2,0,TRUE,,,
travel,212,692687,0.0-61.0-0.0,"""event"",""trial"",""time""
""fullscreenenter"",""1"",""2334""
","
","
","""event"",""trial"",""time""
""fullscreenenter"",""1"",""2334""
","
",,,,,,,,,,,,"[{""stimulus"":""run_exp/static/images/task_images/rocket-01.jpg"",""time"":0.10000002384185791},{""stimulus"":""run_exp/static/images/task_images/rocket-02.jpg"",""time"":1087.2999999523163},{""stimulus"":""run_exp/static/images/task_images/rocket-03.jpg"",""time"":2164.1999999284744},{""stimulus"":""run_exp/static/images/task_images/rocket-04.jpg"",""time"":3252.6999999284744},{""stimulus"":""run_exp/static/images/task_images/rocket-05.jpg"",""time"":4329.299999952316},{""stimulus"":""run_exp/static/images/task_images/rocket-06.jpg"",""time"":5406.899999976158},{""stimulus"":""run_exp/static/images/task_images/rocket-07.jpg"",""time"":6483.699999928474},{""stimulus"":""run_exp/static/images/task_images/rocket-08.jpg"",""time"":7561.5},{""stimulus"":""run_exp/static/images/task_images/rocket-09.jpg"",""time"":8635.5}]",[],14,,,,,,,,,,,,,,
alien_welcome,213,697689,0.0-61.0-1.0,"""event"",""trial"",""time""
""fullscreenenter"",""1"",""2334""
","
","
","""event"",""trial"",""time""
""fullscreenenter"",""1"",""2334""
","
",,null,run_exp/static/images/task_images/aliens/old_aliens/planet/alien_planet-79.jpg,null,,,,,,,,,,,,,79,"63,67,38,29,47,62,46,68,3,55,7,10,32,77,79,12,17,19,36,51,57,24,13,18,11,33,6,52,53,80,64,15,39,49,2,69,5,27,56,45,44,23,74,31,21,34,50,40,16,4,76,75,37,30,65,9",,,,,,,,,,
land,214,698193,0.0-61.0-2.0,"""event"",""trial"",""time""
""fullscreenenter"",""1"",""2334""
","
","
","""event"",""trial"",""time""
""fullscreenenter"",""1"",""2334""
","
",,null,run_exp/static/images/task_images/land.jpg,null,,,,,,,93,,,15,,,,,,,,,,,,,,
dig,215,700203,0.0-61.0-3.0,"""event"",""trial"",""time""
""fullscreenenter"",""1"",""2334""
","
","
","""event"",""trial"",""time""
""fullscreenenter"",""1"",""2334""
","
",,,,,,,,,,,,"[{""stimulus"":""run_exp/static/images/task_images/dig.jpg"",""time"":0.10000002384185791},{""stimulus"":""run_exp/static/images/task_images/land.jpg"",""time"":674},{""stimulus"":""run_exp/static/images/task_images/dig.jpg"",""time"":1346.5}]",[],15,,,,,,,,,,,,,,
harvest,216,701215,0.0-61.0-4.0,"""event"",""trial"",""time""
""fullscreenenter"",""1"",""2334""
","
","
","""event"",""trial"",""time""
""fullscreenenter"",""1"",""2334""
","
",,null,run_exp/static/images/task_images/gems/93.jpg,null,,,,,,,19,,,15,,,,,93,0.201154405,0.204301075,,,,,,,
decision,217,701524,0.0-61.0-5.0,"""event"",""trial"",""time""
""fullscreenenter"",""1"",""2334""
","
","
","""event"",""trial"",""time""
""fullscreenenter"",""1"",""2334""
","
",,308.5,run_exp/static/images/task_images/land.jpg,76,,,,,,,19,,,15,,,,,,,,49945,2,0,TRUE,,,
travel,218,711220,0.0-62.0-0.0,"""event"",""trial"",""time""
""fullscreenenter"",""1"",""2334""
","
","
","""event"",""trial"",""time""
""fullscreenenter"",""1"",""2334""
","
",,,,,,,,,,,,"[{""stimulus"":""run_exp/static/images/task_images/rocket-01.jpg"",""time"":0.10000002384185791},{""stimulus"":""run_exp/static/images/task_images/rocket-02.jpg"",""time"":1086.3000000715256},{""stimulus"":""run_exp/static/images/task_images/rocket-03.jpg"",""time"":2152.899999976158},{""stimulus"":""run_exp/static/images/task_images/rocket-04.jpg"",""time"":3231.2000000476837},{""stimulus"":""run_exp/static/images/task_images/rocket-05.jpg"",""time"":4312.899999976158},{""stimulus"":""run_exp/static/images/task_images/rocket-06.jpg"",""time"":5385.200000047684},{""stimulus"":""run_exp/static/images/task_images/rocket-07.jpg"",""time"":6468.200000047684},{""stimulus"":""run_exp/static/images/task_images/rocket-08.jpg"",""time"":7534.200000047684},{""stimulus"":""run_exp/static/images/task_images/rocket-09.jpg"",""time"":8611.800000071526}]",[],15,,,,,,,,,,,,,,
alien_welcome,219,716222,0.0-62.0-1.0,"""event"",""trial"",""time""
""fullscreenenter"",""1"",""2334""
","
","
","""event"",""trial"",""time""
""fullscreenenter"",""1"",""2334""
","
",,null,run_exp/static/images/task_images/aliens/old_aliens/planet/alien_planet-12.jpg,null,,,,,,,,,,,,,12,"63,67,38,29,47,62,46,68,3,55,7,10,32,77,79,12,17,19,36,51,57,24,13,18,11,33,6,52,53,80,64,15,39,49,2,69,5,27,56,45,44,23,74,31,21,34,50,40,16,4,76,75,37,30,65,9",,,,,,,,,,
land,220,716724,0.0-62.0-2.0,"""event"",""trial"",""time""
""fullscreenenter"",""1"",""2334""
","
","
","""event"",""trial"",""time""
""fullscreenenter"",""1"",""2334""
","
",,null,run_exp/static/images/task_images/land.jpg,null,,,,,,,104,,,16,,,,,,,,,,,,,,
dig,221,718731,0.0-62.0-3.0,"""event"",""trial"",""time""
""fullscreenenter"",""1"",""2334""
","
","
","""event"",""trial"",""time""
""fullscreenenter"",""1"",""2334""
","
",,,,,,,,,,,,"[{""stimulus"":""run_exp/static/images/task_images/dig.jpg"",""time"":0.2999999523162842},{""stimulus"":""run_exp/static/images/task_images/land.jpg"",""time"":676.7000000476837},{""stimulus"":""run_exp/static/images/task_images/dig.jpg"",""time"":1349.8999999761581}]",[],16,,,,,,,,,,,,,,
harvest,222,719737,0.0-62.0-4.0,"""event"",""trial"",""time""
""fullscreenenter"",""1"",""2334""
","
","
","""event"",""trial"",""time""
""fullscreenenter"",""1"",""2334""
","
",,null,run_exp/static/images/task_images/gems/104.jpg,null,,,,,,,89,,,16,,,,,104,0.851407003,0.855769231,,,,,,,
decision,223,719786,0.0-62.0-5.0,"""event"",""trial"",""time""
""fullscreenenter"",""1"",""2334""
","
","
","""event"",""trial"",""time""
""fullscreenenter"",""1"",""2334""
","
",,47.9000001,run_exp/static/images/task_images/land.jpg,65,,,,,,,89,,,16,,,,,,,,68207,2,0,FALSE,,,
dig,224,722746,0.0-63.0-0.0,"""event"",""trial"",""time""
""fullscreenenter"",""1"",""2334""
","
","
","""event"",""trial"",""time""
""fullscreenenter"",""1"",""2334""
","
",,,,,,,,,,,,"[{""stimulus"":""run_exp/static/images/task_images/dig.jpg"",""time"":0.10000002384185791},{""stimulus"":""run_exp/static/images/task_images/land.jpg"",""time"":1000.1999999284744},{""stimulus"":""run_exp/static/images/task_images/dig.jpg"",""time"":1971.2999999523163}]",[],16,,,,,,,,,,,,,,
harvest,225,723760,0.0-63.0-1.0,"""event"",""trial"",""time""
""fullscreenenter"",""1"",""2334""
","
","
","""event"",""trial"",""time""
""fullscreenenter"",""1"",""2334""
","
",,null,run_exp/static/images/task_images/gems/89.jpg,null,,,,,,,78,,,16,,,,,89,0.880274607,0.876404494,,,,,,,
decision,226,723942,0.0-63.0-2.0,"""event"",""trial"",""time""
""fullscreenenter"",""1"",""2334""
","
","
","""event"",""trial"",""time""
""fullscreenenter"",""1"",""2334""
","
",,181.8,run_exp/static/images/task_images/land.jpg,76,,,,,,,78,,,16,,,,,,,,72363,2,1,TRUE,,,
travel,227,733758,0.0-64.0-0.0,"""event"",""trial"",""time""
""fullscreenenter"",""1"",""2334""
","
","
","""event"",""trial"",""time""
""fullscreenenter"",""1"",""2334""
","
",,,,,,,,,,,,"[{""stimulus"":""run_exp/static/images/task_images/rocket-01.jpg"",""time"":0},{""stimulus"":""run_exp/static/images/task_images/rocket-02.jpg"",""time"":1094.6999999284744},{""stimulus"":""run_exp/static/images/task_images/rocket-03.jpg"",""time"":2193.5},{""stimulus"":""run_exp/static/images/task_images/rocket-04.jpg"",""time"":3281.2999999523163},{""stimulus"":""run_exp/static/images/task_images/rocket-05.jpg"",""time"":4369.199999928474},{""stimulus"":""run_exp/static/images/task_images/rocket-06.jpg"",""time"":5452},{""stimulus"":""run_exp/static/images/task_images/rocket-07.jpg"",""time"":6550.600000023842},{""stimulus"":""run_exp/static/images/task_images/rocket-08.jpg"",""time"":7638.699999928474},{""stimulus"":""run_exp/static/images/task_images/rocket-09.jpg"",""time"":8725.799999952316}]",[],16,,,,,,,,,,,,,,
alien_welcome,228,738762,0.0-64.0-1.0,"""event"",""trial"",""time""
""fullscreenenter"",""1"",""2334""
","
","
","""event"",""trial"",""time""
""fullscreenenter"",""1"",""2334""
","
",,null,run_exp/static/images/task_images/aliens/old_aliens/planet/alien_planet-17.jpg,null,,,,,,,,,,,,,17,"63,67,38,29,47,62,46,68,3,55,7,10,32,77,79,12,17,19,36,51,57,24,13,18,11,33,6,52,53,80,64,15,39,49,2,69,5,27,56,45,44,23,74,31,21,34,50,40,16,4,76,75,37,30,65,9",,,,,,,,,,
land,229,739262,0.0-64.0-2.0,"""event"",""trial"",""time""
""fullscreenenter"",""1"",""2334""
","
","
","""event"",""trial"",""time""
""fullscreenenter"",""1"",""2334""
","
",,null,run_exp/static/images/task_images/land.jpg,null,,,,,,,106,,,17,,,,,,,,,,,,,,
dig,230,741279,0.0-64.0-3.0,"""event"",""trial"",""time""
""fullscreenenter"",""1"",""2334""
","
","
","""event"",""trial"",""time""
""fullscreenenter"",""1"",""2334""
","
",,,,,,,,,,,,"[{""stimulus"":""run_exp/static/images/task_images/dig.jpg"",""time"":0.10000002384185791},{""stimulus"":""run_exp/static/images/task_images/land.jpg"",""time"":676.6000000238419},{""stimulus"":""run_exp/static/images/task_images/dig.jpg"",""time"":1342.3999999761581}]",[],17,,,,,,,,,,,,,,
harvest,231,742286,0.0-64.0-4.0,"""event"",""trial"",""time""
""fullscreenenter"",""1"",""2334""
","
","
","""event"",""trial"",""time""
""fullscreenenter"",""1"",""2334""
","
",,null,run_exp/static/images/task_images/gems/106.jpg,null,,,,,,,84,,,17,,,,,106,0.793902674,0.79245283,,,,,,,
decision,232,742339,0.0-64.0-5.0,"""event"",""trial"",""time""
""fullscreenenter"",""1"",""2334""
","
","
","""event"",""trial"",""time""
""fullscreenenter"",""1"",""2334""
","
",,52.30000007,run_exp/static/images/task_images/land.jpg,65,,,,,,,84,,,17,,,,,,,,90761,2,0,FALSE,,,
dig,233,745295,0.0-65.0-0.0,"""event"",""trial"",""time""
""fullscreenenter"",""1"",""2334""
","
","
","""event"",""trial"",""time""
""fullscreenenter"",""1"",""2334""
","
",,,,,,,,,,,,"[{""stimulus"":""run_exp/static/images/task_images/dig.jpg"",""time"":0.09999990463256836},{""stimulus"":""run_exp/static/images/task_images/land.jpg"",""time"":984.5},{""stimulus"":""run_exp/static/images/task_images/dig.jpg"",""time"":1971.8999999761581}]",[],17,,,,,,,,,,,,,,
harvest,234,746302,0.0-65.0-1.0,"""event"",""trial"",""time""
""fullscreenenter"",""1"",""2334""
","
","
","""event"",""trial"",""time""
""fullscreenenter"",""1"",""2334""
","
",,null,run_exp/static/images/task_images/gems/84.jpg,null,,,,,,,69,,,17,,,,,84,0.819445369,0.821428571,,,,,,,
decision,235,746320,0.0-65.0-2.0,"""event"",""trial"",""time""
""fullscreenenter"",""1"",""2334""
","
","
