trial_type,trial_index,time_elapsed,internal_node_id,success,rt,stimulus,key_press,prompt,subject_id,age,gender,button_pressed,next_reward,animation_sequence,responses,planet,curr_prac_trial,n_prac_rounds,alien,aliens,reward_received,decay_rate_actual,decay_rate_exp,time_in_block,block_num,prt,last_trial_on_planet,button_html,bonus,num_failures
pavlovia,0,5,0.0-0.0,,,,,,,,,,,,,,,,,,,,,,,,,,,
fullscreen,1,28826,0.0-1.0,TRUE,,,,,,,,,,,,,,,,,,,,,,,,,,
instruc_welcome,2,38651,0.0-2.0,,null,run_exp/static/audio/clip_1_welcome.m4a,null,"<p>Howdy! In this experiment, you’ll be an explorer traveling through space to collect space treasure.</p><p>Your mission is to collect as much treasure as possible.</p><br><br><p><img src='run_exp/static/images/task_images/opening_img-01.jpg' height='300' width='auto'></p>",trEiwhVO8K99ZMh_a5Ke5UddwllDBGZ_MLRP_bC6VCNHz2Q1oMiq,11.67,male,,,,,,,,,,,,,,,,,,,
audio-keyboard-response,3,55242,0.0-3.0,,null,run_exp/static/audio/clip_2_move.m4a,null,,,,,,,,,,,,,,,,,,,,,,,
welcome_dec,4,57541,0.0-4.0,,2296.255,"<p>Howdy! In this experiment, you’ll be an explorer traveling through space to collect space treasure.</p><p>Your mission is to collect as much treasure as possible.</p><br><br><p><img src='run_exp/static/images/task_images/opening_img-01.jpg' height='300' width='auto'></p>",,,,,,1,,,,,,,,,,,,,,,,,,
html-keyboard-response,5,58312,0.0-5.0,,769.51,"<p>Howdy! In this experiment, you’ll be an explorer traveling through space to collect space treasure.</p><p>Your mission is to collect as much treasure as possible.</p><br><br><p><img src='run_exp/static/images/task_images/opening_img-01.jpg' height='300' width='auto'></p><button class=""jspsych-html-btn-unchosen""><img src=""run_exp/static/images/task_images/planet-01.jpg"" height=""50""></button><button class=""jspsych-html-btn-chosen""><img src=""run_exp/static/images/task_images/planet-02.jpg"" height=""50""></button><p><b>[press the space bar to lock in your answer]<b><br></p>",32,,,,,,,,,,,,,,,,,,,,,,,
instruc_goal,6,68382,0.0-6.0-0.0,,null,run_exp/static/audio/clip_3_goal.m4a,null,"<p> As a space explorer, you’ll visit different planets to dig for space treasure, these pink gems.</p> <p> The more treasure you dig up, the more bonus money you’ll win! </p><br><br><p><img src='run_exp/static/images/task_images/pink_gem.jpg' height='300' width='auto'></p>",,,,,,,,,,,,,,,,,,,,,,
instruc_goal,7,71285,0.0-6.0-1.0,,2900.715,"<p> As a space explorer, you’ll visit different planets to dig for space treasure, these pink gems.</p> <p> The more treasure you dig up, the more bonus money you’ll win! </p><br><br><p><img src='run_exp/static/images/task_images/pink_gem.jpg' height='300' width='auto'></p>",,,,,,1,,,,,,,,,,,,,,,,,,
html-keyboard-response,8,72641,0.0-6.0-2.0,,1354.08,"<p> As a space explorer, you’ll visit different planets to dig for space treasure, these pink gems.</p> <p> The more treasure you dig up, the more bonus money you’ll win! </p><br><br><p><img src='run_exp/static/images/task_images/pink_gem.jpg' height='300' width='auto'></p><button class=""jspsych-html-btn-unchosen""><img src=""run_exp/static/images/task_images/planet-01.jpg"" height=""50""></button><button class=""jspsych-html-btn-chosen""><img src=""run_exp/static/images/task_images/planet-02.jpg"" height=""50""></button><p><b>[press the space bar to lock in your answer]<b><br></p>",32,,,,,,,,,,,,,,,,,,,,,,,
instruc_dig,9,88642,0.0-7.0-0.0,,null,run_exp/static/audio/clip_4_dig.m4a,null,,,,,,100,,,,,,,,,,,,,,,,,
instruc_dig_try,10,89033,0.0-7.0-1.0,,388.61,"<p> When you’ve arrived at a new planet, you will dig once. </p> <p>Then, you get to decide if you want to stay on the planet and dig again or travel to a new planet and dig there.</p> <p> To stay and dig, press the letter <strong>‘A’</strong> on your keyboard. Try pressing it now! </p><p><img src='run_exp/static/images/task_images/land.jpg'  height='700' width='auto'></p>",65,"<p> When you’ve arrived at a new planet, you will dig once. </p> <p>Then, you get to decide if you want to stay on the planet and dig again or travel to a new planet and dig there.</p> <p> To stay and dig, press the letter <strong>‘A’</strong> on your keyboard. Try pressing it now! </p><p><img src='run_exp/static/images/task_images/land.jpg'  height='700' width='auto'></p>",,,,,100,,,,,,,,,,,,,,,,,
dig_prac,11,91081,0.0-7.0-2.0,,,,,,,,,,,"[{""stimulus"":""run_exp/static/images/task_images/dig.jpg"",""time"":0.28499995823949575},{""stimulus"":""run_exp/static/images/task_images/land.jpg"",""time"":670.5599999986589},{""stimulus"":""run_exp/static/images/task_images/dig.jpg"",""time"":1340.9049999900162}]",[],,,,,,,,,,,,,,,
instruc_travel,12,127321,0.0-7.0-3.0,,null,run_exp/static/audio/clip_5_travel.m4a,null,"<p>Every time you dig up gems, there are less gems on the planet, so the more you dig on a planet the fewer gems you’ll get with each dig.</p><p>When gems are running low, you may want to travel to a new planet. </p> <p>  Planets are very far apart in this galaxy, so it will take some time to travel between them. </p> <br><p>There are lots and lots of planets for you to visit, so you won’t be able to return to any planets you’ve seen before. </p><br><p>To leave this planet and travel to a new one, press the letter <strong>‘L’</strong> on your keyboard. Try pressing it now! </p><p><img src='run_exp/static/images/task_images/rocket-01.jpg'  height='600' width='auto'></p>",,,,,,,,,,,,,,,,,,,,,,
instruc_travel_try,13,127516,0.0-7.0-4.0,,193.24,"<p>Every time you dig up gems, there are less gems on the planet, so the more you dig on a planet the fewer gems you’ll get with each dig.</p><p>When gems are running low, you may want to travel to a new planet. </p> <p>  Planets are very far apart in this galaxy, so it will take some time to travel between them. </p> <br><p>There are lots and lots of planets for you to visit, so you won’t be able to return to any planets you’ve seen before. </p><br><p>To leave this planet and travel to a new one, press the letter <strong>‘L’</strong> on your keyboard. Try pressing it now! </p><p><img src='run_exp/static/images/task_images/rocket-01.jpg'  height='600' width='auto'></p>",76,"<p>Every time you dig up gems, there are less gems on the planet, so the more you dig on a planet the fewer gems you’ll get with each dig.</p><p>When gems are running low, you may want to travel to a new planet. </p> <p>  Planets are very far apart in this galaxy, so it will take some time to travel between them. </p> <br><p>There are lots and lots of planets for you to visit, so you won’t be able to return to any planets you’ve seen before. </p><br><p>To leave this planet and travel to a new one, press the letter <strong>‘L’</strong> on your keyboard. Try pressing it now! </p><p><img src='run_exp/static/images/task_images/rocket-01.jpg'  height='600' width='auto'></p>",,,,,,,,,,,,,,,,,,,,,,
travel_prac,14,137518,0.0-7.0-5.0,,,,,,,,,,,"[{""stimulus"":""run_exp/static/images/task_images/rocket-01.jpg"",""time"":0.29500003438442945},{""stimulus"":""run_exp/static/images/task_images/rocket-02.jpg"",""time"":1130.9550000005402},{""stimulus"":""run_exp/static/images/task_images/rocket-03.jpg"",""time"":2230.7650000439025},{""stimulus"":""run_exp/static/images/task_images/rocket-04.jpg"",""time"":3351.1799999978393},{""stimulus"":""run_exp/static/images/task_images/rocket-05.jpg"",""time"":4451.040000014473},{""stimulus"":""run_exp/static/images/task_images/rocket-06.jpg"",""time"":5570.800000044983},{""stimulus"":""run_exp/static/images/task_images/rocket-07.jpg"",""time"":6680.825000046752},{""stimulus"":""run_exp/static/images/task_images/rocket-08.jpg"",""time"":7781.725000008009},{""stimulus"":""run_exp/static/images/task_images/rocket-09.jpg"",""time"":8901.115000015125}]",[],0,,,,,,,,,,,,,,
instruc_alien_greet,15,164700,0.0-7.0-6.0,,null,run_exp/static/audio/clip_6_alien.m4a,null,"<p>When you arrive at a new planet, the alien who owns the treasure mine on that planet will greet you!</p><p>The better an alien takes care of their mine the easier it is to dig for gems. Some aliens take better care of their mine than others. So, you won’t get exactly the same amount of gems on each planet.</p><p>What the alien looks like does not tell you anything about how many gems there are on the planet.</p><br><p><img src=""run_exp/static/images/task_images/aliens/instructions_aliens/planet/alien_planet-1.jpg""  height=""600"" width=""auto""></p>",,,,,,,,,,,,,,,,,,,,,,
instruc_alien_greet,16,171498,0.0-7.0-7.0,,6795.33,"<p>When you arrive at a new planet, the alien who owns the treasure mine on that planet will greet you!</p><p>The better an alien takes care of their mine the easier it is to dig for gems. Some aliens take better care of their mine than others. So, you won’t get exactly the same amount of gems on each planet.</p><p>What the alien looks like does not tell you anything about how many gems there are on the planet.</p><br><p><img src=""run_exp/static/images/task_images/aliens/instructions_aliens/planet/alien_planet-1.jpg""  height=""600"" width=""auto""></p>",,,,,,1,,,,,,,,,,,,,,,,,,
html-keyboard-response,17,171608,0.0-7.0-8.0,,108.715,"<p>When you arrive at a new planet, the alien who owns the treasure mine on that planet will greet you!</p><p>The better an alien takes care of their mine the easier it is to dig for gems. Some aliens take better care of their mine than others. So, you won’t get exactly the same amount of gems on each planet.</p><p>What the alien looks like does not tell you anything about how many gems there are on the planet.</p><br><p><img src=""run_exp/static/images/task_images/aliens/instructions_aliens/planet/alien_planet-1.jpg""  height=""600"" width=""auto""></p><button class=""jspsych-html-btn-unchosen""><img src=""run_exp/static/images/task_images/planet-01.jpg"" height=""50""></button><button class=""jspsych-html-btn-chosen""><img src=""run_exp/static/images/task_images/planet-02.jpg"" height=""50""></button><p><b>[press the space bar to lock in your answer]<b><br></p>",32,,,,,,,,,,,,,,,,,,,,,,,
time_out,18,182700,0.0-8.0-0.0,,null,run_exp/static/audio/clip_7_timeout.m4a,null,"<p>If you don't make your choice fast enough, you’ll have to wait a few seconds before you can make another one.</p><p>You can’t dig for more gems or travel to new planets. You just have to sit and wait.</p><br><p><img src='run_exp/static/images/task_images/time_out.jpg'  height='600' width='auto'></p>",,,,,,,,,,,,,,,,,,,,,,
time_out,19,184934,0.0-8.0-1.0,,2231.01,"<p>If you don't make your choice fast enough, you’ll have to wait a few seconds before you can make another one.</p><p>You can’t dig for more gems or travel to new planets. You just have to sit and wait.</p><br><p><img src='run_exp/static/images/task_images/time_out.jpg'  height='600' width='auto'></p>",,,,,,1,,,,,,,,,,,,,,,,,,
html-keyboard-response,20,185039,0.0-8.0-2.0,,103.71,"<p>If you don't make your choice fast enough, you’ll have to wait a few seconds before you can make another one.</p><p>You can’t dig for more gems or travel to new planets. You just have to sit and wait.</p><br><p><img src='run_exp/static/images/task_images/time_out.jpg'  height='600' width='auto'></p><button class=""jspsych-html-btn-unchosen""><img src=""run_exp/static/images/task_images/planet-01.jpg"" height=""50""></button><button class=""jspsych-html-btn-chosen""><img src=""run_exp/static/images/task_images/planet-02.jpg"" height=""50""></button><p><b>[press the space bar to lock in your answer]<b><br></p>",32,,,,,,,,,,,,,,,,,,,,,,,
instruc_break,21,200701,0.0-9.0-0.0,,null,run_exp/static/audio/clip_8_break.m4a,null,"<p> After digging and traveling for a while, you’ll be able to take a break at home base. </p><p>The game will last 20 minutes no matter what.</p><p>You will visit home base every 5 minutes, so, you will visit home base three times during the game.</p><br><p><img src='run_exp/static/images/task_images/home_base.jpg' height='600' width='auto'></p>",,,,,,,,,,,,,,,,,,,,,,
instruc_break,22,202673,0.0-9.0-1.0,,1969.73,"<p> After digging and traveling for a while, you’ll be able to take a break at home base. </p><p>The game will last 20 minutes no matter what.</p><p>You will visit home base every 5 minutes, so, you will visit home base three times during the game.</p><br><p><img src='run_exp/static/images/task_images/home_base.jpg' height='600' width='auto'></p>",,,,,,1,,,,,,,,,,,,,,,,,,
html-keyboard-response,23,202812,0.0-9.0-2.0,,137.75,"<p> After digging and traveling for a while, you’ll be able to take a break at home base. </p><p>The game will last 20 minutes no matter what.</p><p>You will visit home base every 5 minutes, so, you will visit home base three times during the game.</p><br><p><img src='run_exp/static/images/task_images/home_base.jpg' height='600' width='auto'></p><button class=""jspsych-html-btn-unchosen""><img src=""run_exp/static/images/task_images/planet-01.jpg"" height=""50""></button><button class=""jspsych-html-btn-chosen""><img src=""run_exp/static/images/task_images/planet-02.jpg"" height=""50""></button><p><b>[press the space bar to lock in your answer]<b><br></p>",32,,,,,,,,,,,,,,,,,,,,,,,
instruc_prac_game,24,212940,0.0-10.0-0.0,,null,run_exp/static/audio/clip_9_practice.m4a,null,"<p> Are you ready to play a practice game? </p> <p>In this practice game, you'll be digging up barrels of gems. But, in the real game, you'll be digging up the gems themselves. </p>",,,,,,,,,,,,,,,,,,,,,,
html-button-response,25,215061,0.0-10.0-1.0,,2119.52,"<p> Are you ready to play a practice game? </p> <p>In this practice game, you'll be digging up barrels of gems. But, in the real game, you'll be digging up the gems themselves. </p>",,,,,,0,,,,,,,,,,,,,,,,,,
alien_welcome_prac,26,220069,0.0-11.0-0.0,,null,run_exp/static/images/task_images/aliens/practice_aliens/planet/alien_planet-5.jpg,null,,,,,,,,,,,,,,,,,,,,,,,
land_prac,27,220580,0.0-11.0-1.0,,null,run_exp/static/images/task_images/land.jpg,null,,,,,,100,,,0,,,,,,,,,,,,,,
dig_prac,28,222599,0.0-11.0-2.0,,,,,,,,,,,"[{""stimulus"":""run_exp/static/images/task_images/dig.jpg"",""time"":0.3250000299885869},{""stimulus"":""run_exp/static/images/task_images/land.jpg"",""time"":677.1850000368431},{""stimulus"":""run_exp/static/images/task_images/dig.jpg"",""time"":1337.5850000302307}]",[],,,,,,,,,,,,,,,
harvest_prac,29,223620,0.0-11.0-3.0,,null,run_exp/static/images/task_images/barrel_text.jpg,null,,,,,,,,,,,,,,,,,,,,,,,
decision_prac,30,225038,0.0-11.0-4.0,,1416.07,run_exp/static/images/task_images/land.jpg,65,,,,,,,,,,1,,,,,,,,,,,,,
dig_prac,31,227049,0.0-12.0-0.0,,,,,,,,,,,"[{""stimulus"":""run_exp/static/images/task_images/dig.jpg"",""time"":0.2899999963119626},{""stimulus"":""run_exp/static/images/task_images/land.jpg"",""time"":677.8350000386126},{""stimulus"":""run_exp/static/images/task_images/dig.jpg"",""time"":1347.5500000058673}]",[],,,,,,,,,,,,,,,
harvest_prac,32,228059,0.0-12.0-1.0,,null,run_exp/static/images/task_images/barrel_text.jpg,null,,,,,,,,,,,,,,,,,,,,,,,
decision_prac,33,229169,0.0-12.0-2.0,,1108.095,run_exp/static/images/task_images/land.jpg,65,,,,,,,,,,2,,,,,,,,,,,,,
dig_prac,34,231179,0.0-13.0-0.0,,,,,,,,,,,"[{""stimulus"":""run_exp/static/images/task_images/dig.jpg"",""time"":0.1449999981559813},{""stimulus"":""run_exp/static/images/task_images/land.jpg"",""time"":686.5100000286475},{""stimulus"":""run_exp/static/images/task_images/dig.jpg"",""time"":1348.6200000043027}]",[],,,,,,,,,,,,,,,
harvest_prac,35,232199,0.0-13.0-1.0,,null,run_exp/static/images/task_images/barrel_text.jpg,null,,,,,,,,,,,,,,,,,,,,,,,
decision_prac,36,232707,0.0-13.0-2.0,,507.145,run_exp/static/images/task_images/land.jpg,65,,,,,,,,,,3,,,,,,,,,,,,,
dig_prac,37,234719,0.0-14.0-0.0,,,,,,,,,,,"[{""stimulus"":""run_exp/static/images/task_images/dig.jpg"",""time"":0.14000001829117537},{""stimulus"":""run_exp/static/images/task_images/land.jpg"",""time"":669.4150000112131},{""stimulus"":""run_exp/static/images/task_images/dig.jpg"",""time"":1349.8999999719672}]",[],,,,,,,,,,,,,,,
harvest_prac,38,235740,0.0-14.0-1.0,,null,run_exp/static/images/task_images/barrel_text.jpg,null,,,,,,,,,,,,,,,,,,,,,,,
decision_prac,39,236304,0.0-14.0-2.0,,562.57,run_exp/static/images/task_images/land.jpg,65,,,,,,,,,,4,,,,,,,,,,,,,
dig_prac,40,238320,0.0-15.0-0.0,,,,,,,,,,,"[{""stimulus"":""run_exp/static/images/task_images/dig.jpg"",""time"":0.13000000035390258},{""stimulus"":""run_exp/static/images/task_images/land.jpg"",""time"":683.1900000106543},{""stimulus"":""run_exp/static/images/task_images/dig.jpg"",""time"":1354.0400000056252}]",[],,,,,,,,,,,,,,,
harvest_prac,41,239339,0.0-15.0-1.0,,null,run_exp/static/images/task_images/barrel_text.jpg,null,,,,,,,,,,,,,,,,,,,,,,,
decision_prac,42,239720,0.0-15.0-2.0,,379.98,run_exp/static/images/task_images/land.jpg,65,,,,,,,,,,,1,,,,,,,,,,,,
quiz_instruc,43,246752,0.0-16.0-0.0,,7028.2,run_exp/static/audio/clip_10_quiz.m4a,,,,,,0,,,,,,,,,,,,,,,,,,
instruc_repeat,44,289513,0.0-16.0-1.0,,null,"<p> Are you ready to play a practice game? </p> <p>In this practice game, you'll be digging up barrels of gems. But, in the real game, you'll be digging up the gems themselves. </p>",null,"<p>In this game, your goal is to collect as many gems as you can. That’s how you will win bonus money. </p> <p>The entire game will last 20 minutes no matter how many gems you collect or how many planets you visit. </p><p>To stay on a planet and dig again, press the letter A on your keyboard. To leave for a new planet, press the letter L.</p><p>The more you dig on a planet, the fewer gems you’ll get with each dig which is why you might consider leaving for a new planet. </p><p>When you arrive at a new planet, you’ll be greeted by an alien. What the alien looks like does not tell you anything about how much treasure is on the planet. </p>",,,,,,,,,,,,,,,,,,,,,,
instruc_repeat_continue,45,291138,0.0-16.0-2.0,,1623.45,"<p> Are you ready to play a practice game? </p> <p>In this practice game, you'll be digging up barrels of gems. But, in the real game, you'll be digging up the gems themselves. </p>",,,,,,0,,,,,,,,,,,,,,,,,,
quiz_q_1_ask,46,296532,0.0-16.0-3.0,,5392.74,run_exp/static/audio/clip_11_q1_ask.m4a,,,,,,2,,,,,,,,,,,,,,,,,,
quiz_q_1_fb_correct,47,300372,0.0-17.0-0.0,,null,run_exp/static/audio/clip_12_q1_corrrect.m4a,null,<p>That’s correct. You win extra money by collecting more gems.</p>,,,,,,,,,,,,,,,,,,,,,,
quiz_q_2_ask,48,304172,0.0-17.0-1.0,,3797.585,run_exp/static/audio/clip_14_q2_ask.m4a,,,,,,1,,,,,,,,,,,,,,,,,,
quiz_q_2_fb_correct,49,308173,0.0-18.0-0.0,,null,run_exp/static/audio/clip_15_q2_correct.m4a,null,<p>That’s correct. The experiment is 20 minutes no matter what.</p>,,,,,,,,,,,,,,,,,,,,,,
quiz_q_3_ask,50,314698,0.0-18.0-1.0,,6522.935,run_exp/static/audio/clip_17_q3_ask.m4a,,,,,,1,,,,,,,,,,,,,,,,,,
quiz_q_3_fb_correct,51,318692,0.0-19.0-0.0,,null,run_exp/static/audio/clip_18_q3_correct.m4a,null,<p> That’s correct. You press the letter L to travel to a new planet.</p>,,,,,,,,,,,,,,,,,,,,,,
quiz_q_4_ask,52,324214,0.0-19.0-1.0,,5519.825,run_exp/static/audio/clip_20_q4_ask.m4a,,,,,,0,,,,,,,,,,,,,,,,,,
quiz_q_4_fb_correct,53,329552,0.0-20.0-0.0,,null,run_exp/static/audio/clip_21_q4_correct.m4a,null,<p> That’s correct. The more you dig on a planet the fewer gems you’ll get with each dig. </p>,,,,,,,,,,,,,,,,,,,,,,
quiz_q_5_ask,54,332643,0.0-20.0-1.0,,3088.225,run_exp/static/audio/clip_23_q5_ask.m4a,,,,,,0,,,,,,,,,,,,,,,,,,
quiz_q_5_fb_incorrect,55,338332,0.0-21.0-0.0,,null,run_exp/static/audio/clip_25_q5_incorrect.m4a,null,<p>That’s incorrect. The alien tells you nothing about how much treasure is on the planet.</p>,,,,,,,,,,,,,,,,,,,,,,
quiz_incorrect,56,343893,0.0-22.0-0.0,,null,run_exp/static/audio/clip_27_incorrect_quiz.m4a,null,,,,,,,,,,,,,,,,,,,,,,,
quiz_incorrect_continue,57,345130,0.0-22.0-1.0,,1235.29,"<p>Oops, you missed some questions.</p><p>Now that you’ve heard the correct answers. Try the quiz again!</p>",,,,,,0,,,,,,,,,,,,,,,,,,
quiz_q_1_ask,58,347166,0.0-22.0-2.0,,2034.93,run_exp/static/audio/clip_11_q1_ask.m4a,,,,,,2,,,,,,,,,,,,,,,,,,
quiz_q_1_fb_correct,59,351013,0.0-23.0-0.0,,null,run_exp/static/audio/clip_12_q1_corrrect.m4a,null,<p>That’s correct. You win extra money by collecting more gems.</p>,,,,,,,,,,,,,,,,,,,,,,
quiz_q_2_ask,60,352008,0.0-23.0-1.0,,993.615,run_exp/static/audio/clip_14_q2_ask.m4a,,,,,,1,,,,,,,,,,,,,,,,,,
quiz_q_2_fb_correct,61,356012,0.0-24.0-0.0,,null,run_exp/static/audio/clip_15_q2_correct.m4a,null,<p>That’s correct. The experiment is 20 minutes no matter what.</p>,,,,,,,,,,,,,,,,,,,,,,
quiz_q_3_ask,62,357749,0.0-24.0-1.0,,1734.535,run_exp/static/audio/clip_17_q3_ask.m4a,,,,,,1,,,,,,,,,,,,,,,,,,
quiz_q_3_fb_correct,63,361732,0.0-25.0-0.0,,null,run_exp/static/audio/clip_18_q3_correct.m4a,null,<p> That’s correct. You press the letter L to travel to a new planet.</p>,,,,,,,,,,,,,,,,,,,,,,
quiz_q_4_ask,64,363726,0.0-25.0-1.0,,1991.57,run_exp/static/audio/clip_20_q4_ask.m4a,,,,,,0,,,,,,,,,,,,,,,,,,
quiz_q_4_fb_correct,65,369052,0.0-26.0-0.0,,null,run_exp/static/audio/clip_21_q4_correct.m4a,null,<p> That’s correct. The more you dig on a planet the fewer gems you’ll get with each dig. </p>,,,,,,,,,,,,,,,,,,,,,,
quiz_q_5_ask,66,370108,0.0-26.0-1.0,,1053.605,run_exp/static/audio/clip_23_q5_ask.m4a,,,,,,1,,,,,,,,,,,,,,,,,,
quiz_q_5_fb_correct,67,375112,0.0-27.0-0.0,,null,run_exp/static/audio/clip_24_q5_correct.m4a,null,<p> That’s correct. The alien tells you nothing about how much treasure is on the planet.</p>,,,,,,,,,,,,,,,,,,,,,,
quiz_correct,68,378592,0.0-28.0-0.0,,null,run_exp/static/audio/clip_26_correct_quiz.m4a,null,,,,,,,,,,,,,,,,,,,,,,,
quiz_correct_continue,69,380232,0.0-28.0-1.0,,1638.275,<p>Good job! You're now ready to move on to the real game!</p>,,,,,,0,,,,,,,,,,,,,,,,,,
audio-keyboard-response,70,390352,0.0-28.0-2.0,,null,run_exp/static/audio/clip_28_real_game.m4a,null,,,,,,,,,,,,,,,,,,,,,,,
instruc_begin_exp_contine,71,391286,0.0-28.0-3.0,,931.34,"<p>Now that you know how  to dig for space treasure and travel to new planets,you can start exploring! </p><p>Do you want to go over the instructions again or get started with the real game?</p>",,,,,,1,,,,,,1,,,,,,,,,,,,
alien_welcome,72,396301,0.0-29.0-0.0,,null,run_exp/static/images/task_images/aliens/old_aliens/planet/alien_planet-47.jpg,null,,,,,,,,,,,,47,"47,14,28,65,27,72,38,6,22,24,62,29,48,20,39,11,37,50,56,79,75,17,31,41,68,5,46,18,60,55,71,34,66,58,10,3,26,69,2,32,54,4,67,33,30,64,44,59,23,45,49,25,12,74,19",,,,,,,,,,
land,73,396820,0.0-29.0-1.0,,null,run_exp/static/images/task_images/land.jpg,null,,,,,,96,,,1,,,,,,,,,,,,,,
dig,74,398830,0.0-29.0-2.0,,,,,,,,,,,"[{""stimulus"":""run_exp/static/images/task_images/dig.jpg"",""time"":0.31999999191612005},{""stimulus"":""run_exp/static/images/task_images/land.jpg"",""time"":689.055000024382},{""stimulus"":""run_exp/static/images/task_images/dig.jpg"",""time"":1338.8799999956973}]",[],1,,,,,,,,,,,,,,
harvest,75,399841,0.0-29.0-3.0,,null,run_exp/static/images/task_images/gems/96.jpg,null,,,,,,17,,,1,,,,,96,0.174531828,0.177083333,,,,,,,
decision,76,401760,0.0-29.0-4.0,,1916.895,run_exp/static/images/task_images/land.jpg,65,,,,,,17,,,1,,,,,,,,10474,1,0,FALSE,,,
dig,77,402851,0.0-30.0-0.0,,,,,,,,,,,"[{""stimulus"":""run_exp/static/images/task_images/dig.jpg"",""time"":0.2549999626353383},{""stimulus"":""run_exp/static/images/task_images/land.jpg"",""time"":375.54999999701977},{""stimulus"":""run_exp/static/images/task_images/dig.jpg"",""time"":735.1549999439158}]",[],1,,,,,,,,,,,,,,
harvest,78,403861,0.0-30.0-1.0,,null,run_exp/static/images/task_images/gems/17.jpg,null,,,,,,4,,,1,,,,,17,0.219452751,0.235294118,,,,,,,
decision,79,405021,0.0-30.0-2.0,,1157.925,run_exp/static/images/task_images/land.jpg,65,,,,,,4,,,1,,,,,,,,13734,1,1,FALSE,,,
dig,80,406871,0.0-31.0-0.0,,,,,,,,,,,"[{""stimulus"":""run_exp/static/images/task_images/dig.jpg"",""time"":0.13000000035390258},{""stimulus"":""run_exp/static/images/task_images/land.jpg"",""time"":616.9000000227243},{""stimulus"":""run_exp/static/images/task_images/dig.jpg"",""time"":1237.0649999938905}]",[],1,,,,,,,,,,,,,,
harvest,81,407886,0.0-31.0-1.0,,null,run_exp/static/images/task_images/gems/4.jpg,null,,,,,,1,,,1,,,,,4,0.139797933,0.25,,,,,,,
decision,82,408989,0.0-31.0-2.0,,1101.93,run_exp/static/images/task_images/land.jpg,76,,,,,,1,,,1,,,,,,,,17703,1,2,TRUE,,,
travel,83,417891,0.0-32.0-0.0,,,,,,,,,,,"[{""stimulus"":""run_exp/static/images/task_images/rocket-01.jpg"",""time"":0.14000001829117537},{""stimulus"":""run_exp/static/images/task_images/rocket-02.jpg"",""time"":1005.7150000357069},{""stimulus"":""run_exp/static/images/task_images/rocket-03.jpg"",""time"":1978.575000015553},{""stimulus"":""run_exp/static/images/task_images/rocket-04.jpg"",""time"":2978.5700000356883},{""stimulus"":""run_exp/static/images/task_images/rocket-05.jpg"",""time"":3968.7050000065938},{""stimulus"":""run_exp/static/images/task_images/rocket-06.jpg"",""time"":4958.745000010822},{""stimulus"":""run_exp/static/images/task_images/rocket-07.jpg"",""time"":5948.6650000326335},{""stimulus"":""run_exp/static/images/task_images/rocket-08.jpg"",""time"":6918.7000000383705},{""stimulus"":""run_exp/static/images/task_images/rocket-09.jpg"",""time"":7918.425000039861}]",[],1,,,,,,,,,,,,,,
alien_welcome,84,422911,0.0-32.0-1.0,,null,run_exp/static/images/task_images/aliens/old_aliens/planet/alien_planet-14.jpg,null,,,,,,,,,,,,14,"47,14,28,65,27,72,38,6,22,24,62,29,48,20,39,11,37,50,56,79,75,17,31,41,68,5,46,18,60,55,71,34,66,58,10,3,26,69,2,32,54,4,67,33,30,64,44,59,23,45,49,25,12,74,19",,,,,,,,,,
land,85,423430,0.0-32.0-2.0,,null,run_exp/static/images/task_images/land.jpg,null,,,,,,101,,,2,,,,,,,,,,,,,,
dig,86,425441,0.0-32.0-3.0,,,,,,,,,,,"[{""stimulus"":""run_exp/static/images/task_images/dig.jpg"",""time"":0.29500003438442945},{""stimulus"":""run_exp/static/images/task_images/land.jpg"",""time"":668.7549999915063},{""stimulus"":""run_exp/static/images/task_images/dig.jpg"",""time"":1348.5450000152923}]",[],2,,,,,,,,,,,,,,
harvest,87,426461,0.0-32.0-4.0,,null,run_exp/static/images/task_images/gems/101.jpg,null,,,,,,20,,,2,,,,,101,0.200328595,0.198019802,,,,,,,
decision,88,426727,0.0-32.0-5.0,,264.645,run_exp/static/images/task_images/land.jpg,65,,,,,,20,,,2,,,,,,,,35442,1,0,FALSE,,,
dig,89,429470,0.0-33.0-0.0,,,,,,,,,,,"[{""stimulus"":""run_exp/static/images/task_images/dig.jpg"",""time"":0.19999995129182935},{""stimulus"":""run_exp/static/images/task_images/land.jpg"",""time"":928.4349999506958},{""stimulus"":""run_exp/static/images/task_images/dig.jpg"",""time"":1828.739999968093}]",[],2,,,,,,,,,,,,,,
harvest,90,430491,0.0-33.0-1.0,,null,run_exp/static/images/task_images/gems/20.jpg,null,,,,,,3,,,2,,,,,20,0.173394252,0.15,,,,,,,
decision,91,430801,0.0-33.0-2.0,,308.33,run_exp/static/images/task_images/land.jpg,65,,,,,,3,,,2,,,,,,,,39514,1,1,FALSE,,,
dig,92,433511,0.0-34.0-0.0,,,,,,,,,,,"[{""stimulus"":""run_exp/static/images/task_images/dig.jpg"",""time"":0.16500003403052688},{""stimulus"":""run_exp/static/images/task_images/land.jpg"",""time"":914.8950000526384},{""stimulus"":""run_exp/static/images/task_images/dig.jpg"",""time"":1814.5900000235997}]",[],2,,,,,,,,,,,,,,
harvest,93,434521,0.0-34.0-1.0,,null,run_exp/static/images/task_images/gems/3.jpg,null,,,,,,0,,,2,,,,,3,0.156745776,0,,,,,,,
decision,94,435480,0.0-34.0-2.0,,957.655,run_exp/static/images/task_images/land.jpg,76,,,,,,0,,,2,,,,,,,,44193,1,2,TRUE,,,
travel,95,444540,0.0-35.0-0.0,,,,,,,,,,,"[{""stimulus"":""run_exp/static/images/task_images/rocket-01.jpg"",""time"":0.1550000160932541},{""stimulus"":""run_exp/static/images/task_images/rocket-02.jpg"",""time"":1008.6299999966286},{""stimulus"":""run_exp/static/images/task_images/rocket-03.jpg"",""time"":2028.5000000149012},{""stimulus"":""run_exp/static/images/task_images/rocket-04.jpg"",""time"":3018.2800000184216},{""stimulus"":""run_exp/static/images/task_images/rocket-05.jpg"",""time"":4028.2400000141934},{""stimulus"":""run_exp/static/images/task_images/rocket-06.jpg"",""time"":5027.865000010934},{""stimulus"":""run_exp/static/images/task_images/rocket-07.jpg"",""time"":6038.219999987632},{""stimulus"":""run_exp/static/images/task_images/rocket-08.jpg"",""time"":7047.770000004675},{""stimulus"":""run_exp/static/images/task_images/rocket-09.jpg"",""time"":8038.064999971539}]",[],2,,,,,,,,,,,,,,
alien_welcome,96,449550,0.0-35.0-1.0,,null,run_exp/static/images/task_images/aliens/old_aliens/planet/alien_planet-28.jpg,null,,,,,,,,,,,,28,"47,14,28,65,27,72,38,6,22,24,62,29,48,20,39,11,37,50,56,79,75,17,31,41,68,5,46,18,60,55,71,34,66,58,10,3,26,69,2,32,54,4,67,33,30,64,44,59,23,45,49,25,12,74,19",,,,,,,,,,
land,97,450056,0.0-35.0-2.0,,null,run_exp/static/images/task_images/land.jpg,null,,,,,,105,,,3,,,,,,,,,,,,,,
dig,98,452070,0.0-35.0-3.0,,,,,,,,,,,"[{""stimulus"":""run_exp/static/images/task_images/dig.jpg"",""time"":0.24500000290572643},{""stimulus"":""run_exp/static/images/task_images/land.jpg"",""time"":684.2150000156835},{""stimulus"":""run_exp/static/images/task_images/dig.jpg"",""time"":1342.6450000260957}]",[],3,,,,,,,,,,,,,,
harvest,99,453081,0.0-35.0-4.0,,null,run_exp/static/images/task_images/gems/105.jpg,null,,,,,,53,,,3,,,,,105,0.503128626,0.504761905,,,,,,,
decision,100,453512,0.0-35.0-5.0,,428.675,run_exp/static/images/task_images/land.jpg,65,,,,,,53,,,3,,,,,,,,62225,1,0,FALSE,,,
dig,101,456091,0.0-36.0-0.0,,,,,,,,,,,"[{""stimulus"":""run_exp/static/images/task_images/dig.jpg"",""time"":0.13000000035390258},{""stimulus"":""run_exp/static/images/task_images/land.jpg"",""time"":876.1149999918416},{""stimulus"":""run_exp/static/images/task_images/dig.jpg"",""time"":1716.3350000046194}]",[],3,,,,,,,,,,,,,,
harvest,102,457111,0.0-36.0-1.0,,null,run_exp/static/images/task_images/gems/53.jpg,null,,,,,,28,,,3,,,,,53,0.531917738,0.528301887,,,,,,,
decision,103,457360,0.0-36.0-2.0,,247.98,run_exp/static/images/task_images/land.jpg,65,,,,,,28,,,3,,,,,,,,66074,1,1,FALSE,,,
dig,104,460121,0.0-37.0-0.0,,,,,,,,,,,"[{""stimulus"":""run_exp/static/images/task_images/dig.jpg"",""time"":0.3150000120513141},{""stimulus"":""run_exp/static/images/task_images/land.jpg"",""time"":934.354999975767},{""stimulus"":""run_exp/static/images/task_images/dig.jpg"",""time"":1854.6499999938533}]",[],3,,,,,,,,,,,,,,
harvest,105,461131,0.0-37.0-1.0,,null,run_exp/static/images/task_images/gems/28.jpg,null,,,,,,14,,,3,,,,,28,0.509668484,0.5,,,,,,,
decision,106,461143,0.0-37.0-2.0,,10.10499999,run_exp/static/images/task_images/land.jpg,76,,,,,,14,,,3,,,,,,,,69856,1,2,TRUE,,,
travel,107,471140,0.0-38.0-0.0,,,,,,,,,,,"[{""stimulus"":""run_exp/static/images/task_images/rocket-01.jpg"",""time"":0.1800000318326056},{""stimulus"":""run_exp/static/images/task_images/rocket-02.jpg"",""time"":1125.705000013113},{""stimulus"":""run_exp/static/images/task_images/rocket-03.jpg"",""time"":2225.299999990966},{""stimulus"":""run_exp/static/images/task_images/rocket-04.jpg"",""time"":3330.850000027567},{""stimulus"":""run_exp/static/images/task_images/rocket-05.jpg"",""time"":4455.11500001885},{""stimulus"":""run_exp/static/images/task_images/rocket-06.jpg"",""time"":5554.64500002563},{""stimulus"":""run_exp/static/images/task_images/rocket-07.jpg"",""time"":6665.350000024773},{""stimulus"":""run_exp/static/images/task_images/rocket-08.jpg"",""time"":7765.305000008084},{""stimulus"":""run_exp/static/images/task_images/rocket-09.jpg"",""time"":8885.630000033416}]",[],3,,,,,,,,,,,,,,
alien_welcome,108,476151,0.0-38.0-1.0,,null,run_exp/static/images/task_images/aliens/old_aliens/planet/alien_planet-65.jpg,null,,,,,,,,,,,,65,"47,14,28,65,27,72,38,6,22,24,62,29,48,20,39,11,37,50,56,79,75,17,31,41,68,5,46,18,60,55,71,34,66,58,10,3,26,69,2,32,54,4,67,33,30,64,44,59,23,45,49,25,12,74,19",,,,,,,,,,
land,109,476656,0.0-38.0-2.0,,null,run_exp/static/images/task_images/land.jpg,null,,,,,,103,,,4,,,,,,,,,,,,,,
dig,110,478671,0.0-38.0-3.0,,,,,,,,,,,"[{""stimulus"":""run_exp/static/images/task_images/dig.jpg"",""time"":0.24500000290572643},{""stimulus"":""run_exp/static/images/task_images/land.jpg"",""time"":683.3950000000186},{""stimulus"":""run_exp/static/images/task_images/dig.jpg"",""time"":1341.9149999972433}]",[],4,,,,,,,,,,,,,,
harvest,111,479690,0.0-38.0-4.0,,null,run_exp/static/images/task_images/gems/103.jpg,null,,,,,,50,,,4,,,,,103,0.484717659,0.485436893,,,,,,,
decision,112,480493,0.0-38.0-5.0,,801.21,run_exp/static/images/task_images/land.jpg,65,,,,,,50,,,4,,,,,,,,89206,1,0,FALSE,,,
dig,113,482698,0.0-39.0-0.0,,,,,,,,,,,"[{""stimulus"":""run_exp/static/images/task_images/dig.jpg"",""time"":0.3100000321865082},{""stimulus"":""run_exp/static/images/task_images/land.jpg"",""time"":734.3899999978021},{""stimulus"":""run_exp/static/images/task_images/dig.jpg"",""time"":1484.2700000153854}]",[],4,,,,,,,,,,,,,,
harvest,114,483716,0.0-39.0-1.0,,null,run_exp/static/images/task_images/gems/50.jpg,null,,,,,,27,,,4,,,,,50,0.542281369,0.54,,,,,,,
decision,115,484292,0.0-39.0-2.0,,574.34,run_exp/static/images/task_images/land.jpg,65,,,,,,27,,,4,,,,,,,,93005,1,1,FALSE,,,
dig,116,486740,0.0-40.0-0.0,,,,,,,,,,,"[{""stimulus"":""run_exp/static/images/task_images/dig.jpg"",""time"":0.2400000230409205},{""stimulus"":""run_exp/static/images/task_images/land.jpg"",""time"":814.6750000305474},{""stimulus"":""run_exp/static/images/task_images/dig.jpg"",""time"":1634.4600000302307}]",[],4,,,,,,,,,,,,,,
harvest,117,487761,0.0-40.0-1.0,,null,run_exp/static/images/task_images/gems/27.jpg,null,,,,,,13,,,4,,,,,27,0.471547568,0.481481481,,,,,,,
decision,118,488674,0.0-40.0-2.0,,910.97,run_exp/static/images/task_images/land.jpg,76,,,,,,13,,,4,,,,,,,,97387,1,2,TRUE,,,
travel,119,497780,0.0-41.0-0.0,,,,,,,,,,,"[{""stimulus"":""run_exp/static/images/task_images/rocket-01.jpg"",""time"":0.2400000230409205},{""stimulus"":""run_exp/static/images/task_images/rocket-02.jpg"",""time"":1011.1850000103004},{""stimulus"":""run_exp/static/images/task_images/rocket-03.jpg"",""time"":2021.424999984447},{""stimulus"":""run_exp/static/images/task_images/rocket-04.jpg"",""time"":3041.139999986626},{""stimulus"":""run_exp/static/images/task_images/rocket-05.jpg"",""time"":4040.800000017043},{""stimulus"":""run_exp/static/images/task_images/rocket-06.jpg"",""time"":5051.5899999882095},{""stimulus"":""run_exp/static/images/task_images/rocket-07.jpg"",""time"":6061.864999996033},{""stimulus"":""run_exp/static/images/task_images/rocket-08.jpg"",""time"":7070.959999982733},{""stimulus"":""run_exp/static/images/task_images/rocket-09.jpg"",""time"":8080.965000030119}]",[],4,,,,,,,,,,,,,,
alien_welcome,120,502790,0.0-41.0-1.0,,null,run_exp/static/images/task_images/aliens/old_aliens/planet/alien_planet-27.jpg,null,,,,,,,,,,,,27,"47,14,28,65,27,72,38,6,22,24,62,29,48,20,39,11,37,50,56,79,75,17,31,41,68,5,46,18,60,55,71,34,66,58,10,3,26,69,2,32,54,4,67,33,30,64,44,59,23,45,49,25,12,74,19",,,,,,,,,,
land,121,503310,0.0-41.0-2.0,,null,run_exp/static/images/task_images/land.jpg,null,,,,,,113,,,5,,,,,,,,,,,,,,
dig,122,505320,0.0-41.0-3.0,,,,,,,,,,,"[{""stimulus"":""run_exp/static/images/task_images/dig.jpg"",""time"":0.3600000054575503},{""stimulus"":""run_exp/static/images/task_images/land.jpg"",""time"":677.7899999869987},{""stimulus"":""run_exp/static/images/task_images/dig.jpg"",""time"":1338.0299999844283}]",[],5,,,,,,,,,,,,,,
harvest,123,506341,0.0-41.0-4.0,,null,run_exp/static/images/task_images/gems/113.jpg,null,,,,,,54,,,5,,,,,113,0.478123594,0.477876106,,,,,,,
decision,124,507034,0.0-41.0-5.0,,691.95,run_exp/static/images/task_images/land.jpg,65,,,,,,54,,,5,,,,,,,,115747,1,0,FALSE,,,
dig,125,509350,0.0-42.0-0.0,,,,,,,,,,,"[{""stimulus"":""run_exp/static/images/task_images/dig.jpg"",""time"":0.23499998496845365},{""stimulus"":""run_exp/static/images/task_images/land.jpg"",""time"":771.3799999910407},{""stimulus"":""run_exp/static/images/task_images/dig.jpg"",""time"":1552.5149999884889}]",[],5,,,,,,,,,,,,,,
harvest,126,510370,0.0-42.0-1.0,,null,run_exp/static/images/task_images/gems/54.jpg,null,,,,,,23,,,5,,,,,54,0.429772943,0.425925926,,,,,,,
decision,127,511058,0.0-42.0-2.0,,686.195,run_exp/static/images/task_images/land.jpg,65,,,,,,23,,,5,,,,,,,,119771,1,1,FALSE,,,
dig,128,513380,0.0-43.0-0.0,,,,,,,,,,,"[{""stimulus"":""run_exp/static/images/task_images/dig.jpg"",""time"":0.15499995788559318},{""stimulus"":""run_exp/static/images/task_images/land.jpg"",""time"":783.9449999737553},{""stimulus"":""run_exp/static/images/task_images/dig.jpg"",""time"":1549.6249999850988}]",[],5,,,,,,,,,,,,,,
harvest,129,514400,0.0-43.0-1.0,,null,run_exp/static/images/task_images/gems/23.jpg,null,,,,,,10,,,5,,,,,23,0.415167179,0.434782609,,,,,,,
decision,130,515539,0.0-43.0-2.0,,1137.615,run_exp/static/images/task_images/land.jpg,65,,,,,,10,,,5,,,,,,,,124252,1,2,FALSE,,,
dig,131,517410,0.0-44.0-0.0,,,,,,,,,,,"[{""stimulus"":""run_exp/static/images/task_images/dig.jpg"",""time"":0.26000000070780516},{""stimulus"":""run_exp/static/images/task_images/land.jpg"",""time"":636.2249999656342},{""stimulus"":""run_exp/static/images/task_images/dig.jpg"",""time"":1245.824999990873}]",[],5,,,,,,,,,,,,,,
harvest,132,518430,0.0-44.0-1.0,,null,run_exp/static/images/task_images/gems/10.jpg,null,,,,,,6,,,5,,,,,10,0.575737146,0.6,,,,,,,
decision,133,518836,0.0-44.0-2.0,,404.485,run_exp/static/images/task_images/land.jpg,76,,,,,,6,,,5,,,,,,,,127549,1,3,TRUE,,,
travel,134,528450,0.0-45.0-0.0,,,,,,,,,,,"[{""stimulus"":""run_exp/static/images/task_images/rocket-01.jpg"",""time"":0.17499999376013875},{""stimulus"":""run_exp/static/images/task_images/rocket-02.jpg"",""time"":1070.2049999963492},{""stimulus"":""run_exp/static/images/task_images/rocket-03.jpg"",""time"":2150.0450000166893},{""stimulus"":""run_exp/static/images/task_images/rocket-04.jpg"",""time"":3198.964999988675},{""stimulus"":""run_exp/static/images/task_images/rocket-05.jpg"",""time"":4279.849999991711},{""stimulus"":""run_exp/static/images/task_images/rocket-06.jpg"",""time"":5338.975000020582},{""stimulus"":""run_exp/static/images/task_images/rocket-07.jpg"",""time"":6404.615000006743},{""stimulus"":""run_exp/static/images/task_images/rocket-08.jpg"",""time"":7469.595000031404},{""stimulus"":""run_exp/static/images/task_images/rocket-09.jpg"",""time"":8539.19500001939}]",[],5,,,,,,,,,,,,,,
alien_welcome,135,533470,0.0-45.0-1.0,,null,run_exp/static/images/task_images/aliens/old_aliens/planet/alien_planet-72.jpg,null,,,,,,,,,,,,72,"47,14,28,65,27,72,38,6,22,24,62,29,48,20,39,11,37,50,56,79,75,17,31,41,68,5,46,18,60,55,71,34,66,58,10,3,26,69,2,32,54,4,67,33,30,64,44,59,23,45,49,25,12,74,19",,,,,,,,,,
land,136,533990,0.0-45.0-2.0,,null,run_exp/static/images/task_images/land.jpg,null,,,,,,93,,,6,,,,,,,,,,,,,,
dig,137,536000,0.0-45.0-3.0,,,,,,,,,,,"[{""stimulus"":""run_exp/static/images/task_images/dig.jpg"",""time"":0.20000000949949026},{""stimulus"":""run_exp/static/images/task_images/land.jpg"",""time"":679.3850000249222},{""stimulus"":""run_exp/static/images/task_images/dig.jpg"",""time"":1359.1899999883026}]",[],6,,,,,,,,,,,,,,
harvest,138,537020,0.0-45.0-4.0,,null,run_exp/static/images/task_images/gems/93.jpg,null,,,,,,74,,,6,,,,,93,0.799665832,0.795698925,,,,,,,
decision,139,537122,0.0-45.0-5.0,,100.425,run_exp/static/images/task_images/land.jpg,65,,,,,,74,,,6,,,,,,,,145835,1,0,FALSE,,,
dig,140,540040,0.0-46.0-0.0,,,,,,,,,,,"[{""stimulus"":""run_exp/static/images/task_images/dig.jpg"",""time"":0.2400000230409205},{""stimulus"":""run_exp/static/images/task_images/land.jpg"",""time"":972.9050000314601},{""stimulus"":""run_exp/static/images/task_images/dig.jpg"",""time"":1952.7750000124797}]",[],6,,,,,,,,,,,,,,
harvest,141,541060,0.0-46.0-1.0,,null,run_exp/static/images/task_images/gems/74.jpg,null,,,,,,61,,,6,,,,,74,0.830540565,0.824324324,,,,,,,
decision,142,541307,0.0-46.0-2.0,,244.785,run_exp/static/images/task_images/land.jpg,65,,,,,,61,,,6,,,,,,,,150020,1,1,FALSE,,,
dig,143,544066,0.0-47.0-0.0,,,,,,,,,,,"[{""stimulus"":""run_exp/static/images/task_images/dig.jpg"",""time"":0.1699999556876719},{""stimulus"":""run_exp/static/images/task_images/land.jpg"",""time"":929.3649999890476},{""stimulus"":""run_exp/static/images/task_images/dig.jpg"",""time"":1849.2149999947287}]",[],6,,,,,,,,,,,,,,
harvest,144,545090,0.0-47.0-1.0,,null,run_exp/static/images/task_images/gems/61.jpg,null,,,,,,52,,,6,,,,,61,0.844803341,0.852459016,,,,,,,
decision,145,545561,0.0-47.0-2.0,,469.445,run_exp/static/images/task_images/land.jpg,65,,,,,,52,,,6,,,,,,,,154274,1,2,FALSE,,,
dig,146,548110,0.0-48.0-0.0,,,,,,,,,,,"[{""stimulus"":""run_exp/static/images/task_images/dig.jpg"",""time"":0.23500004317611456},{""stimulus"":""run_exp/static/images/task_images/land.jpg"",""time"":853.7750000250526},{""stimulus"":""run_exp/static/images/task_images/dig.jpg"",""time"":1701.5050000045449}]",[],6,,,,,,,,,,,,,,
harvest,147,549130,0.0-48.0-1.0,,null,run_exp/static/images/task_images/gems/52.jpg,null,,,,,,37,,,6,,,,,52,0.70265348,0.711538462,,,,,,,
decision,148,549498,0.0-48.0-2.0,,366.825,run_exp/static/images/task_images/land.jpg,65,,,,,,37,,,6,,,,,,,,158211,1,3,FALSE,,,
dig,149,552140,0.0-49.0-0.0,,,,,,,,,,,"[{""stimulus"":""run_exp/static/images/task_images/dig.jpg"",""time"":0.21500000730156898},{""stimulus"":""run_exp/static/images/task_images/land.jpg"",""time"":888.3149999892339},{""stimulus"":""run_exp/static/images/task_images/dig.jpg"",""time"":1767.7249999833293}]",[],6,,,,,,,,,,,,,,
harvest,150,553150,0.0-49.0-1.0,,null,run_exp/static/images/task_images/gems/37.jpg,null,,,,,,31,,,6,,,,,37,0.833354219,0.837837838,,,,,,,
decision,151,553453,0.0-49.0-2.0,,301.675,run_exp/static/images/task_images/land.jpg,76,,,,,,31,,,6,,,,,,,,162166,1,4,TRUE,,,
travel,152,563160,0.0-50.0-0.0,,,,,,,,,,,"[{""stimulus"":""run_exp/static/images/task_images/rocket-01.jpg"",""time"":0.13500003842636943},{""stimulus"":""run_exp/static/images/task_images/rocket-02.jpg"",""time"":1094.6050000493415},{""stimulus"":""run_exp/static/images/task_images/rocket-03.jpg"",""time"":2175.1550000044517},{""stimulus"":""run_exp/static/images/task_images/rocket-04.jpg"",""time"":3234.9249999970198},{""stimulus"":""run_exp/static/images/task_images/rocket-05.jpg"",""time"":4315.155000018422},{""stimulus"":""run_exp/static/images/task_images/rocket-06.jpg"",""time"":5404.485000006389},{""stimulus"":""run_exp/static/images/task_images/rocket-07.jpg"",""time"":6474.655000027269},{""stimulus"":""run_exp/static/images/task_images/rocket-08.jpg"",""time"":7544.435000047088},{""stimulus"":""run_exp/static/images/task_images/rocket-09.jpg"",""time"":8633.410000009462}]",[],6,,,,,,,,,,,,,,
alien_welcome,153,568170,0.0-50.0-1.0,,null,run_exp/static/images/task_images/aliens/old_aliens/planet/alien_planet-38.jpg,null,,,,,,,,,,,,38,"47,14,28,65,27,72,38,6,22,24,62,29,48,20,39,11,37,50,56,79,75,17,31,41,68,5,46,18,60,55,71,34,66,58,10,3,26,69,2,32,54,4,67,33,30,64,44,59,23,45,49,25,12,74,19",,,,,,,,,,
land,154,568690,0.0-50.0-2.0,,null,run_exp/static/images/task_images/land.jpg,null,,,,,,100,,,7,,,,,,,,,,,,,,
dig,155,570700,0.0-50.0-3.0,,,,,,,,,,,"[{""stimulus"":""run_exp/static/images/task_images/dig.jpg"",""time"":0.33000000985339284},{""stimulus"":""run_exp/static/images/task_images/land.jpg"",""time"":678.6250000004657},{""stimulus"":""run_exp/static/images/task_images/dig.jpg"",""time"":1348.3100000303239}]",[],7,,,,,,,,,,,,,,
harvest,156,571711,0.0-50.0-4.0,,null,run_exp/static/images/task_images/gems/100.jpg,null,,,,,,80,,,7,,,,,100,0.800044329,0.8,,,,,,,
decision,157,572076,0.0-50.0-5.0,,363.22,run_exp/static/images/task_images/land.jpg,65,,,,,,80,,,7,,,,,,,,180789,1,0,FALSE,,,
dig,158,574730,0.0-51.0-0.0,,,,,,,,,,,"[{""stimulus"":""run_exp/static/images/task_images/dig.jpg"",""time"":0.1800000318326056},{""stimulus"":""run_exp/static/images/task_images/land.jpg"",""time"":891.5450000204146},{""stimulus"":""run_exp/static/images/task_images/dig.jpg"",""time"":1762.0250000036322}]",[],7,,,,,,,,,,,,,,
harvest,159,575740,0.0-51.0-1.0,,null,run_exp/static/images/task_images/gems/80.jpg,null,,,,,,65,,,7,,,,,80,0.818174413,0.8125,,,,,,,
decision,160,576015,0.0-51.0-2.0,,273.19,run_exp/static/images/task_images/land.jpg,65,,,,,,65,,,7,,,,,,,,184728,1,1,FALSE,,,
dig,161,578760,0.0-52.0-0.0,,,,,,,,,,,"[{""stimulus"":""run_exp/static/images/task_images/dig.jpg"",""time"":0.13000000035390258},{""stimulus"":""run_exp/static/images/task_images/land.jpg"",""time"":910.2900000289083},{""stimulus"":""run_exp/static/images/task_images/dig.jpg"",""time"":1820.8900000317954}]",[],7,,,,,,,,,,,,,,
harvest,162,579771,0.0-52.0-1.0,,null,run_exp/static/images/task_images/gems/65.jpg,null,,,,,,51,,,7,,,,,65,0.789023306,0.784615385,,,,,,,
decision,163,580127,0.0-52.0-2.0,,355.005,run_exp/static/images/task_images/land.jpg,65,,,,,,51,,,7,,,,,,,,188840,1,2,FALSE,,,
dig,164,582790,0.0-53.0-0.0,,,,,,,,,,,"[{""stimulus"":""run_exp/static/images/task_images/dig.jpg"",""time"":0.21500000730156898},{""stimulus"":""run_exp/static/images/task_images/land.jpg"",""time"":895.7850000006147},{""stimulus"":""run_exp/static/images/task_images/dig.jpg"",""time"":1765.735000022687}]",[],7,,,,,,,,,,,,,,
harvest,165,583810,0.0-53.0-1.0,,null,run_exp/static/images/task_images/gems/51.jpg,null,,,,,,43,,,7,,,,,51,0.835384039,0.843137255,,,,,,,
decision,166,584799,0.0-53.0-2.0,,987.975,run_exp/static/images/task_images/land.jpg,76,,,,,,43,,,7,,,,,,,,193513,1,3,TRUE,,,
travel,167,593830,0.0-54.0-0.0,,,,,,,,,,,"[{""stimulus"":""run_exp/static/images/task_images/rocket-01.jpg"",""time"":0.13499998021870852},{""stimulus"":""run_exp/static/images/task_images/rocket-02.jpg"",""time"":1012.9999999771826},{""stimulus"":""run_exp/static/images/task_images/rocket-03.jpg"",""time"":2017.4300000071526},{""stimulus"":""run_exp/static/images/task_images/rocket-04.jpg"",""time"":3018.2349999668077},{""stimulus"":""run_exp/static/images/task_images/rocket-05.jpg"",""time"":4017.4499999848194},{""stimulus"":""run_exp/static/images/task_images/rocket-06.jpg"",""time"":5007.4599999934435},{""stimulus"":""run_exp/static/images/task_images/rocket-07.jpg"",""time"":6008.224999997765},{""stimulus"":""run_exp/static/images/task_images/rocket-08.jpg"",""time"":7008.639999956358},{""stimulus"":""run_exp/static/images/task_images/rocket-09.jpg"",""time"":8018.569999956526}]",[],7,,,,,,,,,,,,,,
alien_welcome,168,598849,0.0-54.0-1.0,,null,run_exp/static/images/task_images/aliens/old_aliens/planet/alien_planet-6.jpg,null,,,,,,,,,,,,6,"47,14,28,65,27,72,38,6,22,24,62,29,48,20,39,11,37,50,56,79,75,17,31,41,68,5,46,18,60,55,71,34,66,58,10,3,26,69,2,32,54,4,67,33,30,64,44,59,23,45,49,25,12,74,19",,,,,,,,,,
land,169,599370,0.0-54.0-2.0,,null,run_exp/static/images/task_images/land.jpg,null,,,,,,90,,,8,,,,,,,,,,,,,,
dig,170,601380,0.0-54.0-3.0,,,,,,,,,,,"[{""stimulus"":""run_exp/static/images/task_images/dig.jpg"",""time"":0.3349999897181988},{""stimulus"":""run_exp/static/images/task_images/land.jpg"",""time"":677.689999982249},{""stimulus"":""run_exp/static/images/task_images/dig.jpg"",""time"":1337.954999995418}]",[],8,,,,,,,,,,,,,,
harvest,171,602390,0.0-54.0-4.0,,null,run_exp/static/images/task_images/gems/90.jpg,null,,,,,,73,,,8,,,,,90,0.813300893,0.811111111,,,,,,,
decision,172,603209,0.0-54.0-5.0,,816.195,run_exp/static/images/task_images/land.jpg,65,,,,,,73,,,8,,,,,,,,211922,1,0,FALSE,,,
dig,173,605410,0.0-55.0-0.0,,,,,,,,,,,"[{""stimulus"":""run_exp/static/images/task_images/dig.jpg"",""time"":0.21499994909390807},{""stimulus"":""run_exp/static/images/task_images/land.jpg"",""time"":737.2499999473803},{""stimulus"":""run_exp/static/images/task_images/dig.jpg"",""time"":1467.229999951087}]",[],8,,,,,,,,,,,,,,
harvest,174,606420,0.0-55.0-1.0,,null,run_exp/static/images/task_images/gems/73.jpg,null,,,,,,58,,,8,,,,,73,0.788826193,0.794520548,,,,,,,
decision,175,607377,0.0-55.0-2.0,,954.91,run_exp/static/images/task_images/land.jpg,65,,,,,,58,,,8,,,,,,,,216090,1,1,FALSE,,,
dig,176,609430,0.0-56.0-0.0,,,,,,,,,,,"[{""stimulus"":""run_exp/static/images/task_images/dig.jpg"",""time"":0.21999998716637492},{""stimulus"":""run_exp/static/images/task_images/land.jpg"",""time"":688.8299999991432},{""stimulus"":""run_exp/static/images/task_images/dig.jpg"",""time"":1368.6699999962002}]",[],8,,,,,,,,,,,,,,
harvest,177,610450,0.0-56.0-1.0,,null,run_exp/static/images/task_images/gems/58.jpg,null,,,,,,40,,,8,,,,,58,0.683274238,0.689655172,,,,,,,
decision,178,611738,0.0-56.0-2.0,,1286.345,run_exp/static/images/task_images/land.jpg,76,,,,,,40,,,8,,,,,,,,220451,1,2,TRUE,,,
travel,179,620470,0.0-57.0-0.0,,,,,,,,,,,"[{""stimulus"":""run_exp/static/images/task_images/rocket-01.jpg"",""time"":0.24999998277053237},{""stimulus"":""run_exp/static/images/task_images/rocket-02.jpg"",""time"":979.2199999792501},{""stimulus"":""run_exp/static/images/task_images/rocket-03.jpg"",""time"":1938.994999974966},{""stimulus"":""run_exp/static/images/task_images/rocket-04.jpg"",""time"":2923.305000003893},{""stimulus"":""run_exp/static/images/task_images/rocket-05.jpg"",""time"":3889.054999977816},{""stimulus"":""run_exp/static/images/task_images/rocket-06.jpg"",""time"":4858.699999982491},{""stimulus"":""run_exp/static/images/task_images/rocket-07.jpg"",""time"":5828.095000004396},{""stimulus"":""run_exp/static/images/task_images/rocket-08.jpg"",""time"":6788.439999974798},{""stimulus"":""run_exp/static/images/task_images/rocket-09.jpg"",""time"":7758.399999991525}]",[],8,,,,,,,,,,,,,,
alien_welcome,180,625490,0.0-57.0-1.0,,null,run_exp/static/images/task_images/aliens/old_aliens/planet/alien_planet-22.jpg,null,,,,,,,,,,,,22,"47,14,28,65,27,72,38,6,22,24,62,29,48,20,39,11,37,50,56,79,75,17,31,41,68,5,46,18,60,55,71,34,66,58,10,3,26,69,2,32,54,4,67,33,30,64,44,59,23,45,49,25,12,74,19",,,,,,,,,,
land,181,626010,0.0-57.0-2.0,,null,run_exp/static/images/task_images/land.jpg,null,,,,,,101,,,9,,,,,,,,,,,,,,
dig,182,628030,0.0-57.0-3.0,,,,,,,,,,,"[{""stimulus"":""run_exp/static/images/task_images/dig.jpg"",""time"":0.34500000765547156},{""stimulus"":""run_exp/static/images/task_images/land.jpg"",""time"":676.5799999702722},{""stimulus"":""run_exp/static/images/task_images/dig.jpg"",""time"":1347.8049999685027}]",[],9,,,,,,,,,,,,,,
harvest,183,629040,0.0-57.0-4.0,,null,run_exp/static/images/task_images/gems/101.jpg,null,,,,,,15,,,9,,,,,101,0.149904425,0.148514851,,,,,,,
decision,184,629423,0.0-57.0-5.0,,380.52,run_exp/static/images/task_images/land.jpg,65,,,,,,15,,,9,,,,,,,,238136,1,0,FALSE,,,
dig,185,632050,0.0-58.0-0.0,,,,,,,,,,,"[{""stimulus"":""run_exp/static/images/task_images/dig.jpg"",""time"":0.29499997617676854},{""stimulus"":""run_exp/static/images/task_images/land.jpg"",""time"":892.374999995809},{""stimulus"":""run_exp/static/images/task_images/dig.jpg"",""time"":1752.669999958016}]",[],9,,,,,,,,,,,,,,
harvest,186,633070,0.0-58.0-1.0,,null,run_exp/static/images/task_images/gems/15.jpg,null,,,,,,4,,,9,,,,,15,0.236812486,0.266666667,,,,,,,
decision,187,633750,0.0-58.0-2.0,,679.135,run_exp/static/images/task_images/land.jpg,76,,,,,,4,,,9,,,,,,,,242463,1,1,TRUE,,,
travel,188,643090,0.0-59.0-0.0,,,,,,,,,,,"[{""stimulus"":""run_exp/static/images/task_images/rocket-01.jpg"",""time"":0.12499996228143573},{""stimulus"":""run_exp/static/images/task_images/rocket-02.jpg"",""time"":1055.5149999563582},{""stimulus"":""run_exp/static/images/task_images/rocket-03.jpg"",""time"":2085.404999961611},{""stimulus"":""run_exp/static/images/task_images/rocket-04.jpg"",""time"":3115.7299999613315},{""stimulus"":""run_exp/static/images/task_images/rocket-05.jpg"",""time"":4155.129999970086},{""stimulus"":""run_exp/static/images/task_images/rocket-06.jpg"",""time"":5184.979999961797},{""stimulus"":""run_exp/static/images/task_images/rocket-07.jpg"",""time"":6225.6999999517575},{""stimulus"":""run_exp/static/images/task_images/rocket-08.jpg"",""time"":7255.024999962188},{""stimulus"":""run_exp/static/images/task_images/rocket-09.jpg"",""time"":8285.01499997219}]",[],9,,,,,,,,,,,,,,
alien_welcome,189,648110,0.0-59.0-1.0,,null,run_exp/static/images/task_images/aliens/old_aliens/planet/alien_planet-24.jpg,null,,,,,,,,,,,,24,"47,14,28,65,27,72,38,6,22,24,62,29,48,20,39,11,37,50,56,79,75,17,31,41,68,5,46,18,60,55,71,34,66,58,10,3,26,69,2,32,54,4,67,33,30,64,44,59,23,45,49,25,12,74,19",,,,,,,,,,
land,190,648618,0.0-59.0-2.0,,null,run_exp/static/images/task_images/land.jpg,null,,,,,,102,,,10,,,,,,,,,,,,,,
dig,191,650630,0.0-59.0-3.0,,,,,,,,,,,"[{""stimulus"":""run_exp/static/images/task_images/dig.jpg"",""time"":0.3400000277906656},{""stimulus"":""run_exp/static/images/task_images/land.jpg"",""time"":681.1549999983981},{""stimulus"":""run_exp/static/images/task_images/dig.jpg"",""time"":1346.1999999708496}]",[],10,,,,,,,,,,,,,,
harvest,192,651650,0.0-59.0-4.0,,null,run_exp/static/images/task_images/gems/102.jpg,null,,,,,,24,,,10,,,,,102,0.234530934,0.235294118,,,,,,,
decision,193,651916,0.0-59.0-5.0,,264.77,run_exp/static/images/task_images/land.jpg,65,,,,,,24,,,10,,,,,,,,260630,1,0,FALSE,,,
dig,194,654670,0.0-60.0-0.0,,,,,,,,,,,"[{""stimulus"":""run_exp/static/images/task_images/dig.jpg"",""time"":0.1449999981559813},{""stimulus"":""run_exp/static/images/task_images/land.jpg"",""time"":929.6449999674223},{""stimulus"":""run_exp/static/images/task_images/dig.jpg"",""time"":1835.6599999824539}]",[],10,,,,,,,,,,,,,,
harvest,195,655680,0.0-60.0-1.0,,null,run_exp/static/images/task_images/gems/24.jpg,null,,,,,,5,,,10,,,,,24,0.217816769,0.208333333,,,,,,,
decision,196,656085,0.0-60.0-2.0,,402.945,run_exp/static/images/task_images/land.jpg,76,,,,,,5,,,10,,,,,,,,264798,1,1,TRUE,,,
travel,197,665700,0.0-61.0-0.0,,,,,,,,,,,"[{""stimulus"":""run_exp/static/images/task_images/rocket-01.jpg"",""time"":0.1449999981559813},{""stimulus"":""run_exp/static/images/task_images/rocket-02.jpg"",""time"":1070.769999991171},{""stimulus"":""run_exp/static/images/task_images/rocket-03.jpg"",""time"":2139.7049999795854},{""stimulus"":""run_exp/static/images/task_images/rocket-04.jpg"",""time"":3205.034999991767},{""stimulus"":""run_exp/static/images/task_images/rocket-05.jpg"",""time"":4280.879999976605},{""stimulus"":""run_exp/static/images/task_images/rocket-06.jpg"",""time"":5350.939999974798},{""stimulus"":""run_exp/static/images/task_images/rocket-07.jpg"",""time"":6400.289999961387},{""stimulus"":""run_exp/static/images/task_images/rocket-08.jpg"",""time"":7470.239999995101},{""stimulus"":""run_exp/static/images/task_images/rocket-09.jpg"",""time"":8540.150000015274}]",[],10,,,,,,,,,,,,,,
alien_welcome,198,670720,0.0-61.0-1.0,,null,run_exp/static/images/task_images/aliens/old_aliens/planet/alien_planet-62.jpg,null,,,,,,,,,,,,62,"47,14,28,65,27,72,38,6,22,24,62,29,48,20,39,11,37,50,56,79,75,17,31,41,68,5,46,18,60,55,71,34,66,58,10,3,26,69,2,32,54,4,67,33,30,64,44,59,23,45,49,25,12,74,19",,,,,,,,,,
land,199,671241,0.0-61.0-2.0,,null,run_exp/static/images/task_images/land.jpg,null,,,,,,106,,,11,,,,,,,,,,,,,,
dig,200,673260,0.0-61.0-3.0,,,,,,,,,,,"[{""stimulus"":""run_exp/static/images/task_images/dig.jpg"",""time"":0.2749999985098839},{""stimulus"":""run_exp/static/images/task_images/land.jpg"",""time"":678.10499999905},{""stimulus"":""run_exp/static/images/task_images/dig.jpg"",""time"":1337.4600000097416}]",[],11,,,,,,,,,,,,,,
harvest,201,674271,0.0-61.0-4.0,,null,run_exp/static/images/task_images/gems/106.jpg,null,,,,,,16,,,11,,,,,106,0.150200897,0.150943396,,,,,,,
decision,202,674682,0.0-61.0-5.0,,409.635,run_exp/static/images/task_images/land.jpg,65,,,,,,16,,,11,,,,,,,,283395,1,0,FALSE,,,
dig,203,677290,0.0-62.0-0.0,,,,,,,,,,,"[{""stimulus"":""run_exp/static/images/task_images/dig.jpg"",""time"":0.2749999985098839},{""stimulus"":""run_exp/static/images/task_images/land.jpg"",""time"":881.9450000301003},{""stimulus"":""run_exp/static/images/task_images/dig.jpg"",""time"":1742.385000048671}]",[],11,,,,,,,,,,,,,,
harvest,204,678310,0.0-62.0-1.0,,null,run_exp/static/images/task_images/gems/16.jpg,null,,,,,,5,,,11,,,,,16,0.331723591,0.3125,,,,,,,
decision,205,678482,0.0-62.0-2.0,,170.295,run_exp/static/images/task_images/land.jpg,76,,,,,,5,,,11,,,,,,,,287196,1,1,TRUE,,,
travel,206,688321,0.0-63.0-0.0,,,,,,,,,,,"[{""stimulus"":""run_exp/static/images/task_images/rocket-01.jpg"",""time"":0.22500002523884177},{""stimulus"":""run_exp/static/images/task_images/rocket-02.jpg"",""time"":1103.3750000060536},{""stimulus"":""run_exp/static/images/task_images/rocket-03.jpg"",""time"":2193.0949999950826},{""stimulus"":""run_exp/static/images/task_images/rocket-04.jpg"",""time"":3282.279999984894},{""stimulus"":""run_exp/static/images/task_images/rocket-05.jpg"",""time"":4382.540000020526},{""stimulus"":""run_exp/static/images/task_images/rocket-06.jpg"",""time"":5472.320000000764},{""stimulus"":""run_exp/static/images/task_images/rocket-07.jpg"",""time"":6562.395000015385},{""stimulus"":""run_exp/static/images/task_images/rocket-08.jpg"",""time"":7652.509999985341},{""stimulus"":""run_exp/static/images/task_images/rocket-09.jpg"",""time"":8752.184999990277}]",[],11,,,,,,,,,,,,,,
alien_welcome,207,693330,0.0-63.0-1.0,,null,run_exp/static/images/task_images/aliens/old_aliens/planet/alien_planet-29.jpg,null,,,,,,,,,,,,29,"47,14,28,65,27,72,38,6,22,24,62,29,48,20,39,11,37,50,56,79,75,17,31,41,68,5,46,18,60,55,71,34,66,58,10,3,26,69,2,32,54,4,67,33,30,64,44,59,23,45,49,25,12,74,19",,,,,,,,,,
land,208,693841,0.0-63.0-2.0,,null,run_exp/static/images/task_images/land.jpg,null,,,,,,100,,,12,,,,,,,,,,,,,,
dig,209,695860,0.0-63.0-3.0,,,,,,,,,,,"[{""stimulus"":""run_exp/static/images/task_images/dig.jpg"",""time"":0.3250000299885869},{""stimulus"":""run_exp/static/images/task_images/land.jpg"",""time"":688.0349999992177},{""stimulus"":""run_exp/static/images/task_images/dig.jpg"",""time"":1349.4500000379048}]",[],12,,,,,,,,,,,,,,
harvest,210,696870,0.0-63.0-4.0,,null,run_exp/static/images/task_images/gems/100.jpg,null,,,,,,24,,,12,,,,,100,0.236944182,0.24,,,,,,,
decision,211,697312,0.0-63.0-5.0,,439.99,run_exp/static/images/task_images/land.jpg,65,,,,,,24,,,12,,,,,,,,306025,1,0,TRUE,,,
end_of_block_continue,212,706132,0.0-64.0-0.0,,8815.08,run_exp/static/audio/clip_32_block_end.m4a,,,,,,0,,,,,,,,,,,,,,,,,,
alien_welcome,213,711150,0.0-65.0-0.0,,null,run_exp/static/images/task_images/aliens/old_aliens/planet/alien_planet-48.jpg,null,,,,,,,,,,,,48,"47,14,28,65,27,72,38,6,22,24,62,29,48,20,39,11,37,50,56,79,75,17,31,41,68,5,46,18,60,55,71,34,66,58,10,3,26,69,2,32,54,4,67,33,30,64,44,59,23,45,49,25,12,74,19",,,,,,,,,,
land,214,711661,0.0-65.0-1.0,,null,run_exp/static/images/task_images/land.jpg,null,,,,,,98,,,13,,,,,,,,,,,,,,
dig,215,713680,0.0-65.0-2.0,,,,,,,,,,,"[{""stimulus"":""run_exp/static/images/task_images/dig.jpg"",""time"":0.19500002963468432},{""stimulus"":""run_exp/static/images/task_images/land.jpg"",""time"":678.3750000176951},{""stimulus"":""run_exp/static/images/task_images/dig.jpg"",""time"":1347.2850000252947}]",[],13,,,,,,,,,,,,,,
harvest,216,714700,0.0-65.0-3.0,,null,run_exp/static/images/task_images/gems/98.jpg,null,,,,,,20,,,13,,,,,98,0.201252512,0.204081633,,,,,,,
decision,217,714964,0.0-65.0-4.0,,261.775,run_exp/static/images/task_images/land.jpg,65,,,,,,20,,,13,,,,,,,,8830,2,0,FALSE,,,
dig,218,717720,0.0-66.0-0.0,,,,,,,,,,,"[{""stimulus"":""run_exp/static/images/task_images/dig.jpg"",""time"":0.17499999376013875},{""stimulus"":""run_exp/static/images/task_images/land.jpg"",""time"":923.7350000184961},{""stimulus"":""run_exp/static/images/task_images/dig.jpg"",""time"":1843.5750000062399}]",[],13,,,,,,,,,,,,,,
harvest,219,718741,0.0-66.0-1.0,,null,run_exp/static/images/task_images/gems/20.jpg,null,,,,,,4,,,13,,,,,20,0.178885901,0.2,,,,,,,
decision,220,719073,0.0-66.0-2.0,,330.5,run_exp/static/images/task_images/land.jpg,76,,,,,,4,,,13,,,,,,,,12939,2,1,TRUE,,,
travel,221,728760,0.0-67.0-0.0,,,,,,,,,,,"[{""stimulus"":""run_exp/static/images/task_images/rocket-01.jpg"",""time"":0.13499998021870852},{""stimulus"":""run_exp/static/images/task_images/rocket-02.jpg"",""time"":1088.6249999748543},{""stimulus"":""run_exp/static/images/task_images/rocket-03.jpg"",""time"":2153.6249999771826},{""stimulus"":""run_exp/static/images/task_images/rocket-04.jpg"",""time"":3233.8099999469705},{""stimulus"":""run_exp/static/images/task_images/rocket-05.jpg"",""time"":4314.019999990705},{""stimulus"":""run_exp/static/images/task_images/rocket-06.jpg"",""time"":5374.194999982137},{""stimulus"":""run_exp/static/images/task_images/rocket-07.jpg"",""time"":6460.419999959413},{""stimulus"":""run_exp/static/images/task_images/rocket-08.jpg"",""time"":7534.079999953974},{""stimulus"":""run_exp/static/images/task_images/rocket-09.jpg"",""time"":8603.794999944512}]",[],13,,,,,,,,,,,,,,
alien_welcome,222,733780,0.0-67.0-1.0,,null,run_exp/static/images/task_images/aliens/old_aliens/planet/alien_planet-20.jpg,null,,,,,,,,,,,,20,"47,14,28,65,27,72,38,6,22,24,62,29,48,20,39,11,37,50,56,79,75,17,31,41,68,5,46,18,60,55,71,34,66,58,10,3,26,69,2,32,54,4,67,33,30,64,44,59,23,45,49,25,12,74,19",,,,,,,,,,
land,223,734300,0.0-67.0-2.0,,null,run_exp/static/images/task_images/land.jpg,null,,,,,,105,,,14,,,,,,,,,,,,,,
dig,224,736320,0.0-67.0-3.0,,,,,,,,,,,"[{""stimulus"":""run_exp/static/images/task_images/dig.jpg"",""time"":0.33000000985339284},{""stimulus"":""run_exp/static/images/task_images/land.jpg"",""time"":678.360000019893},{""stimulus"":""run_exp/static/images/task_images/dig.jpg"",""time"":1338.3449999964796}]",[],14,,,,,,,,,,,,,,
harvest,225,737330,0.0-67.0-4.0,,null,run_exp/static/images/task_images/gems/105.jpg,null,,,,,,23,,,14,,,,,105,0.218855977,0.219047619,,,,,,,
decision,226,738490,0.0-67.0-5.0,,1159.16,run_exp/static/images/task_images/land.jpg,65,,,,,,23,,,14,,,,,,,,32356,2,0,FALSE,,,
dig,227,740350,0.0-68.0-0.0,,,,,,,,,,,"[{""stimulus"":""run_exp/static/images/task_images/dig.jpg"",""time"":0.23500004317611456},{""stimulus"":""run_exp/static/images/task_images/land.jpg"",""time"":618.6300000408664},{""stimulus"":""run_exp/static/images/task_images/dig.jpg"",""time"":1244.4100000429899}]",[],14,,,,,,,,,,,,,,
harvest,228,741370,0.0-68.0-1.0,,null,run_exp/static/images/task_images/gems/23.jpg,null,,,,,,5,,,14,,,,,23,0.211660289,0.217391304,,,,,,,
decision,229,742081,0.0-68.0-2.0,,709.115,run_exp/static/images/task_images/land.jpg,76,,,,,,5,,,14,,,,,,,,35947,2,1,TRUE,,,
travel,230,751380,0.0-69.0-0.0,,,,,,,,,,,"[{""stimulus"":""run_exp/static/images/task_images/rocket-01.jpg"",""time"":0.12499996228143573},{""stimulus"":""run_exp/static/images/task_images/rocket-02.jpg"",""time"":1035.3849999955855},{""stimulus"":""run_exp/static/images/task_images/rocket-03.jpg"",""time"":2075.284999969881},{""stimulus"":""run_exp/static/images/task_images/rocket-04.jpg"",""time"":3115.3599999961443},{""stimulus"":""run_exp/static/images/task_images/rocket-05.jpg"",""time"":4135.390000010375},{""stimulus"":""run_exp/static/images/task_images/rocket-06.jpg"",""time"":5161.239999986719},{""stimulus"":""run_exp/static/images/task_images/rocket-07.jpg"",""time"":6195.2999999630265},{""stimulus"":""run_exp/static/images/task_images/rocket-08.jpg"",""time"":7235.404999984894},{""stimulus"":""run_exp/static/images/task_images/rocket-09.jpg"",""time"":8264.849999977741}]",[],14,,,,,,,,,,,,,,
alien_welcome,231,756389,0.0-69.0-1.0,,null,run_exp/static/images/task_images/aliens/old_aliens/planet/alien_planet-39.jpg,null,,,,,,,,,,,,39,"47,14,28,65,27,72,38,6,22,24,62,29,48,20,39,11,37,50,56,79,75,17,31,41,68,5,46,18,60,55,71,34,66,58,10,3,26,69,2,32,54,4,67,33,30,64,44,59,23,45,49,25,12,74,19",,,,,,,,,,
land,232,756900,0.0-69.0-2.0,,null,run_exp/static/images/task_images/land.jpg,null,,,,,,95,,,15,,,,,,,,,,,,,,
dig,233,758919,0.0-69.0-3.0,,,,,,,,,,,"[{""stimulus"":""run_exp/static/images/task_images/dig.jpg"",""time"":0.3649999853223562},{""stimulus"":""run_exp/static/images/task_images/land.jpg"",""time"":688.800000003539},{""stimulus"":""run_exp/static/images/task_images/dig.jpg"",""time"":1338.1349999690428}]",[],15,,,,,,,,,,,,,,
harvest,234,759940,0.0-69.0-4.0,,null,run_exp/static/images/task_images/gems/95.jpg,null,,,,,,26,,,15,,,,,95,0.270918564,0.273684211,,,,,,,
decision,235,759952,0.0-69.0-5.0,,9.970000014,run_exp/static/images/task_images/land.jpg,76,,,,,,26,,,15,,,,,,,,53818,2,0,TRUE,,,
travel,236,769960,0.0-70.0-0.0,,,,,,,,,,,"[{""stimulus"":""run_exp/static/images/task_images/rocket-01.jpg"",""time"":0.24999998277053237},{""stimulus"":""run_exp/static/images/task_images/rocket-02.jpg"",""time"":1113.4299999685027},{""stimulus"":""run_exp/static/images/task_images/rocket-03.jpg"",""time"":2233.399999968242},{""stimulus"":""run_exp/static/images/task_images/rocket-04.jpg"",""time"":3343.92499999376},{""stimulus"":""run_exp/static/images/task_images/rocket-05.jpg"",""time"":4443.715000001248},{""stimulus"":""run_exp/static/images/task_images/rocket-06.jpg"",""time"":5553.7899999762885},{""stimulus"":""run_exp/static/images/task_images/rocket-07.jpg"",""time"":6662.844999984372},{""stimulus"":""run_exp/static/images/task_images/rocket-08.jpg"",""time"":7783.3799999789335},{""stimulus"":""run_exp/static/images/task_images/rocket-09.jpg"",""time"":8893.504999985453}]",[],15,,,,,,,,,,,,,,
alien_welcome,237,774980,0.0-70.0-1.0,,null,run_exp/static/images/task_images/aliens/old_aliens/planet/alien_planet-11.jpg,null,,,,,,,,,,,,11,"47,14,28,65,27,72,38,6,22,24,62,29,48,20,39,11,37,50,56,79,75,17,31,41,68,5,46,18,60,55,71,34,66,58,10,3,26,69,2,32,54,4,67,33,30,64,44,59,23,45,49,25,12,74,19",,,,,,,,,,
land,238,775489,0.0-70.0-2.0,,null,run_exp/static/images/task_images/land.jpg,null,,,,,,98,,,16,,,,,,,,,,,,,,
dig,239,777499,0.0-70.0-3.0,,,,,,,,,,,"[{""stimulus"":""run_exp/static/images/task_images/dig.jpg"",""time"":0.3250000299885869},{""stimulus"":""run_exp/static/images/task_images/land.jpg"",""time"":688.2500000065193},{""stimulus"":""run_exp/static/images/task_images/dig.jpg"",""time"":1348.3500000438653}]",[],16,,,,,,,,,,,,,,
harvest,240,778520,0.0-70.0-4.0,,null,run_exp/static/images/task_images/gems/98.jpg,null,,,,,,78,,,16,,,,,98,0.79998775,0.795918367,,,,,,,
decision,241,779015,0.0-70.0-5.0,,493.155,run_exp/static/images/task_images/land.jpg,65,,,,,,78,,,16,,,,,,,,72881,2,0,FALSE,,,
dig,242,781540,0.0-71.0-0.0,,,,,,,,,,,"[{""stimulus"":""run_exp/static/images/task_images/dig.jpg"",""time"":0.13000000035390258},{""stimulus"":""run_exp/static/images/task_images/land.jpg"",""time"":841.6299999807961},{""stimulus"":""run_exp/static/images/task_images/dig.jpg"",""time"":1681.3299999921583}]",[],16,,,,,,,,,,,,,,
harvest,243,782560,0.0-71.0-1.0,,null,run_exp/static/images/task_images/gems/78.jpg,null,,,,,,68,,,16,,,,,78,0.865489638,0.871794872,,,,,,,
decision,244,782928,0.0-71.0-2.0,,366.82,run_exp/static/images/task_images/land.jpg,65,,,,,,68,,,16,,,,,,,,76794,2,1,FALSE,,,
dig,245,785580,0.0-72.0-0.0,,,,,,,,,,,"[{""stimulus"":""run_exp/static/images/task_images/dig.jpg"",""time"":0.16499997582286596},{""stimulus"":""run_exp/static/images/task_images/land.jpg"",""time"":889.3099999986589},{""stimulus"":""run_exp/static/images/task_images/dig.jpg"",""time"":1764.2849999829195}]",[],16,,,,,,,,,,,,,,
harvest,246,786599,0.0-72.0-1.0,,null,run_exp/static/images/task_images/gems/68.jpg,null,,,,,,51,,,16,,,,,68,0.755514814,0.75,,,,,,,
decision,247,786942,0.0-72.0-2.0,,341.19,run_exp/static/images/task_images/land.jpg,65,,,,,,51,,,16,,,,,,,,80808,2,2,FALSE,,,
dig,248,789610,0.0-73.0-0.0,,,,,,,,,,,"[{""stimulus"":""run_exp/static/images/task_images/dig.jpg"",""time"":0.2300000051036477},{""stimulus"":""run_exp/static/images/task_images/land.jpg"",""time"":892.6000000210479},{""stimulus"":""run_exp/static/images/task_images/dig.jpg"",""time"":1782.34000003431}]",[],16,,,,,,,,,,,,,,
harvest,249,790630,0.0-73.0-1.0,,null,run_exp/static/images/task_images/gems/51.jpg,null,,,,,,41,,,16,,,,,51,0.806895023,0.803921569,,,,,,,
decision,250,790915,0.0-73.0-2.0,,283.24,run_exp/static/images/task_images/land.jpg,76,,,,,,41,,,16,,,,,,,,84781,2,3,TRUE,,,
travel,251,800641,0.0-74.0-0.0,,,,,,,,,,,"[{""stimulus"":""run_exp/static/images/task_images/rocket-01.jpg"",""time"":0.2049999893642962},{""stimulus"":""run_exp/static/images/task_images/rocket-02.jpg"",""time"":1100.3550000023097},{""stimulus"":""run_exp/static/images/task_images/rocket-03.jpg"",""time"":2159.9699999787845},{""stimulus"":""run_exp/static/images/task_images/rocket-04.jpg"",""time"":3240.1950000203215},{""stimulus"":""run_exp/static/images/task_images/rocket-05.jpg"",""time"":4321.410000033211},{""stimulus"":""run_exp/static/images/task_images/rocket-06.jpg"",""time"":5405.759999994189},{""stimulus"":""run_exp/static/images/task_images/rocket-07.jpg"",""time"":6490.400000009686},{""stimulus"":""run_exp/static/images/task_images/rocket-08.jpg"",""time"":7560.675000015181},{""stimulus"":""run_exp/static/images/task_images/rocket-09.jpg"",""time"":8650.424999999814}]",[],16,,,,,,,,,,,,,,
alien_welcome,252,805661,0.0-74.0-1.0,,null,run_exp/static/images/task_images/aliens/old_aliens/planet/alien_planet-37.jpg,null,,,,,,,,,,,,37,"47,14,28,65,27,72,38,6,22,24,62,29,48,20,39,11,37,50,56,79,75,17,31,41,68,5,46,18,60,55,71,34,66,58,10,3,26,69,2,32,54,4,67,33,30,64,44,59,23,45,49,25,12,74,19",,,,,,,,,,
land,253,806170,0.0-74.0-2.0,,null,run_exp/static/images/task_images/land.jpg,null,,,,,,97,,,17,,,,,,,,,,,,,,
dig,254,808191,0.0-74.0-3.0,,,,,,,,,,,"[{""stimulus"":""run_exp/static/images/task_images/dig.jpg"",""time"":0.3349999897181988},{""stimulus"":""run_exp/static/images/task_images/land.jpg"",""time"":668.9599999808706},{""stimulus"":""run_exp/static/images/task_images/dig.jpg"",""time"":1343.170000007376}]",[],17,,,,,,,,,,,,,,
harvest,255,809201,0.0-74.0-4.0,,null,run_exp/static/images/task_images/gems/97.jpg,null,,,,,,83,,,17,,,,,97,0.851017041,0.855670103,,,,,,,
decision,256,809593,0.0-74.0-5.0,,390.845,run_exp/static/images/task_images/land.jpg,65,,,,,,83,,,17,,,,,,,,103459,2,0,FALSE,,,
dig,257,812210,0.0-75.0-0.0,,,,,,,,,,,"[{""stimulus"":""run_exp/static/images/task_images/dig.jpg"",""time"":0.13000000035390258},{""stimulus"":""run_exp/static/images/task_images/land.jpg"",""time"":884.044999955222},{""stimulus"":""run_exp/static/images/task_images/dig.jpg"",""time"":1754.3799999984913}]",[],17,,,,,,,,,,,,,,
harvest,258,813221,0.0-75.0-1.0,,null,run_exp/static/images/task_images/gems/83.jpg,null,,,,,,71,,,17,,,,,83,0.855986387,0.855421687,,,,,,,
decision,259,813434,0.0-75.0-2.0,,211.45,run_exp/static/images/task_images/land.jpg,65,,,,,,71,,,17,,,,,,,,107300,2,1,FALSE,,,
dig,260,816231,0.0-76.0-0.0,,,,,,,,,,,"[{""stimulus"":""run_exp/static/images/task_images/dig.jpg"",""time"":0.13999996008351445},{""stimulus"":""run_exp/static/images/task_images/land.jpg"",""time"":933.9649999747053},{""stimulus"":""run_exp/static/images/task_images/dig.jpg"",""time"":1863.3749999571592}]",[],17,,,,,,,,,,,,,,
harvest,261,817241,0.0-76.0-1.0,,null,run_exp/static/images/task_images/gems/71.jpg,null,,,,,,60,,,17,,,,,71,0.841949988,0.845070423,,,,,,,
decision,262,818245,0.0-76.0-2.0,,1002.5,run_exp/static/images/task_images/land.jpg,76,,,,,,60,,,17,,,,,,,,112111,2,2,TRUE,,,
travel,263,827250,0.0-77.0-0.0,,,,,,,,,,,"[{""stimulus"":""run_exp/static/images/task_images/rocket-01.jpg"",""time"":0.29499997617676854},{""stimulus"":""run_exp/static/images/task_images/rocket-02.jpg"",""time"":1018.9849999733269},{""stimulus"":""run_exp/static/images/task_images/rocket-03.jpg"",""time"":2009.7299999906681},{""stimulus"":""run_exp/static/images/task_images/rocket-04.jpg"",""time"":3008.9849999640137},{""stimulus"":""run_exp/static/images/task_images/rocket-05.jpg"",""time"":4009.3099999940023},{""stimulus"":""run_exp/static/images/task_images/rocket-06.jpg"",""time"":5010.259999951813},{""stimulus"":""run_exp/static/images/task_images/rocket-07.jpg"",""time"":6009.709999954794},{""stimulus"":""run_exp/static/images/task_images/rocket-08.jpg"",""time"":7009.3549999874085},{""stimulus"":""run_exp/static/images/task_images/rocket-09.jpg"",""time"":8009.39500000095}]",[],17,,,,,,,,,,,,,,
alien_welcome,264,832271,0.0-77.0-1.0,,null,run_exp/static/images/task_images/aliens/old_aliens/planet/alien_planet-50.jpg,null,,,,,,,,,,,,50,"47,14,28,65,27,72,38,6,22,24,62,29,48,20,39,11,37,50,56,79,75,17,31,41,68,5,46,18,60,55,71,34,66,58,10,3,26,69,2,32,54,4,67,33,30,64,44,59,23,45,49,25,12,74,19",,,,,,,,,,
land,265,832780,0.0-77.0-2.0,,null,run_exp/static/images/task_images/land.jpg,null,,,,,,108,,,18,,,,,,,,,,,,,,
dig,266,834801,0.0-77.0-3.0,,,,,,,,,,,"[{""stimulus"":""run_exp/static/images/task_images/dig.jpg"",""time"":0.3349999897181988},{""stimulus"":""run_exp/static/images/task_images/land.jpg"",""time"":678.4149999730289},{""stimulus"":""run_exp/static/images/task_images/dig.jpg"",""time"":1348.569999972824}]",[],18,,,,,,,,,,,,,,
harvest,267,835811,0.0-77.0-4.0,,null,run_exp/static/images/task_images/gems/108.jpg,null,,,,,,90,,,18,,,,,108,0.831464168,0.833333333,,,,,,,
decision,268,836387,0.0-77.0-5.0,,574.67,run_exp/static/images/task_images/land.jpg,76,,,,,,90,,,18,,,,,,,,130253,2,0,TRUE,,,
travel,269,845820,0.0-78.0-0.0,,,,,,,,,,,"[{""stimulus"":""run_exp/static/images/task_images/rocket-01.jpg"",""time"":0.13500003842636943},{""stimulus"":""run_exp/static/images/task_images/rocket-02.jpg"",""time"":1067.960000014864},{""stimulus"":""run_exp/static/images/task_images/rocket-03.jpg"",""time"":2108.0500000389293},{""stimulus"":""run_exp/static/images/task_images/rocket-04.jpg"",""time"":3158.3150000078604},{""stimulus"":""run_exp/static/images/task_images/rocket-05.jpg"",""time"":4198.429999989457},{""stimulus"":""run_exp/static/images/task_images/rocket-06.jpg"",""time"":5238.330000021961},{""stimulus"":""run_exp/static/images/task_images/rocket-07.jpg"",""time"":6287.799999990966},{""stimulus"":""run_exp/static/images/task_images/rocket-08.jpg"",""time"":7348.0299999937415},{""stimulus"":""run_exp/static/images/task_images/rocket-09.jpg"",""time"":8378.3650000114}]",[],18,,,,,,,,,,,,,,
alien_welcome,270,850830,0.0-78.0-1.0,,null,run_exp/static/images/task_images/aliens/old_aliens/planet/alien_planet-56.jpg,null,,,,,,,,,,,,56,"47,14,28,65,27,72,38,6,22,24,62,29,48,20,39,11,37,50,56,79,75,17,31,41,68,5,46,18,60,55,71,34,66,58,10,3,26,69,2,32,54,4,67,33,30,64,44,59,23,45,49,25,12,74,19",,,,,,,,,,
land,271,851351,0.0-78.0-2.0,,null,run_exp/static/images/task_images/land.jpg,null,,,,,,99,,,19,,,,,,,,,,,,,,
dig,272,853361,0.0-78.0-3.0,,,,,,,,,,,"[{""stimulus"":""run_exp/static/images/task_images/dig.jpg"",""time"":0.3349999897181988},{""stimulus"":""run_exp/static/images/task_images/land.jpg"",""time"":687.5},{""stimulus"":""run_exp/static/images/task_images/dig.jpg"",""time"":1337.4699999694712}]",[],19,,,,,,,,,,,,,,
harvest,273,854381,0.0-78.0-4.0,,null,run_exp/static/images/task_images/gems/99.jpg,null,,,,,,81,,,19,,,,,99,0.815082968,0.818181818,,,,,,,
decision,274,855139,0.0-78.0-5.0,,755.635,run_exp/static/images/task_images/land.jpg,65,,,,,,81,,,19,,,,,,,,149005,2,0,FALSE,,,
dig,275,857401,0.0-79.0-0.0,,,,,,,,,,,"[{""stimulus"":""run_exp/static/images/task_images/dig.jpg"",""time"":0.13999996008351445},{""stimulus"":""run_exp/static/images/task_images/land.jpg"",""time"":755.6399999884889},{""stimulus"":""run_exp/static/images/task_images/dig.jpg"",""time"":1506.809999991674}]",[],19,,,,,,,,,,,,,,
harvest,276,858421,0.0-79.0-1.0,,null,run_exp/static/images/task_images/gems/81.jpg,null,,,,,,71,,,19,,,,,81,0.873303581,0.87654321,,,,,,,
decision,277,858837,0.0-79.0-2.0,,413.8400001,run_exp/static/images/task_images/land.jpg,65,,,,,,71,,,19,,,,,,,,152703,2,1,FALSE,,,
dig,278,861440,0.0-80.0-0.0,,,,,,,,,,,"[{""stimulus"":""run_exp/static/images/task_images/dig.jpg"",""time"":0.22000004537403584},{""stimulus"":""run_exp/static/images/task_images/land.jpg"",""time"":869.730000034906},{""stimulus"":""run_exp/static/images/task_images/dig.jpg"",""time"":1729.4400000246242}]",[],19,,,,,,,,,,,,,,
harvest,279,862460,0.0-80.0-1.0,,null,run_exp/static/images/task_images/gems/71.jpg,null,,,,,,58,,,19,,,,,71,0.811603819,0.816901408,,,,,,,
decision,280,862936,0.0-80.0-2.0,,474.2999999,run_exp/static/images/task_images/land.jpg,65,,,,,,58,,,19,,,,,,,,156802,2,2,FALSE,,,
dig,281,865480,0.0-81.0-0.0,,,,,,,,,,,"[{""stimulus"":""run_exp/static/images/task_images/dig.jpg"",""time"":0.18999999156221747},{""stimulus"":""run_exp/static/images/task_images/land.jpg"",""time"":853.2049999921583},{""stimulus"":""run_exp/static/images/task_images/dig.jpg"",""time"":1696.5499999932945}]",[],19,,,,,,,,,,,,,,
harvest,282,866499,0.0-81.0-1.0,,null,run_exp/static/images/task_images/gems/58.jpg,null,,,,,,47,,,19,,,,,58,0.805053764,0.810344828,,,,,,,
decision,283,866937,0.0-81.0-2.0,,435.665,run_exp/static/images/task_images/land.jpg,76,,,,,,47,,,19,,,,,,,,160803,2,3,TRUE,,,
travel,284,876510,0.0-82.0-0.0,,,,,,,,,,,"[{""stimulus"":""run_exp/static/images/task_images/rocket-01.jpg"",""time"":0.23999996483325958},{""stimulus"":""run_exp/static/images/task_images/rocket-02.jpg"",""time"":1079.0500000002794},{""stimulus"":""run_exp/static/images/task_images/rocket-03.jpg"",""time"":2137.445000000298},{""stimulus"":""run_exp/static/images/task_images/rocket-04.jpg"",""time"":3202.545000007376},{""stimulus"":""run_exp/static/images/task_images/rocket-05.jpg"",""time"":4257.609999971464},{""stimulus"":""run_exp/static/images/task_images/rocket-06.jpg"",""time"":5327.904999954626},{""stimulus"":""run_exp/static/images/task_images/rocket-07.jpg"",""time"":6378.024999983609},{""stimulus"":""run_exp/static/images/task_images/rocket-08.jpg"",""time"":7447.504999989178},{""stimulus"":""run_exp/static/images/task_images/rocket-09.jpg"",""time"":8517.794999992475}]",[],19,,,,,,,,,,,,,,
alien_welcome,285,881522,0.0-82.0-1.0,,null,run_exp/static/images/task_images/aliens/old_aliens/planet/alien_planet-79.jpg,null,,,,,,,,,,,,79,"47,14,28,65,27,72,38,6,22,24,62,29,48,20,39,11,37,50,56,79,75,17,31,41,68,5,46,18,60,55,71,34,66,58,10,3,26,69,2,32,54,4,67,33,30,64,44,59,23,45,49,25,12,74,19",,,,,,,,,,
land,286,882040,0.0-82.0-2.0,,null,run_exp/static/images/task_images/land.jpg,null,,,,,,96,,,20,,,,,,,,,,,,,,
dig,287,884060,0.0-82.0-3.0,,,,,,,,,,,"[{""stimulus"":""run_exp/static/images/task_images/dig.jpg"",""time"":0.33000000985339284},{""stimulus"":""run_exp/static/images/task_images/land.jpg"",""time"":688.544999982696},{""stimulus"":""run_exp/static/images/task_images/dig.jpg"",""time"":1345.629999996163}]",[],20,,,,,,,,,,,,,,
harvest,288,885070,0.0-82.0-4.0,,null,run_exp/static/images/task_images/gems/96.jpg,null,,,,,,74,,,20,,,,,96,0.768624486,0.770833333,,,,,,,
decision,289,885412,0.0-82.0-5.0,,340.485,run_exp/static/images/task_images/land.jpg,65,,,,,,74,,,20,,,,,,,,179278,2,0,FALSE,,,
dig,290,888080,0.0-83.0-0.0,,,,,,,,,,,"[{""stimulus"":""run_exp/static/images/task_images/dig.jpg"",""time"":0.14999997802078724},{""stimulus"":""run_exp/static/images/task_images/land.jpg"",""time"":904.2650000192225},{""stimulus"":""run_exp/static/images/task_images/dig.jpg"",""time"":1784.9200000055134}]",[],20,,,,,,,,,,,,,,
harvest,291,889090,0.0-83.0-1.0,,null,run_exp/static/images/task_images/gems/74.jpg,null,,,,,,55,,,20,,,,,74,0.742358166,0.743243243,,,,,,,
decision,292,889849,0.0-83.0-2.0,,758.28,run_exp/static/images/task_images/land.jpg,76,,,,,,55,,,20,,,,,,,,183715,2,1,TRUE,,,
travel,293,899109,0.0-84.0-0.0,,,,,,,,,,,"[{""stimulus"":""run_exp/static/images/task_images/rocket-01.jpg"",""time"":0.2899999963119626},{""stimulus"":""run_exp/static/images/task_images/rocket-02.jpg"",""time"":1044.7500000009313},{""stimulus"":""run_exp/static/images/task_images/rocket-03.jpg"",""time"":2064.684999990277},{""stimulus"":""run_exp/static/images/task_images/rocket-04.jpg"",""time"":3084.789999993518},{""stimulus"":""run_exp/static/images/task_images/rocket-05.jpg"",""time"":4115.090000035707},{""stimulus"":""run_exp/static/images/task_images/rocket-06.jpg"",""time"":5139.690000039991},{""stimulus"":""run_exp/static/images/task_images/rocket-07.jpg"",""time"":6165.320000029169},{""stimulus"":""run_exp/static/images/task_images/rocket-08.jpg"",""time"":7184.300000022631},{""stimulus"":""run_exp/static/images/task_images/rocket-09.jpg"",""time"":8215.305000019725}]",[],20,,,,,,,,,,,,,,
alien_welcome,294,904130,0.0-84.0-1.0,,null,run_exp/static/images/task_images/aliens/old_aliens/planet/alien_planet-75.jpg,null,,,,,,,,,,,,75,"47,14,28,65,27,72,38,6,22,24,62,29,48,20,39,11,37,50,56,79,75,17,31,41,68,5,46,18,60,55,71,34,66,58,10,3,26,69,2,32,54,4,67,33,30,64,44,59,23,45,49,25,12,74,19",,,,,,,,,,
land,295,904648,0.0-84.0-2.0,,null,run_exp/static/images/task_images/land.jpg,null,,,,,,106,,,21,,,,,,,,,,,,,,
dig,296,906660,0.0-84.0-3.0,,,,,,,,,,,"[{""stimulus"":""run_exp/static/images/task_images/dig.jpg"",""time"":0.32000005012378097},{""stimulus"":""run_exp/static/images/task_images/land.jpg"",""time"":669.8200000100769},{""stimulus"":""run_exp/static/images/task_images/dig.jpg"",""time"":1349.6700000250712}]",[],21,,,,,,,,,,,,,,
harvest,297,907680,0.0-84.0-4.0,,null,run_exp/static/images/task_images/gems/106.jpg,null,,,,,,49,,,21,,,,,106,0.460949395,0.462264151,,,,,,,
decision,298,908005,0.0-84.0-5.0,,323.1,run_exp/static/images/task_images/land.jpg,65,,,,,,49,,,21,,,,,,,,201871,2,0,FALSE,,,
dig,299,910700,0.0-85.0-0.0,,,,,,,,,,,"[{""stimulus"":""run_exp/static/images/task_images/dig.jpg"",""time"":0.14999997802078724},{""stimulus"":""run_exp/static/images/task_images/land.jpg"",""time"":901.1649999883957},{""stimulus"":""run_exp/static/images/task_images/dig.jpg"",""time"":1785.8849999611266}]",[],21,,,,,,,,,,,,,,
harvest,300,911720,0.0-85.0-1.0,,null,run_exp/static/images/task_images/gems/49.jpg,null,,,,,,27,,,21,,,,,49,0.548528931,0.551020408,,,,,,,
decision,301,912593,0.0-85.0-2.0,,870.915,run_exp/static/images/task_images/land.jpg,76,,,,,,27,,,21,,,,,,,,206459,2,1,TRUE,,,
travel,302,921740,0.0-86.0-0.0,,,,,,,,,,,"[{""stimulus"":""run_exp/static/images/task_images/rocket-01.jpg"",""time"":0.2300000051036477},{""stimulus"":""run_exp/static/images/task_images/rocket-02.jpg"",""time"":1022.2249999642372},{""stimulus"":""run_exp/static/images/task_images/rocket-03.jpg"",""time"":2031.6699999966659},{""stimulus"":""run_exp/static/images/task_images/rocket-04.jpg"",""time"":3052.399999985937},{""stimulus"":""run_exp/static/images/task_images/rocket-05.jpg"",""time"":4061.424999963492},{""stimulus"":""run_exp/static/images/task_images/rocket-06.jpg"",""time"":5082.519999996293},{""stimulus"":""run_exp/static/images/task_images/rocket-07.jpg"",""time"":6102.40499995416},{""stimulus"":""run_exp/static/images/task_images/rocket-08.jpg"",""time"":7102.079999982379},{""stimulus"":""run_exp/static/images/task_images/rocket-09.jpg"",""time"":8121.814999962226}]",[],21,,,,,,,,,,,,,,
alien_welcome,303,926759,0.0-86.0-1.0,,null,run_exp/static/images/task_images/aliens/old_aliens/planet/alien_planet-17.jpg,null,,,,,,,,,,,,17,"47,14,28,65,27,72,38,6,22,24,62,29,48,20,39,11,37,50,56,79,75,17,31,41,68,5,46,18,60,55,71,34,66,58,10,3,26,69,2,32,54,4,67,33,30,64,44,59,23,45,49,25,12,74,19",,,,,,,,,,
land,304,927270,0.0-86.0-2.0,,null,run_exp/static/images/task_images/land.jpg,null,,,,,,103,,,22,,,,,,,,,,,,,,
dig,305,929290,0.0-86.0-3.0,,,,,,,,,,,"[{""stimulus"":""run_exp/static/images/task_images/dig.jpg"",""time"":0.33000000985339284},{""stimulus"":""run_exp/static/images/task_images/land.jpg"",""time"":668.9050000277348},{""stimulus"":""run_exp/static/images/task_images/dig.jpg"",""time"":1338.6349999927916}]",[],22,,,,,,,,,,,,,,
harvest,306,930300,0.0-86.0-4.0,,null,run_exp/static/images/task_images/gems/103.jpg,null,,,,,,82,,,22,,,,,103,0.800445576,0.796116505,,,,,,,
decision,307,930915,0.0-86.0-5.0,,612.955,run_exp/static/images/task_images/land.jpg,65,,,,,,82,,,22,,,,,,,,224781,2,0,FALSE,,,
dig,308,933310,0.0-87.0-0.0,,,,,,,,,,,"[{""stimulus"":""run_exp/static/images/task_images/dig.jpg"",""time"":0.24499994469806552},{""stimulus"":""run_exp/static/images/task_images/land.jpg"",""time"":800.2899999846704},{""stimulus"":""run_exp/static/images/task_images/dig.jpg"",""time"":1610.3649999713525}]",[],22,,,,,,,,,,,,,,
harvest,309,934320,0.0-87.0-1.0,,null,run_exp/static/images/task_images/gems/82.jpg,null,,,,,,59,,,22,,,,,82,0.720917872,0.719512195,,,,,,,
decision,310,934933,0.0-87.0-2.0,,611.545,run_exp/static/images/task_images/land.jpg,65,,,,,,59,,,22,,,,,,,,228799,2,1,FALSE,,,
dig,311,937345,0.0-88.0-0.0,,,,,,,,,,,"[{""stimulus"":""run_exp/static/images/task_images/dig.jpg"",""time"":0.19500002963468432},{""stimulus"":""run_exp/static/images/task_images/land.jpg"",""time"":803.2949999906123},{""stimulus"":""run_exp/static/images/task_images/dig.jpg"",""time"":1613.6249999981374}]",[],22,,,,,,,,,,,,,,
harvest,312,938350,0.0-88.0-1.0,,null,run_exp/static/images/task_images/gems/59.jpg,null,,,,,,43,,,22,,,,,59,0.724669913,0.728813559,,,,,,,
decision,313,938353,0.0-88.0-2.0,,1.794999989,run_exp/static/images/task_images/land.jpg,76,,,,,,43,,,22,,,,,,,,232219,2,2,TRUE,,,
travel,314,948360,0.0-89.0-0.0,,,,,,,,,,,"[{""stimulus"":""run_exp/static/images/task_images/rocket-01.jpg"",""time"":0.1799999736249447},{""stimulus"":""run_exp/static/images/task_images/rocket-02.jpg"",""time"":1131.554999970831},{""stimulus"":""run_exp/static/images/task_images/rocket-03.jpg"",""time"":2237.3749999678694},{""stimulus"":""run_exp/static/images/task_images/rocket-04.jpg"",""time"":3331.1399999656714},{""stimulus"":""run_exp/static/images/task_images/rocket-05.jpg"",""time"":4460.305000015069},{""stimulus"":""run_exp/static/images/task_images/rocket-06.jpg"",""time"":5560.399999958463},{""stimulus"":""run_exp/static/images/task_images/rocket-07.jpg"",""time"":6674.249999981839},{""stimulus"":""run_exp/static/images/task_images/rocket-08.jpg"",""time"":7770.9499999764375},{""stimulus"":""run_exp/static/images/task_images/rocket-09.jpg"",""time"":8890.205000003334}]",[],22,,,,,,,,,,,,,,
alien_welcome,315,953370,0.0-89.0-1.0,,null,run_exp/static/images/task_images/aliens/old_aliens/planet/alien_planet-31.jpg,null,,,,,,,,,,,,31,"47,14,28,65,27,72,38,6,22,24,62,29,48,20,39,11,37,50,56,79,75,17,31,41,68,5,46,18,60,55,71,34,66,58,10,3,26,69,2,32,54,4,67,33,30,64,44,59,23,45,49,25,12,74,19",,,,,,,,,,
land,316,953880,0.0-89.0-2.0,,null,run_exp/static/images/task_images/land.jpg,null,,,,,,102,,,23,,,,,,,,,,,,,,
dig,317,955890,0.0-89.0-3.0,,,,,,,,,,,"[{""stimulus"":""run_exp/static/images/task_images/dig.jpg"",""time"":0.31999999191612005},{""stimulus"":""run_exp/static/images/task_images/land.jpg"",""time"":677.6250000111759},{""stimulus"":""run_exp/static/images/task_images/dig.jpg"",""time"":1358.5100000491366}]",[],23,,,,,,,,,,,,,,
harvest,318,956900,0.0-89.0-4.0,,null,run_exp/static/images/task_images/gems/102.jpg,null,,,,,,82,,,23,,,,,102,0.801845113,0.803921569,,,,,,,
decision,319,957987,0.0-89.0-5.0,,1085.845,run_exp/static/images/task_images/land.jpg,65,,,,,,82,,,23,,,,,,,,251853,2,0,FALSE,,,
dig,320,959909,0.0-90.0-0.0,,,,,,,,,,,"[{""stimulus"":""run_exp/static/images/task_images/dig.jpg"",""time"":0.24500000290572643},{""stimulus"":""run_exp/static/images/task_images/land.jpg"",""time"":656.6949999541976},{""stimulus"":""run_exp/static/images/task_images/dig.jpg"",""time"":1285.8799999812618}]",[],23,,,,,,,,,,,,,,
harvest,321,960928,0.0-90.0-1.0,,null,run_exp/static/images/task_images/gems/82.jpg,null,,,,,,70,,,23,,,,,82,0.853035922,0.853658537,,,,,,,
decision,322,961075,0.0-90.0-2.0,,145.12,run_exp/static/images/task_images/land.jpg,65,,,,,,70,,,23,,,,,,,,254941,2,1,FALSE,,,
dig,323,963939,0.0-91.0-0.0,,,,,,,,,,,"[{""stimulus"":""run_exp/static/images/task_images/dig.jpg"",""time"":0.28500001644715667},{""stimulus"":""run_exp/static/images/task_images/land.jpg"",""time"":958.1499999621883},{""stimulus"":""run_exp/static/images/task_images/dig.jpg"",""time"":1908.614999963902}]",[],23,,,,,,,,,,,,,,
harvest,324,964950,0.0-91.0-1.0,,null,run_exp/static/images/task_images/gems/70.jpg,null,,,,,,61,,,23,,,,,70,0.867916602,0.871428571,,,,,,,
decision,325,965751,0.0-91.0-2.0,,800.005,run_exp/static/images/task_images/land.jpg,76,,,,,,61,,,23,,,,,,,,259617,2,2,TRUE,,,
travel,326,974970,0.0-92.0-0.0,,,,,,,,,,,"[{""stimulus"":""run_exp/static/images/task_images/rocket-01.jpg"",""time"":0.18999999156221747},{""stimulus"":""run_exp/static/images/task_images/rocket-02.jpg"",""time"":1023.189999978058},{""stimulus"":""run_exp/static/images/task_images/rocket-03.jpg"",""time"":2054.2599999462254},{""stimulus"":""run_exp/static/images/task_images/rocket-04.jpg"",""time"":3073.904999997467},{""stimulus"":""run_exp/static/images/task_images/rocket-05.jpg"",""time"":4103.659999964293},{""stimulus"":""run_exp/static/images/task_images/rocket-06.jpg"",""time"":5123.814999999013},{""stimulus"":""run_exp/static/images/task_images/rocket-07.jpg"",""time"":6134.164999995846},{""stimulus"":""run_exp/static/images/task_images/rocket-08.jpg"",""time"":7173.694999946747},{""stimulus"":""run_exp/static/images/task_images/rocket-09.jpg"",""time"":8183.634999964852}]",[],23,,,,,,,,,,,,,,
alien_welcome,327,979985,0.0-92.0-1.0,,null,run_exp/static/images/task_images/aliens/old_aliens/planet/alien_planet-41.jpg,null,,,,,,,,,,,,41,"47,14,28,65,27,72,38,6,22,24,62,29,48,20,39,11,37,50,56,79,75,17,31,41,68,5,46,18,60,55,71,34,66,58,10,3,26,69,2,32,54,4,67,33,30,64,44,59,23,45,49,25,12,74,19",,,,,,,,,,
land,328,980490,0.0-92.0-2.0,,null,run_exp/static/images/task_images/land.jpg,null,,,,,,100,,,24,,,,,,,,,,,,,,
dig,329,982500,0.0-92.0-3.0,,,,,,,,,,,"[{""stimulus"":""run_exp/static/images/task_images/dig.jpg"",""time"":0.3250000299885869},{""stimulus"":""run_exp/static/images/task_images/land.jpg"",""time"":677.6500000269152},{""stimulus"":""run_exp/static/images/task_images/dig.jpg"",""time"":1342.1350000426173}]",[],24,,,,,,,,,,,,,,
harvest,330,983505,0.0-92.0-4.0,,null,run_exp/static/images/task_images/gems/100.jpg,null,,,,,,17,,,24,,,,,100,0.172040718,0.17,,,,,,,
decision,331,983912,0.0-92.0-5.0,,405.205,run_exp/static/images/task_images/land.jpg,65,,,,,,17,,,24,,,,,,,,277778,2,0,FALSE,,,
dig,332,986520,0.0-93.0-0.0,,,,,,,,,,,"[{""stimulus"":""run_exp/static/images/task_images/dig.jpg"",""time"":0.12499996228143573},{""stimulus"":""run_exp/static/images/task_images/land.jpg"",""time"":883.6799999698997},{""stimulus"":""run_exp/static/images/task_images/dig.jpg"",""time"":1733.6049999576062}]",[],24,,,,,,,,,,,,,,
harvest,333,987540,0.0-93.0-1.0,,null,run_exp/static/images/task_images/gems/17.jpg,null,,,,,,3,,,24,,,,,17,0.1670809,0.176470588,,,,,,,
decision,334,988120,0.0-93.0-2.0,,577.62,run_exp/static/images/task_images/land.jpg,76,,,,,,3,,,24,,,,,,,,281986,2,1,TRUE,,,
travel,335,997560,0.0-94.0-0.0,,,,,,,,,,,"[{""stimulus"":""run_exp/static/images/task_images/rocket-01.jpg"",""time"":0.2550000208429992},{""stimulus"":""run_exp/static/images/task_images/rocket-02.jpg"",""time"":1054.3549999711104},{""stimulus"":""run_exp/static/images/task_images/rocket-03.jpg"",""time"":2093.7249999842606},{""stimulus"":""run_exp/static/images/task_images/rocket-04.jpg"",""time"":3144.3100000033155},{""stimulus"":""run_exp/static/images/task_images/rocket-05.jpg"",""time"":4193.389999971259},{""stimulus"":""run_exp/static/images/task_images/rocket-06.jpg"",""time"":5243.450000009034},{""stimulus"":""run_exp/static/images/task_images/rocket-07.jpg"",""time"":6293.735000013839},{""stimulus"":""run_exp/static/images/task_images/rocket-08.jpg"",""time"":7324.24499996705},{""stimulus"":""run_exp/static/images/task_images/rocket-09.jpg"",""time"":8373.870000010356}]",[],24,,,,,,,,,,,,,,
alien_welcome,336,1002570,0.0-94.0-1.0,,null,run_exp/static/images/task_images/aliens/old_aliens/planet/alien_planet-68.jpg,null,,,,,,,,,,,,68,"47,14,28,65,27,72,38,6,22,24,62,29,48,20,39,11,37,50,56,79,75,17,31,41,68,5,46,18,60,55,71,34,66,58,10,3,26,69,2,32,54,4,67,33,30,64,44,59,23,45,49,25,12,74,19",,,,,,,,,,
land,337,1003080,0.0-94.0-2.0,,null,run_exp/static/images/task_images/land.jpg,null,,,,,,109,,,25,,,,,,,,,,,,,,
dig,338,1005090,0.0-94.0-3.0,,,,,,,,,,,"[{""stimulus"":""run_exp/static/images/task_images/dig.jpg"",""time"":0.3399999695830047},{""stimulus"":""run_exp/static/images/task_images/land.jpg"",""time"":678.4399999887682},{""stimulus"":""run_exp/static/images/task_images/dig.jpg"",""time"":1338.3299999986775}]",[],25,,,,,,,,,,,,,,
harvest,339,1006105,0.0-94.0-4.0,,null,run_exp/static/images/task_images/gems/109.jpg,null,,,,,,20,,,25,,,,,109,0.185649113,0.183486239,,,,,,,
decision,340,1006649,0.0-94.0-5.0,,542.27,run_exp/static/images/task_images/land.jpg,65,,,,,,20,,,25,,,,,,,,300515,2,0,TRUE,,,
end_of_block_continue,341,1015453,0.0-95.0-0.0,,8799.665,run_exp/static/audio/clip_32_block_end.m4a,,,,,,0,,,,,,,,,,,,,,,,,,
alien_welcome,342,1020471,0.0-96.0-0.0,,null,run_exp/static/images/task_images/aliens/old_aliens/planet/alien_planet-5.jpg,null,,,,,,,,,,,,5,"47,14,28,65,27,72,38,6,22,24,62,29,48,20,39,11,37,50,56,79,75,17,31,41,68,5,46,18,60,55,71,34,66,58,10,3,26,69,2,32,54,4,67,33,30,64,44,59,23,45,49,25,12,74,19",,,,,,,,,,
land,343,1020980,0.0-96.0-1.0,,null,run_exp/static/images/task_images/land.jpg,null,,,,,,108,,,26,,,,,,,,,,,,,,
dig,344,1022990,0.0-96.0-2.0,,,,,,,,,,,"[{""stimulus"":""run_exp/static/images/task_images/dig.jpg"",""time"":0.30999997397884727},{""stimulus"":""run_exp/static/images/task_images/land.jpg"",""time"":688.6799999629147},{""stimulus"":""run_exp/static/images/task_images/dig.jpg"",""time"":1335.8949999674223}]",[],26,,,,,,,,,,,,,,
harvest,345,1024000,0.0-96.0-3.0,,null,run_exp/static/images/task_images/gems/108.jpg,null,,,,,,57,,,26,,,,,108,0.530083523,0.527777778,,,,,,,
decision,346,1024916,0.0-96.0-4.0,,914.09,run_exp/static/images/task_images/land.jpg,65,,,,,,57,,,26,,,,,,,,9461,3,0,FALSE,,,
dig,347,1027010,0.0-97.0-0.0,,,,,,,,,,,"[{""stimulus"":""run_exp/static/images/task_images/dig.jpg"",""time"":0.2549999626353383},{""stimulus"":""run_exp/static/images/task_images/land.jpg"",""time"":706.7699999897741},{""stimulus"":""run_exp/static/images/task_images/dig.jpg"",""time"":1401.1699999682605}]",[],26,,,,,,,,,,,,,,
harvest,348,1028021,0.0-97.0-1.0,,null,run_exp/static/images/task_images/gems/57.jpg,null,,,,,,26,,,26,,,,,57,0.461340097,0.456140351,,,,,,,
decision,349,1028714,0.0-97.0-2.0,,691.205,run_exp/static/images/task_images/land.jpg,76,,,,,,26,,,26,,,,,,,,13259,3,1,TRUE,,,
travel,350,1038029,0.0-98.0-0.0,,,,,,,,,,,"[{""stimulus"":""run_exp/static/images/task_images/rocket-01.jpg"",""time"":0.14999997802078724},{""stimulus"":""run_exp/static/images/task_images/rocket-02.jpg"",""time"":1045.2199999708682},{""stimulus"":""run_exp/static/images/task_images/rocket-03.jpg"",""time"":2079.5599999837577},{""stimulus"":""run_exp/static/images/task_images/rocket-04.jpg"",""time"":3114.3649999867193},{""stimulus"":""run_exp/static/images/task_images/rocket-05.jpg"",""time"":4140.07500000298},{""stimulus"":""run_exp/static/images/task_images/rocket-06.jpg"",""time"":5171.094999997877},{""stimulus"":""run_exp/static/images/task_images/rocket-07.jpg"",""time"":6209.834999986924},{""stimulus"":""run_exp/static/images/task_images/rocket-08.jpg"",""time"":7239.574999955948},{""stimulus"":""run_exp/static/images/task_images/rocket-09.jpg"",""time"":8279.479999968316}]",[],26,,,,,,,,,,,,,,
alien_welcome,351,1043050,0.0-98.0-1.0,,null,run_exp/static/images/task_images/aliens/old_aliens/planet/alien_planet-46.jpg,null,,,,,,,,,,,,46,"47,14,28,65,27,72,38,6,22,24,62,29,48,20,39,11,37,50,56,79,75,17,31,41,68,5,46,18,60,55,71,34,66,58,10,3,26,69,2,32,54,4,67,33,30,64,44,59,23,45,49,25,12,74,19",,,,,,,,,,
land,352,1043560,0.0-98.0-2.0,,null,run_exp/static/images/task_images/land.jpg,null,,,,,,102,,,27,,,,,,,,,,,,,,
dig,353,1045570,0.0-98.0-3.0,,,,,,,,,,,"[{""stimulus"":""run_exp/static/images/task_images/dig.jpg"",""time"":0.3700000233948231},{""stimulus"":""run_exp/static/images/task_images/land.jpg"",""time"":677.9550000210293},{""stimulus"":""run_exp/static/images/task_images/dig.jpg"",""time"":1339.0500000095926}]",[],27,,,,,,,,,,,,,,
harvest,354,1046580,0.0-98.0-4.0,,null,run_exp/static/images/task_images/gems/102.jpg,null,,,,,,80,,,27,,,,,102,0.784736253,0.784313725,,,,,,,
decision,355,1047365,0.0-98.0-5.0,,782.62,run_exp/static/images/task_images/land.jpg,76,,,,,,80,,,27,,,,,,,,31910,3,0,TRUE,,,
travel,356,1056601,0.0-99.0-0.0,,,,,,,,,,,"[{""stimulus"":""run_exp/static/images/task_images/rocket-01.jpg"",""time"":0.2500000409781933},{""stimulus"":""run_exp/static/images/task_images/rocket-02.jpg"",""time"":1028.0900000361726},{""stimulus"":""run_exp/static/images/task_images/rocket-03.jpg"",""time"":2067.800000018906},{""stimulus"":""run_exp/static/images/task_images/rocket-04.jpg"",""time"":3077.8450000216253},{""stimulus"":""run_exp/static/images/task_images/rocket-05.jpg"",""time"":4098.120000038762},{""stimulus"":""run_exp/static/images/task_images/rocket-06.jpg"",""time"":5128.020000003744},{""stimulus"":""run_exp/static/images/task_images/rocket-07.jpg"",""time"":6148.425000021234},{""stimulus"":""run_exp/static/images/task_images/rocket-08.jpg"",""time"":7188.345000031404},{""stimulus"":""run_exp/static/images/task_images/rocket-09.jpg"",""time"":8208.165000018198}]",[],27,,,,,,,,,,,,,,
alien_welcome,357,1061621,0.0-99.0-1.0,,null,run_exp/static/images/task_images/aliens/old_aliens/planet/alien_planet-18.jpg,null,,,,,,,,,,,,18,"47,14,28,65,27,72,38,6,22,24,62,29,48,20,39,11,37,50,56,79,75,17,31,41,68,5,46,18,60,55,71,34,66,58,10,3,26,69,2,32,54,4,67,33,30,64,44,59,23,45,49,25,12,74,19",,,,,,,,,,
land,358,1062130,0.0-99.0-2.0,,null,run_exp/static/images/task_images/land.jpg,null,,,,,,96,,,28,,,,,,,,,,,,,,
dig,359,1064150,0.0-99.0-3.0,,,,,,,,,,,"[{""stimulus"":""run_exp/static/images/task_images/dig.jpg"",""time"":0.324999971780926},{""stimulus"":""run_exp/static/images/task_images/land.jpg"",""time"":668.584999977611},{""stimulus"":""run_exp/static/images/task_images/dig.jpg"",""time"":1335.4350000154227}]",[],28,,,,,,,,,,,,,,
harvest,360,1065160,0.0-99.0-4.0,,null,run_exp/static/images/task_images/gems/96.jpg,null,,,,,,49,,,28,,,,,96,0.50829888,0.510416667,,,,,,,
decision,361,1065810,0.0-99.0-5.0,,647.475,run_exp/static/images/task_images/land.jpg,65,,,,,,49,,,28,,,,,,,,50355,3,0,FALSE,,,
dig,362,1068185,0.0-100.0-0.0,,,,,,,,,,,"[{""stimulus"":""run_exp/static/images/task_images/dig.jpg"",""time"":0.1550000160932541},{""stimulus"":""run_exp/static/images/task_images/land.jpg"",""time"":794.2100000218488},{""stimulus"":""run_exp/static/images/task_images/dig.jpg"",""time"":1583.980000053998}]",[],28,,,,,,,,,,,,,,
harvest,363,1069190,0.0-100.0-1.0,,null,run_exp/static/images/task_images/gems/49.jpg,null,,,,,,26,,,28,,,,,49,0.523143835,0.530612245,,,,,,,
decision,364,1069440,0.0-100.0-2.0,,246.4,run_exp/static/images/task_images/land.jpg,76,,,,,,26,,,28,,,,,,,,53985,3,1,TRUE,,,
travel,365,1079206,0.0-101.0-0.0,,,,,,,,,,,"[{""stimulus"":""run_exp/static/images/task_images/rocket-01.jpg"",""time"":0.13000000035390258},{""stimulus"":""run_exp/static/images/task_images/rocket-02.jpg"",""time"":1104.1649999679066},{""stimulus"":""run_exp/static/images/task_images/rocket-03.jpg"",""time"":2184.514999971725},{""stimulus"":""run_exp/static/images/task_images/rocket-04.jpg"",""time"":3264.7850000066683},{""stimulus"":""run_exp/static/images/task_images/rocket-05.jpg"",""time"":4334.570000006352},{""stimulus"":""run_exp/static/images/task_images/rocket-06.jpg"",""time"":5424.505000002682},{""stimulus"":""run_exp/static/images/task_images/rocket-07.jpg"",""time"":6513.845000008587},{""stimulus"":""run_exp/static/images/task_images/rocket-08.jpg"",""time"":7594.1799999563955},{""stimulus"":""run_exp/static/images/task_images/rocket-09.jpg"",""time"":8675.194999959785}]",[],28,,,,,,,,,,,,,,
alien_welcome,366,1084221,0.0-101.0-1.0,,null,run_exp/static/images/task_images/aliens/old_aliens/planet/alien_planet-60.jpg,null,,,,,,,,,,,,60,"47,14,28,65,27,72,38,6,22,24,62,29,48,20,39,11,37,50,56,79,75,17,31,41,68,5,46,18,60,55,71,34,66,58,10,3,26,69,2,32,54,4,67,33,30,64,44,59,23,45,49,25,12,74,19",,,,,,,,,,
