trial_type,trial_index,time_elapsed,internal_node_id,interactions,blur_events,focus_events,fullscreenenter_events,fullscreenexit_events,success,rt,stimulus,key_press,prompt,subject_id,participant_id,age,gender,button_pressed,next_reward,animation_sequence,responses,planet,curr_prac_trial,n_prac_rounds,alien,aliens,reward_received,decay_rate_actual,decay_rate_exp,time_in_block,block_num,prt,last_trial_on_planet,button_html,bonus,num_failures
pavlovia,0,4,0.0-0.0,"""event"",""trial"",""time""
""fullscreenenter"",""1"",""2793""
","
","
","""event"",""trial"",""time""
""fullscreenenter"",""1"",""2793""
","
",,,,,,,,,,,,,,,,,,,,,,,,,,,,
fullscreen,1,3779,0.0-1.0,"""event"",""trial"",""time""
""fullscreenenter"",""1"",""2793""
","
","
","""event"",""trial"",""time""
""fullscreenenter"",""1"",""2793""
","
",TRUE,,,,,,,,,,,,,,,,,,,,,,,,,,,
instruc_welcome,2,13680,0.0-2.0,"""event"",""trial"",""time""
""fullscreenenter"",""1"",""2793""
","
","
","""event"",""trial"",""time""
""fullscreenenter"",""1"",""2793""
","
",,null,run_exp/static/audio/clip_1_welcome.m4a,null,"<p>Howdy! In this experiment, you’ll be an explorer traveling through space to collect space treasure.</p><p>Your mission is to collect as much treasure as possible.</p><br><br><p><img src='run_exp/static/images/task_images/opening_img-01.jpg' height='300' width='auto'></p>",12498,1124,11.6,Female,,,,,,,,,,,,,,,,,,,
audio-keyboard-response,3,30317,0.0-3.0,"""event"",""trial"",""time""
""fullscreenenter"",""1"",""2793""
","
","
","""event"",""trial"",""time""
""fullscreenenter"",""1"",""2793""
","
",,null,run_exp/static/audio/clip_2_move.m4a,null,,,,,,,,,,,,,,,,,,,,,,,,
welcome_dec,4,35556,0.0-4.0,"""event"",""trial"",""time""
""fullscreenenter"",""1"",""2793""
","
","
","""event"",""trial"",""time""
""fullscreenenter"",""1"",""2793""
","
",,5234.8,"<p>Howdy! In this experiment, you’ll be an explorer traveling through space to collect space treasure.</p><p>Your mission is to collect as much treasure as possible.</p><br><br><p><img src='run_exp/static/images/task_images/opening_img-01.jpg' height='300' width='auto'></p>",,,,,,,1,,,,,,,,,,,,,,,,,,
html-keyboard-response,5,37681,0.0-5.0,"""event"",""trial"",""time""
""fullscreenenter"",""1"",""2793""
","
","
","""event"",""trial"",""time""
""fullscreenenter"",""1"",""2793""
","
",,2122.6,"<p>Howdy! In this experiment, you’ll be an explorer traveling through space to collect space treasure.</p><p>Your mission is to collect as much treasure as possible.</p><br><br><p><img src='run_exp/static/images/task_images/opening_img-01.jpg' height='300' width='auto'></p><button class=""jspsych-html-btn-unchosen""><img src=""run_exp/static/images/task_images/planet-01.jpg"" height=""50""></button><button class=""jspsych-html-btn-chosen""><img src=""run_exp/static/images/task_images/planet-02.jpg"" height=""50""></button><p><b>[press the space bar to lock in your answer]<b><br></p>",32,,,,,,,,,,,,,,,,,,,,,,,,
instruc_goal,6,47832,0.0-6.0-0.0,"""event"",""trial"",""time""
""fullscreenenter"",""1"",""2793""
","
","
","""event"",""trial"",""time""
""fullscreenenter"",""1"",""2793""
","
",,null,run_exp/static/audio/clip_3_goal.m4a,null,"<p> As a space explorer, you’ll visit different planets to dig for space treasure, these pink gems.</p> <p> The more treasure you dig up, the more bonus money you’ll win! </p><br><br><p><img src='run_exp/static/images/task_images/pink_gem.jpg' height='300' width='auto'></p>",,,,,,,,,,,,,,,,,,,,,,,
instruc_goal,7,52461,0.0-6.0-1.0,"""event"",""trial"",""time""
""fullscreenenter"",""1"",""2793""
","
","
","""event"",""trial"",""time""
""fullscreenenter"",""1"",""2793""
","
",,4623.2,"<p> As a space explorer, you’ll visit different planets to dig for space treasure, these pink gems.</p> <p> The more treasure you dig up, the more bonus money you’ll win! </p><br><br><p><img src='run_exp/static/images/task_images/pink_gem.jpg' height='300' width='auto'></p>",,,,,,,1,,,,,,,,,,,,,,,,,,
html-keyboard-response,8,52820,0.0-6.0-2.0,"""event"",""trial"",""time""
""fullscreenenter"",""1"",""2793""
","
","
","""event"",""trial"",""time""
""fullscreenenter"",""1"",""2793""
","
",,356.6,"<p> As a space explorer, you’ll visit different planets to dig for space treasure, these pink gems.</p> <p> The more treasure you dig up, the more bonus money you’ll win! </p><br><br><p><img src='run_exp/static/images/task_images/pink_gem.jpg' height='300' width='auto'></p><button class=""jspsych-html-btn-unchosen""><img src=""run_exp/static/images/task_images/planet-01.jpg"" height=""50""></button><button class=""jspsych-html-btn-chosen""><img src=""run_exp/static/images/task_images/planet-02.jpg"" height=""50""></button><p><b>[press the space bar to lock in your answer]<b><br></p>",32,,,,,,,,,,,,,,,,,,,,,,,,
instruc_dig,9,68930,0.0-7.0-0.0,"""event"",""trial"",""time""
""fullscreenenter"",""1"",""2793""
","
","
","""event"",""trial"",""time""
""fullscreenenter"",""1"",""2793""
","
",,null,run_exp/static/audio/clip_4_dig.m4a,null,,,,,,,100,,,,,,,,,,,,,,,,,
instruc_dig_try,10,69488,0.0-7.0-1.0,"""event"",""trial"",""time""
""fullscreenenter"",""1"",""2793""
","
","
","""event"",""trial"",""time""
""fullscreenenter"",""1"",""2793""
","
",,556,"<p> When you’ve arrived at a new planet, you will dig once. </p> <p>Then, you get to decide if you want to stay on the planet and dig again or travel to a new planet and dig there.</p> <p> To stay and dig, press the letter <strong>‘A’</strong> on your keyboard. Try pressing it now! </p><p><img src='run_exp/static/images/task_images/land.jpg'  height='700' width='auto'></p>",65,"<p> When you’ve arrived at a new planet, you will dig once. </p> <p>Then, you get to decide if you want to stay on the planet and dig again or travel to a new planet and dig there.</p> <p> To stay and dig, press the letter <strong>‘A’</strong> on your keyboard. Try pressing it now! </p><p><img src='run_exp/static/images/task_images/land.jpg'  height='700' width='auto'></p>",,,,,,100,,,,,,,,,,,,,,,,,
dig_prac,11,71503,0.0-7.0-2.0,"""event"",""trial"",""time""
""fullscreenenter"",""1"",""2793""
","
","
","""event"",""trial"",""time""
""fullscreenenter"",""1"",""2793""
","
",,,,,,,,,,,,"[{""stimulus"":""run_exp/static/images/task_images/dig.jpg"",""time"":0.5},{""stimulus"":""run_exp/static/images/task_images/land.jpg"",""time"":673.8999999985099},{""stimulus"":""run_exp/static/images/task_images/dig.jpg"",""time"":1341.3999999985099}]",[],,,,,,,,,,,,,,,
instruc_travel,12,107819,0.0-7.0-3.0,"""event"",""trial"",""time""
""fullscreenenter"",""1"",""2793""
","
","
","""event"",""trial"",""time""
""fullscreenenter"",""1"",""2793""
","
",,null,run_exp/static/audio/clip_5_travel.m4a,null,"<p>Every time you dig up gems, there are less gems on the planet, so the more you dig on a planet the fewer gems you’ll get with each dig.</p><p>When gems are running low, you may want to travel to a new planet. </p> <p>  Planets are very far apart in this galaxy, so it will take some time to travel between them. </p> <br><p>There are lots and lots of planets for you to visit, so you won’t be able to return to any planets you’ve seen before. </p><br><p>To leave this planet and travel to a new one, press the letter <strong>‘L’</strong> on your keyboard. Try pressing it now! </p><p><img src='run_exp/static/images/task_images/rocket-01.jpg'  height='600' width='auto'></p>",,,,,,,,,,,,,,,,,,,,,,,
instruc_travel_try,13,108884,0.0-7.0-4.0,"""event"",""trial"",""time""
""fullscreenenter"",""1"",""2793""
","
","
","""event"",""trial"",""time""
""fullscreenenter"",""1"",""2793""
","
",,1062.7,"<p>Every time you dig up gems, there are less gems on the planet, so the more you dig on a planet the fewer gems you’ll get with each dig.</p><p>When gems are running low, you may want to travel to a new planet. </p> <p>  Planets are very far apart in this galaxy, so it will take some time to travel between them. </p> <br><p>There are lots and lots of planets for you to visit, so you won’t be able to return to any planets you’ve seen before. </p><br><p>To leave this planet and travel to a new one, press the letter <strong>‘L’</strong> on your keyboard. Try pressing it now! </p><p><img src='run_exp/static/images/task_images/rocket-01.jpg'  height='600' width='auto'></p>",76,"<p>Every time you dig up gems, there are less gems on the planet, so the more you dig on a planet the fewer gems you’ll get with each dig.</p><p>When gems are running low, you may want to travel to a new planet. </p> <p>  Planets are very far apart in this galaxy, so it will take some time to travel between them. </p> <br><p>There are lots and lots of planets for you to visit, so you won’t be able to return to any planets you’ve seen before. </p><br><p>To leave this planet and travel to a new one, press the letter <strong>‘L’</strong> on your keyboard. Try pressing it now! </p><p><img src='run_exp/static/images/task_images/rocket-01.jpg'  height='600' width='auto'></p>",,,,,,,,,,,,,,,,,,,,,,,
travel_prac,14,118892,0.0-7.0-5.0,"""event"",""trial"",""time""
""fullscreenenter"",""1"",""2793""
","
","
","""event"",""trial"",""time""
""fullscreenenter"",""1"",""2793""
","
",,,,,,,,,,,,"[{""stimulus"":""run_exp/static/images/task_images/rocket-01.jpg"",""time"":0.29999999701976776},{""stimulus"":""run_exp/static/images/task_images/rocket-02.jpg"",""time"":1116.2999999970198},{""stimulus"":""run_exp/static/images/task_images/rocket-03.jpg"",""time"":2226.10000000149},{""stimulus"":""run_exp/static/images/task_images/rocket-04.jpg"",""time"":3336.6999999955297},{""stimulus"":""run_exp/static/images/task_images/rocket-05.jpg"",""time"":4453.19999999553},{""stimulus"":""run_exp/static/images/task_images/rocket-06.jpg"",""time"":5560.89999999851},{""stimulus"":""run_exp/static/images/task_images/rocket-07.jpg"",""time"":6670},{""stimulus"":""run_exp/static/images/task_images/rocket-08.jpg"",""time"":7784.79999999702},{""stimulus"":""run_exp/static/images/task_images/rocket-09.jpg"",""time"":8897.19999999553}]",[],0,,,,,,,,,,,,,,
instruc_alien_greet,15,146112,0.0-7.0-6.0,"""event"",""trial"",""time""
""fullscreenenter"",""1"",""2793""
","
","
","""event"",""trial"",""time""
""fullscreenenter"",""1"",""2793""
","
",,null,run_exp/static/audio/clip_6_alien.m4a,null,"<p>When you arrive at a new planet, the alien who owns the treasure mine on that planet will greet you!</p><p>The better an alien takes care of their mine the easier it is to dig for gems. Some aliens take better care of their mine than others. So, you won’t get exactly the same amount of gems on each planet.</p><p>What the alien looks like does not tell you anything about how many gems there are on the planet.</p><br><p><img src=""run_exp/static/images/task_images/aliens/instructions_aliens/planet/alien_planet-1.jpg""  height=""600"" width=""auto""></p>",,,,,,,,,,,,,,,,,,,,,,,
instruc_alien_greet,16,149222,0.0-7.0-7.0,"""event"",""trial"",""time""
""fullscreenenter"",""1"",""2793""
","
","
","""event"",""trial"",""time""
""fullscreenenter"",""1"",""2793""
","
",,3106.5,"<p>When you arrive at a new planet, the alien who owns the treasure mine on that planet will greet you!</p><p>The better an alien takes care of their mine the easier it is to dig for gems. Some aliens take better care of their mine than others. So, you won’t get exactly the same amount of gems on each planet.</p><p>What the alien looks like does not tell you anything about how many gems there are on the planet.</p><br><p><img src=""run_exp/static/images/task_images/aliens/instructions_aliens/planet/alien_planet-1.jpg""  height=""600"" width=""auto""></p>",,,,,,,1,,,,,,,,,,,,,,,,,,
html-keyboard-response,17,149531,0.0-7.0-8.0,"""event"",""trial"",""time""
""fullscreenenter"",""1"",""2793""
","
","
","""event"",""trial"",""time""
""fullscreenenter"",""1"",""2793""
","
",,306.9,"<p>When you arrive at a new planet, the alien who owns the treasure mine on that planet will greet you!</p><p>The better an alien takes care of their mine the easier it is to dig for gems. Some aliens take better care of their mine than others. So, you won’t get exactly the same amount of gems on each planet.</p><p>What the alien looks like does not tell you anything about how many gems there are on the planet.</p><br><p><img src=""run_exp/static/images/task_images/aliens/instructions_aliens/planet/alien_planet-1.jpg""  height=""600"" width=""auto""></p><button class=""jspsych-html-btn-unchosen""><img src=""run_exp/static/images/task_images/planet-01.jpg"" height=""50""></button><button class=""jspsych-html-btn-chosen""><img src=""run_exp/static/images/task_images/planet-02.jpg"" height=""50""></button><p><b>[press the space bar to lock in your answer]<b><br></p>",32,,,,,,,,,,,,,,,,,,,,,,,,
time_out,18,160662,0.0-8.0-0.0,"""event"",""trial"",""time""
""fullscreenenter"",""1"",""2793""
","
","
","""event"",""trial"",""time""
""fullscreenenter"",""1"",""2793""
","
",,null,run_exp/static/audio/clip_7_timeout.m4a,null,"<p>If you don't make your choice fast enough, you’ll have to wait a few seconds before you can make another one.</p><p>You can’t dig for more gems or travel to new planets. You just have to sit and wait.</p><br><p><img src='run_exp/static/images/task_images/time_out.jpg'  height='600' width='auto'></p>",,,,,,,,,,,,,,,,,,,,,,,
time_out,19,162964,0.0-8.0-1.0,"""event"",""trial"",""time""
""fullscreenenter"",""1"",""2793""
","
","
","""event"",""trial"",""time""
""fullscreenenter"",""1"",""2793""
","
",,2297,"<p>If you don't make your choice fast enough, you’ll have to wait a few seconds before you can make another one.</p><p>You can’t dig for more gems or travel to new planets. You just have to sit and wait.</p><br><p><img src='run_exp/static/images/task_images/time_out.jpg'  height='600' width='auto'></p>",,,,,,,1,,,,,,,,,,,,,,,,,,
html-keyboard-response,20,163462,0.0-8.0-2.0,"""event"",""trial"",""time""
""fullscreenenter"",""1"",""2793""
","
","
","""event"",""trial"",""time""
""fullscreenenter"",""1"",""2793""
","
",,496.4,"<p>If you don't make your choice fast enough, you’ll have to wait a few seconds before you can make another one.</p><p>You can’t dig for more gems or travel to new planets. You just have to sit and wait.</p><br><p><img src='run_exp/static/images/task_images/time_out.jpg'  height='600' width='auto'></p><button class=""jspsych-html-btn-unchosen""><img src=""run_exp/static/images/task_images/planet-01.jpg"" height=""50""></button><button class=""jspsych-html-btn-chosen""><img src=""run_exp/static/images/task_images/planet-02.jpg"" height=""50""></button><p><b>[press the space bar to lock in your answer]<b><br></p>",32,,,,,,,,,,,,,,,,,,,,,,,,
instruc_break,21,179200,0.0-9.0-0.0,"""event"",""trial"",""time""
""fullscreenenter"",""1"",""2793""
","
","
","""event"",""trial"",""time""
""fullscreenenter"",""1"",""2793""
","
",,null,run_exp/static/audio/clip_8_break.m4a,null,"<p> After digging and traveling for a while, you’ll be able to take a break at home base. </p><p>The game will last 20 minutes no matter what.</p><p>You will visit home base every 5 minutes, so, you will visit home base three times during the game.</p><br><p><img src='run_exp/static/images/task_images/home_base.jpg' height='600' width='auto'></p>",,,,,,,,,,,,,,,,,,,,,,,
instruc_break,22,182156,0.0-9.0-1.0,"""event"",""trial"",""time""
""fullscreenenter"",""1"",""2793""
","
","
","""event"",""trial"",""time""
""fullscreenenter"",""1"",""2793""
","
",,2952.5,"<p> After digging and traveling for a while, you’ll be able to take a break at home base. </p><p>The game will last 20 minutes no matter what.</p><p>You will visit home base every 5 minutes, so, you will visit home base three times during the game.</p><br><p><img src='run_exp/static/images/task_images/home_base.jpg' height='600' width='auto'></p>",,,,,,,1,,,,,,,,,,,,,,,,,,
html-keyboard-response,23,182474,0.0-9.0-2.0,"""event"",""trial"",""time""
""fullscreenenter"",""1"",""2793""
","
","
","""event"",""trial"",""time""
""fullscreenenter"",""1"",""2793""
","
",,316.6,"<p> After digging and traveling for a while, you’ll be able to take a break at home base. </p><p>The game will last 20 minutes no matter what.</p><p>You will visit home base every 5 minutes, so, you will visit home base three times during the game.</p><br><p><img src='run_exp/static/images/task_images/home_base.jpg' height='600' width='auto'></p><button class=""jspsych-html-btn-unchosen""><img src=""run_exp/static/images/task_images/planet-01.jpg"" height=""50""></button><button class=""jspsych-html-btn-chosen""><img src=""run_exp/static/images/task_images/planet-02.jpg"" height=""50""></button><p><b>[press the space bar to lock in your answer]<b><br></p>",32,,,,,,,,,,,,,,,,,,,,,,,,
instruc_prac_game,24,192681,0.0-10.0-0.0,"""event"",""trial"",""time""
""fullscreenenter"",""1"",""2793""
","
","
","""event"",""trial"",""time""
""fullscreenenter"",""1"",""2793""
","
",,null,run_exp/static/audio/clip_9_practice.m4a,null,"<p> Are you ready to play a practice game? </p> <p>In this practice game, you'll be digging up barrels of gems. But, in the real game, you'll be digging up the gems themselves. </p>",,,,,,,,,,,,,,,,,,,,,,,
html-button-response,25,193750,0.0-10.0-1.0,"""event"",""trial"",""time""
""fullscreenenter"",""1"",""2793""
","
","
","""event"",""trial"",""time""
""fullscreenenter"",""1"",""2793""
","
",,1067.3,"<p> Are you ready to play a practice game? </p> <p>In this practice game, you'll be digging up barrels of gems. But, in the real game, you'll be digging up the gems themselves. </p>",,,,,,,0,,,,,,,,,,,,,,,,,,
alien_welcome_prac,26,198758,0.0-11.0-0.0,"""event"",""trial"",""time""
""fullscreenenter"",""1"",""2793""
","
","
","""event"",""trial"",""time""
""fullscreenenter"",""1"",""2793""
","
",,null,run_exp/static/images/task_images/aliens/practice_aliens/planet/alien_planet-5.jpg,null,,,,,,,,,,,,,,,,,,,,,,,,
land_prac,27,199266,0.0-11.0-1.0,"""event"",""trial"",""time""
""fullscreenenter"",""1"",""2793""
","
","
","""event"",""trial"",""time""
""fullscreenenter"",""1"",""2793""
","
",,null,run_exp/static/images/task_images/land.jpg,null,,,,,,,95,,,0,,,,,,,,,,,,,,
dig_prac,28,201275,0.0-11.0-2.0,"""event"",""trial"",""time""
""fullscreenenter"",""1"",""2793""
","
","
","""event"",""trial"",""time""
""fullscreenenter"",""1"",""2793""
","
",,,,,,,,,,,,"[{""stimulus"":""run_exp/static/images/task_images/dig.jpg"",""time"":0.30000000447034836},{""stimulus"":""run_exp/static/images/task_images/land.jpg"",""time"":676.3000000044703},{""stimulus"":""run_exp/static/images/task_images/dig.jpg"",""time"":1339.3999999985099}]",[],,,,,,,,,,,,,,,
harvest_prac,29,202281,0.0-11.0-3.0,"""event"",""trial"",""time""
""fullscreenenter"",""1"",""2793""
","
","
","""event"",""trial"",""time""
""fullscreenenter"",""1"",""2793""
","
",,null,run_exp/static/images/task_images/barrel_text.jpg,null,,,,,,,,,,,,,,,,,,,,,,,,
decision_prac,30,202846,0.0-11.0-4.0,"""event"",""trial"",""time""
""fullscreenenter"",""1"",""2793""
","
","
","""event"",""trial"",""time""
""fullscreenenter"",""1"",""2793""
","
",,562.9,run_exp/static/images/task_images/land.jpg,65,,,,,,,,,,,1,,,,,,,,,,,,,
dig_prac,31,204857,0.0-12.0-0.0,"""event"",""trial"",""time""
""fullscreenenter"",""1"",""2793""
","
","
","""event"",""trial"",""time""
""fullscreenenter"",""1"",""2793""
","
",,,,,,,,,,,,"[{""stimulus"":""run_exp/static/images/task_images/dig.jpg"",""time"":0.29999999701976776},{""stimulus"":""run_exp/static/images/task_images/land.jpg"",""time"":669.5999999940395},{""stimulus"":""run_exp/static/images/task_images/dig.jpg"",""time"":1339.6999999955297}]",[],,,,,,,,,,,,,,,
harvest_prac,32,205863,0.0-12.0-1.0,"""event"",""trial"",""time""
""fullscreenenter"",""1"",""2793""
","
","
","""event"",""trial"",""time""
""fullscreenenter"",""1"",""2793""
","
",,null,run_exp/static/images/task_images/barrel_text.jpg,null,,,,,,,,,,,,,,,,,,,,,,,,
decision_prac,33,206292,0.0-12.0-2.0,"""event"",""trial"",""time""
""fullscreenenter"",""1"",""2793""
","
","
","""event"",""trial"",""time""
""fullscreenenter"",""1"",""2793""
","
",,427.4,run_exp/static/images/task_images/land.jpg,65,,,,,,,,,,,2,,,,,,,,,,,,,
dig_prac,34,208302,0.0-13.0-0.0,"""event"",""trial"",""time""
""fullscreenenter"",""1"",""2793""
","
","
","""event"",""trial"",""time""
""fullscreenenter"",""1"",""2793""
","
",,,,,,,,,,,,"[{""stimulus"":""run_exp/static/images/task_images/dig.jpg"",""time"":0.30000000447034836},{""stimulus"":""run_exp/static/images/task_images/land.jpg"",""time"":669.4000000059605},{""stimulus"":""run_exp/static/images/task_images/dig.jpg"",""time"":1336.5}]",[],,,,,,,,,,,,,,,
harvest_prac,35,209311,0.0-13.0-1.0,"""event"",""trial"",""time""
""fullscreenenter"",""1"",""2793""
","
","
","""event"",""trial"",""time""
""fullscreenenter"",""1"",""2793""
","
",,null,run_exp/static/images/task_images/barrel_text.jpg,null,,,,,,,,,,,,,,,,,,,,,,,,
decision_prac,36,210308,0.0-13.0-2.0,"""event"",""trial"",""time""
""fullscreenenter"",""1"",""2793""
","
","
","""event"",""trial"",""time""
""fullscreenenter"",""1"",""2793""
","
",,995.7,run_exp/static/images/task_images/land.jpg,76,,,,,,,,,,,3,,,,,,,,,,,,,
travel,37,219314,0.0-14.0-0.0,"""event"",""trial"",""time""
""fullscreenenter"",""1"",""2793""
","
","
","""event"",""trial"",""time""
""fullscreenenter"",""1"",""2793""
","
",,,,,,,,,,,,"[{""stimulus"":""run_exp/static/images/task_images/rocket-01.jpg"",""time"":0.30000000447034836},{""stimulus"":""run_exp/static/images/task_images/rocket-02.jpg"",""time"":1006.2000000029802},{""stimulus"":""run_exp/static/images/task_images/rocket-03.jpg"",""time"":2008.9000000059605},{""stimulus"":""run_exp/static/images/task_images/rocket-04.jpg"",""time"":3006.4000000059605},{""stimulus"":""run_exp/static/images/task_images/rocket-05.jpg"",""time"":4002.8000000044703},{""stimulus"":""run_exp/static/images/task_images/rocket-06.jpg"",""time"":5004.9000000059605},{""stimulus"":""run_exp/static/images/task_images/rocket-07.jpg"",""time"":6005.20000000298},{""stimulus"":""run_exp/static/images/task_images/rocket-08.jpg"",""time"":7009.60000000149},{""stimulus"":""run_exp/static/images/task_images/rocket-09.jpg"",""time"":8004.60000000149}]",[],0,,,,,,,,,,,,,,
alien_welcome_prac,38,224321,0.0-14.0-1.0,"""event"",""trial"",""time""
""fullscreenenter"",""1"",""2793""
","
","
","""event"",""trial"",""time""
""fullscreenenter"",""1"",""2793""
","
",,null,run_exp/static/images/task_images/aliens/practice_aliens/planet/alien_planet-4.jpg,null,,,,,,,,,,,,,,,,,,,,,,,,
land_prac,39,224825,0.0-14.0-2.0,"""event"",""trial"",""time""
""fullscreenenter"",""1"",""2793""
","
","
","""event"",""trial"",""time""
""fullscreenenter"",""1"",""2793""
","
",,null,run_exp/static/images/task_images/land.jpg,null,,,,,,,100,,,0,,,,,,,,,,,,,,
dig_prac,40,226833,0.0-14.0-3.0,"""event"",""trial"",""time""
""fullscreenenter"",""1"",""2793""
","
","
","""event"",""trial"",""time""
""fullscreenenter"",""1"",""2793""
","
",,,,,,,,,,,,"[{""stimulus"":""run_exp/static/images/task_images/dig.jpg"",""time"":0.3999999985098839},{""stimulus"":""run_exp/static/images/task_images/land.jpg"",""time"":676.8999999985099},{""stimulus"":""run_exp/static/images/task_images/dig.jpg"",""time"":1336.8000000044703}]",[],,,,,,,,,,,,,,,
harvest_prac,41,227836,0.0-14.0-4.0,"""event"",""trial"",""time""
""fullscreenenter"",""1"",""2793""
","
","
","""event"",""trial"",""time""
""fullscreenenter"",""1"",""2793""
","
",,null,run_exp/static/images/task_images/barrel_text.jpg,null,,,,,,,,,,,,,,,,,,,,,,,,
decision_prac,42,228307,0.0-14.0-5.0,"""event"",""trial"",""time""
""fullscreenenter"",""1"",""2793""
","
","
","""event"",""trial"",""time""
""fullscreenenter"",""1"",""2793""
","
",,469.2,run_exp/static/images/task_images/land.jpg,65,,,,,,,,,,,4,,,,,,,,,,,,,
dig_prac,43,230319,0.0-15.0-0.0,"""event"",""trial"",""time""
""fullscreenenter"",""1"",""2793""
","
","
","""event"",""trial"",""time""
""fullscreenenter"",""1"",""2793""
","
",,,,,,,,,,,,"[{""stimulus"":""run_exp/static/images/task_images/dig.jpg"",""time"":0.20000000298023224},{""stimulus"":""run_exp/static/images/task_images/land.jpg"",""time"":673.8000000044703},{""stimulus"":""run_exp/static/images/task_images/dig.jpg"",""time"":1336.1000000014901}]",[],,,,,,,,,,,,,,,
harvest_prac,44,231329,0.0-15.0-1.0,"""event"",""trial"",""time""
""fullscreenenter"",""1"",""2793""
","
","
","""event"",""trial"",""time""
""fullscreenenter"",""1"",""2793""
","
",,null,run_exp/static/images/task_images/barrel_text.jpg,null,,,,,,,,,,,,,,,,,,,,,,,,
decision_prac,45,231690,0.0-15.0-2.0,"""event"",""trial"",""time""
""fullscreenenter"",""1"",""2793""
","
","
","""event"",""trial"",""time""
""fullscreenenter"",""1"",""2793""
","
",,359.9,run_exp/static/images/task_images/land.jpg,65,,,,,,,,,,,,1,,,,,,,,,,,,
quiz_instruc,46,234391,0.0-16.0-0.0,"""event"",""trial"",""time""
""fullscreenenter"",""1"",""2793""
","
","
","""event"",""trial"",""time""
""fullscreenenter"",""1"",""2793""
","
",,2696.2,run_exp/static/audio/clip_10_quiz.m4a,,,,,,,0,,,,,,,,,,,,,,,,,,
instruc_repeat,47,277200,0.0-16.0-1.0,"""event"",""trial"",""time""
""fullscreenenter"",""1"",""2793""
","
","
","""event"",""trial"",""time""
""fullscreenenter"",""1"",""2793""
","
",,null,"<p> Are you ready to play a practice game? </p> <p>In this practice game, you'll be digging up barrels of gems. But, in the real game, you'll be digging up the gems themselves. </p>",null,"<p>In this game, your goal is to collect as many gems as you can. That’s how you will win bonus money. </p> <p>The entire game will last 20 minutes no matter how many gems you collect or how many planets you visit. </p><p>To stay on a planet and dig again, press the letter A on your keyboard. To leave for a new planet, press the letter L.</p><p>The more you dig on a planet, the fewer gems you’ll get with each dig which is why you might consider leaving for a new planet. </p><p>When you arrive at a new planet, you’ll be greeted by an alien. What the alien looks like does not tell you anything about how much treasure is on the planet. </p>",,,,,,,,,,,,,,,,,,,,,,,
instruc_repeat_continue,48,278545,0.0-16.0-2.0,"""event"",""trial"",""time""
""fullscreenenter"",""1"",""2793""
","
","
","""event"",""trial"",""time""
""fullscreenenter"",""1"",""2793""
","
",,1343.8,"<p> Are you ready to play a practice game? </p> <p>In this practice game, you'll be digging up barrels of gems. But, in the real game, you'll be digging up the gems themselves. </p>",,,,,,,0,,,,,,,,,,,,,,,,,,
quiz_q_1_ask,49,283374,0.0-16.0-3.0,"""event"",""trial"",""time""
""fullscreenenter"",""1"",""2793""
","
","
","""event"",""trial"",""time""
""fullscreenenter"",""1"",""2793""
","
",,4824.3,run_exp/static/audio/clip_11_q1_ask.m4a,,,,,,,2,,,,,,,,,,,,,,,,,,
quiz_q_1_fb_correct,50,287248,0.0-17.0-0.0,"""event"",""trial"",""time""
""fullscreenenter"",""1"",""2793""
","
","
","""event"",""trial"",""time""
""fullscreenenter"",""1"",""2793""
","
",,null,run_exp/static/audio/clip_12_q1_correct.m4a,null,<p>That’s correct. You win extra money by collecting more gems.</p>,,,,,,,,,,,,,,,,,,,,,,,
quiz_q_2_ask,51,289682,0.0-17.0-1.0,"""event"",""trial"",""time""
""fullscreenenter"",""1"",""2793""
","
","
","""event"",""trial"",""time""
""fullscreenenter"",""1"",""2793""
","
",,2429.5,run_exp/static/audio/clip_14_q2_ask.m4a,,,,,,,1,,,,,,,,,,,,,,,,,,
quiz_q_2_fb_correct,52,293734,0.0-18.0-0.0,"""event"",""trial"",""time""
""fullscreenenter"",""1"",""2793""
","
","
","""event"",""trial"",""time""
""fullscreenenter"",""1"",""2793""
","
",,null,run_exp/static/audio/clip_15_q2_correct.m4a,null,<p>That’s correct. The experiment is 20 minutes no matter what.</p>,,,,,,,,,,,,,,,,,,,,,,,
quiz_q_3_ask,53,296366,0.0-18.0-1.0,"""event"",""trial"",""time""
""fullscreenenter"",""1"",""2793""
","
","
","""event"",""trial"",""time""
""fullscreenenter"",""1"",""2793""
","
",,2630.4,run_exp/static/audio/clip_17_q3_ask.m4a,,,,,,,1,,,,,,,,,,,,,,,,,,
quiz_q_3_fb_correct,54,300369,0.0-19.0-0.0,"""event"",""trial"",""time""
""fullscreenenter"",""1"",""2793""
","
","
","""event"",""trial"",""time""
""fullscreenenter"",""1"",""2793""
","
",,null,run_exp/static/audio/clip_18_q3_correct.m4a,null,<p> That’s correct. You press the letter L to travel to a new planet.</p>,,,,,,,,,,,,,,,,,,,,,,,
quiz_q_4_ask,55,304823,0.0-19.0-1.0,"""event"",""trial"",""time""
""fullscreenenter"",""1"",""2793""
","
","
","""event"",""trial"",""time""
""fullscreenenter"",""1"",""2793""
","
",,4452,run_exp/static/audio/clip_20_q4_ask.m4a,,,,,,,0,,,,,,,,,,,,,,,,,,
quiz_q_4_fb_correct,56,310140,0.0-20.0-0.0,"""event"",""trial"",""time""
""fullscreenenter"",""1"",""2793""
","
","
","""event"",""trial"",""time""
""fullscreenenter"",""1"",""2793""
","
",,null,run_exp/static/audio/clip_21_q4_correct.m4a,null,<p> That’s correct. The more you dig on a planet the fewer gems you’ll get with each dig. </p>,,,,,,,,,,,,,,,,,,,,,,,
quiz_q_5_ask,57,312497,0.0-20.0-1.0,"""event"",""trial"",""time""
""fullscreenenter"",""1"",""2793""
","
","
","""event"",""trial"",""time""
""fullscreenenter"",""1"",""2793""
","
",,2353.4,run_exp/static/audio/clip_23_q5_ask.m4a,,,,,,,1,,,,,,,,,,,,,,,,,,
quiz_q_5_fb_correct,58,317540,0.0-21.0-0.0,"""event"",""trial"",""time""
""fullscreenenter"",""1"",""2793""
","
","
","""event"",""trial"",""time""
""fullscreenenter"",""1"",""2793""
","
",,null,run_exp/static/audio/clip_24_q5_correct.m4a,null,<p> That’s correct. The alien tells you nothing about how much treasure is on the planet.</p>,,,,,,,,,,,,,,,,,,,,,,,
quiz_correct,59,320996,0.0-22.0-0.0,"""event"",""trial"",""time""
""fullscreenenter"",""1"",""2793""
","
","
","""event"",""trial"",""time""
""fullscreenenter"",""1"",""2793""
","
",,null,run_exp/static/audio/clip_26_correct_quiz.m4a,null,,,,,,,,,,,,,,,,,,,,,,,,
quiz_correct_continue,60,322428,0.0-22.0-1.0,"""event"",""trial"",""time""
""fullscreenenter"",""1"",""2793""
","
","
","""event"",""trial"",""time""
""fullscreenenter"",""1"",""2793""
","
",,1430,<p>Good job! You're now ready to move on to the real game!</p>,,,,,,,0,,,,,,,,,,,,,,,,,,
audio-keyboard-response,61,332603,0.0-22.0-2.0,"""event"",""trial"",""time""
""fullscreenenter"",""1"",""2793""
","
","
","""event"",""trial"",""time""
""fullscreenenter"",""1"",""2793""
","
",,null,run_exp/static/audio/clip_28_real_game.m4a,null,,,,,,,,,,,,,,,,,,,,,,,,
instruc_begin_exp_contine,62,334425,0.0-22.0-3.0,"""event"",""trial"",""time""
""fullscreenenter"",""1"",""2793""
","
","
","""event"",""trial"",""time""
""fullscreenenter"",""1"",""2793""
","
",,1820.5,"<p>Now that you know how  to dig for space treasure and travel to new planets,you can start exploring! </p><p>Do you want to go over the instructions again or get started with the real game?</p>",,,,,,,1,,,,,,1,,,,,,,,,,,,
alien_welcome,63,339434,0.0-23.0-0.0,"""event"",""trial"",""time""
""fullscreenenter"",""1"",""2793""
","
","
","""event"",""trial"",""time""
""fullscreenenter"",""1"",""2793""
","
",,null,run_exp/static/images/task_images/aliens/old_aliens/planet/alien_planet-24.jpg,null,,,,,,,,,,,,,24,"24,76,13,45,29,42,63,38,49,60,48,22,1,18,71,47,37,58,43,75,30,54,53,56,11,64,27,80,15,10,21,73,35,55,67,51,39,25,28,66",,,,,,,,,,
land,64,339941,0.0-23.0-1.0,"""event"",""trial"",""time""
""fullscreenenter"",""1"",""2793""
","
","
","""event"",""trial"",""time""
""fullscreenenter"",""1"",""2793""
","
",,null,run_exp/static/images/task_images/land.jpg,null,,,,,,,97,,,1,,,,,,,,,,,,,,
dig,65,341950,0.0-23.0-2.0,"""event"",""trial"",""time""
""fullscreenenter"",""1"",""2793""
","
","
","""event"",""trial"",""time""
""fullscreenenter"",""1"",""2793""
","
",,,,,,,,,,,,"[{""stimulus"":""run_exp/static/images/task_images/dig.jpg"",""time"":0.5},{""stimulus"":""run_exp/static/images/task_images/land.jpg"",""time"":669.6000000014901},{""stimulus"":""run_exp/static/images/task_images/dig.jpg"",""time"":1339.3999999985099}]",[],1,,,,,,,,,,,,,,
harvest,66,342957,0.0-23.0-3.0,"""event"",""trial"",""time""
""fullscreenenter"",""1"",""2793""
","
","
","""event"",""trial"",""time""
""fullscreenenter"",""1"",""2793""
","
",,null,run_exp/static/images/task_images/gems/97.jpg,null,,,,,,,21,,,1,,,,,97,0.221374478,0.216494845,,,,,,,
decision,67,343455,0.0-23.0-4.0,"""event"",""trial"",""time""
""fullscreenenter"",""1"",""2793""
","
","
","""event"",""trial"",""time""
""fullscreenenter"",""1"",""2793""
","
",,495.1,run_exp/static/images/task_images/land.jpg,65,,,,,,,21,,,1,,,,,,,,9027,1,0,FALSE,,,
dig,68,345970,0.0-24.0-0.0,"""event"",""trial"",""time""
""fullscreenenter"",""1"",""2793""
","
","
","""event"",""trial"",""time""
""fullscreenenter"",""1"",""2793""
","
",,,,,,,,,,,,"[{""stimulus"":""run_exp/static/images/task_images/dig.jpg"",""time"":0.6000000014901161},{""stimulus"":""run_exp/static/images/task_images/land.jpg"",""time"":842.5},{""stimulus"":""run_exp/static/images/task_images/dig.jpg"",""time"":1677.7000000029802}]",[],1,,,,,,,,,,,,,,
harvest,69,346978,0.0-24.0-1.0,"""event"",""trial"",""time""
""fullscreenenter"",""1"",""2793""
","
","
","""event"",""trial"",""time""
""fullscreenenter"",""1"",""2793""
","
",,null,run_exp/static/images/task_images/gems/21.jpg,null,,,,,,,6,,,1,,,,,21,0.274559277,0.285714286,,,,,,,
decision,70,347258,0.0-24.0-2.0,"""event"",""trial"",""time""
""fullscreenenter"",""1"",""2793""
","
","
","""event"",""trial"",""time""
""fullscreenenter"",""1"",""2793""
","
",,277.3,run_exp/static/images/task_images/land.jpg,65,,,,,,,6,,,1,,,,,,,,12830,1,1,FALSE,,,
dig,71,349987,0.0-25.0-0.0,"""event"",""trial"",""time""
""fullscreenenter"",""1"",""2793""
","
","
","""event"",""trial"",""time""
""fullscreenenter"",""1"",""2793""
","
",,,,,,,,,,,,"[{""stimulus"":""run_exp/static/images/task_images/dig.jpg"",""time"":0.29999999701976776},{""stimulus"":""run_exp/static/images/task_images/land.jpg"",""time"":912.0999999940395},{""stimulus"":""run_exp/static/images/task_images/dig.jpg"",""time"":1823}]",[],1,,,,,,,,,,,,,,
harvest,72,350993,0.0-25.0-1.0,"""event"",""trial"",""time""
""fullscreenenter"",""1"",""2793""
","
","
","""event"",""trial"",""time""
""fullscreenenter"",""1"",""2793""
","
",,null,run_exp/static/images/task_images/gems/6.jpg,null,,,,,,,1,,,1,,,,,6,0.152793398,0.166666667,,,,,,,
decision,73,351399,0.0-25.0-2.0,"""event"",""trial"",""time""
""fullscreenenter"",""1"",""2793""
","
","
","""event"",""trial"",""time""
""fullscreenenter"",""1"",""2793""
","
",,404.4,run_exp/static/images/task_images/land.jpg,65,,,,,,,1,,,1,,,,,,,,16971,1,2,FALSE,,,
dig,74,353999,0.0-26.0-0.0,"""event"",""trial"",""time""
""fullscreenenter"",""1"",""2793""
","
","
","""event"",""trial"",""time""
""fullscreenenter"",""1"",""2793""
","
",,,,,,,,,,,,"[{""stimulus"":""run_exp/static/images/task_images/dig.jpg"",""time"":0.29999999701976776},{""stimulus"":""run_exp/static/images/task_images/land.jpg"",""time"":869.7000000029802},{""stimulus"":""run_exp/static/images/task_images/dig.jpg"",""time"":1735.6000000014901}]",[],1,,,,,,,,,,,,,,
harvest,75,355004,0.0-26.0-1.0,"""event"",""trial"",""time""
""fullscreenenter"",""1"",""2793""
","
","
","""event"",""trial"",""time""
""fullscreenenter"",""1"",""2793""
","
",,null,run_exp/static/images/task_images/gems/1.jpg,null,,,,,,,0,,,1,,,,,1,0.167701135,0,,,,,,,
decision,76,355463,0.0-26.0-2.0,"""event"",""trial"",""time""
""fullscreenenter"",""1"",""2793""
","
","
","""event"",""trial"",""time""
""fullscreenenter"",""1"",""2793""
","
",,457,run_exp/static/images/task_images/land.jpg,65,,,,,,,0,,,1,,,,,,,,21035,1,3,FALSE,,,
dig,77,358013,0.0-27.0-0.0,"""event"",""trial"",""time""
""fullscreenenter"",""1"",""2793""
","
","
","""event"",""trial"",""time""
""fullscreenenter"",""1"",""2793""
","
",,,,,,,,,,,,"[{""stimulus"":""run_exp/static/images/task_images/dig.jpg"",""time"":0.20000000298023224},{""stimulus"":""run_exp/static/images/task_images/land.jpg"",""time"":855.8999999985099},{""stimulus"":""run_exp/static/images/task_images/dig.jpg"",""time"":1700.1000000014901}]",[],1,,,,,,,,,,,,,,
harvest,78,359019,0.0-27.0-1.0,"""event"",""trial"",""time""
""fullscreenenter"",""1"",""2793""
","
","
","""event"",""trial"",""time""
""fullscreenenter"",""1"",""2793""
","
",,null,run_exp/static/images/task_images/gems/0.jpg,null,,,,,,,0,,,1,,,,,0,0.222598992,NaN,,,,,,,
decision,79,360435,0.0-27.0-2.0,"""event"",""trial"",""time""
""fullscreenenter"",""1"",""2793""
","
","
","""event"",""trial"",""time""
""fullscreenenter"",""1"",""2793""
","
",,1414.4,run_exp/static/images/task_images/land.jpg,76,,,,,,,0,,,1,,,,,,,,26007,1,4,TRUE,,,
travel,80,369017,0.0-28.0-0.0,"""event"",""trial"",""time""
""fullscreenenter"",""1"",""2793""
","
","
","""event"",""trial"",""time""
""fullscreenenter"",""1"",""2793""
","
",,,,,,,,,,,,"[{""stimulus"":""run_exp/static/images/task_images/rocket-01.jpg"",""time"":0.20000000298023224},{""stimulus"":""run_exp/static/images/task_images/rocket-02.jpg"",""time"":962.1000000014901},{""stimulus"":""run_exp/static/images/task_images/rocket-03.jpg"",""time"":1911.8999999985099},{""stimulus"":""run_exp/static/images/task_images/rocket-04.jpg"",""time"":2861.2999999970198},{""stimulus"":""run_exp/static/images/task_images/rocket-05.jpg"",""time"":3818.10000000149},{""stimulus"":""run_exp/static/images/task_images/rocket-06.jpg"",""time"":4767.20000000298},{""stimulus"":""run_exp/static/images/task_images/rocket-07.jpg"",""time"":5722.89999999851},{""stimulus"":""run_exp/static/images/task_images/rocket-08.jpg"",""time"":6673.29999999702},{""stimulus"":""run_exp/static/images/task_images/rocket-09.jpg"",""time"":7626.29999999702}]",[],1,,,,,,,,,,,,,,
alien_welcome,81,374026,0.0-28.0-1.0,"""event"",""trial"",""time""
""fullscreenenter"",""1"",""2793""
","
","
","""event"",""trial"",""time""
""fullscreenenter"",""1"",""2793""
","
",,null,run_exp/static/images/task_images/aliens/old_aliens/planet/alien_planet-76.jpg,null,,,,,,,,,,,,,76,"24,76,13,45,29,42,63,38,49,60,48,22,1,18,71,47,37,58,43,75,30,54,53,56,11,64,27,80,15,10,21,73,35,55,67,51,39,25,28,66",,,,,,,,,,
land,82,374534,0.0-28.0-2.0,"""event"",""trial"",""time""
""fullscreenenter"",""1"",""2793""
","
","
","""event"",""trial"",""time""
""fullscreenenter"",""1"",""2793""
","
",,null,run_exp/static/images/task_images/land.jpg,null,,,,,,,101,,,2,,,,,,,,,,,,,,
dig,83,376540,0.0-28.0-3.0,"""event"",""trial"",""time""
""fullscreenenter"",""1"",""2793""
","
","
","""event"",""trial"",""time""
""fullscreenenter"",""1"",""2793""
","
",,,,,,,,,,,,"[{""stimulus"":""run_exp/static/images/task_images/dig.jpg"",""time"":0.6000000014901161},{""stimulus"":""run_exp/static/images/task_images/land.jpg"",""time"":673.6000000014901},{""stimulus"":""run_exp/static/images/task_images/dig.jpg"",""time"":1336.8000000044703}]",[],2,,,,,,,,,,,,,,
harvest,84,377544,0.0-28.0-4.0,"""event"",""trial"",""time""
""fullscreenenter"",""1"",""2793""
","
","
","""event"",""trial"",""time""
""fullscreenenter"",""1"",""2793""
","
",,null,run_exp/static/images/task_images/gems/101.jpg,null,,,,,,,21,,,2,,,,,101,0.206013516,0.207920792,,,,,,,
decision,85,377921,0.0-28.0-5.0,"""event"",""trial"",""time""
""fullscreenenter"",""1"",""2793""
","
","
","""event"",""trial"",""time""
""fullscreenenter"",""1"",""2793""
","
",,374.5,run_exp/static/images/task_images/land.jpg,65,,,,,,,21,,,2,,,,,,,,43493,1,0,FALSE,,,
dig,86,380555,0.0-29.0-0.0,"""event"",""trial"",""time""
""fullscreenenter"",""1"",""2793""
","
","
","""event"",""trial"",""time""
""fullscreenenter"",""1"",""2793""
","
",,,,,,,,,,,,"[{""stimulus"":""run_exp/static/images/task_images/dig.jpg"",""time"":0.20000000298023224},{""stimulus"":""run_exp/static/images/task_images/land.jpg"",""time"":881.2999999970198},{""stimulus"":""run_exp/static/images/task_images/dig.jpg"",""time"":1756}]",[],2,,,,,,,,,,,,,,
harvest,87,381559,0.0-29.0-1.0,"""event"",""trial"",""time""
""fullscreenenter"",""1"",""2793""
","
","
","""event"",""trial"",""time""
""fullscreenenter"",""1"",""2793""
","
",,null,run_exp/static/images/task_images/gems/21.jpg,null,,,,,,,5,,,2,,,,,21,0.227629906,0.238095238,,,,,,,
decision,88,382782,0.0-29.0-2.0,"""event"",""trial"",""time""
""fullscreenenter"",""1"",""2793""
","
","
","""event"",""trial"",""time""
""fullscreenenter"",""1"",""2793""
","
",,1220.8,run_exp/static/images/task_images/land.jpg,65,,,,,,,5,,,2,,,,,,,,48354,1,1,FALSE,,,
dig,89,384570,0.0-30.0-0.0,"""event"",""trial"",""time""
""fullscreenenter"",""1"",""2793""
","
","
","""event"",""trial"",""time""
""fullscreenenter"",""1"",""2793""
","
",,,,,,,,,,,,"[{""stimulus"":""run_exp/static/images/task_images/dig.jpg"",""time"":0.19999999552965164},{""stimulus"":""run_exp/static/images/task_images/land.jpg"",""time"":596.5999999940395},{""stimulus"":""run_exp/static/images/task_images/dig.jpg"",""time"":1191.5}]",[],2,,,,,,,,,,,,,,
harvest,90,385572,0.0-30.0-1.0,"""event"",""trial"",""time""
""fullscreenenter"",""1"",""2793""
","
","
","""event"",""trial"",""time""
""fullscreenenter"",""1"",""2793""
","
",,null,run_exp/static/images/task_images/gems/5.jpg,null,,,,,,,1,,,2,,,,,5,0.167564594,0.2,,,,,,,
decision,91,385912,0.0-30.0-2.0,"""event"",""trial"",""time""
""fullscreenenter"",""1"",""2793""
","
","
","""event"",""trial"",""time""
""fullscreenenter"",""1"",""2793""
","
",,338.2,run_exp/static/images/task_images/land.jpg,65,,,,,,,1,,,2,,,,,,,,51484,1,2,FALSE,,,
dig,92,388579,0.0-31.0-0.0,"""event"",""trial"",""time""
""fullscreenenter"",""1"",""2793""
","
","
","""event"",""trial"",""time""
""fullscreenenter"",""1"",""2793""
","
",,,,,,,,,,,,"[{""stimulus"":""run_exp/static/images/task_images/dig.jpg"",""time"":0.19999999552965164},{""stimulus"":""run_exp/static/images/task_images/land.jpg"",""time"":893.6999999955297},{""stimulus"":""run_exp/static/images/task_images/dig.jpg"",""time"":1781.7999999970198}]",[],2,,,,,,,,,,,,,,
harvest,93,389584,0.0-31.0-1.0,"""event"",""trial"",""time""
""fullscreenenter"",""1"",""2793""
","
","
","""event"",""trial"",""time""
""fullscreenenter"",""1"",""2793""
","
",,null,run_exp/static/images/task_images/gems/1.jpg,null,,,,,,,0,,,2,,,,,1,0.185117308,0,,,,,,,
decision,94,390560,0.0-31.0-2.0,"""event"",""trial"",""time""
""fullscreenenter"",""1"",""2793""
","
","
","""event"",""trial"",""time""
""fullscreenenter"",""1"",""2793""
","
",,973.2,run_exp/static/images/task_images/land.jpg,65,,,,,,,0,,,2,,,,,,,,56132,1,3,FALSE,,,
dig,95,392592,0.0-32.0-0.0,"""event"",""trial"",""time""
""fullscreenenter"",""1"",""2793""
","
","
","""event"",""trial"",""time""
""fullscreenenter"",""1"",""2793""
","
",,,,,,,,,,,,"[{""stimulus"":""run_exp/static/images/task_images/dig.jpg"",""time"":0.10000000149011612},{""stimulus"":""run_exp/static/images/task_images/land.jpg"",""time"":677.2999999970198},{""stimulus"":""run_exp/static/images/task_images/dig.jpg"",""time"":1358.8999999985099}]",[],2,,,,,,,,,,,,,,
harvest,96,393598,0.0-32.0-1.0,"""event"",""trial"",""time""
""fullscreenenter"",""1"",""2793""
","
","
","""event"",""trial"",""time""
""fullscreenenter"",""1"",""2793""
","
",,null,run_exp/static/images/task_images/gems/0.jpg,null,,,,,,,0,,,2,,,,,0,0.21241556,NaN,,,,,,,
decision,97,394598,0.0-32.0-2.0,"""event"",""trial"",""time""
""fullscreenenter"",""1"",""2793""
","
","
","""event"",""trial"",""time""
""fullscreenenter"",""1"",""2793""
","
",,998.2,run_exp/static/images/task_images/land.jpg,76,,,,,,,0,,,2,,,,,,,,60170,1,4,TRUE,,,
travel,98,403603,0.0-33.0-0.0,"""event"",""trial"",""time""
""fullscreenenter"",""1"",""2793""
","
","
","""event"",""trial"",""time""
""fullscreenenter"",""1"",""2793""
","
",,,,,,,,,,,,"[{""stimulus"":""run_exp/static/images/task_images/rocket-01.jpg"",""time"":0.19999999552965164},{""stimulus"":""run_exp/static/images/task_images/rocket-02.jpg"",""time"":1003.3999999985099},{""stimulus"":""run_exp/static/images/task_images/rocket-03.jpg"",""time"":2006.2999999970198},{""stimulus"":""run_exp/static/images/task_images/rocket-04.jpg"",""time"":3002.7999999970198},{""stimulus"":""run_exp/static/images/task_images/rocket-05.jpg"",""time"":4003.5},{""stimulus"":""run_exp/static/images/task_images/rocket-06.jpg"",""time"":5006.89999999851},{""stimulus"":""run_exp/static/images/task_images/rocket-07.jpg"",""time"":6005.19999999553},{""stimulus"":""run_exp/static/images/task_images/rocket-08.jpg"",""time"":7005.10000000149},{""stimulus"":""run_exp/static/images/task_images/rocket-09.jpg"",""time"":8003.39999999851}]",[],2,,,,,,,,,,,,,,
alien_welcome,99,408609,0.0-33.0-1.0,"""event"",""trial"",""time""
""fullscreenenter"",""1"",""2793""
","
","
","""event"",""trial"",""time""
""fullscreenenter"",""1"",""2793""
","
",,null,run_exp/static/images/task_images/aliens/old_aliens/planet/alien_planet-13.jpg,null,,,,,,,,,,,,,13,"24,76,13,45,29,42,63,38,49,60,48,22,1,18,71,47,37,58,43,75,30,54,53,56,11,64,27,80,15,10,21,73,35,55,67,51,39,25,28,66",,,,,,,,,,
land,100,409116,0.0-33.0-2.0,"""event"",""trial"",""time""
""fullscreenenter"",""1"",""2793""
","
","
","""event"",""trial"",""time""
""fullscreenenter"",""1"",""2793""
","
",,null,run_exp/static/images/task_images/land.jpg,null,,,,,,,99,,,3,,,,,,,,,,,,,,
dig,101,411122,0.0-33.0-3.0,"""event"",""trial"",""time""
""fullscreenenter"",""1"",""2793""
","
","
","""event"",""trial"",""time""
""fullscreenenter"",""1"",""2793""
","
",,,,,,,,,,,,"[{""stimulus"":""run_exp/static/images/task_images/dig.jpg"",""time"":0.5},{""stimulus"":""run_exp/static/images/task_images/land.jpg"",""time"":674.5},{""stimulus"":""run_exp/static/images/task_images/dig.jpg"",""time"":1337.8000000044703}]",[],3,,,,,,,,,,,,,,
harvest,102,412129,0.0-33.0-4.0,"""event"",""trial"",""time""
""fullscreenenter"",""1"",""2793""
","
","
","""event"",""trial"",""time""
""fullscreenenter"",""1"",""2793""
","
",,null,run_exp/static/images/task_images/gems/99.jpg,null,,,,,,,50,,,3,,,,,99,0.502881921,0.505050505,,,,,,,
decision,103,412450,0.0-33.0-5.0,"""event"",""trial"",""time""
""fullscreenenter"",""1"",""2793""
","
","
","""event"",""trial"",""time""
""fullscreenenter"",""1"",""2793""
","
",,318.9,run_exp/static/images/task_images/land.jpg,65,,,,,,,50,,,3,,,,,,,,78022,1,0,FALSE,,,
dig,104,415139,0.0-34.0-0.0,"""event"",""trial"",""time""
""fullscreenenter"",""1"",""2793""
","
","
","""event"",""trial"",""time""
""fullscreenenter"",""1"",""2793""
","
",,,,,,,,,,,,"[{""stimulus"":""run_exp/static/images/task_images/dig.jpg"",""time"":0.19999999552965164},{""stimulus"":""run_exp/static/images/task_images/land.jpg"",""time"":899.2999999970198},{""stimulus"":""run_exp/static/images/task_images/dig.jpg"",""time"":1790.1000000014901}]",[],3,,,,,,,,,,,,,,
harvest,105,416145,0.0-34.0-1.0,"""event"",""trial"",""time""
""fullscreenenter"",""1"",""2793""
","
","
","""event"",""trial"",""time""
""fullscreenenter"",""1"",""2793""
","
",,null,run_exp/static/images/task_images/gems/50.jpg,null,,,,,,,21,,,3,,,,,50,0.429182433,0.42,,,,,,,
decision,106,416396,0.0-34.0-2.0,"""event"",""trial"",""time""
""fullscreenenter"",""1"",""2793""
","
","
","""event"",""trial"",""time""
""fullscreenenter"",""1"",""2793""
","
",,249.7,run_exp/static/images/task_images/land.jpg,65,,,,,,,21,,,3,,,,,,,,81968,1,1,FALSE,,,
dig,107,419150,0.0-35.0-0.0,"""event"",""trial"",""time""
""fullscreenenter"",""1"",""2793""
","
","
","""event"",""trial"",""time""
""fullscreenenter"",""1"",""2793""
","
",,,,,,,,,,,,"[{""stimulus"":""run_exp/static/images/task_images/dig.jpg"",""time"":0.19999999552965164},{""stimulus"":""run_exp/static/images/task_images/land.jpg"",""time"":918.8999999985099},{""stimulus"":""run_exp/static/images/task_images/dig.jpg"",""time"":1840.6999999955297}]",[],3,,,,,,,,,,,,,,
harvest,108,420156,0.0-35.0-1.0,"""event"",""trial"",""time""
""fullscreenenter"",""1"",""2793""
","
","
","""event"",""trial"",""time""
""fullscreenenter"",""1"",""2793""
","
",,null,run_exp/static/images/task_images/gems/21.jpg,null,,,,,,,10,,,3,,,,,21,0.492067603,0.476190476,,,,,,,
decision,109,421277,0.0-35.0-2.0,"""event"",""trial"",""time""
""fullscreenenter"",""1"",""2793""
","
","
","""event"",""trial"",""time""
""fullscreenenter"",""1"",""2793""
","
",,1119.2,run_exp/static/images/task_images/land.jpg,65,,,,,,,10,,,3,,,,,,,,86849,1,2,FALSE,,,
dig,110,423164,0.0-36.0-0.0,"""event"",""trial"",""time""
""fullscreenenter"",""1"",""2793""
","
","
","""event"",""trial"",""time""
""fullscreenenter"",""1"",""2793""
","
",,,,,,,,,,,,"[{""stimulus"":""run_exp/static/images/task_images/dig.jpg"",""time"":0.19999999552965164},{""stimulus"":""run_exp/static/images/task_images/land.jpg"",""time"":631.8999999985099},{""stimulus"":""run_exp/static/images/task_images/dig.jpg"",""time"":1259.3999999985099}]",[],3,,,,,,,,,,,,,,
harvest,111,424170,0.0-36.0-1.0,"""event"",""trial"",""time""
""fullscreenenter"",""1"",""2793""
","
","
","""event"",""trial"",""time""
""fullscreenenter"",""1"",""2793""
","
",,null,run_exp/static/images/task_images/gems/10.jpg,null,,,,,,,5,,,3,,,,,10,0.50506332,0.5,,,,,,,
decision,112,424548,0.0-36.0-2.0,"""event"",""trial"",""time""
""fullscreenenter"",""1"",""2793""
","
","
","""event"",""trial"",""time""
""fullscreenenter"",""1"",""2793""
","
",,376.2,run_exp/static/images/task_images/land.jpg,65,,,,,,,5,,,3,,,,,,,,90120,1,3,FALSE,,,
dig,113,427180,0.0-37.0-0.0,"""event"",""trial"",""time""
""fullscreenenter"",""1"",""2793""
","
","
","""event"",""trial"",""time""
""fullscreenenter"",""1"",""2793""
","
",,,,,,,,,,,,"[{""stimulus"":""run_exp/static/images/task_images/dig.jpg"",""time"":0.19999999552965164},{""stimulus"":""run_exp/static/images/task_images/land.jpg"",""time"":879.5},{""stimulus"":""run_exp/static/images/task_images/dig.jpg"",""time"":1755}]",[],3,,,,,,,,,,,,,,
harvest,114,428184,0.0-37.0-1.0,"""event"",""trial"",""time""
""fullscreenenter"",""1"",""2793""
","
","
","""event"",""trial"",""time""
""fullscreenenter"",""1"",""2793""
","
",,null,run_exp/static/images/task_images/gems/5.jpg,null,,,,,,,2,,,3,,,,,5,0.395767216,0.4,,,,,,,
decision,115,428524,0.0-37.0-2.0,"""event"",""trial"",""time""
""fullscreenenter"",""1"",""2793""
","
","
","""event"",""trial"",""time""
""fullscreenenter"",""1"",""2793""
","
",,339.3,run_exp/static/images/task_images/land.jpg,65,,,,,,,2,,,3,,,,,,,,94096,1,4,FALSE,,,
dig,116,431194,0.0-38.0-0.0,"""event"",""trial"",""time""
""fullscreenenter"",""1"",""2793""
","
","
","""event"",""trial"",""time""
""fullscreenenter"",""1"",""2793""
","
",,,,,,,,,,,,"[{""stimulus"":""run_exp/static/images/task_images/dig.jpg"",""time"":0.20000000298023224},{""stimulus"":""run_exp/static/images/task_images/land.jpg"",""time"":888.7999999970198},{""stimulus"":""run_exp/static/images/task_images/dig.jpg"",""time"":1778}]",[],3,,,,,,,,,,,,,,
harvest,117,432198,0.0-38.0-1.0,"""event"",""trial"",""time""
""fullscreenenter"",""1"",""2793""
","
","
","""event"",""trial"",""time""
""fullscreenenter"",""1"",""2793""
","
",,null,run_exp/static/images/task_images/gems/2.jpg,null,,,,,,,1,,,3,,,,,2,0.530194504,0.5,,,,,,,
decision,118,432304,0.0-38.0-2.0,"""event"",""trial"",""time""
""fullscreenenter"",""1"",""2793""
","
","
","""event"",""trial"",""time""
""fullscreenenter"",""1"",""2793""
","
",,104.4,run_exp/static/images/task_images/land.jpg,65,,,,,,,1,,,3,,,,,,,,97876,1,5,FALSE,,,
dig,119,435205,0.0-39.0-0.0,"""event"",""trial"",""time""
""fullscreenenter"",""1"",""2793""
","
","
","""event"",""trial"",""time""
""fullscreenenter"",""1"",""2793""
","
",,,,,,,,,,,,"[{""stimulus"":""run_exp/static/images/task_images/dig.jpg"",""time"":0.20000000298023224},{""stimulus"":""run_exp/static/images/task_images/land.jpg"",""time"":967.5},{""stimulus"":""run_exp/static/images/task_images/dig.jpg"",""time"":1932.7000000029802}]",[],3,,,,,,,,,,,,,,
harvest,120,436209,0.0-39.0-1.0,"""event"",""trial"",""time""
""fullscreenenter"",""1"",""2793""
","
","
","""event"",""trial"",""time""
""fullscreenenter"",""1"",""2793""
","
",,null,run_exp/static/images/task_images/gems/1.jpg,null,,,,,,,0,,,3,,,,,1,0.479818282,0,,,,,,,
decision,121,436565,0.0-39.0-2.0,"""event"",""trial"",""time""
""fullscreenenter"",""1"",""2793""
","
","
","""event"",""trial"",""time""
""fullscreenenter"",""1"",""2793""
","
",,354.8,run_exp/static/images/task_images/land.jpg,76,,,,,,,0,,,3,,,,,,,,102137,1,6,TRUE,,,
travel,122,446208,0.0-40.0-0.0,"""event"",""trial"",""time""
""fullscreenenter"",""1"",""2793""
","
","
","""event"",""trial"",""time""
""fullscreenenter"",""1"",""2793""
","
",,,,,,,,,,,,"[{""stimulus"":""run_exp/static/images/task_images/rocket-01.jpg"",""time"":0.19999999552965164},{""stimulus"":""run_exp/static/images/task_images/rocket-02.jpg"",""time"":1075.2999999970198},{""stimulus"":""run_exp/static/images/task_images/rocket-03.jpg"",""time"":2146.7999999970198},{""stimulus"":""run_exp/static/images/task_images/rocket-04.jpg"",""time"":3216.5},{""stimulus"":""run_exp/static/images/task_images/rocket-05.jpg"",""time"":4288.29999999702},{""stimulus"":""run_exp/static/images/task_images/rocket-06.jpg"",""time"":5364.0999999940395},{""stimulus"":""run_exp/static/images/task_images/rocket-07.jpg"",""time"":6429.79999999702},{""stimulus"":""run_exp/static/images/task_images/rocket-08.jpg"",""time"":7501},{""stimulus"":""run_exp/static/images/task_images/rocket-09.jpg"",""time"":8575}]",[],3,,,,,,,,,,,,,,
alien_welcome,123,451213,0.0-40.0-1.0,"""event"",""trial"",""time""
""fullscreenenter"",""1"",""2793""
","
","
","""event"",""trial"",""time""
""fullscreenenter"",""1"",""2793""
","
",,null,run_exp/static/images/task_images/aliens/old_aliens/planet/alien_planet-45.jpg,null,,,,,,,,,,,,,45,"24,76,13,45,29,42,63,38,49,60,48,22,1,18,71,47,37,58,43,75,30,54,53,56,11,64,27,80,15,10,21,73,35,55,67,51,39,25,28,66",,,,,,,,,,
land,124,451721,0.0-40.0-2.0,"""event"",""trial"",""time""
""fullscreenenter"",""1"",""2793""
","
","
","""event"",""trial"",""time""
""fullscreenenter"",""1"",""2793""
","
",,null,run_exp/static/images/task_images/land.jpg,null,,,,,,,95,,,4,,,,,,,,,,,,,,
dig,125,453730,0.0-40.0-3.0,"""event"",""trial"",""time""
""fullscreenenter"",""1"",""2793""
","
","
","""event"",""trial"",""time""
""fullscreenenter"",""1"",""2793""
","
",,,,,,,,,,,,"[{""stimulus"":""run_exp/static/images/task_images/dig.jpg"",""time"":0.5},{""stimulus"":""run_exp/static/images/task_images/land.jpg"",""time"":676.5},{""stimulus"":""run_exp/static/images/task_images/dig.jpg"",""time"":1338}]",[],4,,,,,,,,,,,,,,
harvest,126,454738,0.0-40.0-4.0,"""event"",""trial"",""time""
""fullscreenenter"",""1"",""2793""
","
","
","""event"",""trial"",""time""
""fullscreenenter"",""1"",""2793""
","
",,null,run_exp/static/images/task_images/gems/95.jpg,null,,,,,,,49,,,4,,,,,95,0.513181165,0.515789474,,,,,,,
decision,127,455068,0.0-40.0-5.0,"""event"",""trial"",""time""
""fullscreenenter"",""1"",""2793""
","
","
","""event"",""trial"",""time""
""fullscreenenter"",""1"",""2793""
","
",,328.4,run_exp/static/images/task_images/land.jpg,65,,,,,,,49,,,4,,,,,,,,120640,1,0,FALSE,,,
dig,128,457749,0.0-41.0-0.0,"""event"",""trial"",""time""
""fullscreenenter"",""1"",""2793""
","
","
","""event"",""trial"",""time""
""fullscreenenter"",""1"",""2793""
","
",,,,,,,,,,,,"[{""stimulus"":""run_exp/static/images/task_images/dig.jpg"",""time"":0.30000000447034836},{""stimulus"":""run_exp/static/images/task_images/land.jpg"",""time"":896.6000000014901},{""stimulus"":""run_exp/static/images/task_images/dig.jpg"",""time"":1783.8000000044703}]",[],4,,,,,,,,,,,,,,
harvest,129,458752,0.0-41.0-1.0,"""event"",""trial"",""time""
""fullscreenenter"",""1"",""2793""
","
","
","""event"",""trial"",""time""
""fullscreenenter"",""1"",""2793""
","
",,null,run_exp/static/images/task_images/gems/49.jpg,null,,,,,,,27,,,4,,,,,49,0.554179307,0.551020408,,,,,,,
decision,130,459044,0.0-41.0-2.0,"""event"",""trial"",""time""
""fullscreenenter"",""1"",""2793""
","
","
","""event"",""trial"",""time""
""fullscreenenter"",""1"",""2793""
","
",,290.1,run_exp/static/images/task_images/land.jpg,65,,,,,,,27,,,4,,,,,,,,124616,1,1,FALSE,,,
dig,131,461757,0.0-42.0-0.0,"""event"",""trial"",""time""
""fullscreenenter"",""1"",""2793""
","
","
","""event"",""trial"",""time""
""fullscreenenter"",""1"",""2793""
","
",,,,,,,,,,,,"[{""stimulus"":""run_exp/static/images/task_images/dig.jpg"",""time"":0.29999999701976776},{""stimulus"":""run_exp/static/images/task_images/land.jpg"",""time"":910.7999999970198},{""stimulus"":""run_exp/static/images/task_images/dig.jpg"",""time"":1811.7999999970198}]",[],4,,,,,,,,,,,,,,
harvest,132,462764,0.0-42.0-1.0,"""event"",""trial"",""time""
""fullscreenenter"",""1"",""2793""
","
","
","""event"",""trial"",""time""
""fullscreenenter"",""1"",""2793""
","
",,null,run_exp/static/images/task_images/gems/27.jpg,null,,,,,,,13,,,4,,,,,27,0.495540478,0.481481481,,,,,,,
decision,133,463373,0.0-42.0-2.0,"""event"",""trial"",""time""
""fullscreenenter"",""1"",""2793""
","
","
","""event"",""trial"",""time""
""fullscreenenter"",""1"",""2793""
","
",,607.3,run_exp/static/images/task_images/land.jpg,65,,,,,,,13,,,4,,,,,,,,128945,1,2,FALSE,,,
dig,134,465774,0.0-43.0-0.0,"""event"",""trial"",""time""
""fullscreenenter"",""1"",""2793""
","
","
","""event"",""trial"",""time""
""fullscreenenter"",""1"",""2793""
","
",,,,,,,,,,,,"[{""stimulus"":""run_exp/static/images/task_images/dig.jpg"",""time"":0.19999999552965164},{""stimulus"":""run_exp/static/images/task_images/land.jpg"",""time"":799.1999999955297},{""stimulus"":""run_exp/static/images/task_images/dig.jpg"",""time"":1595.7999999970198}]",[],4,,,,,,,,,,,,,,
harvest,135,466780,0.0-43.0-1.0,"""event"",""trial"",""time""
""fullscreenenter"",""1"",""2793""
","
","
","""event"",""trial"",""time""
""fullscreenenter"",""1"",""2793""
","
",,null,run_exp/static/images/task_images/gems/13.jpg,null,,,,,,,6,,,4,,,,,13,0.459046073,0.461538462,,,,,,,
decision,136,467222,0.0-43.0-2.0,"""event"",""trial"",""time""
""fullscreenenter"",""1"",""2793""
","
","
","""event"",""trial"",""time""
""fullscreenenter"",""1"",""2793""
","
",,439.8,run_exp/static/images/task_images/land.jpg,65,,,,,,,6,,,4,,,,,,,,132794,1,3,FALSE,,,
dig,137,469791,0.0-44.0-0.0,"""event"",""trial"",""time""
""fullscreenenter"",""1"",""2793""
","
","
","""event"",""trial"",""time""
""fullscreenenter"",""1"",""2793""
","
",,,,,,,,,,,,"[{""stimulus"":""run_exp/static/images/task_images/dig.jpg"",""time"":0.29999999701976776},{""stimulus"":""run_exp/static/images/task_images/land.jpg"",""time"":859.8999999985099},{""stimulus"":""run_exp/static/images/task_images/dig.jpg"",""time"":1713.1999999955297}]",[],4,,,,,,,,,,,,,,
harvest,138,470794,0.0-44.0-1.0,"""event"",""trial"",""time""
""fullscreenenter"",""1"",""2793""
","
","
","""event"",""trial"",""time""
""fullscreenenter"",""1"",""2793""
","
",,null,run_exp/static/images/task_images/gems/6.jpg,null,,,,,,,3,,,4,,,,,6,0.466909588,0.5,,,,,,,
decision,139,471928,0.0-44.0-2.0,"""event"",""trial"",""time""
""fullscreenenter"",""1"",""2793""
","
","
","""event"",""trial"",""time""
""fullscreenenter"",""1"",""2793""
","
",,1132.5,run_exp/static/images/task_images/land.jpg,76,,,,,,,3,,,4,,,,,,,,137500,1,4,TRUE,,,
travel,140,480799,0.0-45.0-0.0,"""event"",""trial"",""time""
""fullscreenenter"",""1"",""2793""
","
","
","""event"",""trial"",""time""
""fullscreenenter"",""1"",""2793""
","
",,,,,,,,,,,,"[{""stimulus"":""run_exp/static/images/task_images/rocket-01.jpg"",""time"":0.19999999552965164},{""stimulus"":""run_exp/static/images/task_images/rocket-02.jpg"",""time"":991},{""stimulus"":""run_exp/static/images/task_images/rocket-03.jpg"",""time"":1972.7999999970198},{""stimulus"":""run_exp/static/images/task_images/rocket-04.jpg"",""time"":2959.5},{""stimulus"":""run_exp/static/images/task_images/rocket-05.jpg"",""time"":3947.39999999851},{""stimulus"":""run_exp/static/images/task_images/rocket-06.jpg"",""time"":4930.19999999553},{""stimulus"":""run_exp/static/images/task_images/rocket-07.jpg"",""time"":5915.0999999940395},{""stimulus"":""run_exp/static/images/task_images/rocket-08.jpg"",""time"":6900.5},{""stimulus"":""run_exp/static/images/task_images/rocket-09.jpg"",""time"":7889}]",[],4,,,,,,,,,,,,,,
alien_welcome,141,485806,0.0-45.0-1.0,"""event"",""trial"",""time""
""fullscreenenter"",""1"",""2793""
","
","
","""event"",""trial"",""time""
""fullscreenenter"",""1"",""2793""
","
",,null,run_exp/static/images/task_images/aliens/old_aliens/planet/alien_planet-29.jpg,null,,,,,,,,,,,,,29,"24,76,13,45,29,42,63,38,49,60,48,22,1,18,71,47,37,58,43,75,30,54,53,56,11,64,27,80,15,10,21,73,35,55,67,51,39,25,28,66",,,,,,,,,,
land,142,486310,0.0-45.0-2.0,"""event"",""trial"",""time""
""fullscreenenter"",""1"",""2793""
","
","
","""event"",""trial"",""time""
""fullscreenenter"",""1"",""2793""
","
",,null,run_exp/static/images/task_images/land.jpg,null,,,,,,,96,,,5,,,,,,,,,,,,,,
dig,143,488321,0.0-45.0-3.0,"""event"",""trial"",""time""
""fullscreenenter"",""1"",""2793""
","
","
","""event"",""trial"",""time""
""fullscreenenter"",""1"",""2793""
","
",,,,,,,,,,,,"[{""stimulus"":""run_exp/static/images/task_images/dig.jpg"",""time"":0.5},{""stimulus"":""run_exp/static/images/task_images/land.jpg"",""time"":673},{""stimulus"":""run_exp/static/images/task_images/dig.jpg"",""time"":1338.5}]",[],5,,,,,,,,,,,,,,
harvest,144,489326,0.0-45.0-4.0,"""event"",""trial"",""time""
""fullscreenenter"",""1"",""2793""
","
","
","""event"",""trial"",""time""
""fullscreenenter"",""1"",""2793""
","
",,null,run_exp/static/images/task_images/gems/96.jpg,null,,,,,,,53,,,5,,,,,96,0.551969613,0.552083333,,,,,,,
decision,145,489652,0.0-45.0-5.0,"""event"",""trial"",""time""
""fullscreenenter"",""1"",""2793""
","
","
","""event"",""trial"",""time""
""fullscreenenter"",""1"",""2793""
","
",,324.3,run_exp/static/images/task_images/land.jpg,65,,,,,,,53,,,5,,,,,,,,155224,1,0,FALSE,,,
dig,146,492331,0.0-46.0-0.0,"""event"",""trial"",""time""
""fullscreenenter"",""1"",""2793""
","
","
","""event"",""trial"",""time""
""fullscreenenter"",""1"",""2793""
","
",,,,,,,,,,,,"[{""stimulus"":""run_exp/static/images/task_images/dig.jpg"",""time"":0.29999999701976776},{""stimulus"":""run_exp/static/images/task_images/land.jpg"",""time"":896.3999999985099},{""stimulus"":""run_exp/static/images/task_images/dig.jpg"",""time"":1786.0999999940395}]",[],5,,,,,,,,,,,,,,
harvest,147,493339,0.0-46.0-1.0,"""event"",""trial"",""time""
""fullscreenenter"",""1"",""2793""
","
","
","""event"",""trial"",""time""
""fullscreenenter"",""1"",""2793""
","
",,null,run_exp/static/images/task_images/gems/53.jpg,null,,,,,,,25,,,5,,,,,53,0.468181628,0.471698113,,,,,,,
decision,148,493961,0.0-46.0-2.0,"""event"",""trial"",""time""
""fullscreenenter"",""1"",""2793""
","
","
","""event"",""trial"",""time""
""fullscreenenter"",""1"",""2793""
","
",,619.5,run_exp/static/images/task_images/land.jpg,65,,,,,,,25,,,5,,,,,,,,159533,1,1,FALSE,,,
dig,149,496353,0.0-47.0-0.0,"""event"",""trial"",""time""
""fullscreenenter"",""1"",""2793""
","
","
","""event"",""trial"",""time""
""fullscreenenter"",""1"",""2793""
","
",,,,,,,,,,,,"[{""stimulus"":""run_exp/static/images/task_images/dig.jpg"",""time"":0.29999999701976776},{""stimulus"":""run_exp/static/images/task_images/land.jpg"",""time"":801.7999999970198},{""stimulus"":""run_exp/static/images/task_images/dig.jpg"",""time"":1588}]",[],5,,,,,,,,,,,,,,
harvest,150,497359,0.0-47.0-1.0,"""event"",""trial"",""time""
""fullscreenenter"",""1"",""2793""
","
","
","""event"",""trial"",""time""
""fullscreenenter"",""1"",""2793""
","
",,null,run_exp/static/images/task_images/gems/25.jpg,null,,,,,,,13,,,5,,,,,25,0.526072953,0.52,,,,,,,
decision,151,497744,0.0-47.0-2.0,"""event"",""trial"",""time""
""fullscreenenter"",""1"",""2793""
","
","
","""event"",""trial"",""time""
""fullscreenenter"",""1"",""2793""
","
",,382.6,run_exp/static/images/task_images/land.jpg,65,,,,,,,13,,,5,,,,,,,,163316,1,2,FALSE,,,
dig,152,500372,0.0-48.0-0.0,"""event"",""trial"",""time""
""fullscreenenter"",""1"",""2793""
","
","
","""event"",""trial"",""time""
""fullscreenenter"",""1"",""2793""
","
",,,,,,,,,,,,"[{""stimulus"":""run_exp/static/images/task_images/dig.jpg"",""time"":0.19999999552965164},{""stimulus"":""run_exp/static/images/task_images/land.jpg"",""time"":879.6000000014901},{""stimulus"":""run_exp/static/images/task_images/dig.jpg"",""time"":1749.3999999985099}]",[],5,,,,,,,,,,,,,,
harvest,153,501377,0.0-48.0-1.0,"""event"",""trial"",""time""
""fullscreenenter"",""1"",""2793""
","
","
","""event"",""trial"",""time""
""fullscreenenter"",""1"",""2793""
","
",,null,run_exp/static/images/task_images/gems/13.jpg,null,,,,,,,5,,,5,,,,,13,0.400374652,0.384615385,,,,,,,
decision,154,501663,0.0-48.0-2.0,"""event"",""trial"",""time""
""fullscreenenter"",""1"",""2793""
","
","
","""event"",""trial"",""time""
""fullscreenenter"",""1"",""2793""
","
",,284.2,run_exp/static/images/task_images/land.jpg,76,,,,,,,5,,,5,,,,,,,,167235,1,3,TRUE,,,
travel,155,511383,0.0-49.0-0.0,"""event"",""trial"",""time""
""fullscreenenter"",""1"",""2793""
","
","
","""event"",""trial"",""time""
""fullscreenenter"",""1"",""2793""
","
",,,,,,,,,,,,"[{""stimulus"":""run_exp/static/images/task_images/rocket-01.jpg"",""time"":0.19999999552965164},{""stimulus"":""run_exp/static/images/task_images/rocket-02.jpg"",""time"":1084.1999999955297},{""stimulus"":""run_exp/static/images/task_images/rocket-03.jpg"",""time"":2161.6999999955297},{""stimulus"":""run_exp/static/images/task_images/rocket-04.jpg"",""time"":3241.1999999955297},{""stimulus"":""run_exp/static/images/task_images/rocket-05.jpg"",""time"":4320.10000000149},{""stimulus"":""run_exp/static/images/task_images/rocket-06.jpg"",""time"":5401.89999999851},{""stimulus"":""run_exp/static/images/task_images/rocket-07.jpg"",""time"":6478.69999999553},{""stimulus"":""run_exp/static/images/task_images/rocket-08.jpg"",""time"":7555},{""stimulus"":""run_exp/static/images/task_images/rocket-09.jpg"",""time"":8638.5}]",[],5,,,,,,,,,,,,,,
alien_welcome,156,516387,0.0-49.0-1.0,"""event"",""trial"",""time""
""fullscreenenter"",""1"",""2793""
","
","
","""event"",""trial"",""time""
""fullscreenenter"",""1"",""2793""
","
",,null,run_exp/static/images/task_images/aliens/old_aliens/planet/alien_planet-42.jpg,null,,,,,,,,,,,,,42,"24,76,13,45,29,42,63,38,49,60,48,22,1,18,71,47,37,58,43,75,30,54,53,56,11,64,27,80,15,10,21,73,35,55,67,51,39,25,28,66",,,,,,,,,,
land,157,516891,0.0-49.0-2.0,"""event"",""trial"",""time""
""fullscreenenter"",""1"",""2793""
","
","
","""event"",""trial"",""time""
""fullscreenenter"",""1"",""2793""
","
",,null,run_exp/static/images/task_images/land.jpg,null,,,,,,,111,,,6,,,,,,,,,,,,,,
dig,158,518899,0.0-49.0-3.0,"""event"",""trial"",""time""
""fullscreenenter"",""1"",""2793""
","
","
","""event"",""trial"",""time""
""fullscreenenter"",""1"",""2793""
","
",,,,,,,,,,,,"[{""stimulus"":""run_exp/static/images/task_images/dig.jpg"",""time"":0.20000000298023224},{""stimulus"":""run_exp/static/images/task_images/land.jpg"",""time"":670.6000000014901},{""stimulus"":""run_exp/static/images/task_images/dig.jpg"",""time"":1336.8000000044703}]",[],6,,,,,,,,,,,,,,
harvest,159,519904,0.0-49.0-4.0,"""event"",""trial"",""time""
""fullscreenenter"",""1"",""2793""
","
","
","""event"",""trial"",""time""
""fullscreenenter"",""1"",""2793""
","
",,null,run_exp/static/images/task_images/gems/111.jpg,null,,,,,,,86,,,6,,,,,111,0.777088604,0.774774775,,,,,,,
decision,160,520312,0.0-49.0-5.0,"""event"",""trial"",""time""
""fullscreenenter"",""1"",""2793""
","
","
","""event"",""trial"",""time""
""fullscreenenter"",""1"",""2793""
","
",,406.2,run_exp/static/images/task_images/land.jpg,65,,,,,,,86,,,6,,,,,,,,185884,1,0,FALSE,,,
dig,161,522912,0.0-50.0-0.0,"""event"",""trial"",""time""
""fullscreenenter"",""1"",""2793""
","
","
","""event"",""trial"",""time""
""fullscreenenter"",""1"",""2793""
","
",,,,,,,,,,,,"[{""stimulus"":""run_exp/static/images/task_images/dig.jpg"",""time"":0.3999999985098839},{""stimulus"":""run_exp/static/images/task_images/land.jpg"",""time"":868.6000000014901},{""stimulus"":""run_exp/static/images/task_images/dig.jpg"",""time"":1731.3999999985099}]",[],6,,,,,,,,,,,,,,
harvest,162,523914,0.0-50.0-1.0,"""event"",""trial"",""time""
""fullscreenenter"",""1"",""2793""
","
","
","""event"",""trial"",""time""
""fullscreenenter"",""1"",""2793""
","
",,null,run_exp/static/images/task_images/gems/86.jpg,null,,,,,,,75,,,6,,,,,86,0.870342578,0.872093023,,,,,,,
decision,163,524249,0.0-50.0-2.0,"""event"",""trial"",""time""
""fullscreenenter"",""1"",""2793""
","
","
","""event"",""trial"",""time""
""fullscreenenter"",""1"",""2793""
","
",,333.5,run_exp/static/images/task_images/land.jpg,65,,,,,,,75,,,6,,,,,,,,189822,1,1,FALSE,,,
dig,164,526921,0.0-51.0-0.0,"""event"",""trial"",""time""
""fullscreenenter"",""1"",""2793""
","
","
","""event"",""trial"",""time""
""fullscreenenter"",""1"",""2793""
","
",,,,,,,,,,,,"[{""stimulus"":""run_exp/static/images/task_images/dig.jpg"",""time"":0.30000000447034836},{""stimulus"":""run_exp/static/images/task_images/land.jpg"",""time"":897},{""stimulus"":""run_exp/static/images/task_images/dig.jpg"",""time"":1778.1000000014901}]",[],6,,,,,,,,,,,,,,
harvest,165,527927,0.0-51.0-1.0,"""event"",""trial"",""time""
""fullscreenenter"",""1"",""2793""
","
","
","""event"",""trial"",""time""
""fullscreenenter"",""1"",""2793""
","
",,null,run_exp/static/images/task_images/gems/75.jpg,null,,,,,,,67,,,6,,,,,75,0.895831137,0.893333333,,,,,,,
decision,166,528236,0.0-51.0-2.0,"""event"",""trial"",""time""
""fullscreenenter"",""1"",""2793""
","
","
","""event"",""trial"",""time""
""fullscreenenter"",""1"",""2793""
","
",,307.5,run_exp/static/images/task_images/land.jpg,65,,,,,,,67,,,6,,,,,,,,193808,1,2,FALSE,,,
dig,167,530934,0.0-52.0-0.0,"""event"",""trial"",""time""
""fullscreenenter"",""1"",""2793""
","
","
","""event"",""trial"",""time""
""fullscreenenter"",""1"",""2793""
","
",,,,,,,,,,,,"[{""stimulus"":""run_exp/static/images/task_images/dig.jpg"",""time"":0.20000000298023224},{""stimulus"":""run_exp/static/images/task_images/land.jpg"",""time"":904},{""stimulus"":""run_exp/static/images/task_images/dig.jpg"",""time"":1798.3999999985099}]",[],6,,,,,,,,,,,,,,
harvest,168,531939,0.0-52.0-1.0,"""event"",""trial"",""time""
""fullscreenenter"",""1"",""2793""
","
","
","""event"",""trial"",""time""
""fullscreenenter"",""1"",""2793""
","
",,null,run_exp/static/images/task_images/gems/67.jpg,null,,,,,,,52,,,6,,,,,67,0.772882363,0.776119403,,,,,,,
decision,169,532342,0.0-52.0-2.0,"""event"",""trial"",""time""
""fullscreenenter"",""1"",""2793""
","
","
","""event"",""trial"",""time""
""fullscreenenter"",""1"",""2793""
","
",,401.1,run_exp/static/images/task_images/land.jpg,65,,,,,,,52,,,6,,,,,,,,197914,1,3,FALSE,,,
dig,170,534952,0.0-53.0-0.0,"""event"",""trial"",""time""
""fullscreenenter"",""1"",""2793""
","
","
","""event"",""trial"",""time""
""fullscreenenter"",""1"",""2793""
","
",,,,,,,,,,,,"[{""stimulus"":""run_exp/static/images/task_images/dig.jpg"",""time"":0.20000000298023224},{""stimulus"":""run_exp/static/images/task_images/land.jpg"",""time"":868.3000000044703},{""stimulus"":""run_exp/static/images/task_images/dig.jpg"",""time"":1736.5}]",[],6,,,,,,,,,,,,,,
harvest,171,535961,0.0-53.0-1.0,"""event"",""trial"",""time""
""fullscreenenter"",""1"",""2793""
","
","
","""event"",""trial"",""time""
""fullscreenenter"",""1"",""2793""
","
",,null,run_exp/static/images/task_images/gems/52.jpg,null,,,,,,,40,,,6,,,,,52,0.77664224,0.769230769,,,,,,,
decision,172,536401,0.0-53.0-2.0,"""event"",""trial"",""time""
""fullscreenenter"",""1"",""2793""
","
","
","""event"",""trial"",""time""
""fullscreenenter"",""1"",""2793""
","
",,437.8,run_exp/static/images/task_images/land.jpg,65,,,,,,,40,,,6,,,,,,,,201973,1,4,FALSE,,,
dig,173,538975,0.0-54.0-0.0,"""event"",""trial"",""time""
""fullscreenenter"",""1"",""2793""
","
","
","""event"",""trial"",""time""
""fullscreenenter"",""1"",""2793""
","
",,,,,,,,,,,,"[{""stimulus"":""run_exp/static/images/task_images/dig.jpg"",""time"":0.29999999701976776},{""stimulus"":""run_exp/static/images/task_images/land.jpg"",""time"":858.5999999940395},{""stimulus"":""run_exp/static/images/task_images/dig.jpg"",""time"":1709.7999999970198}]",[],6,,,,,,,,,,,,,,
harvest,174,539982,0.0-54.0-1.0,"""event"",""trial"",""time""
""fullscreenenter"",""1"",""2793""
","
","
","""event"",""trial"",""time""
""fullscreenenter"",""1"",""2793""
","
",,null,run_exp/static/images/task_images/gems/40.jpg,null,,,,,,,34,,,6,,,,,40,0.843785854,0.85,,,,,,,
decision,175,540428,0.0-54.0-2.0,"""event"",""trial"",""time""
""fullscreenenter"",""1"",""2793""
","
","
","""event"",""trial"",""time""
""fullscreenenter"",""1"",""2793""
","
",,444,run_exp/static/images/task_images/land.jpg,65,,,,,,,34,,,6,,,,,,,,206000,1,5,FALSE,,,
dig,176,542995,0.0-55.0-0.0,"""event"",""trial"",""time""
""fullscreenenter"",""1"",""2793""
","
","
","""event"",""trial"",""time""
""fullscreenenter"",""1"",""2793""
","
",,,,,,,,,,,,"[{""stimulus"":""run_exp/static/images/task_images/dig.jpg"",""time"":0.29999999701976776},{""stimulus"":""run_exp/static/images/task_images/land.jpg"",""time"":855.7000000029802},{""stimulus"":""run_exp/static/images/task_images/dig.jpg"",""time"":1712.7999999970198}]",[],6,,,,,,,,,,,,,,
harvest,177,543998,0.0-55.0-1.0,"""event"",""trial"",""time""
""fullscreenenter"",""1"",""2793""
","
","
","""event"",""trial"",""time""
""fullscreenenter"",""1"",""2793""
","
",,null,run_exp/static/images/task_images/gems/34.jpg,null,,,,,,,30,,,6,,,,,34,0.894097367,0.882352941,,,,,,,
decision,178,544350,0.0-55.0-2.0,"""event"",""trial"",""time""
""fullscreenenter"",""1"",""2793""
","
","
","""event"",""trial"",""time""
""fullscreenenter"",""1"",""2793""
","
",,349.3,run_exp/static/images/task_images/land.jpg,65,,,,,,,30,,,6,,,,,,,,209922,1,6,FALSE,,,
dig,179,547006,0.0-56.0-0.0,"""event"",""trial"",""time""
""fullscreenenter"",""1"",""2793""
","
","
","""event"",""trial"",""time""
""fullscreenenter"",""1"",""2793""
","
",,,,,,,,,,,,"[{""stimulus"":""run_exp/static/images/task_images/dig.jpg"",""time"":0.20000000298023224},{""stimulus"":""run_exp/static/images/task_images/land.jpg"",""time"":885.8999999985099},{""stimulus"":""run_exp/static/images/task_images/dig.jpg"",""time"":1772}]",[],6,,,,,,,,,,,,,,
harvest,180,548013,0.0-56.0-1.0,"""event"",""trial"",""time""
""fullscreenenter"",""1"",""2793""
","
","
","""event"",""trial"",""time""
""fullscreenenter"",""1"",""2793""
","
",,null,run_exp/static/images/task_images/gems/30.jpg,null,,,,,,,24,,,6,,,,,30,0.80286689,0.8,,,,,,,
decision,181,548329,0.0-56.0-2.0,"""event"",""trial"",""time""
""fullscreenenter"",""1"",""2793""
","
","
","""event"",""trial"",""time""
""fullscreenenter"",""1"",""2793""
","
",,314,run_exp/static/images/task_images/land.jpg,65,,,,,,,24,,,6,,,,,,,,213901,1,7,FALSE,,,
dig,182,551020,0.0-57.0-0.0,"""event"",""trial"",""time""
""fullscreenenter"",""1"",""2793""
","
","
","""event"",""trial"",""time""
""fullscreenenter"",""1"",""2793""
","
",,,,,,,,,,,,"[{""stimulus"":""run_exp/static/images/task_images/dig.jpg"",""time"":0.30000000447034836},{""stimulus"":""run_exp/static/images/task_images/land.jpg"",""time"":897.8999999985099},{""stimulus"":""run_exp/static/images/task_images/dig.jpg"",""time"":1795.7000000029802}]",[],6,,,,,,,,,,,,,,
harvest,183,552031,0.0-57.0-1.0,"""event"",""trial"",""time""
""fullscreenenter"",""1"",""2793""
","
","
","""event"",""trial"",""time""
""fullscreenenter"",""1"",""2793""
","
",,null,run_exp/static/images/task_images/gems/24.jpg,null,,,,,,,19,,,6,,,,,24,0.799466613,0.791666667,,,,,,,
decision,184,552496,0.0-57.0-2.0,"""event"",""trial"",""time""
""fullscreenenter"",""1"",""2793""
","
","
","""event"",""trial"",""time""
""fullscreenenter"",""1"",""2793""
","
",,463.8,run_exp/static/images/task_images/land.jpg,65,,,,,,,19,,,6,,,,,,,,218068,1,8,FALSE,,,
dig,185,555039,0.0-58.0-0.0,"""event"",""trial"",""time""
""fullscreenenter"",""1"",""2793""
","
","
","""event"",""trial"",""time""
""fullscreenenter"",""1"",""2793""
","
",,,,,,,,,,,,"[{""stimulus"":""run_exp/static/images/task_images/dig.jpg"",""time"":0.20000000298023224},{""stimulus"":""run_exp/static/images/task_images/land.jpg"",""time"":851.6000000014901},{""stimulus"":""run_exp/static/images/task_images/dig.jpg"",""time"":1693.6000000014901}]",[],6,,,,,,,,,,,,,,
harvest,186,556045,0.0-58.0-1.0,"""event"",""trial"",""time""
""fullscreenenter"",""1"",""2793""
","
","
","""event"",""trial"",""time""
""fullscreenenter"",""1"",""2793""
","
",,null,run_exp/static/images/task_images/gems/19.jpg,null,,,,,,,15,,,6,,,,,19,0.801651461,0.789473684,,,,,,,
decision,187,556363,0.0-58.0-2.0,"""event"",""trial"",""time""
""fullscreenenter"",""1"",""2793""
","
","
","""event"",""trial"",""time""
""fullscreenenter"",""1"",""2793""
","
",,316.2,run_exp/static/images/task_images/land.jpg,76,,,,,,,15,,,6,,,,,,,,221935,1,9,TRUE,,,
travel,188,566046,0.0-59.0-0.0,"""event"",""trial"",""time""
""fullscreenenter"",""1"",""2793""
","
","
","""event"",""trial"",""time""
""fullscreenenter"",""1"",""2793""
","
",,,,,,,,,,,,"[{""stimulus"":""run_exp/static/images/task_images/rocket-01.jpg"",""time"":0.19999999552965164},{""stimulus"":""run_exp/static/images/task_images/rocket-02.jpg"",""time"":1078.2999999970198},{""stimulus"":""run_exp/static/images/task_images/rocket-03.jpg"",""time"":2156.89999999851},{""stimulus"":""run_exp/static/images/task_images/rocket-04.jpg"",""time"":3230.5},{""stimulus"":""run_exp/static/images/task_images/rocket-05.jpg"",""time"":4304.89999999851},{""stimulus"":""run_exp/static/images/task_images/rocket-06.jpg"",""time"":5378.29999999702},{""stimulus"":""run_exp/static/images/task_images/rocket-07.jpg"",""time"":6456.5},{""stimulus"":""run_exp/static/images/task_images/rocket-08.jpg"",""time"":7533.79999999702},{""stimulus"":""run_exp/static/images/task_images/rocket-09.jpg"",""time"":8606.60000000149}]",[],6,,,,,,,,,,,,,,
alien_welcome,189,571049,0.0-59.0-1.0,"""event"",""trial"",""time""
""fullscreenenter"",""1"",""2793""
","
","
","""event"",""trial"",""time""
""fullscreenenter"",""1"",""2793""
","
",,null,run_exp/static/images/task_images/aliens/old_aliens/planet/alien_planet-63.jpg,null,,,,,,,,,,,,,63,"24,76,13,45,29,42,63,38,49,60,48,22,1,18,71,47,37,58,43,75,30,54,53,56,11,64,27,80,15,10,21,73,35,55,67,51,39,25,28,66",,,,,,,,,,
land,190,571556,0.0-59.0-2.0,"""event"",""trial"",""time""
""fullscreenenter"",""1"",""2793""
","
","
","""event"",""trial"",""time""
""fullscreenenter"",""1"",""2793""
","
",,null,run_exp/static/images/task_images/land.jpg,null,,,,,,,96,,,7,,,,,,,,,,,,,,
dig,191,573568,0.0-59.0-3.0,"""event"",""trial"",""time""
""fullscreenenter"",""1"",""2793""
","
","
","""event"",""trial"",""time""
""fullscreenenter"",""1"",""2793""
","
",,,,,,,,,,,,"[{""stimulus"":""run_exp/static/images/task_images/dig.jpg"",""time"":0.3999999985098839},{""stimulus"":""run_exp/static/images/task_images/land.jpg"",""time"":673},{""stimulus"":""run_exp/static/images/task_images/dig.jpg"",""time"":1336}]",[],7,,,,,,,,,,,,,,
harvest,192,574577,0.0-59.0-4.0,"""event"",""trial"",""time""
""fullscreenenter"",""1"",""2793""
","
","
","""event"",""trial"",""time""
""fullscreenenter"",""1"",""2793""
","
",,null,run_exp/static/images/task_images/gems/96.jpg,null,,,,,,,76,,,7,,,,,96,0.792763067,0.791666667,,,,,,,
decision,193,574964,0.0-59.0-5.0,"""event"",""trial"",""time""
""fullscreenenter"",""1"",""2793""
","
","
","""event"",""trial"",""time""
""fullscreenenter"",""1"",""2793""
","
",,384.7,run_exp/static/images/task_images/land.jpg,65,,,,,,,76,,,7,,,,,,,,240536,1,0,FALSE,,,
dig,194,577587,0.0-60.0-0.0,"""event"",""trial"",""time""
""fullscreenenter"",""1"",""2793""
","
","
","""event"",""trial"",""time""
""fullscreenenter"",""1"",""2793""
","
",,,,,,,,,,,,"[{""stimulus"":""run_exp/static/images/task_images/dig.jpg"",""time"":0.20000000298023224},{""stimulus"":""run_exp/static/images/task_images/land.jpg"",""time"":880.7000000029802},{""stimulus"":""run_exp/static/images/task_images/dig.jpg"",""time"":1748.7000000029802}]",[],7,,,,,,,,,,,,,,
harvest,195,578597,0.0-60.0-1.0,"""event"",""trial"",""time""
""fullscreenenter"",""1"",""2793""
","
","
","""event"",""trial"",""time""
""fullscreenenter"",""1"",""2793""
","
",,null,run_exp/static/images/task_images/gems/76.jpg,null,,,,,,,62,,,7,,,,,76,0.815777575,0.815789474,,,,,,,
decision,196,578962,0.0-60.0-2.0,"""event"",""trial"",""time""
""fullscreenenter"",""1"",""2793""
","
","
","""event"",""trial"",""time""
""fullscreenenter"",""1"",""2793""
","
",,363.3,run_exp/static/images/task_images/land.jpg,65,,,,,,,62,,,7,,,,,,,,244534,1,1,FALSE,,,
dig,197,581608,0.0-61.0-0.0,"""event"",""trial"",""time""
""fullscreenenter"",""1"",""2793""
","
","
","""event"",""trial"",""time""
""fullscreenenter"",""1"",""2793""
","
",,,,,,,,,,,,"[{""stimulus"":""run_exp/static/images/task_images/dig.jpg"",""time"":0.4000000059604645},{""stimulus"":""run_exp/static/images/task_images/land.jpg"",""time"":883.6000000014901},{""stimulus"":""run_exp/static/images/task_images/dig.jpg"",""time"":1761.5}]",[],7,,,,,,,,,,,,,,
harvest,198,582615,0.0-61.0-1.0,"""event"",""trial"",""time""
""fullscreenenter"",""1"",""2793""
","
","
","""event"",""trial"",""time""
""fullscreenenter"",""1"",""2793""
","
",,null,run_exp/static/images/task_images/gems/62.jpg,null,,,,,,,50,,,7,,,,,62,0.812270071,0.806451613,,,,,,,
decision,199,582943,0.0-61.0-2.0,"""event"",""trial"",""time""
""fullscreenenter"",""1"",""2793""
","
","
","""event"",""trial"",""time""
""fullscreenenter"",""1"",""2793""
","
",,326.4,run_exp/static/images/task_images/land.jpg,65,,,,,,,50,,,7,,,,,,,,248515,1,2,FALSE,,,
dig,200,585624,0.0-62.0-0.0,"""event"",""trial"",""time""
""fullscreenenter"",""1"",""2793""
","
","
","""event"",""trial"",""time""
""fullscreenenter"",""1"",""2793""
","
",,,,,,,,,,,,"[{""stimulus"":""run_exp/static/images/task_images/dig.jpg"",""time"":0.10000000149011612},{""stimulus"":""run_exp/static/images/task_images/land.jpg"",""time"":896.1000000014901},{""stimulus"":""run_exp/static/images/task_images/dig.jpg"",""time"":1787.3999999985099}]",[],7,,,,,,,,,,,,,,
harvest,201,586630,0.0-62.0-1.0,"""event"",""trial"",""time""
""fullscreenenter"",""1"",""2793""
","
","
","""event"",""trial"",""time""
""fullscreenenter"",""1"",""2793""
","
",,null,run_exp/static/images/task_images/gems/50.jpg,null,,,,,,,44,,,7,,,,,50,0.873990692,0.88,,,,,,,
decision,202,586889,0.0-62.0-2.0,"""event"",""trial"",""time""
""fullscreenenter"",""1"",""2793""
","
","
","""event"",""trial"",""time""
""fullscreenenter"",""1"",""2793""
","
",,256.4,run_exp/static/images/task_images/land.jpg,65,,,,,,,44,,,7,,,,,,,,252461,1,3,FALSE,,,
dig,203,589638,0.0-63.0-0.0,"""event"",""trial"",""time""
""fullscreenenter"",""1"",""2793""
","
","
","""event"",""trial"",""time""
""fullscreenenter"",""1"",""2793""
","
",,,,,,,,,,,,"[{""stimulus"":""run_exp/static/images/task_images/dig.jpg"",""time"":0.3999999985098839},{""stimulus"":""run_exp/static/images/task_images/land.jpg"",""time"":918.2999999970198},{""stimulus"":""run_exp/static/images/task_images/dig.jpg"",""time"":1832.5999999940395}]",[],7,,,,,,,,,,,,,,
harvest,204,590643,0.0-63.0-1.0,"""event"",""trial"",""time""
""fullscreenenter"",""1"",""2793""
","
","
","""event"",""trial"",""time""
""fullscreenenter"",""1"",""2793""
","
",,null,run_exp/static/images/task_images/gems/44.jpg,null,,,,,,,33,,,7,,,,,44,0.750524225,0.75,,,,,,,
decision,205,590975,0.0-63.0-2.0,"""event"",""trial"",""time""
""fullscreenenter"",""1"",""2793""
","
","
","""event"",""trial"",""time""
""fullscreenenter"",""1"",""2793""
","
",,329.7,run_exp/static/images/task_images/land.jpg,65,,,,,,,33,,,7,,,,,,,,256547,1,4,FALSE,,,
dig,206,593654,0.0-64.0-0.0,"""event"",""trial"",""time""
""fullscreenenter"",""1"",""2793""
","
","
","""event"",""trial"",""time""
""fullscreenenter"",""1"",""2793""
","
",,,,,,,,,,,,"[{""stimulus"":""run_exp/static/images/task_images/dig.jpg"",""time"":0.30000000447034836},{""stimulus"":""run_exp/static/images/task_images/land.jpg"",""time"":894.1000000014901},{""stimulus"":""run_exp/static/images/task_images/dig.jpg"",""time"":1783.6000000014901}]",[],7,,,,,,,,,,,,,,
harvest,207,594658,0.0-64.0-1.0,"""event"",""trial"",""time""
""fullscreenenter"",""1"",""2793""
","
","
","""event"",""trial"",""time""
""fullscreenenter"",""1"",""2793""
","
",,null,run_exp/static/images/task_images/gems/33.jpg,null,,,,,,,25,,,7,,,,,33,0.746543982,0.757575758,,,,,,,
decision,208,595021,0.0-64.0-2.0,"""event"",""trial"",""time""
""fullscreenenter"",""1"",""2793""
","
","
","""event"",""trial"",""time""
""fullscreenenter"",""1"",""2793""
","
",,361.2,run_exp/static/images/task_images/land.jpg,65,,,,,,,25,,,7,,,,,,,,260594,1,5,FALSE,,,
dig,209,597668,0.0-65.0-0.0,"""event"",""trial"",""time""
""fullscreenenter"",""1"",""2793""
","
","
","""event"",""trial"",""time""
""fullscreenenter"",""1"",""2793""
","
",,,,,,,,,,,,"[{""stimulus"":""run_exp/static/images/task_images/dig.jpg"",""time"":0.3999999985098839},{""stimulus"":""run_exp/static/images/task_images/land.jpg"",""time"":886},{""stimulus"":""run_exp/static/images/task_images/dig.jpg"",""time"":1760.6999999955297}]",[],7,,,,,,,,,,,,,,
harvest,210,598677,0.0-65.0-1.0,"""event"",""trial"",""time""
""fullscreenenter"",""1"",""2793""
","
","
","""event"",""trial"",""time""
""fullscreenenter"",""1"",""2793""
","
",,null,run_exp/static/images/task_images/gems/25.jpg,null,,,,,,,20,,,7,,,,,25,0.809297885,0.8,,,,,,,
decision,211,599005,0.0-65.0-2.0,"""event"",""trial"",""time""
""fullscreenenter"",""1"",""2793""
","
","
","""event"",""trial"",""time""
""fullscreenenter"",""1"",""2793""
","
",,326.2,run_exp/static/images/task_images/land.jpg,65,,,,,,,20,,,7,,,,,,,,264577,1,6,FALSE,,,
dig,212,601690,0.0-66.0-0.0,"""event"",""trial"",""time""
""fullscreenenter"",""1"",""2793""
","
","
","""event"",""trial"",""time""
""fullscreenenter"",""1"",""2793""
","
",,,,,,,,,,,,"[{""stimulus"":""run_exp/static/images/task_images/dig.jpg"",""time"":0.29999999701976776},{""stimulus"":""run_exp/static/images/task_images/land.jpg"",""time"":895.7999999970198},{""stimulus"":""run_exp/static/images/task_images/dig.jpg"",""time"":1789.2999999970198}]",[],7,,,,,,,,,,,,,,
harvest,213,602698,0.0-66.0-1.0,"""event"",""trial"",""time""
""fullscreenenter"",""1"",""2793""
","
","
","""event"",""trial"",""time""
""fullscreenenter"",""1"",""2793""
","
",,null,run_exp/static/images/task_images/gems/20.jpg,null,,,,,,,17,,,7,,,,,20,0.847606976,0.85,,,,,,,
decision,214,603054,0.0-66.0-2.0,"""event"",""trial"",""time""
""fullscreenenter"",""1"",""2793""
","
","
","""event"",""trial"",""time""
""fullscreenenter"",""1"",""2793""
","
",,354.2,run_exp/static/images/task_images/land.jpg,76,,,,,,,17,,,7,,,,,,,,268626,1,7,TRUE,,,
travel,215,612700,0.0-67.0-0.0,"""event"",""trial"",""time""
""fullscreenenter"",""1"",""2793""
","
","
","""event"",""trial"",""time""
""fullscreenenter"",""1"",""2793""
","
",,,,,,,,,,,,"[{""stimulus"":""run_exp/static/images/task_images/rocket-01.jpg"",""time"":0.29999999701976776},{""stimulus"":""run_exp/static/images/task_images/rocket-02.jpg"",""time"":1075.3999999985099},{""stimulus"":""run_exp/static/images/task_images/rocket-03.jpg"",""time"":2143.5},{""stimulus"":""run_exp/static/images/task_images/rocket-04.jpg"",""time"":3217.7000000029802},{""stimulus"":""run_exp/static/images/task_images/rocket-05.jpg"",""time"":4289.39999999851},{""stimulus"":""run_exp/static/images/task_images/rocket-06.jpg"",""time"":5358},{""stimulus"":""run_exp/static/images/task_images/rocket-07.jpg"",""time"":6434.70000000298},{""stimulus"":""run_exp/static/images/task_images/rocket-08.jpg"",""time"":7500},{""stimulus"":""run_exp/static/images/task_images/rocket-09.jpg"",""time"":8577.10000000149}]",[],7,,,,,,,,,,,,,,
alien_welcome,216,617704,0.0-67.0-1.0,"""event"",""trial"",""time""
""fullscreenenter"",""1"",""2793""
","
","
","""event"",""trial"",""time""
""fullscreenenter"",""1"",""2793""
","
",,null,run_exp/static/images/task_images/aliens/old_aliens/planet/alien_planet-38.jpg,null,,,,,,,,,,,,,38,"24,76,13,45,29,42,63,38,49,60,48,22,1,18,71,47,37,58,43,75,30,54,53,56,11,64,27,80,15,10,21,73,35,55,67,51,39,25,28,66",,,,,,,,,,
land,217,618208,0.0-67.0-2.0,"""event"",""trial"",""time""
""fullscreenenter"",""1"",""2793""
","
","
","""event"",""trial"",""time""
""fullscreenenter"",""1"",""2793""
","
",,null,run_exp/static/images/task_images/land.jpg,null,,,,,,,111,,,8,,,,,,,,,,,,,,
dig,218,620215,0.0-67.0-3.0,"""event"",""trial"",""time""
""fullscreenenter"",""1"",""2793""
","
","
","""event"",""trial"",""time""
""fullscreenenter"",""1"",""2793""
","
",,,,,,,,,,,,"[{""stimulus"":""run_exp/static/images/task_images/dig.jpg"",""time"":0.3999999985098839},{""stimulus"":""run_exp/static/images/task_images/land.jpg"",""time"":677.3000000044703},{""stimulus"":""run_exp/static/images/task_images/dig.jpg"",""time"":1338.8000000044703}]",[],8,,,,,,,,,,,,,,
harvest,219,621225,0.0-67.0-4.0,"""event"",""trial"",""time""
""fullscreenenter"",""1"",""2793""
","
","
","""event"",""trial"",""time""
""fullscreenenter"",""1"",""2793""
","
",,null,run_exp/static/images/task_images/gems/111.jpg,null,,,,,,,97,,,8,,,,,111,0.875482512,0.873873874,,,,,,,
decision,220,621572,0.0-67.0-5.0,"""event"",""trial"",""time""
""fullscreenenter"",""1"",""2793""
","
","
","""event"",""trial"",""time""
""fullscreenenter"",""1"",""2793""
","
",,344.4,run_exp/static/images/task_images/land.jpg,65,,,,,,,97,,,8,,,,,,,,287144,1,0,FALSE,,,
dig,221,624237,0.0-68.0-0.0,"""event"",""trial"",""time""
""fullscreenenter"",""1"",""2793""
","
","
","""event"",""trial"",""time""
""fullscreenenter"",""1"",""2793""
","
",,,,,,,,,,,,"[{""stimulus"":""run_exp/static/images/task_images/dig.jpg"",""time"":0.6000000014901161},{""stimulus"":""run_exp/static/images/task_images/land.jpg"",""time"":888.6000000014901},{""stimulus"":""run_exp/static/images/task_images/dig.jpg"",""time"":1772.6999999955297}]",[],8,,,,,,,,,,,,,,
harvest,222,625243,0.0-68.0-1.0,"""event"",""trial"",""time""
""fullscreenenter"",""1"",""2793""
","
","
","""event"",""trial"",""time""
""fullscreenenter"",""1"",""2793""
","
",,null,run_exp/static/images/task_images/gems/97.jpg,null,,,,,,,85,,,8,,,,,97,0.877747359,0.87628866,,,,,,,
decision,223,625590,0.0-68.0-2.0,"""event"",""trial"",""time""
""fullscreenenter"",""1"",""2793""
","
","
","""event"",""trial"",""time""
""fullscreenenter"",""1"",""2793""
","
",,345.1,run_exp/static/images/task_images/land.jpg,65,,,,,,,85,,,8,,,,,,,,291162,1,1,FALSE,,,
dig,224,628253,0.0-69.0-0.0,"""event"",""trial"",""time""
""fullscreenenter"",""1"",""2793""
","
","
","""event"",""trial"",""time""
""fullscreenenter"",""1"",""2793""
","
",,,,,,,,,,,,"[{""stimulus"":""run_exp/static/images/task_images/dig.jpg"",""time"":0.10000000149011612},{""stimulus"":""run_exp/static/images/task_images/land.jpg"",""time"":889.9000000059605},{""stimulus"":""run_exp/static/images/task_images/dig.jpg"",""time"":1775}]",[],8,,,,,,,,,,,,,,
harvest,225,629259,0.0-69.0-1.0,"""event"",""trial"",""time""
""fullscreenenter"",""1"",""2793""
","
","
","""event"",""trial"",""time""
""fullscreenenter"",""1"",""2793""
","
",,null,run_exp/static/images/task_images/gems/85.jpg,null,,,,,,,76,,,8,,,,,85,0.896909421,0.894117647,,,,,,,
decision,226,629600,0.0-69.0-2.0,"""event"",""trial"",""time""
""fullscreenenter"",""1"",""2793""
","
","
","""event"",""trial"",""time""
""fullscreenenter"",""1"",""2793""
","
",,338.4,run_exp/static/images/task_images/land.jpg,65,,,,,,,76,,,8,,,,,,,,295172,1,2,FALSE,,,
dig,227,632269,0.0-70.0-0.0,"""event"",""trial"",""time""
""fullscreenenter"",""1"",""2793""
","
","
","""event"",""trial"",""time""
""fullscreenenter"",""1"",""2793""
","
",,,,,,,,,,,,"[{""stimulus"":""run_exp/static/images/task_images/dig.jpg"",""time"":0.30000000447034836},{""stimulus"":""run_exp/static/images/task_images/land.jpg"",""time"":892.3000000044703},{""stimulus"":""run_exp/static/images/task_images/dig.jpg"",""time"":1779.6000000014901}]",[],8,,,,,,,,,,,,,,
harvest,228,633272,0.0-70.0-1.0,"""event"",""trial"",""time""
""fullscreenenter"",""1"",""2793""
","
","
","""event"",""trial"",""time""
""fullscreenenter"",""1"",""2793""
","
",,null,run_exp/static/images/task_images/gems/76.jpg,null,,,,,,,64,,,8,,,,,76,0.839465725,0.842105263,,,,,,,
decision,229,633555,0.0-70.0-2.0,"""event"",""trial"",""time""
""fullscreenenter"",""1"",""2793""
","
","
","""event"",""trial"",""time""
""fullscreenenter"",""1"",""2793""
","
",,280.9,run_exp/static/images/task_images/land.jpg,65,,,,,,,64,,,8,,,,,,,,299127,1,3,FALSE,,,
dig,230,636285,0.0-71.0-0.0,"""event"",""trial"",""time""
""fullscreenenter"",""1"",""2793""
","
","
","""event"",""trial"",""time""
""fullscreenenter"",""1"",""2793""
","
",,,,,,,,,,,,"[{""stimulus"":""run_exp/static/images/task_images/dig.jpg"",""time"":0.19999999552965164},{""stimulus"":""run_exp/static/images/task_images/land.jpg"",""time"":908.8999999985099},{""stimulus"":""run_exp/static/images/task_images/dig.jpg"",""time"":1817.7999999970198}]",[],8,,,,,,,,,,,,,,
harvest,231,637294,0.0-71.0-1.0,"""event"",""trial"",""time""
""fullscreenenter"",""1"",""2793""
","
","
","""event"",""trial"",""time""
""fullscreenenter"",""1"",""2793""
","
",,null,run_exp/static/images/task_images/gems/64.jpg,null,,,,,,,47,,,8,,,,,64,0.735276014,0.734375,,,,,,,
decision,232,637639,0.0-71.0-2.0,"""event"",""trial"",""time""
""fullscreenenter"",""1"",""2793""
","
","
","""event"",""trial"",""time""
""fullscreenenter"",""1"",""2793""
","
",,341.7,run_exp/static/images/task_images/land.jpg,65,,,,,,,47,,,8,,,,,,,,303212,1,4,TRUE,,,
end_of_block_continue,233,646579,0.0-72.0-0.0,"""event"",""trial"",""time""
""fullscreenenter"",""1"",""2793""
","
","
","""event"",""trial"",""time""
""fullscreenenter"",""1"",""2793""
","
",,null,run_exp/static/audio/clip_32_block_end.m4a,,,,,,,null,,,,,,,,,,,,,,,,,,
alien_welcome,234,651585,0.0-73.0-0.0,"""event"",""trial"",""time""
""fullscreenenter"",""1"",""2793""
","
","
","""event"",""trial"",""time""
""fullscreenenter"",""1"",""2793""
","
",,null,run_exp/static/images/task_images/aliens/old_aliens/planet/alien_planet-49.jpg,null,,,,,,,,,,,,,49,"24,76,13,45,29,42,63,38,49,60,48,22,1,18,71,47,37,58,43,75,30,54,53,56,11,64,27,80,15,10,21,73,35,55,67,51,39,25,28,66",,,,,,,,,,
land,235,652089,0.0-73.0-1.0,"""event"",""trial"",""time""
""fullscreenenter"",""1"",""2793""
","
","
","""event"",""trial"",""time""
""fullscreenenter"",""1"",""2793""
","
",,null,run_exp/static/images/task_images/land.jpg,null,,,,,,,110,,,9,,,,,,,,,,,,,,
dig,236,654098,0.0-73.0-2.0,"""event"",""trial"",""time""
""fullscreenenter"",""1"",""2793""
","
","
","""event"",""trial"",""time""
""fullscreenenter"",""1"",""2793""
","
",,,,,,,,,,,,"[{""stimulus"":""run_exp/static/images/task_images/dig.jpg"",""time"":0.3999999985098839},{""stimulus"":""run_exp/static/images/task_images/land.jpg"",""time"":673.6000000014901},{""stimulus"":""run_exp/static/images/task_images/dig.jpg"",""time"":1339.2000000029802}]",[],9,,,,,,,,,,,,,,
harvest,237,655100,0.0-73.0-3.0,"""event"",""trial"",""time""
""fullscreenenter"",""1"",""2793""
","
","
","""event"",""trial"",""time""
""fullscreenenter"",""1"",""2793""
","
",,null,run_exp/static/images/task_images/gems/110.jpg,null,,,,,,,14,,,9,,,,,110,0.123939766,0.127272727,,,,,,,
decision,238,655431,0.0-73.0-4.0,"""event"",""trial"",""time""
""fullscreenenter"",""1"",""2793""
","
","
","""event"",""trial"",""time""
""fullscreenenter"",""1"",""2793""
","
",,329.2,run_exp/static/images/task_images/land.jpg,65,,,,,,,14,,,9,,,,,,,,8849,2,0,FALSE,,,
dig,239,658107,0.0-74.0-0.0,"""event"",""trial"",""time""
""fullscreenenter"",""1"",""2793""
","
","
","""event"",""trial"",""time""
""fullscreenenter"",""1"",""2793""
","
",,,,,,,,,,,,"[{""stimulus"":""run_exp/static/images/task_images/dig.jpg"",""time"":0.19999999552965164},{""stimulus"":""run_exp/static/images/task_images/land.jpg"",""time"":899},{""stimulus"":""run_exp/static/images/task_images/dig.jpg"",""time"":1785.8999999985099}]",[],9,,,,,,,,,,,,,,
harvest,240,659113,0.0-74.0-1.0,"""event"",""trial"",""time""
""fullscreenenter"",""1"",""2793""
","
","
","""event"",""trial"",""time""
""fullscreenenter"",""1"",""2793""
","
",,null,run_exp/static/images/task_images/gems/14.jpg,null,,,,,,,3,,,9,,,,,14,0.201760842,0.214285714,,,,,,,
decision,241,659501,0.0-74.0-2.0,"""event"",""trial"",""time""
""fullscreenenter"",""1"",""2793""
","
","
","""event"",""trial"",""time""
""fullscreenenter"",""1"",""2793""
","
",,386.2,run_exp/static/images/task_images/land.jpg,76,,,,,,,3,,,9,,,,,,,,12918,2,1,TRUE,,,
travel,242,669125,0.0-75.0-0.0,"""event"",""trial"",""time""
""fullscreenenter"",""1"",""2793""
","
","
","""event"",""trial"",""time""
""fullscreenenter"",""1"",""2793""
","
",,,,,,,,,,,,"[{""stimulus"":""run_exp/static/images/task_images/rocket-01.jpg"",""time"":0.20000000298023224},{""stimulus"":""run_exp/static/images/task_images/rocket-02.jpg"",""time"":1073.1000000014901},{""stimulus"":""run_exp/static/images/task_images/rocket-03.jpg"",""time"":2139.2000000029802},{""stimulus"":""run_exp/static/images/task_images/rocket-04.jpg"",""time"":3207.5},{""stimulus"":""run_exp/static/images/task_images/rocket-05.jpg"",""time"":4278.20000000298},{""stimulus"":""run_exp/static/images/task_images/rocket-06.jpg"",""time"":5343.70000000298},{""stimulus"":""run_exp/static/images/task_images/rocket-07.jpg"",""time"":6413.89999999851},{""stimulus"":""run_exp/static/images/task_images/rocket-08.jpg"",""time"":7479.70000000298},{""stimulus"":""run_exp/static/images/task_images/rocket-09.jpg"",""time"":8548}]",[],9,,,,,,,,,,,,,,
alien_welcome,243,674131,0.0-75.0-1.0,"""event"",""trial"",""time""
""fullscreenenter"",""1"",""2793""
","
","
","""event"",""trial"",""time""
""fullscreenenter"",""1"",""2793""
","
",,null,run_exp/static/images/task_images/aliens/old_aliens/planet/alien_planet-60.jpg,null,,,,,,,,,,,,,60,"24,76,13,45,29,42,63,38,49,60,48,22,1,18,71,47,37,58,43,75,30,54,53,56,11,64,27,80,15,10,21,73,35,55,67,51,39,25,28,66",,,,,,,,,,
land,244,674635,0.0-75.0-2.0,"""event"",""trial"",""time""
""fullscreenenter"",""1"",""2793""
","
","
","""event"",""trial"",""time""
""fullscreenenter"",""1"",""2793""
","
",,null,run_exp/static/images/task_images/land.jpg,null,,,,,,,102,,,10,,,,,,,,,,,,,,
dig,245,676643,0.0-75.0-3.0,"""event"",""trial"",""time""
""fullscreenenter"",""1"",""2793""
","
","
","""event"",""trial"",""time""
""fullscreenenter"",""1"",""2793""
","
",,,,,,,,,,,,"[{""stimulus"":""run_exp/static/images/task_images/dig.jpg"",""time"":0.30000000447034836},{""stimulus"":""run_exp/static/images/task_images/land.jpg"",""time"":673.1000000014901},{""stimulus"":""run_exp/static/images/task_images/dig.jpg"",""time"":1338.9000000059605}]",[],10,,,,,,,,,,,,,,
harvest,246,677647,0.0-75.0-4.0,"""event"",""trial"",""time""
""fullscreenenter"",""1"",""2793""
","
","
","""event"",""trial"",""time""
""fullscreenenter"",""1"",""2793""
","
",,null,run_exp/static/images/task_images/gems/102.jpg,null,,,,,,,17,,,10,,,,,102,0.167045671,0.166666667,,,,,,,
decision,247,678059,0.0-75.0-5.0,"""event"",""trial"",""time""
""fullscreenenter"",""1"",""2793""
","
","
","""event"",""trial"",""time""
""fullscreenenter"",""1"",""2793""
","
",,410.6,run_exp/static/images/task_images/land.jpg,65,,,,,,,17,,,10,,,,,,,,31476,2,0,FALSE,,,
dig,248,680655,0.0-76.0-0.0,"""event"",""trial"",""time""
""fullscreenenter"",""1"",""2793""
","
","
","""event"",""trial"",""time""
""fullscreenenter"",""1"",""2793""
","
",,,,,,,,,,,,"[{""stimulus"":""run_exp/static/images/task_images/dig.jpg"",""time"":0.29999999701976776},{""stimulus"":""run_exp/static/images/task_images/land.jpg"",""time"":865.6000000014901},{""stimulus"":""run_exp/static/images/task_images/dig.jpg"",""time"":1730.5}]",[],10,,,,,,,,,,,,,,
harvest,249,681662,0.0-76.0-1.0,"""event"",""trial"",""time""
""fullscreenenter"",""1"",""2793""
","
","
","""event"",""trial"",""time""
""fullscreenenter"",""1"",""2793""
","
",,null,run_exp/static/images/task_images/gems/17.jpg,null,,,,,,,5,,,10,,,,,17,0.280107328,0.294117647,,,,,,,
decision,250,682167,0.0-76.0-2.0,"""event"",""trial"",""time""
