trial_type,trial_index,time_elapsed,internal_node_id,success,rt,stimulus,key_press,prompt,subject_id,age,gender,button_pressed,next_reward,animation_sequence,responses,planet,curr_prac_trial,n_prac_rounds,alien,aliens,reward_received,decay_rate_actual,decay_rate_exp,time_in_block,block_num,prt,last_trial_on_planet,button_html,bonus,num_failures
pavlovia,0,8,0.0-0.0,,,,,,,,,,,,,,,,,,,,,,,,,,,
fullscreen,1,5576,0.0-1.0,TRUE,,,,,,,,,,,,,,,,,,,,,,,,,,
instruc_welcome,2,15508,0.0-2.0,,null,run_exp/static/audio/clip_1_welcome.m4a,null,"<p>Howdy! In this experiment, you’ll be an explorer traveling through space to collect space treasure.</p><p>Your mission is to collect as much treasure as possible.</p><br><br><p><img src='run_exp/static/images/task_images/opening_img-01.jpg' height='300' width='auto'></p>",p79bmmg6Ma0DxiA_1Y3uCvx5VSxv8Zo_MLRP_eX9IjlqJL0hXZvE,12.56,female,,,,,,,,,,,,,,,,,,,
audio-keyboard-response,3,32125,0.0-3.0,,null,run_exp/static/audio/clip_2_move.m4a,null,,,,,,,,,,,,,,,,,,,,,,,
welcome_dec,4,35824,0.0-4.0,,3690.4,"<p>Howdy! In this experiment, you’ll be an explorer traveling through space to collect space treasure.</p><p>Your mission is to collect as much treasure as possible.</p><br><br><p><img src='run_exp/static/images/task_images/opening_img-01.jpg' height='300' width='auto'></p>",,,,,,1,,,,,,,,,,,,,,,,,,
html-keyboard-response,5,40530,0.0-5.0,,4701.3,"<p>Howdy! In this experiment, you’ll be an explorer traveling through space to collect space treasure.</p><p>Your mission is to collect as much treasure as possible.</p><br><br><p><img src='run_exp/static/images/task_images/opening_img-01.jpg' height='300' width='auto'></p><button class=""jspsych-html-btn-unchosen""><img src=""run_exp/static/images/task_images/planet-01.jpg"" height=""50""></button><button class=""jspsych-html-btn-chosen""><img src=""run_exp/static/images/task_images/planet-02.jpg"" height=""50""></button><p><b>[press the space bar to lock in your answer]<b><br></p>",32,,,,,,,,,,,,,,,,,,,,,,,
instruc_goal,6,50626,0.0-6.0-0.0,,null,run_exp/static/audio/clip_3_goal.m4a,null,"<p> As a space explorer, you’ll visit different planets to dig for space treasure, these pink gems.</p> <p> The more treasure you dig up, the more bonus money you’ll win! </p><br><br><p><img src='run_exp/static/images/task_images/pink_gem.jpg' height='300' width='auto'></p>",,,,,,,,,,,,,,,,,,,,,,
instruc_goal,7,51904,0.0-6.0-1.0,,1272.1,"<p> As a space explorer, you’ll visit different planets to dig for space treasure, these pink gems.</p> <p> The more treasure you dig up, the more bonus money you’ll win! </p><br><br><p><img src='run_exp/static/images/task_images/pink_gem.jpg' height='300' width='auto'></p>",,,,,,1,,,,,,,,,,,,,,,,,,
html-keyboard-response,8,53068,0.0-6.0-2.0,,1162.5,"<p> As a space explorer, you’ll visit different planets to dig for space treasure, these pink gems.</p> <p> The more treasure you dig up, the more bonus money you’ll win! </p><br><br><p><img src='run_exp/static/images/task_images/pink_gem.jpg' height='300' width='auto'></p><button class=""jspsych-html-btn-unchosen""><img src=""run_exp/static/images/task_images/planet-01.jpg"" height=""50""></button><button class=""jspsych-html-btn-chosen""><img src=""run_exp/static/images/task_images/planet-02.jpg"" height=""50""></button><p><b>[press the space bar to lock in your answer]<b><br></p>",32,,,,,,,,,,,,,,,,,,,,,,,
instruc_dig,9,69105,0.0-7.0-0.0,,null,run_exp/static/audio/clip_4_dig.m4a,null,,,,,,100,,,,,,,,,,,,,,,,,
instruc_dig_try,10,70335,0.0-7.0-1.0,,1224.5,"<p> When you’ve arrived at a new planet, you will dig once. </p> <p>Then, you get to decide if you want to stay on the planet and dig again or travel to a new planet and dig there.</p> <p> To stay and dig, press the letter <strong>‘A’</strong> on your keyboard. Try pressing it now! </p><p><img src='run_exp/static/images/task_images/land.jpg'  height='700' width='auto'></p>",65,"<p> When you’ve arrived at a new planet, you will dig once. </p> <p>Then, you get to decide if you want to stay on the planet and dig again or travel to a new planet and dig there.</p> <p> To stay and dig, press the letter <strong>‘A’</strong> on your keyboard. Try pressing it now! </p><p><img src='run_exp/static/images/task_images/land.jpg'  height='700' width='auto'></p>",,,,,100,,,,,,,,,,,,,,,,,
dig_prac,11,72354,0.0-7.0-2.0,,,,,,,,,,,"[{""stimulus"":""run_exp/static/images/task_images/dig.jpg"",""time"":0.5999999046325684},{""stimulus"":""run_exp/static/images/task_images/land.jpg"",""time"":676.5},{""stimulus"":""run_exp/static/images/task_images/dig.jpg"",""time"":1346.4000000953674}]",[],,,,,,,,,,,,,,,
instruc_travel,12,108625,0.0-7.0-3.0,,null,run_exp/static/audio/clip_5_travel.m4a,null,"<p>Every time you dig up gems, there are less gems on the planet, so the more you dig on a planet the fewer gems you’ll get with each dig.</p><p>When gems are running low, you may want to travel to a new planet. </p> <p>  Planets are very far apart in this galaxy, so it will take some time to travel between them. </p> <br><p>There are lots and lots of planets for you to visit, so you won’t be able to return to any planets you’ve seen before. </p><br><p>To leave this planet and travel to a new one, press the letter <strong>‘L’</strong> on your keyboard. Try pressing it now! </p><p><img src='run_exp/static/images/task_images/rocket-01.jpg'  height='600' width='auto'></p>",,,,,,,,,,,,,,,,,,,,,,
instruc_travel_try,13,112047,0.0-7.0-4.0,,3417.6,"<p>Every time you dig up gems, there are less gems on the planet, so the more you dig on a planet the fewer gems you’ll get with each dig.</p><p>When gems are running low, you may want to travel to a new planet. </p> <p>  Planets are very far apart in this galaxy, so it will take some time to travel between them. </p> <br><p>There are lots and lots of planets for you to visit, so you won’t be able to return to any planets you’ve seen before. </p><br><p>To leave this planet and travel to a new one, press the letter <strong>‘L’</strong> on your keyboard. Try pressing it now! </p><p><img src='run_exp/static/images/task_images/rocket-01.jpg'  height='600' width='auto'></p>",76,"<p>Every time you dig up gems, there are less gems on the planet, so the more you dig on a planet the fewer gems you’ll get with each dig.</p><p>When gems are running low, you may want to travel to a new planet. </p> <p>  Planets are very far apart in this galaxy, so it will take some time to travel between them. </p> <br><p>There are lots and lots of planets for you to visit, so you won’t be able to return to any planets you’ve seen before. </p><br><p>To leave this planet and travel to a new one, press the letter <strong>‘L’</strong> on your keyboard. Try pressing it now! </p><p><img src='run_exp/static/images/task_images/rocket-01.jpg'  height='600' width='auto'></p>",,,,,,,,,,,,,,,,,,,,,,
travel_prac,14,122053,0.0-7.0-5.0,,,,,,,,,,,"[{""stimulus"":""run_exp/static/images/task_images/rocket-01.jpg"",""time"":0.5},{""stimulus"":""run_exp/static/images/task_images/rocket-02.jpg"",""time"":1117.2999997138977},{""stimulus"":""run_exp/static/images/task_images/rocket-03.jpg"",""time"":2233.5999999046326},{""stimulus"":""run_exp/static/images/task_images/rocket-04.jpg"",""time"":3343.699999809265},{""stimulus"":""run_exp/static/images/task_images/rocket-05.jpg"",""time"":4449.5},{""stimulus"":""run_exp/static/images/task_images/rocket-06.jpg"",""time"":5563.900000095367},{""stimulus"":""run_exp/static/images/task_images/rocket-07.jpg"",""time"":6674.299999713898},{""stimulus"":""run_exp/static/images/task_images/rocket-08.jpg"",""time"":7781.799999713898},{""stimulus"":""run_exp/static/images/task_images/rocket-09.jpg"",""time"":8894.099999904633}]",[],0,,,,,,,,,,,,,,
instruc_alien_greet,15,149256,0.0-7.0-6.0,,null,run_exp/static/audio/clip_6_alien.m4a,null,"<p>When you arrive at a new planet, the alien who owns the treasure mine on that planet will greet you!</p><p>The better an alien takes care of their mine the easier it is to dig for gems. Some aliens take better care of their mine than others. So, you won’t get exactly the same amount of gems on each planet.</p><p>What the alien looks like does not tell you anything about how many gems there are on the planet.</p><br><p><img src=""run_exp/static/images/task_images/aliens/instructions_aliens/planet/alien_planet-1.jpg""  height=""600"" width=""auto""></p>",,,,,,,,,,,,,,,,,,,,,,
instruc_alien_greet,16,151552,0.0-7.0-7.0,,2288.3,"<p>When you arrive at a new planet, the alien who owns the treasure mine on that planet will greet you!</p><p>The better an alien takes care of their mine the easier it is to dig for gems. Some aliens take better care of their mine than others. So, you won’t get exactly the same amount of gems on each planet.</p><p>What the alien looks like does not tell you anything about how many gems there are on the planet.</p><br><p><img src=""run_exp/static/images/task_images/aliens/instructions_aliens/planet/alien_planet-1.jpg""  height=""600"" width=""auto""></p>",,,,,,1,,,,,,,,,,,,,,,,,,
html-keyboard-response,17,152056,0.0-7.0-8.0,,502.5,"<p>When you arrive at a new planet, the alien who owns the treasure mine on that planet will greet you!</p><p>The better an alien takes care of their mine the easier it is to dig for gems. Some aliens take better care of their mine than others. So, you won’t get exactly the same amount of gems on each planet.</p><p>What the alien looks like does not tell you anything about how many gems there are on the planet.</p><br><p><img src=""run_exp/static/images/task_images/aliens/instructions_aliens/planet/alien_planet-1.jpg""  height=""600"" width=""auto""></p><button class=""jspsych-html-btn-unchosen""><img src=""run_exp/static/images/task_images/planet-01.jpg"" height=""50""></button><button class=""jspsych-html-btn-chosen""><img src=""run_exp/static/images/task_images/planet-02.jpg"" height=""50""></button><p><b>[press the space bar to lock in your answer]<b><br></p>",32,,,,,,,,,,,,,,,,,,,,,,,
time_out,18,163175,0.0-8.0-0.0,,null,run_exp/static/audio/clip_7_timeout.m4a,null,"<p>If you don't make your choice fast enough, you’ll have to wait a few seconds before you can make another one.</p><p>You can’t dig for more gems or travel to new planets. You just have to sit and wait.</p><br><p><img src='run_exp/static/images/task_images/time_out.jpg'  height='600' width='auto'></p>",,,,,,,,,,,,,,,,,,,,,,
time_out,19,165016,0.0-8.0-1.0,,1834.7,"<p>If you don't make your choice fast enough, you’ll have to wait a few seconds before you can make another one.</p><p>You can’t dig for more gems or travel to new planets. You just have to sit and wait.</p><br><p><img src='run_exp/static/images/task_images/time_out.jpg'  height='600' width='auto'></p>",,,,,,1,,,,,,,,,,,,,,,,,,
html-keyboard-response,20,165452,0.0-8.0-2.0,,434.5,"<p>If you don't make your choice fast enough, you’ll have to wait a few seconds before you can make another one.</p><p>You can’t dig for more gems or travel to new planets. You just have to sit and wait.</p><br><p><img src='run_exp/static/images/task_images/time_out.jpg'  height='600' width='auto'></p><button class=""jspsych-html-btn-unchosen""><img src=""run_exp/static/images/task_images/planet-01.jpg"" height=""50""></button><button class=""jspsych-html-btn-chosen""><img src=""run_exp/static/images/task_images/planet-02.jpg"" height=""50""></button><p><b>[press the space bar to lock in your answer]<b><br></p>",32,,,,,,,,,,,,,,,,,,,,,,,
instruc_break,21,181135,0.0-9.0-0.0,,null,run_exp/static/audio/clip_8_break.m4a,null,"<p> After digging and traveling for a while, you’ll be able to take a break at home base. </p><p>The game will last 20 minutes no matter what.</p><p>You will visit home base every 5 minutes, so, you will visit home base three times during the game.</p><br><p><img src='run_exp/static/images/task_images/home_base.jpg' height='600' width='auto'></p>",,,,,,,,,,,,,,,,,,,,,,
instruc_break,22,182783,0.0-9.0-1.0,,1643.8,"<p> After digging and traveling for a while, you’ll be able to take a break at home base. </p><p>The game will last 20 minutes no matter what.</p><p>You will visit home base every 5 minutes, so, you will visit home base three times during the game.</p><br><p><img src='run_exp/static/images/task_images/home_base.jpg' height='600' width='auto'></p>",,,,,,1,,,,,,,,,,,,,,,,,,
html-keyboard-response,23,183149,0.0-9.0-2.0,,364.6000004,"<p> After digging and traveling for a while, you’ll be able to take a break at home base. </p><p>The game will last 20 minutes no matter what.</p><p>You will visit home base every 5 minutes, so, you will visit home base three times during the game.</p><br><p><img src='run_exp/static/images/task_images/home_base.jpg' height='600' width='auto'></p><button class=""jspsych-html-btn-unchosen""><img src=""run_exp/static/images/task_images/planet-01.jpg"" height=""50""></button><button class=""jspsych-html-btn-chosen""><img src=""run_exp/static/images/task_images/planet-02.jpg"" height=""50""></button><p><b>[press the space bar to lock in your answer]<b><br></p>",32,,,,,,,,,,,,,,,,,,,,,,,
instruc_prac_game,24,193295,0.0-10.0-0.0,,null,run_exp/static/audio/clip_9_practice.m4a,null,"<p> Are you ready to play a practice game? </p> <p>In this practice game, you'll be digging up barrels of gems. But, in the real game, you'll be digging up the gems themselves. </p>",,,,,,,,,,,,,,,,,,,,,,
html-button-response,25,195991,0.0-10.0-1.0,,2691.8,"<p> Are you ready to play a practice game? </p> <p>In this practice game, you'll be digging up barrels of gems. But, in the real game, you'll be digging up the gems themselves. </p>",,,,,,0,,,,,,,,,,,,,,,,,,
alien_welcome_prac,26,201004,0.0-11.0-0.0,,null,run_exp/static/images/task_images/aliens/practice_aliens/planet/alien_planet-5.jpg,null,,,,,,,,,,,,,,,,,,,,,,,
land_prac,27,201513,0.0-11.0-1.0,,null,run_exp/static/images/task_images/land.jpg,null,,,,,,103,,,0,,,,,,,,,,,,,,
dig_prac,28,203520,0.0-11.0-2.0,,,,,,,,,,,"[{""stimulus"":""run_exp/static/images/task_images/dig.jpg"",""time"":0.5},{""stimulus"":""run_exp/static/images/task_images/land.jpg"",""time"":672.0999999046326},{""stimulus"":""run_exp/static/images/task_images/dig.jpg"",""time"":1337.9000000953674}]",[],,,,,,,,,,,,,,,
harvest_prac,29,204526,0.0-11.0-3.0,,null,run_exp/static/images/task_images/barrel_text.jpg,null,,,,,,,,,,,,,,,,,,,,,,,
decision_prac,30,206472,0.0-11.0-4.0,,1944.4,run_exp/static/images/task_images/land.jpg,65,,,,,,,,,,1,,,,,,,,,,,,,
dig_prac,31,208484,0.0-12.0-0.0,,,,,,,,,,,"[{""stimulus"":""run_exp/static/images/task_images/dig.jpg"",""time"":0.5},{""stimulus"":""run_exp/static/images/task_images/land.jpg"",""time"":673.7000002861023},{""stimulus"":""run_exp/static/images/task_images/dig.jpg"",""time"":1340}]",[],,,,,,,,,,,,,,,
harvest_prac,32,209493,0.0-12.0-1.0,,null,run_exp/static/images/task_images/barrel_text.jpg,null,,,,,,,,,,,,,,,,,,,,,,,
decision_prac,33,209882,0.0-12.0-2.0,,387.2000003,run_exp/static/images/task_images/land.jpg,65,,,,,,,,,,2,,,,,,,,,,,,,
dig_prac,34,211894,0.0-13.0-0.0,,,,,,,,,,,"[{""stimulus"":""run_exp/static/images/task_images/dig.jpg"",""time"":0.40000009536743164},{""stimulus"":""run_exp/static/images/task_images/land.jpg"",""time"":673.4000000953674},{""stimulus"":""run_exp/static/images/task_images/dig.jpg"",""time"":1345.5999999046326}]",[],,,,,,,,,,,,,,,
harvest_prac,35,212899,0.0-13.0-1.0,,null,run_exp/static/images/task_images/barrel_text.jpg,null,,,,,,,,,,,,,,,,,,,,,,,
decision_prac,36,213196,0.0-13.0-2.0,,295.4000001,run_exp/static/images/task_images/land.jpg,65,,,,,,,,,,3,,,,,,,,,,,,,
dig_prac,37,215213,0.0-14.0-0.0,,,,,,,,,,,"[{""stimulus"":""run_exp/static/images/task_images/dig.jpg"",""time"":0.3000001907348633},{""stimulus"":""run_exp/static/images/task_images/land.jpg"",""time"":672.3000001907349},{""stimulus"":""run_exp/static/images/task_images/dig.jpg"",""time"":1341.8000001907349}]",[],,,,,,,,,,,,,,,
harvest_prac,38,216216,0.0-14.0-1.0,,null,run_exp/static/images/task_images/barrel_text.jpg,null,,,,,,,,,,,,,,,,,,,,,,,
decision_prac,39,216268,0.0-14.0-2.0,,49.9000001,run_exp/static/images/task_images/land.jpg,65,,,,,,,,,,4,,,,,,,,,,,,,
dig_prac,40,218281,0.0-15.0-0.0,,,,,,,,,,,"[{""stimulus"":""run_exp/static/images/task_images/dig.jpg"",""time"":0.40000009536743164},{""stimulus"":""run_exp/static/images/task_images/land.jpg"",""time"":671},{""stimulus"":""run_exp/static/images/task_images/dig.jpg"",""time"":1340.8000001907349}]",[],,,,,,,,,,,,,,,
harvest_prac,41,219295,0.0-15.0-1.0,,null,run_exp/static/images/task_images/barrel_text.jpg,null,,,,,,,,,,,,,,,,,,,,,,,
decision_prac,42,219390,0.0-15.0-2.0,,93.39999962,run_exp/static/images/task_images/land.jpg,65,,,,,,,,,,,1,,,,,,,,,,,,
quiz_instruc,43,231679,0.0-16.0-0.0,,12283.6,run_exp/static/audio/clip_10_quiz.m4a,,,,,,0,,,,,,,,,,,,,,,,,,
instruc_repeat,44,274435,0.0-16.0-1.0,,null,"<p> Are you ready to play a practice game? </p> <p>In this practice game, you'll be digging up barrels of gems. But, in the real game, you'll be digging up the gems themselves. </p>",null,"<p>In this game, your goal is to collect as many gems as you can. That’s how you will win bonus money. </p> <p>The entire game will last 20 minutes no matter how many gems you collect or how many planets you visit. </p><p>To stay on a planet and dig again, press the letter A on your keyboard. To leave for a new planet, press the letter L.</p><p>The more you dig on a planet, the fewer gems you’ll get with each dig which is why you might consider leaving for a new planet. </p><p>When you arrive at a new planet, you’ll be greeted by an alien. What the alien looks like does not tell you anything about how much treasure is on the planet. </p>",,,,,,,,,,,,,,,,,,,,,,
instruc_repeat_continue,45,276319,0.0-16.0-2.0,,1879.8,"<p> Are you ready to play a practice game? </p> <p>In this practice game, you'll be digging up barrels of gems. But, in the real game, you'll be digging up the gems themselves. </p>",,,,,,0,,,,,,,,,,,,,,,,,,
quiz_q_1_ask,46,280335,0.0-16.0-3.0,,4014.7,run_exp/static/audio/clip_11_q1_ask.m4a,,,,,,2,,,,,,,,,,,,,,,,,,
quiz_q_1_fb_correct,47,284175,0.0-17.0-0.0,,null,run_exp/static/audio/clip_12_q1_corrrect.m4a,null,<p>That’s correct. You win extra money by collecting more gems.</p>,,,,,,,,,,,,,,,,,,,,,,
quiz_q_2_ask,48,286927,0.0-17.0-1.0,,2749.2,run_exp/static/audio/clip_14_q2_ask.m4a,,,,,,1,,,,,,,,,,,,,,,,,,
quiz_q_2_fb_correct,49,290935,0.0-18.0-0.0,,null,run_exp/static/audio/clip_15_q2_correct.m4a,null,<p>That’s correct. The experiment is 20 minutes no matter what.</p>,,,,,,,,,,,,,,,,,,,,,,
quiz_q_3_ask,50,293871,0.0-18.0-1.0,,2933.6,run_exp/static/audio/clip_17_q3_ask.m4a,,,,,,1,,,,,,,,,,,,,,,,,,
quiz_q_3_fb_correct,51,297854,0.0-19.0-0.0,,null,run_exp/static/audio/clip_18_q3_correct.m4a,null,<p> That’s correct. You press the letter L to travel to a new planet.</p>,,,,,,,,,,,,,,,,,,,,,,
quiz_q_4_ask,52,301303,0.0-19.0-1.0,,3447.8,run_exp/static/audio/clip_20_q4_ask.m4a,,,,,,0,,,,,,,,,,,,,,,,,,
quiz_q_4_fb_correct,53,306615,0.0-20.0-0.0,,null,run_exp/static/audio/clip_21_q4_correct.m4a,null,<p> That’s correct. The more you dig on a planet the fewer gems you’ll get with each dig. </p>,,,,,,,,,,,,,,,,,,,,,,
quiz_q_5_ask,54,308880,0.0-20.0-1.0,,2258.6,run_exp/static/audio/clip_23_q5_ask.m4a,,,,,,1,,,,,,,,,,,,,,,,,,
quiz_q_5_fb_correct,55,313895,0.0-21.0-0.0,,null,run_exp/static/audio/clip_24_q5_correct.m4a,null,<p> That’s correct. The alien tells you nothing about how much treasure is on the planet.</p>,,,,,,,,,,,,,,,,,,,,,,
quiz_correct,56,317375,0.0-22.0-0.0,,null,run_exp/static/audio/clip_26_correct_quiz.m4a,null,,,,,,,,,,,,,,,,,,,,,,,
quiz_correct_continue,57,318287,0.0-22.0-1.0,,910.0999999,<p>Good job! You're now ready to move on to the real game!</p>,,,,,,0,,,,,,,,,,,,,,,,,,
audio-keyboard-response,58,328416,0.0-22.0-2.0,,null,run_exp/static/audio/clip_28_real_game.m4a,null,,,,,,,,,,,,,,,,,,,,,,,
instruc_begin_exp_contine,59,330040,0.0-22.0-3.0,,1618.2,"<p>Now that you know how  to dig for space treasure and travel to new planets,you can start exploring! </p><p>Do you want to go over the instructions again or get started with the real game?</p>",,,,,,1,,,,,,1,,,,,,,,,,,,
alien_welcome,60,335053,0.0-23.0-0.0,,null,run_exp/static/images/task_images/aliens/old_aliens/planet/alien_planet-1.jpg,null,,,,,,,,,,,,1,"1,22,3,72,47,68,49,30,39,10,65,34,44,60,77,27,21,20,32,4,9,75,24,55,52,26,37,2,56,16,19,58,12,74,25,80,66,59,67,53,38,45,17,76,13,8,71",,,,,,,,,,
land,61,335559,0.0-23.0-1.0,,null,run_exp/static/images/task_images/land.jpg,null,,,,,,102,,,1,,,,,,,,,,,,,,
dig,62,337564,0.0-23.0-2.0,,,,,,,,,,,"[{""stimulus"":""run_exp/static/images/task_images/dig.jpg"",""time"":0.19999980926513672},{""stimulus"":""run_exp/static/images/task_images/land.jpg"",""time"":673.2999997138977},{""stimulus"":""run_exp/static/images/task_images/dig.jpg"",""time"":1343.1999998092651}]",[],1,,,,,,,,,,,,,,
harvest,63,338574,0.0-23.0-3.0,,null,run_exp/static/images/task_images/gems/102.jpg,null,,,,,,14,,,1,,,,,102,0.135706551,0.137254902,,,,,,,
decision,64,338629,0.0-23.0-4.0,,53,run_exp/static/images/task_images/land.jpg,65,,,,,,14,,,1,,,,,,,,8588,1,0,FALSE,,,
dig,65,341583,0.0-24.0-0.0,,,,,,,,,,,"[{""stimulus"":""run_exp/static/images/task_images/dig.jpg"",""time"":0.20000028610229492},{""stimulus"":""run_exp/static/images/task_images/land.jpg"",""time"":988.5},{""stimulus"":""run_exp/static/images/task_images/dig.jpg"",""time"":1968.9000000953674}]",[],1,,,,,,,,,,,,,,
harvest,66,342590,0.0-24.0-1.0,,null,run_exp/static/images/task_images/gems/14.jpg,null,,,,,,4,,,1,,,,,14,0.259786265,0.285714286,,,,,,,
decision,67,342596,0.0-24.0-2.0,,3.699999809,run_exp/static/images/task_images/land.jpg,65,,,,,,4,,,1,,,,,,,,12556,1,1,FALSE,,,
dig,68,345603,0.0-25.0-0.0,,,,,,,,,,,"[{""stimulus"":""run_exp/static/images/task_images/dig.jpg"",""time"":0.9000000953674316},{""stimulus"":""run_exp/static/images/task_images/land.jpg"",""time"":1001.4000000953674},{""stimulus"":""run_exp/static/images/task_images/dig.jpg"",""time"":1999.6999998092651}]",[],1,,,,,,,,,,,,,,
harvest,69,346606,0.0-25.0-1.0,,null,run_exp/static/images/task_images/gems/4.jpg,null,,,,,,1,,,1,,,,,4,0.167435105,0.25,,,,,,,
decision,70,346661,0.0-25.0-2.0,,52.5,run_exp/static/images/task_images/land.jpg,65,,,,,,1,,,1,,,,,,,,16620,1,2,FALSE,,,
dig,71,349621,0.0-26.0-0.0,,,,,,,,,,,"[{""stimulus"":""run_exp/static/images/task_images/dig.jpg"",""time"":0.39999961853027344},{""stimulus"":""run_exp/static/images/task_images/land.jpg"",""time"":987.5999999046326},{""stimulus"":""run_exp/static/images/task_images/dig.jpg"",""time"":1968.0999999046326}]",[],1,,,,,,,,,,,,,,
harvest,72,350634,0.0-26.0-1.0,,null,run_exp/static/images/task_images/gems/1.jpg,null,,,,,,0,,,1,,,,,1,0.181510323,0,,,,,,,
decision,73,350676,0.0-26.0-2.0,,36.4000001,run_exp/static/images/task_images/land.jpg,76,,,,,,0,,,1,,,,,,,,20635,1,3,TRUE,,,
travel,74,360651,0.0-27.0-0.0,,,,,,,,,,,"[{""stimulus"":""run_exp/static/images/task_images/rocket-01.jpg"",""time"":0.2999997138977051},{""stimulus"":""run_exp/static/images/task_images/rocket-02.jpg"",""time"":1109},{""stimulus"":""run_exp/static/images/task_images/rocket-03.jpg"",""time"":2220.7999997138977},{""stimulus"":""run_exp/static/images/task_images/rocket-04.jpg"",""time"":3332.0999999046326},{""stimulus"":""run_exp/static/images/task_images/rocket-05.jpg"",""time"":4431.699999809265},{""stimulus"":""run_exp/static/images/task_images/rocket-06.jpg"",""time"":5537},{""stimulus"":""run_exp/static/images/task_images/rocket-07.jpg"",""time"":6652.099999904633},{""stimulus"":""run_exp/static/images/task_images/rocket-08.jpg"",""time"":7752},{""stimulus"":""run_exp/static/images/task_images/rocket-09.jpg"",""time"":8862.299999713898}]",[],1,,,,,,,,,,,,,,
alien_welcome,75,365663,0.0-27.0-1.0,,null,run_exp/static/images/task_images/aliens/old_aliens/planet/alien_planet-22.jpg,null,,,,,,,,,,,,22,"1,22,3,72,47,68,49,30,39,10,65,34,44,60,77,27,21,20,32,4,9,75,24,55,52,26,37,2,56,16,19,58,12,74,25,80,66,59,67,53,38,45,17,76,13,8,71",,,,,,,,,,
land,76,366166,0.0-27.0-2.0,,null,run_exp/static/images/task_images/land.jpg,null,,,,,,99,,,2,,,,,,,,,,,,,,
dig,77,368174,0.0-27.0-3.0,,,,,,,,,,,"[{""stimulus"":""run_exp/static/images/task_images/dig.jpg"",""time"":0.39999961853027344},{""stimulus"":""run_exp/static/images/task_images/land.jpg"",""time"":675.1999998092651},{""stimulus"":""run_exp/static/images/task_images/dig.jpg"",""time"":1345.5999999046326}]",[],2,,,,,,,,,,,,,,
harvest,78,369181,0.0-27.0-4.0,,null,run_exp/static/images/task_images/gems/99.jpg,null,,,,,,14,,,2,,,,,99,0.142513241,0.141414141,,,,,,,
decision,79,369293,0.0-27.0-5.0,,109.5,run_exp/static/images/task_images/land.jpg,65,,,,,,14,,,2,,,,,,,,39252,1,0,FALSE,,,
dig,80,372192,0.0-28.0-0.0,,,,,,,,,,,"[{""stimulus"":""run_exp/static/images/task_images/dig.jpg"",""time"":0.2999997138977051},{""stimulus"":""run_exp/static/images/task_images/land.jpg"",""time"":971.7999997138977},{""stimulus"":""run_exp/static/images/task_images/dig.jpg"",""time"":1930.0999999046326}]",[],2,,,,,,,,,,,,,,
harvest,81,373204,0.0-28.0-1.0,,null,run_exp/static/images/task_images/gems/14.jpg,null,,,,,,2,,,2,,,,,14,0.123556266,0.142857143,,,,,,,
decision,82,373325,0.0-28.0-2.0,,118.2999997,run_exp/static/images/task_images/land.jpg,65,,,,,,2,,,2,,,,,,,,43284,1,1,FALSE,,,
dig,83,376214,0.0-29.0-0.0,,,,,,,,,,,"[{""stimulus"":""run_exp/static/images/task_images/dig.jpg"",""time"":0.40000009536743164},{""stimulus"":""run_exp/static/images/task_images/land.jpg"",""time"":962.6999998092651},{""stimulus"":""run_exp/static/images/task_images/dig.jpg"",""time"":1929.9000000953674}]",[],2,,,,,,,,,,,,,,
harvest,84,377224,0.0-29.0-1.0,,null,run_exp/static/images/task_images/gems/2.jpg,null,,,,,,0,,,2,,,,,2,0.193879534,0,,,,,,,
decision,85,377335,0.0-29.0-2.0,,109,run_exp/static/images/task_images/land.jpg,76,,,,,,0,,,2,,,,,,,,47294,1,2,TRUE,,,
travel,86,387234,0.0-30.0-0.0,,,,,,,,,,,"[{""stimulus"":""run_exp/static/images/task_images/rocket-01.jpg"",""time"":0.3000001907348633},{""stimulus"":""run_exp/static/images/task_images/rocket-02.jpg"",""time"":1103.8000001907349},{""stimulus"":""run_exp/static/images/task_images/rocket-03.jpg"",""time"":2203.5},{""stimulus"":""run_exp/static/images/task_images/rocket-04.jpg"",""time"":3303.199999809265},{""stimulus"":""run_exp/static/images/task_images/rocket-05.jpg"",""time"":4405.699999809265},{""stimulus"":""run_exp/static/images/task_images/rocket-06.jpg"",""time"":5502.5},{""stimulus"":""run_exp/static/images/task_images/rocket-07.jpg"",""time"":6602.699999809265},{""stimulus"":""run_exp/static/images/task_images/rocket-08.jpg"",""time"":7702.199999809265},{""stimulus"":""run_exp/static/images/task_images/rocket-09.jpg"",""time"":8794}]",[],2,,,,,,,,,,,,,,
alien_welcome,87,392239,0.0-30.0-1.0,,null,run_exp/static/images/task_images/aliens/old_aliens/planet/alien_planet-3.jpg,null,,,,,,,,,,,,3,"1,22,3,72,47,68,49,30,39,10,65,34,44,60,77,27,21,20,32,4,9,75,24,55,52,26,37,2,56,16,19,58,12,74,25,80,66,59,67,53,38,45,17,76,13,8,71",,,,,,,,,,
land,88,392741,0.0-30.0-2.0,,null,run_exp/static/images/task_images/land.jpg,null,,,,,,93,,,3,,,,,,,,,,,,,,
dig,89,394754,0.0-30.0-3.0,,,,,,,,,,,"[{""stimulus"":""run_exp/static/images/task_images/dig.jpg"",""time"":0.40000009536743164},{""stimulus"":""run_exp/static/images/task_images/land.jpg"",""time"":670.7000002861023},{""stimulus"":""run_exp/static/images/task_images/dig.jpg"",""time"":1340.9000000953674}]",[],3,,,,,,,,,,,,,,
harvest,90,395764,0.0-30.0-4.0,,null,run_exp/static/images/task_images/gems/93.jpg,null,,,,,,46,,,3,,,,,93,0.496902805,0.494623656,,,,,,,
decision,91,395899,0.0-30.0-5.0,,132.7999997,run_exp/static/images/task_images/land.jpg,65,,,,,,46,,,3,,,,,,,,65858,1,0,FALSE,,,
dig,92,398784,0.0-31.0-0.0,,,,,,,,,,,"[{""stimulus"":""run_exp/static/images/task_images/dig.jpg"",""time"":0.39999961853027344},{""stimulus"":""run_exp/static/images/task_images/land.jpg"",""time"":960.5999999046326},{""stimulus"":""run_exp/static/images/task_images/dig.jpg"",""time"":1915.5}]",[],3,,,,,,,,,,,,,,
harvest,93,399788,0.0-31.0-1.0,,null,run_exp/static/images/task_images/gems/46.jpg,null,,,,,,22,,,3,,,,,46,0.480271342,0.47826087,,,,,,,
decision,94,399855,0.0-31.0-2.0,,65,run_exp/static/images/task_images/land.jpg,65,,,,,,22,,,3,,,,,,,,69814,1,1,FALSE,,,
dig,95,402803,0.0-32.0-0.0,,,,,,,,,,,"[{""stimulus"":""run_exp/static/images/task_images/dig.jpg"",""time"":0.40000009536743164},{""stimulus"":""run_exp/static/images/task_images/land.jpg"",""time"":980.5},{""stimulus"":""run_exp/static/images/task_images/dig.jpg"",""time"":1960.8000001907349}]",[],3,,,,,,,,,,,,,,
harvest,96,403814,0.0-32.0-1.0,,null,run_exp/static/images/task_images/gems/22.jpg,null,,,,,,11,,,3,,,,,22,0.513342414,0.5,,,,,,,
decision,97,403947,0.0-32.0-2.0,,131.1000004,run_exp/static/images/task_images/land.jpg,65,,,,,,11,,,3,,,,,,,,73907,1,2,FALSE,,,
dig,98,406834,0.0-33.0-0.0,,,,,,,,,,,"[{""stimulus"":""run_exp/static/images/task_images/dig.jpg"",""time"":0.3000001907348633},{""stimulus"":""run_exp/static/images/task_images/land.jpg"",""time"":958.5999999046326},{""stimulus"":""run_exp/static/images/task_images/dig.jpg"",""time"":1913.8000001907349}]",[],3,,,,,,,,,,,,,,
harvest,99,407844,0.0-33.0-1.0,,null,run_exp/static/images/task_images/gems/11.jpg,null,,,,,,5,,,3,,,,,11,0.434214914,0.454545455,,,,,,,
decision,100,407986,0.0-33.0-2.0,,140.0999999,run_exp/static/images/task_images/land.jpg,65,,,,,,5,,,3,,,,,,,,77945,1,3,FALSE,,,
dig,101,410854,0.0-34.0-0.0,,,,,,,,,,,"[{""stimulus"":""run_exp/static/images/task_images/dig.jpg"",""time"":0.40000009536743164},{""stimulus"":""run_exp/static/images/task_images/land.jpg"",""time"":956.6000003814697},{""stimulus"":""run_exp/static/images/task_images/dig.jpg"",""time"":1908.3000001907349}]",[],3,,,,,,,,,,,,,,
harvest,102,411863,0.0-34.0-1.0,,null,run_exp/static/images/task_images/gems/5.jpg,null,,,,,,2,,,3,,,,,5,0.470741079,0.4,,,,,,,
decision,103,413592,0.0-34.0-2.0,,1727.7,run_exp/static/images/task_images/land.jpg,76,,,,,,2,,,3,,,,,,,,83551,1,4,TRUE,,,
travel,104,421873,0.0-35.0-0.0,,,,,,,,,,,"[{""stimulus"":""run_exp/static/images/task_images/rocket-01.jpg"",""time"":0.2999997138977051},{""stimulus"":""run_exp/static/images/task_images/rocket-02.jpg"",""time"":924},{""stimulus"":""run_exp/static/images/task_images/rocket-03.jpg"",""time"":1843.8999996185303},{""stimulus"":""run_exp/static/images/task_images/rocket-04.jpg"",""time"":2762.5},{""stimulus"":""run_exp/static/images/task_images/rocket-05.jpg"",""time"":3681.2999997138977},{""stimulus"":""run_exp/static/images/task_images/rocket-06.jpg"",""time"":4598.39999961853},{""stimulus"":""run_exp/static/images/task_images/rocket-07.jpg"",""time"":5523.599999904633},{""stimulus"":""run_exp/static/images/task_images/rocket-08.jpg"",""time"":6443.599999904633},{""stimulus"":""run_exp/static/images/task_images/rocket-09.jpg"",""time"":7354}]",[],3,,,,,,,,,,,,,,
alien_welcome,105,426878,0.0-35.0-1.0,,null,run_exp/static/images/task_images/aliens/old_aliens/planet/alien_planet-72.jpg,null,,,,,,,,,,,,72,"1,22,3,72,47,68,49,30,39,10,65,34,44,60,77,27,21,20,32,4,9,75,24,55,52,26,37,2,56,16,19,58,12,74,25,80,66,59,67,53,38,45,17,76,13,8,71",,,,,,,,,,
land,106,427384,0.0-35.0-2.0,,null,run_exp/static/images/task_images/land.jpg,null,,,,,,93,,,4,,,,,,,,,,,,,,
dig,107,429394,0.0-35.0-3.0,,,,,,,,,,,"[{""stimulus"":""run_exp/static/images/task_images/dig.jpg"",""time"":0.3000001907348633},{""stimulus"":""run_exp/static/images/task_images/land.jpg"",""time"":675},{""stimulus"":""run_exp/static/images/task_images/dig.jpg"",""time"":1341.8000001907349}]",[],4,,,,,,,,,,,,,,
harvest,108,430404,0.0-35.0-4.0,,null,run_exp/static/images/task_images/gems/93.jpg,null,,,,,,57,,,4,,,,,93,0.617444823,0.612903226,,,,,,,
decision,109,430449,0.0-35.0-5.0,,42.70000029,run_exp/static/images/task_images/land.jpg,65,,,,,,57,,,4,,,,,,,,100408,1,0,FALSE,,,
dig,110,433414,0.0-36.0-0.0,,,,,,,,,,,"[{""stimulus"":""run_exp/static/images/task_images/dig.jpg"",""time"":0.40000009536743164},{""stimulus"":""run_exp/static/images/task_images/land.jpg"",""time"":986.8000001907349},{""stimulus"":""run_exp/static/images/task_images/dig.jpg"",""time"":1971.5}]",[],4,,,,,,,,,,,,,,
harvest,111,434422,0.0-36.0-1.0,,null,run_exp/static/images/task_images/gems/57.jpg,null,,,,,,28,,,4,,,,,57,0.488075119,0.49122807,,,,,,,
decision,112,434480,0.0-36.0-2.0,,56.4000001,run_exp/static/images/task_images/land.jpg,65,,,,,,28,,,4,,,,,,,,104439,1,1,FALSE,,,
dig,113,437431,0.0-37.0-0.0,,,,,,,,,,,"[{""stimulus"":""run_exp/static/images/task_images/dig.jpg"",""time"":0.19999980926513672},{""stimulus"":""run_exp/static/images/task_images/land.jpg"",""time"":988.8999996185303},{""stimulus"":""run_exp/static/images/task_images/dig.jpg"",""time"":1968.5999999046326}]",[],4,,,,,,,,,,,,,,
harvest,114,438440,0.0-37.0-1.0,,null,run_exp/static/images/task_images/gems/28.jpg,null,,,,,,13,,,4,,,,,28,0.453915962,0.464285714,,,,,,,
decision,115,438580,0.0-37.0-2.0,,138.6999998,run_exp/static/images/task_images/land.jpg,65,,,,,,13,,,4,,,,,,,,108539,1,2,FALSE,,,
dig,116,441449,0.0-38.0-0.0,,,,,,,,,,,"[{""stimulus"":""run_exp/static/images/task_images/dig.jpg"",""time"":0.2999997138977051},{""stimulus"":""run_exp/static/images/task_images/land.jpg"",""time"":954.6999998092651},{""stimulus"":""run_exp/static/images/task_images/dig.jpg"",""time"":1916.5999999046326}]",[],4,,,,,,,,,,,,,,
harvest,117,442453,0.0-38.0-1.0,,null,run_exp/static/images/task_images/gems/13.jpg,null,,,,,,7,,,4,,,,,13,0.574536267,0.538461538,,,,,,,
decision,118,442636,0.0-38.0-2.0,,180.9000001,run_exp/static/images/task_images/land.jpg,76,,,,,,7,,,4,,,,,,,,112595,1,3,TRUE,,,
travel,119,452463,0.0-39.0-0.0,,,,,,,,,,,"[{""stimulus"":""run_exp/static/images/task_images/rocket-01.jpg"",""time"":0.3000001907348633},{""stimulus"":""run_exp/static/images/task_images/rocket-02.jpg"",""time"":1094.9000000953674},{""stimulus"":""run_exp/static/images/task_images/rocket-03.jpg"",""time"":2183},{""stimulus"":""run_exp/static/images/task_images/rocket-04.jpg"",""time"":3282.0999999046326},{""stimulus"":""run_exp/static/images/task_images/rocket-05.jpg"",""time"":4365.599999904633},{""stimulus"":""run_exp/static/images/task_images/rocket-06.jpg"",""time"":5464.700000286102},{""stimulus"":""run_exp/static/images/task_images/rocket-07.jpg"",""time"":6548.099999904633},{""stimulus"":""run_exp/static/images/task_images/rocket-08.jpg"",""time"":7641.5},{""stimulus"":""run_exp/static/images/task_images/rocket-09.jpg"",""time"":8730.400000095367}]",[],4,,,,,,,,,,,,,,
alien_welcome,120,457468,0.0-39.0-1.0,,null,run_exp/static/images/task_images/aliens/old_aliens/planet/alien_planet-47.jpg,null,,,,,,,,,,,,47,"1,22,3,72,47,68,49,30,39,10,65,34,44,60,77,27,21,20,32,4,9,75,24,55,52,26,37,2,56,16,19,58,12,74,25,80,66,59,67,53,38,45,17,76,13,8,71",,,,,,,,,,
land,121,457974,0.0-39.0-2.0,,null,run_exp/static/images/task_images/land.jpg,null,,,,,,97,,,5,,,,,,,,,,,,,,
dig,122,459983,0.0-39.0-3.0,,,,,,,,,,,"[{""stimulus"":""run_exp/static/images/task_images/dig.jpg"",""time"":0.39999961853027344},{""stimulus"":""run_exp/static/images/task_images/land.jpg"",""time"":675.0999999046326},{""stimulus"":""run_exp/static/images/task_images/dig.jpg"",""time"":1337.3999996185303}]",[],5,,,,,,,,,,,,,,
harvest,123,460994,0.0-39.0-4.0,,null,run_exp/static/images/task_images/gems/97.jpg,null,,,,,,40,,,5,,,,,97,0.40930278,0.412371134,,,,,,,
decision,124,461119,0.0-39.0-5.0,,123,run_exp/static/images/task_images/land.jpg,65,,,,,,40,,,5,,,,,,,,131078,1,0,FALSE,,,
dig,125,464014,0.0-40.0-0.0,,,,,,,,,,,"[{""stimulus"":""run_exp/static/images/task_images/dig.jpg"",""time"":0.39999961853027344},{""stimulus"":""run_exp/static/images/task_images/land.jpg"",""time"":968.6999998092651},{""stimulus"":""run_exp/static/images/task_images/dig.jpg"",""time"":1924.0999999046326}]",[],5,,,,,,,,,,,,,,
harvest,126,465024,0.0-40.0-1.0,,null,run_exp/static/images/task_images/gems/40.jpg,null,,,,,,21,,,5,,,,,40,0.526800432,0.525,,,,,,,
decision,127,465069,0.0-40.0-2.0,,42.60000038,run_exp/static/images/task_images/land.jpg,65,,,,,,21,,,5,,,,,,,,135028,1,1,FALSE,,,
dig,128,468031,0.0-41.0-0.0,,,,,,,,,,,"[{""stimulus"":""run_exp/static/images/task_images/dig.jpg"",""time"":0.40000009536743164},{""stimulus"":""run_exp/static/images/task_images/land.jpg"",""time"":988.7000002861023},{""stimulus"":""run_exp/static/images/task_images/dig.jpg"",""time"":1974}]",[],5,,,,,,,,,,,,,,
harvest,129,469034,0.0-41.0-1.0,,null,run_exp/static/images/task_images/gems/21.jpg,null,,,,,,12,,,5,,,,,21,0.560373194,0.571428571,,,,,,,
decision,130,469103,0.0-41.0-2.0,,66.79999971,run_exp/static/images/task_images/land.jpg,65,,,,,,12,,,5,,,,,,,,139063,1,2,FALSE,,,
dig,131,472043,0.0-42.0-0.0,,,,,,,,,,,"[{""stimulus"":""run_exp/static/images/task_images/dig.jpg"",""time"":0.2999997138977051},{""stimulus"":""run_exp/static/images/task_images/land.jpg"",""time"":986.6999998092651},{""stimulus"":""run_exp/static/images/task_images/dig.jpg"",""time"":1963.7999997138977}]",[],5,,,,,,,,,,,,,,
harvest,132,473046,0.0-42.0-1.0,,null,run_exp/static/images/task_images/gems/12.jpg,null,,,,,,6,,,5,,,,,12,0.516375101,0.5,,,,,,,
decision,133,473742,0.0-42.0-2.0,,693.1999998,run_exp/static/images/task_images/land.jpg,76,,,,,,6,,,5,,,,,,,,143701,1,3,TRUE,,,
travel,134,483059,0.0-43.0-0.0,,,,,,,,,,,"[{""stimulus"":""run_exp/static/images/task_images/rocket-01.jpg"",""time"":0.40000009536743164},{""stimulus"":""run_exp/static/images/task_images/rocket-02.jpg"",""time"":1043.0999999046326},{""stimulus"":""run_exp/static/images/task_images/rocket-03.jpg"",""time"":2075.2000002861023},{""stimulus"":""run_exp/static/images/task_images/rocket-04.jpg"",""time"":3106.4000000953674},{""stimulus"":""run_exp/static/images/task_images/rocket-05.jpg"",""time"":4141.200000286102},{""stimulus"":""run_exp/static/images/task_images/rocket-06.jpg"",""time"":5176.5},{""stimulus"":""run_exp/static/images/task_images/rocket-07.jpg"",""time"":6211.5},{""stimulus"":""run_exp/static/images/task_images/rocket-08.jpg"",""time"":7245},{""stimulus"":""run_exp/static/images/task_images/rocket-09.jpg"",""time"":8276.099999904633}]",[],5,,,,,,,,,,,,,,
alien_welcome,135,488064,0.0-43.0-1.0,,null,run_exp/static/images/task_images/aliens/old_aliens/planet/alien_planet-68.jpg,null,,,,,,,,,,,,68,"1,22,3,72,47,68,49,30,39,10,65,34,44,60,77,27,21,20,32,4,9,75,24,55,52,26,37,2,56,16,19,58,12,74,25,80,66,59,67,53,38,45,17,76,13,8,71",,,,,,,,,,
land,136,488574,0.0-43.0-2.0,,null,run_exp/static/images/task_images/land.jpg,null,,,,,,104,,,6,,,,,,,,,,,,,,
dig,137,490583,0.0-43.0-3.0,,,,,,,,,,,"[{""stimulus"":""run_exp/static/images/task_images/dig.jpg"",""time"":0.40000009536743164},{""stimulus"":""run_exp/static/images/task_images/land.jpg"",""time"":677.5},{""stimulus"":""run_exp/static/images/task_images/dig.jpg"",""time"":1337.4000000953674}]",[],6,,,,,,,,,,,,,,
harvest,138,491590,0.0-43.0-4.0,,null,run_exp/static/images/task_images/gems/104.jpg,null,,,,,,87,,,6,,,,,104,0.839753554,0.836538462,,,,,,,
decision,139,491677,0.0-43.0-5.0,,84.5999999,run_exp/static/images/task_images/land.jpg,65,,,,,,87,,,6,,,,,,,,161636,1,0,FALSE,,,
dig,140,494603,0.0-44.0-0.0,,,,,,,,,,,"[{""stimulus"":""run_exp/static/images/task_images/dig.jpg"",""time"":0.40000009536743164},{""stimulus"":""run_exp/static/images/task_images/land.jpg"",""time"":974.9000000953674},{""stimulus"":""run_exp/static/images/task_images/dig.jpg"",""time"":1952.3000001907349}]",[],6,,,,,,,,,,,,,,
harvest,141,495614,0.0-44.0-1.0,,null,run_exp/static/images/task_images/gems/87.jpg,null,,,,,,75,,,6,,,,,87,0.856609099,0.862068966,,,,,,,
decision,142,495673,0.0-44.0-2.0,,56.5,run_exp/static/images/task_images/land.jpg,65,,,,,,75,,,6,,,,,,,,165632,1,1,FALSE,,,
dig,143,498634,0.0-45.0-0.0,,,,,,,,,,,"[{""stimulus"":""run_exp/static/images/task_images/dig.jpg"",""time"":0.40000009536743164},{""stimulus"":""run_exp/static/images/task_images/land.jpg"",""time"":985.4000000953674},{""stimulus"":""run_exp/static/images/task_images/dig.jpg"",""time"":1965.5}]",[],6,,,,,,,,,,,,,,
harvest,144,499637,0.0-45.0-1.0,,null,run_exp/static/images/task_images/gems/75.jpg,null,,,,,,55,,,6,,,,,75,0.738950306,0.733333333,,,,,,,
decision,145,499797,0.0-45.0-2.0,,157,run_exp/static/images/task_images/land.jpg,65,,,,,,55,,,6,,,,,,,,169756,1,2,FALSE,,,
dig,146,502649,0.0-46.0-0.0,,,,,,,,,,,"[{""stimulus"":""run_exp/static/images/task_images/dig.jpg"",""time"":0.5999999046325684},{""stimulus"":""run_exp/static/images/task_images/land.jpg"",""time"":949.3000001907349},{""stimulus"":""run_exp/static/images/task_images/dig.jpg"",""time"":1899.2000002861023}]",[],6,,,,,,,,,,,,,,
harvest,147,503652,0.0-46.0-1.0,,null,run_exp/static/images/task_images/gems/55.jpg,null,,,,,,45,,,6,,,,,55,0.823742788,0.818181818,,,,,,,
decision,148,503673,0.0-46.0-2.0,,19.5999999,run_exp/static/images/task_images/land.jpg,65,,,,,,45,,,6,,,,,,,,173632,1,3,FALSE,,,
dig,149,506663,0.0-47.0-0.0,,,,,,,,,,,"[{""stimulus"":""run_exp/static/images/task_images/dig.jpg"",""time"":0.20000028610229492},{""stimulus"":""run_exp/static/images/task_images/land.jpg"",""time"":997.4000000953674},{""stimulus"":""run_exp/static/images/task_images/dig.jpg"",""time"":1990.5999999046326}]",[],6,,,,,,,,,,,,,,
harvest,150,507667,0.0-47.0-1.0,,null,run_exp/static/images/task_images/gems/45.jpg,null,,,,,,38,,,6,,,,,45,0.846080578,0.844444444,,,,,,,
decision,151,507803,0.0-47.0-2.0,,134.0999999,run_exp/static/images/task_images/land.jpg,76,,,,,,38,,,6,,,,,,,,177762,1,4,TRUE,,,
travel,152,517680,0.0-48.0-0.0,,,,,,,,,,,"[{""stimulus"":""run_exp/static/images/task_images/rocket-01.jpg"",""time"":0.3000001907348633},{""stimulus"":""run_exp/static/images/task_images/rocket-02.jpg"",""time"":1104.1000003814697},{""stimulus"":""run_exp/static/images/task_images/rocket-03.jpg"",""time"":2194.300000190735},{""stimulus"":""run_exp/static/images/task_images/rocket-04.jpg"",""time"":3292.4000000953674},{""stimulus"":""run_exp/static/images/task_images/rocket-05.jpg"",""time"":4386.700000286102},{""stimulus"":""run_exp/static/images/task_images/rocket-06.jpg"",""time"":5484.200000286102},{""stimulus"":""run_exp/static/images/task_images/rocket-07.jpg"",""time"":6582.10000038147},{""stimulus"":""run_exp/static/images/task_images/rocket-08.jpg"",""time"":7674.200000286102},{""stimulus"":""run_exp/static/images/task_images/rocket-09.jpg"",""time"":8773.400000095367}]",[],6,,,,,,,,,,,,,,
alien_welcome,153,522683,0.0-48.0-1.0,,null,run_exp/static/images/task_images/aliens/old_aliens/planet/alien_planet-49.jpg,null,,,,,,,,,,,,49,"1,22,3,72,47,68,49,30,39,10,65,34,44,60,77,27,21,20,32,4,9,75,24,55,52,26,37,2,56,16,19,58,12,74,25,80,66,59,67,53,38,45,17,76,13,8,71",,,,,,,,,,
land,154,523189,0.0-48.0-2.0,,null,run_exp/static/images/task_images/land.jpg,null,,,,,,104,,,7,,,,,,,,,,,,,,
dig,155,525193,0.0-48.0-3.0,,,,,,,,,,,"[{""stimulus"":""run_exp/static/images/task_images/dig.jpg"",""time"":0.40000009536743164},{""stimulus"":""run_exp/static/images/task_images/land.jpg"",""time"":670.4000000953674},{""stimulus"":""run_exp/static/images/task_images/dig.jpg"",""time"":1338.0999999046326}]",[],7,,,,,,,,,,,,,,
harvest,156,526204,0.0-48.0-4.0,,null,run_exp/static/images/task_images/gems/104.jpg,null,,,,,,77,,,7,,,,,104,0.738355036,0.740384615,,,,,,,
decision,157,526268,0.0-48.0-5.0,,62.0999999,run_exp/static/images/task_images/land.jpg,65,,,,,,77,,,7,,,,,,,,196227,1,0,FALSE,,,
dig,158,529224,0.0-49.0-0.0,,,,,,,,,,,"[{""stimulus"":""run_exp/static/images/task_images/dig.jpg"",""time"":0.5},{""stimulus"":""run_exp/static/images/task_images/land.jpg"",""time"":988},{""stimulus"":""run_exp/static/images/task_images/dig.jpg"",""time"":1960.5}]",[],7,,,,,,,,,,,,,,
harvest,159,530227,0.0-49.0-1.0,,null,run_exp/static/images/task_images/gems/77.jpg,null,,,,,,60,,,7,,,,,77,0.773534384,0.779220779,,,,,,,
decision,160,530522,0.0-49.0-2.0,,292.9000001,run_exp/static/images/task_images/land.jpg,65,,,,,,60,,,7,,,,,,,,200481,1,1,FALSE,,,
dig,161,533242,0.0-50.0-0.0,,,,,,,,,,,"[{""stimulus"":""run_exp/static/images/task_images/dig.jpg"",""time"":0.40000009536743164},{""stimulus"":""run_exp/static/images/task_images/land.jpg"",""time"":903.6999998092651},{""stimulus"":""run_exp/static/images/task_images/dig.jpg"",""time"":1812.2999997138977}]",[],7,,,,,,,,,,,,,,
harvest,162,534251,0.0-50.0-1.0,,null,run_exp/static/images/task_images/gems/60.jpg,null,,,,,,51,,,7,,,,,60,0.846177923,0.85,,,,,,,
decision,163,534411,0.0-50.0-2.0,,159.5,run_exp/static/images/task_images/land.jpg,65,,,,,,51,,,7,,,,,,,,204370,1,2,FALSE,,,
dig,164,537257,0.0-51.0-0.0,,,,,,,,,,,"[{""stimulus"":""run_exp/static/images/task_images/dig.jpg"",""time"":0.19999980926513672},{""stimulus"":""run_exp/static/images/task_images/land.jpg"",""time"":946.8000001907349},{""stimulus"":""run_exp/static/images/task_images/dig.jpg"",""time"":1896.1999998092651}]",[],7,,,,,,,,,,,,,,
harvest,165,538267,0.0-51.0-1.0,,null,run_exp/static/images/task_images/gems/51.jpg,null,,,,,,39,,,7,,,,,51,0.756691423,0.764705882,,,,,,,
decision,166,538328,0.0-51.0-2.0,,59.79999971,run_exp/static/images/task_images/land.jpg,65,,,,,,39,,,7,,,,,,,,208288,1,3,FALSE,,,
dig,167,541279,0.0-52.0-0.0,,,,,,,,,,,"[{""stimulus"":""run_exp/static/images/task_images/dig.jpg"",""time"":0.19999980926513672},{""stimulus"":""run_exp/static/images/task_images/land.jpg"",""time"":987.5999999046326},{""stimulus"":""run_exp/static/images/task_images/dig.jpg"",""time"":1962.2999997138977}]",[],7,,,,,,,,,,,,,,
harvest,168,542283,0.0-52.0-1.0,,null,run_exp/static/images/task_images/gems/39.jpg,null,,,,,,34,,,7,,,,,39,0.86061231,0.871794872,,,,,,,
decision,169,543386,0.0-52.0-2.0,,1101.9,run_exp/static/images/task_images/land.jpg,76,,,,,,34,,,7,,,,,,,,213345,1,4,TRUE,,,
travel,170,552283,0.0-53.0-0.0,,,,,,,,,,,"[{""stimulus"":""run_exp/static/images/task_images/rocket-01.jpg"",""time"":0.2999997138977051},{""stimulus"":""run_exp/static/images/task_images/rocket-02.jpg"",""time"":989.0999999046326},{""stimulus"":""run_exp/static/images/task_images/rocket-03.jpg"",""time"":1981.5},{""stimulus"":""run_exp/static/images/task_images/rocket-04.jpg"",""time"":2973.699999809265},{""stimulus"":""run_exp/static/images/task_images/rocket-05.jpg"",""time"":3963.4000000953674},{""stimulus"":""run_exp/static/images/task_images/rocket-06.jpg"",""time"":4943.599999904633},{""stimulus"":""run_exp/static/images/task_images/rocket-07.jpg"",""time"":5930},{""stimulus"":""run_exp/static/images/task_images/rocket-08.jpg"",""time"":6921.900000095367},{""stimulus"":""run_exp/static/images/task_images/rocket-09.jpg"",""time"":7909.099999904633}]",[],7,,,,,,,,,,,,,,
alien_welcome,171,557294,0.0-53.0-1.0,,null,run_exp/static/images/task_images/aliens/old_aliens/planet/alien_planet-30.jpg,null,,,,,,,,,,,,30,"1,22,3,72,47,68,49,30,39,10,65,34,44,60,77,27,21,20,32,4,9,75,24,55,52,26,37,2,56,16,19,58,12,74,25,80,66,59,67,53,38,45,17,76,13,8,71",,,,,,,,,,
land,172,557802,0.0-53.0-2.0,,null,run_exp/static/images/task_images/land.jpg,null,,,,,,101,,,8,,,,,,,,,,,,,,
dig,173,559814,0.0-53.0-3.0,,,,,,,,,,,"[{""stimulus"":""run_exp/static/images/task_images/dig.jpg"",""time"":0.40000009536743164},{""stimulus"":""run_exp/static/images/task_images/land.jpg"",""time"":678.5},{""stimulus"":""run_exp/static/images/task_images/dig.jpg"",""time"":1339.3000001907349}]",[],8,,,,,,,,,,,,,,
harvest,174,560816,0.0-53.0-4.0,,null,run_exp/static/images/task_images/gems/101.jpg,null,,,,,,80,,,8,,,,,101,0.788859886,0.792079208,,,,,,,
decision,175,560883,0.0-53.0-5.0,,64.0999999,run_exp/static/images/task_images/land.jpg,65,,,,,,80,,,8,,,,,,,,230842,1,0,FALSE,,,
dig,176,563832,0.0-54.0-0.0,,,,,,,,,,,"[{""stimulus"":""run_exp/static/images/task_images/dig.jpg"",""time"":0.40000009536743164},{""stimulus"":""run_exp/static/images/task_images/land.jpg"",""time"":983.7000002861023},{""stimulus"":""run_exp/static/images/task_images/dig.jpg"",""time"":1960.5}]",[],8,,,,,,,,,,,,,,
harvest,177,564834,0.0-54.0-1.0,,null,run_exp/static/images/task_images/gems/80.jpg,null,,,,,,66,,,8,,,,,80,0.831059643,0.825,,,,,,,
decision,178,564926,0.0-54.0-2.0,,90.0999999,run_exp/static/images/task_images/land.jpg,65,,,,,,66,,,8,,,,,,,,234886,1,1,FALSE,,,
dig,179,567849,0.0-55.0-0.0,,,,,,,,,,,"[{""stimulus"":""run_exp/static/images/task_images/dig.jpg"",""time"":0.5},{""stimulus"":""run_exp/static/images/task_images/land.jpg"",""time"":971.2000002861023},{""stimulus"":""run_exp/static/images/task_images/dig.jpg"",""time"":1941.9000000953674}]",[],8,,,,,,,,,,,,,,
harvest,180,568853,0.0-55.0-1.0,,null,run_exp/static/images/task_images/gems/66.jpg,null,,,,,,49,,,8,,,,,66,0.741476413,0.742424242,,,,,,,
decision,181,569000,0.0-55.0-2.0,,144.5,run_exp/static/images/task_images/land.jpg,65,,,,,,49,,,8,,,,,,,,238959,1,2,FALSE,,,
dig,182,571862,0.0-56.0-0.0,,,,,,,,,,,"[{""stimulus"":""run_exp/static/images/task_images/dig.jpg"",""time"":0.20000028610229492},{""stimulus"":""run_exp/static/images/task_images/land.jpg"",""time"":961.9000000953674},{""stimulus"":""run_exp/static/images/task_images/dig.jpg"",""time"":1908.9000000953674}]",[],8,,,,,,,,,,,,,,
harvest,183,572871,0.0-56.0-1.0,,null,run_exp/static/images/task_images/gems/49.jpg,null,,,,,,43,,,8,,,,,49,0.881050014,0.87755102,,,,,,,
decision,184,572930,0.0-56.0-2.0,,57.29999971,run_exp/static/images/task_images/land.jpg,65,,,,,,43,,,8,,,,,,,,242889,1,3,FALSE,,,
dig,185,575878,0.0-57.0-0.0,,,,,,,,,,,"[{""stimulus"":""run_exp/static/images/task_images/dig.jpg"",""time"":0.3000001907348633},{""stimulus"":""run_exp/static/images/task_images/land.jpg"",""time"":984.9000000953674},{""stimulus"":""run_exp/static/images/task_images/dig.jpg"",""time"":1962.8000001907349}]",[],8,,,,,,,,,,,,,,
harvest,186,576883,0.0-57.0-1.0,,null,run_exp/static/images/task_images/gems/43.jpg,null,,,,,,34,,,8,,,,,43,0.789258567,0.790697674,,,,,,,
decision,187,576983,0.0-57.0-2.0,,98.29999971,run_exp/static/images/task_images/land.jpg,65,,,,,,34,,,8,,,,,,,,246943,1,4,FALSE,,,
dig,188,579893,0.0-58.0-0.0,,,,,,,,,,,"[{""stimulus"":""run_exp/static/images/task_images/dig.jpg"",""time"":0.3000001907348633},{""stimulus"":""run_exp/static/images/task_images/land.jpg"",""time"":972.9000000953674},{""stimulus"":""run_exp/static/images/task_images/dig.jpg"",""time"":1936.5999999046326}]",[],8,,,,,,,,,,,,,,
harvest,189,580901,0.0-58.0-1.0,,null,run_exp/static/images/task_images/gems/34.jpg,null,,,,,,26,,,8,,,,,34,0.756466533,0.764705882,,,,,,,
decision,190,581552,0.0-58.0-2.0,,648.5999999,run_exp/static/images/task_images/land.jpg,76,,,,,,26,,,8,,,,,,,,251511,1,5,TRUE,,,
travel,191,590907,0.0-59.0-0.0,,,,,,,,,,,"[{""stimulus"":""run_exp/static/images/task_images/rocket-01.jpg"",""time"":0.19999980926513672},{""stimulus"":""run_exp/static/images/task_images/rocket-02.jpg"",""time"":1049.5999999046326},{""stimulus"":""run_exp/static/images/task_images/rocket-03.jpg"",""time"":2086.699999809265},{""stimulus"":""run_exp/static/images/task_images/rocket-04.jpg"",""time"":3133.199999809265},{""stimulus"":""run_exp/static/images/task_images/rocket-05.jpg"",""time"":4159.699999809265},{""stimulus"":""run_exp/static/images/task_images/rocket-06.jpg"",""time"":5202.699999809265},{""stimulus"":""run_exp/static/images/task_images/rocket-07.jpg"",""time"":6235.89999961853},{""stimulus"":""run_exp/static/images/task_images/rocket-08.jpg"",""time"":7280.199999809265},{""stimulus"":""run_exp/static/images/task_images/rocket-09.jpg"",""time"":8319.099999904633}]",[],8,,,,,,,,,,,,,,
alien_welcome,192,595914,0.0-59.0-1.0,,null,run_exp/static/images/task_images/aliens/old_aliens/planet/alien_planet-39.jpg,null,,,,,,,,,,,,39,"1,22,3,72,47,68,49,30,39,10,65,34,44,60,77,27,21,20,32,4,9,75,24,55,52,26,37,2,56,16,19,58,12,74,25,80,66,59,67,53,38,45,17,76,13,8,71",,,,,,,,,,
land,193,596421,0.0-59.0-2.0,,null,run_exp/static/images/task_images/land.jpg,null,,,,,,108,,,9,,,,,,,,,,,,,,
dig,194,598429,0.0-59.0-3.0,,,,,,,,,,,"[{""stimulus"":""run_exp/static/images/task_images/dig.jpg"",""time"":0.5},{""stimulus"":""run_exp/static/images/task_images/land.jpg"",""time"":672.3999996185303},{""stimulus"":""run_exp/static/images/task_images/dig.jpg"",""time"":1340.8999996185303}]",[],9,,,,,,,,,,,,,,
harvest,195,599434,0.0-59.0-4.0,,null,run_exp/static/images/task_images/gems/108.jpg,null,,,,,,24,,,9,,,,,108,0.219723831,0.222222222,,,,,,,
decision,196,599472,0.0-59.0-5.0,,36.0999999,run_exp/static/images/task_images/land.jpg,65,,,,,,24,,,9,,,,,,,,269431,1,0,FALSE,,,
dig,197,602444,0.0-60.0-0.0,,,,,,,,,,,"[{""stimulus"":""run_exp/static/images/task_images/dig.jpg"",""time"":0.20000028610229492},{""stimulus"":""run_exp/static/images/task_images/land.jpg"",""time"":989.6000003814697},{""stimulus"":""run_exp/static/images/task_images/dig.jpg"",""time"":1983.3000001907349}]",[],9,,,,,,,,,,,,,,
harvest,198,603452,0.0-60.0-1.0,,null,run_exp/static/images/task_images/gems/24.jpg,null,,,,,,4,,,9,,,,,24,0.147247616,0.166666667,,,,,,,
decision,199,603456,0.0-60.0-2.0,,0.400000095,run_exp/static/images/task_images/land.jpg,65,,,,,,4,,,9,,,,,,,,273415,1,1,FALSE,,,
dig,200,606464,0.0-61.0-0.0,,,,,,,,,,,"[{""stimulus"":""run_exp/static/images/task_images/dig.jpg"",""time"":0.40000009536743164},{""stimulus"":""run_exp/static/images/task_images/land.jpg"",""time"":1002.2999997138977},{""stimulus"":""run_exp/static/images/task_images/dig.jpg"",""time"":2001.2999997138977}]",[],9,,,,,,,,,,,,,,
harvest,201,607468,0.0-61.0-1.0,,null,run_exp/static/images/task_images/gems/4.jpg,null,,,,,,1,,,9,,,,,4,0.206992022,0.25,,,,,,,
decision,202,607653,0.0-61.0-2.0,,182.7000003,run_exp/static/images/task_images/land.jpg,76,,,,,,1,,,9,,,,,,,,277612,1,2,TRUE,,,
travel,203,617474,0.0-62.0-0.0,,,,,,,,,,,"[{""stimulus"":""run_exp/static/images/task_images/rocket-01.jpg"",""time"":0.3000001907348633},{""stimulus"":""run_exp/static/images/task_images/rocket-02.jpg"",""time"":1093.6000003814697},{""stimulus"":""run_exp/static/images/task_images/rocket-03.jpg"",""time"":2183.2000002861023},{""stimulus"":""run_exp/static/images/task_images/rocket-04.jpg"",""time"":3272.2000002861023},{""stimulus"":""run_exp/static/images/task_images/rocket-05.jpg"",""time"":4363.200000286102},{""stimulus"":""run_exp/static/images/task_images/rocket-06.jpg"",""time"":5453.800000190735},{""stimulus"":""run_exp/static/images/task_images/rocket-07.jpg"",""time"":6544},{""stimulus"":""run_exp/static/images/task_images/rocket-08.jpg"",""time"":7632.5},{""stimulus"":""run_exp/static/images/task_images/rocket-09.jpg"",""time"":8730.10000038147}]",[],9,,,,,,,,,,,,,,
alien_welcome,204,622479,0.0-62.0-1.0,,null,run_exp/static/images/task_images/aliens/old_aliens/planet/alien_planet-10.jpg,null,,,,,,,,,,,,10,"1,22,3,72,47,68,49,30,39,10,65,34,44,60,77,27,21,20,32,4,9,75,24,55,52,26,37,2,56,16,19,58,12,74,25,80,66,59,67,53,38,45,17,76,13,8,71",,,,,,,,,,
land,205,622984,0.0-62.0-2.0,,null,run_exp/static/images/task_images/land.jpg,null,,,,,,105,,,10,,,,,,,,,,,,,,
dig,206,624992,0.0-62.0-3.0,,,,,,,,,,,"[{""stimulus"":""run_exp/static/images/task_images/dig.jpg"",""time"":0.40000009536743164},{""stimulus"":""run_exp/static/images/task_images/land.jpg"",""time"":675.4000000953674},{""stimulus"":""run_exp/static/images/task_images/dig.jpg"",""time"":1337.9000000953674}]",[],10,,,,,,,,,,,,,,
harvest,207,626004,0.0-62.0-4.0,,null,run_exp/static/images/task_images/gems/105.jpg,null,,,,,,16,,,10,,,,,105,0.156661,0.152380952,,,,,,,
decision,208,626034,0.0-62.0-5.0,,28.20000029,run_exp/static/images/task_images/land.jpg,65,,,,,,16,,,10,,,,,,,,295994,1,0,FALSE,,,
dig,209,629011,0.0-63.0-0.0,,,,,,,,,,,"[{""stimulus"":""run_exp/static/images/task_images/dig.jpg"",""time"":0.20000028610229492},{""stimulus"":""run_exp/static/images/task_images/land.jpg"",""time"":991.9000000953674},{""stimulus"":""run_exp/static/images/task_images/dig.jpg"",""time"":1981.7000002861023}]",[],10,,,,,,,,,,,,,,
harvest,210,630024,0.0-63.0-1.0,,null,run_exp/static/images/task_images/gems/16.jpg,null,,,,,,3,,,10,,,,,16,0.191200383,0.1875,,,,,,,
decision,211,630074,0.0-63.0-2.0,,47.70000029,run_exp/static/images/task_images/land.jpg,65,,,,,,3,,,10,,,,,,,,300033,1,1,TRUE,,,
end_of_block_continue,212,638906,0.0-64.0-0.0,,null,run_exp/static/audio/clip_32_block_end.m4a,,,,,,null,,,,,,,,,,,,,,,,,,
alien_welcome,213,643934,0.0-65.0-0.0,,null,run_exp/static/images/task_images/aliens/old_aliens/planet/alien_planet-65.jpg,null,,,,,,,,,,,,65,"1,22,3,72,47,68,49,30,39,10,65,34,44,60,77,27,21,20,32,4,9,75,24,55,52,26,37,2,56,16,19,58,12,74,25,80,66,59,67,53,38,45,17,76,13,8,71",,,,,,,,,,
land,214,644438,0.0-65.0-1.0,,null,run_exp/static/images/task_images/land.jpg,null,,,,,,93,,,11,,,,,,,,,,,,,,
dig,215,646444,0.0-65.0-2.0,,,,,,,,,,,"[{""stimulus"":""run_exp/static/images/task_images/dig.jpg"",""time"":0.40000009536743164},{""stimulus"":""run_exp/static/images/task_images/land.jpg"",""time"":692.7000002861023},{""stimulus"":""run_exp/static/images/task_images/dig.jpg"",""time"":1338.2000002861023}]",[],11,,,,,,,,,,,,,,
harvest,216,647453,0.0-65.0-3.0,,null,run_exp/static/images/task_images/gems/93.jpg,null,,,,,,18,,,11,,,,,93,0.198027448,0.193548387,,,,,,,
decision,217,647486,0.0-65.0-4.0,,30.70000029,run_exp/static/images/task_images/land.jpg,65,,,,,,18,,,11,,,,,,,,8560,2,0,FALSE,,,
dig,218,650462,0.0-66.0-0.0,,,,,,,,,,,"[{""stimulus"":""run_exp/static/images/task_images/dig.jpg"",""time"":0.20000028610229492},{""stimulus"":""run_exp/static/images/task_images/land.jpg"",""time"":991.9000000953674},{""stimulus"":""run_exp/static/images/task_images/dig.jpg"",""time"":1979.4000000953674}]",[],11,,,,,,,,,,,,,,
harvest,219,651464,0.0-66.0-1.0,,null,run_exp/static/images/task_images/gems/18.jpg,null,,,,,,3,,,11,,,,,18,0.140025525,0.166666667,,,,,,,
decision,220,652218,0.0-66.0-2.0,,751.6000004,run_exp/static/images/task_images/land.jpg,76,,,,,,3,,,11,,,,,,,,13293,2,1,TRUE,,,
travel,221,661474,0.0-67.0-0.0,,,,,,,,,,,"[{""stimulus"":""run_exp/static/images/task_images/rocket-01.jpg"",""time"":0.39999961853027344},{""stimulus"":""run_exp/static/images/task_images/rocket-02.jpg"",""time"":1036.5999999046326},{""stimulus"":""run_exp/static/images/task_images/rocket-03.jpg"",""time"":2057.2999997138977},{""stimulus"":""run_exp/static/images/task_images/rocket-04.jpg"",""time"":3085.699999809265},{""stimulus"":""run_exp/static/images/task_images/rocket-05.jpg"",""time"":4116.699999809265},{""stimulus"":""run_exp/static/images/task_images/rocket-06.jpg"",""time"":5139.89999961853},{""stimulus"":""run_exp/static/images/task_images/rocket-07.jpg"",""time"":6167},{""stimulus"":""run_exp/static/images/task_images/rocket-08.jpg"",""time"":7196.699999809265},{""stimulus"":""run_exp/static/images/task_images/rocket-09.jpg"",""time"":8221.699999809265}]",[],11,,,,,,,,,,,,,,
alien_welcome,222,666481,0.0-67.0-1.0,,null,run_exp/static/images/task_images/aliens/old_aliens/planet/alien_planet-34.jpg,null,,,,,,,,,,,,34,"1,22,3,72,47,68,49,30,39,10,65,34,44,60,77,27,21,20,32,4,9,75,24,55,52,26,37,2,56,16,19,58,12,74,25,80,66,59,67,53,38,45,17,76,13,8,71",,,,,,,,,,
land,223,666984,0.0-67.0-2.0,,null,run_exp/static/images/task_images/land.jpg,null,,,,,,101,,,12,,,,,,,,,,,,,,
dig,224,668993,0.0-67.0-3.0,,,,,,,,,,,"[{""stimulus"":""run_exp/static/images/task_images/dig.jpg"",""time"":0.5},{""stimulus"":""run_exp/static/images/task_images/land.jpg"",""time"":672.3000001907349},{""stimulus"":""run_exp/static/images/task_images/dig.jpg"",""time"":1337.2000002861023}]",[],12,,,,,,,,,,,,,,
harvest,225,669996,0.0-67.0-4.0,,null,run_exp/static/images/task_images/gems/101.jpg,null,,,,,,16,,,12,,,,,101,0.159182455,0.158415842,,,,,,,
decision,226,670086,0.0-67.0-5.0,,87.80000019,run_exp/static/images/task_images/land.jpg,65,,,,,,16,,,12,,,,,,,,31160,2,0,FALSE,,,
dig,227,673011,0.0-68.0-0.0,,,,,,,,,,,"[{""stimulus"":""run_exp/static/images/task_images/dig.jpg"",""time"":0.40000009536743164},{""stimulus"":""run_exp/static/images/task_images/land.jpg"",""time"":973.0999999046326},{""stimulus"":""run_exp/static/images/task_images/dig.jpg"",""time"":1951.5}]",[],12,,,,,,,,,,,,,,
harvest,228,674024,0.0-68.0-1.0,,null,run_exp/static/images/task_images/gems/16.jpg,null,,,,,,4,,,12,,,,,16,0.231285213,0.25,,,,,,,
decision,229,674752,0.0-68.0-2.0,,724.2999997,run_exp/static/images/task_images/land.jpg,76,,,,,,4,,,12,,,,,,,,35827,2,1,TRUE,,,
travel,230,684034,0.0-69.0-0.0,,,,,,,,,,,"[{""stimulus"":""run_exp/static/images/task_images/rocket-01.jpg"",""time"":0.39999961853027344},{""stimulus"":""run_exp/static/images/task_images/rocket-02.jpg"",""time"":1031.6999998092651},{""stimulus"":""run_exp/static/images/task_images/rocket-03.jpg"",""time"":2062},{""stimulus"":""run_exp/static/images/task_images/rocket-04.jpg"",""time"":3091.5999999046326},{""stimulus"":""run_exp/static/images/task_images/rocket-05.jpg"",""time"":4130.699999809265},{""stimulus"":""run_exp/static/images/task_images/rocket-06.jpg"",""time"":5161.199999809265},{""stimulus"":""run_exp/static/images/task_images/rocket-07.jpg"",""time"":6191.299999713898},{""stimulus"":""run_exp/static/images/task_images/rocket-08.jpg"",""time"":7213.199999809265},{""stimulus"":""run_exp/static/images/task_images/rocket-09.jpg"",""time"":8246}]",[],12,,,,,,,,,,,,,,
alien_welcome,231,689040,0.0-69.0-1.0,,null,run_exp/static/images/task_images/aliens/old_aliens/planet/alien_planet-44.jpg,null,,,,,,,,,,,,44,"1,22,3,72,47,68,49,30,39,10,65,34,44,60,77,27,21,20,32,4,9,75,24,55,52,26,37,2,56,16,19,58,12,74,25,80,66,59,67,53,38,45,17,76,13,8,71",,,,,,,,,,
land,232,689543,0.0-69.0-2.0,,null,run_exp/static/images/task_images/land.jpg,null,,,,,,93,,,13,,,,,,,,,,,,,,
dig,233,691552,0.0-69.0-3.0,,,,,,,,,,,"[{""stimulus"":""run_exp/static/images/task_images/dig.jpg"",""time"":0.5},{""stimulus"":""run_exp/static/images/task_images/land.jpg"",""time"":668.5},{""stimulus"":""run_exp/static/images/task_images/dig.jpg"",""time"":1339}]",[],13,,,,,,,,,,,,,,
harvest,234,692556,0.0-69.0-4.0,,null,run_exp/static/images/task_images/gems/93.jpg,null,,,,,,15,,,13,,,,,93,0.163027644,0.161290323,,,,,,,
decision,235,692588,0.0-69.0-5.0,,30.9000001,run_exp/static/images/task_images/land.jpg,65,,,,,,15,,,13,,,,,,,,53663,2,0,FALSE,,,
dig,236,695564,0.0-70.0-0.0,,,,,,,,,,,"[{""stimulus"":""run_exp/static/images/task_images/dig.jpg"",""time"":0.09999990463256836},{""stimulus"":""run_exp/static/images/task_images/land.jpg"",""time"":990.9000000953674},{""stimulus"":""run_exp/static/images/task_images/dig.jpg"",""time"":1979.8000001907349}]",[],13,,,,,,,,,,,,,,
harvest,237,696571,0.0-70.0-1.0,,null,run_exp/static/images/task_images/gems/15.jpg,null,,,,,,3,,,13,,,,,15,0.189264677,0.2,,,,,,,
decision,238,696606,0.0-70.0-2.0,,32.30000019,run_exp/static/images/task_images/land.jpg,65,,,,,,3,,,13,,,,,,,,57680,2,1,FALSE,,,
dig,239,699584,0.0-71.0-0.0,,,,,,,,,,,"[{""stimulus"":""run_exp/static/images/task_images/dig.jpg"",""time"":0.20000028610229492},{""stimulus"":""run_exp/static/images/task_images/land.jpg"",""time"":991.7000002861023},{""stimulus"":""run_exp/static/images/task_images/dig.jpg"",""time"":1983.2000002861023}]",[],13,,,,,,,,,,,,,,
harvest,240,700586,0.0-71.0-1.0,,null,run_exp/static/images/task_images/gems/3.jpg,null,,,,,,0,,,13,,,,,3,0.113781339,0,,,,,,,
decision,241,701257,0.0-71.0-2.0,,668.0999999,run_exp/static/images/task_images/land.jpg,76,,,,,,0,,,13,,,,,,,,62331,2,2,TRUE,,,
travel,242,710594,0.0-72.0-0.0,,,,,,,,,,,"[{""stimulus"":""run_exp/static/images/task_images/rocket-01.jpg"",""time"":0.3000001907348633},{""stimulus"":""run_exp/static/images/task_images/rocket-02.jpg"",""time"":1038.2000002861023},{""stimulus"":""run_exp/static/images/task_images/rocket-03.jpg"",""time"":2079.9000000953674},{""stimulus"":""run_exp/static/images/task_images/rocket-04.jpg"",""time"":3120.1000003814697},{""stimulus"":""run_exp/static/images/task_images/rocket-05.jpg"",""time"":4148.5},{""stimulus"":""run_exp/static/images/task_images/rocket-06.jpg"",""time"":5186.400000095367},{""stimulus"":""run_exp/static/images/task_images/rocket-07.jpg"",""time"":6218.700000286102},{""stimulus"":""run_exp/static/images/task_images/rocket-08.jpg"",""time"":7259.700000286102},{""stimulus"":""run_exp/static/images/task_images/rocket-09.jpg"",""time"":8289.5}]",[],13,,,,,,,,,,,,,,
alien_welcome,243,715598,0.0-72.0-1.0,,null,run_exp/static/images/task_images/aliens/old_aliens/planet/alien_planet-60.jpg,null,,,,,,,,,,,,60,"1,22,3,72,47,68,49,30,39,10,65,34,44,60,77,27,21,20,32,4,9,75,24,55,52,26,37,2,56,16,19,58,12,74,25,80,66,59,67,53,38,45,17,76,13,8,71",,,,,,,,,,
land,244,716104,0.0-72.0-2.0,,null,run_exp/static/images/task_images/land.jpg,null,,,,,,103,,,14,,,,,,,,,,,,,,
dig,245,718113,0.0-72.0-3.0,,,,,,,,,,,"[{""stimulus"":""run_exp/static/images/task_images/dig.jpg"",""time"":0.39999961853027344},{""stimulus"":""run_exp/static/images/task_images/land.jpg"",""time"":687.2999997138977},{""stimulus"":""run_exp/static/images/task_images/dig.jpg"",""time"":1338}]",[],14,,,,,,,,,,,,,,
harvest,246,719124,0.0-72.0-4.0,,null,run_exp/static/images/task_images/gems/103.jpg,null,,,,,,77,,,14,,,,,103,0.745575013,0.747572816,,,,,,,
decision,247,719190,0.0-72.0-5.0,,63.30000019,run_exp/static/images/task_images/land.jpg,65,,,,,,77,,,14,,,,,,,,80264,2,0,FALSE,,,
dig,248,722136,0.0-73.0-0.0,,,,,,,,,,,"[{""stimulus"":""run_exp/static/images/task_images/dig.jpg"",""time"":0.40000009536743164},{""stimulus"":""run_exp/static/images/task_images/land.jpg"",""time"":983.0999999046326},{""stimulus"":""run_exp/static/images/task_images/dig.jpg"",""time"":1958.6999998092651}]",[],14,,,,,,,,,,,,,,
harvest,249,723145,0.0-73.0-1.0,,null,run_exp/static/images/task_images/gems/77.jpg,null,,,,,,64,,,14,,,,,77,0.837521327,0.831168831,,,,,,,
decision,250,723192,0.0-73.0-2.0,,44.5999999,run_exp/static/images/task_images/land.jpg,65,,,,,,64,,,14,,,,,,,,84266,2,1,FALSE,,,
dig,251,726161,0.0-74.0-0.0,,,,,,,,,,,"[{""stimulus"":""run_exp/static/images/task_images/dig.jpg"",""time"":0.3000001907348633},{""stimulus"":""run_exp/static/images/task_images/land.jpg"",""time"":995.6000003814697},{""stimulus"":""run_exp/static/images/task_images/dig.jpg"",""time"":1974}]",[],14,,,,,,,,,,,,,,
harvest,252,727174,0.0-74.0-1.0,,null,run_exp/static/images/task_images/gems/64.jpg,null,,,,,,50,,,14,,,,,64,0.787222687,0.78125,,,,,,,
decision,253,727323,0.0-74.0-2.0,,146.5999999,run_exp/static/images/task_images/land.jpg,65,,,,,,50,,,14,,,,,,,,88397,2,2,FALSE,,,
dig,254,730192,0.0-75.0-0.0,,,,,,,,,,,"[{""stimulus"":""run_exp/static/images/task_images/dig.jpg"",""time"":0.3000001907348633},{""stimulus"":""run_exp/static/images/task_images/land.jpg"",""time"":953.9000000953674},{""stimulus"":""run_exp/static/images/task_images/dig.jpg"",""time"":1912.1000003814697}]",[],14,,,,,,,,,,,,,,
harvest,255,731204,0.0-75.0-1.0,,null,run_exp/static/images/task_images/gems/50.jpg,null,,,,,,39,,,14,,,,,50,0.778873229,0.78,,,,,,,
decision,256,731729,0.0-75.0-2.0,,522,run_exp/static/images/task_images/land.jpg,76,,,,,,39,,,14,,,,,,,,92803,2,3,TRUE,,,
travel,257,741222,0.0-76.0-0.0,,,,,,,,,,,"[{""stimulus"":""run_exp/static/images/task_images/rocket-01.jpg"",""time"":0.39999961853027344},{""stimulus"":""run_exp/static/images/task_images/rocket-02.jpg"",""time"":1054.5999999046326},{""stimulus"":""run_exp/static/images/task_images/rocket-03.jpg"",""time"":2118.0999999046326},{""stimulus"":""run_exp/static/images/task_images/rocket-04.jpg"",""time"":3167.3999996185303},{""stimulus"":""run_exp/static/images/task_images/rocket-05.jpg"",""time"":4216.699999809265},{""stimulus"":""run_exp/static/images/task_images/rocket-06.jpg"",""time"":5267.699999809265},{""stimulus"":""run_exp/static/images/task_images/rocket-07.jpg"",""time"":6320.299999713898},{""stimulus"":""run_exp/static/images/task_images/rocket-08.jpg"",""time"":7376.599999904633},{""stimulus"":""run_exp/static/images/task_images/rocket-09.jpg"",""time"":8427.299999713898}]",[],14,,,,,,,,,,,,,,
alien_welcome,258,746233,0.0-76.0-1.0,,null,run_exp/static/images/task_images/aliens/old_aliens/planet/alien_planet-77.jpg,null,,,,,,,,,,,,77,"1,22,3,72,47,68,49,30,39,10,65,34,44,60,77,27,21,20,32,4,9,75,24,55,52,26,37,2,56,16,19,58,12,74,25,80,66,59,67,53,38,45,17,76,13,8,71",,,,,,,,,,
land,259,746737,0.0-76.0-2.0,,null,run_exp/static/images/task_images/land.jpg,null,,,,,,100,,,15,,,,,,,,,,,,,,
dig,260,748744,0.0-76.0-3.0,,,,,,,,,,,"[{""stimulus"":""run_exp/static/images/task_images/dig.jpg"",""time"":0.3000001907348633},{""stimulus"":""run_exp/static/images/task_images/land.jpg"",""time"":673.9000000953674},{""stimulus"":""run_exp/static/images/task_images/dig.jpg"",""time"":1344.5}]",[],15,,,,,,,,,,,,,,
harvest,261,749752,0.0-76.0-4.0,,null,run_exp/static/images/task_images/gems/100.jpg,null,,,,,,85,,,15,,,,,100,0.851394696,0.85,,,,,,,
decision,262,749837,0.0-76.0-5.0,,83.79999971,run_exp/static/images/task_images/land.jpg,65,,,,,,85,,,15,,,,,,,,110911,2,0,FALSE,,,
dig,263,752762,0.0-77.0-0.0,,,,,,,,,,,"[{""stimulus"":""run_exp/static/images/task_images/dig.jpg"",""time"":0.3000001907348633},{""stimulus"":""run_exp/static/images/task_images/land.jpg"",""time"":976},{""stimulus"":""run_exp/static/images/task_images/dig.jpg"",""time"":1950.9000000953674}]",[],15,,,,,,,,,,,,,,
harvest,264,753768,0.0-77.0-1.0,,null,run_exp/static/images/task_images/gems/85.jpg,null,,,,,,68,,,15,,,,,85,0.804131955,0.8,,,,,,,
decision,265,753963,0.0-77.0-2.0,,191.7999997,run_exp/static/images/task_images/land.jpg,65,,,,,,68,,,15,,,,,,,,115037,2,1,FALSE,,,
dig,266,756784,0.0-78.0-0.0,,,,,,,,,,,"[{""stimulus"":""run_exp/static/images/task_images/dig.jpg"",""time"":0.7000002861022949},{""stimulus"":""run_exp/static/images/task_images/land.jpg"",""time"":940.3000001907349},{""stimulus"":""run_exp/static/images/task_images/dig.jpg"",""time"":1877.5999999046326}]",[],15,,,,,,,,,,,,,,
harvest,267,757786,0.0-78.0-1.0,,null,run_exp/static/images/task_images/gems/68.jpg,null,,,,,,55,,,15,,,,,68,0.805510571,0.808823529,,,,,,,
decision,268,758002,0.0-78.0-2.0,,212.5999999,run_exp/static/images/task_images/land.jpg,65,,,,,,55,,,15,,,,,,,,119076,2,2,FALSE,,,
dig,269,760804,0.0-79.0-0.0,,,,,,,,,,,"[{""stimulus"":""run_exp/static/images/task_images/dig.jpg"",""time"":0.5},{""stimulus"":""run_exp/static/images/task_images/land.jpg"",""time"":931.5},{""stimulus"":""run_exp/static/images/task_images/dig.jpg"",""time"":1860.6999998092651}]",[],15,,,,,,,,,,,,,,
harvest,270,761814,0.0-79.0-1.0,,null,run_exp/static/images/task_images/gems/55.jpg,null,,,,,,45,,,15,,,,,55,0.813742343,0.818181818,,,,,,,
decision,271,762141,0.0-79.0-2.0,,323.1999998,run_exp/static/images/task_images/land.jpg,76,,,,,,45,,,15,,,,,,,,123215,2,3,TRUE,,,
travel,272,771834,0.0-80.0-0.0,,,,,,,,,,,"[{""stimulus"":""run_exp/static/images/task_images/rocket-01.jpg"",""time"":0.40000009536743164},{""stimulus"":""run_exp/static/images/task_images/rocket-02.jpg"",""time"":1089.5},{""stimulus"":""run_exp/static/images/task_images/rocket-03.jpg"",""time"":2157.7000002861023},{""stimulus"":""run_exp/static/images/task_images/rocket-04.jpg"",""time"":3226.5},{""stimulus"":""run_exp/static/images/task_images/rocket-05.jpg"",""time"":4307.5},{""stimulus"":""run_exp/static/images/task_images/rocket-06.jpg"",""time"":5377.900000095367},{""stimulus"":""run_exp/static/images/task_images/rocket-07.jpg"",""time"":6456.599999904633},{""stimulus"":""run_exp/static/images/task_images/rocket-08.jpg"",""time"":7528.5},{""stimulus"":""run_exp/static/images/task_images/rocket-09.jpg"",""time"":8605.900000095367}]",[],15,,,,,,,,,,,,,,
alien_welcome,273,776843,0.0-80.0-1.0,,null,run_exp/static/images/task_images/aliens/old_aliens/planet/alien_planet-27.jpg,null,,,,,,,,,,,,27,"1,22,3,72,47,68,49,30,39,10,65,34,44,60,77,27,21,20,32,4,9,75,24,55,52,26,37,2,56,16,19,58,12,74,25,80,66,59,67,53,38,45,17,76,13,8,71",,,,,,,,,,
land,274,777353,0.0-80.0-2.0,,null,run_exp/static/images/task_images/land.jpg,null,,,,,,93,,,16,,,,,,,,,,,,,,
dig,275,779359,0.0-80.0-3.0,,,,,,,,,,,"[{""stimulus"":""run_exp/static/images/task_images/dig.jpg"",""time"":0.40000009536743164},{""stimulus"":""run_exp/static/images/task_images/land.jpg"",""time"":684.5},{""stimulus"":""run_exp/static/images/task_images/dig.jpg"",""time"":1337.5999999046326}]",[],16,,,,,,,,,,,,,,
harvest,276,780364,0.0-80.0-4.0,,null,run_exp/static/images/task_images/gems/93.jpg,null,,,,,,78,,,16,,,,,93,0.834670138,0.838709677,,,,,,,
decision,277,780409,0.0-80.0-5.0,,43.5999999,run_exp/static/images/task_images/land.jpg,65,,,,,,78,,,16,,,,,,,,141483,2,0,FALSE,,,
dig,278,783374,0.0-81.0-0.0,,,,,,,,,,,"[{""stimulus"":""run_exp/static/images/task_images/dig.jpg"",""time"":0.09999990463256836},{""stimulus"":""run_exp/static/images/task_images/land.jpg"",""time"":991.2999997138977},{""stimulus"":""run_exp/static/images/task_images/dig.jpg"",""time"":1978.7999997138977}]",[],16,,,,,,,,,,,,,,
harvest,279,784384,0.0-81.0-1.0,,null,run_exp/static/images/task_images/gems/78.jpg,null,,,,,,65,,,16,,,,,78,0.835884708,0.833333333,,,,,,,
decision,280,784498,0.0-81.0-2.0,,110.6999998,run_exp/static/images/task_images/land.jpg,65,,,,,,65,,,16,,,,,,,,145572,2,1,FALSE,,,
dig,281,787404,0.0-82.0-0.0,,,,,,,,,,,"[{""stimulus"":""run_exp/static/images/task_images/dig.jpg"",""time"":0.40000009536743164},{""stimulus"":""run_exp/static/images/task_images/land.jpg"",""time"":968.0999999046326},{""stimulus"":""run_exp/static/images/task_images/dig.jpg"",""time"":1934.6999998092651}]",[],16,,,,,,,,,,,,,,
harvest,282,788407,0.0-82.0-1.0,,null,run_exp/static/images/task_images/gems/65.jpg,null,,,,,,57,,,16,,,,,65,0.881817741,0.876923077,,,,,,,
decision,283,788475,0.0-82.0-2.0,,66.30000019,run_exp/static/images/task_images/land.jpg,76,,,,,,57,,,16,,,,,,,,149549,2,2,TRUE,,,
travel,284,798414,0.0-83.0-0.0,,,,,,,,,,,"[{""stimulus"":""run_exp/static/images/task_images/rocket-01.jpg"",""time"":0.2999997138977051},{""stimulus"":""run_exp/static/images/task_images/rocket-02.jpg"",""time"":1106.1999998092651},{""stimulus"":""run_exp/static/images/task_images/rocket-03.jpg"",""time"":2241},{""stimulus"":""run_exp/static/images/task_images/rocket-04.jpg"",""time"":3311},{""stimulus"":""run_exp/static/images/task_images/rocket-05.jpg"",""time"":4421.299999713898},{""stimulus"":""run_exp/static/images/task_images/rocket-06.jpg"",""time"":5520.799999713898},{""stimulus"":""run_exp/static/images/task_images/rocket-07.jpg"",""time"":6620.699999809265},{""stimulus"":""run_exp/static/images/task_images/rocket-08.jpg"",""time"":7731.199999809265},{""stimulus"":""run_exp/static/images/task_images/rocket-09.jpg"",""time"":8830.099999904633}]",[],16,,,,,,,,,,,,,,
alien_welcome,285,803418,0.0-83.0-1.0,,null,run_exp/static/images/task_images/aliens/old_aliens/planet/alien_planet-21.jpg,null,,,,,,,,,,,,21,"1,22,3,72,47,68,49,30,39,10,65,34,44,60,77,27,21,20,32,4,9,75,24,55,52,26,37,2,56,16,19,58,12,74,25,80,66,59,67,53,38,45,17,76,13,8,71",,,,,,,,,,
land,286,803923,0.0-83.0-2.0,,null,run_exp/static/images/task_images/land.jpg,null,,,,,,102,,,17,,,,,,,,,,,,,,
dig,287,805933,0.0-83.0-3.0,,,,,,,,,,,"[{""stimulus"":""run_exp/static/images/task_images/dig.jpg"",""time"":0.40000009536743164},{""stimulus"":""run_exp/static/images/task_images/land.jpg"",""time"":702.4000000953674},{""stimulus"":""run_exp/static/images/task_images/dig.jpg"",""time"":1337.8000001907349}]",[],17,,,,,,,,,,,,,,
harvest,288,806944,0.0-83.0-4.0,,null,run_exp/static/images/task_images/gems/102.jpg,null,,,,,,83,,,17,,,,,102,0.812243402,0.81372549,,,,,,,
decision,289,806985,0.0-83.0-5.0,,38.80000019,run_exp/static/images/task_images/land.jpg,65,,,,,,83,,,17,,,,,,,,168059,2,0,FALSE,,,
dig,290,809954,0.0-84.0-0.0,,,,,,,,,,,"[{""stimulus"":""run_exp/static/images/task_images/dig.jpg"",""time"":0.19999980926513672},{""stimulus"":""run_exp/static/images/task_images/land.jpg"",""time"":992.5999999046326},{""stimulus"":""run_exp/static/images/task_images/dig.jpg"",""time"":1976.1999998092651}]",[],17,,,,,,,,,,,,,,
harvest,291,810964,0.0-84.0-1.0,,null,run_exp/static/images/task_images/gems/83.jpg,null,,,,,,57,,,17,,,,,83,0.687406597,0.686746988,,,,,,,
decision,292,811086,0.0-84.0-2.0,,119.0999999,run_exp/static/images/task_images/land.jpg,65,,,,,,57,,,17,,,,,,,,172160,2,1,FALSE,,,
dig,293,813981,0.0-85.0-0.0,,,,,,,,,,,"[{""stimulus"":""run_exp/static/images/task_images/dig.jpg"",""time"":0.5999999046325684},{""stimulus"":""run_exp/static/images/task_images/land.jpg"",""time"":970},{""stimulus"":""run_exp/static/images/task_images/dig.jpg"",""time"":1930.2000002861023}]",[],17,,,,,,,,,,,,,,
harvest,294,814983,0.0-85.0-1.0,,null,run_exp/static/images/task_images/gems/57.jpg,null,,,,,,41,,,17,,,,,57,0.722823613,0.719298246,,,,,,,
decision,295,815027,0.0-85.0-2.0,,41.0999999,run_exp/static/images/task_images/land.jpg,65,,,,,,41,,,17,,,,,,,,176101,2,2,FALSE,,,
dig,296,818004,0.0-86.0-0.0,,,,,,,,,,,"[{""stimulus"":""run_exp/static/images/task_images/dig.jpg"",""time"":0.2999997138977051},{""stimulus"":""run_exp/static/images/task_images/land.jpg"",""time"":993},{""stimulus"":""run_exp/static/images/task_images/dig.jpg"",""time"":1975.5999999046326}]",[],17,,,,,,,,,,,,,,
harvest,297,819012,0.0-86.0-1.0,,null,run_exp/static/images/task_images/gems/41.jpg,null,,,,,,32,,,17,,,,,41,0.790656221,0.780487805,,,,,,,
decision,298,820076,0.0-86.0-2.0,,1060.3,run_exp/static/images/task_images/land.jpg,76,,,,,,32,,,17,,,,,,,,181150,2,3,TRUE,,,
travel,299,829026,0.0-87.0-0.0,,,,,,,,,,,"[{""stimulus"":""run_exp/static/images/task_images/rocket-01.jpg"",""time"":0.2999997138977051},{""stimulus"":""run_exp/static/images/task_images/rocket-02.jpg"",""time"":997.6999998092651},{""stimulus"":""run_exp/static/images/task_images/rocket-03.jpg"",""time"":1995.2999997138977},{""stimulus"":""run_exp/static/images/task_images/rocket-04.jpg"",""time"":2987.0999999046326},{""stimulus"":""run_exp/static/images/task_images/rocket-05.jpg"",""time"":3996.7999997138977},{""stimulus"":""run_exp/static/images/task_images/rocket-06.jpg"",""time"":4993.900000095367},{""stimulus"":""run_exp/static/images/task_images/rocket-07.jpg"",""time"":5967.799999713898},{""stimulus"":""run_exp/static/images/task_images/rocket-08.jpg"",""time"":6956.5},{""stimulus"":""run_exp/static/images/task_images/rocket-09.jpg"",""time"":7947.400000095367}]",[],17,,,,,,,,,,,,,,
alien_welcome,300,834034,0.0-87.0-1.0,,null,run_exp/static/images/task_images/aliens/old_aliens/planet/alien_planet-20.jpg,null,,,,,,,,,,,,20,"1,22,3,72,47,68,49,30,39,10,65,34,44,60,77,27,21,20,32,4,9,75,24,55,52,26,37,2,56,16,19,58,12,74,25,80,66,59,67,53,38,45,17,76,13,8,71",,,,,,,,,,
land,301,834541,0.0-87.0-2.0,,null,run_exp/static/images/task_images/land.jpg,null,,,,,,99,,,18,,,,,,,,,,,,,,
dig,302,836549,0.0-87.0-3.0,,,,,,,,,,,"[{""stimulus"":""run_exp/static/images/task_images/dig.jpg"",""time"":0.40000009536743164},{""stimulus"":""run_exp/static/images/task_images/land.jpg"",""time"":697.0999999046326},{""stimulus"":""run_exp/static/images/task_images/dig.jpg"",""time"":1340.5}]",[],18,,,,,,,,,,,,,,
harvest,303,837553,0.0-87.0-4.0,,null,run_exp/static/images/task_images/gems/99.jpg,null,,,,,,80,,,18,,,,,99,0.811173591,0.808080808,,,,,,,
decision,304,837704,0.0-87.0-5.0,,149,run_exp/static/images/task_images/land.jpg,65,,,,,,80,,,18,,,,,,,,198778,2,0,FALSE,,,
dig,305,840564,0.0-88.0-0.0,,,,,,,,,,,"[{""stimulus"":""run_exp/static/images/task_images/dig.jpg"",""time"":0.3000001907348633},{""stimulus"":""run_exp/static/images/task_images/land.jpg"",""time"":955.0999999046326},{""stimulus"":""run_exp/static/images/task_images/dig.jpg"",""time"":1904.8000001907349}]",[],18,,,,,,,,,,,,,,
harvest,306,841571,0.0-88.0-1.0,,null,run_exp/static/images/task_images/gems/80.jpg,null,,,,,,67,,,18,,,,,80,0.843562859,0.8375,,,,,,,
decision,307,841963,0.0-88.0-2.0,,389.2000003,run_exp/static/images/task_images/land.jpg,76,,,,,,67,,,18,,,,,,,,203037,2,1,TRUE,,,
travel,308,851584,0.0-89.0-0.0,,,,,,,,,,,"[{""stimulus"":""run_exp/static/images/task_images/rocket-01.jpg"",""time"":0.5},{""stimulus"":""run_exp/static/images/task_images/rocket-02.jpg"",""time"":1072.4000000953674},{""stimulus"":""run_exp/static/images/task_images/rocket-03.jpg"",""time"":2142.5999999046326},{""stimulus"":""run_exp/static/images/task_images/rocket-04.jpg"",""time"":3212.4000000953674},{""stimulus"":""run_exp/static/images/task_images/rocket-05.jpg"",""time"":4272.400000095367},{""stimulus"":""run_exp/static/images/task_images/rocket-06.jpg"",""time"":5341.900000095367},{""stimulus"":""run_exp/static/images/task_images/rocket-07.jpg"",""time"":6413},{""stimulus"":""run_exp/static/images/task_images/rocket-08.jpg"",""time"":7471.900000095367},{""stimulus"":""run_exp/static/images/task_images/rocket-09.jpg"",""time"":8542}]",[],18,,,,,,,,,,,,,,
alien_welcome,309,856593,0.0-89.0-1.0,,null,run_exp/static/images/task_images/aliens/old_aliens/planet/alien_planet-32.jpg,null,,,,,,,,,,,,32,"1,22,3,72,47,68,49,30,39,10,65,34,44,60,77,27,21,20,32,4,9,75,24,55,52,26,37,2,56,16,19,58,12,74,25,80,66,59,67,53,38,45,17,76,13,8,71",,,,,,,,,,
land,310,857100,0.0-89.0-2.0,,null,run_exp/static/images/task_images/land.jpg,null,,,,,,96,,,19,,,,,,,,,,,,,,
dig,311,859114,0.0-89.0-3.0,,,,,,,,,,,"[{""stimulus"":""run_exp/static/images/task_images/dig.jpg"",""time"":0.39999961853027344},{""stimulus"":""run_exp/static/images/task_images/land.jpg"",""time"":699.6999998092651},{""stimulus"":""run_exp/static/images/task_images/dig.jpg"",""time"":1341.8999996185303}]",[],19,,,,,,,,,,,,,,
harvest,312,860123,0.0-89.0-4.0,,null,run_exp/static/images/task_images/gems/96.jpg,null,,,,,,48,,,19,,,,,96,0.498556992,0.5,,,,,,,
decision,313,860221,0.0-89.0-5.0,,95.5,run_exp/static/images/task_images/land.jpg,65,,,,,,48,,,19,,,,,,,,221295,2,0,FALSE,,,
dig,314,863143,0.0-90.0-0.0,,,,,,,,,,,"[{""stimulus"":""run_exp/static/images/task_images/dig.jpg"",""time"":0.5},{""stimulus"":""run_exp/static/images/task_images/land.jpg"",""time"":973.5999999046326},{""stimulus"":""run_exp/static/images/task_images/dig.jpg"",""time"":1943.4000000953674}]",[],19,,,,,,,,,,,,,,
harvest,315,864148,0.0-90.0-1.0,,null,run_exp/static/images/task_images/gems/48.jpg,null,,,,,,22,,,19,,,,,48,0.465793073,0.458333333,,,,,,,
decision,316,864371,0.0-90.0-2.0,,220.7000003,run_exp/static/images/task_images/land.jpg,65,,,,,,22,,,19,,,,,,,,225445,2,1,FALSE,,,
dig,317,867162,0.0-91.0-0.0,,,,,,,,,,,"[{""stimulus"":""run_exp/static/images/task_images/dig.jpg"",""time"":0.9000000953674316},{""stimulus"":""run_exp/static/images/task_images/land.jpg"",""time"":932.5999999046326},{""stimulus"":""run_exp/static/images/task_images/dig.jpg"",""time"":1864.2999997138977}]",[],19,,,,,,,,,,,,,,
harvest,318,868174,0.0-91.0-1.0,,null,run_exp/static/images/task_images/gems/22.jpg,null,,,,,,12,,,19,,,,,22,0.554646932,0.545454545,,,,,,,
decision,319,868604,0.0-91.0-2.0,,427,run_exp/static/images/task_images/land.jpg,76,,,,,,12,,,19,,,,,,,,229678,2,2,TRUE,,,
travel,320,878183,0.0-92.0-0.0,,,,,,,,,,,"[{""stimulus"":""run_exp/static/images/task_images/rocket-01.jpg"",""time"":0.5999999046325684},{""stimulus"":""run_exp/static/images/task_images/rocket-02.jpg"",""time"":1065.4000000953674},{""stimulus"":""run_exp/static/images/task_images/rocket-03.jpg"",""time"":2130.800000190735},{""stimulus"":""run_exp/static/images/task_images/rocket-04.jpg"",""time"":3197.300000190735},{""stimulus"":""run_exp/static/images/task_images/rocket-05.jpg"",""time"":4259},{""stimulus"":""run_exp/static/images/task_images/rocket-06.jpg"",""time"":5320.099999904633},{""stimulus"":""run_exp/static/images/task_images/rocket-07.jpg"",""time"":6380.300000190735},{""stimulus"":""run_exp/static/images/task_images/rocket-08.jpg"",""time"":7446.599999904633},{""stimulus"":""run_exp/static/images/task_images/rocket-09.jpg"",""time"":8510.200000286102}]",[],19,,,,,,,,,,,,,,
alien_welcome,321,883192,0.0-92.0-1.0,,null,run_exp/static/images/task_images/aliens/old_aliens/planet/alien_planet-4.jpg,null,,,,,,,,,,,,4,"1,22,3,72,47,68,49,30,39,10,65,34,44,60,77,27,21,20,32,4,9,75,24,55,52,26,37,2,56,16,19,58,12,74,25,80,66,59,67,53,38,45,17,76,13,8,71",,,,,,,,,,
land,322,883704,0.0-92.0-2.0,,null,run_exp/static/images/task_images/land.jpg,null,,,,,,102,,,20,,,,,,,,,,,,,,
dig,323,885713,0.0-92.0-3.0,,,,,,,,,,,"[{""stimulus"":""run_exp/static/images/task_images/dig.jpg"",""time"":0.40000009536743164},{""stimulus"":""run_exp/static/images/task_images/land.jpg"",""time"":720.4000000953674},{""stimulus"":""run_exp/static/images/task_images/dig.jpg"",""time"":1346}]",[],20,,,,,,,,,,,,,,
harvest,324,886722,0.0-92.0-4.0,,null,run_exp/static/images/task_images/gems/102.jpg,null,,,,,,82,,,20,,,,,102,0.8023748,0.803921569,,,,,,,
decision,325,886796,0.0-92.0-5.0,,71.20000029,run_exp/static/images/task_images/land.jpg,65,,,,,,82,,,20,,,,,,,,247870,2,0,FALSE,,,
dig,326,889738,0.0-93.0-0.0,,,,,,,,,,,"[{""stimulus"":""run_exp/static/images/task_images/dig.jpg"",""time"":0.40000009536743164},{""stimulus"":""run_exp/static/images/task_images/land.jpg"",""time"":983.9000000953674},{""stimulus"":""run_exp/static/images/task_images/dig.jpg"",""time"":1958.2999997138977}]",[],20,,,,,,,,,,,,,,
harvest,327,890744,0.0-93.0-1.0,,null,run_exp/static/images/task_images/gems/82.jpg,null,,,,,,64,,,20,,,,,82,0.78567977,0.780487805,,,,,,,
decision,328,890875,0.0-93.0-2.0,,127.7999997,run_exp/static/images/task_images/land.jpg,65,,,,,,64,,,20,,,,,,,,251949,2,1,FALSE,,,
dig,329,893764,0.0-94.0-0.0,,,,,,,,,,,"[{""stimulus"":""run_exp/static/images/task_images/dig.jpg"",""time"":0.40000009536743164},{""stimulus"":""run_exp/static/images/task_images/land.jpg"",""time"":967.9000000953674},{""stimulus"":""run_exp/static/images/task_images/dig.jpg"",""time"":1917.8000001907349}]",[],20,,,,,,,,,,,,,,
harvest,330,894766,0.0-94.0-1.0,,null,run_exp/static/images/task_images/gems/64.jpg,null,,,,,,51,,,20,,,,,64,0.790137377,0.796875,,,,,,,
decision,331,895480,0.0-94.0-2.0,,711.8000002,run_exp/static/images/task_images/land.jpg,76,,,,,,51,,,20,,,,,,,,256555,2,2,TRUE,,,
travel,332,904783,0.0-95.0-0.0,,,,,,,,,,,"[{""stimulus"":""run_exp/static/images/task_images/rocket-01.jpg"",""time"":0.3000001907348633},{""stimulus"":""run_exp/static/images/task_images/rocket-02.jpg"",""time"":1035.4000000953674},{""stimulus"":""run_exp/static/images/task_images/rocket-03.jpg"",""time"":2075.5},{""stimulus"":""run_exp/static/images/task_images/rocket-04.jpg"",""time"":3105},{""stimulus"":""run_exp/static/images/task_images/rocket-05.jpg"",""time"":4130.099999904633},{""stimulus"":""run_exp/static/images/task_images/rocket-06.jpg"",""time"":5163},{""stimulus"":""run_exp/static/images/task_images/rocket-07.jpg"",""time"":6194.800000190735},{""stimulus"":""run_exp/static/images/task_images/rocket-08.jpg"",""time"":7228.800000190735},{""stimulus"":""run_exp/static/images/task_images/rocket-09.jpg"",""time"":8261.699999809265}]",[],20,,,,,,,,,,,,,,
alien_welcome,333,909794,0.0-95.0-1.0,,null,run_exp/static/images/task_images/aliens/old_aliens/planet/alien_planet-9.jpg,null,,,,,,,,,,,,9,"1,22,3,72,47,68,49,30,39,10,65,34,44,60,77,27,21,20,32,4,9,75,24,55,52,26,37,2,56,16,19,58,12,74,25,80,66,59,67,53,38,45,17,76,13,8,71",,,,,,,,,,
land,334,910298,0.0-95.0-2.0,,null,run_exp/static/images/task_images/land.jpg,null,,,,,,99,,,21,,,,,,,,,,,,,,
dig,335,912304,0.0-95.0-3.0,,,,,,,,,,,"[{""stimulus"":""run_exp/static/images/task_images/dig.jpg"",""time"":0.3000001907348633},{""stimulus"":""run_exp/static/images/task_images/land.jpg"",""time"":707.4000000953674},{""stimulus"":""run_exp/static/images/task_images/dig.jpg"",""time"":1342.6000003814697}]",[],21,,,,,,,,,,,,,,
harvest,336,913313,0.0-95.0-4.0,,null,run_exp/static/images/task_images/gems/99.jpg,null,,,,,,81,,,21,,,,,99,0.821759902,0.818181818,,,,,,,
decision,337,913444,0.0-95.0-5.0,,128.0999999,run_exp/static/images/task_images/land.jpg,65,,,,,,81,,,21,,,,,,,,274519,2,0,FALSE,,,
dig,338,916329,0.0-96.0-0.0,,,,,,,,,,,"[{""stimulus"":""run_exp/static/images/task_images/dig.jpg"",""time"":0.5},{""stimulus"":""run_exp/static/images/task_images/land.jpg"",""time"":961},{""stimulus"":""run_exp/static/images/task_images/dig.jpg"",""time"":1921.2000002861023}]",[],21,,,,,,,,,,,,,,
harvest,339,917334,0.0-96.0-1.0,,null,run_exp/static/images/task_images/gems/81.jpg,null,,,,,,69,,,21,,,,,81,0.853316219,0.851851852,,,,,,,
decision,340,917476,0.0-96.0-2.0,,140,run_exp/static/images/task_images/land.jpg,65,,,,,,69,,,21,,,,,,,,278551,2,1,FALSE,,,
dig,341,920354,0.0-97.0-0.0,,,,,,,,,,,"[{""stimulus"":""run_exp/static/images/task_images/dig.jpg"",""time"":0.3000001907348633},{""stimulus"":""run_exp/static/images/task_images/land.jpg"",""time"":958.0999999046326},{""stimulus"":""run_exp/static/images/task_images/dig.jpg"",""time"":1908.8000001907349}]",[],21,,,,,,,,,,,,,,
harvest,342,921362,0.0-97.0-1.0,,null,run_exp/static/images/task_images/gems/69.jpg,null,,,,,,50,,,21,,,,,69,0.723899889,0.724637681,,,,,,,
decision,343,921801,0.0-97.0-2.0,,436.3000002,run_exp/static/images/task_images/land.jpg,65,,,,,,50,,,21,,,,,,,,282875,2,2,FALSE,,,
dig,344,924377,0.0-98.0-0.0,,,,,,,,,,,"[{""stimulus"":""run_exp/static/images/task_images/dig.jpg"",""time"":0.5999999046325684},{""stimulus"":""run_exp/static/images/task_images/land.jpg"",""time"":862.5999999046326},{""stimulus"":""run_exp/static/images/task_images/dig.jpg"",""time"":1714.0999999046326}]",[],21,,,,,,,,,,,,,,
harvest,345,925384,0.0-98.0-1.0,,null,run_exp/static/images/task_images/gems/50.jpg,null,,,,,,44,,,21,,,,,50,0.875027769,0.88,,,,,,,
decision,346,925429,0.0-98.0-2.0,,42.39999962,run_exp/static/images/task_images/land.jpg,65,,,,,,44,,,21,,,,,,,,286503,2,3,FALSE,,,
dig,347,928392,0.0-99.0-0.0,,,,,,,,,,,"[{""stimulus"":""run_exp/static/images/task_images/dig.jpg"",""time"":0.09999990463256836},{""stimulus"":""run_exp/static/images/task_images/land.jpg"",""time"":990.2999997138977},{""stimulus"":""run_exp/static/images/task_images/dig.jpg"",""time"":1976.2999997138977}]",[],21,,,,,,,,,,,,,,
harvest,348,929404,0.0-99.0-1.0,,null,run_exp/static/images/task_images/gems/44.jpg,null,,,,,,34,,,21,,,,,44,0.779227512,0.772727273,,,,,,,
decision,349,929744,0.0-99.0-2.0,,336.5,run_exp/static/images/task_images/land.jpg,76,,,,,,34,,,21,,,,,,,,290818,2,4,TRUE,,,
travel,350,939422,0.0-100.0-0.0,,,,,,,,,,,"[{""stimulus"":""run_exp/static/images/task_images/rocket-01.jpg"",""time"":0.40000009536743164},{""stimulus"":""run_exp/static/images/task_images/rocket-02.jpg"",""time"":1078.6000003814697},{""stimulus"":""run_exp/static/images/task_images/rocket-03.jpg"",""time"":2148},{""stimulus"":""run_exp/static/images/task_images/rocket-04.jpg"",""time"":3228.5},{""stimulus"":""run_exp/static/images/task_images/rocket-05.jpg"",""time"":4298.5},{""stimulus"":""run_exp/static/images/task_images/rocket-06.jpg"",""time"":5367.400000095367},{""stimulus"":""run_exp/static/images/task_images/rocket-07.jpg"",""time"":6448.5},{""stimulus"":""run_exp/static/images/task_images/rocket-08.jpg"",""time"":7516.700000286102},{""stimulus"":""run_exp/static/images/task_images/rocket-09.jpg"",""time"":8589.300000190735}]",[],21,,,,,,,,,,,,,,
alien_welcome,351,944434,0.0-100.0-1.0,,null,run_exp/static/images/task_images/aliens/old_aliens/planet/alien_planet-75.jpg,null,,,,,,,,,,,,75,"1,22,3,72,47,68,49,30,39,10,65,34,44,60,77,27,21,20,32,4,9,75,24,55,52,26,37,2,56,16,19,58,12,74,25,80,66,59,67,53,38,45,17,76,13,8,71",,,,,,,,,,
land,352,944937,0.0-100.0-2.0,,null,run_exp/static/images/task_images/land.jpg,null,,,,,,100,,,22,,,,,,,,,,,,,,
dig,353,946944,0.0-100.0-3.0,,,,,,,,,,,"[{""stimulus"":""run_exp/static/images/task_images/dig.jpg"",""time"":0.40000009536743164},{""stimulus"":""run_exp/static/images/task_images/land.jpg"",""time"":689.3000001907349},{""stimulus"":""run_exp/static/images/task_images/dig.jpg"",""time"":1344.8000001907349}]",[],22,,,,,,,,,,,,,,
harvest,354,947952,0.0-100.0-4.0,,null,run_exp/static/images/task_images/gems/100.jpg,null,,,,,,22,,,22,,,,,100,0.215429162,0.22,,,,,,,
decision,355,948017,0.0-100.0-5.0,,63.20000029,run_exp/static/images/task_images/land.jpg,65,,,,,,22,,,22,,,,,,,,309091,2,0,TRUE,,,
end_of_block_continue,356,956867,0.0-101.0-0.0,,null,run_exp/static/audio/clip_32_block_end.m4a,,,,,,null,,,,,,,,,,,,,,,,,,
alien_welcome,357,961893,0.0-102.0-0.0,,null,run_exp/static/images/task_images/aliens/old_aliens/planet/alien_planet-24.jpg,null,,,,,,,,,,,,24,"1,22,3,72,47,68,49,30,39,10,65,34,44,60,77,27,21,20,32,4,9,75,24,55,52,26,37,2,56,16,19,58,12,74,25,80,66,59,67,53,38,45,17,76,13,8,71",,,,,,,,,,
land,358,962397,0.0-102.0-1.0,,null,run_exp/static/images/task_images/land.jpg,null,,,,,,96,,,23,,,,,,,,,,,,,,
dig,359,964404,0.0-102.0-2.0,,,,,,,,,,,"[{""stimulus"":""run_exp/static/images/task_images/dig.jpg"",""time"":0.5},{""stimulus"":""run_exp/static/images/task_images/land.jpg"",""time"":705.8999996185303},{""stimulus"":""run_exp/static/images/task_images/dig.jpg"",""time"":1345.0999999046326}]",[],23,,,,,,,,,,,,,,
harvest,360,965411,0.0-102.0-3.0,,null,run_exp/static/images/task_images/gems/96.jpg,null,,,,,,46,,,23,,,,,96,0.473961047,0.479166667,,,,,,,
decision,361,965538,0.0-102.0-4.0,,124.9000001,run_exp/static/images/task_images/land.jpg,65,,,,,,46,,,23,,,,,,,,8651,3,0,FALSE,,,
dig,362,968428,0.0-103.0-0.0,,,,,,,,,,,"[{""stimulus"":""run_exp/static/images/task_images/dig.jpg"",""time"":0.3000001907348633},{""stimulus"":""run_exp/static/images/task_images/land.jpg"",""time"":963.3000001907349},{""stimulus"":""run_exp/static/images/task_images/dig.jpg"",""time"":1924.9000000953674}]",[],23,,,,,,,,,,,,,,
harvest,363,969431,0.0-103.0-1.0,,null,run_exp/static/images/task_images/gems/46.jpg,null,,,,,,21,,,23,,,,,46,0.464910878,0.456521739,,,,,,,
decision,364,969737,0.0-103.0-2.0,,303.5999999,run_exp/static/images/task_images/land.jpg,76,,,,,,21,,,23,,,,,,,,12849,3,1,TRUE,,,
travel,365,979441,0.0-104.0-0.0,,,,,,,,,,,"[{""stimulus"":""run_exp/static/images/task_images/rocket-01.jpg"",""time"":0.09999990463256836},{""stimulus"":""run_exp/static/images/task_images/rocket-02.jpg"",""time"":1078.4000000953674},{""stimulus"":""run_exp/static/images/task_images/rocket-03.jpg"",""time"":2162.199999809265},{""stimulus"":""run_exp/static/images/task_images/rocket-04.jpg"",""time"":3235.7999997138977},{""stimulus"":""run_exp/static/images/task_images/rocket-05.jpg"",""time"":4313.799999713898},{""stimulus"":""run_exp/static/images/task_images/rocket-06.jpg"",""time"":5393.199999809265},{""stimulus"":""run_exp/static/images/task_images/rocket-07.jpg"",""time"":6468},{""stimulus"":""run_exp/static/images/task_images/rocket-08.jpg"",""time"":7542.299999713898},{""stimulus"":""run_exp/static/images/task_images/rocket-09.jpg"",""time"":8617.5}]",[],23,,,,,,,,,,,,,,
alien_welcome,366,984450,0.0-104.0-1.0,,null,run_exp/static/images/task_images/aliens/old_aliens/planet/alien_planet-55.jpg,null,,,,,,,,,,,,55,"1,22,3,72,47,68,49,30,39,10,65,34,44,60,77,27,21,20,32,4,9,75,24,55,52,26,37,2,56,16,19,58,12,74,25,80,66,59,67,53,38,45,17,76,13,8,71",,,,,,,,,,
land,367,984954,0.0-104.0-2.0,,null,run_exp/static/images/task_images/land.jpg,null,,,,,,104,,,24,,,,,,,,,,,,,,
dig,368,986959,0.0-104.0-3.0,,,,,,,,,,,"[{""stimulus"":""run_exp/static/images/task_images/dig.jpg"",""time"":0.40000009536743164},{""stimulus"":""run_exp/static/images/task_images/land.jpg"",""time"":673.7000002861023},{""stimulus"":""run_exp/static/images/task_images/dig.jpg"",""time"":1338.0999999046326}]",[],24,,,,,,,,,,,,,,
harvest,369,987964,0.0-104.0-4.0,,null,run_exp/static/images/task_images/gems/104.jpg,null,,,,,,91,,,24,,,,,104,0.871709708,0.875,,,,,,,
decision,370,988200,0.0-104.0-5.0,,234.3000002,run_exp/static/images/task_images/land.jpg,65,,,,,,91,,,24,,,,,,,,31312,3,0,FALSE,,,
dig,371,990977,0.0-105.0-0.0,,,,,,,,,,,"[{""stimulus"":""run_exp/static/images/task_images/dig.jpg"",""time"":0.19999980926513672},{""stimulus"":""run_exp/static/images/task_images/land.jpg"",""time"":925.5},{""stimulus"":""run_exp/static/images/task_images/dig.jpg"",""time"":1845}]",[],24,,,,,,,,,,,,,,
harvest,372,991984,0.0-105.0-1.0,,null,run_exp/static/images/task_images/gems/91.jpg,null,,,,,,75,,,24,,,,,91,0.827877053,0.824175824,,,,,,,
decision,373,992315,0.0-105.0-2.0,,328.4000001,run_exp/static/images/task_images/land.jpg,65,,,,,,75,,,24,,,,,,,,35428,3,1,FALSE,,,
dig,374,995003,0.0-106.0-0.0,,,,,,,,,,,"[{""stimulus"":""run_exp/static/images/task_images/dig.jpg"",""time"":0.3000001907348633},{""stimulus"":""run_exp/static/images/task_images/land.jpg"",""time"":908.2000002861023},{""stimulus"":""run_exp/static/images/task_images/dig.jpg"",""time"":1788.3000001907349}]",[],24,,,,,,,,,,,,,,
harvest,375,996014,0.0-106.0-1.0,,null,run_exp/static/images/task_images/gems/75.jpg,null,,,,,,59,,,24,,,,,75,0.783188229,0.786666667,,,,,,,
decision,376,996428,0.0-106.0-2.0,,410.7999997,run_exp/static/images/task_images/land.jpg,65,,,,,,59,,,24,,,,,,,,39540,3,2,FALSE,,,
dig,377,999034,0.0-107.0-0.0,,,,,,,,,,,"[{""stimulus"":""run_exp/static/images/task_images/dig.jpg"",""time"":0.40000009536743164},{""stimulus"":""run_exp/static/images/task_images/land.jpg"",""time"":864.5999999046326},{""stimulus"":""run_exp/static/images/task_images/dig.jpg"",""time"":1731}]",[],24,,,,,,,,,,,,,,
harvest,378,1000044,0.0-107.0-1.0,,null,run_exp/static/images/task_images/gems/59.jpg,null,,,,,,50,,,24,,,,,59,0.841272283,0.847457627,,,,,,,
decision,379,1001990,0.0-107.0-2.0,,1944.3,run_exp/static/images/task_images/land.jpg,65,,,,,,50,,,24,,,,,,,,45103,3,3,FALSE,,,
dig,380,1003054,0.0-108.0-0.0,,,,,,,,,,,"[{""stimulus"":""run_exp/static/images/task_images/dig.jpg"",""time"":0.40000009536743164},{""stimulus"":""run_exp/static/images/task_images/land.jpg"",""time"":352.59999990463257},{""stimulus"":""run_exp/static/images/task_images/dig.jpg"",""time"":715}]",[],24,,,,,,,,,,,,,,
harvest,381,1004064,0.0-108.0-1.0,,null,run_exp/static/images/task_images/gems/50.jpg,null,,,,,,42,,,24,,,,,50,0.838542466,0.84,,,,,,,
decision,382,1004364,0.0-108.0-2.0,,297.6999998,run_exp/static/images/task_images/land.jpg,76,,,,,,42,,,24,,,,,,,,47476,3,4,TRUE,,,
travel,383,1014078,0.0-109.0-0.0,,,,,,,,,,,"[{""stimulus"":""run_exp/static/images/task_images/rocket-01.jpg"",""time"":0.3000001907348633},{""stimulus"":""run_exp/static/images/task_images/rocket-02.jpg"",""time"":1114},{""stimulus"":""run_exp/static/images/task_images/rocket-03.jpg"",""time"":2159.4000000953674},{""stimulus"":""run_exp/static/images/task_images/rocket-04.jpg"",""time"":3242.1000003814697},{""stimulus"":""run_exp/static/images/task_images/rocket-05.jpg"",""time"":4321.900000095367},{""stimulus"":""run_exp/static/images/task_images/rocket-06.jpg"",""time"":5391.300000190735},{""stimulus"":""run_exp/static/images/task_images/rocket-07.jpg"",""time"":6471.300000190735},{""stimulus"":""run_exp/static/images/task_images/rocket-08.jpg"",""time"":7551.700000286102},{""stimulus"":""run_exp/static/images/task_images/rocket-09.jpg"",""time"":8631.300000190735}]",[],24,,,,,,,,,,,,,,
alien_welcome,384,1019084,0.0-109.0-1.0,,null,run_exp/static/images/task_images/aliens/old_aliens/planet/alien_planet-52.jpg,null,,,,,,,,,,,,52,"1,22,3,72,47,68,49,30,39,10,65,34,44,60,77,27,21,20,32,4,9,75,24,55,52,26,37,2,56,16,19,58,12,74,25,80,66,59,67,53,38,45,17,76,13,8,71",,,,,,,,,,
land,385,1019594,0.0-109.0-2.0,,null,run_exp/static/images/task_images/land.jpg,null,,,,,,101,,,25,,,,,,,,,,,,,,
dig,386,1021601,0.0-109.0-3.0,,,,,,,,,,,"[{""stimulus"":""run_exp/static/images/task_images/dig.jpg"",""time"":0.39999961853027344},{""stimulus"":""run_exp/static/images/task_images/land.jpg"",""time"":718.1999998092651},{""stimulus"":""run_exp/static/images/task_images/dig.jpg"",""time"":1337.5}]",[],25,,,,,,,,,,,,,,
harvest,387,1022610,0.0-109.0-4.0,,null,run_exp/static/images/task_images/gems/101.jpg,null,,,,,,53,,,25,,,,,101,0.523743811,0.524752475,,,,,,,
