trial_type,trial_index,time_elapsed,internal_node_id,interactions,blur_events,focus_events,fullscreenenter_events,fullscreenexit_events,success,rt,stimulus,key_press,prompt,subject_id,participant_id,age,gender,button_pressed,next_reward,animation_sequence,responses,planet,curr_prac_trial,n_prac_rounds,alien,aliens,reward_received,decay_rate_actual,decay_rate_exp,time_in_block,block_num,prt,last_trial_on_planet,button_html,bonus,num_failures
pavlovia,0,20,0.0-0.0,"""event"",""trial"",""time""
""fullscreenenter"",""1"",""4091""
","
","
","""event"",""trial"",""time""
""fullscreenenter"",""1"",""4091""
","
",,,,,,,,,,,,,,,,,,,,,,,,,,,,
fullscreen,1,5068,0.0-1.0,"""event"",""trial"",""time""
""fullscreenenter"",""1"",""4091""
""fullscreenexit"",""2"",""6013""
","
","
","""event"",""trial"",""time""
""fullscreenenter"",""1"",""4091""
","""event"",""trial"",""time""
""fullscreenexit"",""2"",""6013""
",TRUE,,,,,,,,,,,,,,,,,,,,,,,,,,,
instruc_welcome,2,14896,0.0-2.0,"""event"",""trial"",""time""
""fullscreenenter"",""1"",""4091""
""fullscreenexit"",""2"",""6013""
","
","
","""event"",""trial"",""time""
""fullscreenenter"",""1"",""4091""
","""event"",""trial"",""time""
""fullscreenexit"",""2"",""6013""
",,null,run_exp/static/audio/clip_1_welcome.m4a,null,"<p>Howdy! In this experiment, you’ll be an explorer traveling through space to collect space treasure.</p><p>Your mission is to collect as much treasure as possible.</p><br><br><p><img src='run_exp/static/images/task_images/opening_img-01.jpg' height='300' width='auto'></p>",9562,2358,19.19,Male,,,,,,,,,,,,,,,,,,,
audio-keyboard-response,3,31535,0.0-3.0,"""event"",""trial"",""time""
""fullscreenenter"",""1"",""4091""
""fullscreenexit"",""2"",""6013""
","
","
","""event"",""trial"",""time""
""fullscreenenter"",""1"",""4091""
","""event"",""trial"",""time""
""fullscreenexit"",""2"",""6013""
",,null,run_exp/static/audio/clip_2_move.m4a,null,,,,,,,,,,,,,,,,,,,,,,,,
welcome_dec,4,36892,0.0-4.0,"""event"",""trial"",""time""
""fullscreenenter"",""1"",""4091""
""fullscreenexit"",""2"",""6013""
","
","
","""event"",""trial"",""time""
""fullscreenenter"",""1"",""4091""
","""event"",""trial"",""time""
""fullscreenexit"",""2"",""6013""
",,5343,"<p>Howdy! In this experiment, you’ll be an explorer traveling through space to collect space treasure.</p><p>Your mission is to collect as much treasure as possible.</p><br><br><p><img src='run_exp/static/images/task_images/opening_img-01.jpg' height='300' width='auto'></p>",,,,,,,1,,,,,,,,,,,,,,,,,,
html-keyboard-response,5,38751,0.0-5.0,"""event"",""trial"",""time""
""fullscreenenter"",""1"",""4091""
""fullscreenexit"",""2"",""6013""
","
","
","""event"",""trial"",""time""
""fullscreenenter"",""1"",""4091""
","""event"",""trial"",""time""
""fullscreenexit"",""2"",""6013""
",,1852.6,"<p>Howdy! In this experiment, you’ll be an explorer traveling through space to collect space treasure.</p><p>Your mission is to collect as much treasure as possible.</p><br><br><p><img src='run_exp/static/images/task_images/opening_img-01.jpg' height='300' width='auto'></p><button class=""jspsych-html-btn-unchosen""><img src=""run_exp/static/images/task_images/planet-01.jpg"" height=""50""></button><button class=""jspsych-html-btn-chosen""><img src=""run_exp/static/images/task_images/planet-02.jpg"" height=""50""></button><p><b>[press the space bar to lock in your answer]<b><br></p>",32,,,,,,,,,,,,,,,,,,,,,,,,
instruc_goal,6,48856,0.0-6.0-0.0,"""event"",""trial"",""time""
""fullscreenenter"",""1"",""4091""
""fullscreenexit"",""2"",""6013""
","
","
","""event"",""trial"",""time""
""fullscreenenter"",""1"",""4091""
","""event"",""trial"",""time""
""fullscreenexit"",""2"",""6013""
",,null,run_exp/static/audio/clip_3_goal.m4a,null,"<p> As a space explorer, you’ll visit different planets to dig for space treasure, these pink gems.</p> <p> The more treasure you dig up, the more bonus money you’ll win! </p><br><br><p><img src='run_exp/static/images/task_images/pink_gem.jpg' height='300' width='auto'></p>",,,,,,,,,,,,,,,,,,,,,,,
instruc_goal,7,53286,0.0-6.0-1.0,"""event"",""trial"",""time""
""fullscreenenter"",""1"",""4091""
""fullscreenexit"",""2"",""6013""
","
","
","""event"",""trial"",""time""
""fullscreenenter"",""1"",""4091""
","""event"",""trial"",""time""
""fullscreenexit"",""2"",""6013""
",,4419.6,"<p> As a space explorer, you’ll visit different planets to dig for space treasure, these pink gems.</p> <p> The more treasure you dig up, the more bonus money you’ll win! </p><br><br><p><img src='run_exp/static/images/task_images/pink_gem.jpg' height='300' width='auto'></p>",,,,,,,1,,,,,,,,,,,,,,,,,,
html-keyboard-response,8,54677,0.0-6.0-2.0,"""event"",""trial"",""time""
""fullscreenenter"",""1"",""4091""
""fullscreenexit"",""2"",""6013""
","
","
","""event"",""trial"",""time""
""fullscreenenter"",""1"",""4091""
","""event"",""trial"",""time""
""fullscreenexit"",""2"",""6013""
",,1386.7,"<p> As a space explorer, you’ll visit different planets to dig for space treasure, these pink gems.</p> <p> The more treasure you dig up, the more bonus money you’ll win! </p><br><br><p><img src='run_exp/static/images/task_images/pink_gem.jpg' height='300' width='auto'></p><button class=""jspsych-html-btn-unchosen""><img src=""run_exp/static/images/task_images/planet-01.jpg"" height=""50""></button><button class=""jspsych-html-btn-chosen""><img src=""run_exp/static/images/task_images/planet-02.jpg"" height=""50""></button><p><b>[press the space bar to lock in your answer]<b><br></p>",32,,,,,,,,,,,,,,,,,,,,,,,,
instruc_dig,9,70717,0.0-7.0-0.0,"""event"",""trial"",""time""
""fullscreenenter"",""1"",""4091""
""fullscreenexit"",""2"",""6013""
","
","
","""event"",""trial"",""time""
""fullscreenenter"",""1"",""4091""
","""event"",""trial"",""time""
""fullscreenexit"",""2"",""6013""
",,null,run_exp/static/audio/clip_4_dig.m4a,null,,,,,,,100,,,,,,,,,,,,,,,,,
instruc_dig_try,10,72119,0.0-7.0-1.0,"""event"",""trial"",""time""
""fullscreenenter"",""1"",""4091""
""fullscreenexit"",""2"",""6013""
","
","
","""event"",""trial"",""time""
""fullscreenenter"",""1"",""4091""
","""event"",""trial"",""time""
""fullscreenexit"",""2"",""6013""
",,1393.4,"<p> When you’ve arrived at a new planet, you will dig once. </p> <p>Then, you get to decide if you want to stay on the planet and dig again or travel to a new planet and dig there.</p> <p> To stay and dig, press the letter <strong>‘A’</strong> on your keyboard. Try pressing it now! </p><p><img src='run_exp/static/images/task_images/land.jpg'  height='700' width='auto'></p>",65,"<p> When you’ve arrived at a new planet, you will dig once. </p> <p>Then, you get to decide if you want to stay on the planet and dig again or travel to a new planet and dig there.</p> <p> To stay and dig, press the letter <strong>‘A’</strong> on your keyboard. Try pressing it now! </p><p><img src='run_exp/static/images/task_images/land.jpg'  height='700' width='auto'></p>",,,,,,100,,,,,,,,,,,,,,,,,
dig_prac,11,74146,0.0-7.0-2.0,"""event"",""trial"",""time""
""fullscreenenter"",""1"",""4091""
""fullscreenexit"",""2"",""6013""
","
","
","""event"",""trial"",""time""
""fullscreenenter"",""1"",""4091""
","""event"",""trial"",""time""
""fullscreenexit"",""2"",""6013""
",,,,,,,,,,,,"[{""stimulus"":""run_exp/static/images/task_images/dig.jpg"",""time"":0.6999999284744263},{""stimulus"":""run_exp/static/images/task_images/land.jpg"",""time"":669.8999999761581},{""stimulus"":""run_exp/static/images/task_images/dig.jpg"",""time"":1336.1999999284744}]",[],,,,,,,,,,,,,,,
instruc_travel,12,110416,0.0-7.0-3.0,"""event"",""trial"",""time""
""fullscreenenter"",""1"",""4091""
""fullscreenexit"",""2"",""6013""
","
","
","""event"",""trial"",""time""
""fullscreenenter"",""1"",""4091""
","""event"",""trial"",""time""
""fullscreenexit"",""2"",""6013""
",,null,run_exp/static/audio/clip_5_travel.m4a,null,"<p>Every time you dig up gems, there are less gems on the planet, so the more you dig on a planet the fewer gems you’ll get with each dig.</p><p>When gems are running low, you may want to travel to a new planet. </p> <p>  Planets are very far apart in this galaxy, so it will take some time to travel between them. </p> <br><p>There are lots and lots of planets for you to visit, so you won’t be able to return to any planets you’ve seen before. </p><br><p>To leave this planet and travel to a new one, press the letter <strong>‘L’</strong> on your keyboard. Try pressing it now! </p><p><img src='run_exp/static/images/task_images/rocket-01.jpg'  height='600' width='auto'></p>",,,,,,,,,,,,,,,,,,,,,,,
instruc_travel_try,13,112264,0.0-7.0-4.0,"""event"",""trial"",""time""
""fullscreenenter"",""1"",""4091""
""fullscreenexit"",""2"",""6013""
","
","
","""event"",""trial"",""time""
""fullscreenenter"",""1"",""4091""
","""event"",""trial"",""time""
""fullscreenexit"",""2"",""6013""
",,1840.5,"<p>Every time you dig up gems, there are less gems on the planet, so the more you dig on a planet the fewer gems you’ll get with each dig.</p><p>When gems are running low, you may want to travel to a new planet. </p> <p>  Planets are very far apart in this galaxy, so it will take some time to travel between them. </p> <br><p>There are lots and lots of planets for you to visit, so you won’t be able to return to any planets you’ve seen before. </p><br><p>To leave this planet and travel to a new one, press the letter <strong>‘L’</strong> on your keyboard. Try pressing it now! </p><p><img src='run_exp/static/images/task_images/rocket-01.jpg'  height='600' width='auto'></p>",76,"<p>Every time you dig up gems, there are less gems on the planet, so the more you dig on a planet the fewer gems you’ll get with each dig.</p><p>When gems are running low, you may want to travel to a new planet. </p> <p>  Planets are very far apart in this galaxy, so it will take some time to travel between them. </p> <br><p>There are lots and lots of planets for you to visit, so you won’t be able to return to any planets you’ve seen before. </p><br><p>To leave this planet and travel to a new one, press the letter <strong>‘L’</strong> on your keyboard. Try pressing it now! </p><p><img src='run_exp/static/images/task_images/rocket-01.jpg'  height='600' width='auto'></p>",,,,,,,,,,,,,,,,,,,,,,,
travel_prac,14,122273,0.0-7.0-5.0,"""event"",""trial"",""time""
""fullscreenenter"",""1"",""4091""
""fullscreenexit"",""2"",""6013""
","
","
","""event"",""trial"",""time""
""fullscreenenter"",""1"",""4091""
","""event"",""trial"",""time""
""fullscreenexit"",""2"",""6013""
",,,,,,,,,,,,"[{""stimulus"":""run_exp/static/images/task_images/rocket-01.jpg"",""time"":1.2999999523162842},{""stimulus"":""run_exp/static/images/task_images/rocket-02.jpg"",""time"":1114.5},{""stimulus"":""run_exp/static/images/task_images/rocket-03.jpg"",""time"":2226.5},{""stimulus"":""run_exp/static/images/task_images/rocket-04.jpg"",""time"":3337.2000000476837},{""stimulus"":""run_exp/static/images/task_images/rocket-05.jpg"",""time"":4448.799999952316},{""stimulus"":""run_exp/static/images/task_images/rocket-06.jpg"",""time"":5559.100000023842},{""stimulus"":""run_exp/static/images/task_images/rocket-07.jpg"",""time"":6671.5},{""stimulus"":""run_exp/static/images/task_images/rocket-08.jpg"",""time"":7780.399999976158},{""stimulus"":""run_exp/static/images/task_images/rocket-09.jpg"",""time"":8892.700000047684}]",[],0,,,,,,,,,,,,,,
instruc_alien_greet,15,149485,0.0-7.0-6.0,"""event"",""trial"",""time""
""fullscreenenter"",""1"",""4091""
""fullscreenexit"",""2"",""6013""
","
","
","""event"",""trial"",""time""
""fullscreenenter"",""1"",""4091""
","""event"",""trial"",""time""
""fullscreenexit"",""2"",""6013""
",,null,run_exp/static/audio/clip_6_alien.m4a,null,"<p>When you arrive at a new planet, the alien who owns the treasure mine on that planet will greet you!</p><p>The better an alien takes care of their mine the easier it is to dig for gems. Some aliens take better care of their mine than others. So, you won’t get exactly the same amount of gems on each planet.</p><p>What the alien looks like does not tell you anything about how many gems there are on the planet.</p><br><p><img src=""run_exp/static/images/task_images/aliens/instructions_aliens/planet/alien_planet-1.jpg""  height=""600"" width=""auto""></p>",,,,,,,,,,,,,,,,,,,,,,,
instruc_alien_greet,16,156868,0.0-7.0-7.0,"""event"",""trial"",""time""
""fullscreenenter"",""1"",""4091""
""fullscreenexit"",""2"",""6013""
","
","
","""event"",""trial"",""time""
""fullscreenenter"",""1"",""4091""
","""event"",""trial"",""time""
""fullscreenexit"",""2"",""6013""
",,7374.1,"<p>When you arrive at a new planet, the alien who owns the treasure mine on that planet will greet you!</p><p>The better an alien takes care of their mine the easier it is to dig for gems. Some aliens take better care of their mine than others. So, you won’t get exactly the same amount of gems on each planet.</p><p>What the alien looks like does not tell you anything about how many gems there are on the planet.</p><br><p><img src=""run_exp/static/images/task_images/aliens/instructions_aliens/planet/alien_planet-1.jpg""  height=""600"" width=""auto""></p>",,,,,,,1,,,,,,,,,,,,,,,,,,
html-keyboard-response,17,158276,0.0-7.0-8.0,"""event"",""trial"",""time""
""fullscreenenter"",""1"",""4091""
""fullscreenexit"",""2"",""6013""
","
","
","""event"",""trial"",""time""
""fullscreenenter"",""1"",""4091""
","""event"",""trial"",""time""
""fullscreenexit"",""2"",""6013""
",,1399.4,"<p>When you arrive at a new planet, the alien who owns the treasure mine on that planet will greet you!</p><p>The better an alien takes care of their mine the easier it is to dig for gems. Some aliens take better care of their mine than others. So, you won’t get exactly the same amount of gems on each planet.</p><p>What the alien looks like does not tell you anything about how many gems there are on the planet.</p><br><p><img src=""run_exp/static/images/task_images/aliens/instructions_aliens/planet/alien_planet-1.jpg""  height=""600"" width=""auto""></p><button class=""jspsych-html-btn-unchosen""><img src=""run_exp/static/images/task_images/planet-01.jpg"" height=""50""></button><button class=""jspsych-html-btn-chosen""><img src=""run_exp/static/images/task_images/planet-02.jpg"" height=""50""></button><p><b>[press the space bar to lock in your answer]<b><br></p>",32,,,,,,,,,,,,,,,,,,,,,,,,
time_out,18,169405,0.0-8.0-0.0,"""event"",""trial"",""time""
""fullscreenenter"",""1"",""4091""
""fullscreenexit"",""2"",""6013""
","
","
","""event"",""trial"",""time""
""fullscreenenter"",""1"",""4091""
","""event"",""trial"",""time""
""fullscreenexit"",""2"",""6013""
",,null,run_exp/static/audio/clip_7_timeout.m4a,null,"<p>If you don't make your choice fast enough, you’ll have to wait a few seconds before you can make another one.</p><p>You can’t dig for more gems or travel to new planets. You just have to sit and wait.</p><br><p><img src='run_exp/static/images/task_images/time_out.jpg'  height='600' width='auto'></p>",,,,,,,,,,,,,,,,,,,,,,,
time_out,19,173808,0.0-8.0-1.0,"""event"",""trial"",""time""
""fullscreenenter"",""1"",""4091""
""fullscreenexit"",""2"",""6013""
","
","
","""event"",""trial"",""time""
""fullscreenenter"",""1"",""4091""
","""event"",""trial"",""time""
""fullscreenexit"",""2"",""6013""
",,4393.1,"<p>If you don't make your choice fast enough, you’ll have to wait a few seconds before you can make another one.</p><p>You can’t dig for more gems or travel to new planets. You just have to sit and wait.</p><br><p><img src='run_exp/static/images/task_images/time_out.jpg'  height='600' width='auto'></p>",,,,,,,1,,,,,,,,,,,,,,,,,,
html-keyboard-response,20,175213,0.0-8.0-2.0,"""event"",""trial"",""time""
""fullscreenenter"",""1"",""4091""
""fullscreenexit"",""2"",""6013""
","
","
","""event"",""trial"",""time""
""fullscreenenter"",""1"",""4091""
","""event"",""trial"",""time""
""fullscreenexit"",""2"",""6013""
",,1401.3,"<p>If you don't make your choice fast enough, you’ll have to wait a few seconds before you can make another one.</p><p>You can’t dig for more gems or travel to new planets. You just have to sit and wait.</p><br><p><img src='run_exp/static/images/task_images/time_out.jpg'  height='600' width='auto'></p><button class=""jspsych-html-btn-unchosen""><img src=""run_exp/static/images/task_images/planet-01.jpg"" height=""50""></button><button class=""jspsych-html-btn-chosen""><img src=""run_exp/static/images/task_images/planet-02.jpg"" height=""50""></button><p><b>[press the space bar to lock in your answer]<b><br></p>",32,,,,,,,,,,,,,,,,,,,,,,,,
instruc_break,21,190926,0.0-9.0-0.0,"""event"",""trial"",""time""
""fullscreenenter"",""1"",""4091""
""fullscreenexit"",""2"",""6013""
","
","
","""event"",""trial"",""time""
""fullscreenenter"",""1"",""4091""
","""event"",""trial"",""time""
""fullscreenexit"",""2"",""6013""
",,null,run_exp/static/audio/clip_8_break.m4a,null,"<p> After digging and traveling for a while, you’ll be able to take a break at home base. </p><p>The game will last 20 minutes no matter what.</p><p>You will visit home base every 5 minutes, so, you will visit home base three times during the game.</p><br><p><img src='run_exp/static/images/task_images/home_base.jpg' height='600' width='auto'></p>",,,,,,,,,,,,,,,,,,,,,,,
instruc_break,22,196172,0.0-9.0-1.0,"""event"",""trial"",""time""
""fullscreenenter"",""1"",""4091""
""fullscreenexit"",""2"",""6013""
","
","
","""event"",""trial"",""time""
""fullscreenenter"",""1"",""4091""
","""event"",""trial"",""time""
""fullscreenexit"",""2"",""6013""
",,5237.6,"<p> After digging and traveling for a while, you’ll be able to take a break at home base. </p><p>The game will last 20 minutes no matter what.</p><p>You will visit home base every 5 minutes, so, you will visit home base three times during the game.</p><br><p><img src='run_exp/static/images/task_images/home_base.jpg' height='600' width='auto'></p>",,,,,,,1,,,,,,,,,,,,,,,,,,
html-keyboard-response,23,196669,0.0-9.0-2.0,"""event"",""trial"",""time""
""fullscreenenter"",""1"",""4091""
""fullscreenexit"",""2"",""6013""
","
","
","""event"",""trial"",""time""
""fullscreenenter"",""1"",""4091""
","""event"",""trial"",""time""
""fullscreenexit"",""2"",""6013""
",,492.5,"<p> After digging and traveling for a while, you’ll be able to take a break at home base. </p><p>The game will last 20 minutes no matter what.</p><p>You will visit home base every 5 minutes, so, you will visit home base three times during the game.</p><br><p><img src='run_exp/static/images/task_images/home_base.jpg' height='600' width='auto'></p><button class=""jspsych-html-btn-unchosen""><img src=""run_exp/static/images/task_images/planet-01.jpg"" height=""50""></button><button class=""jspsych-html-btn-chosen""><img src=""run_exp/static/images/task_images/planet-02.jpg"" height=""50""></button><p><b>[press the space bar to lock in your answer]<b><br></p>",32,,,,,,,,,,,,,,,,,,,,,,,,
instruc_prac_game,24,206827,0.0-10.0-0.0,"""event"",""trial"",""time""
""fullscreenenter"",""1"",""4091""
""fullscreenexit"",""2"",""6013""
","
","
","""event"",""trial"",""time""
""fullscreenenter"",""1"",""4091""
","""event"",""trial"",""time""
""fullscreenexit"",""2"",""6013""
",,null,run_exp/static/audio/clip_9_practice.m4a,null,"<p> Are you ready to play a practice game? </p> <p>In this practice game, you'll be digging up barrels of gems. But, in the real game, you'll be digging up the gems themselves. </p>",,,,,,,,,,,,,,,,,,,,,,,
html-button-response,25,212388,0.0-10.0-1.0,"""event"",""trial"",""time""
""fullscreenenter"",""1"",""4091""
""fullscreenexit"",""2"",""6013""
","
","
","""event"",""trial"",""time""
""fullscreenenter"",""1"",""4091""
","""event"",""trial"",""time""
""fullscreenexit"",""2"",""6013""
",,5553,"<p> Are you ready to play a practice game? </p> <p>In this practice game, you'll be digging up barrels of gems. But, in the real game, you'll be digging up the gems themselves. </p>",,,,,,,0,,,,,,,,,,,,,,,,,,
alien_welcome_prac,26,217397,0.0-11.0-0.0,"""event"",""trial"",""time""
""fullscreenenter"",""1"",""4091""
""fullscreenexit"",""2"",""6013""
","
","
","""event"",""trial"",""time""
""fullscreenenter"",""1"",""4091""
","""event"",""trial"",""time""
""fullscreenexit"",""2"",""6013""
",,null,run_exp/static/images/task_images/aliens/practice_aliens/planet/alien_planet-5.jpg,null,,,,,,,,,,,,,,,,,,,,,,,,
land_prac,27,217902,0.0-11.0-1.0,"""event"",""trial"",""time""
""fullscreenenter"",""1"",""4091""
""fullscreenexit"",""2"",""6013""
","
","
","""event"",""trial"",""time""
""fullscreenenter"",""1"",""4091""
","""event"",""trial"",""time""
""fullscreenexit"",""2"",""6013""
",,null,run_exp/static/images/task_images/land.jpg,null,,,,,,,97,,,0,,,,,,,,,,,,,,
dig_prac,28,219908,0.0-11.0-2.0,"""event"",""trial"",""time""
""fullscreenenter"",""1"",""4091""
""fullscreenexit"",""2"",""6013""
","
","
","""event"",""trial"",""time""
""fullscreenenter"",""1"",""4091""
","""event"",""trial"",""time""
""fullscreenexit"",""2"",""6013""
",,,,,,,,,,,,"[{""stimulus"":""run_exp/static/images/task_images/dig.jpg"",""time"":0.6000000238418579},{""stimulus"":""run_exp/static/images/task_images/land.jpg"",""time"":671},{""stimulus"":""run_exp/static/images/task_images/dig.jpg"",""time"":1336.8999999761581}]",[],,,,,,,,,,,,,,,
harvest_prac,29,220910,0.0-11.0-3.0,"""event"",""trial"",""time""
""fullscreenenter"",""1"",""4091""
""fullscreenexit"",""2"",""6013""
","
","
","""event"",""trial"",""time""
""fullscreenenter"",""1"",""4091""
","""event"",""trial"",""time""
""fullscreenexit"",""2"",""6013""
",,null,run_exp/static/images/task_images/barrel_text.jpg,null,,,,,,,,,,,,,,,,,,,,,,,,
decision_prac,30,223566,0.0-11.0-4.0,"""event"",""trial"",""time""
""fullscreenenter"",""1"",""4091""
""fullscreenexit"",""2"",""6013""
","
","
","""event"",""trial"",""time""
""fullscreenenter"",""1"",""4091""
","""event"",""trial"",""time""
""fullscreenexit"",""2"",""6013""
",,2652.6,run_exp/static/images/task_images/land.jpg,65,,,,,,,,,,,1,,,,,,,,,,,,,
dig_prac,31,225583,0.0-12.0-0.0,"""event"",""trial"",""time""
""fullscreenenter"",""1"",""4091""
""fullscreenexit"",""2"",""6013""
","
","
","""event"",""trial"",""time""
""fullscreenenter"",""1"",""4091""
","""event"",""trial"",""time""
""fullscreenexit"",""2"",""6013""
",,,,,,,,,,,,"[{""stimulus"":""run_exp/static/images/task_images/dig.jpg"",""time"":0.5},{""stimulus"":""run_exp/static/images/task_images/land.jpg"",""time"":670},{""stimulus"":""run_exp/static/images/task_images/dig.jpg"",""time"":1337}]",[],,,,,,,,,,,,,,,
harvest_prac,32,226588,0.0-12.0-1.0,"""event"",""trial"",""time""
""fullscreenenter"",""1"",""4091""
""fullscreenexit"",""2"",""6013""
","
","
","""event"",""trial"",""time""
""fullscreenenter"",""1"",""4091""
","""event"",""trial"",""time""
""fullscreenexit"",""2"",""6013""
",,null,run_exp/static/images/task_images/barrel_text.jpg,null,,,,,,,,,,,,,,,,,,,,,,,,
decision_prac,33,228765,0.0-12.0-2.0,"""event"",""trial"",""time""
""fullscreenenter"",""1"",""4091""
""fullscreenexit"",""2"",""6013""
","
","
","""event"",""trial"",""time""
""fullscreenenter"",""1"",""4091""
","""event"",""trial"",""time""
""fullscreenexit"",""2"",""6013""
",,2173,run_exp/static/images/task_images/land.jpg,65,,,,,,,,,,,2,,,,,,,,,,,,,
dig_prac,34,230783,0.0-13.0-0.0,"""event"",""trial"",""time""
""fullscreenenter"",""1"",""4091""
""fullscreenexit"",""2"",""6013""
","
","
","""event"",""trial"",""time""
""fullscreenenter"",""1"",""4091""
","""event"",""trial"",""time""
""fullscreenexit"",""2"",""6013""
",,,,,,,,,,,,"[{""stimulus"":""run_exp/static/images/task_images/dig.jpg"",""time"":1.100000023841858},{""stimulus"":""run_exp/static/images/task_images/land.jpg"",""time"":671.5},{""stimulus"":""run_exp/static/images/task_images/dig.jpg"",""time"":1339.8999999761581}]",[],,,,,,,,,,,,,,,
harvest_prac,35,231789,0.0-13.0-1.0,"""event"",""trial"",""time""
""fullscreenenter"",""1"",""4091""
""fullscreenexit"",""2"",""6013""
","
","
","""event"",""trial"",""time""
""fullscreenenter"",""1"",""4091""
","""event"",""trial"",""time""
""fullscreenexit"",""2"",""6013""
",,null,run_exp/static/images/task_images/barrel_text.jpg,null,,,,,,,,,,,,,,,,,,,,,,,,
decision_prac,36,234291,0.0-13.0-2.0,"""event"",""trial"",""time""
""fullscreenenter"",""1"",""4091""
""fullscreenexit"",""2"",""6013""
","
","
","""event"",""trial"",""time""
""fullscreenenter"",""1"",""4091""
","""event"",""trial"",""time""
""fullscreenexit"",""2"",""6013""
",,2498.5,run_exp/static/images/task_images/land.jpg,65,,,,,,,,,,,3,,,,,,,,,,,,,
dig_prac,37,236302,0.0-14.0-0.0,"""event"",""trial"",""time""
""fullscreenenter"",""1"",""4091""
""fullscreenexit"",""2"",""6013""
","
","
","""event"",""trial"",""time""
""fullscreenenter"",""1"",""4091""
","""event"",""trial"",""time""
""fullscreenexit"",""2"",""6013""
",,,,,,,,,,,,"[{""stimulus"":""run_exp/static/images/task_images/dig.jpg"",""time"":0.6000000238418579},{""stimulus"":""run_exp/static/images/task_images/land.jpg"",""time"":671.1000000238419},{""stimulus"":""run_exp/static/images/task_images/dig.jpg"",""time"":1337.6000000238419}]",[],,,,,,,,,,,,,,,
harvest_prac,38,237307,0.0-14.0-1.0,"""event"",""trial"",""time""
""fullscreenenter"",""1"",""4091""
""fullscreenexit"",""2"",""6013""
","
","
","""event"",""trial"",""time""
""fullscreenenter"",""1"",""4091""
","""event"",""trial"",""time""
""fullscreenexit"",""2"",""6013""
",,null,run_exp/static/images/task_images/barrel_text.jpg,null,,,,,,,,,,,,,,,,,,,,,,,,
decision_prac,39,238875,0.0-14.0-2.0,"""event"",""trial"",""time""
""fullscreenenter"",""1"",""4091""
""fullscreenexit"",""2"",""6013""
","
","
","""event"",""trial"",""time""
""fullscreenenter"",""1"",""4091""
","""event"",""trial"",""time""
""fullscreenexit"",""2"",""6013""
",,1563.3,run_exp/static/images/task_images/land.jpg,65,,,,,,,,,,,4,,,,,,,,,,,,,
dig_prac,40,240887,0.0-15.0-0.0,"""event"",""trial"",""time""
""fullscreenenter"",""1"",""4091""
""fullscreenexit"",""2"",""6013""
","
","
","""event"",""trial"",""time""
""fullscreenenter"",""1"",""4091""
","""event"",""trial"",""time""
""fullscreenexit"",""2"",""6013""
",,,,,,,,,,,,"[{""stimulus"":""run_exp/static/images/task_images/dig.jpg"",""time"":0.7999999523162842},{""stimulus"":""run_exp/static/images/task_images/land.jpg"",""time"":671.5},{""stimulus"":""run_exp/static/images/task_images/dig.jpg"",""time"":1338.2999999523163}]",[],,,,,,,,,,,,,,,
harvest_prac,41,241893,0.0-15.0-1.0,"""event"",""trial"",""time""
""fullscreenenter"",""1"",""4091""
""fullscreenexit"",""2"",""6013""
","
","
","""event"",""trial"",""time""
""fullscreenenter"",""1"",""4091""
","""event"",""trial"",""time""
""fullscreenexit"",""2"",""6013""
",,null,run_exp/static/images/task_images/barrel_text.jpg,null,,,,,,,,,,,,,,,,,,,,,,,,
decision_prac,42,242109,0.0-15.0-2.0,"""event"",""trial"",""time""
""fullscreenenter"",""1"",""4091""
""fullscreenexit"",""2"",""6013""
","
","
","""event"",""trial"",""time""
""fullscreenenter"",""1"",""4091""
","""event"",""trial"",""time""
""fullscreenexit"",""2"",""6013""
",,212.6,run_exp/static/images/task_images/land.jpg,76,,,,,,,,,,,,1,,,,,,,,,,,,
quiz_instruc,43,244623,0.0-16.0-0.0,"""event"",""trial"",""time""
""fullscreenenter"",""1"",""4091""
""fullscreenexit"",""2"",""6013""
""blur"",""44"",""283721""
""focus"",""44"",""283854""
","""event"",""trial"",""time""
""blur"",""44"",""283721""
","""event"",""trial"",""time""
""focus"",""44"",""283854""
","""event"",""trial"",""time""
""fullscreenenter"",""1"",""4091""
","""event"",""trial"",""time""
""fullscreenexit"",""2"",""6013""
",,2499.4,run_exp/static/audio/clip_10_quiz.m4a,,,,,,,0,,,,,,,,,,,,,,,,,,
instruc_repeat,44,287413,0.0-16.0-1.0,"""event"",""trial"",""time""
""fullscreenenter"",""1"",""4091""
""fullscreenexit"",""2"",""6013""
""blur"",""44"",""283721""
""focus"",""44"",""283854""
","""event"",""trial"",""time""
""blur"",""44"",""283721""
","""event"",""trial"",""time""
""focus"",""44"",""283854""
","""event"",""trial"",""time""
""fullscreenenter"",""1"",""4091""
","""event"",""trial"",""time""
""fullscreenexit"",""2"",""6013""
",,null,"<p> Are you ready to play a practice game? </p> <p>In this practice game, you'll be digging up barrels of gems. But, in the real game, you'll be digging up the gems themselves. </p>",null,"<p>In this game, your goal is to collect as many gems as you can. That’s how you will win bonus money. </p> <p>The entire game will last 20 minutes no matter how many gems you collect or how many planets you visit. </p><p>To stay on a planet and dig again, press the letter A on your keyboard. To leave for a new planet, press the letter L.</p><p>The more you dig on a planet, the fewer gems you’ll get with each dig which is why you might consider leaving for a new planet. </p><p>When you arrive at a new planet, you’ll be greeted by an alien. What the alien looks like does not tell you anything about how much treasure is on the planet. </p>",,,,,,,,,,,,,,,,,,,,,,,
instruc_repeat_continue,45,293255,0.0-16.0-2.0,"""event"",""trial"",""time""
""fullscreenenter"",""1"",""4091""
""fullscreenexit"",""2"",""6013""
""blur"",""44"",""283721""
""focus"",""44"",""283854""
","""event"",""trial"",""time""
""blur"",""44"",""283721""
","""event"",""trial"",""time""
""focus"",""44"",""283854""
","""event"",""trial"",""time""
""fullscreenenter"",""1"",""4091""
","""event"",""trial"",""time""
""fullscreenexit"",""2"",""6013""
",,5836.3,"<p> Are you ready to play a practice game? </p> <p>In this practice game, you'll be digging up barrels of gems. But, in the real game, you'll be digging up the gems themselves. </p>",,,,,,,0,,,,,,,,,,,,,,,,,,
quiz_q_1_ask,46,300600,0.0-16.0-3.0,"""event"",""trial"",""time""
""fullscreenenter"",""1"",""4091""
""fullscreenexit"",""2"",""6013""
""blur"",""44"",""283721""
""focus"",""44"",""283854""
","""event"",""trial"",""time""
""blur"",""44"",""283721""
","""event"",""trial"",""time""
""focus"",""44"",""283854""
","""event"",""trial"",""time""
""fullscreenenter"",""1"",""4091""
","""event"",""trial"",""time""
""fullscreenexit"",""2"",""6013""
",,7340.6,run_exp/static/audio/clip_11_q1_ask.m4a,,,,,,,2,,,,,,,,,,,,,,,,,,
quiz_q_1_fb_correct,47,304474,0.0-17.0-0.0,"""event"",""trial"",""time""
""fullscreenenter"",""1"",""4091""
""fullscreenexit"",""2"",""6013""
""blur"",""44"",""283721""
""focus"",""44"",""283854""
","""event"",""trial"",""time""
""blur"",""44"",""283721""
","""event"",""trial"",""time""
""focus"",""44"",""283854""
","""event"",""trial"",""time""
""fullscreenenter"",""1"",""4091""
","""event"",""trial"",""time""
""fullscreenexit"",""2"",""6013""
",,null,run_exp/static/audio/clip_12_q1_correct.m4a,null,<p>That’s correct. You win extra money by collecting more gems.</p>,,,,,,,,,,,,,,,,,,,,,,,
quiz_q_2_ask,48,311515,0.0-17.0-1.0,"""event"",""trial"",""time""
""fullscreenenter"",""1"",""4091""
""fullscreenexit"",""2"",""6013""
""blur"",""44"",""283721""
""focus"",""44"",""283854""
","""event"",""trial"",""time""
""blur"",""44"",""283721""
","""event"",""trial"",""time""
""focus"",""44"",""283854""
","""event"",""trial"",""time""
""fullscreenenter"",""1"",""4091""
","""event"",""trial"",""time""
""fullscreenexit"",""2"",""6013""
",,7035.7,run_exp/static/audio/clip_14_q2_ask.m4a,,,,,,,0,,,,,,,,,,,,,,,,,,
quiz_q_2_fb_incorrect,49,315634,0.0-18.0-0.0,"""event"",""trial"",""time""
""fullscreenenter"",""1"",""4091""
""fullscreenexit"",""2"",""6013""
""blur"",""44"",""283721""
""focus"",""44"",""283854""
","""event"",""trial"",""time""
""blur"",""44"",""283721""
","""event"",""trial"",""time""
""focus"",""44"",""283854""
","""event"",""trial"",""time""
""fullscreenenter"",""1"",""4091""
","""event"",""trial"",""time""
""fullscreenexit"",""2"",""6013""
",,null,run_exp/static/audio/clip_16_q2_incorrect.m4a,null,<p>That’s incorrect. The experiment is 20 minutes no matter what.</p>,,,,,,,,,,,,,,,,,,,,,,,
quiz_q_3_ask,50,339986,0.0-18.0-1.0,"""event"",""trial"",""time""
""fullscreenenter"",""1"",""4091""
""fullscreenexit"",""2"",""6013""
""blur"",""44"",""283721""
""focus"",""44"",""283854""
","""event"",""trial"",""time""
""blur"",""44"",""283721""
","""event"",""trial"",""time""
""focus"",""44"",""283854""
","""event"",""trial"",""time""
""fullscreenenter"",""1"",""4091""
","""event"",""trial"",""time""
""fullscreenexit"",""2"",""6013""
",,24344.8,run_exp/static/audio/clip_17_q3_ask.m4a,,,,,,,1,,,,,,,,,,,,,,,,,,
quiz_q_3_fb_correct,51,343955,0.0-19.0-0.0,"""event"",""trial"",""time""
""fullscreenenter"",""1"",""4091""
""fullscreenexit"",""2"",""6013""
""blur"",""44"",""283721""
""focus"",""44"",""283854""
","""event"",""trial"",""time""
""blur"",""44"",""283721""
","""event"",""trial"",""time""
""focus"",""44"",""283854""
","""event"",""trial"",""time""
""fullscreenenter"",""1"",""4091""
","""event"",""trial"",""time""
""fullscreenexit"",""2"",""6013""
",,null,run_exp/static/audio/clip_18_q3_correct.m4a,null,<p> That’s correct. You press the letter L to travel to a new planet.</p>,,,,,,,,,,,,,,,,,,,,,,,
quiz_q_4_ask,52,365168,0.0-19.0-1.0,"""event"",""trial"",""time""
""fullscreenenter"",""1"",""4091""
""fullscreenexit"",""2"",""6013""
""blur"",""44"",""283721""
""focus"",""44"",""283854""
","""event"",""trial"",""time""
""blur"",""44"",""283721""
","""event"",""trial"",""time""
""focus"",""44"",""283854""
","""event"",""trial"",""time""
""fullscreenenter"",""1"",""4091""
","""event"",""trial"",""time""
""fullscreenexit"",""2"",""6013""
",,21210.5,run_exp/static/audio/clip_20_q4_ask.m4a,,,,,,,0,,,,,,,,,,,,,,,,,,
quiz_q_4_fb_correct,53,370484,0.0-20.0-0.0,"""event"",""trial"",""time""
""fullscreenenter"",""1"",""4091""
""fullscreenexit"",""2"",""6013""
""blur"",""44"",""283721""
""focus"",""44"",""283854""
","""event"",""trial"",""time""
""blur"",""44"",""283721""
","""event"",""trial"",""time""
""focus"",""44"",""283854""
","""event"",""trial"",""time""
""fullscreenenter"",""1"",""4091""
","""event"",""trial"",""time""
""fullscreenexit"",""2"",""6013""
",,null,run_exp/static/audio/clip_21_q4_correct.m4a,null,<p> That’s correct. The more you dig on a planet the fewer gems you’ll get with each dig. </p>,,,,,,,,,,,,,,,,,,,,,,,
quiz_q_5_ask,54,388708,0.0-20.0-1.0,"""event"",""trial"",""time""
""fullscreenenter"",""1"",""4091""
""fullscreenexit"",""2"",""6013""
""blur"",""44"",""283721""
""focus"",""44"",""283854""
","""event"",""trial"",""time""
""blur"",""44"",""283721""
","""event"",""trial"",""time""
""focus"",""44"",""283854""
","""event"",""trial"",""time""
""fullscreenenter"",""1"",""4091""
","""event"",""trial"",""time""
""fullscreenexit"",""2"",""6013""
",,18217,run_exp/static/audio/clip_23_q5_ask.m4a,,,,,,,1,,,,,,,,,,,,,,,,,,
quiz_q_5_fb_correct,55,393741,0.0-21.0-0.0,"""event"",""trial"",""time""
""fullscreenenter"",""1"",""4091""
""fullscreenexit"",""2"",""6013""
""blur"",""44"",""283721""
""focus"",""44"",""283854""
","""event"",""trial"",""time""
""blur"",""44"",""283721""
","""event"",""trial"",""time""
""focus"",""44"",""283854""
","""event"",""trial"",""time""
""fullscreenenter"",""1"",""4091""
","""event"",""trial"",""time""
""fullscreenexit"",""2"",""6013""
",,null,run_exp/static/audio/clip_24_q5_correct.m4a,null,<p> That’s correct. The alien tells you nothing about how much treasure is on the planet.</p>,,,,,,,,,,,,,,,,,,,,,,,
quiz_incorrect,56,399305,0.0-22.0-0.0,"""event"",""trial"",""time""
""fullscreenenter"",""1"",""4091""
""fullscreenexit"",""2"",""6013""
""blur"",""44"",""283721""
""focus"",""44"",""283854""
","""event"",""trial"",""time""
""blur"",""44"",""283721""
","""event"",""trial"",""time""
""focus"",""44"",""283854""
","""event"",""trial"",""time""
""fullscreenenter"",""1"",""4091""
","""event"",""trial"",""time""
""fullscreenexit"",""2"",""6013""
",,null,run_exp/static/audio/clip_27_incorrect_quiz.m4a,null,,,,,,,,,,,,,,,,,,,,,,,,
quiz_incorrect_continue,57,404105,0.0-22.0-1.0,"""event"",""trial"",""time""
""fullscreenenter"",""1"",""4091""
""fullscreenexit"",""2"",""6013""
""blur"",""44"",""283721""
""focus"",""44"",""283854""
","""event"",""trial"",""time""
""blur"",""44"",""283721""
","""event"",""trial"",""time""
""focus"",""44"",""283854""
","""event"",""trial"",""time""
""fullscreenenter"",""1"",""4091""
","""event"",""trial"",""time""
""fullscreenexit"",""2"",""6013""
",,4791.8,"<p>Oops, you missed some questions.</p><p>Now that you’ve heard the correct answers. Try the quiz again!</p>",,,,,,,0,,,,,,,,,,,,,,,,,,
quiz_q_1_ask,58,406068,0.0-22.0-2.0,"""event"",""trial"",""time""
""fullscreenenter"",""1"",""4091""
""fullscreenexit"",""2"",""6013""
""blur"",""44"",""283721""
""focus"",""44"",""283854""
","""event"",""trial"",""time""
""blur"",""44"",""283721""
","""event"",""trial"",""time""
""focus"",""44"",""283854""
","""event"",""trial"",""time""
""fullscreenenter"",""1"",""4091""
","""event"",""trial"",""time""
""fullscreenexit"",""2"",""6013""
",,1959.1,run_exp/static/audio/clip_11_q1_ask.m4a,,,,,,,2,,,,,,,,,,,,,,,,,,
quiz_q_1_fb_correct,59,409921,0.0-23.0-0.0,"""event"",""trial"",""time""
""fullscreenenter"",""1"",""4091""
""fullscreenexit"",""2"",""6013""
""blur"",""44"",""283721""
""focus"",""44"",""283854""
","""event"",""trial"",""time""
""blur"",""44"",""283721""
","""event"",""trial"",""time""
""focus"",""44"",""283854""
","""event"",""trial"",""time""
""fullscreenenter"",""1"",""4091""
","""event"",""trial"",""time""
""fullscreenexit"",""2"",""6013""
",,null,run_exp/static/audio/clip_12_q1_correct.m4a,null,<p>That’s correct. You win extra money by collecting more gems.</p>,,,,,,,,,,,,,,,,,,,,,,,
quiz_q_2_ask,60,411768,0.0-23.0-1.0,"""event"",""trial"",""time""
""fullscreenenter"",""1"",""4091""
""fullscreenexit"",""2"",""6013""
""blur"",""44"",""283721""
""focus"",""44"",""283854""
","""event"",""trial"",""time""
""blur"",""44"",""283721""
","""event"",""trial"",""time""
""focus"",""44"",""283854""
","""event"",""trial"",""time""
""fullscreenenter"",""1"",""4091""
","""event"",""trial"",""time""
""fullscreenexit"",""2"",""6013""
",,1844.5,run_exp/static/audio/clip_14_q2_ask.m4a,,,,,,,1,,,,,,,,,,,,,,,,,,
quiz_q_2_fb_correct,61,415804,0.0-24.0-0.0,"""event"",""trial"",""time""
""fullscreenenter"",""1"",""4091""
""fullscreenexit"",""2"",""6013""
""blur"",""44"",""283721""
""focus"",""44"",""283854""
","""event"",""trial"",""time""
""blur"",""44"",""283721""
","""event"",""trial"",""time""
""focus"",""44"",""283854""
","""event"",""trial"",""time""
""fullscreenenter"",""1"",""4091""
","""event"",""trial"",""time""
""fullscreenexit"",""2"",""6013""
",,null,run_exp/static/audio/clip_15_q2_correct.m4a,null,<p>That’s correct. The experiment is 20 minutes no matter what.</p>,,,,,,,,,,,,,,,,,,,,,,,
quiz_q_3_ask,62,422178,0.0-24.0-1.0,"""event"",""trial"",""time""
""fullscreenenter"",""1"",""4091""
""fullscreenexit"",""2"",""6013""
""blur"",""44"",""283721""
""focus"",""44"",""283854""
","""event"",""trial"",""time""
""blur"",""44"",""283721""
","""event"",""trial"",""time""
""focus"",""44"",""283854""
","""event"",""trial"",""time""
""fullscreenenter"",""1"",""4091""
","""event"",""trial"",""time""
""fullscreenexit"",""2"",""6013""
",,6369.1,run_exp/static/audio/clip_17_q3_ask.m4a,,,,,,,1,,,,,,,,,,,,,,,,,,
quiz_q_3_fb_correct,63,426184,0.0-25.0-0.0,"""event"",""trial"",""time""
""fullscreenenter"",""1"",""4091""
""fullscreenexit"",""2"",""6013""
""blur"",""44"",""283721""
""focus"",""44"",""283854""
","""event"",""trial"",""time""
""blur"",""44"",""283721""
","""event"",""trial"",""time""
""focus"",""44"",""283854""
","""event"",""trial"",""time""
""fullscreenenter"",""1"",""4091""
","""event"",""trial"",""time""
""fullscreenexit"",""2"",""6013""
",,null,run_exp/static/audio/clip_18_q3_correct.m4a,null,<p> That’s correct. You press the letter L to travel to a new planet.</p>,,,,,,,,,,,,,,,,,,,,,,,
quiz_q_4_ask,64,445258,0.0-25.0-1.0,"""event"",""trial"",""time""
""fullscreenenter"",""1"",""4091""
""fullscreenexit"",""2"",""6013""
""blur"",""44"",""283721""
""focus"",""44"",""283854""
","""event"",""trial"",""time""
""blur"",""44"",""283721""
","""event"",""trial"",""time""
""focus"",""44"",""283854""
","""event"",""trial"",""time""
""fullscreenenter"",""1"",""4091""
","""event"",""trial"",""time""
""fullscreenexit"",""2"",""6013""
",,19069.3,run_exp/static/audio/clip_20_q4_ask.m4a,,,,,,,0,,,,,,,,,,,,,,,,,,
quiz_q_4_fb_correct,65,450573,0.0-26.0-0.0,"""event"",""trial"",""time""
""fullscreenenter"",""1"",""4091""
""fullscreenexit"",""2"",""6013""
""blur"",""44"",""283721""
""focus"",""44"",""283854""
","""event"",""trial"",""time""
""blur"",""44"",""283721""
","""event"",""trial"",""time""
""focus"",""44"",""283854""
","""event"",""trial"",""time""
""fullscreenenter"",""1"",""4091""
","""event"",""trial"",""time""
""fullscreenexit"",""2"",""6013""
",,null,run_exp/static/audio/clip_21_q4_correct.m4a,null,<p> That’s correct. The more you dig on a planet the fewer gems you’ll get with each dig. </p>,,,,,,,,,,,,,,,,,,,,,,,
quiz_q_5_ask,66,466479,0.0-26.0-1.0,"""event"",""trial"",""time""
""fullscreenenter"",""1"",""4091""
""fullscreenexit"",""2"",""6013""
""blur"",""44"",""283721""
""focus"",""44"",""283854""
","""event"",""trial"",""time""
""blur"",""44"",""283721""
","""event"",""trial"",""time""
""focus"",""44"",""283854""
","""event"",""trial"",""time""
""fullscreenenter"",""1"",""4091""
","""event"",""trial"",""time""
""fullscreenexit"",""2"",""6013""
",,15901.8,run_exp/static/audio/clip_23_q5_ask.m4a,,,,,,,1,,,,,,,,,,,,,,,,,,
quiz_q_5_fb_correct,67,471512,0.0-27.0-0.0,"""event"",""trial"",""time""
""fullscreenenter"",""1"",""4091""
""fullscreenexit"",""2"",""6013""
""blur"",""44"",""283721""
""focus"",""44"",""283854""
","""event"",""trial"",""time""
""blur"",""44"",""283721""
","""event"",""trial"",""time""
""focus"",""44"",""283854""
","""event"",""trial"",""time""
""fullscreenenter"",""1"",""4091""
","""event"",""trial"",""time""
""fullscreenexit"",""2"",""6013""
",,null,run_exp/static/audio/clip_24_q5_correct.m4a,null,<p> That’s correct. The alien tells you nothing about how much treasure is on the planet.</p>,,,,,,,,,,,,,,,,,,,,,,,
quiz_correct,68,475013,0.0-28.0-0.0,"""event"",""trial"",""time""
""fullscreenenter"",""1"",""4091""
""fullscreenexit"",""2"",""6013""
""blur"",""44"",""283721""
""focus"",""44"",""283854""
","""event"",""trial"",""time""
""blur"",""44"",""283721""
","""event"",""trial"",""time""
""focus"",""44"",""283854""
","""event"",""trial"",""time""
""fullscreenenter"",""1"",""4091""
","""event"",""trial"",""time""
""fullscreenexit"",""2"",""6013""
",,null,run_exp/static/audio/clip_26_correct_quiz.m4a,null,,,,,,,,,,,,,,,,,,,,,,,,
quiz_correct_continue,69,486253,0.0-28.0-1.0,"""event"",""trial"",""time""
""fullscreenenter"",""1"",""4091""
""fullscreenexit"",""2"",""6013""
""blur"",""44"",""283721""
""focus"",""44"",""283854""
","""event"",""trial"",""time""
""blur"",""44"",""283721""
","""event"",""trial"",""time""
""focus"",""44"",""283854""
","""event"",""trial"",""time""
""fullscreenenter"",""1"",""4091""
","""event"",""trial"",""time""
""fullscreenexit"",""2"",""6013""
",,11236.4,<p>Good job! You're now ready to move on to the real game!</p>,,,,,,,0,,,,,,,,,,,,,,,,,,
audio-keyboard-response,70,496370,0.0-28.0-2.0,"""event"",""trial"",""time""
""fullscreenenter"",""1"",""4091""
""fullscreenexit"",""2"",""6013""
""blur"",""44"",""283721""
""focus"",""44"",""283854""
","""event"",""trial"",""time""
""blur"",""44"",""283721""
","""event"",""trial"",""time""
""focus"",""44"",""283854""
","""event"",""trial"",""time""
""fullscreenenter"",""1"",""4091""
","""event"",""trial"",""time""
""fullscreenexit"",""2"",""6013""
",,null,run_exp/static/audio/clip_28_real_game.m4a,null,,,,,,,,,,,,,,,,,,,,,,,,
instruc_begin_exp_contine,71,522347,0.0-28.0-3.0,"""event"",""trial"",""time""
""fullscreenenter"",""1"",""4091""
""fullscreenexit"",""2"",""6013""
""blur"",""44"",""283721""
""focus"",""44"",""283854""
","""event"",""trial"",""time""
""blur"",""44"",""283721""
","""event"",""trial"",""time""
""focus"",""44"",""283854""
","""event"",""trial"",""time""
""fullscreenenter"",""1"",""4091""
","""event"",""trial"",""time""
""fullscreenexit"",""2"",""6013""
",,25969.5,"<p>Now that you know how  to dig for space treasure and travel to new planets,you can start exploring! </p><p>Do you want to go over the instructions again or get started with the real game?</p>",,,,,,,1,,,,,,1,,,,,,,,,,,,
alien_welcome,72,527358,0.0-29.0-0.0,"""event"",""trial"",""time""
""fullscreenenter"",""1"",""4091""
""fullscreenexit"",""2"",""6013""
""blur"",""44"",""283721""
""focus"",""44"",""283854""
","""event"",""trial"",""time""
""blur"",""44"",""283721""
","""event"",""trial"",""time""
""focus"",""44"",""283854""
","""event"",""trial"",""time""
""fullscreenenter"",""1"",""4091""
","""event"",""trial"",""time""
""fullscreenexit"",""2"",""6013""
",,null,run_exp/static/images/task_images/aliens/old_aliens/planet/alien_planet-34.jpg,null,,,,,,,,,,,,,34,"34,24,16,72,11,28,37,60,30,15,18,48,19,59,1,49,45,69,26,23,75,61,27,4,9,73,52,35",,,,,,,,,,
land,73,527873,0.0-29.0-1.0,"""event"",""trial"",""time""
""fullscreenenter"",""1"",""4091""
""fullscreenexit"",""2"",""6013""
""blur"",""44"",""283721""
""focus"",""44"",""283854""
","""event"",""trial"",""time""
""blur"",""44"",""283721""
","""event"",""trial"",""time""
""focus"",""44"",""283854""
","""event"",""trial"",""time""
""fullscreenenter"",""1"",""4091""
","""event"",""trial"",""time""
""fullscreenexit"",""2"",""6013""
",,null,run_exp/static/images/task_images/land.jpg,null,,,,,,,98,,,1,,,,,,,,,,,,,,
dig,74,529880,0.0-29.0-2.0,"""event"",""trial"",""time""
""fullscreenenter"",""1"",""4091""
""fullscreenexit"",""2"",""6013""
""blur"",""44"",""283721""
""focus"",""44"",""283854""
","""event"",""trial"",""time""
""blur"",""44"",""283721""
","""event"",""trial"",""time""
""focus"",""44"",""283854""
","""event"",""trial"",""time""
""fullscreenenter"",""1"",""4091""
","""event"",""trial"",""time""
""fullscreenexit"",""2"",""6013""
",,,,,,,,,,,,"[{""stimulus"":""run_exp/static/images/task_images/dig.jpg"",""time"":0.5999999046325684},{""stimulus"":""run_exp/static/images/task_images/land.jpg"",""time"":670.8999999761581},{""stimulus"":""run_exp/static/images/task_images/dig.jpg"",""time"":1336.6999999284744}]",[],1,,,,,,,,,,,,,,
harvest,75,530883,0.0-29.0-3.0,"""event"",""trial"",""time""
""fullscreenenter"",""1"",""4091""
""fullscreenexit"",""2"",""6013""
""blur"",""44"",""283721""
""focus"",""44"",""283854""
","""event"",""trial"",""time""
""blur"",""44"",""283721""
","""event"",""trial"",""time""
""focus"",""44"",""283854""
","""event"",""trial"",""time""
""fullscreenenter"",""1"",""4091""
","""event"",""trial"",""time""
""fullscreenexit"",""2"",""6013""
",,null,run_exp/static/images/task_images/gems/98.jpg,null,,,,,,,17,,,1,,,,,98,0.168979721,0.173469388,,,,,,,
decision,76,533890,0.0-29.0-4.0,"""event"",""trial"",""time""
""fullscreenenter"",""1"",""4091""
""fullscreenexit"",""2"",""6013""
""blur"",""44"",""283721""
""focus"",""44"",""283854""
","""event"",""trial"",""time""
""blur"",""44"",""283721""
","""event"",""trial"",""time""
""focus"",""44"",""283854""
","""event"",""trial"",""time""
""fullscreenenter"",""1"",""4091""
","""event"",""trial"",""time""
""fullscreenexit"",""2"",""6013""
",,null,run_exp/static/images/task_images/land.jpg,null,,,,,,,17,,,1,,,,,,,,11539,1,0,FALSE,,,
time_out,77,535897,0.0-30.0-0.0,"""event"",""trial"",""time""
""fullscreenenter"",""1"",""4091""
""fullscreenexit"",""2"",""6013""
""blur"",""44"",""283721""
""focus"",""44"",""283854""
","""event"",""trial"",""time""
""blur"",""44"",""283721""
","""event"",""trial"",""time""
""focus"",""44"",""283854""
","""event"",""trial"",""time""
""fullscreenenter"",""1"",""4091""
","""event"",""trial"",""time""
""fullscreenexit"",""2"",""6013""
",,null,run_exp/static/images/task_images/time_out.jpg,null,,,,,,,17,,,,,,,,,,,,,,,,,
decision,78,537030,0.0-30.0-1.0,"""event"",""trial"",""time""
""fullscreenenter"",""1"",""4091""
""fullscreenexit"",""2"",""6013""
""blur"",""44"",""283721""
""focus"",""44"",""283854""
","""event"",""trial"",""time""
""blur"",""44"",""283721""
","""event"",""trial"",""time""
""focus"",""44"",""283854""
","""event"",""trial"",""time""
""fullscreenenter"",""1"",""4091""
","""event"",""trial"",""time""
""fullscreenexit"",""2"",""6013""
",,1130.4,run_exp/static/images/task_images/land.jpg,65,,,,,,,17,,,1,,,,,,,,14679,1,0,FALSE,,,
dig,79,538918,0.0-31.0-0.0,"""event"",""trial"",""time""
""fullscreenenter"",""1"",""4091""
""fullscreenexit"",""2"",""6013""
""blur"",""44"",""283721""
""focus"",""44"",""283854""
","""event"",""trial"",""time""
""blur"",""44"",""283721""
","""event"",""trial"",""time""
""focus"",""44"",""283854""
","""event"",""trial"",""time""
""fullscreenenter"",""1"",""4091""
","""event"",""trial"",""time""
""fullscreenexit"",""2"",""6013""
",,,,,,,,,,,,"[{""stimulus"":""run_exp/static/images/task_images/dig.jpg"",""time"":1.399999976158142},{""stimulus"":""run_exp/static/images/task_images/land.jpg"",""time"":628.2999999523163},{""stimulus"":""run_exp/static/images/task_images/dig.jpg"",""time"":1249.7999999523163}]",[],1,,,,,,,,,,,,,,
harvest,80,539920,0.0-31.0-1.0,"""event"",""trial"",""time""
""fullscreenenter"",""1"",""4091""
""fullscreenexit"",""2"",""6013""
""blur"",""44"",""283721""
""focus"",""44"",""283854""
","""event"",""trial"",""time""
""blur"",""44"",""283721""
","""event"",""trial"",""time""
""focus"",""44"",""283854""
","""event"",""trial"",""time""
""fullscreenenter"",""1"",""4091""
","""event"",""trial"",""time""
""fullscreenexit"",""2"",""6013""
",,null,run_exp/static/images/task_images/gems/17.jpg,null,,,,,,,5,,,1,,,,,17,0.277527495,0.294117647,,,,,,,
decision,81,540827,0.0-31.0-2.0,"""event"",""trial"",""time""
""fullscreenenter"",""1"",""4091""
""fullscreenexit"",""2"",""6013""
""blur"",""44"",""283721""
""focus"",""44"",""283854""
","""event"",""trial"",""time""
""blur"",""44"",""283721""
","""event"",""trial"",""time""
""focus"",""44"",""283854""
","""event"",""trial"",""time""
""fullscreenenter"",""1"",""4091""
","""event"",""trial"",""time""
""fullscreenexit"",""2"",""6013""
",,904.7,run_exp/static/images/task_images/land.jpg,65,,,,,,,5,,,1,,,,,,,,18475,1,1,FALSE,,,
dig,82,542931,0.0-32.0-0.0,"""event"",""trial"",""time""
""fullscreenenter"",""1"",""4091""
""fullscreenexit"",""2"",""6013""
""blur"",""44"",""283721""
""focus"",""44"",""283854""
","""event"",""trial"",""time""
""blur"",""44"",""283721""
","""event"",""trial"",""time""
""focus"",""44"",""283854""
","""event"",""trial"",""time""
""fullscreenenter"",""1"",""4091""
","""event"",""trial"",""time""
""fullscreenexit"",""2"",""6013""
",,,,,,,,,,,,"[{""stimulus"":""run_exp/static/images/task_images/dig.jpg"",""time"":0.3999999761581421},{""stimulus"":""run_exp/static/images/task_images/land.jpg"",""time"":700},{""stimulus"":""run_exp/static/images/task_images/dig.jpg"",""time"":1399.1000000238419}]",[],1,,,,,,,,,,,,,,
harvest,83,543937,0.0-32.0-1.0,"""event"",""trial"",""time""
""fullscreenenter"",""1"",""4091""
""fullscreenexit"",""2"",""6013""
""blur"",""44"",""283721""
""focus"",""44"",""283854""
","""event"",""trial"",""time""
""blur"",""44"",""283721""
","""event"",""trial"",""time""
""focus"",""44"",""283854""
","""event"",""trial"",""time""
""fullscreenenter"",""1"",""4091""
","""event"",""trial"",""time""
""fullscreenexit"",""2"",""6013""
",,null,run_exp/static/images/task_images/gems/5.jpg,null,,,,,,,1,,,1,,,,,5,0.203237892,0.2,,,,,,,
decision,84,545261,0.0-32.0-2.0,"""event"",""trial"",""time""
""fullscreenenter"",""1"",""4091""
""fullscreenexit"",""2"",""6013""
""blur"",""44"",""283721""
""focus"",""44"",""283854""
","""event"",""trial"",""time""
""blur"",""44"",""283721""
","""event"",""trial"",""time""
""focus"",""44"",""283854""
","""event"",""trial"",""time""
""fullscreenenter"",""1"",""4091""
","""event"",""trial"",""time""
""fullscreenexit"",""2"",""6013""
",,1319.9,run_exp/static/images/task_images/land.jpg,65,,,,,,,1,,,1,,,,,,,,22909,1,2,FALSE,,,
dig,85,546960,0.0-33.0-0.0,"""event"",""trial"",""time""
""fullscreenenter"",""1"",""4091""
""fullscreenexit"",""2"",""6013""
""blur"",""44"",""283721""
""focus"",""44"",""283854""
","""event"",""trial"",""time""
""blur"",""44"",""283721""
","""event"",""trial"",""time""
""focus"",""44"",""283854""
","""event"",""trial"",""time""
""fullscreenenter"",""1"",""4091""
","""event"",""trial"",""time""
""fullscreenexit"",""2"",""6013""
",,,,,,,,,,,,"[{""stimulus"":""run_exp/static/images/task_images/dig.jpg"",""time"":1.100000023841858},{""stimulus"":""run_exp/static/images/task_images/land.jpg"",""time"":562.7999999523163},{""stimulus"":""run_exp/static/images/task_images/dig.jpg"",""time"":1126.1000000238419}]",[],1,,,,,,,,,,,,,,
harvest,86,547964,0.0-33.0-1.0,"""event"",""trial"",""time""
""fullscreenenter"",""1"",""4091""
""fullscreenexit"",""2"",""6013""
""blur"",""44"",""283721""
""focus"",""44"",""283854""
","""event"",""trial"",""time""
""blur"",""44"",""283721""
","""event"",""trial"",""time""
""focus"",""44"",""283854""
","""event"",""trial"",""time""
""fullscreenenter"",""1"",""4091""
","""event"",""trial"",""time""
""fullscreenexit"",""2"",""6013""
",,null,run_exp/static/images/task_images/gems/1.jpg,null,,,,,,,0,,,1,,,,,1,0.162681697,0,,,,,,,
decision,87,548018,0.0-33.0-2.0,"""event"",""trial"",""time""
""fullscreenenter"",""1"",""4091""
""fullscreenexit"",""2"",""6013""
""blur"",""44"",""283721""
""focus"",""44"",""283854""
","""event"",""trial"",""time""
""blur"",""44"",""283721""
","""event"",""trial"",""time""
""focus"",""44"",""283854""
","""event"",""trial"",""time""
""fullscreenenter"",""1"",""4091""
","""event"",""trial"",""time""
""fullscreenexit"",""2"",""6013""
",,51.89999998,run_exp/static/images/task_images/land.jpg,65,,,,,,,0,,,1,,,,,,,,25667,1,3,FALSE,,,
dig,88,550973,0.0-34.0-0.0,"""event"",""trial"",""time""
""fullscreenenter"",""1"",""4091""
""fullscreenexit"",""2"",""6013""
""blur"",""44"",""283721""
""focus"",""44"",""283854""
","""event"",""trial"",""time""
""blur"",""44"",""283721""
","""event"",""trial"",""time""
""focus"",""44"",""283854""
","""event"",""trial"",""time""
""fullscreenenter"",""1"",""4091""
","""event"",""trial"",""time""
""fullscreenexit"",""2"",""6013""
",,,,,,,,,,,,"[{""stimulus"":""run_exp/static/images/task_images/dig.jpg"",""time"":0.5},{""stimulus"":""run_exp/static/images/task_images/land.jpg"",""time"":985.6999999284744},{""stimulus"":""run_exp/static/images/task_images/dig.jpg"",""time"":1966.2999999523163}]",[],1,,,,,,,,,,,,,,
harvest,89,551980,0.0-34.0-1.0,"""event"",""trial"",""time""
""fullscreenenter"",""1"",""4091""
""fullscreenexit"",""2"",""6013""
""blur"",""44"",""283721""
""focus"",""44"",""283854""
","""event"",""trial"",""time""
""blur"",""44"",""283721""
","""event"",""trial"",""time""
""focus"",""44"",""283854""
","""event"",""trial"",""time""
""fullscreenenter"",""1"",""4091""
","""event"",""trial"",""time""
""fullscreenexit"",""2"",""6013""
",,null,run_exp/static/images/task_images/gems/0.jpg,null,,,,,,,0,,,1,,,,,0,0.150871695,NaN,,,,,,,
decision,90,552075,0.0-34.0-2.0,"""event"",""trial"",""time""
""fullscreenenter"",""1"",""4091""
""fullscreenexit"",""2"",""6013""
""blur"",""44"",""283721""
""focus"",""44"",""283854""
","""event"",""trial"",""time""
""blur"",""44"",""283721""
","""event"",""trial"",""time""
""focus"",""44"",""283854""
","""event"",""trial"",""time""
""fullscreenenter"",""1"",""4091""
","""event"",""trial"",""time""
""fullscreenexit"",""2"",""6013""
",,92.10000002,run_exp/static/images/task_images/land.jpg,65,,,,,,,0,,,1,,,,,,,,29723,1,4,FALSE,,,
dig,91,554990,0.0-35.0-0.0,"""event"",""trial"",""time""
""fullscreenenter"",""1"",""4091""
""fullscreenexit"",""2"",""6013""
""blur"",""44"",""283721""
""focus"",""44"",""283854""
","""event"",""trial"",""time""
""blur"",""44"",""283721""
","""event"",""trial"",""time""
""focus"",""44"",""283854""
","""event"",""trial"",""time""
""fullscreenenter"",""1"",""4091""
","""event"",""trial"",""time""
""fullscreenexit"",""2"",""6013""
",,,,,,,,,,,,"[{""stimulus"":""run_exp/static/images/task_images/dig.jpg"",""time"":0.7000000476837158},{""stimulus"":""run_exp/static/images/task_images/land.jpg"",""time"":973},{""stimulus"":""run_exp/static/images/task_images/dig.jpg"",""time"":1940.7000000476837}]",[],1,,,,,,,,,,,,,,
harvest,92,555994,0.0-35.0-1.0,"""event"",""trial"",""time""
""fullscreenenter"",""1"",""4091""
""fullscreenexit"",""2"",""6013""
""blur"",""44"",""283721""
""focus"",""44"",""283854""
","""event"",""trial"",""time""
""blur"",""44"",""283721""
","""event"",""trial"",""time""
""focus"",""44"",""283854""
","""event"",""trial"",""time""
""fullscreenenter"",""1"",""4091""
","""event"",""trial"",""time""
""fullscreenexit"",""2"",""6013""
",,null,run_exp/static/images/task_images/gems/0.jpg,null,,,,,,,0,,,1,,,,,0,0.188993935,NaN,,,,,,,
decision,93,558564,0.0-35.0-2.0,"""event"",""trial"",""time""
""fullscreenenter"",""1"",""4091""
""fullscreenexit"",""2"",""6013""
""blur"",""44"",""283721""
""focus"",""44"",""283854""
","""event"",""trial"",""time""
""blur"",""44"",""283721""
","""event"",""trial"",""time""
""focus"",""44"",""283854""
","""event"",""trial"",""time""
""fullscreenenter"",""1"",""4091""
","""event"",""trial"",""time""
""fullscreenexit"",""2"",""6013""
",,2567.6,run_exp/static/images/task_images/land.jpg,76,,,,,,,0,,,1,,,,,,,,36212,1,5,TRUE,,,
travel,94,566000,0.0-36.0-0.0,"""event"",""trial"",""time""
""fullscreenenter"",""1"",""4091""
""fullscreenexit"",""2"",""6013""
""blur"",""44"",""283721""
""focus"",""44"",""283854""
","""event"",""trial"",""time""
""blur"",""44"",""283721""
","""event"",""trial"",""time""
""focus"",""44"",""283854""
","""event"",""trial"",""time""
""fullscreenenter"",""1"",""4091""
","""event"",""trial"",""time""
""fullscreenexit"",""2"",""6013""
",,,,,,,,,,,,"[{""stimulus"":""run_exp/static/images/task_images/rocket-01.jpg"",""time"":0.7000000476837158},{""stimulus"":""run_exp/static/images/task_images/rocket-02.jpg"",""time"":828.1000000238419},{""stimulus"":""run_exp/static/images/task_images/rocket-03.jpg"",""time"":1654.5},{""stimulus"":""run_exp/static/images/task_images/rocket-04.jpg"",""time"":2478.9000000953674},{""stimulus"":""run_exp/static/images/task_images/rocket-05.jpg"",""time"":3302.8000000715256},{""stimulus"":""run_exp/static/images/task_images/rocket-06.jpg"",""time"":4129.100000023842},{""stimulus"":""run_exp/static/images/task_images/rocket-07.jpg"",""time"":4953.900000095367},{""stimulus"":""run_exp/static/images/task_images/rocket-08.jpg"",""time"":5778.600000023842},{""stimulus"":""run_exp/static/images/task_images/rocket-09.jpg"",""time"":6603.5}]",[],1,,,,,,,,,,,,,,
alien_welcome,95,571005,0.0-36.0-1.0,"""event"",""trial"",""time""
""fullscreenenter"",""1"",""4091""
""fullscreenexit"",""2"",""6013""
""blur"",""44"",""283721""
""focus"",""44"",""283854""
","""event"",""trial"",""time""
""blur"",""44"",""283721""
","""event"",""trial"",""time""
""focus"",""44"",""283854""
","""event"",""trial"",""time""
""fullscreenenter"",""1"",""4091""
","""event"",""trial"",""time""
""fullscreenexit"",""2"",""6013""
",,null,run_exp/static/images/task_images/aliens/old_aliens/planet/alien_planet-24.jpg,null,,,,,,,,,,,,,24,"34,24,16,72,11,28,37,60,30,15,18,48,19,59,1,49,45,69,26,23,75,61,27,4,9,73,52,35",,,,,,,,,,
land,96,571511,0.0-36.0-2.0,"""event"",""trial"",""time""
""fullscreenenter"",""1"",""4091""
""fullscreenexit"",""2"",""6013""
""blur"",""44"",""283721""
""focus"",""44"",""283854""
","""event"",""trial"",""time""
""blur"",""44"",""283721""
","""event"",""trial"",""time""
""focus"",""44"",""283854""
","""event"",""trial"",""time""
""fullscreenenter"",""1"",""4091""
","""event"",""trial"",""time""
""fullscreenexit"",""2"",""6013""
",,null,run_exp/static/images/task_images/land.jpg,null,,,,,,,99,,,2,,,,,,,,,,,,,,
dig,97,573522,0.0-36.0-3.0,"""event"",""trial"",""time""
""fullscreenenter"",""1"",""4091""
""fullscreenexit"",""2"",""6013""
""blur"",""44"",""283721""
""focus"",""44"",""283854""
","""event"",""trial"",""time""
""blur"",""44"",""283721""
","""event"",""trial"",""time""
""focus"",""44"",""283854""
","""event"",""trial"",""time""
""fullscreenenter"",""1"",""4091""
","""event"",""trial"",""time""
""fullscreenexit"",""2"",""6013""
",,,,,,,,,,,,"[{""stimulus"":""run_exp/static/images/task_images/dig.jpg"",""time"":1.1999999284744263},{""stimulus"":""run_exp/static/images/task_images/land.jpg"",""time"":671.5},{""stimulus"":""run_exp/static/images/task_images/dig.jpg"",""time"":1337.1999999284744}]",[],2,,,,,,,,,,,,,,
harvest,98,574531,0.0-36.0-4.0,"""event"",""trial"",""time""
""fullscreenenter"",""1"",""4091""
""fullscreenexit"",""2"",""6013""
""blur"",""44"",""283721""
""focus"",""44"",""283854""
","""event"",""trial"",""time""
""blur"",""44"",""283721""
","""event"",""trial"",""time""
""focus"",""44"",""283854""
","""event"",""trial"",""time""
""fullscreenenter"",""1"",""4091""
","""event"",""trial"",""time""
""fullscreenexit"",""2"",""6013""
",,null,run_exp/static/images/task_images/gems/99.jpg,null,,,,,,,16,,,2,,,,,99,0.160788141,0.161616162,,,,,,,
decision,99,575531,0.0-36.0-5.0,"""event"",""trial"",""time""
""fullscreenenter"",""1"",""4091""
""fullscreenexit"",""2"",""6013""
""blur"",""44"",""283721""
""focus"",""44"",""283854""
","""event"",""trial"",""time""
""blur"",""44"",""283721""
","""event"",""trial"",""time""
""focus"",""44"",""283854""
","""event"",""trial"",""time""
""fullscreenenter"",""1"",""4091""
","""event"",""trial"",""time""
""fullscreenexit"",""2"",""6013""
",,989.1,run_exp/static/images/task_images/land.jpg,65,,,,,,,16,,,2,,,,,,,,53179,1,0,FALSE,,,
dig,100,577549,0.0-37.0-0.0,"""event"",""trial"",""time""
""fullscreenenter"",""1"",""4091""
""fullscreenexit"",""2"",""6013""
""blur"",""44"",""283721""
""focus"",""44"",""283854""
","""event"",""trial"",""time""
""blur"",""44"",""283721""
","""event"",""trial"",""time""
""focus"",""44"",""283854""
","""event"",""trial"",""time""
""fullscreenenter"",""1"",""4091""
","""event"",""trial"",""time""
""fullscreenexit"",""2"",""6013""
",,,,,,,,,,,,"[{""stimulus"":""run_exp/static/images/task_images/dig.jpg"",""time"":0.5},{""stimulus"":""run_exp/static/images/task_images/land.jpg"",""time"":676.6000000238419},{""stimulus"":""run_exp/static/images/task_images/dig.jpg"",""time"":1343.3999999761581}]",[],2,,,,,,,,,,,,,,
harvest,101,578554,0.0-37.0-1.0,"""event"",""trial"",""time""
""fullscreenenter"",""1"",""4091""
""fullscreenexit"",""2"",""6013""
""blur"",""44"",""283721""
""focus"",""44"",""283854""
","""event"",""trial"",""time""
""blur"",""44"",""283721""
","""event"",""trial"",""time""
""focus"",""44"",""283854""
","""event"",""trial"",""time""
""fullscreenenter"",""1"",""4091""
","""event"",""trial"",""time""
""fullscreenexit"",""2"",""6013""
",,null,run_exp/static/images/task_images/gems/16.jpg,null,,,,,,,3,,,2,,,,,16,0.163517026,0.1875,,,,,,,
decision,102,579803,0.0-37.0-2.0,"""event"",""trial"",""time""
""fullscreenenter"",""1"",""4091""
""fullscreenexit"",""2"",""6013""
""blur"",""44"",""283721""
""focus"",""44"",""283854""
","""event"",""trial"",""time""
""blur"",""44"",""283721""
","""event"",""trial"",""time""
""focus"",""44"",""283854""
","""event"",""trial"",""time""
""fullscreenenter"",""1"",""4091""
","""event"",""trial"",""time""
""fullscreenexit"",""2"",""6013""
",,1246.6,run_exp/static/images/task_images/land.jpg,65,,,,,,,3,,,2,,,,,,,,57452,1,1,FALSE,,,
dig,103,581565,0.0-38.0-0.0,"""event"",""trial"",""time""
""fullscreenenter"",""1"",""4091""
""fullscreenexit"",""2"",""6013""
""blur"",""44"",""283721""
""focus"",""44"",""283854""
","""event"",""trial"",""time""
""blur"",""44"",""283721""
","""event"",""trial"",""time""
""focus"",""44"",""283854""
","""event"",""trial"",""time""
""fullscreenenter"",""1"",""4091""
","""event"",""trial"",""time""
""fullscreenexit"",""2"",""6013""
",,,,,,,,,,,,"[{""stimulus"":""run_exp/static/images/task_images/dig.jpg"",""time"":0.5},{""stimulus"":""run_exp/static/images/task_images/land.jpg"",""time"":598.0999999046326},{""stimulus"":""run_exp/static/images/task_images/dig.jpg"",""time"":1170.7999999523163}]",[],2,,,,,,,,,,,,,,
harvest,104,582571,0.0-38.0-1.0,"""event"",""trial"",""time""
""fullscreenenter"",""1"",""4091""
""fullscreenexit"",""2"",""6013""
""blur"",""44"",""283721""
""focus"",""44"",""283854""
","""event"",""trial"",""time""
""blur"",""44"",""283721""
","""event"",""trial"",""time""
""focus"",""44"",""283854""
","""event"",""trial"",""time""
""fullscreenenter"",""1"",""4091""
","""event"",""trial"",""time""
""fullscreenexit"",""2"",""6013""
",,null,run_exp/static/images/task_images/gems/3.jpg,null,,,,,,,1,,,2,,,,,3,0.242526033,0.333333333,,,,,,,
decision,105,583110,0.0-38.0-2.0,"""event"",""trial"",""time""
""fullscreenenter"",""1"",""4091""
""fullscreenexit"",""2"",""6013""
""blur"",""44"",""283721""
""focus"",""44"",""283854""
","""event"",""trial"",""time""
""blur"",""44"",""283721""
","""event"",""trial"",""time""
""focus"",""44"",""283854""
","""event"",""trial"",""time""
""fullscreenenter"",""1"",""4091""
","""event"",""trial"",""time""
""fullscreenexit"",""2"",""6013""
",,533.3,run_exp/static/images/task_images/land.jpg,65,,,,,,,1,,,2,,,,,,,,60758,1,2,FALSE,,,
dig,106,585595,0.0-39.0-0.0,"""event"",""trial"",""time""
""fullscreenenter"",""1"",""4091""
""fullscreenexit"",""2"",""6013""
""blur"",""44"",""283721""
""focus"",""44"",""283854""
","""event"",""trial"",""time""
""blur"",""44"",""283721""
","""event"",""trial"",""time""
""focus"",""44"",""283854""
","""event"",""trial"",""time""
""fullscreenenter"",""1"",""4091""
","""event"",""trial"",""time""
""fullscreenexit"",""2"",""6013""
",,,,,,,,,,,,"[{""stimulus"":""run_exp/static/images/task_images/dig.jpg"",""time"":1.100000023841858},{""stimulus"":""run_exp/static/images/task_images/land.jpg"",""time"":825.2000000476837},{""stimulus"":""run_exp/static/images/task_images/dig.jpg"",""time"":1648.2000000476837}]",[],2,,,,,,,,,,,,,,
harvest,107,586600,0.0-39.0-1.0,"""event"",""trial"",""time""
""fullscreenenter"",""1"",""4091""
""fullscreenexit"",""2"",""6013""
""blur"",""44"",""283721""
""focus"",""44"",""283854""
","""event"",""trial"",""time""
""blur"",""44"",""283721""
","""event"",""trial"",""time""
""focus"",""44"",""283854""
","""event"",""trial"",""time""
""fullscreenenter"",""1"",""4091""
","""event"",""trial"",""time""
""fullscreenexit"",""2"",""6013""
",,null,run_exp/static/images/task_images/gems/1.jpg,null,,,,,,,0,,,2,,,,,1,0.231417207,0,,,,,,,
decision,108,588573,0.0-39.0-2.0,"""event"",""trial"",""time""
""fullscreenenter"",""1"",""4091""
""fullscreenexit"",""2"",""6013""
""blur"",""44"",""283721""
""focus"",""44"",""283854""
","""event"",""trial"",""time""
""blur"",""44"",""283721""
","""event"",""trial"",""time""
""focus"",""44"",""283854""
","""event"",""trial"",""time""
""fullscreenenter"",""1"",""4091""
","""event"",""trial"",""time""
""fullscreenexit"",""2"",""6013""
",,1969.4,run_exp/static/images/task_images/land.jpg,76,,,,,,,0,,,2,,,,,,,,66221,1,3,TRUE,,,
travel,109,596620,0.0-40.0-0.0,"""event"",""trial"",""time""
""fullscreenenter"",""1"",""4091""
""fullscreenexit"",""2"",""6013""
""blur"",""44"",""283721""
""focus"",""44"",""283854""
","""event"",""trial"",""time""
""blur"",""44"",""283721""
","""event"",""trial"",""time""
""focus"",""44"",""283854""
","""event"",""trial"",""time""
""fullscreenenter"",""1"",""4091""
","""event"",""trial"",""time""
""fullscreenexit"",""2"",""6013""
",,,,,,,,,,,,"[{""stimulus"":""run_exp/static/images/task_images/rocket-01.jpg"",""time"":1.3000000715255737},{""stimulus"":""run_exp/static/images/task_images/rocket-02.jpg"",""time"":895.3000000715256},{""stimulus"":""run_exp/static/images/task_images/rocket-03.jpg"",""time"":1789.2000000476837},{""stimulus"":""run_exp/static/images/task_images/rocket-04.jpg"",""time"":2680.600000023842},{""stimulus"":""run_exp/static/images/task_images/rocket-05.jpg"",""time"":3573.2000000476837},{""stimulus"":""run_exp/static/images/task_images/rocket-06.jpg"",""time"":4465},{""stimulus"":""run_exp/static/images/task_images/rocket-07.jpg"",""time"":5355.5},{""stimulus"":""run_exp/static/images/task_images/rocket-08.jpg"",""time"":6249.700000047684},{""stimulus"":""run_exp/static/images/task_images/rocket-09.jpg"",""time"":7142}]",[],2,,,,,,,,,,,,,,
alien_welcome,110,601627,0.0-40.0-1.0,"""event"",""trial"",""time""
""fullscreenenter"",""1"",""4091""
""fullscreenexit"",""2"",""6013""
""blur"",""44"",""283721""
""focus"",""44"",""283854""
","""event"",""trial"",""time""
""blur"",""44"",""283721""
","""event"",""trial"",""time""
""focus"",""44"",""283854""
","""event"",""trial"",""time""
""fullscreenenter"",""1"",""4091""
","""event"",""trial"",""time""
""fullscreenexit"",""2"",""6013""
",,null,run_exp/static/images/task_images/aliens/old_aliens/planet/alien_planet-16.jpg,null,,,,,,,,,,,,,16,"34,24,16,72,11,28,37,60,30,15,18,48,19,59,1,49,45,69,26,23,75,61,27,4,9,73,52,35",,,,,,,,,,
land,111,602138,0.0-40.0-2.0,"""event"",""trial"",""time""
""fullscreenenter"",""1"",""4091""
""fullscreenexit"",""2"",""6013""
""blur"",""44"",""283721""
""focus"",""44"",""283854""
","""event"",""trial"",""time""
""blur"",""44"",""283721""
","""event"",""trial"",""time""
""focus"",""44"",""283854""
","""event"",""trial"",""time""
""fullscreenenter"",""1"",""4091""
","""event"",""trial"",""time""
""fullscreenexit"",""2"",""6013""
",,null,run_exp/static/images/task_images/land.jpg,null,,,,,,,99,,,3,,,,,,,,,,,,,,
dig,112,604151,0.0-40.0-3.0,"""event"",""trial"",""time""
""fullscreenenter"",""1"",""4091""
""fullscreenexit"",""2"",""6013""
""blur"",""44"",""283721""
""focus"",""44"",""283854""
","""event"",""trial"",""time""
""blur"",""44"",""283721""
","""event"",""trial"",""time""
""focus"",""44"",""283854""
","""event"",""trial"",""time""
""fullscreenenter"",""1"",""4091""
","""event"",""trial"",""time""
""fullscreenexit"",""2"",""6013""
",,,,,,,,,,,,"[{""stimulus"":""run_exp/static/images/task_images/dig.jpg"",""time"":1.2999999523162842},{""stimulus"":""run_exp/static/images/task_images/land.jpg"",""time"":674.5},{""stimulus"":""run_exp/static/images/task_images/dig.jpg"",""time"":1341.6000000238419}]",[],3,,,,,,,,,,,,,,
harvest,113,605160,0.0-40.0-4.0,"""event"",""trial"",""time""
""fullscreenenter"",""1"",""4091""
""fullscreenexit"",""2"",""6013""
""blur"",""44"",""283721""
""focus"",""44"",""283854""
","""event"",""trial"",""time""
""blur"",""44"",""283721""
","""event"",""trial"",""time""
""focus"",""44"",""283854""
","""event"",""trial"",""time""
""fullscreenenter"",""1"",""4091""
","""event"",""trial"",""time""
""fullscreenexit"",""2"",""6013""
",,null,run_exp/static/images/task_images/gems/99.jpg,null,,,,,,,41,,,3,,,,,99,0.414128,0.414141414,,,,,,,
decision,114,605803,0.0-40.0-5.0,"""event"",""trial"",""time""
""fullscreenenter"",""1"",""4091""
""fullscreenexit"",""2"",""6013""
""blur"",""44"",""283721""
""focus"",""44"",""283854""
","""event"",""trial"",""time""
""blur"",""44"",""283721""
","""event"",""trial"",""time""
""focus"",""44"",""283854""
","""event"",""trial"",""time""
""fullscreenenter"",""1"",""4091""
","""event"",""trial"",""time""
""fullscreenexit"",""2"",""6013""
",,633.3,run_exp/static/images/task_images/land.jpg,65,,,,,,,41,,,3,,,,,,,,83451,1,0,FALSE,,,
dig,115,608176,0.0-41.0-0.0,"""event"",""trial"",""time""
""fullscreenenter"",""1"",""4091""
""fullscreenexit"",""2"",""6013""
""blur"",""44"",""283721""
""focus"",""44"",""283854""
","""event"",""trial"",""time""
""blur"",""44"",""283721""
","""event"",""trial"",""time""
""focus"",""44"",""283854""
","""event"",""trial"",""time""
""fullscreenenter"",""1"",""4091""
","""event"",""trial"",""time""
""fullscreenexit"",""2"",""6013""
",,,,,,,,,,,,"[{""stimulus"":""run_exp/static/images/task_images/dig.jpg"",""time"":0.40000009536743164},{""stimulus"":""run_exp/static/images/task_images/land.jpg"",""time"":790.7000000476837},{""stimulus"":""run_exp/static/images/task_images/dig.jpg"",""time"":1580}]",[],3,,,,,,,,,,,,,,
harvest,116,609180,0.0-41.0-1.0,"""event"",""trial"",""time""
""fullscreenenter"",""1"",""4091""
""fullscreenexit"",""2"",""6013""
""blur"",""44"",""283721""
""focus"",""44"",""283854""
","""event"",""trial"",""time""
""blur"",""44"",""283721""
","""event"",""trial"",""time""
""focus"",""44"",""283854""
","""event"",""trial"",""time""
""fullscreenenter"",""1"",""4091""
","""event"",""trial"",""time""
""fullscreenexit"",""2"",""6013""
",,null,run_exp/static/images/task_images/gems/41.jpg,null,,,,,,,18,,,3,,,,,41,0.43194199,0.43902439,,,,,,,
decision,117,609315,0.0-41.0-2.0,"""event"",""trial"",""time""
""fullscreenenter"",""1"",""4091""
""fullscreenexit"",""2"",""6013""
""blur"",""44"",""283721""
""focus"",""44"",""283854""
","""event"",""trial"",""time""
""blur"",""44"",""283721""
","""event"",""trial"",""time""
""focus"",""44"",""283854""
","""event"",""trial"",""time""
""fullscreenenter"",""1"",""4091""
","""event"",""trial"",""time""
""fullscreenexit"",""2"",""6013""
",,132,run_exp/static/images/task_images/land.jpg,65,,,,,,,18,,,3,,,,,,,,86963,1,1,FALSE,,,
dig,118,612192,0.0-42.0-0.0,"""event"",""trial"",""time""
""fullscreenenter"",""1"",""4091""
""fullscreenexit"",""2"",""6013""
""blur"",""44"",""283721""
""focus"",""44"",""283854""
","""event"",""trial"",""time""
""blur"",""44"",""283721""
","""event"",""trial"",""time""
""focus"",""44"",""283854""
","""event"",""trial"",""time""
""fullscreenenter"",""1"",""4091""
","""event"",""trial"",""time""
""fullscreenexit"",""2"",""6013""
",,,,,,,,,,,,"[{""stimulus"":""run_exp/static/images/task_images/dig.jpg"",""time"":0.6000000238418579},{""stimulus"":""run_exp/static/images/task_images/land.jpg"",""time"":959},{""stimulus"":""run_exp/static/images/task_images/dig.jpg"",""time"":1915.5}]",[],3,,,,,,,,,,,,,,
harvest,119,613196,0.0-42.0-1.0,"""event"",""trial"",""time""
""fullscreenenter"",""1"",""4091""
""fullscreenexit"",""2"",""6013""
""blur"",""44"",""283721""
""focus"",""44"",""283854""
","""event"",""trial"",""time""
""blur"",""44"",""283721""
","""event"",""trial"",""time""
""focus"",""44"",""283854""
","""event"",""trial"",""time""
""fullscreenenter"",""1"",""4091""
","""event"",""trial"",""time""
""fullscreenexit"",""2"",""6013""
",,null,run_exp/static/images/task_images/gems/18.jpg,null,,,,,,,8,,,3,,,,,18,0.446320805,0.444444444,,,,,,,
decision,120,614693,0.0-42.0-2.0,"""event"",""trial"",""time""
""fullscreenenter"",""1"",""4091""
""fullscreenexit"",""2"",""6013""
""blur"",""44"",""283721""
""focus"",""44"",""283854""
","""event"",""trial"",""time""
""blur"",""44"",""283721""
","""event"",""trial"",""time""
""focus"",""44"",""283854""
","""event"",""trial"",""time""
""fullscreenenter"",""1"",""4091""
","""event"",""trial"",""time""
""fullscreenexit"",""2"",""6013""
",,1491.6,run_exp/static/images/task_images/land.jpg,65,,,,,,,8,,,3,,,,,,,,92342,1,2,FALSE,,,
dig,121,616222,0.0-43.0-0.0,"""event"",""trial"",""time""
""fullscreenenter"",""1"",""4091""
""fullscreenexit"",""2"",""6013""
""blur"",""44"",""283721""
""focus"",""44"",""283854""
","""event"",""trial"",""time""
""blur"",""44"",""283721""
","""event"",""trial"",""time""
""focus"",""44"",""283854""
","""event"",""trial"",""time""
""fullscreenenter"",""1"",""4091""
","""event"",""trial"",""time""
""fullscreenexit"",""2"",""6013""
",,,,,,,,,,,,"[{""stimulus"":""run_exp/static/images/task_images/dig.jpg"",""time"":1.100000023841858},{""stimulus"":""run_exp/static/images/task_images/land.jpg"",""time"":508.60000002384186},{""stimulus"":""run_exp/static/images/task_images/dig.jpg"",""time"":1008.6000000238419}]",[],3,,,,,,,,,,,,,,
harvest,122,617230,0.0-43.0-1.0,"""event"",""trial"",""time""
""fullscreenenter"",""1"",""4091""
""fullscreenexit"",""2"",""6013""
""blur"",""44"",""283721""
""focus"",""44"",""283854""
","""event"",""trial"",""time""
""blur"",""44"",""283721""
","""event"",""trial"",""time""
""focus"",""44"",""283854""
","""event"",""trial"",""time""
""fullscreenenter"",""1"",""4091""
","""event"",""trial"",""time""
""fullscreenexit"",""2"",""6013""
",,null,run_exp/static/images/task_images/gems/8.jpg,null,,,,,,,4,,,3,,,,,8,0.472225305,0.5,,,,,,,
decision,123,618395,0.0-43.0-2.0,"""event"",""trial"",""time""
""fullscreenenter"",""1"",""4091""
""fullscreenexit"",""2"",""6013""
""blur"",""44"",""283721""
""focus"",""44"",""283854""
","""event"",""trial"",""time""
""blur"",""44"",""283721""
","""event"",""trial"",""time""
""focus"",""44"",""283854""
","""event"",""trial"",""time""
""fullscreenenter"",""1"",""4091""
","""event"",""trial"",""time""
""fullscreenexit"",""2"",""6013""
",,1155.1,run_exp/static/images/task_images/land.jpg,65,,,,,,,4,,,3,,,,,,,,96043,1,3,FALSE,,,
dig,124,620245,0.0-44.0-0.0,"""event"",""trial"",""time""
""fullscreenenter"",""1"",""4091""
""fullscreenexit"",""2"",""6013""
""blur"",""44"",""283721""
""focus"",""44"",""283854""
","""event"",""trial"",""time""
""blur"",""44"",""283721""
","""event"",""trial"",""time""
""focus"",""44"",""283854""
","""event"",""trial"",""time""
""fullscreenenter"",""1"",""4091""
","""event"",""trial"",""time""
""fullscreenexit"",""2"",""6013""
",,,,,,,,,,,,"[{""stimulus"":""run_exp/static/images/task_images/dig.jpg"",""time"":0.40000009536743164},{""stimulus"":""run_exp/static/images/task_images/land.jpg"",""time"":617.2000000476837},{""stimulus"":""run_exp/static/images/task_images/dig.jpg"",""time"":1229.7000000476837}]",[],3,,,,,,,,,,,,,,
harvest,125,621251,0.0-44.0-1.0,"""event"",""trial"",""time""
""fullscreenenter"",""1"",""4091""
""fullscreenexit"",""2"",""6013""
""blur"",""44"",""283721""
""focus"",""44"",""283854""
","""event"",""trial"",""time""
""blur"",""44"",""283721""
","""event"",""trial"",""time""
""focus"",""44"",""283854""
","""event"",""trial"",""time""
""fullscreenenter"",""1"",""4091""
","""event"",""trial"",""time""
""fullscreenexit"",""2"",""6013""
",,null,run_exp/static/images/task_images/gems/4.jpg,null,,,,,,,2,,,3,,,,,4,0.530580253,0.5,,,,,,,
decision,126,621824,0.0-44.0-2.0,"""event"",""trial"",""time""
""fullscreenenter"",""1"",""4091""
""fullscreenexit"",""2"",""6013""
""blur"",""44"",""283721""
""focus"",""44"",""283854""
","""event"",""trial"",""time""
""blur"",""44"",""283721""
","""event"",""trial"",""time""
""focus"",""44"",""283854""
","""event"",""trial"",""time""
""fullscreenenter"",""1"",""4091""
","""event"",""trial"",""time""
""fullscreenexit"",""2"",""6013""
",,567.3,run_exp/static/images/task_images/land.jpg,76,,,,,,,2,,,3,,,,,,,,99472,1,4,TRUE,,,
travel,127,631267,0.0-45.0-0.0,"""event"",""trial"",""time""
""fullscreenenter"",""1"",""4091""
""fullscreenexit"",""2"",""6013""
""blur"",""44"",""283721""
""focus"",""44"",""283854""
","""event"",""trial"",""time""
""blur"",""44"",""283721""
","""event"",""trial"",""time""
""focus"",""44"",""283854""
","""event"",""trial"",""time""
""fullscreenenter"",""1"",""4091""
","""event"",""trial"",""time""
""fullscreenexit"",""2"",""6013""
",,,,,,,,,,,,"[{""stimulus"":""run_exp/static/images/task_images/rocket-01.jpg"",""time"":0.6000000238418579},{""stimulus"":""run_exp/static/images/task_images/rocket-02.jpg"",""time"":1052.6000000238419},{""stimulus"":""run_exp/static/images/task_images/rocket-03.jpg"",""time"":2099.1999999284744},{""stimulus"":""run_exp/static/images/task_images/rocket-04.jpg"",""time"":3147.2999999523163},{""stimulus"":""run_exp/static/images/task_images/rocket-05.jpg"",""time"":4195.100000023842},{""stimulus"":""run_exp/static/images/task_images/rocket-06.jpg"",""time"":5245.299999952316},{""stimulus"":""run_exp/static/images/task_images/rocket-07.jpg"",""time"":6291.100000023842},{""stimulus"":""run_exp/static/images/task_images/rocket-08.jpg"",""time"":7339.799999952316},{""stimulus"":""run_exp/static/images/task_images/rocket-09.jpg"",""time"":8386.899999976158}]",[],3,,,,,,,,,,,,,,
alien_welcome,128,636274,0.0-45.0-1.0,"""event"",""trial"",""time""
""fullscreenenter"",""1"",""4091""
""fullscreenexit"",""2"",""6013""
""blur"",""44"",""283721""
""focus"",""44"",""283854""
","""event"",""trial"",""time""
""blur"",""44"",""283721""
","""event"",""trial"",""time""
""focus"",""44"",""283854""
","""event"",""trial"",""time""
""fullscreenenter"",""1"",""4091""
","""event"",""trial"",""time""
""fullscreenexit"",""2"",""6013""
",,null,run_exp/static/images/task_images/aliens/old_aliens/planet/alien_planet-72.jpg,null,,,,,,,,,,,,,72,"34,24,16,72,11,28,37,60,30,15,18,48,19,59,1,49,45,69,26,23,75,61,27,4,9,73,52,35",,,,,,,,,,
land,129,636779,0.0-45.0-2.0,"""event"",""trial"",""time""
""fullscreenenter"",""1"",""4091""
""fullscreenexit"",""2"",""6013""
""blur"",""44"",""283721""
""focus"",""44"",""283854""
","""event"",""trial"",""time""
""blur"",""44"",""283721""
","""event"",""trial"",""time""
""focus"",""44"",""283854""
","""event"",""trial"",""time""
""fullscreenenter"",""1"",""4091""
","""event"",""trial"",""time""
""fullscreenexit"",""2"",""6013""
",,null,run_exp/static/images/task_images/land.jpg,null,,,,,,,100,,,4,,,,,,,,,,,,,,
dig,130,638786,0.0-45.0-3.0,"""event"",""trial"",""time""
""fullscreenenter"",""1"",""4091""
""fullscreenexit"",""2"",""6013""
""blur"",""44"",""283721""
""focus"",""44"",""283854""
","""event"",""trial"",""time""
""blur"",""44"",""283721""
","""event"",""trial"",""time""
""focus"",""44"",""283854""
","""event"",""trial"",""time""
""fullscreenenter"",""1"",""4091""
","""event"",""trial"",""time""
""fullscreenexit"",""2"",""6013""
",,,,,,,,,,,,"[{""stimulus"":""run_exp/static/images/task_images/dig.jpg"",""time"":0.6000000238418579},{""stimulus"":""run_exp/static/images/task_images/land.jpg"",""time"":671.8000000715256},{""stimulus"":""run_exp/static/images/task_images/dig.jpg"",""time"":1335.8999999761581}]",[],4,,,,,,,,,,,,,,
harvest,131,639792,0.0-45.0-4.0,"""event"",""trial"",""time""
""fullscreenenter"",""1"",""4091""
""fullscreenexit"",""2"",""6013""
""blur"",""44"",""283721""
""focus"",""44"",""283854""
","""event"",""trial"",""time""
""blur"",""44"",""283721""
","""event"",""trial"",""time""
""focus"",""44"",""283854""
","""event"",""trial"",""time""
""fullscreenenter"",""1"",""4091""
","""event"",""trial"",""time""
""fullscreenexit"",""2"",""6013""
",,null,run_exp/static/images/task_images/gems/100.jpg,null,,,,,,,52,,,4,,,,,100,0.516493744,0.52,,,,,,,
decision,132,641987,0.0-45.0-5.0,"""event"",""trial"",""time""
""fullscreenenter"",""1"",""4091""
""fullscreenexit"",""2"",""6013""
""blur"",""44"",""283721""
""focus"",""44"",""283854""
","""event"",""trial"",""time""
""blur"",""44"",""283721""
","""event"",""trial"",""time""
""focus"",""44"",""283854""
","""event"",""trial"",""time""
""fullscreenenter"",""1"",""4091""
","""event"",""trial"",""time""
""fullscreenexit"",""2"",""6013""
",,2186.8,run_exp/static/images/task_images/land.jpg,65,,,,,,,52,,,4,,,,,,,,119635,1,0,FALSE,,,
dig,133,642807,0.0-46.0-0.0,"""event"",""trial"",""time""
""fullscreenenter"",""1"",""4091""
""fullscreenexit"",""2"",""6013""
""blur"",""44"",""283721""
""focus"",""44"",""283854""
","""event"",""trial"",""time""
""blur"",""44"",""283721""
","""event"",""trial"",""time""
""focus"",""44"",""283854""
","""event"",""trial"",""time""
""fullscreenenter"",""1"",""4091""
","""event"",""trial"",""time""
""fullscreenexit"",""2"",""6013""
",,,,,,,,,,,,"[{""stimulus"":""run_exp/static/images/task_images/dig.jpg"",""time"":0.3999999761581421},{""stimulus"":""run_exp/static/images/task_images/land.jpg"",""time"":281.89999997615814},{""stimulus"":""run_exp/static/images/task_images/dig.jpg"",""time"":543.8999999761581}]",[],4,,,,,,,,,,,,,,
harvest,134,643811,0.0-46.0-1.0,"""event"",""trial"",""time""
""fullscreenenter"",""1"",""4091""
""fullscreenexit"",""2"",""6013""
""blur"",""44"",""283721""
""focus"",""44"",""283854""
","""event"",""trial"",""time""
""blur"",""44"",""283721""
","""event"",""trial"",""time""
""focus"",""44"",""283854""
","""event"",""trial"",""time""
""fullscreenenter"",""1"",""4091""
","""event"",""trial"",""time""
""fullscreenexit"",""2"",""6013""
",,null,run_exp/static/images/task_images/gems/52.jpg,null,,,,,,,26,,,4,,,,,52,0.508864943,0.5,,,,,,,
decision,135,645182,0.0-46.0-2.0,"""event"",""trial"",""time""
""fullscreenenter"",""1"",""4091""
""fullscreenexit"",""2"",""6013""
""blur"",""44"",""283721""
""focus"",""44"",""283854""
","""event"",""trial"",""time""
""blur"",""44"",""283721""
","""event"",""trial"",""time""
""focus"",""44"",""283854""
","""event"",""trial"",""time""
""fullscreenenter"",""1"",""4091""
","""event"",""trial"",""time""
""fullscreenexit"",""2"",""6013""
",,1365.6,run_exp/static/images/task_images/land.jpg,65,,,,,,,26,,,4,,,,,,,,122830,1,1,FALSE,,,
dig,136,646833,0.0-47.0-0.0,"""event"",""trial"",""time""
""fullscreenenter"",""1"",""4091""
""fullscreenexit"",""2"",""6013""
""blur"",""44"",""283721""
""focus"",""44"",""283854""
","""event"",""trial"",""time""
""blur"",""44"",""283721""
","""event"",""trial"",""time""
""focus"",""44"",""283854""
","""event"",""trial"",""time""
""fullscreenenter"",""1"",""4091""
","""event"",""trial"",""time""
""fullscreenexit"",""2"",""6013""
",,,,,,,,,,,,"[{""stimulus"":""run_exp/static/images/task_images/dig.jpg"",""time"":1.2000000476837158},{""stimulus"":""run_exp/static/images/task_images/land.jpg"",""time"":548.1000000238419},{""stimulus"":""run_exp/static/images/task_images/dig.jpg"",""time"":1092.5}]",[],4,,,,,,,,,,,,,,
harvest,137,647839,0.0-47.0-1.0,"""event"",""trial"",""time""
""fullscreenenter"",""1"",""4091""
""fullscreenexit"",""2"",""6013""
""blur"",""44"",""283721""
""focus"",""44"",""283854""
","""event"",""trial"",""time""
""blur"",""44"",""283721""
","""event"",""trial"",""time""
""focus"",""44"",""283854""
","""event"",""trial"",""time""
""fullscreenenter"",""1"",""4091""
","""event"",""trial"",""time""
""fullscreenexit"",""2"",""6013""
",,null,run_exp/static/images/task_images/gems/26.jpg,null,,,,,,,14,,,4,,,,,26,0.536896902,0.538461538,,,,,,,
decision,138,648510,0.0-47.0-2.0,"""event"",""trial"",""time""
""fullscreenenter"",""1"",""4091""
""fullscreenexit"",""2"",""6013""
""blur"",""44"",""283721""
""focus"",""44"",""283854""
","""event"",""trial"",""time""
""blur"",""44"",""283721""
","""event"",""trial"",""time""
""focus"",""44"",""283854""
","""event"",""trial"",""time""
""fullscreenenter"",""1"",""4091""
","""event"",""trial"",""time""
""fullscreenexit"",""2"",""6013""
",,666.7,run_exp/static/images/task_images/land.jpg,65,,,,,,,14,,,4,,,,,,,,126159,1,2,FALSE,,,
dig,139,650859,0.0-48.0-0.0,"""event"",""trial"",""time""
""fullscreenenter"",""1"",""4091""
""fullscreenexit"",""2"",""6013""
""blur"",""44"",""283721""
""focus"",""44"",""283854""
","""event"",""trial"",""time""
""blur"",""44"",""283721""
","""event"",""trial"",""time""
""focus"",""44"",""283854""
","""event"",""trial"",""time""
""fullscreenenter"",""1"",""4091""
","""event"",""trial"",""time""
""fullscreenexit"",""2"",""6013""
",,,,,,,,,,,,"[{""stimulus"":""run_exp/static/images/task_images/dig.jpg"",""time"":1},{""stimulus"":""run_exp/static/images/task_images/land.jpg"",""time"":782},{""stimulus"":""run_exp/static/images/task_images/dig.jpg"",""time"":1558.1000000238419}]",[],4,,,,,,,,,,,,,,
harvest,140,651863,0.0-48.0-1.0,"""event"",""trial"",""time""
""fullscreenenter"",""1"",""4091""
""fullscreenexit"",""2"",""6013""
""blur"",""44"",""283721""
""focus"",""44"",""283854""
","""event"",""trial"",""time""
""blur"",""44"",""283721""
","""event"",""trial"",""time""
""focus"",""44"",""283854""
","""event"",""trial"",""time""
""fullscreenenter"",""1"",""4091""
","""event"",""trial"",""time""
""fullscreenexit"",""2"",""6013""
",,null,run_exp/static/images/task_images/gems/14.jpg,null,,,,,,,7,,,4,,,,,14,0.508389247,0.5,,,,,,,
decision,141,652202,0.0-48.0-2.0,"""event"",""trial"",""time""
""fullscreenenter"",""1"",""4091""
""fullscreenexit"",""2"",""6013""
""blur"",""44"",""283721""
""focus"",""44"",""283854""
","""event"",""trial"",""time""
""blur"",""44"",""283721""
","""event"",""trial"",""time""
""focus"",""44"",""283854""
","""event"",""trial"",""time""
""fullscreenenter"",""1"",""4091""
","""event"",""trial"",""time""
""fullscreenexit"",""2"",""6013""
",,336.8,run_exp/static/images/task_images/land.jpg,65,,,,,,,7,,,4,,,,,,,,129850,1,3,FALSE,,,
dig,142,654872,0.0-49.0-0.0,"""event"",""trial"",""time""
""fullscreenenter"",""1"",""4091""
""fullscreenexit"",""2"",""6013""
""blur"",""44"",""283721""
""focus"",""44"",""283854""
","""event"",""trial"",""time""
""blur"",""44"",""283721""
","""event"",""trial"",""time""
""focus"",""44"",""283854""
","""event"",""trial"",""time""
""fullscreenenter"",""1"",""4091""
","""event"",""trial"",""time""
""fullscreenexit"",""2"",""6013""
",,,,,,,,,,,,"[{""stimulus"":""run_exp/static/images/task_images/dig.jpg"",""time"":0.30000007152557373},{""stimulus"":""run_exp/static/images/task_images/land.jpg"",""time"":890},{""stimulus"":""run_exp/static/images/task_images/dig.jpg"",""time"":1777}]",[],4,,,,,,,,,,,,,,
harvest,143,655877,0.0-49.0-1.0,"""event"",""trial"",""time""
""fullscreenenter"",""1"",""4091""
""fullscreenexit"",""2"",""6013""
""blur"",""44"",""283721""
""focus"",""44"",""283854""
","""event"",""trial"",""time""
""blur"",""44"",""283721""
","""event"",""trial"",""time""
""focus"",""44"",""283854""
","""event"",""trial"",""time""
""fullscreenenter"",""1"",""4091""
","""event"",""trial"",""time""
""fullscreenexit"",""2"",""6013""
",,null,run_exp/static/images/task_images/gems/7.jpg,null,,,,,,,3,,,4,,,,,7,0.491282555,0.428571429,,,,,,,
decision,144,657277,0.0-49.0-2.0,"""event"",""trial"",""time""
""fullscreenenter"",""1"",""4091""
""fullscreenexit"",""2"",""6013""
""blur"",""44"",""283721""
""focus"",""44"",""283854""
","""event"",""trial"",""time""
""blur"",""44"",""283721""
","""event"",""trial"",""time""
""focus"",""44"",""283854""
","""event"",""trial"",""time""
""fullscreenenter"",""1"",""4091""
","""event"",""trial"",""time""
""fullscreenexit"",""2"",""6013""
",,1396.8,run_exp/static/images/task_images/land.jpg,76,,,,,,,3,,,4,,,,,,,,134926,1,4,TRUE,,,
travel,145,665902,0.0-50.0-0.0,"""event"",""trial"",""time""
""fullscreenenter"",""1"",""4091""
""fullscreenexit"",""2"",""6013""
""blur"",""44"",""283721""
""focus"",""44"",""283854""
","""event"",""trial"",""time""
""blur"",""44"",""283721""
","""event"",""trial"",""time""
""focus"",""44"",""283854""
","""event"",""trial"",""time""
""fullscreenenter"",""1"",""4091""
","""event"",""trial"",""time""
""fullscreenexit"",""2"",""6013""
",,,,,,,,,,,,"[{""stimulus"":""run_exp/static/images/task_images/rocket-01.jpg"",""time"":1.100000023841858},{""stimulus"":""run_exp/static/images/task_images/rocket-02.jpg"",""time"":959.5},{""stimulus"":""run_exp/static/images/task_images/rocket-03.jpg"",""time"":1915.7000000476837},{""stimulus"":""run_exp/static/images/task_images/rocket-04.jpg"",""time"":2869.2999999523163},{""stimulus"":""run_exp/static/images/task_images/rocket-05.jpg"",""time"":3826},{""stimulus"":""run_exp/static/images/task_images/rocket-06.jpg"",""time"":4777.899999976158},{""stimulus"":""run_exp/static/images/task_images/rocket-07.jpg"",""time"":5733.600000023842},{""stimulus"":""run_exp/static/images/task_images/rocket-08.jpg"",""time"":6689.799999952316},{""stimulus"":""run_exp/static/images/task_images/rocket-09.jpg"",""time"":7644.600000023842}]",[],4,,,,,,,,,,,,,,
alien_welcome,146,670907,0.0-50.0-1.0,"""event"",""trial"",""time""
""fullscreenenter"",""1"",""4091""
""fullscreenexit"",""2"",""6013""
""blur"",""44"",""283721""
""focus"",""44"",""283854""
","""event"",""trial"",""time""
""blur"",""44"",""283721""
","""event"",""trial"",""time""
""focus"",""44"",""283854""
","""event"",""trial"",""time""
""fullscreenenter"",""1"",""4091""
","""event"",""trial"",""time""
""fullscreenexit"",""2"",""6013""
",,null,run_exp/static/images/task_images/aliens/old_aliens/planet/alien_planet-11.jpg,null,,,,,,,,,,,,,11,"34,24,16,72,11,28,37,60,30,15,18,48,19,59,1,49,45,69,26,23,75,61,27,4,9,73,52,35",,,,,,,,,,
land,147,671412,0.0-50.0-2.0,"""event"",""trial"",""time""
""fullscreenenter"",""1"",""4091""
""fullscreenexit"",""2"",""6013""
""blur"",""44"",""283721""
""focus"",""44"",""283854""
","""event"",""trial"",""time""
""blur"",""44"",""283721""
","""event"",""trial"",""time""
""focus"",""44"",""283854""
","""event"",""trial"",""time""
""fullscreenenter"",""1"",""4091""
","""event"",""trial"",""time""
""fullscreenexit"",""2"",""6013""
",,null,run_exp/static/images/task_images/land.jpg,null,,,,,,,102,,,5,,,,,,,,,,,,,,
dig,148,673424,0.0-50.0-3.0,"""event"",""trial"",""time""
""fullscreenenter"",""1"",""4091""
""fullscreenexit"",""2"",""6013""
""blur"",""44"",""283721""
""focus"",""44"",""283854""
","""event"",""trial"",""time""
""blur"",""44"",""283721""
","""event"",""trial"",""time""
""focus"",""44"",""283854""
","""event"",""trial"",""time""
""fullscreenenter"",""1"",""4091""
","""event"",""trial"",""time""
""fullscreenexit"",""2"",""6013""
",,,,,,,,,,,,"[{""stimulus"":""run_exp/static/images/task_images/dig.jpg"",""time"":1.0999999046325684},{""stimulus"":""run_exp/static/images/task_images/land.jpg"",""time"":671.3999999761581},{""stimulus"":""run_exp/static/images/task_images/dig.jpg"",""time"":1337.7999999523163}]",[],5,,,,,,,,,,,,,,
harvest,149,674428,0.0-50.0-4.0,"""event"",""trial"",""time""
""fullscreenenter"",""1"",""4091""
""fullscreenexit"",""2"",""6013""
""blur"",""44"",""283721""
""focus"",""44"",""283854""
","""event"",""trial"",""time""
""blur"",""44"",""283721""
","""event"",""trial"",""time""
""focus"",""44"",""283854""
","""event"",""trial"",""time""
""fullscreenenter"",""1"",""4091""
","""event"",""trial"",""time""
""fullscreenexit"",""2"",""6013""
",,null,run_exp/static/images/task_images/gems/102.jpg,null,,,,,,,47,,,5,,,,,102,0.463390421,0.460784314,,,,,,,
decision,150,675845,0.0-50.0-5.0,"""event"",""trial"",""time""
""fullscreenenter"",""1"",""4091""
""fullscreenexit"",""2"",""6013""
""blur"",""44"",""283721""
""focus"",""44"",""283854""
","""event"",""trial"",""time""
""blur"",""44"",""283721""
","""event"",""trial"",""time""
""focus"",""44"",""283854""
","""event"",""trial"",""time""
""fullscreenenter"",""1"",""4091""
","""event"",""trial"",""time""
""fullscreenexit"",""2"",""6013""
",,1412.6,run_exp/static/images/task_images/land.jpg,65,,,,,,,47,,,5,,,,,,,,153493,1,0,FALSE,,,
dig,151,677449,0.0-51.0-0.0,"""event"",""trial"",""time""
""fullscreenenter"",""1"",""4091""
""fullscreenexit"",""2"",""6013""
""blur"",""44"",""283721""
""focus"",""44"",""283854""
","""event"",""trial"",""time""
""blur"",""44"",""283721""
","""event"",""trial"",""time""
""focus"",""44"",""283854""
","""event"",""trial"",""time""
""fullscreenenter"",""1"",""4091""
","""event"",""trial"",""time""
""fullscreenexit"",""2"",""6013""
",,,,,,,,,,,,"[{""stimulus"":""run_exp/static/images/task_images/dig.jpg"",""time"":0.6000000238418579},{""stimulus"":""run_exp/static/images/task_images/land.jpg"",""time"":533.2000000476837},{""stimulus"":""run_exp/static/images/task_images/dig.jpg"",""time"":1060.6000000238419}]",[],5,,,,,,,,,,,,,,
harvest,152,678459,0.0-51.0-1.0,"""event"",""trial"",""time""
""fullscreenenter"",""1"",""4091""
""fullscreenexit"",""2"",""6013""
""blur"",""44"",""283721""
""focus"",""44"",""283854""
","""event"",""trial"",""time""
""blur"",""44"",""283721""
","""event"",""trial"",""time""
""focus"",""44"",""283854""
","""event"",""trial"",""time""
""fullscreenenter"",""1"",""4091""
","""event"",""trial"",""time""
""fullscreenexit"",""2"",""6013""
",,null,run_exp/static/images/task_images/gems/47.jpg,null,,,,,,,22,,,5,,,,,47,0.463420276,0.468085106,,,,,,,
decision,153,681134,0.0-51.0-2.0,"""event"",""trial"",""time""
""fullscreenenter"",""1"",""4091""
""fullscreenexit"",""2"",""6013""
""blur"",""44"",""283721""
""focus"",""44"",""283854""
","""event"",""trial"",""time""
""blur"",""44"",""283721""
","""event"",""trial"",""time""
""focus"",""44"",""283854""
","""event"",""trial"",""time""
""fullscreenenter"",""1"",""4091""
","""event"",""trial"",""time""
""fullscreenexit"",""2"",""6013""
",,2672.6,run_exp/static/images/task_images/land.jpg,65,,,,,,,22,,,5,,,,,,,,158782,1,1,FALSE,,,
dig,154,681473,0.0-52.0-0.0,"""event"",""trial"",""time""
""fullscreenenter"",""1"",""4091""
""fullscreenexit"",""2"",""6013""
""blur"",""44"",""283721""
""focus"",""44"",""283854""
","""event"",""trial"",""time""
""blur"",""44"",""283721""
","""event"",""trial"",""time""
""focus"",""44"",""283854""
","""event"",""trial"",""time""
""fullscreenenter"",""1"",""4091""
","""event"",""trial"",""time""
""fullscreenexit"",""2"",""6013""
",,,,,,,,,,,,"[{""stimulus"":""run_exp/static/images/task_images/dig.jpg"",""time"":0.5999999046325684},{""stimulus"":""run_exp/static/images/task_images/land.jpg"",""time"":112.79999995231628},{""stimulus"":""run_exp/static/images/task_images/dig.jpg"",""time"":220.19999992847443}]",[],5,,,,,,,,,,,,,,
harvest,155,682476,0.0-52.0-1.0,"""event"",""trial"",""time""
""fullscreenenter"",""1"",""4091""
""fullscreenexit"",""2"",""6013""
""blur"",""44"",""283721""
""focus"",""44"",""283854""
","""event"",""trial"",""time""
""blur"",""44"",""283721""
","""event"",""trial"",""time""
""focus"",""44"",""283854""
","""event"",""trial"",""time""
""fullscreenenter"",""1"",""4091""
","""event"",""trial"",""time""
""fullscreenexit"",""2"",""6013""
",,null,run_exp/static/images/task_images/gems/22.jpg,null,,,,,,,10,,,5,,,,,22,0.456590525,0.454545455,,,,,,,
decision,156,684754,0.0-52.0-2.0,"""event"",""trial"",""time""
""fullscreenenter"",""1"",""4091""
""fullscreenexit"",""2"",""6013""
""blur"",""44"",""283721""
""focus"",""44"",""283854""
","""event"",""trial"",""time""
""blur"",""44"",""283721""
","""event"",""trial"",""time""
""focus"",""44"",""283854""
","""event"",""trial"",""time""
""fullscreenenter"",""1"",""4091""
","""event"",""trial"",""time""
""fullscreenexit"",""2"",""6013""
",,2275.5,run_exp/static/images/task_images/land.jpg,76,,,,,,,10,,,5,,,,,,,,162402,1,2,TRUE,,,
travel,157,692488,0.0-53.0-0.0,"""event"",""trial"",""time""
""fullscreenenter"",""1"",""4091""
""fullscreenexit"",""2"",""6013""
""blur"",""44"",""283721""
""focus"",""44"",""283854""
","""event"",""trial"",""time""
""blur"",""44"",""283721""
","""event"",""trial"",""time""
""focus"",""44"",""283854""
","""event"",""trial"",""time""
""fullscreenenter"",""1"",""4091""
","""event"",""trial"",""time""
""fullscreenexit"",""2"",""6013""
",,,,,,,,,,,,"[{""stimulus"":""run_exp/static/images/task_images/rocket-01.jpg"",""time"":0.3999999761581421},{""stimulus"":""run_exp/static/images/task_images/rocket-02.jpg"",""time"":862},{""stimulus"":""run_exp/static/images/task_images/rocket-03.jpg"",""time"":1718.3999999761581},{""stimulus"":""run_exp/static/images/task_images/rocket-04.jpg"",""time"":2577.1999999284744},{""stimulus"":""run_exp/static/images/task_images/rocket-05.jpg"",""time"":3435.899999976158},{""stimulus"":""run_exp/static/images/task_images/rocket-06.jpg"",""time"":4292.299999952316},{""stimulus"":""run_exp/static/images/task_images/rocket-07.jpg"",""time"":5150.299999952316},{""stimulus"":""run_exp/static/images/task_images/rocket-08.jpg"",""time"":6009.5},{""stimulus"":""run_exp/static/images/task_images/rocket-09.jpg"",""time"":6866.399999976158}]",[],5,,,,,,,,,,,,,,
alien_welcome,158,697493,0.0-53.0-1.0,"""event"",""trial"",""time""
""fullscreenenter"",""1"",""4091""
""fullscreenexit"",""2"",""6013""
""blur"",""44"",""283721""
""focus"",""44"",""283854""
","""event"",""trial"",""time""
""blur"",""44"",""283721""
","""event"",""trial"",""time""
""focus"",""44"",""283854""
","""event"",""trial"",""time""
""fullscreenenter"",""1"",""4091""
","""event"",""trial"",""time""
""fullscreenexit"",""2"",""6013""
",,null,run_exp/static/images/task_images/aliens/old_aliens/planet/alien_planet-28.jpg,null,,,,,,,,,,,,,28,"34,24,16,72,11,28,37,60,30,15,18,48,19,59,1,49,45,69,26,23,75,61,27,4,9,73,52,35",,,,,,,,,,
land,159,697997,0.0-53.0-2.0,"""event"",""trial"",""time""
""fullscreenenter"",""1"",""4091""
""fullscreenexit"",""2"",""6013""
""blur"",""44"",""283721""
""focus"",""44"",""283854""
