trial_type,trial_index,time_elapsed,internal_node_id,interactions,blur_events,focus_events,fullscreenenter_events,fullscreenexit_events,success,rt,stimulus,key_press,prompt,subject_id,participant_id,age,gender,button_pressed,next_reward,animation_sequence,responses,planet,curr_prac_trial,n_prac_rounds,alien,aliens,reward_received,decay_rate_actual,decay_rate_exp,time_in_block,block_num,prt,last_trial_on_planet,button_html,bonus,num_failures
pavlovia,0,12,0.0-0.0,"""event"",""trial"",""time""
""fullscreenenter"",""1"",""13903""
","
","
","""event"",""trial"",""time""
""fullscreenenter"",""1"",""13903""
","
",,,,,,,,,,,,,,,,,,,,,,,,,,,,
fullscreen,1,14864,0.0-1.0,"""event"",""trial"",""time""
""fullscreenenter"",""1"",""13903""
","
","
","""event"",""trial"",""time""
""fullscreenenter"",""1"",""13903""
","
",TRUE,,,,,,,,,,,,,,,,,,,,,,,,,,,
instruc_welcome,2,24704,0.0-2.0,"""event"",""trial"",""time""
""fullscreenenter"",""1"",""13903""
","
","
","""event"",""trial"",""time""
""fullscreenenter"",""1"",""13903""
","
",,null,run_exp/static/audio/clip_1_welcome.m4a,null,"<p>Howdy! In this experiment, you’ll be an explorer traveling through space to collect space treasure.</p><p>Your mission is to collect as much treasure as possible.</p><br><br><p><img src='run_exp/static/images/task_images/opening_img-01.jpg' height='300' width='auto'></p>",9566,1701,19.71,Female,,,,,,,,,,,,,,,,,,,
audio-keyboard-response,3,41281,0.0-3.0,"""event"",""trial"",""time""
""fullscreenenter"",""1"",""13903""
","
","
","""event"",""trial"",""time""
""fullscreenenter"",""1"",""13903""
","
",,null,run_exp/static/audio/clip_2_move.m4a,null,,,,,,,,,,,,,,,,,,,,,,,,
welcome_dec,4,48332,0.0-4.0,"""event"",""trial"",""time""
""fullscreenenter"",""1"",""13903""
","
","
","""event"",""trial"",""time""
""fullscreenenter"",""1"",""13903""
","
",,7045.5,"<p>Howdy! In this experiment, you’ll be an explorer traveling through space to collect space treasure.</p><p>Your mission is to collect as much treasure as possible.</p><br><br><p><img src='run_exp/static/images/task_images/opening_img-01.jpg' height='300' width='auto'></p>",,,,,,,1,,,,,,,,,,,,,,,,,,
html-keyboard-response,5,54081,0.0-5.0,"""event"",""trial"",""time""
""fullscreenenter"",""1"",""13903""
","
","
","""event"",""trial"",""time""
""fullscreenenter"",""1"",""13903""
","
",,5744.9,"<p>Howdy! In this experiment, you’ll be an explorer traveling through space to collect space treasure.</p><p>Your mission is to collect as much treasure as possible.</p><br><br><p><img src='run_exp/static/images/task_images/opening_img-01.jpg' height='300' width='auto'></p><button class=""jspsych-html-btn-unchosen""><img src=""run_exp/static/images/task_images/planet-01.jpg"" height=""50""></button><button class=""jspsych-html-btn-chosen""><img src=""run_exp/static/images/task_images/planet-02.jpg"" height=""50""></button><p><b>[press the space bar to lock in your answer]<b><br></p>",32,,,,,,,,,,,,,,,,,,,,,,,,
instruc_goal,6,64130,0.0-6.0-0.0,"""event"",""trial"",""time""
""fullscreenenter"",""1"",""13903""
","
","
","""event"",""trial"",""time""
""fullscreenenter"",""1"",""13903""
","
",,null,run_exp/static/audio/clip_3_goal.m4a,null,"<p> As a space explorer, you’ll visit different planets to dig for space treasure, these pink gems.</p> <p> The more treasure you dig up, the more bonus money you’ll win! </p><br><br><p><img src='run_exp/static/images/task_images/pink_gem.jpg' height='300' width='auto'></p>",,,,,,,,,,,,,,,,,,,,,,,
instruc_goal,7,85166,0.0-6.0-1.0,"""event"",""trial"",""time""
""fullscreenenter"",""1"",""13903""
","
","
","""event"",""trial"",""time""
""fullscreenenter"",""1"",""13903""
","
",,21030.9,"<p> As a space explorer, you’ll visit different planets to dig for space treasure, these pink gems.</p> <p> The more treasure you dig up, the more bonus money you’ll win! </p><br><br><p><img src='run_exp/static/images/task_images/pink_gem.jpg' height='300' width='auto'></p>",,,,,,,1,,,,,,,,,,,,,,,,,,
html-keyboard-response,8,86723,0.0-6.0-2.0,"""event"",""trial"",""time""
""fullscreenenter"",""1"",""13903""
","
","
","""event"",""trial"",""time""
""fullscreenenter"",""1"",""13903""
","
",,1553.7,"<p> As a space explorer, you’ll visit different planets to dig for space treasure, these pink gems.</p> <p> The more treasure you dig up, the more bonus money you’ll win! </p><br><br><p><img src='run_exp/static/images/task_images/pink_gem.jpg' height='300' width='auto'></p><button class=""jspsych-html-btn-unchosen""><img src=""run_exp/static/images/task_images/planet-01.jpg"" height=""50""></button><button class=""jspsych-html-btn-chosen""><img src=""run_exp/static/images/task_images/planet-02.jpg"" height=""50""></button><p><b>[press the space bar to lock in your answer]<b><br></p>",32,,,,,,,,,,,,,,,,,,,,,,,,
instruc_dig,9,102882,0.0-7.0-0.0,"""event"",""trial"",""time""
""fullscreenenter"",""1"",""13903""
","
","
","""event"",""trial"",""time""
""fullscreenenter"",""1"",""13903""
","
",,null,run_exp/static/audio/clip_4_dig.m4a,null,,,,,,,100,,,,,,,,,,,,,,,,,
instruc_dig_try,10,103908,0.0-7.0-1.0,"""event"",""trial"",""time""
""fullscreenenter"",""1"",""13903""
","
","
","""event"",""trial"",""time""
""fullscreenenter"",""1"",""13903""
","
",,1022.1,"<p> When you’ve arrived at a new planet, you will dig once. </p> <p>Then, you get to decide if you want to stay on the planet and dig again or travel to a new planet and dig there.</p> <p> To stay and dig, press the letter <strong>‘A’</strong> on your keyboard. Try pressing it now! </p><p><img src='run_exp/static/images/task_images/land.jpg'  height='700' width='auto'></p>",65,"<p> When you’ve arrived at a new planet, you will dig once. </p> <p>Then, you get to decide if you want to stay on the planet and dig again or travel to a new planet and dig there.</p> <p> To stay and dig, press the letter <strong>‘A’</strong> on your keyboard. Try pressing it now! </p><p><img src='run_exp/static/images/task_images/land.jpg'  height='700' width='auto'></p>",,,,,,100,,,,,,,,,,,,,,,,,
dig_prac,11,105923,0.0-7.0-2.0,"""event"",""trial"",""time""
""fullscreenenter"",""1"",""13903""
","
","
","""event"",""trial"",""time""
""fullscreenenter"",""1"",""13903""
","
",,,,,,,,,,,,"[{""stimulus"":""run_exp/static/images/task_images/dig.jpg"",""time"":0.5},{""stimulus"":""run_exp/static/images/task_images/land.jpg"",""time"":682.7999999523163},{""stimulus"":""run_exp/static/images/task_images/dig.jpg"",""time"":1338}]",[],,,,,,,,,,,,,,,
instruc_travel,12,142181,0.0-7.0-3.0,"""event"",""trial"",""time""
""fullscreenenter"",""1"",""13903""
","
","
","""event"",""trial"",""time""
""fullscreenenter"",""1"",""13903""
","
",,null,run_exp/static/audio/clip_5_travel.m4a,null,"<p>Every time you dig up gems, there are less gems on the planet, so the more you dig on a planet the fewer gems you’ll get with each dig.</p><p>When gems are running low, you may want to travel to a new planet. </p> <p>  Planets are very far apart in this galaxy, so it will take some time to travel between them. </p> <br><p>There are lots and lots of planets for you to visit, so you won’t be able to return to any planets you’ve seen before. </p><br><p>To leave this planet and travel to a new one, press the letter <strong>‘L’</strong> on your keyboard. Try pressing it now! </p><p><img src='run_exp/static/images/task_images/rocket-01.jpg'  height='600' width='auto'></p>",,,,,,,,,,,,,,,,,,,,,,,
instruc_travel_try,13,143110,0.0-7.0-4.0,"""event"",""trial"",""time""
""fullscreenenter"",""1"",""13903""
","
","
","""event"",""trial"",""time""
""fullscreenenter"",""1"",""13903""
","
",,925,"<p>Every time you dig up gems, there are less gems on the planet, so the more you dig on a planet the fewer gems you’ll get with each dig.</p><p>When gems are running low, you may want to travel to a new planet. </p> <p>  Planets are very far apart in this galaxy, so it will take some time to travel between them. </p> <br><p>There are lots and lots of planets for you to visit, so you won’t be able to return to any planets you’ve seen before. </p><br><p>To leave this planet and travel to a new one, press the letter <strong>‘L’</strong> on your keyboard. Try pressing it now! </p><p><img src='run_exp/static/images/task_images/rocket-01.jpg'  height='600' width='auto'></p>",76,"<p>Every time you dig up gems, there are less gems on the planet, so the more you dig on a planet the fewer gems you’ll get with each dig.</p><p>When gems are running low, you may want to travel to a new planet. </p> <p>  Planets are very far apart in this galaxy, so it will take some time to travel between them. </p> <br><p>There are lots and lots of planets for you to visit, so you won’t be able to return to any planets you’ve seen before. </p><br><p>To leave this planet and travel to a new one, press the letter <strong>‘L’</strong> on your keyboard. Try pressing it now! </p><p><img src='run_exp/static/images/task_images/rocket-01.jpg'  height='600' width='auto'></p>",,,,,,,,,,,,,,,,,,,,,,,
travel_prac,14,153114,0.0-7.0-5.0,"""event"",""trial"",""time""
""fullscreenenter"",""1"",""13903""
","
","
","""event"",""trial"",""time""
""fullscreenenter"",""1"",""13903""
","
",,,,,,,,,,,,"[{""stimulus"":""run_exp/static/images/task_images/rocket-01.jpg"",""time"":0.5},{""stimulus"":""run_exp/static/images/task_images/rocket-02.jpg"",""time"":1116.0999999642372},{""stimulus"":""run_exp/static/images/task_images/rocket-03.jpg"",""time"":2227.599999964237},{""stimulus"":""run_exp/static/images/task_images/rocket-04.jpg"",""time"":3341.5},{""stimulus"":""run_exp/static/images/task_images/rocket-05.jpg"",""time"":4448.299999952316},{""stimulus"":""run_exp/static/images/task_images/rocket-06.jpg"",""time"":5557.799999952316},{""stimulus"":""run_exp/static/images/task_images/rocket-07.jpg"",""time"":6672.699999988079},{""stimulus"":""run_exp/static/images/task_images/rocket-08.jpg"",""time"":7781.699999988079},{""stimulus"":""run_exp/static/images/task_images/rocket-09.jpg"",""time"":8898.199999988079}]",[],0,,,,,,,,,,,,,,
instruc_alien_greet,15,180309,0.0-7.0-6.0,"""event"",""trial"",""time""
""fullscreenenter"",""1"",""13903""
","
","
","""event"",""trial"",""time""
""fullscreenenter"",""1"",""13903""
","
",,null,run_exp/static/audio/clip_6_alien.m4a,null,"<p>When you arrive at a new planet, the alien who owns the treasure mine on that planet will greet you!</p><p>The better an alien takes care of their mine the easier it is to dig for gems. Some aliens take better care of their mine than others. So, you won’t get exactly the same amount of gems on each planet.</p><p>What the alien looks like does not tell you anything about how many gems there are on the planet.</p><br><p><img src=""run_exp/static/images/task_images/aliens/instructions_aliens/planet/alien_planet-1.jpg""  height=""600"" width=""auto""></p>",,,,,,,,,,,,,,,,,,,,,,,
instruc_alien_greet,16,183356,0.0-7.0-7.0,"""event"",""trial"",""time""
""fullscreenenter"",""1"",""13903""
","
","
","""event"",""trial"",""time""
""fullscreenenter"",""1"",""13903""
","
",,3044.9,"<p>When you arrive at a new planet, the alien who owns the treasure mine on that planet will greet you!</p><p>The better an alien takes care of their mine the easier it is to dig for gems. Some aliens take better care of their mine than others. So, you won’t get exactly the same amount of gems on each planet.</p><p>What the alien looks like does not tell you anything about how many gems there are on the planet.</p><br><p><img src=""run_exp/static/images/task_images/aliens/instructions_aliens/planet/alien_planet-1.jpg""  height=""600"" width=""auto""></p>",,,,,,,1,,,,,,,,,,,,,,,,,,
html-keyboard-response,17,185580,0.0-7.0-8.0,"""event"",""trial"",""time""
""fullscreenenter"",""1"",""13903""
","
","
","""event"",""trial"",""time""
""fullscreenenter"",""1"",""13903""
","
",,2222.5,"<p>When you arrive at a new planet, the alien who owns the treasure mine on that planet will greet you!</p><p>The better an alien takes care of their mine the easier it is to dig for gems. Some aliens take better care of their mine than others. So, you won’t get exactly the same amount of gems on each planet.</p><p>What the alien looks like does not tell you anything about how many gems there are on the planet.</p><br><p><img src=""run_exp/static/images/task_images/aliens/instructions_aliens/planet/alien_planet-1.jpg""  height=""600"" width=""auto""></p><button class=""jspsych-html-btn-unchosen""><img src=""run_exp/static/images/task_images/planet-01.jpg"" height=""50""></button><button class=""jspsych-html-btn-chosen""><img src=""run_exp/static/images/task_images/planet-02.jpg"" height=""50""></button><p><b>[press the space bar to lock in your answer]<b><br></p>",32,,,,,,,,,,,,,,,,,,,,,,,,
time_out,18,196670,0.0-8.0-0.0,"""event"",""trial"",""time""
""fullscreenenter"",""1"",""13903""
","
","
","""event"",""trial"",""time""
""fullscreenenter"",""1"",""13903""
","
",,null,run_exp/static/audio/clip_7_timeout.m4a,null,"<p>If you don't make your choice fast enough, you’ll have to wait a few seconds before you can make another one.</p><p>You can’t dig for more gems or travel to new planets. You just have to sit and wait.</p><br><p><img src='run_exp/static/images/task_images/time_out.jpg'  height='600' width='auto'></p>",,,,,,,,,,,,,,,,,,,,,,,
time_out,19,199795,0.0-8.0-1.0,"""event"",""trial"",""time""
""fullscreenenter"",""1"",""13903""
","
","
","""event"",""trial"",""time""
""fullscreenenter"",""1"",""13903""
","
",,3123.6,"<p>If you don't make your choice fast enough, you’ll have to wait a few seconds before you can make another one.</p><p>You can’t dig for more gems or travel to new planets. You just have to sit and wait.</p><br><p><img src='run_exp/static/images/task_images/time_out.jpg'  height='600' width='auto'></p>",,,,,,,1,,,,,,,,,,,,,,,,,,
html-keyboard-response,20,200014,0.0-8.0-2.0,"""event"",""trial"",""time""
""fullscreenenter"",""1"",""13903""
","
","
","""event"",""trial"",""time""
""fullscreenenter"",""1"",""13903""
","
",,217.5,"<p>If you don't make your choice fast enough, you’ll have to wait a few seconds before you can make another one.</p><p>You can’t dig for more gems or travel to new planets. You just have to sit and wait.</p><br><p><img src='run_exp/static/images/task_images/time_out.jpg'  height='600' width='auto'></p><button class=""jspsych-html-btn-unchosen""><img src=""run_exp/static/images/task_images/planet-01.jpg"" height=""50""></button><button class=""jspsych-html-btn-chosen""><img src=""run_exp/static/images/task_images/planet-02.jpg"" height=""50""></button><p><b>[press the space bar to lock in your answer]<b><br></p>",32,,,,,,,,,,,,,,,,,,,,,,,,
instruc_break,21,215676,0.0-9.0-0.0,"""event"",""trial"",""time""
""fullscreenenter"",""1"",""13903""
","
","
","""event"",""trial"",""time""
""fullscreenenter"",""1"",""13903""
","
",,null,run_exp/static/audio/clip_8_break.m4a,null,"<p> After digging and traveling for a while, you’ll be able to take a break at home base. </p><p>The game will last 20 minutes no matter what.</p><p>You will visit home base every 5 minutes, so, you will visit home base three times during the game.</p><br><p><img src='run_exp/static/images/task_images/home_base.jpg' height='600' width='auto'></p>",,,,,,,,,,,,,,,,,,,,,,,
instruc_break,22,218156,0.0-9.0-1.0,"""event"",""trial"",""time""
""fullscreenenter"",""1"",""13903""
","
","
","""event"",""trial"",""time""
""fullscreenenter"",""1"",""13903""
","
",,2466.6,"<p> After digging and traveling for a while, you’ll be able to take a break at home base. </p><p>The game will last 20 minutes no matter what.</p><p>You will visit home base every 5 minutes, so, you will visit home base three times during the game.</p><br><p><img src='run_exp/static/images/task_images/home_base.jpg' height='600' width='auto'></p>",,,,,,,1,,,,,,,,,,,,,,,,,,
html-keyboard-response,23,218255,0.0-9.0-2.0,"""event"",""trial"",""time""
""fullscreenenter"",""1"",""13903""
","
","
","""event"",""trial"",""time""
""fullscreenenter"",""1"",""13903""
","
",,97.69999999,"<p> After digging and traveling for a while, you’ll be able to take a break at home base. </p><p>The game will last 20 minutes no matter what.</p><p>You will visit home base every 5 minutes, so, you will visit home base three times during the game.</p><br><p><img src='run_exp/static/images/task_images/home_base.jpg' height='600' width='auto'></p><button class=""jspsych-html-btn-unchosen""><img src=""run_exp/static/images/task_images/planet-01.jpg"" height=""50""></button><button class=""jspsych-html-btn-chosen""><img src=""run_exp/static/images/task_images/planet-02.jpg"" height=""50""></button><p><b>[press the space bar to lock in your answer]<b><br></p>",32,,,,,,,,,,,,,,,,,,,,,,,,
instruc_prac_game,24,228372,0.0-10.0-0.0,"""event"",""trial"",""time""
""fullscreenenter"",""1"",""13903""
","
","
","""event"",""trial"",""time""
""fullscreenenter"",""1"",""13903""
","
",,null,run_exp/static/audio/clip_9_practice.m4a,null,"<p> Are you ready to play a practice game? </p> <p>In this practice game, you'll be digging up barrels of gems. But, in the real game, you'll be digging up the gems themselves. </p>",,,,,,,,,,,,,,,,,,,,,,,
html-button-response,25,230527,0.0-10.0-1.0,"""event"",""trial"",""time""
""fullscreenenter"",""1"",""13903""
","
","
","""event"",""trial"",""time""
""fullscreenenter"",""1"",""13903""
","
",,2153.3,"<p> Are you ready to play a practice game? </p> <p>In this practice game, you'll be digging up barrels of gems. But, in the real game, you'll be digging up the gems themselves. </p>",,,,,,,0,,,,,,,,,,,,,,,,,,
alien_welcome_prac,26,235542,0.0-11.0-0.0,"""event"",""trial"",""time""
""fullscreenenter"",""1"",""13903""
","
","
","""event"",""trial"",""time""
""fullscreenenter"",""1"",""13903""
","
",,null,run_exp/static/images/task_images/aliens/practice_aliens/planet/alien_planet-5.jpg,null,,,,,,,,,,,,,,,,,,,,,,,,
land_prac,27,236057,0.0-11.0-1.0,"""event"",""trial"",""time""
""fullscreenenter"",""1"",""13903""
","
","
","""event"",""trial"",""time""
""fullscreenenter"",""1"",""13903""
","
",,null,run_exp/static/images/task_images/land.jpg,null,,,,,,,93,,,0,,,,,,,,,,,,,,
dig_prac,28,238075,0.0-11.0-2.0,"""event"",""trial"",""time""
""fullscreenenter"",""1"",""13903""
","
","
","""event"",""trial"",""time""
""fullscreenenter"",""1"",""13903""
","
",,,,,,,,,,,,"[{""stimulus"":""run_exp/static/images/task_images/dig.jpg"",""time"":0.30000001192092896},{""stimulus"":""run_exp/static/images/task_images/land.jpg"",""time"":672.8999999761581},{""stimulus"":""run_exp/static/images/task_images/dig.jpg"",""time"":1345.300000011921}]",[],,,,,,,,,,,,,,,
harvest_prac,29,239079,0.0-11.0-3.0,"""event"",""trial"",""time""
""fullscreenenter"",""1"",""13903""
","
","
","""event"",""trial"",""time""
""fullscreenenter"",""1"",""13903""
","
",,null,run_exp/static/images/task_images/barrel_text.jpg,null,,,,,,,,,,,,,,,,,,,,,,,,
decision_prac,30,241471,0.0-11.0-4.0,"""event"",""trial"",""time""
""fullscreenenter"",""1"",""13903""
","
","
","""event"",""trial"",""time""
""fullscreenenter"",""1"",""13903""
","
",,2390.5,run_exp/static/images/task_images/land.jpg,65,,,,,,,,,,,1,,,,,,,,,,,,,
dig_prac,31,243484,0.0-12.0-0.0,"""event"",""trial"",""time""
""fullscreenenter"",""1"",""13903""
","
","
","""event"",""trial"",""time""
""fullscreenenter"",""1"",""13903""
","
",,,,,,,,,,,,"[{""stimulus"":""run_exp/static/images/task_images/dig.jpg"",""time"":0.19999998807907104},{""stimulus"":""run_exp/static/images/task_images/land.jpg"",""time"":678},{""stimulus"":""run_exp/static/images/task_images/dig.jpg"",""time"":1335}]",[],,,,,,,,,,,,,,,
harvest_prac,32,244501,0.0-12.0-1.0,"""event"",""trial"",""time""
""fullscreenenter"",""1"",""13903""
","
","
","""event"",""trial"",""time""
""fullscreenenter"",""1"",""13903""
","
",,null,run_exp/static/images/task_images/barrel_text.jpg,null,,,,,,,,,,,,,,,,,,,,,,,,
decision_prac,33,246619,0.0-12.0-2.0,"""event"",""trial"",""time""
""fullscreenenter"",""1"",""13903""
","
","
","""event"",""trial"",""time""
""fullscreenenter"",""1"",""13903""
","
",,2111.1,run_exp/static/images/task_images/land.jpg,65,,,,,,,,,,,2,,,,,,,,,,,,,
dig_prac,34,248657,0.0-13.0-0.0,"""event"",""trial"",""time""
""fullscreenenter"",""1"",""13903""
","
","
","""event"",""trial"",""time""
""fullscreenenter"",""1"",""13903""
","
",,,,,,,,,,,,"[{""stimulus"":""run_exp/static/images/task_images/dig.jpg"",""time"":2.399999976158142},{""stimulus"":""run_exp/static/images/task_images/land.jpg"",""time"":674.6999999880791},{""stimulus"":""run_exp/static/images/task_images/dig.jpg"",""time"":1341.3999999761581}]",[],,,,,,,,,,,,,,,
harvest_prac,35,249678,0.0-13.0-1.0,"""event"",""trial"",""time""
""fullscreenenter"",""1"",""13903""
","
","
","""event"",""trial"",""time""
""fullscreenenter"",""1"",""13903""
","
",,null,run_exp/static/images/task_images/barrel_text.jpg,null,,,,,,,,,,,,,,,,,,,,,,,,
decision_prac,36,251907,0.0-13.0-2.0,"""event"",""trial"",""time""
""fullscreenenter"",""1"",""13903""
","
","
","""event"",""trial"",""time""
""fullscreenenter"",""1"",""13903""
","
",,2224.8,run_exp/static/images/task_images/land.jpg,76,,,,,,,,,,,3,,,,,,,,,,,,,
travel,37,259690,0.0-14.0-0.0,"""event"",""trial"",""time""
""fullscreenenter"",""1"",""13903""
","
","
","""event"",""trial"",""time""
""fullscreenenter"",""1"",""13903""
","
",,,,,,,,,,,,"[{""stimulus"":""run_exp/static/images/task_images/rocket-01.jpg"",""time"":0.2999999523162842},{""stimulus"":""run_exp/static/images/task_images/rocket-02.jpg"",""time"":864.8999999761581},{""stimulus"":""run_exp/static/images/task_images/rocket-03.jpg"",""time"":1736.3999999761581},{""stimulus"":""run_exp/static/images/task_images/rocket-04.jpg"",""time"":2601.2999999523163},{""stimulus"":""run_exp/static/images/task_images/rocket-05.jpg"",""time"":3459.899999976158},{""stimulus"":""run_exp/static/images/task_images/rocket-06.jpg"",""time"":4319.899999976158},{""stimulus"":""run_exp/static/images/task_images/rocket-07.jpg"",""time"":5181.099999964237},{""stimulus"":""run_exp/static/images/task_images/rocket-08.jpg"",""time"":6048.799999952316},{""stimulus"":""run_exp/static/images/task_images/rocket-09.jpg"",""time"":6921.299999952316}]",[],0,,,,,,,,,,,,,,
alien_welcome_prac,38,264699,0.0-14.0-1.0,"""event"",""trial"",""time""
""fullscreenenter"",""1"",""13903""
","
","
","""event"",""trial"",""time""
""fullscreenenter"",""1"",""13903""
","
",,null,run_exp/static/images/task_images/aliens/practice_aliens/planet/alien_planet-4.jpg,null,,,,,,,,,,,,,,,,,,,,,,,,
land_prac,39,265216,0.0-14.0-2.0,"""event"",""trial"",""time""
""fullscreenenter"",""1"",""13903""
","
","
","""event"",""trial"",""time""
""fullscreenenter"",""1"",""13903""
","
",,null,run_exp/static/images/task_images/land.jpg,null,,,,,,,105,,,0,,,,,,,,,,,,,,
dig_prac,40,267231,0.0-14.0-3.0,"""event"",""trial"",""time""
""fullscreenenter"",""1"",""13903""
","
","
","""event"",""trial"",""time""
""fullscreenenter"",""1"",""13903""
","
",,,,,,,,,,,,"[{""stimulus"":""run_exp/static/images/task_images/dig.jpg"",""time"":0.40000003576278687},{""stimulus"":""run_exp/static/images/task_images/land.jpg"",""time"":683.8000000119209},{""stimulus"":""run_exp/static/images/task_images/dig.jpg"",""time"":1337.300000011921}]",[],,,,,,,,,,,,,,,
harvest_prac,41,268236,0.0-14.0-4.0,"""event"",""trial"",""time""
""fullscreenenter"",""1"",""13903""
","
","
","""event"",""trial"",""time""
""fullscreenenter"",""1"",""13903""
","
",,null,run_exp/static/images/task_images/barrel_text.jpg,null,,,,,,,,,,,,,,,,,,,,,,,,
decision_prac,42,270596,0.0-14.0-5.0,"""event"",""trial"",""time""
""fullscreenenter"",""1"",""13903""
","
","
","""event"",""trial"",""time""
""fullscreenenter"",""1"",""13903""
","
",,2357.1,run_exp/static/images/task_images/land.jpg,65,,,,,,,,,,,4,,,,,,,,,,,,,
dig_prac,43,272661,0.0-15.0-0.0,"""event"",""trial"",""time""
""fullscreenenter"",""1"",""13903""
","
","
","""event"",""trial"",""time""
""fullscreenenter"",""1"",""13903""
","
",,,,,,,,,,,,"[{""stimulus"":""run_exp/static/images/task_images/dig.jpg"",""time"":2.300000011920929},{""stimulus"":""run_exp/static/images/task_images/land.jpg"",""time"":675.3999999761581},{""stimulus"":""run_exp/static/images/task_images/dig.jpg"",""time"":1356.199999988079}]",[],,,,,,,,,,,,,,,
harvest_prac,44,273691,0.0-15.0-1.0,"""event"",""trial"",""time""
""fullscreenenter"",""1"",""13903""
","
","
","""event"",""trial"",""time""
""fullscreenenter"",""1"",""13903""
","
",,null,run_exp/static/images/task_images/barrel_text.jpg,null,,,,,,,,,,,,,,,,,,,,,,,,
decision_prac,45,276715,0.0-15.0-2.0,"""event"",""trial"",""time""
""fullscreenenter"",""1"",""13903""
","
","
","""event"",""trial"",""time""
""fullscreenenter"",""1"",""13903""
","
",,null,run_exp/static/images/task_images/land.jpg,null,,,,,,,,,,,,1,,,,,,,,,,,,
quiz_instruc,46,279181,0.0-16.0-0.0,"""event"",""trial"",""time""
""fullscreenenter"",""1"",""13903""
","
","
","""event"",""trial"",""time""
""fullscreenenter"",""1"",""13903""
","
",,2462.3,run_exp/static/audio/clip_10_quiz.m4a,,,,,,,0,,,,,,,,,,,,,,,,,,
instruc_repeat,47,321943,0.0-16.0-1.0,"""event"",""trial"",""time""
""fullscreenenter"",""1"",""13903""
","
","
","""event"",""trial"",""time""
""fullscreenenter"",""1"",""13903""
","
",,null,"<p> Are you ready to play a practice game? </p> <p>In this practice game, you'll be digging up barrels of gems. But, in the real game, you'll be digging up the gems themselves. </p>",null,"<p>In this game, your goal is to collect as many gems as you can. That’s how you will win bonus money. </p> <p>The entire game will last 20 minutes no matter how many gems you collect or how many planets you visit. </p><p>To stay on a planet and dig again, press the letter A on your keyboard. To leave for a new planet, press the letter L.</p><p>The more you dig on a planet, the fewer gems you’ll get with each dig which is why you might consider leaving for a new planet. </p><p>When you arrive at a new planet, you’ll be greeted by an alien. What the alien looks like does not tell you anything about how much treasure is on the planet. </p>",,,,,,,,,,,,,,,,,,,,,,,
instruc_repeat_continue,48,324237,0.0-16.0-2.0,"""event"",""trial"",""time""
""fullscreenenter"",""1"",""13903""
","
","
","""event"",""trial"",""time""
""fullscreenenter"",""1"",""13903""
","
",,2291.2,"<p> Are you ready to play a practice game? </p> <p>In this practice game, you'll be digging up barrels of gems. But, in the real game, you'll be digging up the gems themselves. </p>",,,,,,,0,,,,,,,,,,,,,,,,,,
quiz_q_1_ask,49,327615,0.0-16.0-3.0,"""event"",""trial"",""time""
""fullscreenenter"",""1"",""13903""
","
","
","""event"",""trial"",""time""
""fullscreenenter"",""1"",""13903""
","
",,3376,run_exp/static/audio/clip_11_q1_ask.m4a,,,,,,,2,,,,,,,,,,,,,,,,,,
quiz_q_1_fb_correct,50,331463,0.0-17.0-0.0,"""event"",""trial"",""time""
""fullscreenenter"",""1"",""13903""
","
","
","""event"",""trial"",""time""
""fullscreenenter"",""1"",""13903""
","
",,null,run_exp/static/audio/clip_12_q1_correct.m4a,null,<p>That’s correct. You win extra money by collecting more gems.</p>,,,,,,,,,,,,,,,,,,,,,,,
quiz_q_2_ask,51,333670,0.0-17.0-1.0,"""event"",""trial"",""time""
""fullscreenenter"",""1"",""13903""
","
","
","""event"",""trial"",""time""
""fullscreenenter"",""1"",""13903""
","
",,2204.7,run_exp/static/audio/clip_14_q2_ask.m4a,,,,,,,1,,,,,,,,,,,,,,,,,,
quiz_q_2_fb_correct,52,337683,0.0-18.0-0.0,"""event"",""trial"",""time""
""fullscreenenter"",""1"",""13903""
","
","
","""event"",""trial"",""time""
""fullscreenenter"",""1"",""13903""
","
",,null,run_exp/static/audio/clip_15_q2_correct.m4a,null,<p>That’s correct. The experiment is 20 minutes no matter what.</p>,,,,,,,,,,,,,,,,,,,,,,,
quiz_q_3_ask,53,341975,0.0-18.0-1.0,"""event"",""trial"",""time""
""fullscreenenter"",""1"",""13903""
","
","
","""event"",""trial"",""time""
""fullscreenenter"",""1"",""13903""
","
",,4290.5,run_exp/static/audio/clip_17_q3_ask.m4a,,,,,,,1,,,,,,,,,,,,,,,,,,
quiz_q_3_fb_correct,54,345963,0.0-19.0-0.0,"""event"",""trial"",""time""
""fullscreenenter"",""1"",""13903""
","
","
","""event"",""trial"",""time""
""fullscreenenter"",""1"",""13903""
","
",,null,run_exp/static/audio/clip_18_q3_correct.m4a,null,<p> That’s correct. You press the letter L to travel to a new planet.</p>,,,,,,,,,,,,,,,,,,,,,,,
quiz_q_4_ask,55,348849,0.0-19.0-1.0,"""event"",""trial"",""time""
""fullscreenenter"",""1"",""13903""
","
","
","""event"",""trial"",""time""
""fullscreenenter"",""1"",""13903""
","
",,2882.1,run_exp/static/audio/clip_20_q4_ask.m4a,,,,,,,0,,,,,,,,,,,,,,,,,,
quiz_q_4_fb_correct,56,354262,0.0-20.0-0.0,"""event"",""trial"",""time""
""fullscreenenter"",""1"",""13903""
","
","
","""event"",""trial"",""time""
""fullscreenenter"",""1"",""13903""
","
",,null,run_exp/static/audio/clip_21_q4_correct.m4a,null,<p> That’s correct. The more you dig on a planet the fewer gems you’ll get with each dig. </p>,,,,,,,,,,,,,,,,,,,,,,,
quiz_q_5_ask,57,356047,0.0-20.0-1.0,"""event"",""trial"",""time""
""fullscreenenter"",""1"",""13903""
","
","
","""event"",""trial"",""time""
""fullscreenenter"",""1"",""13903""
","
",,1782.4,run_exp/static/audio/clip_23_q5_ask.m4a,,,,,,,1,,,,,,,,,,,,,,,,,,
quiz_q_5_fb_correct,58,361043,0.0-21.0-0.0,"""event"",""trial"",""time""
""fullscreenenter"",""1"",""13903""
","
","
","""event"",""trial"",""time""
""fullscreenenter"",""1"",""13903""
","
",,null,run_exp/static/audio/clip_24_q5_correct.m4a,null,<p> That’s correct. The alien tells you nothing about how much treasure is on the planet.</p>,,,,,,,,,,,,,,,,,,,,,,,
quiz_correct,59,364503,0.0-22.0-0.0,"""event"",""trial"",""time""
""fullscreenenter"",""1"",""13903""
","
","
","""event"",""trial"",""time""
""fullscreenenter"",""1"",""13903""
","
",,null,run_exp/static/audio/clip_26_correct_quiz.m4a,null,,,,,,,,,,,,,,,,,,,,,,,,
quiz_correct_continue,60,366542,0.0-22.0-1.0,"""event"",""trial"",""time""
""fullscreenenter"",""1"",""13903""
","
","
","""event"",""trial"",""time""
""fullscreenenter"",""1"",""13903""
","
",,2037.2,<p>Good job! You're now ready to move on to the real game!</p>,,,,,,,0,,,,,,,,,,,,,,,,,,
audio-keyboard-response,61,376663,0.0-22.0-2.0,"""event"",""trial"",""time""
""fullscreenenter"",""1"",""13903""
","
","
","""event"",""trial"",""time""
""fullscreenenter"",""1"",""13903""
","
",,null,run_exp/static/audio/clip_28_real_game.m4a,null,,,,,,,,,,,,,,,,,,,,,,,,
instruc_begin_exp_contine,62,377975,0.0-22.0-3.0,"""event"",""trial"",""time""
""fullscreenenter"",""1"",""13903""
","
","
","""event"",""trial"",""time""
""fullscreenenter"",""1"",""13903""
","
",,1310.3,"<p>Now that you know how  to dig for space treasure and travel to new planets,you can start exploring! </p><p>Do you want to go over the instructions again or get started with the real game?</p>",,,,,,,1,,,,,,1,,,,,,,,,,,,
alien_welcome,63,382991,0.0-23.0-0.0,"""event"",""trial"",""time""
""fullscreenenter"",""1"",""13903""
","
","
","""event"",""trial"",""time""
""fullscreenenter"",""1"",""13903""
","
",,null,run_exp/static/images/task_images/aliens/old_aliens/planet/alien_planet-56.jpg,null,,,,,,,,,,,,,56,"56,73,44,20,72,61,37,76,74,14,3,71,42,53,43,35,75,52,33,36,7,23,28,40,32,1,62,64,13,11,27,60,4,67,15,47,38,5,16,48,46,45,9,12,34",,,,,,,,,,
land,64,383506,0.0-23.0-1.0,"""event"",""trial"",""time""
""fullscreenenter"",""1"",""13903""
","
","
","""event"",""trial"",""time""
""fullscreenenter"",""1"",""13903""
","
",,null,run_exp/static/images/task_images/land.jpg,null,,,,,,,102,,,1,,,,,,,,,,,,,,
dig,65,385517,0.0-23.0-2.0,"""event"",""trial"",""time""
""fullscreenenter"",""1"",""13903""
","
","
","""event"",""trial"",""time""
""fullscreenenter"",""1"",""13903""
","
",,,,,,,,,,,,"[{""stimulus"":""run_exp/static/images/task_images/dig.jpg"",""time"":0.2999999523162842},{""stimulus"":""run_exp/static/images/task_images/land.jpg"",""time"":683.5999999642372},{""stimulus"":""run_exp/static/images/task_images/dig.jpg"",""time"":1336.2999999523163}]",[],1,,,,,,,,,,,,,,
harvest,66,386534,0.0-23.0-3.0,"""event"",""trial"",""time""
""fullscreenenter"",""1"",""13903""
","
","
","""event"",""trial"",""time""
""fullscreenenter"",""1"",""13903""
","
",,null,run_exp/static/images/task_images/gems/102.jpg,null,,,,,,,17,,,1,,,,,102,0.171167109,0.166666667,,,,,,,
decision,67,386932,0.0-23.0-4.0,"""event"",""trial"",""time""
""fullscreenenter"",""1"",""13903""
","
","
","""event"",""trial"",""time""
""fullscreenenter"",""1"",""13903""
","
",,396,run_exp/static/images/task_images/land.jpg,65,,,,,,,17,,,1,,,,,,,,8955,1,0,FALSE,,,
dig,68,389555,0.0-24.0-0.0,"""event"",""trial"",""time""
""fullscreenenter"",""1"",""13903""
","
","
","""event"",""trial"",""time""
""fullscreenenter"",""1"",""13903""
","
",,,,,,,,,,,,"[{""stimulus"":""run_exp/static/images/task_images/dig.jpg"",""time"":0.19999998807907104},{""stimulus"":""run_exp/static/images/task_images/land.jpg"",""time"":869.1999999880791},{""stimulus"":""run_exp/static/images/task_images/dig.jpg"",""time"":1741.199999988079}]",[],1,,,,,,,,,,,,,,
harvest,69,390556,0.0-24.0-1.0,"""event"",""trial"",""time""
""fullscreenenter"",""1"",""13903""
","
","
","""event"",""trial"",""time""
""fullscreenenter"",""1"",""13903""
","
",,null,run_exp/static/images/task_images/gems/17.jpg,null,,,,,,,2,,,1,,,,,17,0.142050255,0.117647059,,,,,,,
decision,70,392506,0.0-24.0-2.0,"""event"",""trial"",""time""
""fullscreenenter"",""1"",""13903""
","
","
","""event"",""trial"",""time""
""fullscreenenter"",""1"",""13903""
","
",,1948.2,run_exp/static/images/task_images/land.jpg,65,,,,,,,2,,,1,,,,,,,,14528,1,1,FALSE,,,
dig,71,393560,0.0-25.0-0.0,"""event"",""trial"",""time""
""fullscreenenter"",""1"",""13903""
","
","
","""event"",""trial"",""time""
""fullscreenenter"",""1"",""13903""
","
",,,,,,,,,,,,"[{""stimulus"":""run_exp/static/images/task_images/dig.jpg"",""time"":0.19999998807907104},{""stimulus"":""run_exp/static/images/task_images/land.jpg"",""time"":352.5},{""stimulus"":""run_exp/static/images/task_images/dig.jpg"",""time"":707.8999999761581}]",[],1,,,,,,,,,,,,,,
harvest,72,394562,0.0-25.0-1.0,"""event"",""trial"",""time""
""fullscreenenter"",""1"",""13903""
","
","
","""event"",""trial"",""time""
""fullscreenenter"",""1"",""13903""
","
",,null,run_exp/static/images/task_images/gems/2.jpg,null,,,,,,,0,,,1,,,,,2,0.121556744,0,,,,,,,
decision,73,397578,0.0-25.0-2.0,"""event"",""trial"",""time""
""fullscreenenter"",""1"",""13903""
","
","
","""event"",""trial"",""time""
""fullscreenenter"",""1"",""13903""
","
",,null,run_exp/static/images/task_images/land.jpg,null,,,,,,,0,,,1,,,,,,,,19600,1,2,FALSE,,,
time_out,74,399590,0.0-26.0-0.0,"""event"",""trial"",""time""
""fullscreenenter"",""1"",""13903""
","
","
","""event"",""trial"",""time""
""fullscreenenter"",""1"",""13903""
","
",,null,run_exp/static/images/task_images/time_out.jpg,null,,,,,,,0,,,,,,,,,,,,,,,,,
decision,75,400779,0.0-26.0-1.0,"""event"",""trial"",""time""
""fullscreenenter"",""1"",""13903""
","
","
","""event"",""trial"",""time""
""fullscreenenter"",""1"",""13903""
","
",,1186.8,run_exp/static/images/task_images/land.jpg,76,,,,,,,0,,,1,,,,,,,,22801,1,2,TRUE,,,
travel,76,409602,0.0-27.0-0.0,"""event"",""trial"",""time""
""fullscreenenter"",""1"",""13903""
","
","
","""event"",""trial"",""time""
""fullscreenenter"",""1"",""13903""
","
",,,,,,,,,,,,"[{""stimulus"":""run_exp/static/images/task_images/rocket-01.jpg"",""time"":0.2999999523162842},{""stimulus"":""run_exp/static/images/task_images/rocket-02.jpg"",""time"":980.5},{""stimulus"":""run_exp/static/images/task_images/rocket-03.jpg"",""time"":1964.699999988079},{""stimulus"":""run_exp/static/images/task_images/rocket-04.jpg"",""time"":2942.5},{""stimulus"":""run_exp/static/images/task_images/rocket-05.jpg"",""time"":3927.899999976158},{""stimulus"":""run_exp/static/images/task_images/rocket-06.jpg"",""time"":4910.199999988079},{""stimulus"":""run_exp/static/images/task_images/rocket-07.jpg"",""time"":5875.699999988079},{""stimulus"":""run_exp/static/images/task_images/rocket-08.jpg"",""time"":6855.799999952316},{""stimulus"":""run_exp/static/images/task_images/rocket-09.jpg"",""time"":7837.099999964237}]",[],1,,,,,,,,,,,,,,
alien_welcome,77,414629,0.0-27.0-1.0,"""event"",""trial"",""time""
""fullscreenenter"",""1"",""13903""
","
","
","""event"",""trial"",""time""
""fullscreenenter"",""1"",""13903""
","
",,null,run_exp/static/images/task_images/aliens/old_aliens/planet/alien_planet-73.jpg,null,,,,,,,,,,,,,73,"56,73,44,20,72,61,37,76,74,14,3,71,42,53,43,35,75,52,33,36,7,23,28,40,32,1,62,64,13,11,27,60,4,67,15,47,38,5,16,48,46,45,9,12,34",,,,,,,,,,
land,78,415142,0.0-27.0-2.0,"""event"",""trial"",""time""
""fullscreenenter"",""1"",""13903""
","
","
","""event"",""trial"",""time""
""fullscreenenter"",""1"",""13903""
","
",,null,run_exp/static/images/task_images/land.jpg,null,,,,,,,100,,,2,,,,,,,,,,,,,,
dig,79,417159,0.0-27.0-3.0,"""event"",""trial"",""time""
""fullscreenenter"",""1"",""13903""
","
","
","""event"",""trial"",""time""
""fullscreenenter"",""1"",""13903""
","
",,,,,,,,,,,,"[{""stimulus"":""run_exp/static/images/task_images/dig.jpg"",""time"":0.3999999761581421},{""stimulus"":""run_exp/static/images/task_images/land.jpg"",""time"":669.6999999880791},{""stimulus"":""run_exp/static/images/task_images/dig.jpg"",""time"":1341.5}]",[],2,,,,,,,,,,,,,,
harvest,80,418175,0.0-27.0-4.0,"""event"",""trial"",""time""
""fullscreenenter"",""1"",""13903""
","
","
","""event"",""trial"",""time""
""fullscreenenter"",""1"",""13903""
","
",,null,run_exp/static/images/task_images/gems/100.jpg,null,,,,,,,16,,,2,,,,,100,0.162620071,0.16,,,,,,,
decision,81,418212,0.0-27.0-5.0,"""event"",""trial"",""time""
""fullscreenenter"",""1"",""13903""
","
","
","""event"",""trial"",""time""
""fullscreenenter"",""1"",""13903""
","
",,35.60000002,run_exp/static/images/task_images/land.jpg,65,,,,,,,16,,,2,,,,,,,,40234,1,0,FALSE,,,
dig,82,421191,0.0-28.0-0.0,"""event"",""trial"",""time""
""fullscreenenter"",""1"",""13903""
","
","
","""event"",""trial"",""time""
""fullscreenenter"",""1"",""13903""
","
",,,,,,,,,,,,"[{""stimulus"":""run_exp/static/images/task_images/dig.jpg"",""time"":0.2999999523162842},{""stimulus"":""run_exp/static/images/task_images/land.jpg"",""time"":993},{""stimulus"":""run_exp/static/images/task_images/dig.jpg"",""time"":1991.2999999523163}]",[],2,,,,,,,,,,,,,,
harvest,83,422194,0.0-28.0-1.0,"""event"",""trial"",""time""
""fullscreenenter"",""1"",""13903""
","
","
","""event"",""trial"",""time""
""fullscreenenter"",""1"",""13903""
","
",,null,run_exp/static/images/task_images/gems/16.jpg,null,,,,,,,2,,,2,,,,,16,0.130287971,0.125,,,,,,,
decision,84,423793,0.0-28.0-2.0,"""event"",""trial"",""time""
""fullscreenenter"",""1"",""13903""
","
","
","""event"",""trial"",""time""
""fullscreenenter"",""1"",""13903""
","
",,1595.7,run_exp/static/images/task_images/land.jpg,76,,,,,,,2,,,2,,,,,,,,45815,1,1,TRUE,,,
travel,85,432218,0.0-29.0-0.0,"""event"",""trial"",""time""
""fullscreenenter"",""1"",""13903""
","
","
","""event"",""trial"",""time""
""fullscreenenter"",""1"",""13903""
","
",,,,,,,,,,,,"[{""stimulus"":""run_exp/static/images/task_images/rocket-01.jpg"",""time"":1.199999988079071},{""stimulus"":""run_exp/static/images/task_images/rocket-02.jpg"",""time"":939.8999999761581},{""stimulus"":""run_exp/static/images/task_images/rocket-03.jpg"",""time"":1877.1000000238419},{""stimulus"":""run_exp/static/images/task_images/rocket-04.jpg"",""time"":2814},{""stimulus"":""run_exp/static/images/task_images/rocket-05.jpg"",""time"":3750.100000023842},{""stimulus"":""run_exp/static/images/task_images/rocket-06.jpg"",""time"":4682.100000023842},{""stimulus"":""run_exp/static/images/task_images/rocket-07.jpg"",""time"":5608.600000023842},{""stimulus"":""run_exp/static/images/task_images/rocket-08.jpg"",""time"":6535.100000023842},{""stimulus"":""run_exp/static/images/task_images/rocket-09.jpg"",""time"":7479.600000023842}]",[],2,,,,,,,,,,,,,,
alien_welcome,86,437227,0.0-29.0-1.0,"""event"",""trial"",""time""
""fullscreenenter"",""1"",""13903""
","
","
","""event"",""trial"",""time""
""fullscreenenter"",""1"",""13903""
","
",,null,run_exp/static/images/task_images/aliens/old_aliens/planet/alien_planet-44.jpg,null,,,,,,,,,,,,,44,"56,73,44,20,72,61,37,76,74,14,3,71,42,53,43,35,75,52,33,36,7,23,28,40,32,1,62,64,13,11,27,60,4,67,15,47,38,5,16,48,46,45,9,12,34",,,,,,,,,,
land,87,437741,0.0-29.0-2.0,"""event"",""trial"",""time""
""fullscreenenter"",""1"",""13903""
","
","
","""event"",""trial"",""time""
""fullscreenenter"",""1"",""13903""
","
",,null,run_exp/static/images/task_images/land.jpg,null,,,,,,,98,,,3,,,,,,,,,,,,,,
dig,88,439757,0.0-29.0-3.0,"""event"",""trial"",""time""
""fullscreenenter"",""1"",""13903""
","
","
","""event"",""trial"",""time""
""fullscreenenter"",""1"",""13903""
","
",,,,,,,,,,,,"[{""stimulus"":""run_exp/static/images/task_images/dig.jpg"",""time"":0.30000001192092896},{""stimulus"":""run_exp/static/images/task_images/land.jpg"",""time"":670.6999999880791},{""stimulus"":""run_exp/static/images/task_images/dig.jpg"",""time"":1339.199999988079}]",[],3,,,,,,,,,,,,,,
harvest,89,440768,0.0-29.0-4.0,"""event"",""trial"",""time""
""fullscreenenter"",""1"",""13903""
","
","
","""event"",""trial"",""time""
""fullscreenenter"",""1"",""13903""
","
",,null,run_exp/static/images/task_images/gems/98.jpg,null,,,,,,,49,,,3,,,,,98,0.498989337,0.5,,,,,,,
decision,90,441351,0.0-29.0-5.0,"""event"",""trial"",""time""
""fullscreenenter"",""1"",""13903""
","
","
","""event"",""trial"",""time""
""fullscreenenter"",""1"",""13903""
","
",,581,run_exp/static/images/task_images/land.jpg,65,,,,,,,49,,,3,,,,,,,,63373,1,0,FALSE,,,
dig,91,443778,0.0-30.0-0.0,"""event"",""trial"",""time""
""fullscreenenter"",""1"",""13903""
","
","
","""event"",""trial"",""time""
""fullscreenenter"",""1"",""13903""
","
",,,,,,,,,,,,"[{""stimulus"":""run_exp/static/images/task_images/dig.jpg"",""time"":0.30000001192092896},{""stimulus"":""run_exp/static/images/task_images/land.jpg"",""time"":809},{""stimulus"":""run_exp/static/images/task_images/dig.jpg"",""time"":1627.5999999642372}]",[],3,,,,,,,,,,,,,,
harvest,92,444782,0.0-30.0-1.0,"""event"",""trial"",""time""
""fullscreenenter"",""1"",""13903""
","
","
","""event"",""trial"",""time""
""fullscreenenter"",""1"",""13903""
","
",,null,run_exp/static/images/task_images/gems/49.jpg,null,,,,,,,22,,,3,,,,,49,0.443396056,0.448979592,,,,,,,
decision,93,444828,0.0-30.0-2.0,"""event"",""trial"",""time""
""fullscreenenter"",""1"",""13903""
","
","
","""event"",""trial"",""time""
""fullscreenenter"",""1"",""13903""
","
",,44.69999999,run_exp/static/images/task_images/land.jpg,65,,,,,,,22,,,3,,,,,,,,66850,1,1,FALSE,,,
dig,94,447791,0.0-31.0-0.0,"""event"",""trial"",""time""
""fullscreenenter"",""1"",""13903""
","
","
","""event"",""trial"",""time""
""fullscreenenter"",""1"",""13903""
","
",,,,,,,,,,,,"[{""stimulus"":""run_exp/static/images/task_images/dig.jpg"",""time"":0.19999998807907104},{""stimulus"":""run_exp/static/images/task_images/land.jpg"",""time"":1000},{""stimulus"":""run_exp/static/images/task_images/dig.jpg"",""time"":1974.3999999761581}]",[],3,,,,,,,,,,,,,,
harvest,95,448797,0.0-31.0-1.0,"""event"",""trial"",""time""
""fullscreenenter"",""1"",""13903""
","
","
","""event"",""trial"",""time""
""fullscreenenter"",""1"",""13903""
","
",,null,run_exp/static/images/task_images/gems/22.jpg,null,,,,,,,12,,,3,,,,,22,0.52471222,0.545454545,,,,,,,
decision,96,449350,0.0-31.0-2.0,"""event"",""trial"",""time""
""fullscreenenter"",""1"",""13903""
","
","
","""event"",""trial"",""time""
""fullscreenenter"",""1"",""13903""
","
",,551.9,run_exp/static/images/task_images/land.jpg,76,,,,,,,12,,,3,,,,,,,,71373,1,2,TRUE,,,
travel,97,458812,0.0-32.0-0.0,"""event"",""trial"",""time""
""fullscreenenter"",""1"",""13903""
","
","
","""event"",""trial"",""time""
""fullscreenenter"",""1"",""13903""
","
",,,,,,,,,,,,"[{""stimulus"":""run_exp/static/images/task_images/rocket-01.jpg"",""time"":0.19999998807907104},{""stimulus"":""run_exp/static/images/task_images/rocket-02.jpg"",""time"":1063.5},{""stimulus"":""run_exp/static/images/task_images/rocket-03.jpg"",""time"":2110.300000011921},{""stimulus"":""run_exp/static/images/task_images/rocket-04.jpg"",""time"":3152},{""stimulus"":""run_exp/static/images/task_images/rocket-05.jpg"",""time"":4202.800000011921},{""stimulus"":""run_exp/static/images/task_images/rocket-06.jpg"",""time"":5255.699999988079},{""stimulus"":""run_exp/static/images/task_images/rocket-07.jpg"",""time"":6299},{""stimulus"":""run_exp/static/images/task_images/rocket-08.jpg"",""time"":7346.600000023842},{""stimulus"":""run_exp/static/images/task_images/rocket-09.jpg"",""time"":8397.899999976158}]",[],3,,,,,,,,,,,,,,
alien_welcome,98,463824,0.0-32.0-1.0,"""event"",""trial"",""time""
""fullscreenenter"",""1"",""13903""
","
","
","""event"",""trial"",""time""
""fullscreenenter"",""1"",""13903""
","
",,null,run_exp/static/images/task_images/aliens/old_aliens/planet/alien_planet-20.jpg,null,,,,,,,,,,,,,20,"56,73,44,20,72,61,37,76,74,14,3,71,42,53,43,35,75,52,33,36,7,23,28,40,32,1,62,64,13,11,27,60,4,67,15,47,38,5,16,48,46,45,9,12,34",,,,,,,,,,
land,99,464329,0.0-32.0-2.0,"""event"",""trial"",""time""
""fullscreenenter"",""1"",""13903""
","
","
","""event"",""trial"",""time""
""fullscreenenter"",""1"",""13903""
","
",,null,run_exp/static/images/task_images/land.jpg,null,,,,,,,99,,,4,,,,,,,,,,,,,,
dig,100,466333,0.0-32.0-3.0,"""event"",""trial"",""time""
""fullscreenenter"",""1"",""13903""
","
","
","""event"",""trial"",""time""
""fullscreenenter"",""1"",""13903""
","
",,,,,,,,,,,,"[{""stimulus"":""run_exp/static/images/task_images/dig.jpg"",""time"":0.19999998807907104},{""stimulus"":""run_exp/static/images/task_images/land.jpg"",""time"":670.5999999642372},{""stimulus"":""run_exp/static/images/task_images/dig.jpg"",""time"":1346.7999999523163}]",[],4,,,,,,,,,,,,,,
harvest,101,467336,0.0-32.0-4.0,"""event"",""trial"",""time""
""fullscreenenter"",""1"",""13903""
","
","
","""event"",""trial"",""time""
""fullscreenenter"",""1"",""13903""
","
",,null,run_exp/static/images/task_images/gems/99.jpg,null,,,,,,,50,,,4,,,,,99,0.504493361,0.505050505,,,,,,,
decision,102,467530,0.0-32.0-5.0,"""event"",""trial"",""time""
""fullscreenenter"",""1"",""13903""
","
","
","""event"",""trial"",""time""
""fullscreenenter"",""1"",""13903""
","
",,192.7,run_exp/static/images/task_images/land.jpg,65,,,,,,,50,,,4,,,,,,,,89552,1,0,FALSE,,,
dig,103,470354,0.0-33.0-0.0,"""event"",""trial"",""time""
""fullscreenenter"",""1"",""13903""
","
","
","""event"",""trial"",""time""
""fullscreenenter"",""1"",""13903""
","
",,,,,,,,,,,,"[{""stimulus"":""run_exp/static/images/task_images/dig.jpg"",""time"":0.30000001192092896},{""stimulus"":""run_exp/static/images/task_images/land.jpg"",""time"":947.1999999880791},{""stimulus"":""run_exp/static/images/task_images/dig.jpg"",""time"":1884.1000000238419}]",[],4,,,,,,,,,,,,,,
harvest,104,471358,0.0-33.0-1.0,"""event"",""trial"",""time""
""fullscreenenter"",""1"",""13903""
","
","
","""event"",""trial"",""time""
""fullscreenenter"",""1"",""13903""
","
",,null,run_exp/static/images/task_images/gems/50.jpg,null,,,,,,,27,,,4,,,,,50,0.546838314,0.54,,,,,,,
decision,105,471555,0.0-33.0-2.0,"""event"",""trial"",""time""
""fullscreenenter"",""1"",""13903""
","
","
","""event"",""trial"",""time""
""fullscreenenter"",""1"",""13903""
","
",,195.5,run_exp/static/images/task_images/land.jpg,65,,,,,,,27,,,4,,,,,,,,93577,1,1,FALSE,,,
dig,106,474370,0.0-34.0-0.0,"""event"",""trial"",""time""
""fullscreenenter"",""1"",""13903""
","
","
","""event"",""trial"",""time""
""fullscreenenter"",""1"",""13903""
","
",,,,,,,,,,,,"[{""stimulus"":""run_exp/static/images/task_images/dig.jpg"",""time"":0.19999998807907104},{""stimulus"":""run_exp/static/images/task_images/land.jpg"",""time"":940.1999999880791},{""stimulus"":""run_exp/static/images/task_images/dig.jpg"",""time"":1875.9000000357628}]",[],4,,,,,,,,,,,,,,
harvest,107,475387,0.0-34.0-1.0,"""event"",""trial"",""time""
""fullscreenenter"",""1"",""13903""
","
","
","""event"",""trial"",""time""
""fullscreenenter"",""1"",""13903""
","
",,null,run_exp/static/images/task_images/gems/27.jpg,null,,,,,,,15,,,4,,,,,27,0.561141132,0.555555556,,,,,,,
decision,108,475552,0.0-34.0-2.0,"""event"",""trial"",""time""
""fullscreenenter"",""1"",""13903""
","
","
","""event"",""trial"",""time""
""fullscreenenter"",""1"",""13903""
","
",,163.5,run_exp/static/images/task_images/land.jpg,76,,,,,,,15,,,4,,,,,,,,97574,1,2,TRUE,,,
travel,109,485393,0.0-35.0-0.0,"""event"",""trial"",""time""
""fullscreenenter"",""1"",""13903""
","
","
","""event"",""trial"",""time""
""fullscreenenter"",""1"",""13903""
","
",,,,,,,,,,,,"[{""stimulus"":""run_exp/static/images/task_images/rocket-01.jpg"",""time"":0.10000002384185791},{""stimulus"":""run_exp/static/images/task_images/rocket-02.jpg"",""time"":1100.3999999761581},{""stimulus"":""run_exp/static/images/task_images/rocket-03.jpg"",""time"":2191.800000011921},{""stimulus"":""run_exp/static/images/task_images/rocket-04.jpg"",""time"":3276.899999976158},{""stimulus"":""run_exp/static/images/task_images/rocket-05.jpg"",""time"":4383.199999988079},{""stimulus"":""run_exp/static/images/task_images/rocket-06.jpg"",""time"":5465.399999976158},{""stimulus"":""run_exp/static/images/task_images/rocket-07.jpg"",""time"":6559.800000011921},{""stimulus"":""run_exp/static/images/task_images/rocket-08.jpg"",""time"":7653},{""stimulus"":""run_exp/static/images/task_images/rocket-09.jpg"",""time"":8744.399999976158}]",[],4,,,,,,,,,,,,,,
alien_welcome,110,490399,0.0-35.0-1.0,"""event"",""trial"",""time""
""fullscreenenter"",""1"",""13903""
","
","
","""event"",""trial"",""time""
""fullscreenenter"",""1"",""13903""
","
",,null,run_exp/static/images/task_images/aliens/old_aliens/planet/alien_planet-72.jpg,null,,,,,,,,,,,,,72,"56,73,44,20,72,61,37,76,74,14,3,71,42,53,43,35,75,52,33,36,7,23,28,40,32,1,62,64,13,11,27,60,4,67,15,47,38,5,16,48,46,45,9,12,34",,,,,,,,,,
land,111,490919,0.0-35.0-2.0,"""event"",""trial"",""time""
""fullscreenenter"",""1"",""13903""
","
","
","""event"",""trial"",""time""
""fullscreenenter"",""1"",""13903""
","
",,null,run_exp/static/images/task_images/land.jpg,null,,,,,,,100,,,5,,,,,,,,,,,,,,
dig,112,492938,0.0-35.0-3.0,"""event"",""trial"",""time""
""fullscreenenter"",""1"",""13903""
","
","
","""event"",""trial"",""time""
""fullscreenenter"",""1"",""13903""
","
",,,,,,,,,,,,"[{""stimulus"":""run_exp/static/images/task_images/dig.jpg"",""time"":1.899999976158142},{""stimulus"":""run_exp/static/images/task_images/land.jpg"",""time"":676.8999999761581},{""stimulus"":""run_exp/static/images/task_images/dig.jpg"",""time"":1340.7999999523163}]",[],5,,,,,,,,,,,,,,
harvest,113,493953,0.0-35.0-4.0,"""event"",""trial"",""time""
""fullscreenenter"",""1"",""13903""
","
","
","""event"",""trial"",""time""
""fullscreenenter"",""1"",""13903""
","
",,null,run_exp/static/images/task_images/gems/100.jpg,null,,,,,,,49,,,5,,,,,100,0.49248408,0.49,,,,,,,
decision,114,494501,0.0-35.0-5.0,"""event"",""trial"",""time""
""fullscreenenter"",""1"",""13903""
","
","
","""event"",""trial"",""time""
""fullscreenenter"",""1"",""13903""
","
",,542.2,run_exp/static/images/task_images/land.jpg,65,,,,,,,49,,,5,,,,,,,,116524,1,0,FALSE,,,
dig,115,496979,0.0-36.0-0.0,"""event"",""trial"",""time""
""fullscreenenter"",""1"",""13903""
","
","
","""event"",""trial"",""time""
""fullscreenenter"",""1"",""13903""
","
",,,,,,,,,,,,"[{""stimulus"":""run_exp/static/images/task_images/dig.jpg"",""time"":0.30000001192092896},{""stimulus"":""run_exp/static/images/task_images/land.jpg"",""time"":820.6000000238419},{""stimulus"":""run_exp/static/images/task_images/dig.jpg"",""time"":1648.8999999761581}]",[],5,,,,,,,,,,,,,,
harvest,116,497990,0.0-36.0-1.0,"""event"",""trial"",""time""
""fullscreenenter"",""1"",""13903""
","
","
","""event"",""trial"",""time""
""fullscreenenter"",""1"",""13903""
","
",,null,run_exp/static/images/task_images/gems/49.jpg,null,,,,,,,22,,,5,,,,,49,0.454792063,0.448979592,,,,,,,
decision,117,498162,0.0-36.0-2.0,"""event"",""trial"",""time""
""fullscreenenter"",""1"",""13903""
","
","
","""event"",""trial"",""time""
""fullscreenenter"",""1"",""13903""
","
",,170.3,run_exp/static/images/task_images/land.jpg,65,,,,,,,22,,,5,,,,,,,,120184,1,1,FALSE,,,
dig,118,501007,0.0-37.0-0.0,"""event"",""trial"",""time""
""fullscreenenter"",""1"",""13903""
","
","
","""event"",""trial"",""time""
""fullscreenenter"",""1"",""13903""
","
",,,,,,,,,,,,"[{""stimulus"":""run_exp/static/images/task_images/dig.jpg"",""time"":0.19999998807907104},{""stimulus"":""run_exp/static/images/task_images/land.jpg"",""time"":948.1999999880791},{""stimulus"":""run_exp/static/images/task_images/dig.jpg"",""time"":1891.8999999761581}]",[],5,,,,,,,,,,,,,,
harvest,119,502023,0.0-37.0-1.0,"""event"",""trial"",""time""
""fullscreenenter"",""1"",""13903""
","
","
","""event"",""trial"",""time""
""fullscreenenter"",""1"",""13903""
","
",,null,run_exp/static/images/task_images/gems/22.jpg,null,,,,,,,11,,,5,,,,,22,0.513396376,0.5,,,,,,,
decision,120,502157,0.0-37.0-2.0,"""event"",""trial"",""time""
""fullscreenenter"",""1"",""13903""
","
","
","""event"",""trial"",""time""
""fullscreenenter"",""1"",""13903""
","
",,127.6,run_exp/static/images/task_images/land.jpg,76,,,,,,,11,,,5,,,,,,,,124180,1,2,TRUE,,,
travel,121,512064,0.0-38.0-0.0,"""event"",""trial"",""time""
""fullscreenenter"",""1"",""13903""
","
","
","""event"",""trial"",""time""
""fullscreenenter"",""1"",""13903""
","
",,,,,,,,,,,,"[{""stimulus"":""run_exp/static/images/task_images/rocket-01.jpg"",""time"":2},{""stimulus"":""run_exp/static/images/task_images/rocket-02.jpg"",""time"":1105.699999988079},{""stimulus"":""run_exp/static/images/task_images/rocket-03.jpg"",""time"":2214.199999988079},{""stimulus"":""run_exp/static/images/task_images/rocket-04.jpg"",""time"":3293.099999964237},{""stimulus"":""run_exp/static/images/task_images/rocket-05.jpg"",""time"":4388.899999976158},{""stimulus"":""run_exp/static/images/task_images/rocket-06.jpg"",""time"":5492.5},{""stimulus"":""run_exp/static/images/task_images/rocket-07.jpg"",""time"":6580.399999976158},{""stimulus"":""run_exp/static/images/task_images/rocket-08.jpg"",""time"":7680.5},{""stimulus"":""run_exp/static/images/task_images/rocket-09.jpg"",""time"":8786.599999964237}]",[],5,,,,,,,,,,,,,,
alien_welcome,122,517081,0.0-38.0-1.0,"""event"",""trial"",""time""
""fullscreenenter"",""1"",""13903""
","
","
","""event"",""trial"",""time""
""fullscreenenter"",""1"",""13903""
","
",,null,run_exp/static/images/task_images/aliens/old_aliens/planet/alien_planet-61.jpg,null,,,,,,,,,,,,,61,"56,73,44,20,72,61,37,76,74,14,3,71,42,53,43,35,75,52,33,36,7,23,28,40,32,1,62,64,13,11,27,60,4,67,15,47,38,5,16,48,46,45,9,12,34",,,,,,,,,,
land,123,517583,0.0-38.0-2.0,"""event"",""trial"",""time""
""fullscreenenter"",""1"",""13903""
","
","
","""event"",""trial"",""time""
""fullscreenenter"",""1"",""13903""
","
",,null,run_exp/static/images/task_images/land.jpg,null,,,,,,,99,,,6,,,,,,,,,,,,,,
dig,124,519593,0.0-38.0-3.0,"""event"",""trial"",""time""
""fullscreenenter"",""1"",""13903""
","
","
","""event"",""trial"",""time""
""fullscreenenter"",""1"",""13903""
","
",,,,,,,,,,,,"[{""stimulus"":""run_exp/static/images/task_images/dig.jpg"",""time"":0.3999999761581421},{""stimulus"":""run_exp/static/images/task_images/land.jpg"",""time"":673.8999999761581},{""stimulus"":""run_exp/static/images/task_images/dig.jpg"",""time"":1349.699999988079}]",[],6,,,,,,,,,,,,,,
harvest,125,520610,0.0-38.0-4.0,"""event"",""trial"",""time""
""fullscreenenter"",""1"",""13903""
","
","
","""event"",""trial"",""time""
""fullscreenenter"",""1"",""13903""
","
",,null,run_exp/static/images/task_images/gems/99.jpg,null,,,,,,,70,,,6,,,,,99,0.707582111,0.707070707,,,,,,,
decision,126,520965,0.0-38.0-5.0,"""event"",""trial"",""time""
""fullscreenenter"",""1"",""13903""
","
","
","""event"",""trial"",""time""
""fullscreenenter"",""1"",""13903""
","
",,353.9,run_exp/static/images/task_images/land.jpg,65,,,,,,,70,,,6,,,,,,,,142987,1,0,FALSE,,,
dig,127,523628,0.0-39.0-0.0,"""event"",""trial"",""time""
""fullscreenenter"",""1"",""13903""
","
","
","""event"",""trial"",""time""
""fullscreenenter"",""1"",""13903""
","
",,,,,,,,,,,,"[{""stimulus"":""run_exp/static/images/task_images/dig.jpg"",""time"":0.10000002384185791},{""stimulus"":""run_exp/static/images/task_images/land.jpg"",""time"":883.1000000238419},{""stimulus"":""run_exp/static/images/task_images/dig.jpg"",""time"":1770.6000000238419}]",[],6,,,,,,,,,,,,,,
harvest,128,524645,0.0-39.0-1.0,"""event"",""trial"",""time""
""fullscreenenter"",""1"",""13903""
","
","
","""event"",""trial"",""time""
""fullscreenenter"",""1"",""13903""
","
",,null,run_exp/static/images/task_images/gems/70.jpg,null,,,,,,,58,,,6,,,,,70,0.823036402,0.828571429,,,,,,,
decision,129,524741,0.0-39.0-2.0,"""event"",""trial"",""time""
""fullscreenenter"",""1"",""13903""
","
","
","""event"",""trial"",""time""
""fullscreenenter"",""1"",""13903""
","
",,94.19999999,run_exp/static/images/task_images/land.jpg,65,,,,,,,58,,,6,,,,,,,,146763,1,1,FALSE,,,
dig,130,527662,0.0-40.0-0.0,"""event"",""trial"",""time""
""fullscreenenter"",""1"",""13903""
","
","
","""event"",""trial"",""time""
""fullscreenenter"",""1"",""13903""
","
",,,,,,,,,,,,"[{""stimulus"":""run_exp/static/images/task_images/dig.jpg"",""time"":0.30000001192092896},{""stimulus"":""run_exp/static/images/task_images/land.jpg"",""time"":979.5999999642372},{""stimulus"":""run_exp/static/images/task_images/dig.jpg"",""time"":1947.5}]",[],6,,,,,,,,,,,,,,
harvest,131,528667,0.0-40.0-1.0,"""event"",""trial"",""time""
""fullscreenenter"",""1"",""13903""
","
","
","""event"",""trial"",""time""
""fullscreenenter"",""1"",""13903""
","
",,null,run_exp/static/images/task_images/gems/58.jpg,null,,,,,,,45,,,6,,,,,58,0.770427109,0.775862069,,,,,,,
decision,132,528722,0.0-40.0-2.0,"""event"",""trial"",""time""
""fullscreenenter"",""1"",""13903""
","
","
","""event"",""trial"",""time""
""fullscreenenter"",""1"",""13903""
","
",,53.30000001,run_exp/static/images/task_images/land.jpg,65,,,,,,,45,,,6,,,,,,,,150744,1,2,FALSE,,,
dig,133,531688,0.0-41.0-0.0,"""event"",""trial"",""time""
""fullscreenenter"",""1"",""13903""
","
","
","""event"",""trial"",""time""
""fullscreenenter"",""1"",""13903""
","
",,,,,,,,,,,,"[{""stimulus"":""run_exp/static/images/task_images/dig.jpg"",""time"":0.10000002384185791},{""stimulus"":""run_exp/static/images/task_images/land.jpg"",""time"":992.6000000238419},{""stimulus"":""run_exp/static/images/task_images/dig.jpg"",""time"":1975.2000000476837}]",[],6,,,,,,,,,,,,,,
harvest,134,532702,0.0-41.0-1.0,"""event"",""trial"",""time""
""fullscreenenter"",""1"",""13903""
","
","
","""event"",""trial"",""time""
""fullscreenenter"",""1"",""13903""
","
",,null,run_exp/static/images/task_images/gems/45.jpg,null,,,,,,,40,,,6,,,,,45,0.894499434,0.888888889,,,,,,,
decision,135,534047,0.0-41.0-2.0,"""event"",""trial"",""time""
""fullscreenenter"",""1"",""13903""
","
","
","""event"",""trial"",""time""
""fullscreenenter"",""1"",""13903""
","
",,1342.4,run_exp/static/images/task_images/land.jpg,65,,,,,,,40,,,6,,,,,,,,156069,1,3,FALSE,,,
dig,136,535710,0.0-42.0-0.0,"""event"",""trial"",""time""
""fullscreenenter"",""1"",""13903""
","
","
","""event"",""trial"",""time""
""fullscreenenter"",""1"",""13903""
","
",,,,,,,,,,,,"[{""stimulus"":""run_exp/static/images/task_images/dig.jpg"",""time"":0.30000001192092896},{""stimulus"":""run_exp/static/images/task_images/land.jpg"",""time"":555.5999999642372},{""stimulus"":""run_exp/static/images/task_images/dig.jpg"",""time"":1107.300000011921}]",[],6,,,,,,,,,,,,,,
harvest,137,536717,0.0-42.0-1.0,"""event"",""trial"",""time""
""fullscreenenter"",""1"",""13903""
","
","
","""event"",""trial"",""time""
""fullscreenenter"",""1"",""13903""
","
",,null,run_exp/static/images/task_images/gems/40.jpg,null,,,,,,,30,,,6,,,,,40,0.74632038,0.75,,,,,,,
decision,138,538358,0.0-42.0-2.0,"""event"",""trial"",""time""
""fullscreenenter"",""1"",""13903""
","
","
","""event"",""trial"",""time""
""fullscreenenter"",""1"",""13903""
","
",,1634.7,run_exp/static/images/task_images/land.jpg,65,,,,,,,30,,,6,,,,,,,,160381,1,4,FALSE,,,
dig,139,539756,0.0-43.0-0.0,"""event"",""trial"",""time""
""fullscreenenter"",""1"",""13903""
","
","
","""event"",""trial"",""time""
""fullscreenenter"",""1"",""13903""
","
",,,,,,,,,,,,"[{""stimulus"":""run_exp/static/images/task_images/dig.jpg"",""time"":1.800000011920929},{""stimulus"":""run_exp/static/images/task_images/land.jpg"",""time"":461.69999998807907},{""stimulus"":""run_exp/static/images/task_images/dig.jpg"",""time"":916.1999999880791}]",[],6,,,,,,,,,,,,,,
harvest,140,540769,0.0-43.0-1.0,"""event"",""trial"",""time""
""fullscreenenter"",""1"",""13903""
","
","
","""event"",""trial"",""time""
""fullscreenenter"",""1"",""13903""
","
",,null,run_exp/static/images/task_images/gems/30.jpg,null,,,,,,,24,,,6,,,,,30,0.798315754,0.8,,,,,,,
decision,141,541094,0.0-43.0-2.0,"""event"",""trial"",""time""
""fullscreenenter"",""1"",""13903""
","
","
","""event"",""trial"",""time""
""fullscreenenter"",""1"",""13903""
","
",,323.1,run_exp/static/images/task_images/land.jpg,76,,,,,,,24,,,6,,,,,,,,163116,1,5,TRUE,,,
travel,142,550786,0.0-44.0-0.0,"""event"",""trial"",""time""
""fullscreenenter"",""1"",""13903""
","
","
","""event"",""trial"",""time""
""fullscreenenter"",""1"",""13903""
","
",,,,,,,,,,,,"[{""stimulus"":""run_exp/static/images/task_images/rocket-01.jpg"",""time"":0.09999996423721313},{""stimulus"":""run_exp/static/images/task_images/rocket-02.jpg"",""time"":1081.5},{""stimulus"":""run_exp/static/images/task_images/rocket-03.jpg"",""time"":2150.899999976158},{""stimulus"":""run_exp/static/images/task_images/rocket-04.jpg"",""time"":3226.099999964237},{""stimulus"":""run_exp/static/images/task_images/rocket-05.jpg"",""time"":4301},{""stimulus"":""run_exp/static/images/task_images/rocket-06.jpg"",""time"":5376.699999988079},{""stimulus"":""run_exp/static/images/task_images/rocket-07.jpg"",""time"":6451.399999976158},{""stimulus"":""run_exp/static/images/task_images/rocket-08.jpg"",""time"":7526.299999952316},{""stimulus"":""run_exp/static/images/task_images/rocket-09.jpg"",""time"":8604.899999976158}]",[],6,,,,,,,,,,,,,,
alien_welcome,143,555803,0.0-44.0-1.0,"""event"",""trial"",""time""
""fullscreenenter"",""1"",""13903""
","
","
","""event"",""trial"",""time""
""fullscreenenter"",""1"",""13903""
","
",,null,run_exp/static/images/task_images/aliens/old_aliens/planet/alien_planet-37.jpg,null,,,,,,,,,,,,,37,"56,73,44,20,72,61,37,76,74,14,3,71,42,53,43,35,75,52,33,36,7,23,28,40,32,1,62,64,13,11,27,60,4,67,15,47,38,5,16,48,46,45,9,12,34",,,,,,,,,,
land,144,556305,0.0-44.0-2.0,"""event"",""trial"",""time""
""fullscreenenter"",""1"",""13903""
","
","
","""event"",""trial"",""time""
""fullscreenenter"",""1"",""13903""
","
",,null,run_exp/static/images/task_images/land.jpg,null,,,,,,,91,,,7,,,,,,,,,,,,,,
dig,145,558315,0.0-44.0-3.0,"""event"",""trial"",""time""
""fullscreenenter"",""1"",""13903""
","
","
","""event"",""trial"",""time""
""fullscreenenter"",""1"",""13903""
","
",,,,,,,,,,,,"[{""stimulus"":""run_exp/static/images/task_images/dig.jpg"",""time"":0.30000001192092896},{""stimulus"":""run_exp/static/images/task_images/land.jpg"",""time"":671.3999999761581},{""stimulus"":""run_exp/static/images/task_images/dig.jpg"",""time"":1348.6000000238419}]",[],7,,,,,,,,,,,,,,
harvest,146,559324,0.0-44.0-4.0,"""event"",""trial"",""time""
""fullscreenenter"",""1"",""13903""
","
","
","""event"",""trial"",""time""
""fullscreenenter"",""1"",""13903""
","
",,null,run_exp/static/images/task_images/gems/91.jpg,null,,,,,,,76,,,7,,,,,91,0.83424845,0.835164835,,,,,,,
decision,147,559692,0.0-44.0-5.0,"""event"",""trial"",""time""
""fullscreenenter"",""1"",""13903""
","
","
","""event"",""trial"",""time""
""fullscreenenter"",""1"",""13903""
","
",,365.7,run_exp/static/images/task_images/land.jpg,65,,,,,,,76,,,7,,,,,,,,181714,1,0,FALSE,,,
dig,148,562335,0.0-45.0-0.0,"""event"",""trial"",""time""
""fullscreenenter"",""1"",""13903""
","
","
","""event"",""trial"",""time""
""fullscreenenter"",""1"",""13903""
","
",,,,,,,,,,,,"[{""stimulus"":""run_exp/static/images/task_images/dig.jpg"",""time"":0.3999999761581421},{""stimulus"":""run_exp/static/images/task_images/land.jpg"",""time"":891.5},{""stimulus"":""run_exp/static/images/task_images/dig.jpg"",""time"":1764.800000011921}]",[],7,,,,,,,,,,,,,,
harvest,149,563341,0.0-45.0-1.0,"""event"",""trial"",""time""
""fullscreenenter"",""1"",""13903""
","
","
","""event"",""trial"",""time""
""fullscreenenter"",""1"",""13903""
","
",,null,run_exp/static/images/task_images/gems/76.jpg,null,,,,,,,52,,,7,,,,,76,0.68877382,0.684210526,,,,,,,
decision,150,563732,0.0-45.0-2.0,"""event"",""trial"",""time""
""fullscreenenter"",""1"",""13903""
","
","
","""event"",""trial"",""time""
""fullscreenenter"",""1"",""13903""
","
",,389,run_exp/static/images/task_images/land.jpg,65,,,,,,,52,,,7,,,,,,,,185754,1,1,FALSE,,,
dig,151,566354,0.0-46.0-0.0,"""event"",""trial"",""time""
""fullscreenenter"",""1"",""13903""
","
","
","""event"",""trial"",""time""
""fullscreenenter"",""1"",""13903""
","
",,,,,,,,,,,,"[{""stimulus"":""run_exp/static/images/task_images/dig.jpg"",""time"":0.19999998807907104},{""stimulus"":""run_exp/static/images/task_images/land.jpg"",""time"":871.3999999761581},{""stimulus"":""run_exp/static/images/task_images/dig.jpg"",""time"":1743}]",[],7,,,,,,,,,,,,,,
harvest,152,567369,0.0-46.0-1.0,"""event"",""trial"",""time""
""fullscreenenter"",""1"",""13903""
","
","
","""event"",""trial"",""time""
""fullscreenenter"",""1"",""13903""
","
",,null,run_exp/static/images/task_images/gems/52.jpg,null,,,,,,,45,,,7,,,,,52,0.868514788,0.865384615,,,,,,,
decision,153,568042,0.0-46.0-2.0,"""event"",""trial"",""time""
""fullscreenenter"",""1"",""13903""
","
","
","""event"",""trial"",""time""
""fullscreenenter"",""1"",""13903""
","
",,670.9,run_exp/static/images/task_images/land.jpg,65,,,,,,,45,,,7,,,,,,,,190064,1,2,FALSE,,,
dig,154,570388,0.0-47.0-0.0,"""event"",""trial"",""time""
""fullscreenenter"",""1"",""13903""
","
","
","""event"",""trial"",""time""
""fullscreenenter"",""1"",""13903""
","
",,,,,,,,,,,,"[{""stimulus"":""run_exp/static/images/task_images/dig.jpg"",""time"":0.09999996423721313},{""stimulus"":""run_exp/static/images/task_images/land.jpg"",""time"":778.8000000119209},{""stimulus"":""run_exp/static/images/task_images/dig.jpg"",""time"":1559.699999988079}]",[],7,,,,,,,,,,,,,,
harvest,155,571392,0.0-47.0-1.0,"""event"",""trial"",""time""
""fullscreenenter"",""1"",""13903""
","
","
","""event"",""trial"",""time""
""fullscreenenter"",""1"",""13903""
","
",,null,run_exp/static/images/task_images/gems/45.jpg,null,,,,,,,35,,,7,,,,,45,0.783496428,0.777777778,,,,,,,
decision,156,572628,0.0-47.0-2.0,"""event"",""trial"",""time""
""fullscreenenter"",""1"",""13903""
","
","
","""event"",""trial"",""time""
""fullscreenenter"",""1"",""13903""
","
",,1234.3,run_exp/static/images/task_images/land.jpg,65,,,,,,,35,,,7,,,,,,,,194650,1,3,FALSE,,,
dig,157,574402,0.0-48.0-0.0,"""event"",""trial"",""time""
""fullscreenenter"",""1"",""13903""
","
","
","""event"",""trial"",""time""
""fullscreenenter"",""1"",""13903""
","
",,,,,,,,,,,,"[{""stimulus"":""run_exp/static/images/task_images/dig.jpg"",""time"":0.30000001192092896},{""stimulus"":""run_exp/static/images/task_images/land.jpg"",""time"":600.7000000476837},{""stimulus"":""run_exp/static/images/task_images/dig.jpg"",""time"":1177.2000000476837}]",[],7,,,,,,,,,,,,,,
harvest,158,575414,0.0-48.0-1.0,"""event"",""trial"",""time""
""fullscreenenter"",""1"",""13903""
","
","
","""event"",""trial"",""time""
""fullscreenenter"",""1"",""13903""
","
",,null,run_exp/static/images/task_images/gems/35.jpg,null,,,,,,,24,,,7,,,,,35,0.692118804,0.685714286,,,,,,,
decision,159,576183,0.0-48.0-2.0,"""event"",""trial"",""time""
""fullscreenenter"",""1"",""13903""
","
","
","""event"",""trial"",""time""
""fullscreenenter"",""1"",""13903""
","
",,766.8,run_exp/static/images/task_images/land.jpg,76,,,,,,,24,,,7,,,,,,,,198205,1,4,TRUE,,,
travel,160,585421,0.0-49.0-0.0,"""event"",""trial"",""time""
""fullscreenenter"",""1"",""13903""
","
","
","""event"",""trial"",""time""
""fullscreenenter"",""1"",""13903""
","
",,,,,,,,,,,,"[{""stimulus"":""run_exp/static/images/task_images/rocket-01.jpg"",""time"":0.19999998807907104},{""stimulus"":""run_exp/static/images/task_images/rocket-02.jpg"",""time"":1040},{""stimulus"":""run_exp/static/images/task_images/rocket-03.jpg"",""time"":2056},{""stimulus"":""run_exp/static/images/task_images/rocket-04.jpg"",""time"":3084.800000011921},{""stimulus"":""run_exp/static/images/task_images/rocket-05.jpg"",""time"":4101.400000035763},{""stimulus"":""run_exp/static/images/task_images/rocket-06.jpg"",""time"":5126},{""stimulus"":""run_exp/static/images/task_images/rocket-07.jpg"",""time"":6151.199999988079},{""stimulus"":""run_exp/static/images/task_images/rocket-08.jpg"",""time"":7189.300000011921},{""stimulus"":""run_exp/static/images/task_images/rocket-09.jpg"",""time"":8205.800000011921}]",[],7,,,,,,,,,,,,,,
alien_welcome,161,590431,0.0-49.0-1.0,"""event"",""trial"",""time""
""fullscreenenter"",""1"",""13903""
","
","
","""event"",""trial"",""time""
""fullscreenenter"",""1"",""13903""
","
",,null,run_exp/static/images/task_images/aliens/old_aliens/planet/alien_planet-76.jpg,null,,,,,,,,,,,,,76,"56,73,44,20,72,61,37,76,74,14,3,71,42,53,43,35,75,52,33,36,7,23,28,40,32,1,62,64,13,11,27,60,4,67,15,47,38,5,16,48,46,45,9,12,34",,,,,,,,,,
land,162,590943,0.0-49.0-2.0,"""event"",""trial"",""time""
""fullscreenenter"",""1"",""13903""
","
","
","""event"",""trial"",""time""
""fullscreenenter"",""1"",""13903""
","
",,null,run_exp/static/images/task_images/land.jpg,null,,,,,,,104,,,8,,,,,,,,,,,,,,
dig,163,592955,0.0-49.0-3.0,"""event"",""trial"",""time""
""fullscreenenter"",""1"",""13903""
","
","
","""event"",""trial"",""time""
""fullscreenenter"",""1"",""13903""
","
",,,,,,,,,,,,"[{""stimulus"":""run_exp/static/images/task_images/dig.jpg"",""time"":0.30000001192092896},{""stimulus"":""run_exp/static/images/task_images/land.jpg"",""time"":670},{""stimulus"":""run_exp/static/images/task_images/dig.jpg"",""time"":1338.800000011921}]",[],8,,,,,,,,,,,,,,
harvest,164,593968,0.0-49.0-4.0,"""event"",""trial"",""time""
""fullscreenenter"",""1"",""13903""
","
","
","""event"",""trial"",""time""
""fullscreenenter"",""1"",""13903""
","
",,null,run_exp/static/images/task_images/gems/104.jpg,null,,,,,,,87,,,8,,,,,104,0.839745323,0.836538462,,,,,,,
decision,165,594348,0.0-49.0-5.0,"""event"",""trial"",""time""
""fullscreenenter"",""1"",""13903""
","
","
","""event"",""trial"",""time""
""fullscreenenter"",""1"",""13903""
","
",,378.5,run_exp/static/images/task_images/land.jpg,65,,,,,,,87,,,8,,,,,,,,216370,1,0,FALSE,,,
dig,166,596979,0.0-50.0-0.0,"""event"",""trial"",""time""
""fullscreenenter"",""1"",""13903""
","
","
","""event"",""trial"",""time""
""fullscreenenter"",""1"",""13903""
","
",,,,,,,,,,,,"[{""stimulus"":""run_exp/static/images/task_images/dig.jpg"",""time"":0.19999998807907104},{""stimulus"":""run_exp/static/images/task_images/land.jpg"",""time"":878.5},{""stimulus"":""run_exp/static/images/task_images/dig.jpg"",""time"":1754.8999999761581}]",[],8,,,,,,,,,,,,,,
harvest,167,597992,0.0-50.0-1.0,"""event"",""trial"",""time""
""fullscreenenter"",""1"",""13903""
","
","
","""event"",""trial"",""time""
""fullscreenenter"",""1"",""13903""
","
",,null,run_exp/static/images/task_images/gems/87.jpg,null,,,,,,,69,,,8,,,,,87,0.793482812,0.793103448,,,,,,,
decision,168,599205,0.0-50.0-2.0,"""event"",""trial"",""time""
""fullscreenenter"",""1"",""13903""
","
","
","""event"",""trial"",""time""
""fullscreenenter"",""1"",""13903""
","
",,1211.9,run_exp/static/images/task_images/land.jpg,65,,,,,,,69,,,8,,,,,,,,221228,1,1,FALSE,,,
dig,169,601012,0.0-51.0-0.0,"""event"",""trial"",""time""
""fullscreenenter"",""1"",""13903""
","
","
","""event"",""trial"",""time""
""fullscreenenter"",""1"",""13903""
","
",,,,,,,,,,,,"[{""stimulus"":""run_exp/static/images/task_images/dig.jpg"",""time"":0.2999999523162842},{""stimulus"":""run_exp/static/images/task_images/land.jpg"",""time"":611.5},{""stimulus"":""run_exp/static/images/task_images/dig.jpg"",""time"":1196.199999988079}]",[],8,,,,,,,,,,,,,,
harvest,170,602024,0.0-51.0-1.0,"""event"",""trial"",""time""
""fullscreenenter"",""1"",""13903""
","
","
","""event"",""trial"",""time""
""fullscreenenter"",""1"",""13903""
","
",,null,run_exp/static/images/task_images/gems/69.jpg,null,,,,,,,48,,,8,,,,,69,0.701911418,0.695652174,,,,,,,
decision,171,602112,0.0-51.0-2.0,"""event"",""trial"",""time""
""fullscreenenter"",""1"",""13903""
","
","
","""event"",""trial"",""time""
""fullscreenenter"",""1"",""13903""
","
",,86.19999999,run_exp/static/images/task_images/land.jpg,65,,,,,,,48,,,8,,,,,,,,224134,1,2,FALSE,,,
dig,172,605032,0.0-52.0-0.0,"""event"",""trial"",""time""
""fullscreenenter"",""1"",""13903""
","
","
","""event"",""trial"",""time""
""fullscreenenter"",""1"",""13903""
","
",,,,,,,,,,,,"[{""stimulus"":""run_exp/static/images/task_images/dig.jpg"",""time"":0.30000001192092896},{""stimulus"":""run_exp/static/images/task_images/land.jpg"",""time"":986.9000000357628},{""stimulus"":""run_exp/static/images/task_images/dig.jpg"",""time"":1957.6000000238419}]",[],8,,,,,,,,,,,,,,
harvest,173,606047,0.0-52.0-1.0,"""event"",""trial"",""time""
""fullscreenenter"",""1"",""13903""
","
","
","""event"",""trial"",""time""
""fullscreenenter"",""1"",""13903""
","
",,null,run_exp/static/images/task_images/gems/48.jpg,null,,,,,,,36,,,8,,,,,48,0.756191198,0.75,,,,,,,
decision,174,607504,0.0-52.0-2.0,"""event"",""trial"",""time""
""fullscreenenter"",""1"",""13903""
","
","
","""event"",""trial"",""time""
""fullscreenenter"",""1"",""13903""
","
",,1449.8,run_exp/static/images/task_images/land.jpg,76,,,,,,,36,,,8,,,,,,,,229527,1,3,TRUE,,,
travel,175,616097,0.0-53.0-0.0,"""event"",""trial"",""time""
""fullscreenenter"",""1"",""13903""
","
","
","""event"",""trial"",""time""
""fullscreenenter"",""1"",""13903""
","
",,,,,,,,,,,,"[{""stimulus"":""run_exp/static/images/task_images/rocket-01.jpg"",""time"":1.300000011920929},{""stimulus"":""run_exp/static/images/task_images/rocket-02.jpg"",""time"":955.9000000357628},{""stimulus"":""run_exp/static/images/task_images/rocket-03.jpg"",""time"":1907.5},{""stimulus"":""run_exp/static/images/task_images/rocket-04.jpg"",""time"":2864.800000011921},{""stimulus"":""run_exp/static/images/task_images/rocket-05.jpg"",""time"":3814.300000011921},{""stimulus"":""run_exp/static/images/task_images/rocket-06.jpg"",""time"":4768},{""stimulus"":""run_exp/static/images/task_images/rocket-07.jpg"",""time"":5703.700000047684},{""stimulus"":""run_exp/static/images/task_images/rocket-08.jpg"",""time"":6664.600000023842},{""stimulus"":""run_exp/static/images/task_images/rocket-09.jpg"",""time"":7604.400000035763}]",[],8,,,,,,,,,,,,,,
alien_welcome,176,621102,0.0-53.0-1.0,"""event"",""trial"",""time""
""fullscreenenter"",""1"",""13903""
","
","
","""event"",""trial"",""time""
""fullscreenenter"",""1"",""13903""
","
",,null,run_exp/static/images/task_images/aliens/old_aliens/planet/alien_planet-74.jpg,null,,,,,,,,,,,,,74,"56,73,44,20,72,61,37,76,74,14,3,71,42,53,43,35,75,52,33,36,7,23,28,40,32,1,62,64,13,11,27,60,4,67,15,47,38,5,16,48,46,45,9,12,34",,,,,,,,,,
land,177,621618,0.0-53.0-2.0,"""event"",""trial"",""time""
""fullscreenenter"",""1"",""13903""
","
","
","""event"",""trial"",""time""
""fullscreenenter"",""1"",""13903""
","
",,null,run_exp/static/images/task_images/land.jpg,null,,,,,,,96,,,9,,,,,,,,,,,,,,
dig,178,623633,0.0-53.0-3.0,"""event"",""trial"",""time""
""fullscreenenter"",""1"",""13903""
","
","
","""event"",""trial"",""time""
""fullscreenenter"",""1"",""13903""
","
",,,,,,,,,,,,"[{""stimulus"":""run_exp/static/images/task_images/dig.jpg"",""time"":0.40000003576278687},{""stimulus"":""run_exp/static/images/task_images/land.jpg"",""time"":669.8000000119209},{""stimulus"":""run_exp/static/images/task_images/dig.jpg"",""time"":1340.5}]",[],9,,,,,,,,,,,,,,
harvest,179,624647,0.0-53.0-4.0,"""event"",""trial"",""time""
""fullscreenenter"",""1"",""13903""
","
","
","""event"",""trial"",""time""
""fullscreenenter"",""1"",""13903""
","
",,null,run_exp/static/images/task_images/gems/96.jpg,null,,,,,,,14,,,9,,,,,96,0.14584902,0.145833333,,,,,,,
decision,180,624730,0.0-53.0-5.0,"""event"",""trial"",""time""
""fullscreenenter"",""1"",""13903""
","
","
","""event"",""trial"",""time""
""fullscreenenter"",""1"",""13903""
","
",,82.60000002,run_exp/static/images/task_images/land.jpg,65,,,,,,,14,,,9,,,,,,,,246752,1,0,FALSE,,,
dig,181,627662,0.0-54.0-0.0,"""event"",""trial"",""time""
""fullscreenenter"",""1"",""13903""
","
","
","""event"",""trial"",""time""
""fullscreenenter"",""1"",""13903""
","
",,,,,,,,,,,,"[{""stimulus"":""run_exp/static/images/task_images/dig.jpg"",""time"":0.30000001192092896},{""stimulus"":""run_exp/static/images/task_images/land.jpg"",""time"":976.3000000119209},{""stimulus"":""run_exp/static/images/task_images/dig.jpg"",""time"":1948.1000000238419}]",[],9,,,,,,,,,,,,,,
harvest,182,628677,0.0-54.0-1.0,"""event"",""trial"",""time""
""fullscreenenter"",""1"",""13903""
","
","
","""event"",""trial"",""time""
""fullscreenenter"",""1"",""13903""
","
",,null,run_exp/static/images/task_images/gems/14.jpg,null,,,,,,,2,,,9,,,,,14,0.165271061,0.142857143,,,,,,,
decision,183,628939,0.0-54.0-2.0,"""event"",""trial"",""time""
""fullscreenenter"",""1"",""13903""
","
","
","""event"",""trial"",""time""
""fullscreenenter"",""1"",""13903""
","
",,259.2,run_exp/static/images/task_images/land.jpg,76,,,,,,,2,,,9,,,,,,,,250962,1,1,TRUE,,,
travel,184,638721,0.0-55.0-0.0,"""event"",""trial"",""time""
""fullscreenenter"",""1"",""13903""
","
","
","""event"",""trial"",""time""
""fullscreenenter"",""1"",""13903""
","
",,,,,,,,,,,,"[{""stimulus"":""run_exp/static/images/task_images/rocket-01.jpg"",""time"":1.199999988079071},{""stimulus"":""run_exp/static/images/task_images/rocket-02.jpg"",""time"":1104.699999988079},{""stimulus"":""run_exp/static/images/task_images/rocket-03.jpg"",""time"":2182.099999964237},{""stimulus"":""run_exp/static/images/task_images/rocket-04.jpg"",""time"":3263.300000011921},{""stimulus"":""run_exp/static/images/task_images/rocket-05.jpg"",""time"":4338.5},{""stimulus"":""run_exp/static/images/task_images/rocket-06.jpg"",""time"":5414.399999976158},{""stimulus"":""run_exp/static/images/task_images/rocket-07.jpg"",""time"":6496.699999988079},{""stimulus"":""run_exp/static/images/task_images/rocket-08.jpg"",""time"":7578.5},{""stimulus"":""run_exp/static/images/task_images/rocket-09.jpg"",""time"":8672}]",[],9,,,,,,,,,,,,,,
alien_welcome,185,643725,0.0-55.0-1.0,"""event"",""trial"",""time""
""fullscreenenter"",""1"",""13903""
","
","
","""event"",""trial"",""time""
""fullscreenenter"",""1"",""13903""
","
",,null,run_exp/static/images/task_images/aliens/old_aliens/planet/alien_planet-14.jpg,null,,,,,,,,,,,,,14,"56,73,44,20,72,61,37,76,74,14,3,71,42,53,43,35,75,52,33,36,7,23,28,40,32,1,62,64,13,11,27,60,4,67,15,47,38,5,16,48,46,45,9,12,34",,,,,,,,,,
land,186,644240,0.0-55.0-2.0,"""event"",""trial"",""time""
""fullscreenenter"",""1"",""13903""
","
","
","""event"",""trial"",""time""
""fullscreenenter"",""1"",""13903""
","
",,null,run_exp/static/images/task_images/land.jpg,null,,,,,,,99,,,10,,,,,,,,,,,,,,
dig,187,646257,0.0-55.0-3.0,"""event"",""trial"",""time""
""fullscreenenter"",""1"",""13903""
","
","
","""event"",""trial"",""time""
""fullscreenenter"",""1"",""13903""
","
",,,,,,,,,,,,"[{""stimulus"":""run_exp/static/images/task_images/dig.jpg"",""time"":1.399999976158142},{""stimulus"":""run_exp/static/images/task_images/land.jpg"",""time"":670.3999999761581},{""stimulus"":""run_exp/static/images/task_images/dig.jpg"",""time"":1352.5}]",[],10,,,,,,,,,,,,,,
harvest,188,647274,0.0-55.0-4.0,"""event"",""trial"",""time""
""fullscreenenter"",""1"",""13903""
","
","
","""event"",""trial"",""time""
""fullscreenenter"",""1"",""13903""
","
",,null,run_exp/static/images/task_images/gems/99.jpg,null,,,,,,,25,,,10,,,,,99,0.256002593,0.252525253,,,,,,,
decision,189,647931,0.0-55.0-5.0,"""event"",""trial"",""time""
""fullscreenenter"",""1"",""13903""
","
","
","""event"",""trial"",""time""
""fullscreenenter"",""1"",""13903""
","
",,654.7,run_exp/static/images/task_images/land.jpg,65,,,,,,,25,,,10,,,,,,,,269953,1,0,FALSE,,,
dig,190,650290,0.0-56.0-0.0,"""event"",""trial"",""time""
""fullscreenenter"",""1"",""13903""
","
","
","""event"",""trial"",""time""
""fullscreenenter"",""1"",""13903""
","
",,,,,,,,,,,,"[{""stimulus"":""run_exp/static/images/task_images/dig.jpg"",""time"":0.09999996423721313},{""stimulus"":""run_exp/static/images/task_images/land.jpg"",""time"":784.1999999880791},{""stimulus"":""run_exp/static/images/task_images/dig.jpg"",""time"":1575.800000011921}]",[],10,,,,,,,,,,,,,,
harvest,191,651292,0.0-56.0-1.0,"""event"",""trial"",""time""
""fullscreenenter"",""1"",""13903""
","
","
","""event"",""trial"",""time""
""fullscreenenter"",""1"",""13903""
","
",,null,run_exp/static/images/task_images/gems/25.jpg,null,,,,,,,5,,,10,,,,,25,0.199937364,0.2,,,,,,,
decision,192,651374,0.0-56.0-2.0,"""event"",""trial"",""time""
""fullscreenenter"",""1"",""13903""
","
","
","""event"",""trial"",""time""
""fullscreenenter"",""1"",""13903""
","
",,80.60000002,run_exp/static/images/task_images/land.jpg,76,,,,,,,5,,,10,,,,,,,,273396,1,1,TRUE,,,
travel,193,661306,0.0-57.0-0.0,"""event"",""trial"",""time""
""fullscreenenter"",""1"",""13903""
","
","
","""event"",""trial"",""time""
""fullscreenenter"",""1"",""13903""
","
",,,,,,,,,,,,"[{""stimulus"":""run_exp/static/images/task_images/rocket-01.jpg"",""time"":0.20000004768371582},{""stimulus"":""run_exp/static/images/task_images/rocket-02.jpg"",""time"":1104.300000011921},{""stimulus"":""run_exp/static/images/task_images/rocket-03.jpg"",""time"":2219.600000023842},{""stimulus"":""run_exp/static/images/task_images/rocket-04.jpg"",""time"":3307.400000035763},{""stimulus"":""run_exp/static/images/task_images/rocket-05.jpg"",""time"":4409.600000023842},{""stimulus"":""run_exp/static/images/task_images/rocket-06.jpg"",""time"":5526},{""stimulus"":""run_exp/static/images/task_images/rocket-07.jpg"",""time"":6620.800000011921},{""stimulus"":""run_exp/static/images/task_images/rocket-08.jpg"",""time"":7717.5},{""stimulus"":""run_exp/static/images/task_images/rocket-09.jpg"",""time"":8819}]",[],10,,,,,,,,,,,,,,
alien_welcome,194,666329,0.0-57.0-1.0,"""event"",""trial"",""time""
""fullscreenenter"",""1"",""13903""
","
","
","""event"",""trial"",""time""
""fullscreenenter"",""1"",""13903""
","
",,null,run_exp/static/images/task_images/aliens/old_aliens/planet/alien_planet-3.jpg,null,,,,,,,,,,,,,3,"56,73,44,20,72,61,37,76,74,14,3,71,42,53,43,35,75,52,33,36,7,23,28,40,32,1,62,64,13,11,27,60,4,67,15,47,38,5,16,48,46,45,9,12,34",,,,,,,,,,
land,195,666843,0.0-57.0-2.0,"""event"",""trial"",""time""
""fullscreenenter"",""1"",""13903""
","
","
","""event"",""trial"",""time""
""fullscreenenter"",""1"",""13903""
","
",,null,run_exp/static/images/task_images/land.jpg,null,,,,,,,103,,,11,,,,,,,,,,,,,,
dig,196,668859,0.0-57.0-3.0,"""event"",""trial"",""time""
""fullscreenenter"",""1"",""13903""
","
","
","""event"",""trial"",""time""
""fullscreenenter"",""1"",""13903""
","
",,,,,,,,,,,,"[{""stimulus"":""run_exp/static/images/task_images/dig.jpg"",""time"":0.40000003576278687},{""stimulus"":""run_exp/static/images/task_images/land.jpg"",""time"":670},{""stimulus"":""run_exp/static/images/task_images/dig.jpg"",""time"":1338.1000000238419}]",[],11,,,,,,,,,,,,,,
harvest,197,669862,0.0-57.0-4.0,"""event"",""trial"",""time""
""fullscreenenter"",""1"",""13903""
","
","
","""event"",""trial"",""time""
""fullscreenenter"",""1"",""13903""
","
",,null,run_exp/static/images/task_images/gems/103.jpg,null,,,,,,,20,,,11,,,,,103,0.190554744,0.194174757,,,,,,,
decision,198,671418,0.0-57.0-5.0,"""event"",""trial"",""time""
""fullscreenenter"",""1"",""13903""
","
","
","""event"",""trial"",""time""
""fullscreenenter"",""1"",""13903""
","
",,1554,run_exp/static/images/task_images/land.jpg,65,,,,,,,20,,,11,,,,,,,,293440,1,0,FALSE,,,
dig,199,672870,0.0-58.0-0.0,"""event"",""trial"",""time""
""fullscreenenter"",""1"",""13903""
","
","
","""event"",""trial"",""time""
""fullscreenenter"",""1"",""13903""
","
",,,,,,,,,,,,"[{""stimulus"":""run_exp/static/images/task_images/dig.jpg"",""time"":0.20000004768371582},{""stimulus"":""run_exp/static/images/task_images/land.jpg"",""time"":495.10000002384186},{""stimulus"":""run_exp/static/images/task_images/dig.jpg"",""time"":967.3000000119209}]",[],11,,,,,,,,,,,,,,
harvest,200,673875,0.0-58.0-1.0,"""event"",""trial"",""time""
""fullscreenenter"",""1"",""13903""
","
","
","""event"",""trial"",""time""
""fullscreenenter"",""1"",""13903""
","
",,null,run_exp/static/images/task_images/gems/20.jpg,null,,,,,,,3,,,11,,,,,20,0.160279353,0.15,,,,,,,
decision,201,674372,0.0-58.0-2.0,"""event"",""trial"",""time""
""fullscreenenter"",""1"",""13903""
","
","
","""event"",""trial"",""time""
""fullscreenenter"",""1"",""13903""
","
",,495.2,run_exp/static/images/task_images/land.jpg,76,,,,,,,3,,,11,,,,,,,,296394,1,1,TRUE,,,
travel,202,683882,0.0-59.0-0.0,"""event"",""trial"",""time""
""fullscreenenter"",""1"",""13903""
","
","
","""event"",""trial"",""time""
""fullscreenenter"",""1"",""13903""
","
",,,,,,,,,,,,"[{""stimulus"":""run_exp/static/images/task_images/rocket-01.jpg"",""time"":0.2999999523162842},{""stimulus"":""run_exp/static/images/task_images/rocket-02.jpg"",""time"":1066.7999999523163},{""stimulus"":""run_exp/static/images/task_images/rocket-03.jpg"",""time"":2114.699999988079},{""stimulus"":""run_exp/static/images/task_images/rocket-04.jpg"",""time"":3181},{""stimulus"":""run_exp/static/images/task_images/rocket-05.jpg"",""time"":4227.899999976158},{""stimulus"":""run_exp/static/images/task_images/rocket-06.jpg"",""time"":5294.599999964237},{""stimulus"":""run_exp/static/images/task_images/rocket-07.jpg"",""time"":6342.299999952316},{""stimulus"":""run_exp/static/images/task_images/rocket-08.jpg"",""time"":7409.199999988079},{""stimulus"":""run_exp/static/images/task_images/rocket-09.jpg"",""time"":8454.299999952316}]",[],11,,,,,,,,,,,,,,
alien_welcome,203,688890,0.0-59.0-1.0,"""event"",""trial"",""time""
""fullscreenenter"",""1"",""13903""
","
","
","""event"",""trial"",""time""
""fullscreenenter"",""1"",""13903""
","
",,null,run_exp/static/images/task_images/aliens/old_aliens/planet/alien_planet-71.jpg,null,,,,,,,,,,,,,71,"56,73,44,20,72,61,37,76,74,14,3,71,42,53,43,35,75,52,33,36,7,23,28,40,32,1,62,64,13,11,27,60,4,67,15,47,38,5,16,48,46,45,9,12,34",,,,,,,,,,
land,204,689393,0.0-59.0-2.0,"""event"",""trial"",""time""
""fullscreenenter"",""1"",""13903""
","
","
","""event"",""trial"",""time""
""fullscreenenter"",""1"",""13903""
","
",,null,run_exp/static/images/task_images/land.jpg,null,,,,,,,98,,,12,,,,,,,,,,,,,,
dig,205,691410,0.0-59.0-3.0,"""event"",""trial"",""time""
""fullscreenenter"",""1"",""13903""
","
","
","""event"",""trial"",""time""
""fullscreenenter"",""1"",""13903""
","
",,,,,,,,,,,,"[{""stimulus"":""run_exp/static/images/task_images/dig.jpg"",""time"":0.40000003576278687},{""stimulus"":""run_exp/static/images/task_images/land.jpg"",""time"":672.3000000119209},{""stimulus"":""run_exp/static/images/task_images/dig.jpg"",""time"":1344.4000000357628}]",[],12,,,,,,,,,,,,,,
harvest,206,692421,0.0-59.0-4.0,"""event"",""trial"",""time""
""fullscreenenter"",""1"",""13903""
","
","
","""event"",""trial"",""time""
""fullscreenenter"",""1"",""13903""
","
",,null,run_exp/static/images/task_images/gems/98.jpg,null,,,,,,,24,,,12,,,,,98,0.244072573,0.244897959,,,,,,,
decision,207,693853,0.0-59.0-5.0,"""event"",""trial"",""time""
""fullscreenenter"",""1"",""13903""
","
","
","""event"",""trial"",""time""
""fullscreenenter"",""1"",""13903""
","
",,1430.2,run_exp/static/images/task_images/land.jpg,65,,,,,,,24,,,12,,,,,,,,315875,1,0,TRUE,,,
end_of_block_continue,208,702694,0.0-60.0-0.0,"""event"",""trial"",""time""
""fullscreenenter"",""1"",""13903""
","
","
","""event"",""trial"",""time""
""fullscreenenter"",""1"",""13903""
","
",,null,run_exp/static/audio/clip_32_block_end.m4a,,,,,,,null,,,,,,,,,,,,,,,,,,
alien_welcome,209,707705,0.0-61.0-0.0,"""event"",""trial"",""time""
""fullscreenenter"",""1"",""13903""
","
","
","""event"",""trial"",""time""
""fullscreenenter"",""1"",""13903""
","
",,null,run_exp/static/images/task_images/aliens/old_aliens/planet/alien_planet-42.jpg,null,,,,,,,,,,,,,42,"56,73,44,20,72,61,37,76,74,14,3,71,42,53,43,35,75,52,33,36,7,23,28,40,32,1,62,64,13,11,27,60,4,67,15,47,38,5,16,48,46,45,9,12,34",,,,,,,,,,
land,210,708221,0.0-61.0-1.0,"""event"",""trial"",""time""
""fullscreenenter"",""1"",""13903""
","
","
","""event"",""trial"",""time""
""fullscreenenter"",""1"",""13903""
","
",,null,run_exp/static/images/task_images/land.jpg,null,,,,,,,104,,,13,,,,,,,,,,,,,,
dig,211,710233,0.0-61.0-2.0,"""event"",""trial"",""time""
""fullscreenenter"",""1"",""13903""
","
","
","""event"",""trial"",""time""
""fullscreenenter"",""1"",""13903""
","
",,,,,,,,,,,,"[{""stimulus"":""run_exp/static/images/task_images/dig.jpg"",""time"":0.40000003576278687},{""stimulus"":""run_exp/static/images/task_images/land.jpg"",""time"":669.6000000238419},{""stimulus"":""run_exp/static/images/task_images/dig.jpg"",""time"":1338.5}]",[],13,,,,,,,,,,,,,,
harvest,212,711248,0.0-61.0-3.0,"""event"",""trial"",""time""
""fullscreenenter"",""1"",""13903""
","
","
","""event"",""trial"",""time""
""fullscreenenter"",""1"",""13903""
","
",,null,run_exp/static/images/task_images/gems/104.jpg,null,,,,,,,23,,,13,,,,,104,0.217220842,0.221153846,,,,,,,
decision,213,711797,0.0-61.0-4.0,"""event"",""trial"",""time""
""fullscreenenter"",""1"",""13903""
","
","
","""event"",""trial"",""time""
""fullscreenenter"",""1"",""13903""
","
",,547.7,run_exp/static/images/task_images/land.jpg,65,,,,,,,23,,,13,,,,,,,,9098,2,0,FALSE,,,
dig,214,714267,0.0-62.0-0.0,"""event"",""trial"",""time""
""fullscreenenter"",""1"",""13903""
","
","
","""event"",""trial"",""time""
""fullscreenenter"",""1"",""13903""
","
",,,,,,,,,,,,"[{""stimulus"":""run_exp/static/images/task_images/dig.jpg"",""time"":0.5},{""stimulus"":""run_exp/static/images/task_images/land.jpg"",""time"":820.1999999880791},{""stimulus"":""run_exp/static/images/task_images/dig.jpg"",""time"":1640.3999999761581}]",[],13,,,,,,,,,,,,,,
harvest,215,715280,0.0-62.0-1.0,"""event"",""trial"",""time""
""fullscreenenter"",""1"",""13903""
","
","
","""event"",""trial"",""time""
""fullscreenenter"",""1"",""13903""
","
",,null,run_exp/static/images/task_images/gems/23.jpg,null,,,,,,,5,,,13,,,,,23,0.21462073,0.217391304,,,,,,,
decision,216,715518,0.0-62.0-2.0,"""event"",""trial"",""time""
""fullscreenenter"",""1"",""13903""
","
","
","""event"",""trial"",""time""
""fullscreenenter"",""1"",""13903""
","
",,236.4,run_exp/static/images/task_images/land.jpg,76,,,,,,,5,,,13,,,,,,,,12819,2,1,TRUE,,,
travel,217,725280,0.0-63.0-0.0,"""event"",""trial"",""time""
""fullscreenenter"",""1"",""13903""
","
","
","""event"",""trial"",""time""
""fullscreenenter"",""1"",""13903""
","
",,,,,,,,,,,,"[{""stimulus"":""run_exp/static/images/task_images/rocket-01.jpg"",""time"":0.09999996423721313},{""stimulus"":""run_exp/static/images/task_images/rocket-02.jpg"",""time"":1084.8999999761581},{""stimulus"":""run_exp/static/images/task_images/rocket-03.jpg"",""time"":2170.099999964237},{""stimulus"":""run_exp/static/images/task_images/rocket-04.jpg"",""time"":3266.099999964237},{""stimulus"":""run_exp/static/images/task_images/rocket-05.jpg"",""time"":4337.199999988079},{""stimulus"":""run_exp/static/images/task_images/rocket-06.jpg"",""time"":5422.199999988079},{""stimulus"":""run_exp/static/images/task_images/rocket-07.jpg"",""time"":6507.699999988079},{""stimulus"":""run_exp/static/images/task_images/rocket-08.jpg"",""time"":7602.199999988079},{""stimulus"":""run_exp/static/images/task_images/rocket-09.jpg"",""time"":8677.899999976158}]",[],13,,,,,,,,,,,,,,
alien_welcome,218,730298,0.0-63.0-1.0,"""event"",""trial"",""time""
""fullscreenenter"",""1"",""13903""
","
","
","""event"",""trial"",""time""
""fullscreenenter"",""1"",""13903""
","
",,null,run_exp/static/images/task_images/aliens/old_aliens/planet/alien_planet-53.jpg,null,,,,,,,,,,,,,53,"56,73,44,20,72,61,37,76,74,14,3,71,42,53,43,35,75,52,33,36,7,23,28,40,32,1,62,64,13,11,27,60,4,67,15,47,38,5,16,48,46,45,9,12,34",,,,,,,,,,
land,219,730813,0.0-63.0-2.0,"""event"",""trial"",""time""
""fullscreenenter"",""1"",""13903""
","
","
","""event"",""trial"",""time""
""fullscreenenter"",""1"",""13903""
","
",,null,run_exp/static/images/task_images/land.jpg,null,,,,,,,101,,,14,,,,,,,,,,,,,,
dig,220,732823,0.0-63.0-3.0,"""event"",""trial"",""time""
""fullscreenenter"",""1"",""13903""
","
","
","""event"",""trial"",""time""
""fullscreenenter"",""1"",""13903""
","
",,,,,,,,,,,,"[{""stimulus"":""run_exp/static/images/task_images/dig.jpg"",""time"":0.19999998807907104},{""stimulus"":""run_exp/static/images/task_images/land.jpg"",""time"":682.8999999761581},{""stimulus"":""run_exp/static/images/task_images/dig.jpg"",""time"":1337.0999999642372}]",[],14,,,,,,,,,,,,,,
harvest,221,733837,0.0-63.0-4.0,"""event"",""trial"",""time""
""fullscreenenter"",""1"",""13903""
","
","
","""event"",""trial"",""time""
""fullscreenenter"",""1"",""13903""
","
",,null,run_exp/static/images/task_images/gems/101.jpg,null,,,,,,,28,,,14,,,,,101,0.275844427,0.277227723,,,,,,,
decision,222,734098,0.0-63.0-5.0,"""event"",""trial"",""time""
""fullscreenenter"",""1"",""13903""
","
","
","""event"",""trial"",""time""
""fullscreenenter"",""1"",""13903""
","
",,259.5,run_exp/static/images/task_images/land.jpg,65,,,,,,,28,,,14,,,,,,,,31399,2,0,FALSE,,,
dig,223,736850,0.0-64.0-0.0,"""event"",""trial"",""time""
""fullscreenenter"",""1"",""13903""
","
","
","""event"",""trial"",""time""
""fullscreenenter"",""1"",""13903""
","
",,,,,,,,,,,,"[{""stimulus"":""run_exp/static/images/task_images/dig.jpg"",""time"":0},{""stimulus"":""run_exp/static/images/task_images/land.jpg"",""time"":920.9000000357628},{""stimulus"":""run_exp/static/images/task_images/dig.jpg"",""time"":1840.1000000238419}]",[],14,,,,,,,,,,,,,,
harvest,224,737867,0.0-64.0-1.0,"""event"",""trial"",""time""
""fullscreenenter"",""1"",""13903""
","
","
","""event"",""trial"",""time""
""fullscreenenter"",""1"",""13903""
","
",,null,run_exp/static/images/task_images/gems/28.jpg,null,,,,,,,5,,,14,,,,,28,0.162390391,0.178571429,,,,,,,
decision,225,738164,0.0-64.0-2.0,"""event"",""trial"",""time""
""fullscreenenter"",""1"",""13903""
","
","
","""event"",""trial"",""time""
""fullscreenenter"",""1"",""13903""
","
",,295.1,run_exp/static/images/task_images/land.jpg,76,,,,,,,5,,,14,,,,,,,,35465,2,1,TRUE,,,
travel,226,747884,0.0-65.0-0.0,"""event"",""trial"",""time""
""fullscreenenter"",""1"",""13903""
","
","
","""event"",""trial"",""time""
""fullscreenenter"",""1"",""13903""
","
",,,,,,,,,,,,"[{""stimulus"":""run_exp/static/images/task_images/rocket-01.jpg"",""time"":0.19999998807907104},{""stimulus"":""run_exp/static/images/task_images/rocket-02.jpg"",""time"":1079.199999988079},{""stimulus"":""run_exp/static/images/task_images/rocket-03.jpg"",""time"":2157.600000023842},{""stimulus"":""run_exp/static/images/task_images/rocket-04.jpg"",""time"":3244.199999988079},{""stimulus"":""run_exp/static/images/task_images/rocket-05.jpg"",""time"":4314.600000023842},{""stimulus"":""run_exp/static/images/task_images/rocket-06.jpg"",""time"":5394},{""stimulus"":""run_exp/static/images/task_images/rocket-07.jpg"",""time"":6481.899999976158},{""stimulus"":""run_exp/static/images/task_images/rocket-08.jpg"",""time"":7551.100000023842},{""stimulus"":""run_exp/static/images/task_images/rocket-09.jpg"",""time"":8640.100000023842}]",[],14,,,,,,,,,,,,,,
alien_welcome,227,752891,0.0-65.0-1.0,"""event"",""trial"",""time""
""fullscreenenter"",""1"",""13903""
","
","
","""event"",""trial"",""time""
""fullscreenenter"",""1"",""13903""
","
",,null,run_exp/static/images/task_images/aliens/old_aliens/planet/alien_planet-43.jpg,null,,,,,,,,,,,,,43,"56,73,44,20,72,61,37,76,74,14,3,71,42,53,43,35,75,52,33,36,7,23,28,40,32,1,62,64,13,11,27,60,4,67,15,47,38,5,16,48,46,45,9,12,34",,,,,,,,,,
land,228,753408,0.0-65.0-2.0,"""event"",""trial"",""time""
""fullscreenenter"",""1"",""13903""
","
","
","""event"",""trial"",""time""
""fullscreenenter"",""1"",""13903""
","
",,null,run_exp/static/images/task_images/land.jpg,null,,,,,,,102,,,15,,,,,,,,,,,,,,
dig,229,755420,0.0-65.0-3.0,"""event"",""trial"",""time""
""fullscreenenter"",""1"",""13903""
","
","
","""event"",""trial"",""time""
""fullscreenenter"",""1"",""13903""
","
",,,,,,,,,,,,"[{""stimulus"":""run_exp/static/images/task_images/dig.jpg"",""time"":0.19999998807907104},{""stimulus"":""run_exp/static/images/task_images/land.jpg"",""time"":668.6000000238419},{""stimulus"":""run_exp/static/images/task_images/dig.jpg"",""time"":1340.800000011921}]",[],15,,,,,,,,,,,,,,
harvest,230,756424,0.0-65.0-4.0,"""event"",""trial"",""time""
""fullscreenenter"",""1"",""13903""
","
","
","""event"",""trial"",""time""
""fullscreenenter"",""1"",""13903""
","
",,null,run_exp/static/images/task_images/gems/102.jpg,null,,,,,,,21,,,15,,,,,102,0.206635554,0.205882353,,,,,,,
decision,231,756991,0.0-65.0-5.0,"""event"",""trial"",""time""
""fullscreenenter"",""1"",""13903""
","
","
","""event"",""trial"",""time""
""fullscreenenter"",""1"",""13903""
","
",,564.7,run_exp/static/images/task_images/land.jpg,65,,,,,,,21,,,15,,,,,,,,54292,2,0,FALSE,,,
dig,232,759435,0.0-66.0-0.0,"""event"",""trial"",""time""
""fullscreenenter"",""1"",""13903""
","
","
","""event"",""trial"",""time""
""fullscreenenter"",""1"",""13903""
","
",,,,,,,,,,,,"[{""stimulus"":""run_exp/static/images/task_images/dig.jpg"",""time"":0},{""stimulus"":""run_exp/static/images/task_images/land.jpg"",""time"":812.6000000238419},{""stimulus"":""run_exp/static/images/task_images/dig.jpg"",""time"":1627.4000000357628}]",[],15,,,,,,,,,,,,,,
harvest,233,760441,0.0-66.0-1.0,"""event"",""trial"",""time""
""fullscreenenter"",""1"",""13903""
","
","
","""event"",""trial"",""time""
""fullscreenenter"",""1"",""13903""
","
",,null,run_exp/static/images/task_images/gems/21.jpg,null,,,,,,,5,,,15,,,,,21,0.215145184,0.238095238,,,,,,,
decision,234,763450,0.0-66.0-2.0,"""event"",""trial"",""time""
""fullscreenenter"",""1"",""13903""
","
","
","""event"",""trial"",""time""
""fullscreenenter"",""1"",""13903""
","
",,null,run_exp/static/images/task_images/land.jpg,null,,,,,,,5,,,15,,,,,,,,60751,2,1,FALSE,,,
time_out,235,765464,0.0-67.0-0.0,"""event"",""trial"",""time""
""fullscreenenter"",""1"",""13903""
","
","
","""event"",""trial"",""time""
""fullscreenenter"",""1"",""13903""
","
",,null,run_exp/static/images/task_images/time_out.jpg,null,,,,,,,5,,,,,,,,,,,,,,,,,
decision,236,765854,0.0-67.0-1.0,"""event"",""trial"",""time""
""fullscreenenter"",""1"",""13903""
","
","
","""event"",""trial"",""time""
""fullscreenenter"",""1"",""13903""
","
",,388.2,run_exp/static/images/task_images/land.jpg,76,,,,,,,5,,,15,,,,,,,,63155,2,1,TRUE,,,
travel,237,775467,0.0-68.0-0.0,"""event"",""trial"",""time""
""fullscreenenter"",""1"",""13903""
","
","
","""event"",""trial"",""time""
""fullscreenenter"",""1"",""13903""
","
