trial_type,trial_index,time_elapsed,internal_node_id,success,rt,stimulus,key_press,prompt,subject_id,age,gender,button_pressed,next_reward,animation_sequence,responses,planet,curr_prac_trial,n_prac_rounds,alien,aliens,reward_received,decay_rate_actual,decay_rate_exp,time_in_block,block_num,prt,last_trial_on_planet,button_html,bonus,num_failures
pavlovia,0,13,0.0-0.0,,,,,,,,,,,,,,,,,,,,,,,,,,,
fullscreen,1,3966,0.0-1.0,TRUE,,,,,,,,,,,,,,,,,,,,,,,,,,
instruc_welcome,2,13802,0.0-2.0,,null,run_exp/static/audio/clip_1_welcome.m4a,null,"<p>Howdy! In this experiment, you’ll be an explorer traveling through space to collect space treasure.</p><p>Your mission is to collect as much treasure as possible.</p><br><br><p><img src='run_exp/static/images/task_images/opening_img-01.jpg' height='300' width='auto'></p>",aps8WR9YNZD83fN_51KYnLSfJHZ2CGO_MLRP_238QQ9Ro3jvZBS6,25.79,male,,,,,,,,,,,,,,,,,,,
audio-keyboard-response,3,30374,0.0-3.0,,null,run_exp/static/audio/clip_2_move.m4a,null,,,,,,,,,,,,,,,,,,,,,,,
welcome_dec,4,34668,0.0-4.0,,4291.6,"<p>Howdy! In this experiment, you’ll be an explorer traveling through space to collect space treasure.</p><p>Your mission is to collect as much treasure as possible.</p><br><br><p><img src='run_exp/static/images/task_images/opening_img-01.jpg' height='300' width='auto'></p>",,,,,,1,,,,,,,,,,,,,,,,,,
html-keyboard-response,5,36211,0.0-5.0,,1532.9,"<p>Howdy! In this experiment, you’ll be an explorer traveling through space to collect space treasure.</p><p>Your mission is to collect as much treasure as possible.</p><br><br><p><img src='run_exp/static/images/task_images/opening_img-01.jpg' height='300' width='auto'></p><button class=""jspsych-html-btn-unchosen""><img src=""run_exp/static/images/task_images/planet-01.jpg"" height=""50""></button><button class=""jspsych-html-btn-chosen""><img src=""run_exp/static/images/task_images/planet-02.jpg"" height=""50""></button><p><b>[press the space bar to lock in your answer]<b><br></p>",32,,,,,,,,,,,,,,,,,,,,,,,
instruc_goal,6,46257,0.0-6.0-0.0,,null,run_exp/static/audio/clip_3_goal.m4a,null,"<p> As a space explorer, you’ll visit different planets to dig for space treasure, these pink gems.</p> <p> The more treasure you dig up, the more bonus money you’ll win! </p><br><br><p><img src='run_exp/static/images/task_images/pink_gem.jpg' height='300' width='auto'></p>",,,,,,,,,,,,,,,,,,,,,,
instruc_goal,7,48005,0.0-6.0-1.0,,1745.4,"<p> As a space explorer, you’ll visit different planets to dig for space treasure, these pink gems.</p> <p> The more treasure you dig up, the more bonus money you’ll win! </p><br><br><p><img src='run_exp/static/images/task_images/pink_gem.jpg' height='300' width='auto'></p>",,,,,,1,,,,,,,,,,,,,,,,,,
html-keyboard-response,8,49178,0.0-6.0-2.0,,1171.2,"<p> As a space explorer, you’ll visit different planets to dig for space treasure, these pink gems.</p> <p> The more treasure you dig up, the more bonus money you’ll win! </p><br><br><p><img src='run_exp/static/images/task_images/pink_gem.jpg' height='300' width='auto'></p><button class=""jspsych-html-btn-unchosen""><img src=""run_exp/static/images/task_images/planet-01.jpg"" height=""50""></button><button class=""jspsych-html-btn-chosen""><img src=""run_exp/static/images/task_images/planet-02.jpg"" height=""50""></button><p><b>[press the space bar to lock in your answer]<b><br></p>",32,,,,,,,,,,,,,,,,,,,,,,,
instruc_dig,9,65205,0.0-7.0-0.0,,null,run_exp/static/audio/clip_4_dig.m4a,null,,,,,,100,,,,,,,,,,,,,,,,,
instruc_dig_try,10,66181,0.0-7.0-1.0,,974.9,"<p> When you’ve arrived at a new planet, you will dig once. </p> <p>Then, you get to decide if you want to stay on the planet and dig again or travel to a new planet and dig there.</p> <p> To stay and dig, press the letter <strong>‘A’</strong> on your keyboard. Try pressing it now! </p><p><img src='run_exp/static/images/task_images/land.jpg'  height='700' width='auto'></p>",65,"<p> When you’ve arrived at a new planet, you will dig once. </p> <p>Then, you get to decide if you want to stay on the planet and dig again or travel to a new planet and dig there.</p> <p> To stay and dig, press the letter <strong>‘A’</strong> on your keyboard. Try pressing it now! </p><p><img src='run_exp/static/images/task_images/land.jpg'  height='700' width='auto'></p>",,,,,100,,,,,,,,,,,,,,,,,
dig_prac,11,68201,0.0-7.0-2.0,,,,,,,,,,,"[{""stimulus"":""run_exp/static/images/task_images/dig.jpg"",""time"":0.19999998807907104},{""stimulus"":""run_exp/static/images/task_images/land.jpg"",""time"":668.9000000059605},{""stimulus"":""run_exp/static/images/task_images/dig.jpg"",""time"":1339.699999988079}]",[],,,,,,,,,,,,,,,
instruc_travel,12,104426,0.0-7.0-3.0,,null,run_exp/static/audio/clip_5_travel.m4a,null,"<p>Every time you dig up gems, there are less gems on the planet, so the more you dig on a planet the fewer gems you’ll get with each dig.</p><p>When gems are running low, you may want to travel to a new planet. </p> <p>  Planets are very far apart in this galaxy, so it will take some time to travel between them. </p> <br><p>There are lots and lots of planets for you to visit, so you won’t be able to return to any planets you’ve seen before. </p><br><p>To leave this planet and travel to a new one, press the letter <strong>‘L’</strong> on your keyboard. Try pressing it now! </p><p><img src='run_exp/static/images/task_images/rocket-01.jpg'  height='600' width='auto'></p>",,,,,,,,,,,,,,,,,,,,,,
instruc_travel_try,13,107928,0.0-7.0-4.0,,3501,"<p>Every time you dig up gems, there are less gems on the planet, so the more you dig on a planet the fewer gems you’ll get with each dig.</p><p>When gems are running low, you may want to travel to a new planet. </p> <p>  Planets are very far apart in this galaxy, so it will take some time to travel between them. </p> <br><p>There are lots and lots of planets for you to visit, so you won’t be able to return to any planets you’ve seen before. </p><br><p>To leave this planet and travel to a new one, press the letter <strong>‘L’</strong> on your keyboard. Try pressing it now! </p><p><img src='run_exp/static/images/task_images/rocket-01.jpg'  height='600' width='auto'></p>",76,"<p>Every time you dig up gems, there are less gems on the planet, so the more you dig on a planet the fewer gems you’ll get with each dig.</p><p>When gems are running low, you may want to travel to a new planet. </p> <p>  Planets are very far apart in this galaxy, so it will take some time to travel between them. </p> <br><p>There are lots and lots of planets for you to visit, so you won’t be able to return to any planets you’ve seen before. </p><br><p>To leave this planet and travel to a new one, press the letter <strong>‘L’</strong> on your keyboard. Try pressing it now! </p><p><img src='run_exp/static/images/task_images/rocket-01.jpg'  height='600' width='auto'></p>",,,,,,,,,,,,,,,,,,,,,,
travel_prac,14,117934,0.0-7.0-5.0,,,,,,,,,,,"[{""stimulus"":""run_exp/static/images/task_images/rocket-01.jpg"",""time"":0.20000001788139343},{""stimulus"":""run_exp/static/images/task_images/rocket-02.jpg"",""time"":1113.7000000178814},{""stimulus"":""run_exp/static/images/task_images/rocket-03.jpg"",""time"":2223.100000023842},{""stimulus"":""run_exp/static/images/task_images/rocket-04.jpg"",""time"":3337},{""stimulus"":""run_exp/static/images/task_images/rocket-05.jpg"",""time"":4449.800000011921},{""stimulus"":""run_exp/static/images/task_images/rocket-06.jpg"",""time"":5557.300000011921},{""stimulus"":""run_exp/static/images/task_images/rocket-07.jpg"",""time"":6667.200000017881},{""stimulus"":""run_exp/static/images/task_images/rocket-08.jpg"",""time"":7778.700000017881},{""stimulus"":""run_exp/static/images/task_images/rocket-09.jpg"",""time"":8891.90000000596}]",[],0,,,,,,,,,,,,,,
instruc_alien_greet,15,145132,0.0-7.0-6.0,,null,run_exp/static/audio/clip_6_alien.m4a,null,"<p>When you arrive at a new planet, the alien who owns the treasure mine on that planet will greet you!</p><p>The better an alien takes care of their mine the easier it is to dig for gems. Some aliens take better care of their mine than others. So, you won’t get exactly the same amount of gems on each planet.</p><p>What the alien looks like does not tell you anything about how many gems there are on the planet.</p><br><p><img src=""run_exp/static/images/task_images/aliens/instructions_aliens/planet/alien_planet-1.jpg""  height=""600"" width=""auto""></p>",,,,,,,,,,,,,,,,,,,,,,
instruc_alien_greet,16,147996,0.0-7.0-7.0,,2862.3,"<p>When you arrive at a new planet, the alien who owns the treasure mine on that planet will greet you!</p><p>The better an alien takes care of their mine the easier it is to dig for gems. Some aliens take better care of their mine than others. So, you won’t get exactly the same amount of gems on each planet.</p><p>What the alien looks like does not tell you anything about how many gems there are on the planet.</p><br><p><img src=""run_exp/static/images/task_images/aliens/instructions_aliens/planet/alien_planet-1.jpg""  height=""600"" width=""auto""></p>",,,,,,1,,,,,,,,,,,,,,,,,,
html-keyboard-response,17,148776,0.0-7.0-8.0,,778.4,"<p>When you arrive at a new planet, the alien who owns the treasure mine on that planet will greet you!</p><p>The better an alien takes care of their mine the easier it is to dig for gems. Some aliens take better care of their mine than others. So, you won’t get exactly the same amount of gems on each planet.</p><p>What the alien looks like does not tell you anything about how many gems there are on the planet.</p><br><p><img src=""run_exp/static/images/task_images/aliens/instructions_aliens/planet/alien_planet-1.jpg""  height=""600"" width=""auto""></p><button class=""jspsych-html-btn-unchosen""><img src=""run_exp/static/images/task_images/planet-01.jpg"" height=""50""></button><button class=""jspsych-html-btn-chosen""><img src=""run_exp/static/images/task_images/planet-02.jpg"" height=""50""></button><p><b>[press the space bar to lock in your answer]<b><br></p>",32,,,,,,,,,,,,,,,,,,,,,,,
time_out,18,159854,0.0-8.0-0.0,,null,run_exp/static/audio/clip_7_timeout.m4a,null,"<p>If you don't make your choice fast enough, you’ll have to wait a few seconds before you can make another one.</p><p>You can’t dig for more gems or travel to new planets. You just have to sit and wait.</p><br><p><img src='run_exp/static/images/task_images/time_out.jpg'  height='600' width='auto'></p>",,,,,,,,,,,,,,,,,,,,,,
time_out,19,161820,0.0-8.0-1.0,,1964.3,"<p>If you don't make your choice fast enough, you’ll have to wait a few seconds before you can make another one.</p><p>You can’t dig for more gems or travel to new planets. You just have to sit and wait.</p><br><p><img src='run_exp/static/images/task_images/time_out.jpg'  height='600' width='auto'></p>",,,,,,1,,,,,,,,,,,,,,,,,,
html-keyboard-response,20,162642,0.0-8.0-2.0,,820.4,"<p>If you don't make your choice fast enough, you’ll have to wait a few seconds before you can make another one.</p><p>You can’t dig for more gems or travel to new planets. You just have to sit and wait.</p><br><p><img src='run_exp/static/images/task_images/time_out.jpg'  height='600' width='auto'></p><button class=""jspsych-html-btn-unchosen""><img src=""run_exp/static/images/task_images/planet-01.jpg"" height=""50""></button><button class=""jspsych-html-btn-chosen""><img src=""run_exp/static/images/task_images/planet-02.jpg"" height=""50""></button><p><b>[press the space bar to lock in your answer]<b><br></p>",32,,,,,,,,,,,,,,,,,,,,,,,
instruc_break,21,178292,0.0-9.0-0.0,,null,run_exp/static/audio/clip_8_break.m4a,null,"<p> After digging and traveling for a while, you’ll be able to take a break at home base. </p><p>The game will last 20 minutes no matter what.</p><p>You will visit home base every 5 minutes, so, you will visit home base three times during the game.</p><br><p><img src='run_exp/static/images/task_images/home_base.jpg' height='600' width='auto'></p>",,,,,,,,,,,,,,,,,,,,,,
instruc_break,22,180376,0.0-9.0-1.0,,2082.6,"<p> After digging and traveling for a while, you’ll be able to take a break at home base. </p><p>The game will last 20 minutes no matter what.</p><p>You will visit home base every 5 minutes, so, you will visit home base three times during the game.</p><br><p><img src='run_exp/static/images/task_images/home_base.jpg' height='600' width='auto'></p>",,,,,,1,,,,,,,,,,,,,,,,,,
html-keyboard-response,23,181515,0.0-9.0-2.0,,1137,"<p> After digging and traveling for a while, you’ll be able to take a break at home base. </p><p>The game will last 20 minutes no matter what.</p><p>You will visit home base every 5 minutes, so, you will visit home base three times during the game.</p><br><p><img src='run_exp/static/images/task_images/home_base.jpg' height='600' width='auto'></p><button class=""jspsych-html-btn-unchosen""><img src=""run_exp/static/images/task_images/planet-01.jpg"" height=""50""></button><button class=""jspsych-html-btn-chosen""><img src=""run_exp/static/images/task_images/planet-02.jpg"" height=""50""></button><p><b>[press the space bar to lock in your answer]<b><br></p>",32,,,,,,,,,,,,,,,,,,,,,,,
instruc_prac_game,24,191644,0.0-10.0-0.0,,null,run_exp/static/audio/clip_9_practice.m4a,null,"<p> Are you ready to play a practice game? </p> <p>In this practice game, you'll be digging up barrels of gems. But, in the real game, you'll be digging up the gems themselves. </p>",,,,,,,,,,,,,,,,,,,,,,
html-button-response,25,193204,0.0-10.0-1.0,,1559,"<p> Are you ready to play a practice game? </p> <p>In this practice game, you'll be digging up barrels of gems. But, in the real game, you'll be digging up the gems themselves. </p>",,,,,,0,,,,,,,,,,,,,,,,,,
alien_welcome_prac,26,198208,0.0-11.0-0.0,,null,run_exp/static/images/task_images/aliens/practice_aliens/planet/alien_planet-5.jpg,null,,,,,,,,,,,,,,,,,,,,,,,
land_prac,27,198709,0.0-11.0-1.0,,null,run_exp/static/images/task_images/land.jpg,null,,,,,,97,,,0,,,,,,,,,,,,,,
dig_prac,28,200717,0.0-11.0-2.0,,,,,,,,,,,"[{""stimulus"":""run_exp/static/images/task_images/dig.jpg"",""time"":0.20000001788139343},{""stimulus"":""run_exp/static/images/task_images/land.jpg"",""time"":670.3000000119209},{""stimulus"":""run_exp/static/images/task_images/dig.jpg"",""time"":1337.5}]",[],,,,,,,,,,,,,,,
harvest_prac,29,201718,0.0-11.0-3.0,,null,run_exp/static/images/task_images/barrel_text.jpg,null,,,,,,,,,,,,,,,,,,,,,,,
decision_prac,30,204724,0.0-11.0-4.0,,null,run_exp/static/images/task_images/land.jpg,null,,,,,,,,,,1,,,,,,,,,,,,,
time_out,31,206728,0.0-12.0-0.0,,null,run_exp/static/images/task_images/time_out.jpg,null,,,,,,,,,,,,,,,,,,,,,,,
decision_prac,32,207563,0.0-12.0-1.0,,834,run_exp/static/images/task_images/land.jpg,65,,,,,,,,,,2,,,,,,,,,,,,,
dig_prac,33,209569,0.0-13.0-0.0,,,,,,,,,,,"[{""stimulus"":""run_exp/static/images/task_images/dig.jpg"",""time"":0.09999999403953552},{""stimulus"":""run_exp/static/images/task_images/land.jpg"",""time"":668.5},{""stimulus"":""run_exp/static/images/task_images/dig.jpg"",""time"":1335.2999999821186}]",[],,,,,,,,,,,,,,,
harvest_prac,34,210575,0.0-13.0-1.0,,null,run_exp/static/images/task_images/barrel_text.jpg,null,,,,,,,,,,,,,,,,,,,,,,,
decision_prac,35,211823,0.0-13.0-2.0,,1247.9,run_exp/static/images/task_images/land.jpg,65,,,,,,,,,,3,,,,,,,,,,,,,
dig_prac,36,213828,0.0-14.0-0.0,,,,,,,,,,,"[{""stimulus"":""run_exp/static/images/task_images/dig.jpg"",""time"":0.20000001788139343},{""stimulus"":""run_exp/static/images/task_images/land.jpg"",""time"":670.5},{""stimulus"":""run_exp/static/images/task_images/dig.jpg"",""time"":1337.7000000178814}]",[],,,,,,,,,,,,,,,
harvest_prac,37,214833,0.0-14.0-1.0,,null,run_exp/static/images/task_images/barrel_text.jpg,null,,,,,,,,,,,,,,,,,,,,,,,
decision_prac,38,215934,0.0-14.0-2.0,,1100.2,run_exp/static/images/task_images/land.jpg,65,,,,,,,,,,4,,,,,,,,,,,,,
dig_prac,39,217940,0.0-15.0-0.0,,,,,,,,,,,"[{""stimulus"":""run_exp/static/images/task_images/dig.jpg"",""time"":0.20000001788139343},{""stimulus"":""run_exp/static/images/task_images/land.jpg"",""time"":669.3000000119209},{""stimulus"":""run_exp/static/images/task_images/dig.jpg"",""time"":1339.6000000238419}]",[],,,,,,,,,,,,,,,
harvest_prac,40,218946,0.0-15.0-1.0,,null,run_exp/static/images/task_images/barrel_text.jpg,null,,,,,,,,,,,,,,,,,,,,,,,
decision_prac,41,219796,0.0-15.0-2.0,,848.7,run_exp/static/images/task_images/land.jpg,65,,,,,,,,,,,1,,,,,,,,,,,,
quiz_instruc,42,226767,0.0-16.0-0.0,,6968.3,run_exp/static/audio/clip_10_quiz.m4a,,,,,,0,,,,,,,,,,,,,,,,,,
instruc_repeat,43,269527,0.0-16.0-1.0,,null,"<p> Are you ready to play a practice game? </p> <p>In this practice game, you'll be digging up barrels of gems. But, in the real game, you'll be digging up the gems themselves. </p>",null,"<p>In this game, your goal is to collect as many gems as you can. That’s how you will win bonus money. </p> <p>The entire game will last 20 minutes no matter how many gems you collect or how many planets you visit. </p><p>To stay on a planet and dig again, press the letter A on your keyboard. To leave for a new planet, press the letter L.</p><p>The more you dig on a planet, the fewer gems you’ll get with each dig which is why you might consider leaving for a new planet. </p><p>When you arrive at a new planet, you’ll be greeted by an alien. What the alien looks like does not tell you anything about how much treasure is on the planet. </p>",,,,,,,,,,,,,,,,,,,,,,
instruc_repeat_continue,44,288941,0.0-16.0-2.0,,19411.2,"<p> Are you ready to play a practice game? </p> <p>In this practice game, you'll be digging up barrels of gems. But, in the real game, you'll be digging up the gems themselves. </p>",,,,,,0,,,,,,,,,,,,,,,,,,
quiz_q_1_ask,45,292065,0.0-16.0-3.0,,3123.2,run_exp/static/audio/clip_11_q1_ask.m4a,,,,,,2,,,,,,,,,,,,,,,,,,
quiz_q_1_fb_correct,46,295922,0.0-17.0-0.0,,null,run_exp/static/audio/clip_12_q1_corrrect.m4a,null,<p>That’s correct. You win extra money by collecting more gems.</p>,,,,,,,,,,,,,,,,,,,,,,
quiz_q_2_ask,47,299990,0.0-17.0-1.0,,4066.1,run_exp/static/audio/clip_14_q2_ask.m4a,,,,,,1,,,,,,,,,,,,,,,,,,
quiz_q_2_fb_correct,48,303956,0.0-18.0-0.0,,null,run_exp/static/audio/clip_15_q2_correct.m4a,null,<p>That’s correct. The experiment is 20 minutes no matter what.</p>,,,,,,,,,,,,,,,,,,,,,,
quiz_q_3_ask,49,317459,0.0-18.0-1.0,,13500.4,run_exp/static/audio/clip_17_q3_ask.m4a,,,,,,1,,,,,,,,,,,,,,,,,,
quiz_q_3_fb_correct,50,321419,0.0-19.0-0.0,,null,run_exp/static/audio/clip_18_q3_correct.m4a,null,<p> That’s correct. You press the letter L to travel to a new planet.</p>,,,,,,,,,,,,,,,,,,,,,,
quiz_q_4_ask,51,325529,0.0-19.0-1.0,,4109.3,run_exp/static/audio/clip_20_q4_ask.m4a,,,,,,0,,,,,,,,,,,,,,,,,,
quiz_q_4_fb_correct,52,330846,0.0-20.0-0.0,,null,run_exp/static/audio/clip_21_q4_correct.m4a,null,<p> That’s correct. The more you dig on a planet the fewer gems you’ll get with each dig. </p>,,,,,,,,,,,,,,,,,,,,,,
quiz_q_5_ask,53,335437,0.0-20.0-1.0,,4588.6,run_exp/static/audio/clip_23_q5_ask.m4a,,,,,,1,,,,,,,,,,,,,,,,,,
quiz_q_5_fb_correct,54,340437,0.0-21.0-0.0,,null,run_exp/static/audio/clip_24_q5_correct.m4a,null,<p> That’s correct. The alien tells you nothing about how much treasure is on the planet.</p>,,,,,,,,,,,,,,,,,,,,,,
quiz_correct,55,343896,0.0-22.0-0.0,,null,run_exp/static/audio/clip_26_correct_quiz.m4a,null,,,,,,,,,,,,,,,,,,,,,,,
quiz_correct_continue,56,361547,0.0-22.0-1.0,,17648.6,<p>Good job! You're now ready to move on to the real game!</p>,,,,,,0,,,,,,,,,,,,,,,,,,
audio-keyboard-response,57,371663,0.0-22.0-2.0,,null,run_exp/static/audio/clip_28_real_game.m4a,null,,,,,,,,,,,,,,,,,,,,,,,
instruc_begin_exp_contine,58,373558,0.0-22.0-3.0,,1893.2,"<p>Now that you know how  to dig for space treasure and travel to new planets,you can start exploring! </p><p>Do you want to go over the instructions again or get started with the real game?</p>",,,,,,1,,,,,,1,,,,,,,,,,,,
alien_welcome,59,378566,0.0-23.0-0.0,,null,run_exp/static/images/task_images/aliens/old_aliens/planet/alien_planet-6.jpg,null,,,,,,,,,,,,6,"6,29,39,26,74,63,62,52,18,67,8,72,19,5,9,55,58,25,30,42,24,4,22,7,2,56,11,73",,,,,,,,,,
land,60,379068,0.0-23.0-1.0,,null,run_exp/static/images/task_images/land.jpg,null,,,,,,106,,,1,,,,,,,,,,,,,,
dig,61,381077,0.0-23.0-2.0,,,,,,,,,,,"[{""stimulus"":""run_exp/static/images/task_images/dig.jpg"",""time"":0.29999998211860657},{""stimulus"":""run_exp/static/images/task_images/land.jpg"",""time"":671.1999999880791},{""stimulus"":""run_exp/static/images/task_images/dig.jpg"",""time"":1335.2999999821186}]",[],1,,,,,,,,,,,,,,
harvest,62,382083,0.0-23.0-3.0,,null,run_exp/static/images/task_images/gems/106.jpg,null,,,,,,22,,,1,,,,,106,0.204613272,0.20754717,,,,,,,
decision,63,383216,0.0-23.0-4.0,,1132,run_exp/static/images/task_images/land.jpg,65,,,,,,22,,,1,,,,,,,,9657,1,0,FALSE,,,
dig,64,385090,0.0-24.0-0.0,,,,,,,,,,,"[{""stimulus"":""run_exp/static/images/task_images/dig.jpg"",""time"":0.20000001788139343},{""stimulus"":""run_exp/static/images/task_images/land.jpg"",""time"":626.4000000059605},{""stimulus"":""run_exp/static/images/task_images/dig.jpg"",""time"":1249.9000000059605}]",[],1,,,,,,,,,,,,,,
harvest,65,386096,0.0-24.0-1.0,,null,run_exp/static/images/task_images/gems/22.jpg,null,,,,,,3,,,1,,,,,22,0.132062527,0.136363636,,,,,,,
decision,66,387191,0.0-24.0-2.0,,1094.2,run_exp/static/images/task_images/land.jpg,65,,,,,,3,,,1,,,,,,,,13631,1,1,FALSE,,,
dig,67,389100,0.0-25.0-0.0,,,,,,,,,,,"[{""stimulus"":""run_exp/static/images/task_images/dig.jpg"",""time"":0.20000001788139343},{""stimulus"":""run_exp/static/images/task_images/land.jpg"",""time"":640.8000000119209},{""stimulus"":""run_exp/static/images/task_images/dig.jpg"",""time"":1273}]",[],1,,,,,,,,,,,,,,
harvest,68,390103,0.0-25.0-1.0,,null,run_exp/static/images/task_images/gems/3.jpg,null,,,,,,1,,,1,,,,,3,0.292017343,0.333333333,,,,,,,
decision,69,390901,0.0-25.0-2.0,,796.8,run_exp/static/images/task_images/land.jpg,76,,,,,,1,,,1,,,,,,,,17342,1,2,TRUE,,,
travel,70,400106,0.0-26.0-0.0,,,,,,,,,,,"[{""stimulus"":""run_exp/static/images/task_images/rocket-01.jpg"",""time"":0.09999999403953552},{""stimulus"":""run_exp/static/images/task_images/rocket-02.jpg"",""time"":1023.2999999821186},{""stimulus"":""run_exp/static/images/task_images/rocket-03.jpg"",""time"":2049.199999988079},{""stimulus"":""run_exp/static/images/task_images/rocket-04.jpg"",""time"":3071.199999988079},{""stimulus"":""run_exp/static/images/task_images/rocket-05.jpg"",""time"":4092.7999999821186},{""stimulus"":""run_exp/static/images/task_images/rocket-06.jpg"",""time"":5114.299999982119},{""stimulus"":""run_exp/static/images/task_images/rocket-07.jpg"",""time"":6137.799999982119},{""stimulus"":""run_exp/static/images/task_images/rocket-08.jpg"",""time"":7158},{""stimulus"":""run_exp/static/images/task_images/rocket-09.jpg"",""time"":8179.399999976158}]",[],1,,,,,,,,,,,,,,
alien_welcome,71,405109,0.0-26.0-1.0,,null,run_exp/static/images/task_images/aliens/old_aliens/planet/alien_planet-29.jpg,null,,,,,,,,,,,,29,"6,29,39,26,74,63,62,52,18,67,8,72,19,5,9,55,58,25,30,42,24,4,22,7,2,56,11,73",,,,,,,,,,
land,72,405615,0.0-26.0-2.0,,null,run_exp/static/images/task_images/land.jpg,null,,,,,,107,,,2,,,,,,,,,,,,,,
dig,73,407620,0.0-26.0-3.0,,,,,,,,,,,"[{""stimulus"":""run_exp/static/images/task_images/dig.jpg"",""time"":0.20000001788139343},{""stimulus"":""run_exp/static/images/task_images/land.jpg"",""time"":670.4000000059605},{""stimulus"":""run_exp/static/images/task_images/dig.jpg"",""time"":1338}]",[],2,,,,,,,,,,,,,,
harvest,74,408626,0.0-26.0-4.0,,null,run_exp/static/images/task_images/gems/107.jpg,null,,,,,,21,,,2,,,,,107,0.198899833,0.196261682,,,,,,,
decision,75,409385,0.0-26.0-5.0,,757.6,run_exp/static/images/task_images/land.jpg,65,,,,,,21,,,2,,,,,,,,35825,1,0,FALSE,,,
dig,76,411632,0.0-27.0-0.0,,,,,,,,,,,"[{""stimulus"":""run_exp/static/images/task_images/dig.jpg"",""time"":0.09999999403953552},{""stimulus"":""run_exp/static/images/task_images/land.jpg"",""time"":750.6999999880791},{""stimulus"":""run_exp/static/images/task_images/dig.jpg"",""time"":1499.7999999821186}]",[],2,,,,,,,,,,,,,,
harvest,77,412637,0.0-27.0-1.0,,null,run_exp/static/images/task_images/gems/21.jpg,null,,,,,,5,,,2,,,,,21,0.223068844,0.238095238,,,,,,,
decision,78,413232,0.0-27.0-2.0,,594.2,run_exp/static/images/task_images/land.jpg,65,,,,,,5,,,2,,,,,,,,39672,1,1,FALSE,,,
dig,79,415640,0.0-28.0-0.0,,,,,,,,,,,"[{""stimulus"":""run_exp/static/images/task_images/dig.jpg"",""time"":0.10000002384185791},{""stimulus"":""run_exp/static/images/task_images/land.jpg"",""time"":804.4000000059605},{""stimulus"":""run_exp/static/images/task_images/dig.jpg"",""time"":1603.7000000178814}]",[],2,,,,,,,,,,,,,,
harvest,80,416643,0.0-28.0-1.0,,null,run_exp/static/images/task_images/gems/5.jpg,null,,,,,,1,,,2,,,,,5,0.155876463,0.2,,,,,,,
decision,81,418184,0.0-28.0-2.0,,1540.1,run_exp/static/images/task_images/land.jpg,76,,,,,,1,,,2,,,,,,,,44624,1,2,TRUE,,,
travel,82,426643,0.0-29.0-0.0,,,,,,,,,,,"[{""stimulus"":""run_exp/static/images/task_images/rocket-01.jpg"",""time"":0.09999999403953552},{""stimulus"":""run_exp/static/images/task_images/rocket-02.jpg"",""time"":944.5999999940395},{""stimulus"":""run_exp/static/images/task_images/rocket-03.jpg"",""time"":1882.0999999940395},{""stimulus"":""run_exp/static/images/task_images/rocket-04.jpg"",""time"":2818.300000011921},{""stimulus"":""run_exp/static/images/task_images/rocket-05.jpg"",""time"":3757.199999988079},{""stimulus"":""run_exp/static/images/task_images/rocket-06.jpg"",""time"":4697.0999999940395},{""stimulus"":""run_exp/static/images/task_images/rocket-07.jpg"",""time"":5638.5},{""stimulus"":""run_exp/static/images/task_images/rocket-08.jpg"",""time"":6578.5},{""stimulus"":""run_exp/static/images/task_images/rocket-09.jpg"",""time"":7517.800000011921}]",[],2,,,,,,,,,,,,,,
alien_welcome,83,431647,0.0-29.0-1.0,,null,run_exp/static/images/task_images/aliens/old_aliens/planet/alien_planet-39.jpg,null,,,,,,,,,,,,39,"6,29,39,26,74,63,62,52,18,67,8,72,19,5,9,55,58,25,30,42,24,4,22,7,2,56,11,73",,,,,,,,,,
land,84,432153,0.0-29.0-2.0,,null,run_exp/static/images/task_images/land.jpg,null,,,,,,90,,,3,,,,,,,,,,,,,,
dig,85,434161,0.0-29.0-3.0,,,,,,,,,,,"[{""stimulus"":""run_exp/static/images/task_images/dig.jpg"",""time"":0.19999998807907104},{""stimulus"":""run_exp/static/images/task_images/land.jpg"",""time"":670.6999999880791},{""stimulus"":""run_exp/static/images/task_images/dig.jpg"",""time"":1336.5999999940395}]",[],3,,,,,,,,,,,,,,
harvest,86,435164,0.0-29.0-4.0,,null,run_exp/static/images/task_images/gems/90.jpg,null,,,,,,41,,,3,,,,,90,0.457604875,0.455555556,,,,,,,
decision,87,436203,0.0-29.0-5.0,,1038.2,run_exp/static/images/task_images/land.jpg,65,,,,,,41,,,3,,,,,,,,62643,1,0,FALSE,,,
dig,88,438166,0.0-30.0-0.0,,,,,,,,,,,"[{""stimulus"":""run_exp/static/images/task_images/dig.jpg"",""time"":0.10000002384185791},{""stimulus"":""run_exp/static/images/task_images/land.jpg"",""time"":658.8000000119209},{""stimulus"":""run_exp/static/images/task_images/dig.jpg"",""time"":1309}]",[],3,,,,,,,,,,,,,,
harvest,89,439167,0.0-30.0-1.0,,null,run_exp/static/images/task_images/gems/41.jpg,null,,,,,,21,,,3,,,,,41,0.520305605,0.512195122,,,,,,,
decision,90,439623,0.0-30.0-2.0,,454.5,run_exp/static/images/task_images/land.jpg,65,,,,,,21,,,3,,,,,,,,66063,1,1,FALSE,,,
dig,91,442175,0.0-31.0-0.0,,,,,,,,,,,"[{""stimulus"":""run_exp/static/images/task_images/dig.jpg"",""time"":0.10000002384185791},{""stimulus"":""run_exp/static/images/task_images/land.jpg"",""time"":853.7000000178814},{""stimulus"":""run_exp/static/images/task_images/dig.jpg"",""time"":1698.2000000178814}]",[],3,,,,,,,,,,,,,,
harvest,92,443178,0.0-31.0-1.0,,null,run_exp/static/images/task_images/gems/21.jpg,null,,,,,,10,,,3,,,,,21,0.473676882,0.476190476,,,,,,,
decision,93,444268,0.0-31.0-2.0,,1088.9,run_exp/static/images/task_images/land.jpg,65,,,,,,10,,,3,,,,,,,,70708,1,2,FALSE,,,
dig,94,446183,0.0-32.0-0.0,,,,,,,,,,,"[{""stimulus"":""run_exp/static/images/task_images/dig.jpg"",""time"":0.20000001788139343},{""stimulus"":""run_exp/static/images/task_images/land.jpg"",""time"":637.9000000059605},{""stimulus"":""run_exp/static/images/task_images/dig.jpg"",""time"":1276.6000000238419}]",[],3,,,,,,,,,,,,,,
harvest,95,447186,0.0-32.0-1.0,,null,run_exp/static/images/task_images/gems/10.jpg,null,,,,,,5,,,3,,,,,10,0.528073014,0.5,,,,,,,
decision,96,448063,0.0-32.0-2.0,,876.9,run_exp/static/images/task_images/land.jpg,65,,,,,,5,,,3,,,,,,,,74504,1,3,FALSE,,,
dig,97,450189,0.0-33.0-0.0,,,,,,,,,,,"[{""stimulus"":""run_exp/static/images/task_images/dig.jpg"",""time"":0.20000001788139343},{""stimulus"":""run_exp/static/images/task_images/land.jpg"",""time"":712},{""stimulus"":""run_exp/static/images/task_images/dig.jpg"",""time"":1416.9000000059605}]",[],3,,,,,,,,,,,,,,
harvest,98,451192,0.0-33.0-1.0,,null,run_exp/static/images/task_images/gems/5.jpg,null,,,,,,3,,,3,,,,,5,0.546474644,0.6,,,,,,,
decision,99,451588,0.0-33.0-2.0,,395.3,run_exp/static/images/task_images/land.jpg,65,,,,,,3,,,3,,,,,,,,78028,1,4,FALSE,,,
dig,100,454196,0.0-34.0-0.0,,,,,,,,,,,"[{""stimulus"":""run_exp/static/images/task_images/dig.jpg"",""time"":0.19999998807907104},{""stimulus"":""run_exp/static/images/task_images/land.jpg"",""time"":873.8000000119209},{""stimulus"":""run_exp/static/images/task_images/dig.jpg"",""time"":1738.300000011921}]",[],3,,,,,,,,,,,,,,
harvest,101,455199,0.0-34.0-1.0,,null,run_exp/static/images/task_images/gems/3.jpg,null,,,,,,2,,,3,,,,,3,0.555155496,0.666666667,,,,,,,
decision,102,455646,0.0-34.0-2.0,,446,run_exp/static/images/task_images/land.jpg,65,,,,,,2,,,3,,,,,,,,82086,1,5,FALSE,,,
dig,103,458205,0.0-35.0-0.0,,,,,,,,,,,"[{""stimulus"":""run_exp/static/images/task_images/dig.jpg"",""time"":0.30000001192092896},{""stimulus"":""run_exp/static/images/task_images/land.jpg"",""time"":852.5999999940395},{""stimulus"":""run_exp/static/images/task_images/dig.jpg"",""time"":1707.800000011921}]",[],3,,,,,,,,,,,,,,
harvest,104,459211,0.0-35.0-1.0,,null,run_exp/static/images/task_images/gems/2.jpg,null,,,,,,1,,,3,,,,,2,0.508816913,0.5,,,,,,,
decision,105,459986,0.0-35.0-2.0,,773.5,run_exp/static/images/task_images/land.jpg,65,,,,,,1,,,3,,,,,,,,86426,1,6,FALSE,,,
dig,106,462216,0.0-36.0-0.0,,,,,,,,,,,"[{""stimulus"":""run_exp/static/images/task_images/dig.jpg"",""time"":0.20000001788139343},{""stimulus"":""run_exp/static/images/task_images/land.jpg"",""time"":744.7000000178814},{""stimulus"":""run_exp/static/images/task_images/dig.jpg"",""time"":1487.4000000059605}]",[],3,,,,,,,,,,,,,,
harvest,107,463221,0.0-36.0-1.0,,null,run_exp/static/images/task_images/gems/1.jpg,null,,,,,,1,,,3,,,,,1,0.582555464,1,,,,,,,
decision,108,464260,0.0-36.0-2.0,,1037.6,run_exp/static/images/task_images/land.jpg,76,,,,,,1,,,3,,,,,,,,90700,1,7,TRUE,,,
travel,109,473219,0.0-37.0-0.0,,,,,,,,,,,"[{""stimulus"":""run_exp/static/images/task_images/rocket-01.jpg"",""time"":0.09999999403953552},{""stimulus"":""run_exp/static/images/task_images/rocket-02.jpg"",""time"":1000.3999999761581},{""stimulus"":""run_exp/static/images/task_images/rocket-03.jpg"",""time"":1995.699999988079},{""stimulus"":""run_exp/static/images/task_images/rocket-04.jpg"",""time"":2990.699999988079},{""stimulus"":""run_exp/static/images/task_images/rocket-05.jpg"",""time"":3985.899999976158},{""stimulus"":""run_exp/static/images/task_images/rocket-06.jpg"",""time"":4980},{""stimulus"":""run_exp/static/images/task_images/rocket-07.jpg"",""time"":5971.0999999940395},{""stimulus"":""run_exp/static/images/task_images/rocket-08.jpg"",""time"":6969.399999976158},{""stimulus"":""run_exp/static/images/task_images/rocket-09.jpg"",""time"":7961.199999988079}]",[],3,,,,,,,,,,,,,,
alien_welcome,110,478224,0.0-37.0-1.0,,null,run_exp/static/images/task_images/aliens/old_aliens/planet/alien_planet-26.jpg,null,,,,,,,,,,,,26,"6,29,39,26,74,63,62,52,18,67,8,72,19,5,9,55,58,25,30,42,24,4,22,7,2,56,11,73",,,,,,,,,,
land,111,478729,0.0-37.0-2.0,,null,run_exp/static/images/task_images/land.jpg,null,,,,,,100,,,4,,,,,,,,,,,,,,
dig,112,480733,0.0-37.0-3.0,,,,,,,,,,,"[{""stimulus"":""run_exp/static/images/task_images/dig.jpg"",""time"":0.29999998211860657},{""stimulus"":""run_exp/static/images/task_images/land.jpg"",""time"":669.2999999821186},{""stimulus"":""run_exp/static/images/task_images/dig.jpg"",""time"":1338.5}]",[],4,,,,,,,,,,,,,,
harvest,113,481736,0.0-37.0-4.0,,null,run_exp/static/images/task_images/gems/100.jpg,null,,,,,,51,,,4,,,,,100,0.505138625,0.51,,,,,,,
decision,114,482203,0.0-37.0-5.0,,465.5,run_exp/static/images/task_images/land.jpg,65,,,,,,51,,,4,,,,,,,,108643,1,0,FALSE,,,
dig,115,484739,0.0-38.0-0.0,,,,,,,,,,,"[{""stimulus"":""run_exp/static/images/task_images/dig.jpg"",""time"":0.09999999403953552},{""stimulus"":""run_exp/static/images/task_images/land.jpg"",""time"":846.1999999880791},{""stimulus"":""run_exp/static/images/task_images/dig.jpg"",""time"":1691.0999999940395}]",[],4,,,,,,,,,,,,,,
harvest,116,485744,0.0-38.0-1.0,,null,run_exp/static/images/task_images/gems/51.jpg,null,,,,,,24,,,4,,,,,51,0.471788925,0.470588235,,,,,,,
decision,117,485929,0.0-38.0-2.0,,184.3,run_exp/static/images/task_images/land.jpg,65,,,,,,24,,,4,,,,,,,,112370,1,1,FALSE,,,
dig,118,488750,0.0-39.0-0.0,,,,,,,,,,,"[{""stimulus"":""run_exp/static/images/task_images/dig.jpg"",""time"":0.19999998807907104},{""stimulus"":""run_exp/static/images/task_images/land.jpg"",""time"":943.8000000119209},{""stimulus"":""run_exp/static/images/task_images/dig.jpg"",""time"":1877.300000011921}]",[],4,,,,,,,,,,,,,,
harvest,119,489756,0.0-39.0-1.0,,null,run_exp/static/images/task_images/gems/24.jpg,null,,,,,,11,,,4,,,,,24,0.461167502,0.458333333,,,,,,,
decision,120,490074,0.0-39.0-2.0,,317.1,run_exp/static/images/task_images/land.jpg,65,,,,,,11,,,4,,,,,,,,116514,1,2,FALSE,,,
dig,121,492760,0.0-40.0-0.0,,,,,,,,,,,"[{""stimulus"":""run_exp/static/images/task_images/dig.jpg"",""time"":0.19999998807907104},{""stimulus"":""run_exp/static/images/task_images/land.jpg"",""time"":900},{""stimulus"":""run_exp/static/images/task_images/dig.jpg"",""time"":1789.0999999940395}]",[],4,,,,,,,,,,,,,,
harvest,122,493762,0.0-40.0-1.0,,null,run_exp/static/images/task_images/gems/11.jpg,null,,,,,,5,,,4,,,,,11,0.464983389,0.454545455,,,,,,,
decision,123,494922,0.0-40.0-2.0,,1159.1,run_exp/static/images/task_images/land.jpg,65,,,,,,5,,,4,,,,,,,,121363,1,3,FALSE,,,
dig,124,496767,0.0-41.0-0.0,,,,,,,,,,,"[{""stimulus"":""run_exp/static/images/task_images/dig.jpg"",""time"":0.09999999403953552},{""stimulus"":""run_exp/static/images/task_images/land.jpg"",""time"":614.0999999940395},{""stimulus"":""run_exp/static/images/task_images/dig.jpg"",""time"":1231.7999999821186}]",[],4,,,,,,,,,,,,,,
harvest,125,497768,0.0-41.0-1.0,,null,run_exp/static/images/task_images/gems/5.jpg,null,,,,,,2,,,4,,,,,5,0.438406622,0.4,,,,,,,
decision,126,498223,0.0-41.0-2.0,,454,run_exp/static/images/task_images/land.jpg,65,,,,,,2,,,4,,,,,,,,124663,1,4,FALSE,,,
dig,127,500776,0.0-42.0-0.0,,,,,,,,,,,"[{""stimulus"":""run_exp/static/images/task_images/dig.jpg"",""time"":0.20000001788139343},{""stimulus"":""run_exp/static/images/task_images/land.jpg"",""time"":851.4000000059605},{""stimulus"":""run_exp/static/images/task_images/dig.jpg"",""time"":1701.7000000178814}]",[],4,,,,,,,,,,,,,,
harvest,128,501779,0.0-42.0-1.0,,null,run_exp/static/images/task_images/gems/2.jpg,null,,,,,,1,,,4,,,,,2,0.481678696,0.5,,,,,,,
decision,129,502162,0.0-42.0-2.0,,382.2,run_exp/static/images/task_images/land.jpg,76,,,,,,1,,,4,,,,,,,,128603,1,5,TRUE,,,
travel,130,511780,0.0-43.0-0.0,,,,,,,,,,,"[{""stimulus"":""run_exp/static/images/task_images/rocket-01.jpg"",""time"":0.29999998211860657},{""stimulus"":""run_exp/static/images/task_images/rocket-02.jpg"",""time"":1070.699999988079},{""stimulus"":""run_exp/static/images/task_images/rocket-03.jpg"",""time"":2137.399999976158},{""stimulus"":""run_exp/static/images/task_images/rocket-04.jpg"",""time"":3207.7999999821186},{""stimulus"":""run_exp/static/images/task_images/rocket-05.jpg"",""time"":4275.199999988079},{""stimulus"":""run_exp/static/images/task_images/rocket-06.jpg"",""time"":5341.899999976158},{""stimulus"":""run_exp/static/images/task_images/rocket-07.jpg"",""time"":6408.899999976158},{""stimulus"":""run_exp/static/images/task_images/rocket-08.jpg"",""time"":7478.0999999940395},{""stimulus"":""run_exp/static/images/task_images/rocket-09.jpg"",""time"":8549.299999982119}]",[],4,,,,,,,,,,,,,,
alien_welcome,131,516783,0.0-43.0-1.0,,null,run_exp/static/images/task_images/aliens/old_aliens/planet/alien_planet-74.jpg,null,,,,,,,,,,,,74,"6,29,39,26,74,63,62,52,18,67,8,72,19,5,9,55,58,25,30,42,24,4,22,7,2,56,11,73",,,,,,,,,,
land,132,517285,0.0-43.0-2.0,,null,run_exp/static/images/task_images/land.jpg,null,,,,,,97,,,5,,,,,,,,,,,,,,
dig,133,519292,0.0-43.0-3.0,,,,,,,,,,,"[{""stimulus"":""run_exp/static/images/task_images/dig.jpg"",""time"":0.19999998807907104},{""stimulus"":""run_exp/static/images/task_images/land.jpg"",""time"":670.6999999880791},{""stimulus"":""run_exp/static/images/task_images/dig.jpg"",""time"":1337.2999999821186}]",[],5,,,,,,,,,,,,,,
harvest,134,520295,0.0-43.0-4.0,,null,run_exp/static/images/task_images/gems/97.jpg,null,,,,,,42,,,5,,,,,97,0.428812615,0.432989691,,,,,,,
decision,135,520710,0.0-43.0-5.0,,414.1,run_exp/static/images/task_images/land.jpg,65,,,,,,42,,,5,,,,,,,,147150,1,0,FALSE,,,
dig,136,523301,0.0-44.0-0.0,,,,,,,,,,,"[{""stimulus"":""run_exp/static/images/task_images/dig.jpg"",""time"":0.10000002384185791},{""stimulus"":""run_exp/static/images/task_images/land.jpg"",""time"":862.8000000119209},{""stimulus"":""run_exp/static/images/task_images/dig.jpg"",""time"":1727.7000000178814}]",[],5,,,,,,,,,,,,,,
harvest,137,524303,0.0-44.0-1.0,,null,run_exp/static/images/task_images/gems/42.jpg,null,,,,,,17,,,5,,,,,42,0.403775676,0.404761905,,,,,,,
decision,138,524658,0.0-44.0-2.0,,354.3,run_exp/static/images/task_images/land.jpg,65,,,,,,17,,,5,,,,,,,,151098,1,1,FALSE,,,
dig,139,527309,0.0-45.0-0.0,,,,,,,,,,,"[{""stimulus"":""run_exp/static/images/task_images/dig.jpg"",""time"":0.19999998807907104},{""stimulus"":""run_exp/static/images/task_images/land.jpg"",""time"":885.1999999880791},{""stimulus"":""run_exp/static/images/task_images/dig.jpg"",""time"":1763.5}]",[],5,,,,,,,,,,,,,,
harvest,140,528310,0.0-45.0-1.0,,null,run_exp/static/images/task_images/gems/17.jpg,null,,,,,,10,,,5,,,,,17,0.562732804,0.588235294,,,,,,,
decision,141,529320,0.0-45.0-2.0,,1009.7,run_exp/static/images/task_images/land.jpg,65,,,,,,10,,,5,,,,,,,,155761,1,2,FALSE,,,
dig,142,531317,0.0-46.0-0.0,,,,,,,,,,,"[{""stimulus"":""run_exp/static/images/task_images/dig.jpg"",""time"":0.20000001788139343},{""stimulus"":""run_exp/static/images/task_images/land.jpg"",""time"":668.7000000178814},{""stimulus"":""run_exp/static/images/task_images/dig.jpg"",""time"":1328.7000000178814}]",[],5,,,,,,,,,,,,,,
harvest,143,532323,0.0-46.0-1.0,,null,run_exp/static/images/task_images/gems/10.jpg,null,,,,,,5,,,5,,,,,10,0.478156404,0.5,,,,,,,
decision,144,532626,0.0-46.0-2.0,,302.2,run_exp/static/images/task_images/land.jpg,65,,,,,,5,,,5,,,,,,,,159066,1,3,FALSE,,,
dig,145,535329,0.0-47.0-0.0,,,,,,,,,,,"[{""stimulus"":""run_exp/static/images/task_images/dig.jpg"",""time"":0.09999999403953552},{""stimulus"":""run_exp/static/images/task_images/land.jpg"",""time"":904.6999999880791},{""stimulus"":""run_exp/static/images/task_images/dig.jpg"",""time"":1802.300000011921}]",[],5,,,,,,,,,,,,,,
harvest,146,536333,0.0-47.0-1.0,,null,run_exp/static/images/task_images/gems/5.jpg,null,,,,,,3,,,5,,,,,5,0.55962607,0.6,,,,,,,
decision,147,538083,0.0-47.0-2.0,,1749.5,run_exp/static/images/task_images/land.jpg,76,,,,,,3,,,5,,,,,,,,164524,1,4,TRUE,,,
travel,148,546333,0.0-48.0-0.0,,,,,,,,,,,"[{""stimulus"":""run_exp/static/images/task_images/rocket-01.jpg"",""time"":0.09999999403953552},{""stimulus"":""run_exp/static/images/task_images/rocket-02.jpg"",""time"":921.7999999821186},{""stimulus"":""run_exp/static/images/task_images/rocket-03.jpg"",""time"":1833.7999999821186},{""stimulus"":""run_exp/static/images/task_images/rocket-04.jpg"",""time"":2753.5999999940395},{""stimulus"":""run_exp/static/images/task_images/rocket-05.jpg"",""time"":3668.4000000059605},{""stimulus"":""run_exp/static/images/task_images/rocket-06.jpg"",""time"":4585.199999988079},{""stimulus"":""run_exp/static/images/task_images/rocket-07.jpg"",""time"":5499.4000000059605},{""stimulus"":""run_exp/static/images/task_images/rocket-08.jpg"",""time"":6417.699999988079},{""stimulus"":""run_exp/static/images/task_images/rocket-09.jpg"",""time"":7333.799999982119}]",[],5,,,,,,,,,,,,,,
alien_welcome,149,551338,0.0-48.0-1.0,,null,run_exp/static/images/task_images/aliens/old_aliens/planet/alien_planet-63.jpg,null,,,,,,,,,,,,63,"6,29,39,26,74,63,62,52,18,67,8,72,19,5,9,55,58,25,30,42,24,4,22,7,2,56,11,73",,,,,,,,,,
land,150,551844,0.0-48.0-2.0,,null,run_exp/static/images/task_images/land.jpg,null,,,,,,90,,,6,,,,,,,,,,,,,,
dig,151,553851,0.0-48.0-3.0,,,,,,,,,,,"[{""stimulus"":""run_exp/static/images/task_images/dig.jpg"",""time"":0.29999998211860657},{""stimulus"":""run_exp/static/images/task_images/land.jpg"",""time"":668.1999999880791},{""stimulus"":""run_exp/static/images/task_images/dig.jpg"",""time"":1339.7999999821186}]",[],6,,,,,,,,,,,,,,
harvest,152,554855,0.0-48.0-4.0,,null,run_exp/static/images/task_images/gems/90.jpg,null,,,,,,67,,,6,,,,,90,0.741456361,0.744444444,,,,,,,
decision,153,555687,0.0-48.0-5.0,,830.8,run_exp/static/images/task_images/land.jpg,65,,,,,,67,,,6,,,,,,,,182127,1,0,FALSE,,,
dig,154,557860,0.0-49.0-0.0,,,,,,,,,,,"[{""stimulus"":""run_exp/static/images/task_images/dig.jpg"",""time"":0.09999999403953552},{""stimulus"":""run_exp/static/images/task_images/land.jpg"",""time"":724.2999999821186},{""stimulus"":""run_exp/static/images/task_images/dig.jpg"",""time"":1448}]",[],6,,,,,,,,,,,,,,
harvest,155,558863,0.0-49.0-1.0,,null,run_exp/static/images/task_images/gems/67.jpg,null,,,,,,50,,,6,,,,,67,0.753025749,0.746268657,,,,,,,
decision,156,559366,0.0-49.0-2.0,,501.8,run_exp/static/images/task_images/land.jpg,65,,,,,,50,,,6,,,,,,,,185806,1,1,FALSE,,,
dig,157,561870,0.0-50.0-0.0,,,,,,,,,,,"[{""stimulus"":""run_exp/static/images/task_images/dig.jpg"",""time"":0.10000002384185791},{""stimulus"":""run_exp/static/images/task_images/land.jpg"",""time"":834.2000000178814},{""stimulus"":""run_exp/static/images/task_images/dig.jpg"",""time"":1667}]",[],6,,,,,,,,,,,,,,
harvest,158,562872,0.0-50.0-1.0,,null,run_exp/static/images/task_images/gems/50.jpg,null,,,,,,39,,,6,,,,,50,0.780100855,0.78,,,,,,,
decision,159,563338,0.0-50.0-2.0,,465.6,run_exp/static/images/task_images/land.jpg,65,,,,,,39,,,6,,,,,,,,189779,1,2,FALSE,,,
dig,160,565875,0.0-51.0-0.0,,,,,,,,,,,"[{""stimulus"":""run_exp/static/images/task_images/dig.jpg"",""time"":0.19999998807907104},{""stimulus"":""run_exp/static/images/task_images/land.jpg"",""time"":850.0999999940395},{""stimulus"":""run_exp/static/images/task_images/dig.jpg"",""time"":1694}]",[],6,,,,,,,,,,,,,,
harvest,161,566880,0.0-51.0-1.0,,null,run_exp/static/images/task_images/gems/39.jpg,null,,,,,,31,,,6,,,,,39,0.800884477,0.794871795,,,,,,,
decision,162,567209,0.0-51.0-2.0,,328.4,run_exp/static/images/task_images/land.jpg,65,,,,,,31,,,6,,,,,,,,193649,1,3,FALSE,,,
dig,163,569886,0.0-52.0-0.0,,,,,,,,,,,"[{""stimulus"":""run_exp/static/images/task_images/dig.jpg"",""time"":0.19999998807907104},{""stimulus"":""run_exp/static/images/task_images/land.jpg"",""time"":895.8999999761581},{""stimulus"":""run_exp/static/images/task_images/dig.jpg"",""time"":1781.0999999940395}]",[],6,,,,,,,,,,,,,,
harvest,164,570891,0.0-52.0-1.0,,null,run_exp/static/images/task_images/gems/31.jpg,null,,,,,,26,,,6,,,,,31,0.83342756,0.838709677,,,,,,,
decision,165,571216,0.0-52.0-2.0,,324.1,run_exp/static/images/task_images/land.jpg,65,,,,,,26,,,6,,,,,,,,197656,1,4,FALSE,,,
dig,166,573901,0.0-53.0-0.0,,,,,,,,,,,"[{""stimulus"":""run_exp/static/images/task_images/dig.jpg"",""time"":0.30000001192092896},{""stimulus"":""run_exp/static/images/task_images/land.jpg"",""time"":895.3000000119209},{""stimulus"":""run_exp/static/images/task_images/dig.jpg"",""time"":1785}]",[],6,,,,,,,,,,,,,,
harvest,167,574907,0.0-53.0-1.0,,null,run_exp/static/images/task_images/gems/26.jpg,null,,,,,,21,,,6,,,,,26,0.789420309,0.807692308,,,,,,,
decision,168,575244,0.0-53.0-2.0,,335.8,run_exp/static/images/task_images/land.jpg,65,,,,,,21,,,6,,,,,,,,201684,1,5,FALSE,,,
dig,169,577911,0.0-54.0-0.0,,,,,,,,,,,"[{""stimulus"":""run_exp/static/images/task_images/dig.jpg"",""time"":0.19999998807907104},{""stimulus"":""run_exp/static/images/task_images/land.jpg"",""time"":892.1999999880791},{""stimulus"":""run_exp/static/images/task_images/dig.jpg"",""time"":1779.7999999821186}]",[],6,,,,,,,,,,,,,,
harvest,170,578915,0.0-54.0-1.0,,null,run_exp/static/images/task_images/gems/21.jpg,null,,,,,,16,,,6,,,,,21,0.764140038,0.761904762,,,,,,,
decision,171,580124,0.0-54.0-2.0,,1208.6,run_exp/static/images/task_images/land.jpg,65,,,,,,16,,,6,,,,,,,,206564,1,6,FALSE,,,
dig,172,581921,0.0-55.0-0.0,,,,,,,,,,,"[{""stimulus"":""run_exp/static/images/task_images/dig.jpg"",""time"":0.19999998807907104},{""stimulus"":""run_exp/static/images/task_images/land.jpg"",""time"":599.6999999880791},{""stimulus"":""run_exp/static/images/task_images/dig.jpg"",""time"":1196.5999999940395}]",[],6,,,,,,,,,,,,,,
harvest,173,582926,0.0-55.0-1.0,,null,run_exp/static/images/task_images/gems/16.jpg,null,,,,,,13,,,6,,,,,16,0.824014132,0.8125,,,,,,,
decision,174,583477,0.0-55.0-2.0,,550.6,run_exp/static/images/task_images/land.jpg,65,,,,,,13,,,6,,,,,,,,209917,1,7,FALSE,,,
dig,175,585929,0.0-56.0-0.0,,,,,,,,,,,"[{""stimulus"":""run_exp/static/images/task_images/dig.jpg"",""time"":0.10000002384185791},{""stimulus"":""run_exp/static/images/task_images/land.jpg"",""time"":819},{""stimulus"":""run_exp/static/images/task_images/dig.jpg"",""time"":1632.800000011921}]",[],6,,,,,,,,,,,,,,
harvest,176,586930,0.0-56.0-1.0,,null,run_exp/static/images/task_images/gems/13.jpg,null,,,,,,11,,,6,,,,,13,0.868496736,0.846153846,,,,,,,
decision,177,587323,0.0-56.0-2.0,,391.6,run_exp/static/images/task_images/land.jpg,65,,,,,,11,,,6,,,,,,,,213763,1,8,FALSE,,,
dig,178,589935,0.0-57.0-0.0,,,,,,,,,,,"[{""stimulus"":""run_exp/static/images/task_images/dig.jpg"",""time"":0.30000001192092896},{""stimulus"":""run_exp/static/images/task_images/land.jpg"",""time"":870.9000000059605},{""stimulus"":""run_exp/static/images/task_images/dig.jpg"",""time"":1743.7000000178814}]",[],6,,,,,,,,,,,,,,
harvest,179,590940,0.0-57.0-1.0,,null,run_exp/static/images/task_images/gems/11.jpg,null,,,,,,9,,,6,,,,,11,0.82675352,0.818181818,,,,,,,
decision,180,591386,0.0-57.0-2.0,,444.6,run_exp/static/images/task_images/land.jpg,65,,,,,,9,,,6,,,,,,,,217826,1,9,FALSE,,,
dig,181,593945,0.0-58.0-0.0,,,,,,,,,,,"[{""stimulus"":""run_exp/static/images/task_images/dig.jpg"",""time"":0},{""stimulus"":""run_exp/static/images/task_images/land.jpg"",""time"":856.5999999940395},{""stimulus"":""run_exp/static/images/task_images/dig.jpg"",""time"":1706.5999999940395}]",[],6,,,,,,,,,,,,,,
harvest,182,594950,0.0-58.0-1.0,,null,run_exp/static/images/task_images/gems/9.jpg,null,,,,,,7,,,6,,,,,9,0.813979427,0.777777778,,,,,,,
decision,183,595255,0.0-58.0-2.0,,303.9,run_exp/static/images/task_images/land.jpg,65,,,,,,7,,,6,,,,,,,,221695,1,10,FALSE,,,
dig,184,597956,0.0-59.0-0.0,,,,,,,,,,,"[{""stimulus"":""run_exp/static/images/task_images/dig.jpg"",""time"":0.09999999403953552},{""stimulus"":""run_exp/static/images/task_images/land.jpg"",""time"":902.6999999880791},{""stimulus"":""run_exp/static/images/task_images/dig.jpg"",""time"":1801.699999988079}]",[],6,,,,,,,,,,,,,,
harvest,185,598962,0.0-59.0-1.0,,null,run_exp/static/images/task_images/gems/7.jpg,null,,,,,,5,,,6,,,,,7,0.75614938,0.714285714,,,,,,,
decision,186,599459,0.0-59.0-2.0,,495.5,run_exp/static/images/task_images/land.jpg,65,,,,,,5,,,6,,,,,,,,225899,1,11,FALSE,,,
dig,187,601964,0.0-60.0-0.0,,,,,,,,,,,"[{""stimulus"":""run_exp/static/images/task_images/dig.jpg"",""time"":0.09999999403953552},{""stimulus"":""run_exp/static/images/task_images/land.jpg"",""time"":835.0999999940395},{""stimulus"":""run_exp/static/images/task_images/dig.jpg"",""time"":1669.5999999940395}]",[],6,,,,,,,,,,,,,,
harvest,188,602971,0.0-60.0-1.0,,null,run_exp/static/images/task_images/gems/5.jpg,null,,,,,,4,,,6,,,,,5,0.834583799,0.8,,,,,,,
decision,189,603361,0.0-60.0-2.0,,389.2,run_exp/static/images/task_images/land.jpg,65,,,,,,4,,,6,,,,,,,,229801,1,12,FALSE,,,
dig,190,605977,0.0-61.0-0.0,,,,,,,,,,,"[{""stimulus"":""run_exp/static/images/task_images/dig.jpg"",""time"":0.19999998807907104},{""stimulus"":""run_exp/static/images/task_images/land.jpg"",""time"":873.9000000059605},{""stimulus"":""run_exp/static/images/task_images/dig.jpg"",""time"":1745.9000000059605}]",[],6,,,,,,,,,,,,,,
harvest,191,606979,0.0-61.0-1.0,,null,run_exp/static/images/task_images/gems/4.jpg,null,,,,,,3,,,6,,,,,4,0.811167941,0.75,,,,,,,
decision,192,607529,0.0-61.0-2.0,,548.7,run_exp/static/images/task_images/land.jpg,65,,,,,,3,,,6,,,,,,,,233969,1,13,FALSE,,,
dig,193,609985,0.0-62.0-0.0,,,,,,,,,,,"[{""stimulus"":""run_exp/static/images/task_images/dig.jpg"",""time"":0.20000001788139343},{""stimulus"":""run_exp/static/images/task_images/land.jpg"",""time"":821.4000000059605},{""stimulus"":""run_exp/static/images/task_images/dig.jpg"",""time"":1639.800000011921}]",[],6,,,,,,,,,,,,,,
harvest,194,610992,0.0-62.0-1.0,,null,run_exp/static/images/task_images/gems/3.jpg,null,,,,,,3,,,6,,,,,3,0.83929474,1,,,,,,,
decision,195,611376,0.0-62.0-2.0,,383.2,run_exp/static/images/task_images/land.jpg,76,,,,,,3,,,6,,,,,,,,237816,1,14,TRUE,,,
travel,196,620998,0.0-63.0-0.0,,,,,,,,,,,"[{""stimulus"":""run_exp/static/images/task_images/rocket-01.jpg"",""time"":0.29999998211860657},{""stimulus"":""run_exp/static/images/task_images/rocket-02.jpg"",""time"":1070},{""stimulus"":""run_exp/static/images/task_images/rocket-03.jpg"",""time"":2139.399999976158},{""stimulus"":""run_exp/static/images/task_images/rocket-04.jpg"",""time"":3209.899999976158},{""stimulus"":""run_exp/static/images/task_images/rocket-05.jpg"",""time"":4273.199999988079},{""stimulus"":""run_exp/static/images/task_images/rocket-06.jpg"",""time"":5341.899999976158},{""stimulus"":""run_exp/static/images/task_images/rocket-07.jpg"",""time"":6414},{""stimulus"":""run_exp/static/images/task_images/rocket-08.jpg"",""time"":7480.299999982119},{""stimulus"":""run_exp/static/images/task_images/rocket-09.jpg"",""time"":8546.59999999404}]",[],6,,,,,,,,,,,,,,
alien_welcome,197,626004,0.0-63.0-1.0,,null,run_exp/static/images/task_images/aliens/old_aliens/planet/alien_planet-62.jpg,null,,,,,,,,,,,,62,"6,29,39,26,74,63,62,52,18,67,8,72,19,5,9,55,58,25,30,42,24,4,22,7,2,56,11,73",,,,,,,,,,
land,198,626508,0.0-63.0-2.0,,null,run_exp/static/images/task_images/land.jpg,null,,,,,,90,,,7,,,,,,,,,,,,,,
dig,199,628517,0.0-63.0-3.0,,,,,,,,,,,"[{""stimulus"":""run_exp/static/images/task_images/dig.jpg"",""time"":0.30000001192092896},{""stimulus"":""run_exp/static/images/task_images/land.jpg"",""time"":668.3000000119209},{""stimulus"":""run_exp/static/images/task_images/dig.jpg"",""time"":1340.1000000238419}]",[],7,,,,,,,,,,,,,,
harvest,200,629521,0.0-63.0-4.0,,null,run_exp/static/images/task_images/gems/90.jpg,null,,,,,,68,,,7,,,,,90,0.757011316,0.755555556,,,,,,,
decision,201,629994,0.0-63.0-5.0,,471.9,run_exp/static/images/task_images/land.jpg,65,,,,,,68,,,7,,,,,,,,256434,1,0,FALSE,,,
dig,202,632526,0.0-64.0-0.0,,,,,,,,,,,"[{""stimulus"":""run_exp/static/images/task_images/dig.jpg"",""time"":0.19999998807907104},{""stimulus"":""run_exp/static/images/task_images/land.jpg"",""time"":847.7999999821186},{""stimulus"":""run_exp/static/images/task_images/dig.jpg"",""time"":1686.3999999761581}]",[],7,,,,,,,,,,,,,,
harvest,203,633528,0.0-64.0-1.0,,null,run_exp/static/images/task_images/gems/68.jpg,null,,,,,,59,,,7,,,,,68,0.869161558,0.867647059,,,,,,,
decision,204,633938,0.0-64.0-2.0,,409,run_exp/static/images/task_images/land.jpg,65,,,,,,59,,,7,,,,,,,,260378,1,1,FALSE,,,
dig,205,636531,0.0-65.0-0.0,,,,,,,,,,,"[{""stimulus"":""run_exp/static/images/task_images/dig.jpg"",""time"":0.09999999403953552},{""stimulus"":""run_exp/static/images/task_images/land.jpg"",""time"":868.7999999821186},{""stimulus"":""run_exp/static/images/task_images/dig.jpg"",""time"":1729.2999999821186}]",[],7,,,,,,,,,,,,,,
harvest,206,637534,0.0-65.0-1.0,,null,run_exp/static/images/task_images/gems/59.jpg,null,,,,,,50,,,7,,,,,59,0.85534507,0.847457627,,,,,,,
decision,207,638018,0.0-65.0-2.0,,483.4,run_exp/static/images/task_images/land.jpg,65,,,,,,50,,,7,,,,,,,,264458,1,2,FALSE,,,
dig,208,640537,0.0-66.0-0.0,,,,,,,,,,,"[{""stimulus"":""run_exp/static/images/task_images/dig.jpg"",""time"":0.09999999403953552},{""stimulus"":""run_exp/static/images/task_images/land.jpg"",""time"":842.5},{""stimulus"":""run_exp/static/images/task_images/dig.jpg"",""time"":1678.800000011921}]",[],7,,,,,,,,,,,,,,
harvest,209,641543,0.0-66.0-1.0,,null,run_exp/static/images/task_images/gems/50.jpg,null,,,,,,41,,,7,,,,,50,0.823818188,0.82,,,,,,,
decision,210,642319,0.0-66.0-2.0,,775.1,run_exp/static/images/task_images/land.jpg,65,,,,,,41,,,7,,,,,,,,268759,1,3,FALSE,,,
dig,211,644547,0.0-67.0-0.0,,,,,,,,,,,"[{""stimulus"":""run_exp/static/images/task_images/dig.jpg"",""time"":0.19999998807907104},{""stimulus"":""run_exp/static/images/task_images/land.jpg"",""time"":746.6999999880791},{""stimulus"":""run_exp/static/images/task_images/dig.jpg"",""time"":1487.699999988079}]",[],7,,,,,,,,,,,,,,
harvest,212,645552,0.0-67.0-1.0,,null,run_exp/static/images/task_images/gems/41.jpg,null,,,,,,34,,,7,,,,,41,0.81827562,0.829268293,,,,,,,
decision,213,645947,0.0-67.0-2.0,,393.4,run_exp/static/images/task_images/land.jpg,65,,,,,,34,,,7,,,,,,,,272387,1,4,FALSE,,,
dig,214,648554,0.0-68.0-0.0,,,,,,,,,,,"[{""stimulus"":""run_exp/static/images/task_images/dig.jpg"",""time"":0.09999999403953552},{""stimulus"":""run_exp/static/images/task_images/land.jpg"",""time"":873.1999999880791},{""stimulus"":""run_exp/static/images/task_images/dig.jpg"",""time"":1738}]",[],7,,,,,,,,,,,,,,
harvest,215,649559,0.0-68.0-1.0,,null,run_exp/static/images/task_images/gems/34.jpg,null,,,,,,25,,,7,,,,,34,0.736013605,0.735294118,,,,,,,
decision,216,649924,0.0-68.0-2.0,,364.3,run_exp/static/images/task_images/land.jpg,65,,,,,,25,,,7,,,,,,,,276364,1,5,FALSE,,,
dig,217,652564,0.0-69.0-0.0,,,,,,,,,,,"[{""stimulus"":""run_exp/static/images/task_images/dig.jpg"",""time"":0},{""stimulus"":""run_exp/static/images/task_images/land.jpg"",""time"":882.5999999940395},{""stimulus"":""run_exp/static/images/task_images/dig.jpg"",""time"":1761.7000000178814}]",[],7,,,,,,,,,,,,,,
harvest,218,653570,0.0-69.0-1.0,,null,run_exp/static/images/task_images/gems/25.jpg,null,,,,,,21,,,7,,,,,25,0.823750404,0.84,,,,,,,
decision,219,653974,0.0-69.0-2.0,,402.7,run_exp/static/images/task_images/land.jpg,65,,,,,,21,,,7,,,,,,,,280414,1,6,FALSE,,,
dig,220,656574,0.0-70.0-0.0,,,,,,,,,,,"[{""stimulus"":""run_exp/static/images/task_images/dig.jpg"",""time"":0.30000001192092896},{""stimulus"":""run_exp/static/images/task_images/land.jpg"",""time"":870.4000000059605},{""stimulus"":""run_exp/static/images/task_images/dig.jpg"",""time"":1735.9000000059605}]",[],7,,,,,,,,,,,,,,
harvest,221,657578,0.0-70.0-1.0,,null,run_exp/static/images/task_images/gems/21.jpg,null,,,,,,17,,,7,,,,,21,0.824660786,0.80952381,,,,,,,
decision,222,657945,0.0-70.0-2.0,,366.4,run_exp/static/images/task_images/land.jpg,65,,,,,,17,,,7,,,,,,,,284386,1,7,FALSE,,,
dig,223,660581,0.0-71.0-0.0,,,,,,,,,,,"[{""stimulus"":""run_exp/static/images/task_images/dig.jpg"",""time"":0.19999998807907104},{""stimulus"":""run_exp/static/images/task_images/land.jpg"",""time"":877.8999999761581},{""stimulus"":""run_exp/static/images/task_images/dig.jpg"",""time"":1759.7999999821186}]",[],7,,,,,,,,,,,,,,
harvest,224,661585,0.0-71.0-1.0,,null,run_exp/static/images/task_images/gems/17.jpg,null,,,,,,13,,,7,,,,,17,0.764319511,0.764705882,,,,,,,
decision,225,661694,0.0-71.0-2.0,,107.5,run_exp/static/images/task_images/land.jpg,65,,,,,,13,,,7,,,,,,,,288134,1,8,FALSE,,,
dig,226,664591,0.0-72.0-0.0,,,,,,,,,,,"[{""stimulus"":""run_exp/static/images/task_images/dig.jpg"",""time"":0.09999999403953552},{""stimulus"":""run_exp/static/images/task_images/land.jpg"",""time"":965.0999999940395},{""stimulus"":""run_exp/static/images/task_images/dig.jpg"",""time"":1932.2999999821186}]",[],7,,,,,,,,,,,,,,
harvest,227,665596,0.0-72.0-1.0,,null,run_exp/static/images/task_images/gems/13.jpg,null,,,,,,9,,,7,,,,,13,0.695637002,0.692307692,,,,,,,
decision,228,666084,0.0-72.0-2.0,,487.6,run_exp/static/images/task_images/land.jpg,65,,,,,,9,,,7,,,,,,,,292524,1,9,FALSE,,,
dig,229,668599,0.0-73.0-0.0,,,,,,,,,,,"[{""stimulus"":""run_exp/static/images/task_images/dig.jpg"",""time"":0.09999999403953552},{""stimulus"":""run_exp/static/images/task_images/land.jpg"",""time"":839.3000000119209},{""stimulus"":""run_exp/static/images/task_images/dig.jpg"",""time"":1675.300000011921}]",[],7,,,,,,,,,,,,,,
harvest,230,669603,0.0-73.0-1.0,,null,run_exp/static/images/task_images/gems/9.jpg,null,,,,,,7,,,7,,,,,9,0.807819009,0.777777778,,,,,,,
decision,231,669947,0.0-73.0-2.0,,343.1,run_exp/static/images/task_images/land.jpg,65,,,,,,7,,,7,,,,,,,,296387,1,10,FALSE,,,
dig,232,672607,0.0-74.0-0.0,,,,,,,,,,,"[{""stimulus"":""run_exp/static/images/task_images/dig.jpg"",""time"":0.09999999403953552},{""stimulus"":""run_exp/static/images/task_images/land.jpg"",""time"":887.0999999940395},{""stimulus"":""run_exp/static/images/task_images/dig.jpg"",""time"":1772.699999988079}]",[],7,,,,,,,,,,,,,,
harvest,233,673610,0.0-74.0-1.0,,null,run_exp/static/images/task_images/gems/7.jpg,null,,,,,,6,,,7,,,,,7,0.848022864,0.857142857,,,,,,,
decision,234,674038,0.0-74.0-2.0,,426.3,run_exp/static/images/task_images/land.jpg,65,,,,,,6,,,7,,,,,,,,300478,1,11,TRUE,,,
end_of_block_continue,235,682869,0.0-75.0-0.0,,null,run_exp/static/audio/clip_32_block_end.m4a,,,,,,null,,,,,,,,,,,,,,,,,,
alien_welcome,236,687876,0.0-76.0-0.0,,null,run_exp/static/images/task_images/aliens/old_aliens/planet/alien_planet-52.jpg,null,,,,,,,,,,,,52,"6,29,39,26,74,63,62,52,18,67,8,72,19,5,9,55,58,25,30,42,24,4,22,7,2,56,11,73",,,,,,,,,,
land,237,688381,0.0-76.0-1.0,,null,run_exp/static/images/task_images/land.jpg,null,,,,,,101,,,8,,,,,,,,,,,,,,
dig,238,690387,0.0-76.0-2.0,,,,,,,,,,,"[{""stimulus"":""run_exp/static/images/task_images/dig.jpg"",""time"":0.30000001192092896},{""stimulus"":""run_exp/static/images/task_images/land.jpg"",""time"":670.9000000059605},{""stimulus"":""run_exp/static/images/task_images/dig.jpg"",""time"":1335.699999988079}]",[],8,,,,,,,,,,,,,,
harvest,239,691391,0.0-76.0-3.0,,null,run_exp/static/images/task_images/gems/101.jpg,null,,,,,,19,,,8,,,,,101,0.190772896,0.188118812,,,,,,,
decision,240,692369,0.0-76.0-4.0,,977.2,run_exp/static/images/task_images/land.jpg,65,,,,,,19,,,8,,,,,,,,9496,2,0,FALSE,,,
dig,241,694396,0.0-77.0-0.0,,,,,,,,,,,"[{""stimulus"":""run_exp/static/images/task_images/dig.jpg"",""time"":0.09999999403953552},{""stimulus"":""run_exp/static/images/task_images/land.jpg"",""time"":679.6999999880791},{""stimulus"":""run_exp/static/images/task_images/dig.jpg"",""time"":1350.7999999821186}]",[],8,,,,,,,,,,,,,,
harvest,242,695402,0.0-77.0-1.0,,null,run_exp/static/images/task_images/gems/19.jpg,null,,,,,,3,,,8,,,,,19,0.163001468,0.157894737,,,,,,,
decision,243,696472,0.0-77.0-2.0,,1068.8,run_exp/static/images/task_images/land.jpg,76,,,,,,3,,,8,,,,,,,,13599,2,1,TRUE,,,
travel,244,705409,0.0-78.0-0.0,,,,,,,,,,,"[{""stimulus"":""run_exp/static/images/task_images/rocket-01.jpg"",""time"":0.20000001788139343},{""stimulus"":""run_exp/static/images/task_images/rocket-02.jpg"",""time"":997.7000000178814},{""stimulus"":""run_exp/static/images/task_images/rocket-03.jpg"",""time"":1985.2000000178814},{""stimulus"":""run_exp/static/images/task_images/rocket-04.jpg"",""time"":2980.4000000059605},{""stimulus"":""run_exp/static/images/task_images/rocket-05.jpg"",""time"":3972.100000023842},{""stimulus"":""run_exp/static/images/task_images/rocket-06.jpg"",""time"":4964},{""stimulus"":""run_exp/static/images/task_images/rocket-07.jpg"",""time"":5955.800000011921},{""stimulus"":""run_exp/static/images/task_images/rocket-08.jpg"",""time"":6949.700000017881},{""stimulus"":""run_exp/static/images/task_images/rocket-09.jpg"",""time"":7936.9000000059605}]",[],8,,,,,,,,,,,,,,
alien_welcome,245,710416,0.0-78.0-1.0,,null,run_exp/static/images/task_images/aliens/old_aliens/planet/alien_planet-18.jpg,null,,,,,,,,,,,,18,"6,29,39,26,74,63,62,52,18,67,8,72,19,5,9,55,58,25,30,42,24,4,22,7,2,56,11,73",,,,,,,,,,
land,246,710920,0.0-78.0-2.0,,null,run_exp/static/images/task_images/land.jpg,null,,,,,,110,,,9,,,,,,,,,,,,,,
dig,247,712927,0.0-78.0-3.0,,,,,,,,,,,"[{""stimulus"":""run_exp/static/images/task_images/dig.jpg"",""time"":0.30000001192092896},{""stimulus"":""run_exp/static/images/task_images/land.jpg"",""time"":670.7000000178814},{""stimulus"":""run_exp/static/images/task_images/dig.jpg"",""time"":1336.7000000178814}]",[],9,,,,,,,,,,,,,,
harvest,248,713933,0.0-78.0-4.0,,null,run_exp/static/images/task_images/gems/110.jpg,null,,,,,,27,,,9,,,,,110,0.246200981,0.245454545,,,,,,,
decision,249,714993,0.0-78.0-5.0,,1058.9,run_exp/static/images/task_images/land.jpg,65,,,,,,27,,,9,,,,,,,,32120,2,0,FALSE,,,
dig,250,716938,0.0-79.0-0.0,,,,,,,,,,,"[{""stimulus"":""run_exp/static/images/task_images/dig.jpg"",""time"":0.09999999403953552},{""stimulus"":""run_exp/static/images/task_images/land.jpg"",""time"":652.6999999880791},{""stimulus"":""run_exp/static/images/task_images/dig.jpg"",""time"":1299.699999988079}]",[],9,,,,,,,,,,,,,,
harvest,251,717944,0.0-79.0-1.0,,null,run_exp/static/images/task_images/gems/27.jpg,null,,,,,,7,,,9,,,,,27,0.255440925,0.259259259,,,,,,,
decision,252,718544,0.0-79.0-2.0,,599.3,run_exp/static/images/task_images/land.jpg,65,,,,,,7,,,9,,,,,,,,35671,2,1,FALSE,,,
dig,253,720949,0.0-80.0-0.0,,,,,,,,,,,"[{""stimulus"":""run_exp/static/images/task_images/dig.jpg"",""time"":0.09999999403953552},{""stimulus"":""run_exp/static/images/task_images/land.jpg"",""time"":801.6999999880791},{""stimulus"":""run_exp/static/images/task_images/dig.jpg"",""time"":1605.699999988079}]",[],9,,,,,,,,,,,,,,
harvest,254,721952,0.0-80.0-1.0,,null,run_exp/static/images/task_images/gems/7.jpg,null,,,,,,2,,,9,,,,,7,0.215118878,0.285714286,,,,,,,
decision,255,722263,0.0-80.0-2.0,,309.7,run_exp/static/images/task_images/land.jpg,76,,,,,,2,,,9,,,,,,,,39390,2,2,TRUE,,,
travel,256,731951,0.0-81.0-0.0,,,,,,,,,,,"[{""stimulus"":""run_exp/static/images/task_images/rocket-01.jpg"",""time"":0.10000002384185791},{""stimulus"":""run_exp/static/images/task_images/rocket-02.jpg"",""time"":1077},{""stimulus"":""run_exp/static/images/task_images/rocket-03.jpg"",""time"":2154.800000011921},{""stimulus"":""run_exp/static/images/task_images/rocket-04.jpg"",""time"":3233.800000011921},{""stimulus"":""run_exp/static/images/task_images/rocket-05.jpg"",""time"":4306.800000011921},{""stimulus"":""run_exp/static/images/task_images/rocket-06.jpg"",""time"":5380.700000017881},{""stimulus"":""run_exp/static/images/task_images/rocket-07.jpg"",""time"":6460.800000011921},{""stimulus"":""run_exp/static/images/task_images/rocket-08.jpg"",""time"":7532.800000011921},{""stimulus"":""run_exp/static/images/task_images/rocket-09.jpg"",""time"":8613.600000023842}]",[],9,,,,,,,,,,,,,,
alien_welcome,257,736957,0.0-81.0-1.0,,null,run_exp/static/images/task_images/aliens/old_aliens/planet/alien_planet-67.jpg,null,,,,,,,,,,,,67,"6,29,39,26,74,63,62,52,18,67,8,72,19,5,9,55,58,25,30,42,24,4,22,7,2,56,11,73",,,,,,,,,,
land,258,737463,0.0-81.0-2.0,,null,run_exp/static/images/task_images/land.jpg,null,,,,,,99,,,10,,,,,,,,,,,,,,
dig,259,739469,0.0-81.0-3.0,,,,,,,,,,,"[{""stimulus"":""run_exp/static/images/task_images/dig.jpg"",""time"":0.30000001192092896},{""stimulus"":""run_exp/static/images/task_images/land.jpg"",""time"":671.0999999940395},{""stimulus"":""run_exp/static/images/task_images/dig.jpg"",""time"":1335.300000011921}]",[],10,,,,,,,,,,,,,,
harvest,260,740473,0.0-81.0-4.0,,null,run_exp/static/images/task_images/gems/99.jpg,null,,,,,,19,,,10,,,,,99,0.195754346,0.191919192,,,,,,,
decision,261,741014,0.0-81.0-5.0,,540,run_exp/static/images/task_images/land.jpg,65,,,,,,19,,,10,,,,,,,,58141,2,0,FALSE,,,
dig,262,743478,0.0-82.0-0.0,,,,,,,,,,,"[{""stimulus"":""run_exp/static/images/task_images/dig.jpg"",""time"":0.20000001788139343},{""stimulus"":""run_exp/static/images/task_images/land.jpg"",""time"":825.8000000119209},{""stimulus"":""run_exp/static/images/task_images/dig.jpg"",""time"":1645.7000000178814}]",[],10,,,,,,,,,,,,,,
harvest,263,744484,0.0-82.0-1.0,,null,run_exp/static/images/task_images/gems/19.jpg,null,,,,,,5,,,10,,,,,19,0.270505831,0.263157895,,,,,,,
decision,264,744870,0.0-82.0-2.0,,385,run_exp/static/images/task_images/land.jpg,65,,,,,,5,,,10,,,,,,,,61997,2,1,FALSE,,,
dig,265,747490,0.0-83.0-0.0,,,,,,,,,,,"[{""stimulus"":""run_exp/static/images/task_images/dig.jpg"",""time"":0.09999999403953552},{""stimulus"":""run_exp/static/images/task_images/land.jpg"",""time"":874.1999999880791},{""stimulus"":""run_exp/static/images/task_images/dig.jpg"",""time"":1747.7999999821186}]",[],10,,,,,,,,,,,,,,
harvest,266,748494,0.0-83.0-1.0,,null,run_exp/static/images/task_images/gems/5.jpg,null,,,,,,1,,,10,,,,,5,0.191653648,0.2,,,,,,,
decision,267,748757,0.0-83.0-2.0,,262.8,run_exp/static/images/task_images/land.jpg,76,,,,,,1,,,10,,,,,,,,65884,2,2,TRUE,,,
travel,268,758497,0.0-84.0-0.0,,,,,,,,,,,"[{""stimulus"":""run_exp/static/images/task_images/rocket-01.jpg"",""time"":0.10000002384185791},{""stimulus"":""run_exp/static/images/task_images/rocket-02.jpg"",""time"":1086.6000000238419},{""stimulus"":""run_exp/static/images/task_images/rocket-03.jpg"",""time"":2167.800000011921},{""stimulus"":""run_exp/static/images/task_images/rocket-04.jpg"",""time"":3246.7000000178814},{""stimulus"":""run_exp/static/images/task_images/rocket-05.jpg"",""time"":4326.600000023842},{""stimulus"":""run_exp/static/images/task_images/rocket-06.jpg"",""time"":5410},{""stimulus"":""run_exp/static/images/task_images/rocket-07.jpg"",""time"":6492.700000017881},{""stimulus"":""run_exp/static/images/task_images/rocket-08.jpg"",""time"":7572.700000017881},{""stimulus"":""run_exp/static/images/task_images/rocket-09.jpg"",""time"":8653.700000017881}]",[],10,,,,,,,,,,,,,,
alien_welcome,269,763499,0.0-84.0-1.0,,null,run_exp/static/images/task_images/aliens/old_aliens/planet/alien_planet-8.jpg,null,,,,,,,,,,,,8,"6,29,39,26,74,63,62,52,18,67,8,72,19,5,9,55,58,25,30,42,24,4,22,7,2,56,11,73",,,,,,,,,,
land,270,764005,0.0-84.0-2.0,,null,run_exp/static/images/task_images/land.jpg,null,,,,,,107,,,11,,,,,,,,,,,,,,
dig,271,766008,0.0-84.0-3.0,,,,,,,,,,,"[{""stimulus"":""run_exp/static/images/task_images/dig.jpg"",""time"":0.30000001192092896},{""stimulus"":""run_exp/static/images/task_images/land.jpg"",""time"":671.0999999940395},{""stimulus"":""run_exp/static/images/task_images/dig.jpg"",""time"":1339.9000000059605}]",[],11,,,,,,,,,,,,,,
harvest,272,767014,0.0-84.0-4.0,,null,run_exp/static/images/task_images/gems/107.jpg,null,,,,,,92,,,11,,,,,107,0.856162149,0.859813084,,,,,,,
decision,273,767762,0.0-84.0-5.0,,746.8,run_exp/static/images/task_images/land.jpg,65,,,,,,92,,,11,,,,,,,,84889,2,0,FALSE,,,
dig,274,770019,0.0-85.0-0.0,,,,,,,,,,,"[{""stimulus"":""run_exp/static/images/task_images/dig.jpg"",""time"":0.20000001788139343},{""stimulus"":""run_exp/static/images/task_images/land.jpg"",""time"":751.8000000119209},{""stimulus"":""run_exp/static/images/task_images/dig.jpg"",""time"":1506.4000000059605}]",[],11,,,,,,,,,,,,,,
harvest,275,771021,0.0-85.0-1.0,,null,run_exp/static/images/task_images/gems/92.jpg,null,,,,,,71,,,11,,,,,92,0.766346783,0.77173913,,,,,,,
decision,276,771626,0.0-85.0-2.0,,604.5,run_exp/static/images/task_images/land.jpg,65,,,,,,71,,,11,,,,,,,,88753,2,1,FALSE,,,
dig,277,774027,0.0-86.0-0.0,,,,,,,,,,,"[{""stimulus"":""run_exp/static/images/task_images/dig.jpg"",""time"":0.09999999403953552},{""stimulus"":""run_exp/static/images/task_images/land.jpg"",""time"":799.6999999880791},{""stimulus"":""run_exp/static/images/task_images/dig.jpg"",""time"":1598.2999999821186}]",[],11,,,,,,,,,,,,,,
harvest,278,775032,0.0-86.0-1.0,,null,run_exp/static/images/task_images/gems/71.jpg,null,,,,,,56,,,11,,,,,71,0.785282949,0.788732394,,,,,,,
decision,279,775417,0.0-86.0-2.0,,384.2,run_exp/static/images/task_images/land.jpg,65,,,,,,56,,,11,,,,,,,,92544,2,2,FALSE,,,
dig,280,778034,0.0-87.0-0.0,,,,,,,,,,,"[{""stimulus"":""run_exp/static/images/task_images/dig.jpg"",""time"":0.19999998807907104},{""stimulus"":""run_exp/static/images/task_images/land.jpg"",""time"":872.9000000059605},{""stimulus"":""run_exp/static/images/task_images/dig.jpg"",""time"":1743.2999999821186}]",[],11,,,,,,,,,,,,,,
harvest,281,779037,0.0-87.0-1.0,,null,run_exp/static/images/task_images/gems/56.jpg,null,,,,,,50,,,11,,,,,56,0.896959376,0.892857143,,,,,,,
decision,282,780895,0.0-87.0-2.0,,1857.3,run_exp/static/images/task_images/land.jpg,65,,,,,,50,,,11,,,,,,,,98022,2,3,FALSE,,,
dig,283,782040,0.0-88.0-0.0,,,,,,,,,,,"[{""stimulus"":""run_exp/static/images/task_images/dig.jpg"",""time"":0.10000002384185791},{""stimulus"":""run_exp/static/images/task_images/land.jpg"",""time"":381.5},{""stimulus"":""run_exp/static/images/task_images/dig.jpg"",""time"":761.3000000119209}]",[],11,,,,,,,,,,,,,,
harvest,284,783044,0.0-88.0-1.0,,null,run_exp/static/images/task_images/gems/50.jpg,null,,,,,,37,,,11,,,,,50,0.743614798,0.74,,,,,,,
decision,285,784113,0.0-88.0-2.0,,1067.3,run_exp/static/images/task_images/land.jpg,65,,,,,,37,,,11,,,,,,,,101240,2,4,FALSE,,,
dig,286,786050,0.0-89.0-0.0,,,,,,,,,,,"[{""stimulus"":""run_exp/static/images/task_images/dig.jpg"",""time"":0.20000001788139343},{""stimulus"":""run_exp/static/images/task_images/land.jpg"",""time"":649},{""stimulus"":""run_exp/static/images/task_images/dig.jpg"",""time"":1292.7000000178814}]",[],11,,,,,,,,,,,,,,
harvest,287,787054,0.0-89.0-1.0,,null,run_exp/static/images/task_images/gems/37.jpg,null,,,,,,31,,,11,,,,,37,0.827230739,0.837837838,,,,,,,
decision,288,787837,0.0-89.0-2.0,,782.2,run_exp/static/images/task_images/land.jpg,65,,,,,,31,,,11,,,,,,,,104964,2,5,FALSE,,,
dig,289,790066,0.0-90.0-0.0,,,,,,,,,,,"[{""stimulus"":""run_exp/static/images/task_images/dig.jpg"",""time"":0.30000001192092896},{""stimulus"":""run_exp/static/images/task_images/land.jpg"",""time"":745},{""stimulus"":""run_exp/static/images/task_images/dig.jpg"",""time"":1483.5}]",[],11,,,,,,,,,,,,,,
harvest,290,791071,0.0-90.0-1.0,,null,run_exp/static/images/task_images/gems/31.jpg,null,,,,,,25,,,11,,,,,31,0.809120895,0.806451613,,,,,,,
decision,291,791484,0.0-90.0-2.0,,412.8,run_exp/static/images/task_images/land.jpg,65,,,,,,25,,,11,,,,,,,,108612,2,6,FALSE,,,
dig,292,794075,0.0-91.0-0.0,,,,,,,,,,,"[{""stimulus"":""run_exp/static/images/task_images/dig.jpg"",""time"":0.29999998211860657},{""stimulus"":""run_exp/static/images/task_images/land.jpg"",""time"":866.9000000059605},{""stimulus"":""run_exp/static/images/task_images/dig.jpg"",""time"":1727.5999999940395}]",[],11,,,,,,,,,,,,,,
harvest,293,795077,0.0-91.0-1.0,,null,run_exp/static/images/task_images/gems/25.jpg,null,,,,,,19,,,11,,,,,25,0.7693775,0.76,,,,,,,
decision,294,795535,0.0-91.0-2.0,,455.9,run_exp/static/images/task_images/land.jpg,65,,,,,,19,,,11,,,,,,,,112662,2,7,FALSE,,,
dig,295,798084,0.0-92.0-0.0,,,,,,,,,,,"[{""stimulus"":""run_exp/static/images/task_images/dig.jpg"",""time"":0.09999999403953552},{""stimulus"":""run_exp/static/images/task_images/land.jpg"",""time"":848.6999999880791},{""stimulus"":""run_exp/static/images/task_images/dig.jpg"",""time"":1699.699999988079}]",[],11,,,,,,,,,,,,,,
harvest,296,799087,0.0-92.0-1.0,,null,run_exp/static/images/task_images/gems/19.jpg,null,,,,,,13,,,11,,,,,19,0.679910096,0.684210526,,,,,,,
decision,297,799565,0.0-92.0-2.0,,477.2,run_exp/static/images/task_images/land.jpg,65,,,,,,13,,,11,,,,,,,,116693,2,8,FALSE,,,
dig,298,802090,0.0-93.0-0.0,,,,,,,,,,,"[{""stimulus"":""run_exp/static/images/task_images/dig.jpg"",""time"":0.09999999403953552},{""stimulus"":""run_exp/static/images/task_images/land.jpg"",""time"":845.0999999940395},{""stimulus"":""run_exp/static/images/task_images/dig.jpg"",""time"":1685.5999999940395}]",[],11,,,,,,,,,,,,,,
harvest,299,803094,0.0-93.0-1.0,,null,run_exp/static/images/task_images/gems/13.jpg,null,,,,,,11,,,11,,,,,13,0.883924092,0.846153846,,,,,,,
decision,300,805327,0.0-93.0-2.0,,2232.2,run_exp/static/images/task_images/land.jpg,65,,,,,,11,,,11,,,,,,,,122454,2,9,FALSE,,,
dig,301,806096,0.0-94.0-0.0,,,,,,,,,,,"[{""stimulus"":""run_exp/static/images/task_images/dig.jpg"",""time"":0.20000001788139343},{""stimulus"":""run_exp/static/images/task_images/land.jpg"",""time"":258.90000000596046},{""stimulus"":""run_exp/static/images/task_images/dig.jpg"",""time"":511.10000002384186}]",[],11,,,,,,,,,,,,,,
harvest,302,807102,0.0-94.0-1.0,,null,run_exp/static/images/task_images/gems/11.jpg,null,,,,,,8,,,11,,,,,11,0.702716125,0.727272727,,,,,,,
decision,303,807789,0.0-94.0-2.0,,685.6,run_exp/static/images/task_images/land.jpg,65,,,,,,8,,,11,,,,,,,,124916,2,10,FALSE,,,
dig,304,810106,0.0-95.0-0.0,,,,,,,,,,,"[{""stimulus"":""run_exp/static/images/task_images/dig.jpg"",""time"":0.09999999403953552},{""stimulus"":""run_exp/static/images/task_images/land.jpg"",""time"":772.4000000059605},{""stimulus"":""run_exp/static/images/task_images/dig.jpg"",""time"":1546.5}]",[],11,,,,,,,,,,,,,,
harvest,305,811111,0.0-95.0-1.0,,null,run_exp/static/images/task_images/gems/8.jpg,null,,,,,,6,,,11,,,,,8,0.790707585,0.75,,,,,,,
decision,306,811465,0.0-95.0-2.0,,353.2,run_exp/static/images/task_images/land.jpg,76,,,,,,6,,,11,,,,,,,,128592,2,11,TRUE,,,
travel,307,821109,0.0-96.0-0.0,,,,,,,,,,,"[{""stimulus"":""run_exp/static/images/task_images/rocket-01.jpg"",""time"":0.10000002384185791},{""stimulus"":""run_exp/static/images/task_images/rocket-02.jpg"",""time"":1075},{""stimulus"":""run_exp/static/images/task_images/rocket-03.jpg"",""time"":2143},{""stimulus"":""run_exp/static/images/task_images/rocket-04.jpg"",""time"":3218.800000011921},{""stimulus"":""run_exp/static/images/task_images/rocket-05.jpg"",""time"":4285.700000017881},{""stimulus"":""run_exp/static/images/task_images/rocket-06.jpg"",""time"":5360.800000011921},{""stimulus"":""run_exp/static/images/task_images/rocket-07.jpg"",""time"":6431.100000023842},{""stimulus"":""run_exp/static/images/task_images/rocket-08.jpg"",""time"":7499.200000017881},{""stimulus"":""run_exp/static/images/task_images/rocket-09.jpg"",""time"":8573.800000011921}]",[],11,,,,,,,,,,,,,,
alien_welcome,308,826114,0.0-96.0-1.0,,null,run_exp/static/images/task_images/aliens/old_aliens/planet/alien_planet-72.jpg,null,,,,,,,,,,,,72,"6,29,39,26,74,63,62,52,18,67,8,72,19,5,9,55,58,25,30,42,24,4,22,7,2,56,11,73",,,,,,,,,,
land,309,826616,0.0-96.0-2.0,,null,run_exp/static/images/task_images/land.jpg,null,,,,,,96,,,12,,,,,,,,,,,,,,
dig,310,828623,0.0-96.0-3.0,,,,,,,,,,,"[{""stimulus"":""run_exp/static/images/task_images/dig.jpg"",""time"":0.10000002384185791},{""stimulus"":""run_exp/static/images/task_images/land.jpg"",""time"":670.6000000238419},{""stimulus"":""run_exp/static/images/task_images/dig.jpg"",""time"":1338.800000011921}]",[],12,,,,,,,,,,,,,,
harvest,311,829626,0.0-96.0-4.0,,null,run_exp/static/images/task_images/gems/96.jpg,null,,,,,,72,,,12,,,,,96,0.755084406,0.75,,,,,,,
decision,312,829987,0.0-96.0-5.0,,359.9,run_exp/static/images/task_images/land.jpg,65,,,,,,72,,,12,,,,,,,,147114,2,0,FALSE,,,
dig,313,832634,0.0-97.0-0.0,,,,,,,,,,,"[{""stimulus"":""run_exp/static/images/task_images/dig.jpg"",""time"":0},{""stimulus"":""run_exp/static/images/task_images/land.jpg"",""time"":881},{""stimulus"":""run_exp/static/images/task_images/dig.jpg"",""time"":1764.300000011921}]",[],12,,,,,,,,,,,,,,
harvest,314,833640,0.0-97.0-1.0,,null,run_exp/static/images/task_images/gems/72.jpg,null,,,,,,56,,,12,,,,,72,0.781923787,0.777777778,,,,,,,
decision,315,834034,0.0-97.0-2.0,,392.7,run_exp/static/images/task_images/land.jpg,65,,,,,,56,,,12,,,,,,,,151161,2,1,FALSE,,,
dig,316,836646,0.0-98.0-0.0,,,,,,,,,,,"[{""stimulus"":""run_exp/static/images/task_images/dig.jpg"",""time"":0.19999998807907104},{""stimulus"":""run_exp/static/images/task_images/land.jpg"",""time"":872.0999999940395},{""stimulus"":""run_exp/static/images/task_images/dig.jpg"",""time"":1739}]",[],12,,,,,,,,,,,,,,
harvest,317,837649,0.0-98.0-1.0,,null,run_exp/static/images/task_images/gems/56.jpg,null,,,,,,46,,,12,,,,,56,0.816898526,0.821428571,,,,,,,
decision,318,839137,0.0-98.0-2.0,,1487.9,run_exp/static/images/task_images/land.jpg,65,,,,,,46,,,12,,,,,,,,156265,2,2,FALSE,,,
dig,319,840655,0.0-99.0-0.0,,,,,,,,,,,"[{""stimulus"":""run_exp/static/images/task_images/dig.jpg"",""time"":0.09999999403953552},{""stimulus"":""run_exp/static/images/task_images/land.jpg"",""time"":506.69999998807907},{""stimulus"":""run_exp/static/images/task_images/dig.jpg"",""time"":1009}]",[],12,,,,,,,,,,,,,,
harvest,320,841656,0.0-99.0-1.0,,null,run_exp/static/images/task_images/gems/46.jpg,null,,,,,,41,,,12,,,,,46,0.895539964,0.891304348,,,,,,,
decision,321,842250,0.0-99.0-2.0,,592.2,run_exp/static/images/task_images/land.jpg,65,,,,,,41,,,12,,,,,,,,159377,2,3,FALSE,,,
dig,322,844661,0.0-100.0-0.0,,,,,,,,,,,"[{""stimulus"":""run_exp/static/images/task_images/dig.jpg"",""time"":0.19999998807907104},{""stimulus"":""run_exp/static/images/task_images/land.jpg"",""time"":805.5999999940395},{""stimulus"":""run_exp/static/images/task_images/dig.jpg"",""time"":1604.9000000059605}]",[],12,,,,,,,,,,,,,,
harvest,323,845665,0.0-100.0-1.0,,null,run_exp/static/images/task_images/gems/41.jpg,null,,,,,,32,,,12,,,,,41,0.778195291,0.780487805,,,,,,,
decision,324,846071,0.0-100.0-2.0,,405,run_exp/static/images/task_images/land.jpg,65,,,,,,32,,,12,,,,,,,,163198,2,4,FALSE,,,
dig,325,848671,0.0-101.0-0.0,,,,,,,,,,,"[{""stimulus"":""run_exp/static/images/task_images/dig.jpg"",""time"":0},{""stimulus"":""run_exp/static/images/task_images/land.jpg"",""time"":868.1999999880791},{""stimulus"":""run_exp/static/images/task_images/dig.jpg"",""time"":1733.5999999940395}]",[],12,,,,,,,,,,,,,,
harvest,326,849676,0.0-101.0-1.0,,null,run_exp/static/images/task_images/gems/32.jpg,null,,,,,,25,,,12,,,,,32,0.792798353,0.78125,,,,,,,
decision,327,850068,0.0-101.0-2.0,,390.9,run_exp/static/images/task_images/land.jpg,65,,,,,,25,,,12,,,,,,,,167195,2,5,FALSE,,,
dig,328,852683,0.0-102.0-0.0,,,,,,,,,,,"[{""stimulus"":""run_exp/static/images/task_images/dig.jpg"",""time"":0.09999999403953552},{""stimulus"":""run_exp/static/images/task_images/land.jpg"",""time"":871.5},{""stimulus"":""run_exp/static/images/task_images/dig.jpg"",""time"":1741.7999999821186}]",[],12,,,,,,,,,,,,,,
harvest,329,853688,0.0-102.0-1.0,,null,run_exp/static/images/task_images/gems/25.jpg,null,,,,,,21,,,12,,,,,25,0.832038665,0.84,,,,,,,
decision,330,854197,0.0-102.0-2.0,,508.1,run_exp/static/images/task_images/land.jpg,65,,,,,,21,,,12,,,,,,,,171324,2,6,FALSE,,,
dig,331,856692,0.0-103.0-0.0,,,,,,,,,,,"[{""stimulus"":""run_exp/static/images/task_images/dig.jpg"",""time"":0.19999998807907104},{""stimulus"":""run_exp/static/images/task_images/land.jpg"",""time"":832.5999999940395},{""stimulus"":""run_exp/static/images/task_images/dig.jpg"",""time"":1665}]",[],12,,,,,,,,,,,,,,
harvest,332,857695,0.0-103.0-1.0,,null,run_exp/static/images/task_images/gems/21.jpg,null,,,,,,18,,,12,,,,,21,0.85105339,0.857142857,,,,,,,
decision,333,858828,0.0-103.0-2.0,,1131.2,run_exp/static/images/task_images/land.jpg,65,,,,,,18,,,12,,,,,,,,175955,2,7,FALSE,,,
dig,334,860702,0.0-104.0-0.0,,,,,,,,,,,"[{""stimulus"":""run_exp/static/images/task_images/dig.jpg"",""time"":0.09999999403953552},{""stimulus"":""run_exp/static/images/task_images/land.jpg"",""time"":625.9000000059605},{""stimulus"":""run_exp/static/images/task_images/dig.jpg"",""time"":1249.699999988079}]",[],12,,,,,,,,,,,,,,
harvest,335,861707,0.0-104.0-1.0,,null,run_exp/static/images/task_images/gems/18.jpg,null,,,,,,13,,,12,,,,,18,0.726947849,0.722222222,,,,,,,
decision,336,862346,0.0-104.0-2.0,,638,run_exp/static/images/task_images/land.jpg,65,,,,,,13,,,12,,,,,,,,179473,2,8,FALSE,,,
dig,337,864713,0.0-105.0-0.0,,,,,,,,,,,"[{""stimulus"":""run_exp/static/images/task_images/dig.jpg"",""time"":0.20000001788139343},{""stimulus"":""run_exp/static/images/task_images/land.jpg"",""time"":792.3000000119209},{""stimulus"":""run_exp/static/images/task_images/dig.jpg"",""time"":1578.0999999940395}]",[],12,,,,,,,,,,,,,,
harvest,338,865715,0.0-105.0-1.0,,null,run_exp/static/images/task_images/gems/13.jpg,null,,,,,,10,,,12,,,,,13,0.804405209,0.769230769,,,,,,,
decision,339,866070,0.0-105.0-2.0,,353.2,run_exp/static/images/task_images/land.jpg,65,,,,,,10,,,12,,,,,,,,183197,2,9,FALSE,,,
dig,340,868720,0.0-106.0-0.0,,,,,,,,,,,"[{""stimulus"":""run_exp/static/images/task_images/dig.jpg"",""time"":0.19999998807907104},{""stimulus"":""run_exp/static/images/task_images/land.jpg"",""time"":883.0999999940395},{""stimulus"":""run_exp/static/images/task_images/dig.jpg"",""time"":1765.7999999821186}]",[],12,,,,,,,,,,,,,,
harvest,341,869722,0.0-106.0-1.0,,null,run_exp/static/images/task_images/gems/10.jpg,null,,,,,,8,,,12,,,,,10,0.821266508,0.8,,,,,,,
decision,342,870059,0.0-106.0-2.0,,336.7,run_exp/static/images/task_images/land.jpg,65,,,,,,8,,,12,,,,,,,,187186,2,10,FALSE,,,
dig,343,872725,0.0-107.0-0.0,,,,,,,,,,,"[{""stimulus"":""run_exp/static/images/task_images/dig.jpg"",""time"":0.10000002384185791},{""stimulus"":""run_exp/static/images/task_images/land.jpg"",""time"":887.8000000119209},{""stimulus"":""run_exp/static/images/task_images/dig.jpg"",""time"":1778.6000000238419}]",[],12,,,,,,,,,,,,,,
harvest,344,873726,0.0-107.0-1.0,,null,run_exp/static/images/task_images/gems/8.jpg,null,,,,,,7,,,12,,,,,8,0.833773668,0.875,,,,,,,
decision,345,874164,0.0-107.0-2.0,,436.6,run_exp/static/images/task_images/land.jpg,65,,,,,,7,,,12,,,,,,,,191291,2,11,FALSE,,,
dig,346,876731,0.0-108.0-0.0,,,,,,,,,,,"[{""stimulus"":""run_exp/static/images/task_images/dig.jpg"",""time"":0.30000001192092896},{""stimulus"":""run_exp/static/images/task_images/land.jpg"",""time"":855.0999999940395},{""stimulus"":""run_exp/static/images/task_images/dig.jpg"",""time"":1711.300000011921}]",[],12,,,,,,,,,,,,,,
harvest,347,877735,0.0-108.0-1.0,,null,run_exp/static/images/task_images/gems/7.jpg,null,,,,,,5,,,12,,,,,7,0.730716418,0.714285714,,,,,,,
decision,348,878426,0.0-108.0-2.0,,689.9,run_exp/static/images/task_images/land.jpg,65,,,,,,5,,,12,,,,,,,,195553,2,12,FALSE,,,
dig,349,880742,0.0-109.0-0.0,,,,,,,,,,,"[{""stimulus"":""run_exp/static/images/task_images/dig.jpg"",""time"":0.29999998211860657},{""stimulus"":""run_exp/static/images/task_images/land.jpg"",""time"":771.6999999880791},{""stimulus"":""run_exp/static/images/task_images/dig.jpg"",""time"":1541.0999999940395}]",[],12,,,,,,,,,,,,,,
harvest,350,881745,0.0-109.0-1.0,,null,run_exp/static/images/task_images/gems/5.jpg,null,,,,,,4,,,12,,,,,5,0.813856797,0.8,,,,,,,
decision,351,882094,0.0-109.0-2.0,,347.3,run_exp/static/images/task_images/land.jpg,76,,,,,,4,,,12,,,,,,,,199221,2,13,TRUE,,,
travel,352,891749,0.0-110.0-0.0,,,,,,,,,,,"[{""stimulus"":""run_exp/static/images/task_images/rocket-01.jpg"",""time"":0.29999998211860657},{""stimulus"":""run_exp/static/images/task_images/rocket-02.jpg"",""time"":1074.3999999761581},{""stimulus"":""run_exp/static/images/task_images/rocket-03.jpg"",""time"":2145.199999988079},{""stimulus"":""run_exp/static/images/task_images/rocket-04.jpg"",""time"":3222},{""stimulus"":""run_exp/static/images/task_images/rocket-05.jpg"",""time"":4292},{""stimulus"":""run_exp/static/images/task_images/rocket-06.jpg"",""time"":5364.5},{""stimulus"":""run_exp/static/images/task_images/rocket-07.jpg"",""time"":6434.5999999940395},{""stimulus"":""run_exp/static/images/task_images/rocket-08.jpg"",""time"":7508.199999988079},{""stimulus"":""run_exp/static/images/task_images/rocket-09.jpg"",""time"":8578.699999988079}]",[],12,,,,,,,,,,,,,,
alien_welcome,353,896754,0.0-110.0-1.0,,null,run_exp/static/images/task_images/aliens/old_aliens/planet/alien_planet-19.jpg,null,,,,,,,,,,,,19,"6,29,39,26,74,63,62,52,18,67,8,72,19,5,9,55,58,25,30,42,24,4,22,7,2,56,11,73",,,,,,,,,,
land,354,897258,0.0-110.0-2.0,,null,run_exp/static/images/task_images/land.jpg,null,,,,,,108,,,13,,,,,,,,,,,,,,
dig,355,899266,0.0-110.0-3.0,,,,,,,,,,,"[{""stimulus"":""run_exp/static/images/task_images/dig.jpg"",""time"":0.30000001192092896},{""stimulus"":""run_exp/static/images/task_images/land.jpg"",""time"":671.5},{""stimulus"":""run_exp/static/images/task_images/dig.jpg"",""time"":1339.4000000059605}]",[],13,,,,,,,,,,,,,,
harvest,356,900271,0.0-110.0-4.0,,null,run_exp/static/images/task_images/gems/108.jpg,null,,,,,,86,,,13,,,,,108,0.798141485,0.796296296,,,,,,,
decision,357,900813,0.0-110.0-5.0,,540.3,run_exp/static/images/task_images/land.jpg,65,,,,,,86,,,13,,,,,,,,217940,2,0,FALSE,,,
dig,358,903278,0.0-111.0-0.0,,,,,,,,,,,"[{""stimulus"":""run_exp/static/images/task_images/dig.jpg"",""time"":0.20000001788139343},{""stimulus"":""run_exp/static/images/task_images/land.jpg"",""time"":823.5999999940395},{""stimulus"":""run_exp/static/images/task_images/dig.jpg"",""time"":1639.9000000059605}]",[],13,,,,,,,,,,,,,,
harvest,359,904280,0.0-111.0-1.0,,null,run_exp/static/images/task_images/gems/86.jpg,null,,,,,,69,,,13,,,,,86,0.806181484,0.802325581,,,,,,,
decision,360,904896,0.0-111.0-2.0,,614.2,run_exp/static/images/task_images/land.jpg,65,,,,,,69,,,13,,,,,,,,222023,2,1,FALSE,,,
dig,361,907287,0.0-112.0-0.0,,,,,,,,,,,"[{""stimulus"":""run_exp/static/images/task_images/dig.jpg"",""time"":0.30000001192092896},{""stimulus"":""run_exp/static/images/task_images/land.jpg"",""time"":797.4000000059605},{""stimulus"":""run_exp/static/images/task_images/dig.jpg"",""time"":1593}]",[],13,,,,,,,,,,,,,,
harvest,362,908290,0.0-112.0-1.0,,null,run_exp/static/images/task_images/gems/69.jpg,null,,,,,,59,,,13,,,,,69,0.855185231,0.855072464,,,,,,,
decision,363,908673,0.0-112.0-2.0,,381.6,run_exp/static/images/task_images/land.jpg,65,,,,,,59,,,13,,,,,,,,225800,2,2,FALSE,,,
dig,364,911295,0.0-113.0-0.0,,,,,,,,,,,"[{""stimulus"":""run_exp/static/images/task_images/dig.jpg"",""time"":0.20000001788139343},{""stimulus"":""run_exp/static/images/task_images/land.jpg"",""time"":876.4000000059605},{""stimulus"":""run_exp/static/images/task_images/dig.jpg"",""time"":1747.5}]",[],13,,,,,,,,,,,,,,
harvest,365,912296,0.0-113.0-1.0,,null,run_exp/static/images/task_images/gems/59.jpg,null,,,,,,48,,,13,,,,,59,0.81347225,0.813559322,,,,,,,
decision,366,913107,0.0-113.0-2.0,,809.3,run_exp/static/images/task_images/land.jpg,65,,,,,,48,,,13,,,,,,,,230234,2,3,FALSE,,,
dig,367,915303,0.0-114.0-0.0,,,,,,,,,,,"[{""stimulus"":""run_exp/static/images/task_images/dig.jpg"",""time"":0.20000001788139343},{""stimulus"":""run_exp/static/images/task_images/land.jpg"",""time"":733},{""stimulus"":""run_exp/static/images/task_images/dig.jpg"",""time"":1465.9000000059605}]",[],13,,,,,,,,,,,,,,
harvest,368,916309,0.0-114.0-1.0,,null,run_exp/static/images/task_images/gems/48.jpg,null,,,,,,36,,,13,,,,,48,0.755834471,0.75,,,,,,,
decision,369,916790,0.0-114.0-2.0,,479.3,run_exp/static/images/task_images/land.jpg,65,,,,,,36,,,13,,,,,,,,233917,2,4,FALSE,,,
dig,370,919316,0.0-115.0-0.0,,,,,,,,,,,"[{""stimulus"":""run_exp/static/images/task_images/dig.jpg"",""time"":0.09999999403953552},{""stimulus"":""run_exp/static/images/task_images/land.jpg"",""time"":845.5},{""stimulus"":""run_exp/static/images/task_images/dig.jpg"",""time"":1681.5999999940395}]",[],13,,,,,,,,,,,,,,
harvest,371,920319,0.0-115.0-1.0,,null,run_exp/static/images/task_images/gems/36.jpg,null,,,,,,30,,,13,,,,,36,0.825686263,0.833333333,,,,,,,
decision,372,920691,0.0-115.0-2.0,,371.4,run_exp/static/images/task_images/land.jpg,65,,,,,,30,,,13,,,,,,,,237818,2,5,FALSE,,,
dig,373,923329,0.0-116.0-0.0,,,,,,,,,,,"[{""stimulus"":""run_exp/static/images/task_images/dig.jpg"",""time"":0.09999999403953552},{""stimulus"":""run_exp/static/images/task_images/land.jpg"",""time"":877.4000000059605},{""stimulus"":""run_exp/static/images/task_images/dig.jpg"",""time"":1753.800000011921}]",[],13,,,,,,,,,,,,,,
harvest,374,924330,0.0-116.0-1.0,,null,run_exp/static/images/task_images/gems/30.jpg,null,,,,,,26,,,13,,,,,30,0.860807891,0.866666667,,,,,,,
decision,375,924853,0.0-116.0-2.0,,521.5,run_exp/static/images/task_images/land.jpg,65,,,,,,26,,,13,,,,,,,,241980,2,6,FALSE,,,
dig,376,927337,0.0-117.0-0.0,,,,,,,,,,,"[{""stimulus"":""run_exp/static/images/task_images/dig.jpg"",""time"":0.19999998807907104},{""stimulus"":""run_exp/static/images/task_images/land.jpg"",""time"":829.4000000059605},{""stimulus"":""run_exp/static/images/task_images/dig.jpg"",""time"":1658}]",[],13,,,,,,,,,,,,,,
harvest,377,928342,0.0-117.0-1.0,,null,run_exp/static/images/task_images/gems/26.jpg,null,,,,,,21,,,13,,,,,26,0.803939315,0.807692308,,,,,,,
decision,378,928848,0.0-117.0-2.0,,505.3,run_exp/static/images/task_images/land.jpg,65,,,,,,21,,,13,,,,,,,,245975,2,7,FALSE,,,
dig,379,931346,0.0-118.0-0.0,,,,,,,,,,,"[{""stimulus"":""run_exp/static/images/task_images/dig.jpg"",""time"":0.19999998807907104},{""stimulus"":""run_exp/static/images/task_images/land.jpg"",""time"":831.7999999821186},{""stimulus"":""run_exp/static/images/task_images/dig.jpg"",""time"":1667.7999999821186}]",[],13,,,,,,,,,,,,,,
harvest,380,932351,0.0-118.0-1.0,,null,run_exp/static/images/task_images/gems/21.jpg,null,,,,,,16,,,13,,,,,21,0.7840501,0.761904762,,,,,,,
decision,381,932725,0.0-118.0-2.0,,372.8,run_exp/static/images/task_images/land.jpg,65,,,,,,16,,,13,,,,,,,,249852,2,8,FALSE,,,
dig,382,935355,0.0-119.0-0.0,,,,,,,,,,,"[{""stimulus"":""run_exp/static/images/task_images/dig.jpg"",""time"":0.09999999403953552},{""stimulus"":""run_exp/static/images/task_images/land.jpg"",""time"":880.9000000059605},{""stimulus"":""run_exp/static/images/task_images/dig.jpg"",""time"":1751}]",[],13,,,,,,,,,,,,,,
harvest,383,936357,0.0-119.0-1.0,,null,run_exp/static/images/task_images/gems/16.jpg,null,,,,,,14,,,13,,,,,16,0.855748957,0.875,,,,,,,
decision,384,936772,0.0-119.0-2.0,,413.7,run_exp/static/images/task_images/land.jpg,65,,,,,,14,,,13,,,,,,,,253899,2,9,FALSE,,,
dig,385,939362,0.0-120.0-0.0,,,,,,,,,,,"[{""stimulus"":""run_exp/static/images/task_images/dig.jpg"",""time"":0.09999999403953552},{""stimulus"":""run_exp/static/images/task_images/land.jpg"",""time"":867.9000000059605},{""stimulus"":""run_exp/static/images/task_images/dig.jpg"",""time"":1728}]",[],13,,,,,,,,,,,,,,
harvest,386,940363,0.0-120.0-1.0,,null,run_exp/static/images/task_images/gems/14.jpg,null,,,,,,9,,,13,,,,,14,0.672613674,0.642857143,,,,,,,
decision,387,940788,0.0-120.0-2.0,,423.9,run_exp/static/images/task_images/land.jpg,65,,,,,,9,,,13,,,,,,,,257915,2,10,FALSE,,,
dig,388,943368,0.0-121.0-0.0,,,,,,,,,,,"[{""stimulus"":""run_exp/static/images/task_images/dig.jpg"",""time"":0.19999998807907104},{""stimulus"":""run_exp/static/images/task_images/land.jpg"",""time"":859.1999999880791},{""stimulus"":""run_exp/static/images/task_images/dig.jpg"",""time"":1718.3999999761581}]",[],13,,,,,,,,,,,,,,
harvest,389,944371,0.0-121.0-1.0,,null,run_exp/static/images/task_images/gems/9.jpg,null,,,,,,8,,,13,,,,,9,0.842509906,0.888888889,,,,,,,
decision,390,945422,0.0-121.0-2.0,,1050.1,run_exp/static/images/task_images/land.jpg,76,,,,,,8,,,13,,,,,,,,262549,2,11,TRUE,,,
travel,391,954378,0.0-122.0-0.0,,,,,,,,,,,"[{""stimulus"":""run_exp/static/images/task_images/rocket-01.jpg"",""time"":0.09999999403953552},{""stimulus"":""run_exp/static/images/task_images/rocket-02.jpg"",""time"":998.8999999761581},{""stimulus"":""run_exp/static/images/task_images/rocket-03.jpg"",""time"":1990.3999999761581},{""stimulus"":""run_exp/static/images/task_images/rocket-04.jpg"",""time"":2985.199999988079},{""stimulus"":""run_exp/static/images/task_images/rocket-05.jpg"",""time"":3980.899999976158},{""stimulus"":""run_exp/static/images/task_images/rocket-06.jpg"",""time"":4972.5999999940395},{""stimulus"":""run_exp/static/images/task_images/rocket-07.jpg"",""time"":5969.799999982119},{""stimulus"":""run_exp/static/images/task_images/rocket-08.jpg"",""time"":6963.5999999940395},{""stimulus"":""run_exp/static/images/task_images/rocket-09.jpg"",""time"":7957.699999988079}]",[],13,,,,,,,,,,,,,,
alien_welcome,392,959384,0.0-122.0-1.0,,null,run_exp/static/images/task_images/aliens/old_aliens/planet/alien_planet-5.jpg,null,,,,,,,,,,,,5,"6,29,39,26,74,63,62,52,18,67,8,72,19,5,9,55,58,25,30,42,24,4,22,7,2,56,11,73",,,,,,,,,,
land,393,959890,0.0-122.0-2.0,,null,run_exp/static/images/task_images/land.jpg,null,,,,,,108,,,14,,,,,,,,,,,,,,
dig,394,961893,0.0-122.0-3.0,,,,,,,,,,,"[{""stimulus"":""run_exp/static/images/task_images/dig.jpg"",""time"":0.29999998211860657},{""stimulus"":""run_exp/static/images/task_images/land.jpg"",""time"":670.3999999761581},{""stimulus"":""run_exp/static/images/task_images/dig.jpg"",""time"":1338.8999999761581}]",[],14,,,,,,,,,,,,,,
harvest,395,962897,0.0-122.0-4.0,,null,run_exp/static/images/task_images/gems/108.jpg,null,,,,,,83,,,14,,,,,108,0.766676494,0.768518519,,,,,,,
decision,396,963351,0.0-122.0-5.0,,452.9,run_exp/static/images/task_images/land.jpg,65,,,,,,83,,,14,,,,,,,,280478,2,0,FALSE,,,
dig,397,965903,0.0-123.0-0.0,,,,,,,,,,,"[{""stimulus"":""run_exp/static/images/task_images/dig.jpg"",""time"":0.20000001788139343},{""stimulus"":""run_exp/static/images/task_images/land.jpg"",""time"":849.9000000059605},{""stimulus"":""run_exp/static/images/task_images/dig.jpg"",""time"":1703.800000011921}]",[],14,,,,,,,,,,,,,,
harvest,398,966909,0.0-123.0-1.0,,null,run_exp/static/images/task_images/gems/83.jpg,null,,,,,,73,,,14,,,,,83,0.87462965,0.879518072,,,,,,,
decision,399,967890,0.0-123.0-2.0,,979.8,run_exp/static/images/task_images/land.jpg,65,,,,,,73,,,14,,,,,,,,285017,2,1,FALSE,,,
dig,400,969915,0.0-124.0-0.0,,,,,,,,,,,"[{""stimulus"":""run_exp/static/images/task_images/dig.jpg"",""time"":0.09999999403953552},{""stimulus"":""run_exp/static/images/task_images/land.jpg"",""time"":674.8000000119209},{""stimulus"":""run_exp/static/images/task_images/dig.jpg"",""time"":1351.699999988079}]",[],14,,,,,,,,,,,,,,
harvest,401,970919,0.0-124.0-1.0,,null,run_exp/static/images/task_images/gems/73.jpg,null,,,,,,50,,,14,,,,,73,0.6799014,0.684931507,,,,,,,
decision,402,971297,0.0-124.0-2.0,,376.3,run_exp/static/images/task_images/land.jpg,65,,,,,,50,,,14,,,,,,,,288424,2,2,FALSE,,,
dig,403,973927,0.0-125.0-0.0,,,,,,,,,,,"[{""stimulus"":""run_exp/static/images/task_images/dig.jpg"",""time"":0.20000001788139343},{""stimulus"":""run_exp/static/images/task_images/land.jpg"",""time"":876.9000000059605},{""stimulus"":""run_exp/static/images/task_images/dig.jpg"",""time"":1753.300000011921}]",[],14,,,,,,,,,,,,,,
harvest,404,974930,0.0-125.0-1.0,,null,run_exp/static/images/task_images/gems/50.jpg,null,,,,,,40,,,14,,,,,50,0.809532645,0.8,,,,,,,
decision,405,975577,0.0-125.0-2.0,,645.6,run_exp/static/images/task_images/land.jpg,65,,,,,,40,,,14,,,,,,,,292704,2,3,FALSE,,,
dig,406,977934,0.0-126.0-0.0,,,,,,,,,,,"[{""stimulus"":""run_exp/static/images/task_images/dig.jpg"",""time"":0.09999999403953552},{""stimulus"":""run_exp/static/images/task_images/land.jpg"",""time"":789.5999999940395},{""stimulus"":""run_exp/static/images/task_images/dig.jpg"",""time"":1573.7999999821186}]",[],14,,,,,,,,,,,,,,
harvest,407,978937,0.0-126.0-1.0,,null,run_exp/static/images/task_images/gems/40.jpg,null,,,,,,31,,,14,,,,,40,0.767141074,0.775,,,,,,,
decision,408,979395,0.0-126.0-2.0,,457.3,run_exp/static/images/task_images/land.jpg,65,,,,,,31,,,14,,,,,,,,296522,2,4,FALSE,,,
dig,409,981943,0.0-127.0-0.0,,,,,,,,,,,"[{""stimulus"":""run_exp/static/images/task_images/dig.jpg"",""time"":0.19999998807907104},{""stimulus"":""run_exp/static/images/task_images/land.jpg"",""time"":851},{""stimulus"":""run_exp/static/images/task_images/dig.jpg"",""time"":1697.7999999821186}]",[],14,,,,,,,,,,,,,,
harvest,410,982948,0.0-127.0-1.0,,null,run_exp/static/images/task_images/gems/31.jpg,null,,,,,,26,,,14,,,,,31,0.844207563,0.838709677,,,,,,,
decision,411,983334,0.0-127.0-2.0,,385.4,run_exp/static/images/task_images/land.jpg,65,,,,,,26,,,14,,,,,,,,300461,2,5,TRUE,,,
end_of_block_continue,412,992174,0.0-128.0-0.0,,null,run_exp/static/audio/clip_32_block_end.m4a,,,,,,null,,,,,,,,,,,,,,,,,,
alien_welcome,413,997181,0.0-129.0-0.0,,null,run_exp/static/images/task_images/aliens/old_aliens/planet/alien_planet-9.jpg,null,,,,,,,,,,,,9,"6,29,39,26,74,63,62,52,18,67,8,72,19,5,9,55,58,25,30,42,24,4,22,7,2,56,11,73",,,,,,,,,,
land,414,997685,0.0-129.0-1.0,,null,run_exp/static/images/task_images/land.jpg,null,,,,,,105,,,15,,,,,,,,,,,,,,
dig,415,999693,0.0-129.0-2.0,,,,,,,,,,,"[{""stimulus"":""run_exp/static/images/task_images/dig.jpg"",""time"":0.30000001192092896},{""stimulus"":""run_exp/static/images/task_images/land.jpg"",""time"":670.4000000059605},{""stimulus"":""run_exp/static/images/task_images/dig.jpg"",""time"":1337}]",[],15,,,,,,,,,,,,,,
harvest,416,1000699,0.0-129.0-3.0,,null,run_exp/static/images/task_images/gems/105.jpg,null,,,,,,56,,,15,,,,,105,0.535004907,0.533333333,,,,,,,
decision,417,1001505,0.0-129.0-4.0,,804.5,run_exp/static/images/task_images/land.jpg,65,,,,,,56,,,15,,,,,,,,9327,3,0,FALSE,,,
dig,418,1003703,0.0-130.0-0.0,,,,,,,,,,,"[{""stimulus"":""run_exp/static/images/task_images/dig.jpg"",""time"":0.09999999403953552},{""stimulus"":""run_exp/static/images/task_images/land.jpg"",""time"":734.0999999940395},{""stimulus"":""run_exp/static/images/task_images/dig.jpg"",""time"":1466.7999999821186}]",[],15,,,,,,,,,,,,,,
harvest,419,1004707,0.0-130.0-1.0,,null,run_exp/static/images/task_images/gems/56.jpg,null,,,,,,28,,,15,,,,,56,0.50037513,0.5,,,,,,,
decision,420,1005123,0.0-130.0-2.0,,415.1,run_exp/static/images/task_images/land.jpg,65,,,,,,28,,,15,,,,,,,,12945,3,1,FALSE,,,
dig,421,1007713,0.0-131.0-0.0,,,,,,,,,,,"[{""stimulus"":""run_exp/static/images/task_images/dig.jpg"",""time"":0.20000001788139343},{""stimulus"":""run_exp/static/images/task_images/land.jpg"",""time"":862.9000000059605},{""stimulus"":""run_exp/static/images/task_images/dig.jpg"",""time"":1727.800000011921}]",[],15,,,,,,,,,,,,,,
harvest,422,1008714,0.0-131.0-1.0,,null,run_exp/static/images/task_images/gems/28.jpg,null,,,,,,14,,,15,,,,,28,0.515887473,0.5,,,,,,,
decision,423,1009093,0.0-131.0-2.0,,377.5,run_exp/static/images/task_images/land.jpg,65,,,,,,14,,,15,,,,,,,,16915,3,2,FALSE,,,
dig,424,1011721,0.0-132.0-0.0,,,,,,,,,,,"[{""stimulus"":""run_exp/static/images/task_images/dig.jpg"",""time"":0.20000001788139343},{""stimulus"":""run_exp/static/images/task_images/land.jpg"",""time"":874.7000000178814},{""stimulus"":""run_exp/static/images/task_images/dig.jpg"",""time"":1749.9000000059605}]",[],15,,,,,,,,,,,,,,
harvest,425,1012724,0.0-132.0-1.0,,null,run_exp/static/images/task_images/gems/14.jpg,null,,,,,,6,,,15,,,,,14,0.460132342,0.428571429,,,,,,,
decision,426,1013256,0.0-132.0-2.0,,531,run_exp/static/images/task_images/land.jpg,65,,,,,,6,,,15,,,,,,,,21078,3,3,FALSE,,,
dig,427,1015730,0.0-133.0-0.0,,,,,,,,,,,"[{""stimulus"":""run_exp/static/images/task_images/dig.jpg"",""time"":0.20000001788139343},{""stimulus"":""run_exp/static/images/task_images/land.jpg"",""time"":828.8000000119209},{""stimulus"":""run_exp/static/images/task_images/dig.jpg"",""time"":1648.300000011921}]",[],15,,,,,,,,,,,,,,
harvest,428,1016735,0.0-133.0-1.0,,null,run_exp/static/images/task_images/gems/6.jpg,null,,,,,,3,,,15,,,,,6,0.456047439,0.5,,,,,,,
decision,429,1017224,0.0-133.0-2.0,,487.8,run_exp/static/images/task_images/land.jpg,76,,,,,,3,,,15,,,,,,,,25046,3,4,TRUE,,,
