trial_type,trial_index,time_elapsed,internal_node_id,interactions,blur_events,focus_events,fullscreenenter_events,fullscreenexit_events,success,rt,stimulus,key_press,prompt,subject_id,participant_id,age,gender,button_pressed,next_reward,animation_sequence,responses,planet,curr_prac_trial,n_prac_rounds,alien,aliens,reward_received,decay_rate_actual,decay_rate_exp,time_in_block,block_num,prt,last_trial_on_planet,button_html,bonus,num_failures
pavlovia,0,3,0.0-0.0,"""event"",""trial"",""time""
""fullscreenenter"",""1"",""58468""
","
","
","""event"",""trial"",""time""
""fullscreenenter"",""1"",""58468""
","
",,,,,,,,,,,,,,,,,,,,,,,,,,,,
fullscreen,1,59429,0.0-1.0,"""event"",""trial"",""time""
""fullscreenenter"",""1"",""58468""
","
","
","""event"",""trial"",""time""
""fullscreenenter"",""1"",""58468""
","
",TRUE,,,,,,,,,,,,,,,,,,,,,,,,,,,
instruc_welcome,2,69551,0.0-2.0,"""event"",""trial"",""time""
""fullscreenenter"",""1"",""58468""
","
","
","""event"",""trial"",""time""
""fullscreenenter"",""1"",""58468""
","
",,null,run_exp/static/audio/clip_1_welcome.m4a,null,"<p>Howdy! In this experiment, you’ll be an explorer traveling through space to collect space treasure.</p><p>Your mission is to collect as much treasure as possible.</p><br><br><p><img src='run_exp/static/images/task_images/opening_img-01.jpg' height='300' width='auto'></p>",9504,2952,10.39,Male,,,,,,,,,,,,,,,,,,,
audio-keyboard-response,3,86147,0.0-3.0,"""event"",""trial"",""time""
""fullscreenenter"",""1"",""58468""
","
","
","""event"",""trial"",""time""
""fullscreenenter"",""1"",""58468""
","
",,null,run_exp/static/audio/clip_2_move.m4a,null,,,,,,,,,,,,,,,,,,,,,,,,
welcome_dec,4,88077,0.0-4.0,"""event"",""trial"",""time""
""fullscreenenter"",""1"",""58468""
","
","
","""event"",""trial"",""time""
""fullscreenenter"",""1"",""58468""
","
",,1926.8,"<p>Howdy! In this experiment, you’ll be an explorer traveling through space to collect space treasure.</p><p>Your mission is to collect as much treasure as possible.</p><br><br><p><img src='run_exp/static/images/task_images/opening_img-01.jpg' height='300' width='auto'></p>",,,,,,,1,,,,,,,,,,,,,,,,,,
html-keyboard-response,5,89700,0.0-5.0,"""event"",""trial"",""time""
""fullscreenenter"",""1"",""58468""
","
","
","""event"",""trial"",""time""
""fullscreenenter"",""1"",""58468""
","
",,1620.8,"<p>Howdy! In this experiment, you’ll be an explorer traveling through space to collect space treasure.</p><p>Your mission is to collect as much treasure as possible.</p><br><br><p><img src='run_exp/static/images/task_images/opening_img-01.jpg' height='300' width='auto'></p><button class=""jspsych-html-btn-unchosen""><img src=""run_exp/static/images/task_images/planet-01.jpg"" height=""50""></button><button class=""jspsych-html-btn-chosen""><img src=""run_exp/static/images/task_images/planet-02.jpg"" height=""50""></button><p><b>[press the space bar to lock in your answer]<b><br></p>",32,,,,,,,,,,,,,,,,,,,,,,,,
instruc_goal,6,99759,0.0-6.0-0.0,"""event"",""trial"",""time""
""fullscreenenter"",""1"",""58468""
","
","
","""event"",""trial"",""time""
""fullscreenenter"",""1"",""58468""
","
",,null,run_exp/static/audio/clip_3_goal.m4a,null,"<p> As a space explorer, you’ll visit different planets to dig for space treasure, these pink gems.</p> <p> The more treasure you dig up, the more bonus money you’ll win! </p><br><br><p><img src='run_exp/static/images/task_images/pink_gem.jpg' height='300' width='auto'></p>",,,,,,,,,,,,,,,,,,,,,,,
instruc_goal,7,107386,0.0-6.0-1.0,"""event"",""trial"",""time""
""fullscreenenter"",""1"",""58468""
","
","
","""event"",""trial"",""time""
""fullscreenenter"",""1"",""58468""
","
",,7624.5,"<p> As a space explorer, you’ll visit different planets to dig for space treasure, these pink gems.</p> <p> The more treasure you dig up, the more bonus money you’ll win! </p><br><br><p><img src='run_exp/static/images/task_images/pink_gem.jpg' height='300' width='auto'></p>",,,,,,,1,,,,,,,,,,,,,,,,,,
html-keyboard-response,8,109661,0.0-6.0-2.0,"""event"",""trial"",""time""
""fullscreenenter"",""1"",""58468""
","
","
","""event"",""trial"",""time""
""fullscreenenter"",""1"",""58468""
","
",,2273.9,"<p> As a space explorer, you’ll visit different planets to dig for space treasure, these pink gems.</p> <p> The more treasure you dig up, the more bonus money you’ll win! </p><br><br><p><img src='run_exp/static/images/task_images/pink_gem.jpg' height='300' width='auto'></p><button class=""jspsych-html-btn-unchosen""><img src=""run_exp/static/images/task_images/planet-01.jpg"" height=""50""></button><button class=""jspsych-html-btn-chosen""><img src=""run_exp/static/images/task_images/planet-02.jpg"" height=""50""></button><p><b>[press the space bar to lock in your answer]<b><br></p>",32,,,,,,,,,,,,,,,,,,,,,,,,
instruc_dig,9,125679,0.0-7.0-0.0,"""event"",""trial"",""time""
""fullscreenenter"",""1"",""58468""
","
","
","""event"",""trial"",""time""
""fullscreenenter"",""1"",""58468""
","
",,null,run_exp/static/audio/clip_4_dig.m4a,null,,,,,,,100,,,,,,,,,,,,,,,,,
instruc_dig_try,10,126190,0.0-7.0-1.0,"""event"",""trial"",""time""
""fullscreenenter"",""1"",""58468""
","
","
","""event"",""trial"",""time""
""fullscreenenter"",""1"",""58468""
","
",,509.2,"<p> When you’ve arrived at a new planet, you will dig once. </p> <p>Then, you get to decide if you want to stay on the planet and dig again or travel to a new planet and dig there.</p> <p> To stay and dig, press the letter <strong>‘A’</strong> on your keyboard. Try pressing it now! </p><p><img src='run_exp/static/images/task_images/land.jpg'  height='700' width='auto'></p>",65,"<p> When you’ve arrived at a new planet, you will dig once. </p> <p>Then, you get to decide if you want to stay on the planet and dig again or travel to a new planet and dig there.</p> <p> To stay and dig, press the letter <strong>‘A’</strong> on your keyboard. Try pressing it now! </p><p><img src='run_exp/static/images/task_images/land.jpg'  height='700' width='auto'></p>",,,,,,100,,,,,,,,,,,,,,,,,
dig_prac,11,128200,0.0-7.0-2.0,"""event"",""trial"",""time""
""fullscreenenter"",""1"",""58468""
","
","
","""event"",""trial"",""time""
""fullscreenenter"",""1"",""58468""
","
",,,,,,,,,,,,"[{""stimulus"":""run_exp/static/images/task_images/dig.jpg"",""time"":0.2999999998137355},{""stimulus"":""run_exp/static/images/task_images/land.jpg"",""time"":669.6000000005588},{""stimulus"":""run_exp/static/images/task_images/dig.jpg"",""time"":1335.5}]",[],,,,,,,,,,,,,,,
instruc_travel,12,164441,0.0-7.0-3.0,"""event"",""trial"",""time""
""fullscreenenter"",""1"",""58468""
","
","
","""event"",""trial"",""time""
""fullscreenenter"",""1"",""58468""
","
",,null,run_exp/static/audio/clip_5_travel.m4a,null,"<p>Every time you dig up gems, there are less gems on the planet, so the more you dig on a planet the fewer gems you’ll get with each dig.</p><p>When gems are running low, you may want to travel to a new planet. </p> <p>  Planets are very far apart in this galaxy, so it will take some time to travel between them. </p> <br><p>There are lots and lots of planets for you to visit, so you won’t be able to return to any planets you’ve seen before. </p><br><p>To leave this planet and travel to a new one, press the letter <strong>‘L’</strong> on your keyboard. Try pressing it now! </p><p><img src='run_exp/static/images/task_images/rocket-01.jpg'  height='600' width='auto'></p>",,,,,,,,,,,,,,,,,,,,,,,
instruc_travel_try,13,164535,0.0-7.0-4.0,"""event"",""trial"",""time""
""fullscreenenter"",""1"",""58468""
","
","
","""event"",""trial"",""time""
""fullscreenenter"",""1"",""58468""
","
",,91.6,"<p>Every time you dig up gems, there are less gems on the planet, so the more you dig on a planet the fewer gems you’ll get with each dig.</p><p>When gems are running low, you may want to travel to a new planet. </p> <p>  Planets are very far apart in this galaxy, so it will take some time to travel between them. </p> <br><p>There are lots and lots of planets for you to visit, so you won’t be able to return to any planets you’ve seen before. </p><br><p>To leave this planet and travel to a new one, press the letter <strong>‘L’</strong> on your keyboard. Try pressing it now! </p><p><img src='run_exp/static/images/task_images/rocket-01.jpg'  height='600' width='auto'></p>",76,"<p>Every time you dig up gems, there are less gems on the planet, so the more you dig on a planet the fewer gems you’ll get with each dig.</p><p>When gems are running low, you may want to travel to a new planet. </p> <p>  Planets are very far apart in this galaxy, so it will take some time to travel between them. </p> <br><p>There are lots and lots of planets for you to visit, so you won’t be able to return to any planets you’ve seen before. </p><br><p>To leave this planet and travel to a new one, press the letter <strong>‘L’</strong> on your keyboard. Try pressing it now! </p><p><img src='run_exp/static/images/task_images/rocket-01.jpg'  height='600' width='auto'></p>",,,,,,,,,,,,,,,,,,,,,,,
travel_prac,14,174536,0.0-7.0-5.0,"""event"",""trial"",""time""
""fullscreenenter"",""1"",""58468""
","
","
","""event"",""trial"",""time""
""fullscreenenter"",""1"",""58468""
","
",,,,,,,,,,,,"[{""stimulus"":""run_exp/static/images/task_images/rocket-01.jpg"",""time"":0.20000000018626451},{""stimulus"":""run_exp/static/images/task_images/rocket-02.jpg"",""time"":1113.5},{""stimulus"":""run_exp/static/images/task_images/rocket-03.jpg"",""time"":2223.9000000003725},{""stimulus"":""run_exp/static/images/task_images/rocket-04.jpg"",""time"":3334.4000000003725},{""stimulus"":""run_exp/static/images/task_images/rocket-05.jpg"",""time"":4446.800000000745},{""stimulus"":""run_exp/static/images/task_images/rocket-06.jpg"",""time"":5556.200000000186},{""stimulus"":""run_exp/static/images/task_images/rocket-07.jpg"",""time"":6667.300000000745},{""stimulus"":""run_exp/static/images/task_images/rocket-08.jpg"",""time"":7779.100000000559},{""stimulus"":""run_exp/static/images/task_images/rocket-09.jpg"",""time"":8889.400000000373}]",[],0,,,,,,,,,,,,,,
instruc_alien_greet,15,201721,0.0-7.0-6.0,"""event"",""trial"",""time""
""fullscreenenter"",""1"",""58468""
","
","
","""event"",""trial"",""time""
""fullscreenenter"",""1"",""58468""
","
",,null,run_exp/static/audio/clip_6_alien.m4a,null,"<p>When you arrive at a new planet, the alien who owns the treasure mine on that planet will greet you!</p><p>The better an alien takes care of their mine the easier it is to dig for gems. Some aliens take better care of their mine than others. So, you won’t get exactly the same amount of gems on each planet.</p><p>What the alien looks like does not tell you anything about how many gems there are on the planet.</p><br><p><img src=""run_exp/static/images/task_images/aliens/instructions_aliens/planet/alien_planet-1.jpg""  height=""600"" width=""auto""></p>",,,,,,,,,,,,,,,,,,,,,,,
instruc_alien_greet,16,206703,0.0-7.0-7.0,"""event"",""trial"",""time""
""fullscreenenter"",""1"",""58468""
","
","
","""event"",""trial"",""time""
""fullscreenenter"",""1"",""58468""
","
",,4980,"<p>When you arrive at a new planet, the alien who owns the treasure mine on that planet will greet you!</p><p>The better an alien takes care of their mine the easier it is to dig for gems. Some aliens take better care of their mine than others. So, you won’t get exactly the same amount of gems on each planet.</p><p>What the alien looks like does not tell you anything about how many gems there are on the planet.</p><br><p><img src=""run_exp/static/images/task_images/aliens/instructions_aliens/planet/alien_planet-1.jpg""  height=""600"" width=""auto""></p>",,,,,,,1,,,,,,,,,,,,,,,,,,
html-keyboard-response,17,211051,0.0-7.0-8.0,"""event"",""trial"",""time""
""fullscreenenter"",""1"",""58468""
","
","
","""event"",""trial"",""time""
""fullscreenenter"",""1"",""58468""
","
",,4345.8,"<p>When you arrive at a new planet, the alien who owns the treasure mine on that planet will greet you!</p><p>The better an alien takes care of their mine the easier it is to dig for gems. Some aliens take better care of their mine than others. So, you won’t get exactly the same amount of gems on each planet.</p><p>What the alien looks like does not tell you anything about how many gems there are on the planet.</p><br><p><img src=""run_exp/static/images/task_images/aliens/instructions_aliens/planet/alien_planet-1.jpg""  height=""600"" width=""auto""></p><button class=""jspsych-html-btn-unchosen""><img src=""run_exp/static/images/task_images/planet-01.jpg"" height=""50""></button><button class=""jspsych-html-btn-chosen""><img src=""run_exp/static/images/task_images/planet-02.jpg"" height=""50""></button><p><b>[press the space bar to lock in your answer]<b><br></p>",32,,,,,,,,,,,,,,,,,,,,,,,,
time_out,18,222138,0.0-8.0-0.0,"""event"",""trial"",""time""
""fullscreenenter"",""1"",""58468""
","
","
","""event"",""trial"",""time""
""fullscreenenter"",""1"",""58468""
","
",,null,run_exp/static/audio/clip_7_timeout.m4a,null,"<p>If you don't make your choice fast enough, you’ll have to wait a few seconds before you can make another one.</p><p>You can’t dig for more gems or travel to new planets. You just have to sit and wait.</p><br><p><img src='run_exp/static/images/task_images/time_out.jpg'  height='600' width='auto'></p>",,,,,,,,,,,,,,,,,,,,,,,
time_out,19,226700,0.0-8.0-1.0,"""event"",""trial"",""time""
""fullscreenenter"",""1"",""58468""
","
","
","""event"",""trial"",""time""
""fullscreenenter"",""1"",""58468""
","
",,4560.6,"<p>If you don't make your choice fast enough, you’ll have to wait a few seconds before you can make another one.</p><p>You can’t dig for more gems or travel to new planets. You just have to sit and wait.</p><br><p><img src='run_exp/static/images/task_images/time_out.jpg'  height='600' width='auto'></p>",,,,,,,1,,,,,,,,,,,,,,,,,,
html-keyboard-response,20,227035,0.0-8.0-2.0,"""event"",""trial"",""time""
""fullscreenenter"",""1"",""58468""
","
","
","""event"",""trial"",""time""
""fullscreenenter"",""1"",""58468""
","
",,333.6,"<p>If you don't make your choice fast enough, you’ll have to wait a few seconds before you can make another one.</p><p>You can’t dig for more gems or travel to new planets. You just have to sit and wait.</p><br><p><img src='run_exp/static/images/task_images/time_out.jpg'  height='600' width='auto'></p><button class=""jspsych-html-btn-unchosen""><img src=""run_exp/static/images/task_images/planet-01.jpg"" height=""50""></button><button class=""jspsych-html-btn-chosen""><img src=""run_exp/static/images/task_images/planet-02.jpg"" height=""50""></button><p><b>[press the space bar to lock in your answer]<b><br></p>",32,,,,,,,,,,,,,,,,,,,,,,,,
instruc_break,21,242703,0.0-9.0-0.0,"""event"",""trial"",""time""
""fullscreenenter"",""1"",""58468""
","
","
","""event"",""trial"",""time""
""fullscreenenter"",""1"",""58468""
","
",,null,run_exp/static/audio/clip_8_break.m4a,null,"<p> After digging and traveling for a while, you’ll be able to take a break at home base. </p><p>The game will last 20 minutes no matter what.</p><p>You will visit home base every 5 minutes, so, you will visit home base three times during the game.</p><br><p><img src='run_exp/static/images/task_images/home_base.jpg' height='600' width='auto'></p>",,,,,,,,,,,,,,,,,,,,,,,
instruc_break,22,245965,0.0-9.0-1.0,"""event"",""trial"",""time""
""fullscreenenter"",""1"",""58468""
","
","
","""event"",""trial"",""time""
""fullscreenenter"",""1"",""58468""
","
",,3260,"<p> After digging and traveling for a while, you’ll be able to take a break at home base. </p><p>The game will last 20 minutes no matter what.</p><p>You will visit home base every 5 minutes, so, you will visit home base three times during the game.</p><br><p><img src='run_exp/static/images/task_images/home_base.jpg' height='600' width='auto'></p>",,,,,,,1,,,,,,,,,,,,,,,,,,
html-keyboard-response,23,246479,0.0-9.0-2.0,"""event"",""trial"",""time""
""fullscreenenter"",""1"",""58468""
","
","
","""event"",""trial"",""time""
""fullscreenenter"",""1"",""58468""
","
",,511.9,"<p> After digging and traveling for a while, you’ll be able to take a break at home base. </p><p>The game will last 20 minutes no matter what.</p><p>You will visit home base every 5 minutes, so, you will visit home base three times during the game.</p><br><p><img src='run_exp/static/images/task_images/home_base.jpg' height='600' width='auto'></p><button class=""jspsych-html-btn-unchosen""><img src=""run_exp/static/images/task_images/planet-01.jpg"" height=""50""></button><button class=""jspsych-html-btn-chosen""><img src=""run_exp/static/images/task_images/planet-02.jpg"" height=""50""></button><p><b>[press the space bar to lock in your answer]<b><br></p>",32,,,,,,,,,,,,,,,,,,,,,,,,
instruc_prac_game,24,256612,0.0-10.0-0.0,"""event"",""trial"",""time""
""fullscreenenter"",""1"",""58468""
","
","
","""event"",""trial"",""time""
""fullscreenenter"",""1"",""58468""
","
",,null,run_exp/static/audio/clip_9_practice.m4a,null,"<p> Are you ready to play a practice game? </p> <p>In this practice game, you'll be digging up barrels of gems. But, in the real game, you'll be digging up the gems themselves. </p>",,,,,,,,,,,,,,,,,,,,,,,
html-button-response,25,269341,0.0-10.0-1.0,"""event"",""trial"",""time""
""fullscreenenter"",""1"",""58468""
","
","
","""event"",""trial"",""time""
""fullscreenenter"",""1"",""58468""
","
",,12728,"<p> Are you ready to play a practice game? </p> <p>In this practice game, you'll be digging up barrels of gems. But, in the real game, you'll be digging up the gems themselves. </p>",,,,,,,0,,,,,,,,,,,,,,,,,,
alien_welcome_prac,26,274345,0.0-11.0-0.0,"""event"",""trial"",""time""
""fullscreenenter"",""1"",""58468""
","
","
","""event"",""trial"",""time""
""fullscreenenter"",""1"",""58468""
","
",,null,run_exp/static/images/task_images/aliens/practice_aliens/planet/alien_planet-5.jpg,null,,,,,,,,,,,,,,,,,,,,,,,,
land_prac,27,274847,0.0-11.0-1.0,"""event"",""trial"",""time""
""fullscreenenter"",""1"",""58468""
","
","
","""event"",""trial"",""time""
""fullscreenenter"",""1"",""58468""
","
",,null,run_exp/static/images/task_images/land.jpg,null,,,,,,,96,,,0,,,,,,,,,,,,,,
dig_prac,28,276850,0.0-11.0-2.0,"""event"",""trial"",""time""
""fullscreenenter"",""1"",""58468""
","
","
","""event"",""trial"",""time""
""fullscreenenter"",""1"",""58468""
","
",,,,,,,,,,,,"[{""stimulus"":""run_exp/static/images/task_images/dig.jpg"",""time"":0.20000000018626451},{""stimulus"":""run_exp/static/images/task_images/land.jpg"",""time"":668.3999999994412},{""stimulus"":""run_exp/static/images/task_images/dig.jpg"",""time"":1335.2999999998137}]",[],,,,,,,,,,,,,,,
harvest_prac,29,277853,0.0-11.0-3.0,"""event"",""trial"",""time""
""fullscreenenter"",""1"",""58468""
","
","
","""event"",""trial"",""time""
""fullscreenenter"",""1"",""58468""
","
",,null,run_exp/static/images/task_images/barrel_text.jpg,null,,,,,,,,,,,,,,,,,,,,,,,,
decision_prac,30,280855,0.0-11.0-4.0,"""event"",""trial"",""time""
""fullscreenenter"",""1"",""58468""
","
","
","""event"",""trial"",""time""
""fullscreenenter"",""1"",""58468""
","
",,null,run_exp/static/images/task_images/land.jpg,null,,,,,,,,,,,1,,,,,,,,,,,,,
time_out,31,282858,0.0-12.0-0.0,"""event"",""trial"",""time""
""fullscreenenter"",""1"",""58468""
","
","
","""event"",""trial"",""time""
""fullscreenenter"",""1"",""58468""
","
",,null,run_exp/static/images/task_images/time_out.jpg,null,,,,,,,,,,,,,,,,,,,,,,,,
decision_prac,32,285226,0.0-12.0-1.0,"""event"",""trial"",""time""
""fullscreenenter"",""1"",""58468""
","
","
","""event"",""trial"",""time""
""fullscreenenter"",""1"",""58468""
","
",,2366.3,run_exp/static/images/task_images/land.jpg,65,,,,,,,,,,,2,,,,,,,,,,,,,
dig_prac,33,287230,0.0-13.0-0.0,"""event"",""trial"",""time""
""fullscreenenter"",""1"",""58468""
","
","
","""event"",""trial"",""time""
""fullscreenenter"",""1"",""58468""
","
",,,,,,,,,,,,"[{""stimulus"":""run_exp/static/images/task_images/dig.jpg"",""time"":0.09999999962747097},{""stimulus"":""run_exp/static/images/task_images/land.jpg"",""time"":668.7999999998137},{""stimulus"":""run_exp/static/images/task_images/dig.jpg"",""time"":1335.3999999994412}]",[],,,,,,,,,,,,,,,
harvest_prac,34,288232,0.0-13.0-1.0,"""event"",""trial"",""time""
""fullscreenenter"",""1"",""58468""
","
","
","""event"",""trial"",""time""
""fullscreenenter"",""1"",""58468""
","
",,null,run_exp/static/images/task_images/barrel_text.jpg,null,,,,,,,,,,,,,,,,,,,,,,,,
decision_prac,35,289791,0.0-13.0-2.0,"""event"",""trial"",""time""
""fullscreenenter"",""1"",""58468""
","
","
","""event"",""trial"",""time""
""fullscreenenter"",""1"",""58468""
","
",,1558,run_exp/static/images/task_images/land.jpg,65,,,,,,,,,,,3,,,,,,,,,,,,,
dig_prac,36,291795,0.0-14.0-0.0,"""event"",""trial"",""time""
""fullscreenenter"",""1"",""58468""
","
","
","""event"",""trial"",""time""
""fullscreenenter"",""1"",""58468""
","
",,,,,,,,,,,,"[{""stimulus"":""run_exp/static/images/task_images/dig.jpg"",""time"":0.10000000055879354},{""stimulus"":""run_exp/static/images/task_images/land.jpg"",""time"":668.1000000005588},{""stimulus"":""run_exp/static/images/task_images/dig.jpg"",""time"":1334.9000000003725}]",[],,,,,,,,,,,,,,,
harvest_prac,37,292797,0.0-14.0-1.0,"""event"",""trial"",""time""
""fullscreenenter"",""1"",""58468""
","
","
","""event"",""trial"",""time""
""fullscreenenter"",""1"",""58468""
","
",,null,run_exp/static/images/task_images/barrel_text.jpg,null,,,,,,,,,,,,,,,,,,,,,,,,
decision_prac,38,293395,0.0-14.0-2.0,"""event"",""trial"",""time""
""fullscreenenter"",""1"",""58468""
","
","
","""event"",""trial"",""time""
""fullscreenenter"",""1"",""58468""
","
",,596.5,run_exp/static/images/task_images/land.jpg,65,,,,,,,,,,,4,,,,,,,,,,,,,
dig_prac,39,295399,0.0-15.0-0.0,"""event"",""trial"",""time""
""fullscreenenter"",""1"",""58468""
","
","
","""event"",""trial"",""time""
""fullscreenenter"",""1"",""58468""
","
",,,,,,,,,,,,"[{""stimulus"":""run_exp/static/images/task_images/dig.jpg"",""time"":0.20000000018626451},{""stimulus"":""run_exp/static/images/task_images/land.jpg"",""time"":668.3999999994412},{""stimulus"":""run_exp/static/images/task_images/dig.jpg"",""time"":1335.2999999998137}]",[],,,,,,,,,,,,,,,
harvest_prac,40,296400,0.0-15.0-1.0,"""event"",""trial"",""time""
""fullscreenenter"",""1"",""58468""
","
","
","""event"",""trial"",""time""
""fullscreenenter"",""1"",""58468""
","
",,null,run_exp/static/images/task_images/barrel_text.jpg,null,,,,,,,,,,,,,,,,,,,,,,,,
decision_prac,41,296504,0.0-15.0-2.0,"""event"",""trial"",""time""
""fullscreenenter"",""1"",""58468""
","
","
","""event"",""trial"",""time""
""fullscreenenter"",""1"",""58468""
","
",,103.2,run_exp/static/images/task_images/land.jpg,65,,,,,,,,,,,,1,,,,,,,,,,,,
quiz_instruc,42,307966,0.0-16.0-0.0,"""event"",""trial"",""time""
""fullscreenenter"",""1"",""58468""
","
","
","""event"",""trial"",""time""
""fullscreenenter"",""1"",""58468""
","
",,11459.5,run_exp/static/audio/clip_10_quiz.m4a,,,,,,,0,,,,,,,,,,,,,,,,,,
instruc_repeat,43,350776,0.0-16.0-1.0,"""event"",""trial"",""time""
""fullscreenenter"",""1"",""58468""
","
","
","""event"",""trial"",""time""
""fullscreenenter"",""1"",""58468""
","
",,null,"<p> Are you ready to play a practice game? </p> <p>In this practice game, you'll be digging up barrels of gems. But, in the real game, you'll be digging up the gems themselves. </p>",null,"<p>In this game, your goal is to collect as many gems as you can. That’s how you will win bonus money. </p> <p>The entire game will last 20 minutes no matter how many gems you collect or how many planets you visit. </p><p>To stay on a planet and dig again, press the letter A on your keyboard. To leave for a new planet, press the letter L.</p><p>The more you dig on a planet, the fewer gems you’ll get with each dig which is why you might consider leaving for a new planet. </p><p>When you arrive at a new planet, you’ll be greeted by an alien. What the alien looks like does not tell you anything about how much treasure is on the planet. </p>",,,,,,,,,,,,,,,,,,,,,,,
instruc_repeat_continue,44,353339,0.0-16.0-2.0,"""event"",""trial"",""time""
""fullscreenenter"",""1"",""58468""
","
","
","""event"",""trial"",""time""
""fullscreenenter"",""1"",""58468""
","
",,2561.5,"<p> Are you ready to play a practice game? </p> <p>In this practice game, you'll be digging up barrels of gems. But, in the real game, you'll be digging up the gems themselves. </p>",,,,,,,0,,,,,,,,,,,,,,,,,,
quiz_q_1_ask,45,363772,0.0-16.0-3.0,"""event"",""trial"",""time""
""fullscreenenter"",""1"",""58468""
","
","
","""event"",""trial"",""time""
""fullscreenenter"",""1"",""58468""
","
",,10431.8,run_exp/static/audio/clip_11_q1_ask.m4a,,,,,,,2,,,,,,,,,,,,,,,,,,
quiz_q_1_fb_correct,46,367629,0.0-17.0-0.0,"""event"",""trial"",""time""
""fullscreenenter"",""1"",""58468""
","
","
","""event"",""trial"",""time""
""fullscreenenter"",""1"",""58468""
","
",,null,run_exp/static/audio/clip_12_q1_correct.m4a,null,<p>That’s correct. You win extra money by collecting more gems.</p>,,,,,,,,,,,,,,,,,,,,,,,
quiz_q_2_ask,47,378200,0.0-17.0-1.0,"""event"",""trial"",""time""
""fullscreenenter"",""1"",""58468""
","
","
","""event"",""trial"",""time""
""fullscreenenter"",""1"",""58468""
","
",,10569.8,run_exp/static/audio/clip_14_q2_ask.m4a,,,,,,,1,,,,,,,,,,,,,,,,,,
quiz_q_2_fb_correct,48,382221,0.0-18.0-0.0,"""event"",""trial"",""time""
""fullscreenenter"",""1"",""58468""
","
","
","""event"",""trial"",""time""
""fullscreenenter"",""1"",""58468""
","
",,null,run_exp/static/audio/clip_15_q2_correct.m4a,null,<p>That’s correct. The experiment is 20 minutes no matter what.</p>,,,,,,,,,,,,,,,,,,,,,,,
quiz_q_3_ask,49,387684,0.0-18.0-1.0,"""event"",""trial"",""time""
""fullscreenenter"",""1"",""58468""
","
","
","""event"",""trial"",""time""
""fullscreenenter"",""1"",""58468""
","
",,5461.9,run_exp/static/audio/clip_17_q3_ask.m4a,,,,,,,1,,,,,,,,,,,,,,,,,,
quiz_q_3_fb_correct,50,391672,0.0-19.0-0.0,"""event"",""trial"",""time""
""fullscreenenter"",""1"",""58468""
","
","
","""event"",""trial"",""time""
""fullscreenenter"",""1"",""58468""
","
",,null,run_exp/static/audio/clip_18_q3_correct.m4a,null,<p> That’s correct. You press the letter L to travel to a new planet.</p>,,,,,,,,,,,,,,,,,,,,,,,
quiz_q_4_ask,51,396811,0.0-19.0-1.0,"""event"",""trial"",""time""
""fullscreenenter"",""1"",""58468""
","
","
","""event"",""trial"",""time""
""fullscreenenter"",""1"",""58468""
","
",,5137.5,run_exp/static/audio/clip_20_q4_ask.m4a,,,,,,,0,,,,,,,,,,,,,,,,,,
quiz_q_4_fb_correct,52,402146,0.0-20.0-0.0,"""event"",""trial"",""time""
""fullscreenenter"",""1"",""58468""
","
","
","""event"",""trial"",""time""
""fullscreenenter"",""1"",""58468""
","
",,null,run_exp/static/audio/clip_21_q4_correct.m4a,null,<p> That’s correct. The more you dig on a planet the fewer gems you’ll get with each dig. </p>,,,,,,,,,,,,,,,,,,,,,,,
quiz_q_5_ask,53,406982,0.0-20.0-1.0,"""event"",""trial"",""time""
""fullscreenenter"",""1"",""58468""
","
","
","""event"",""trial"",""time""
""fullscreenenter"",""1"",""58468""
","
",,4833.7,run_exp/static/audio/clip_23_q5_ask.m4a,,,,,,,1,,,,,,,,,,,,,,,,,,
quiz_q_5_fb_correct,54,411982,0.0-21.0-0.0,"""event"",""trial"",""time""
""fullscreenenter"",""1"",""58468""
","
","
","""event"",""trial"",""time""
""fullscreenenter"",""1"",""58468""
","
",,null,run_exp/static/audio/clip_24_q5_correct.m4a,null,<p> That’s correct. The alien tells you nothing about how much treasure is on the planet.</p>,,,,,,,,,,,,,,,,,,,,,,,
quiz_correct,55,415438,0.0-22.0-0.0,"""event"",""trial"",""time""
""fullscreenenter"",""1"",""58468""
","
","
","""event"",""trial"",""time""
""fullscreenenter"",""1"",""58468""
","
",,null,run_exp/static/audio/clip_26_correct_quiz.m4a,null,,,,,,,,,,,,,,,,,,,,,,,,
quiz_correct_continue,56,417208,0.0-22.0-1.0,"""event"",""trial"",""time""
""fullscreenenter"",""1"",""58468""
","
","
","""event"",""trial"",""time""
""fullscreenenter"",""1"",""58468""
","
",,1768.8,<p>Good job! You're now ready to move on to the real game!</p>,,,,,,,0,,,,,,,,,,,,,,,,,,
audio-keyboard-response,57,427342,0.0-22.0-2.0,"""event"",""trial"",""time""
""fullscreenenter"",""1"",""58468""
","
","
","""event"",""trial"",""time""
""fullscreenenter"",""1"",""58468""
","
",,null,run_exp/static/audio/clip_28_real_game.m4a,null,,,,,,,,,,,,,,,,,,,,,,,,
instruc_begin_exp_contine,58,429163,0.0-22.0-3.0,"""event"",""trial"",""time""
""fullscreenenter"",""1"",""58468""
","
","
","""event"",""trial"",""time""
""fullscreenenter"",""1"",""58468""
","
",,1820.1,"<p>Now that you know how  to dig for space treasure and travel to new planets,you can start exploring! </p><p>Do you want to go over the instructions again or get started with the real game?</p>",,,,,,,1,,,,,,1,,,,,,,,,,,,
alien_welcome,59,434166,0.0-23.0-0.0,"""event"",""trial"",""time""
""fullscreenenter"",""1"",""58468""
","
","
","""event"",""trial"",""time""
""fullscreenenter"",""1"",""58468""
","
",,null,run_exp/static/images/task_images/aliens/old_aliens/planet/alien_planet-14.jpg,null,,,,,,,,,,,,,14,"14,13,57,66,34,9,63,61,44,62,77,53,47,65,36,31,79,1,27,17,40,46,32,74,41,19,30,35,12,25,16,39,24,67,52,3,59,80,29,5",,,,,,,,,,
land,60,434669,0.0-23.0-1.0,"""event"",""trial"",""time""
""fullscreenenter"",""1"",""58468""
","
","
","""event"",""trial"",""time""
""fullscreenenter"",""1"",""58468""
","
",,null,run_exp/static/images/task_images/land.jpg,null,,,,,,,98,,,1,,,,,,,,,,,,,,
dig,61,436672,0.0-23.0-2.0,"""event"",""trial"",""time""
""fullscreenenter"",""1"",""58468""
","
","
","""event"",""trial"",""time""
""fullscreenenter"",""1"",""58468""
","
",,,,,,,,,,,,"[{""stimulus"":""run_exp/static/images/task_images/dig.jpg"",""time"":0.20000000018626451},{""stimulus"":""run_exp/static/images/task_images/land.jpg"",""time"":667.5},{""stimulus"":""run_exp/static/images/task_images/dig.jpg"",""time"":1335.2000000001863}]",[],1,,,,,,,,,,,,,,
harvest,62,437673,0.0-23.0-3.0,"""event"",""trial"",""time""
""fullscreenenter"",""1"",""58468""
","
","
","""event"",""trial"",""time""
""fullscreenenter"",""1"",""58468""
","
",,null,run_exp/static/images/task_images/gems/98.jpg,null,,,,,,,22,,,1,,,,,98,0.2220667,0.224489796,,,,,,,
decision,63,438050,0.0-23.0-4.0,"""event"",""trial"",""time""
""fullscreenenter"",""1"",""58468""
","
","
","""event"",""trial"",""time""
""fullscreenenter"",""1"",""58468""
","
",,374.9,run_exp/static/images/task_images/land.jpg,65,,,,,,,22,,,1,,,,,,,,8886,1,0,FALSE,,,
dig,64,440680,0.0-24.0-0.0,"""event"",""trial"",""time""
""fullscreenenter"",""1"",""58468""
","
","
","""event"",""trial"",""time""
""fullscreenenter"",""1"",""58468""
","
",,,,,,,,,,,,"[{""stimulus"":""run_exp/static/images/task_images/dig.jpg"",""time"":0.10000000055879354},{""stimulus"":""run_exp/static/images/task_images/land.jpg"",""time"":876.8000000007451},{""stimulus"":""run_exp/static/images/task_images/dig.jpg"",""time"":1751.2000000001863}]",[],1,,,,,,,,,,,,,,
harvest,65,441682,0.0-24.0-1.0,"""event"",""trial"",""time""
""fullscreenenter"",""1"",""58468""
","
","
","""event"",""trial"",""time""
""fullscreenenter"",""1"",""58468""
","
",,null,run_exp/static/images/task_images/gems/22.jpg,null,,,,,,,4,,,1,,,,,22,0.204179675,0.181818182,,,,,,,
decision,66,441904,0.0-24.0-2.0,"""event"",""trial"",""time""
""fullscreenenter"",""1"",""58468""
","
","
","""event"",""trial"",""time""
""fullscreenenter"",""1"",""58468""
","
",,221.1,run_exp/static/images/task_images/land.jpg,65,,,,,,,4,,,1,,,,,,,,12740,1,1,FALSE,,,
dig,67,444686,0.0-25.0-0.0,"""event"",""trial"",""time""
""fullscreenenter"",""1"",""58468""
","
","
","""event"",""trial"",""time""
""fullscreenenter"",""1"",""58468""
","
",,,,,,,,,,,,"[{""stimulus"":""run_exp/static/images/task_images/dig.jpg"",""time"":0.20000000018626451},{""stimulus"":""run_exp/static/images/task_images/land.jpg"",""time"":927.2999999998137},{""stimulus"":""run_exp/static/images/task_images/dig.jpg"",""time"":1853.2999999998137}]",[],1,,,,,,,,,,,,,,
harvest,68,445688,0.0-25.0-1.0,"""event"",""trial"",""time""
""fullscreenenter"",""1"",""58468""
","
","
","""event"",""trial"",""time""
""fullscreenenter"",""1"",""58468""
","
",,null,run_exp/static/images/task_images/gems/4.jpg,null,,,,,,,1,,,1,,,,,4,0.206178925,0.25,,,,,,,
decision,69,446110,0.0-25.0-2.0,"""event"",""trial"",""time""
""fullscreenenter"",""1"",""58468""
","
","
","""event"",""trial"",""time""
""fullscreenenter"",""1"",""58468""
","
",,421.3,run_exp/static/images/task_images/land.jpg,65,,,,,,,1,,,1,,,,,,,,16947,1,2,FALSE,,,
dig,70,448692,0.0-26.0-0.0,"""event"",""trial"",""time""
""fullscreenenter"",""1"",""58468""
","
","
","""event"",""trial"",""time""
""fullscreenenter"",""1"",""58468""
","
",,,,,,,,,,,,"[{""stimulus"":""run_exp/static/images/task_images/dig.jpg"",""time"":0.20000000018626451},{""stimulus"":""run_exp/static/images/task_images/land.jpg"",""time"":861.3999999994412},{""stimulus"":""run_exp/static/images/task_images/dig.jpg"",""time"":1719.2999999998137}]",[],1,,,,,,,,,,,,,,
harvest,71,449693,0.0-26.0-1.0,"""event"",""trial"",""time""
""fullscreenenter"",""1"",""58468""
","
","
","""event"",""trial"",""time""
""fullscreenenter"",""1"",""58468""
","
",,null,run_exp/static/images/task_images/gems/1.jpg,null,,,,,,,0,,,1,,,,,1,0.268054133,0,,,,,,,
decision,72,450397,0.0-26.0-2.0,"""event"",""trial"",""time""
""fullscreenenter"",""1"",""58468""
","
","
","""event"",""trial"",""time""
""fullscreenenter"",""1"",""58468""
","
",,703,run_exp/static/images/task_images/land.jpg,76,,,,,,,0,,,1,,,,,,,,21233,1,3,TRUE,,,
travel,73,459698,0.0-27.0-0.0,"""event"",""trial"",""time""
""fullscreenenter"",""1"",""58468""
","
","
","""event"",""trial"",""time""
""fullscreenenter"",""1"",""58468""
","
",,,,,,,,,,,,"[{""stimulus"":""run_exp/static/images/task_images/rocket-01.jpg"",""time"":0.20000000018626451},{""stimulus"":""run_exp/static/images/task_images/rocket-02.jpg"",""time"":1034.4000000003725},{""stimulus"":""run_exp/static/images/task_images/rocket-03.jpg"",""time"":2067.2999999998137},{""stimulus"":""run_exp/static/images/task_images/rocket-04.jpg"",""time"":3100.4000000003725},{""stimulus"":""run_exp/static/images/task_images/rocket-05.jpg"",""time"":4133.100000000559},{""stimulus"":""run_exp/static/images/task_images/rocket-06.jpg"",""time"":5166.5},{""stimulus"":""run_exp/static/images/task_images/rocket-07.jpg"",""time"":6199.100000000559},{""stimulus"":""run_exp/static/images/task_images/rocket-08.jpg"",""time"":7232.299999999814},{""stimulus"":""run_exp/static/images/task_images/rocket-09.jpg"",""time"":8265.900000000373}]",[],1,,,,,,,,,,,,,,
alien_welcome,74,464700,0.0-27.0-1.0,"""event"",""trial"",""time""
""fullscreenenter"",""1"",""58468""
","
","
","""event"",""trial"",""time""
""fullscreenenter"",""1"",""58468""
","
",,null,run_exp/static/images/task_images/aliens/old_aliens/planet/alien_planet-13.jpg,null,,,,,,,,,,,,,13,"14,13,57,66,34,9,63,61,44,62,77,53,47,65,36,31,79,1,27,17,40,46,32,74,41,19,30,35,12,25,16,39,24,67,52,3,59,80,29,5",,,,,,,,,,
land,75,465202,0.0-27.0-2.0,"""event"",""trial"",""time""
""fullscreenenter"",""1"",""58468""
","
","
","""event"",""trial"",""time""
""fullscreenenter"",""1"",""58468""
","
",,null,run_exp/static/images/task_images/land.jpg,null,,,,,,,105,,,2,,,,,,,,,,,,,,
dig,76,467206,0.0-27.0-3.0,"""event"",""trial"",""time""
""fullscreenenter"",""1"",""58468""
","
","
","""event"",""trial"",""time""
""fullscreenenter"",""1"",""58468""
","
",,,,,,,,,,,,"[{""stimulus"":""run_exp/static/images/task_images/dig.jpg"",""time"":0.2999999998137355},{""stimulus"":""run_exp/static/images/task_images/land.jpg"",""time"":668.8999999994412},{""stimulus"":""run_exp/static/images/task_images/dig.jpg"",""time"":1335.8999999994412}]",[],2,,,,,,,,,,,,,,
harvest,77,468208,0.0-27.0-4.0,"""event"",""trial"",""time""
""fullscreenenter"",""1"",""58468""
","
","
","""event"",""trial"",""time""
""fullscreenenter"",""1"",""58468""
","
",,null,run_exp/static/images/task_images/gems/105.jpg,null,,,,,,,26,,,2,,,,,105,0.24975549,0.247619048,,,,,,,
decision,78,468534,0.0-27.0-5.0,"""event"",""trial"",""time""
""fullscreenenter"",""1"",""58468""
","
","
","""event"",""trial"",""time""
""fullscreenenter"",""1"",""58468""
","
",,324.5,run_exp/static/images/task_images/land.jpg,65,,,,,,,26,,,2,,,,,,,,39370,1,0,FALSE,,,
dig,79,471210,0.0-28.0-0.0,"""event"",""trial"",""time""
""fullscreenenter"",""1"",""58468""
","
","
","""event"",""trial"",""time""
""fullscreenenter"",""1"",""58468""
","
",,,,,,,,,,,,"[{""stimulus"":""run_exp/static/images/task_images/dig.jpg"",""time"":0.20000000018626451},{""stimulus"":""run_exp/static/images/task_images/land.jpg"",""time"":891.8000000007451},{""stimulus"":""run_exp/static/images/task_images/dig.jpg"",""time"":1783.6000000005588}]",[],2,,,,,,,,,,,,,,
harvest,80,472212,0.0-28.0-1.0,"""event"",""trial"",""time""
""fullscreenenter"",""1"",""58468""
","
","
","""event"",""trial"",""time""
""fullscreenenter"",""1"",""58468""
","
",,null,run_exp/static/images/task_images/gems/26.jpg,null,,,,,,,6,,,2,,,,,26,0.239614218,0.230769231,,,,,,,
decision,81,472546,0.0-28.0-2.0,"""event"",""trial"",""time""
""fullscreenenter"",""1"",""58468""
","
","
","""event"",""trial"",""time""
""fullscreenenter"",""1"",""58468""
","
",,332.5,run_exp/static/images/task_images/land.jpg,65,,,,,,,6,,,2,,,,,,,,43382,1,1,FALSE,,,
dig,82,475217,0.0-29.0-0.0,"""event"",""trial"",""time""
""fullscreenenter"",""1"",""58468""
","
","
","""event"",""trial"",""time""
""fullscreenenter"",""1"",""58468""
","
",,,,,,,,,,,,"[{""stimulus"":""run_exp/static/images/task_images/dig.jpg"",""time"":0.20000000018626451},{""stimulus"":""run_exp/static/images/task_images/land.jpg"",""time"":889.8999999994412},{""stimulus"":""run_exp/static/images/task_images/dig.jpg"",""time"":1780}]",[],2,,,,,,,,,,,,,,
harvest,83,476218,0.0-29.0-1.0,"""event"",""trial"",""time""
""fullscreenenter"",""1"",""58468""
","
","
","""event"",""trial"",""time""
""fullscreenenter"",""1"",""58468""
","
",,null,run_exp/static/images/task_images/gems/6.jpg,null,,,,,,,1,,,2,,,,,6,0.156479458,0.166666667,,,,,,,
decision,84,476422,0.0-29.0-2.0,"""event"",""trial"",""time""
""fullscreenenter"",""1"",""58468""
","
","
","""event"",""trial"",""time""
""fullscreenenter"",""1"",""58468""
","
",,202.4,run_exp/static/images/task_images/land.jpg,65,,,,,,,1,,,2,,,,,,,,47258,1,2,FALSE,,,
dig,85,479222,0.0-30.0-0.0,"""event"",""trial"",""time""
""fullscreenenter"",""1"",""58468""
","
","
","""event"",""trial"",""time""
""fullscreenenter"",""1"",""58468""
","
",,,,,,,,,,,,"[{""stimulus"":""run_exp/static/images/task_images/dig.jpg"",""time"":0.2999999998137355},{""stimulus"":""run_exp/static/images/task_images/land.jpg"",""time"":933.2000000001863},{""stimulus"":""run_exp/static/images/task_images/dig.jpg"",""time"":1866}]",[],2,,,,,,,,,,,,,,
harvest,86,480223,0.0-30.0-1.0,"""event"",""trial"",""time""
""fullscreenenter"",""1"",""58468""
","
","
","""event"",""trial"",""time""
""fullscreenenter"",""1"",""58468""
","
",,null,run_exp/static/images/task_images/gems/1.jpg,null,,,,,,,0,,,2,,,,,1,0.133249603,0,,,,,,,
decision,87,480359,0.0-30.0-2.0,"""event"",""trial"",""time""
""fullscreenenter"",""1"",""58468""
","
","
","""event"",""trial"",""time""
""fullscreenenter"",""1"",""58468""
","
",,134.4,run_exp/static/images/task_images/land.jpg,76,,,,,,,0,,,2,,,,,,,,51195,1,3,TRUE,,,
travel,88,490227,0.0-31.0-0.0,"""event"",""trial"",""time""
""fullscreenenter"",""1"",""58468""
","
","
","""event"",""trial"",""time""
""fullscreenenter"",""1"",""58468""
","
",,,,,,,,,,,,"[{""stimulus"":""run_exp/static/images/task_images/rocket-01.jpg"",""time"":0.20000000018626451},{""stimulus"":""run_exp/static/images/task_images/rocket-02.jpg"",""time"":1097.7000000001863},{""stimulus"":""run_exp/static/images/task_images/rocket-03.jpg"",""time"":2193},{""stimulus"":""run_exp/static/images/task_images/rocket-04.jpg"",""time"":3289.399999999441},{""stimulus"":""run_exp/static/images/task_images/rocket-05.jpg"",""time"":4385.0999999996275},{""stimulus"":""run_exp/static/images/task_images/rocket-06.jpg"",""time"":5481.299999999814},{""stimulus"":""run_exp/static/images/task_images/rocket-07.jpg"",""time"":6577.700000000186},{""stimulus"":""run_exp/static/images/task_images/rocket-08.jpg"",""time"":7673.700000000186},{""stimulus"":""run_exp/static/images/task_images/rocket-09.jpg"",""time"":8769.200000000186}]",[],2,,,,,,,,,,,,,,
alien_welcome,89,495230,0.0-31.0-1.0,"""event"",""trial"",""time""
""fullscreenenter"",""1"",""58468""
","
","
","""event"",""trial"",""time""
""fullscreenenter"",""1"",""58468""
","
",,null,run_exp/static/images/task_images/aliens/old_aliens/planet/alien_planet-57.jpg,null,,,,,,,,,,,,,57,"14,13,57,66,34,9,63,61,44,62,77,53,47,65,36,31,79,1,27,17,40,46,32,74,41,19,30,35,12,25,16,39,24,67,52,3,59,80,29,5",,,,,,,,,,
land,90,495731,0.0-31.0-2.0,"""event"",""trial"",""time""
""fullscreenenter"",""1"",""58468""
","
","
","""event"",""trial"",""time""
""fullscreenenter"",""1"",""58468""
","
",,null,run_exp/static/images/task_images/land.jpg,null,,,,,,,101,,,3,,,,,,,,,,,,,,
dig,91,497735,0.0-31.0-3.0,"""event"",""trial"",""time""
""fullscreenenter"",""1"",""58468""
","
","
","""event"",""trial"",""time""
""fullscreenenter"",""1"",""58468""
","
",,,,,,,,,,,,"[{""stimulus"":""run_exp/static/images/task_images/dig.jpg"",""time"":0.2999999998137355},{""stimulus"":""run_exp/static/images/task_images/land.jpg"",""time"":667.9000000003725},{""stimulus"":""run_exp/static/images/task_images/dig.jpg"",""time"":1335.7999999998137}]",[],3,,,,,,,,,,,,,,
harvest,92,498736,0.0-31.0-4.0,"""event"",""trial"",""time""
""fullscreenenter"",""1"",""58468""
","
","
","""event"",""trial"",""time""
""fullscreenenter"",""1"",""58468""
","
",,null,run_exp/static/images/task_images/gems/101.jpg,null,,,,,,,53,,,3,,,,,101,0.522882139,0.524752475,,,,,,,
decision,93,499221,0.0-31.0-5.0,"""event"",""trial"",""time""
""fullscreenenter"",""1"",""58468""
","
","
","""event"",""trial"",""time""
""fullscreenenter"",""1"",""58468""
","
",,484.1,run_exp/static/images/task_images/land.jpg,65,,,,,,,53,,,3,,,,,,,,70058,1,0,FALSE,,,
dig,94,501739,0.0-32.0-0.0,"""event"",""trial"",""time""
""fullscreenenter"",""1"",""58468""
","
","
","""event"",""trial"",""time""
""fullscreenenter"",""1"",""58468""
","
",,,,,,,,,,,,"[{""stimulus"":""run_exp/static/images/task_images/dig.jpg"",""time"":0.20000000018626451},{""stimulus"":""run_exp/static/images/task_images/land.jpg"",""time"":839.2999999998137},{""stimulus"":""run_exp/static/images/task_images/dig.jpg"",""time"":1677.2000000001863}]",[],3,,,,,,,,,,,,,,
harvest,95,502741,0.0-32.0-1.0,"""event"",""trial"",""time""
""fullscreenenter"",""1"",""58468""
","
","
","""event"",""trial"",""time""
""fullscreenenter"",""1"",""58468""
","
",,null,run_exp/static/images/task_images/gems/53.jpg,null,,,,,,,26,,,3,,,,,53,0.485509701,0.490566038,,,,,,,
decision,96,503082,0.0-32.0-2.0,"""event"",""trial"",""time""
""fullscreenenter"",""1"",""58468""
","
","
","""event"",""trial"",""time""
""fullscreenenter"",""1"",""58468""
","
",,339.6,run_exp/static/images/task_images/land.jpg,65,,,,,,,26,,,3,,,,,,,,73918,1,1,FALSE,,,
dig,97,505743,0.0-33.0-0.0,"""event"",""trial"",""time""
""fullscreenenter"",""1"",""58468""
","
","
","""event"",""trial"",""time""
""fullscreenenter"",""1"",""58468""
","
",,,,,,,,,,,,"[{""stimulus"":""run_exp/static/images/task_images/dig.jpg"",""time"":0.20000000018626451},{""stimulus"":""run_exp/static/images/task_images/land.jpg"",""time"":887.5},{""stimulus"":""run_exp/static/images/task_images/dig.jpg"",""time"":1773.1000000005588}]",[],3,,,,,,,,,,,,,,
harvest,98,506746,0.0-33.0-1.0,"""event"",""trial"",""time""
""fullscreenenter"",""1"",""58468""
","
","
","""event"",""trial"",""time""
""fullscreenenter"",""1"",""58468""
","
",,null,run_exp/static/images/task_images/gems/26.jpg,null,,,,,,,15,,,3,,,,,26,0.584557307,0.576923077,,,,,,,
decision,99,507084,0.0-33.0-2.0,"""event"",""trial"",""time""
""fullscreenenter"",""1"",""58468""
","
","
","""event"",""trial"",""time""
""fullscreenenter"",""1"",""58468""
","
",,337.1,run_exp/static/images/task_images/land.jpg,65,,,,,,,15,,,3,,,,,,,,77920,1,2,FALSE,,,
dig,100,509748,0.0-34.0-0.0,"""event"",""trial"",""time""
""fullscreenenter"",""1"",""58468""
","
","
","""event"",""trial"",""time""
""fullscreenenter"",""1"",""58468""
","
",,,,,,,,,,,,"[{""stimulus"":""run_exp/static/images/task_images/dig.jpg"",""time"":0.20000000018626451},{""stimulus"":""run_exp/static/images/task_images/land.jpg"",""time"":888.2000000001863},{""stimulus"":""run_exp/static/images/task_images/dig.jpg"",""time"":1775.5}]",[],3,,,,,,,,,,,,,,
harvest,101,510750,0.0-34.0-1.0,"""event"",""trial"",""time""
""fullscreenenter"",""1"",""58468""
","
","
","""event"",""trial"",""time""
""fullscreenenter"",""1"",""58468""
","
",,null,run_exp/static/images/task_images/gems/15.jpg,null,,,,,,,7,,,3,,,,,15,0.461298079,0.466666667,,,,,,,
decision,102,511122,0.0-34.0-2.0,"""event"",""trial"",""time""
""fullscreenenter"",""1"",""58468""
","
","
","""event"",""trial"",""time""
""fullscreenenter"",""1"",""58468""
","
",,370.4,run_exp/static/images/task_images/land.jpg,76,,,,,,,7,,,3,,,,,,,,81958,1,3,TRUE,,,
travel,103,520746,0.0-35.0-0.0,"""event"",""trial"",""time""
""fullscreenenter"",""1"",""58468""
","
","
","""event"",""trial"",""time""
""fullscreenenter"",""1"",""58468""
","
",,,,,,,,,,,,"[{""stimulus"":""run_exp/static/images/task_images/rocket-01.jpg"",""time"":0.20000000018626451},{""stimulus"":""run_exp/static/images/task_images/rocket-02.jpg"",""time"":1070.7000000001863},{""stimulus"":""run_exp/static/images/task_images/rocket-03.jpg"",""time"":2139.7000000001863},{""stimulus"":""run_exp/static/images/task_images/rocket-04.jpg"",""time"":3207.9000000003725},{""stimulus"":""run_exp/static/images/task_images/rocket-05.jpg"",""time"":4277.600000000559},{""stimulus"":""run_exp/static/images/task_images/rocket-06.jpg"",""time"":5346.4000000003725},{""stimulus"":""run_exp/static/images/task_images/rocket-07.jpg"",""time"":6415.4000000003725},{""stimulus"":""run_exp/static/images/task_images/rocket-08.jpg"",""time"":7485.4000000003725},{""stimulus"":""run_exp/static/images/task_images/rocket-09.jpg"",""time"":8553.600000000559}]",[],3,,,,,,,,,,,,,,
alien_welcome,104,525749,0.0-35.0-1.0,"""event"",""trial"",""time""
""fullscreenenter"",""1"",""58468""
","
","
","""event"",""trial"",""time""
""fullscreenenter"",""1"",""58468""
","
",,null,run_exp/static/images/task_images/aliens/old_aliens/planet/alien_planet-66.jpg,null,,,,,,,,,,,,,66,"14,13,57,66,34,9,63,61,44,62,77,53,47,65,36,31,79,1,27,17,40,46,32,74,41,19,30,35,12,25,16,39,24,67,52,3,59,80,29,5",,,,,,,,,,
land,105,526251,0.0-35.0-2.0,"""event"",""trial"",""time""
""fullscreenenter"",""1"",""58468""
","
","
","""event"",""trial"",""time""
""fullscreenenter"",""1"",""58468""
","
",,null,run_exp/static/images/task_images/land.jpg,null,,,,,,,91,,,4,,,,,,,,,,,,,,
dig,106,528255,0.0-35.0-3.0,"""event"",""trial"",""time""
""fullscreenenter"",""1"",""58468""
","
","
","""event"",""trial"",""time""
""fullscreenenter"",""1"",""58468""
","
",,,,,,,,,,,,"[{""stimulus"":""run_exp/static/images/task_images/dig.jpg"",""time"":0.20000000018626451},{""stimulus"":""run_exp/static/images/task_images/land.jpg"",""time"":668.3000000007451},{""stimulus"":""run_exp/static/images/task_images/dig.jpg"",""time"":1334.9000000003725}]",[],4,,,,,,,,,,,,,,
harvest,107,529257,0.0-35.0-4.0,"""event"",""trial"",""time""
""fullscreenenter"",""1"",""58468""
","
","
","""event"",""trial"",""time""
""fullscreenenter"",""1"",""58468""
","
",,null,run_exp/static/images/task_images/gems/91.jpg,null,,,,,,,46,,,4,,,,,91,0.50694114,0.505494505,,,,,,,
decision,108,529281,0.0-35.0-5.0,"""event"",""trial"",""time""
""fullscreenenter"",""1"",""58468""
","
","
","""event"",""trial"",""time""
""fullscreenenter"",""1"",""58468""
","
",,22.3,run_exp/static/images/task_images/land.jpg,65,,,,,,,46,,,4,,,,,,,,100117,1,0,FALSE,,,
dig,109,532261,0.0-36.0-0.0,"""event"",""trial"",""time""
""fullscreenenter"",""1"",""58468""
","
","
","""event"",""trial"",""time""
""fullscreenenter"",""1"",""58468""
","
",,,,,,,,,,,,"[{""stimulus"":""run_exp/static/images/task_images/dig.jpg"",""time"":0.20000000018626451},{""stimulus"":""run_exp/static/images/task_images/land.jpg"",""time"":993.2999999998137},{""stimulus"":""run_exp/static/images/task_images/dig.jpg"",""time"":1985.7000000001863}]",[],4,,,,,,,,,,,,,,
harvest,110,533263,0.0-36.0-1.0,"""event"",""trial"",""time""
""fullscreenenter"",""1"",""58468""
","
","
","""event"",""trial"",""time""
""fullscreenenter"",""1"",""58468""
","
",,null,run_exp/static/images/task_images/gems/46.jpg,null,,,,,,,26,,,4,,,,,46,0.555010417,0.565217391,,,,,,,
decision,111,533606,0.0-36.0-2.0,"""event"",""trial"",""time""
""fullscreenenter"",""1"",""58468""
","
","
","""event"",""trial"",""time""
""fullscreenenter"",""1"",""58468""
","
",,341.5,run_exp/static/images/task_images/land.jpg,65,,,,,,,26,,,4,,,,,,,,104442,1,1,FALSE,,,
dig,112,536268,0.0-37.0-0.0,"""event"",""trial"",""time""
""fullscreenenter"",""1"",""58468""
","
","
","""event"",""trial"",""time""
""fullscreenenter"",""1"",""58468""
","
",,,,,,,,,,,,"[{""stimulus"":""run_exp/static/images/task_images/dig.jpg"",""time"":0.09999999962747097},{""stimulus"":""run_exp/static/images/task_images/land.jpg"",""time"":887.5999999996275},{""stimulus"":""run_exp/static/images/task_images/dig.jpg"",""time"":1773.0999999996275}]",[],4,,,,,,,,,,,,,,
harvest,113,537270,0.0-37.0-1.0,"""event"",""trial"",""time""
""fullscreenenter"",""1"",""58468""
","
","
","""event"",""trial"",""time""
""fullscreenenter"",""1"",""58468""
","
",,null,run_exp/static/images/task_images/gems/26.jpg,null,,,,,,,13,,,4,,,,,26,0.481533146,0.5,,,,,,,
decision,114,537391,0.0-37.0-2.0,"""event"",""trial"",""time""
""fullscreenenter"",""1"",""58468""
","
","
","""event"",""trial"",""time""
""fullscreenenter"",""1"",""58468""
","
",,119.5,run_exp/static/images/task_images/land.jpg,65,,,,,,,13,,,4,,,,,,,,108227,1,2,FALSE,,,
dig,115,540275,0.0-38.0-0.0,"""event"",""trial"",""time""
""fullscreenenter"",""1"",""58468""
","
","
","""event"",""trial"",""time""
""fullscreenenter"",""1"",""58468""
","
",,,,,,,,,,,,"[{""stimulus"":""run_exp/static/images/task_images/dig.jpg"",""time"":0},{""stimulus"":""run_exp/static/images/task_images/land.jpg"",""time"":960.7999999998137},{""stimulus"":""run_exp/static/images/task_images/dig.jpg"",""time"":1921.9000000003725}]",[],4,,,,,,,,,,,,,,
harvest,116,541277,0.0-38.0-1.0,"""event"",""trial"",""time""
""fullscreenenter"",""1"",""58468""
","
","
","""event"",""trial"",""time""
""fullscreenenter"",""1"",""58468""
","
",,null,run_exp/static/images/task_images/gems/13.jpg,null,,,,,,,7,,,4,,,,,13,0.505031288,0.538461538,,,,,,,
decision,117,541312,0.0-38.0-2.0,"""event"",""trial"",""time""
""fullscreenenter"",""1"",""58468""
","
","
","""event"",""trial"",""time""
""fullscreenenter"",""1"",""58468""
","
",,33.9,run_exp/static/images/task_images/land.jpg,65,,,,,,,7,,,4,,,,,,,,112148,1,3,FALSE,,,
dig,118,544280,0.0-39.0-0.0,"""event"",""trial"",""time""
""fullscreenenter"",""1"",""58468""
","
","
","""event"",""trial"",""time""
""fullscreenenter"",""1"",""58468""
","
",,,,,,,,,,,,"[{""stimulus"":""run_exp/static/images/task_images/dig.jpg"",""time"":0.20000000018626451},{""stimulus"":""run_exp/static/images/task_images/land.jpg"",""time"":989.9000000003725},{""stimulus"":""run_exp/static/images/task_images/dig.jpg"",""time"":1978.2000000001863}]",[],4,,,,,,,,,,,,,,
harvest,119,545281,0.0-39.0-1.0,"""event"",""trial"",""time""
""fullscreenenter"",""1"",""58468""
","
","
","""event"",""trial"",""time""
""fullscreenenter"",""1"",""58468""
","
",,null,run_exp/static/images/task_images/gems/7.jpg,null,,,,,,,3,,,4,,,,,7,0.39730488,0.428571429,,,,,,,
decision,120,545600,0.0-39.0-2.0,"""event"",""trial"",""time""
""fullscreenenter"",""1"",""58468""
","
","
","""event"",""trial"",""time""
""fullscreenenter"",""1"",""58468""
","
",,316.9,run_exp/static/images/task_images/land.jpg,65,,,,,,,3,,,4,,,,,,,,116436,1,4,FALSE,,,
dig,121,548287,0.0-40.0-0.0,"""event"",""trial"",""time""
""fullscreenenter"",""1"",""58468""
","
","
","""event"",""trial"",""time""
""fullscreenenter"",""1"",""58468""
","
",,,,,,,,,,,,"[{""stimulus"":""run_exp/static/images/task_images/dig.jpg"",""time"":0.19999999925494194},{""stimulus"":""run_exp/static/images/task_images/land.jpg"",""time"":895.7999999998137},{""stimulus"":""run_exp/static/images/task_images/dig.jpg"",""time"":1789}]",[],4,,,,,,,,,,,,,,
harvest,122,549289,0.0-40.0-1.0,"""event"",""trial"",""time""
""fullscreenenter"",""1"",""58468""
","
","
","""event"",""trial"",""time""
""fullscreenenter"",""1"",""58468""
","
",,null,run_exp/static/images/task_images/gems/3.jpg,null,,,,,,,1,,,4,,,,,3,0.48474266,0.333333333,,,,,,,
decision,123,549643,0.0-40.0-2.0,"""event"",""trial"",""time""
""fullscreenenter"",""1"",""58468""
","
","
","""event"",""trial"",""time""
""fullscreenenter"",""1"",""58468""
","
",,352.3,run_exp/static/images/task_images/land.jpg,65,,,,,,,1,,,4,,,,,,,,120479,1,5,FALSE,,,
dig,124,552292,0.0-41.0-0.0,"""event"",""trial"",""time""
""fullscreenenter"",""1"",""58468""
","
","
","""event"",""trial"",""time""
""fullscreenenter"",""1"",""58468""
","
",,,,,,,,,,,,"[{""stimulus"":""run_exp/static/images/task_images/dig.jpg"",""time"":0.09999999962747097},{""stimulus"":""run_exp/static/images/task_images/land.jpg"",""time"":883.0999999996275},{""stimulus"":""run_exp/static/images/task_images/dig.jpg"",""time"":1766.7000000001863}]",[],4,,,,,,,,,,,,,,
harvest,125,553295,0.0-41.0-1.0,"""event"",""trial"",""time""
""fullscreenenter"",""1"",""58468""
","
","
","""event"",""trial"",""time""
""fullscreenenter"",""1"",""58468""
","
",,null,run_exp/static/images/task_images/gems/1.jpg,null,,,,,,,1,,,4,,,,,1,0.520806844,1,,,,,,,
decision,126,553699,0.0-41.0-2.0,"""event"",""trial"",""time""
""fullscreenenter"",""1"",""58468""
","
","
","""event"",""trial"",""time""
""fullscreenenter"",""1"",""58468""
","
",,402.5,run_exp/static/images/task_images/land.jpg,76,,,,,,,1,,,4,,,,,,,,124535,1,6,TRUE,,,
travel,127,563296,0.0-42.0-0.0,"""event"",""trial"",""time""
""fullscreenenter"",""1"",""58468""
","
","
","""event"",""trial"",""time""
""fullscreenenter"",""1"",""58468""
","
",,,,,,,,,,,,"[{""stimulus"":""run_exp/static/images/task_images/rocket-01.jpg"",""time"":0.20000000018626451},{""stimulus"":""run_exp/static/images/task_images/rocket-02.jpg"",""time"":1068.5},{""stimulus"":""run_exp/static/images/task_images/rocket-03.jpg"",""time"":2133},{""stimulus"":""run_exp/static/images/task_images/rocket-04.jpg"",""time"":3199.4000000003725},{""stimulus"":""run_exp/static/images/task_images/rocket-05.jpg"",""time"":4265.9000000003725},{""stimulus"":""run_exp/static/images/task_images/rocket-06.jpg"",""time"":5331.200000000186},{""stimulus"":""run_exp/static/images/task_images/rocket-07.jpg"",""time"":6397.700000000186},{""stimulus"":""run_exp/static/images/task_images/rocket-08.jpg"",""time"":7463.600000000559},{""stimulus"":""run_exp/static/images/task_images/rocket-09.jpg"",""time"":8529.300000000745}]",[],4,,,,,,,,,,,,,,
alien_welcome,128,568299,0.0-42.0-1.0,"""event"",""trial"",""time""
""fullscreenenter"",""1"",""58468""
","
","
","""event"",""trial"",""time""
""fullscreenenter"",""1"",""58468""
","
",,null,run_exp/static/images/task_images/aliens/old_aliens/planet/alien_planet-34.jpg,null,,,,,,,,,,,,,34,"14,13,57,66,34,9,63,61,44,62,77,53,47,65,36,31,79,1,27,17,40,46,32,74,41,19,30,35,12,25,16,39,24,67,52,3,59,80,29,5",,,,,,,,,,
land,129,568801,0.0-42.0-2.0,"""event"",""trial"",""time""
""fullscreenenter"",""1"",""58468""
","
","
","""event"",""trial"",""time""
""fullscreenenter"",""1"",""58468""
","
",,null,run_exp/static/images/task_images/land.jpg,null,,,,,,,100,,,5,,,,,,,,,,,,,,
dig,130,570804,0.0-42.0-3.0,"""event"",""trial"",""time""
""fullscreenenter"",""1"",""58468""
","
","
","""event"",""trial"",""time""
""fullscreenenter"",""1"",""58468""
","
",,,,,,,,,,,,"[{""stimulus"":""run_exp/static/images/task_images/dig.jpg"",""time"":0.30000000074505806},{""stimulus"":""run_exp/static/images/task_images/land.jpg"",""time"":669.2000000001863},{""stimulus"":""run_exp/static/images/task_images/dig.jpg"",""time"":1335.5}]",[],5,,,,,,,,,,,,,,
harvest,131,571807,0.0-42.0-4.0,"""event"",""trial"",""time""
""fullscreenenter"",""1"",""58468""
","
","
","""event"",""trial"",""time""
""fullscreenenter"",""1"",""58468""
","
",,null,run_exp/static/images/task_images/gems/100.jpg,null,,,,,,,41,,,5,,,,,100,0.405976424,0.41,,,,,,,
decision,132,572179,0.0-42.0-5.0,"""event"",""trial"",""time""
""fullscreenenter"",""1"",""58468""
","
","
","""event"",""trial"",""time""
""fullscreenenter"",""1"",""58468""
","
",,371.5,run_exp/static/images/task_images/land.jpg,65,,,,,,,41,,,5,,,,,,,,143015,1,0,FALSE,,,
dig,133,574812,0.0-43.0-0.0,"""event"",""trial"",""time""
""fullscreenenter"",""1"",""58468""
","
","
","""event"",""trial"",""time""
""fullscreenenter"",""1"",""58468""
","
",,,,,,,,,,,,"[{""stimulus"":""run_exp/static/images/task_images/dig.jpg"",""time"":0.30000000074505806},{""stimulus"":""run_exp/static/images/task_images/land.jpg"",""time"":877.2000000001863},{""stimulus"":""run_exp/static/images/task_images/dig.jpg"",""time"":1754.4000000003725}]",[],5,,,,,,,,,,,,,,
harvest,134,575813,0.0-43.0-1.0,"""event"",""trial"",""time""
""fullscreenenter"",""1"",""58468""
","
","
","""event"",""trial"",""time""
""fullscreenenter"",""1"",""58468""
","
",,null,run_exp/static/images/task_images/gems/41.jpg,null,,,,,,,21,,,5,,,,,41,0.510323615,0.512195122,,,,,,,
decision,135,575977,0.0-43.0-2.0,"""event"",""trial"",""time""
""fullscreenenter"",""1"",""58468""
","
","
","""event"",""trial"",""time""
""fullscreenenter"",""1"",""58468""
","
",,162.4,run_exp/static/images/task_images/land.jpg,65,,,,,,,21,,,5,,,,,,,,146813,1,1,FALSE,,,
dig,136,578815,0.0-44.0-0.0,"""event"",""trial"",""time""
""fullscreenenter"",""1"",""58468""
","
","
","""event"",""trial"",""time""
""fullscreenenter"",""1"",""58468""
","
",,,,,,,,,,,,"[{""stimulus"":""run_exp/static/images/task_images/dig.jpg"",""time"":0.19999999925494194},{""stimulus"":""run_exp/static/images/task_images/land.jpg"",""time"":947.5},{""stimulus"":""run_exp/static/images/task_images/dig.jpg"",""time"":1892.5}]",[],5,,,,,,,,,,,,,,
harvest,137,579816,0.0-44.0-1.0,"""event"",""trial"",""time""
""fullscreenenter"",""1"",""58468""
","
","
","""event"",""trial"",""time""
""fullscreenenter"",""1"",""58468""
","
",,null,run_exp/static/images/task_images/gems/21.jpg,null,,,,,,,10,,,5,,,,,21,0.485995437,0.476190476,,,,,,,
decision,138,579824,0.0-44.0-2.0,"""event"",""trial"",""time""
""fullscreenenter"",""1"",""58468""
","
","
","""event"",""trial"",""time""
""fullscreenenter"",""1"",""58468""
","
",,6.2,run_exp/static/images/task_images/land.jpg,65,,,,,,,10,,,5,,,,,,,,150660,1,2,FALSE,,,
dig,139,582818,0.0-45.0-0.0,"""event"",""trial"",""time""
""fullscreenenter"",""1"",""58468""
","
","
","""event"",""trial"",""time""
""fullscreenenter"",""1"",""58468""
","
",,,,,,,,,,,,"[{""stimulus"":""run_exp/static/images/task_images/dig.jpg"",""time"":0.09999999962747097},{""stimulus"":""run_exp/static/images/task_images/land.jpg"",""time"":998.5},{""stimulus"":""run_exp/static/images/task_images/dig.jpg"",""time"":1995.7999999998137}]",[],5,,,,,,,,,,,,,,
harvest,140,583820,0.0-45.0-1.0,"""event"",""trial"",""time""
""fullscreenenter"",""1"",""58468""
","
","
","""event"",""trial"",""time""
""fullscreenenter"",""1"",""58468""
","
",,null,run_exp/static/images/task_images/gems/10.jpg,null,,,,,,,5,,,5,,,,,10,0.542664884,0.5,,,,,,,
decision,141,584296,0.0-45.0-2.0,"""event"",""trial"",""time""
""fullscreenenter"",""1"",""58468""
","
","
","""event"",""trial"",""time""
""fullscreenenter"",""1"",""58468""
","
",,474.6,run_exp/static/images/task_images/land.jpg,65,,,,,,,5,,,5,,,,,,,,155132,1,3,FALSE,,,
dig,142,586823,0.0-46.0-0.0,"""event"",""trial"",""time""
""fullscreenenter"",""1"",""58468""
","
","
","""event"",""trial"",""time""
""fullscreenenter"",""1"",""58468""
","
",,,,,,,,,,,,"[{""stimulus"":""run_exp/static/images/task_images/dig.jpg"",""time"":0.20000000018626451},{""stimulus"":""run_exp/static/images/task_images/land.jpg"",""time"":842.0999999996275},{""stimulus"":""run_exp/static/images/task_images/dig.jpg"",""time"":1683}]",[],5,,,,,,,,,,,,,,
harvest,143,587825,0.0-46.0-1.0,"""event"",""trial"",""time""
""fullscreenenter"",""1"",""58468""
","
","
","""event"",""trial"",""time""
""fullscreenenter"",""1"",""58468""
","
",,null,run_exp/static/images/task_images/gems/5.jpg,null,,,,,,,2,,,5,,,,,5,0.471284607,0.4,,,,,,,
decision,144,588140,0.0-46.0-2.0,"""event"",""trial"",""time""
""fullscreenenter"",""1"",""58468""
","
","
","""event"",""trial"",""time""
""fullscreenenter"",""1"",""58468""
","
",,313.7,run_exp/static/images/task_images/land.jpg,65,,,,,,,2,,,5,,,,,,,,158976,1,4,FALSE,,,
dig,145,590829,0.0-47.0-0.0,"""event"",""trial"",""time""
""fullscreenenter"",""1"",""58468""
","
","
","""event"",""trial"",""time""
""fullscreenenter"",""1"",""58468""
","
",,,,,,,,,,,,"[{""stimulus"":""run_exp/static/images/task_images/dig.jpg"",""time"":0.20000000018626451},{""stimulus"":""run_exp/static/images/task_images/land.jpg"",""time"":896.1000000005588},{""stimulus"":""run_exp/static/images/task_images/dig.jpg"",""time"":1791.5}]",[],5,,,,,,,,,,,,,,
harvest,146,591831,0.0-47.0-1.0,"""event"",""trial"",""time""
""fullscreenenter"",""1"",""58468""
","
","
","""event"",""trial"",""time""
""fullscreenenter"",""1"",""58468""
","
",,null,run_exp/static/images/task_images/gems/2.jpg,null,,,,,,,1,,,5,,,,,2,0.533453359,0.5,,,,,,,
decision,147,592308,0.0-47.0-2.0,"""event"",""trial"",""time""
""fullscreenenter"",""1"",""58468""
","
","
","""event"",""trial"",""time""
""fullscreenenter"",""1"",""58468""
","
",,476.2,run_exp/static/images/task_images/land.jpg,65,,,,,,,1,,,5,,,,,,,,163144,1,5,FALSE,,,
dig,148,594835,0.0-48.0-0.0,"""event"",""trial"",""time""
""fullscreenenter"",""1"",""58468""
","
","
","""event"",""trial"",""time""
""fullscreenenter"",""1"",""58468""
","
",,,,,,,,,,,,"[{""stimulus"":""run_exp/static/images/task_images/dig.jpg"",""time"":0.10000000055879354},{""stimulus"":""run_exp/static/images/task_images/land.jpg"",""time"":841.8000000007451},{""stimulus"":""run_exp/static/images/task_images/dig.jpg"",""time"":1684.800000000745}]",[],5,,,,,,,,,,,,,,
harvest,149,595837,0.0-48.0-1.0,"""event"",""trial"",""time""
""fullscreenenter"",""1"",""58468""
","
","
","""event"",""trial"",""time""
""fullscreenenter"",""1"",""58468""
","
",,null,run_exp/static/images/task_images/gems/1.jpg,null,,,,,,,0,,,5,,,,,1,0.416468674,0,,,,,,,
decision,150,596295,0.0-48.0-2.0,"""event"",""trial"",""time""
""fullscreenenter"",""1"",""58468""
","
","
","""event"",""trial"",""time""
""fullscreenenter"",""1"",""58468""
","
",,456.2,run_exp/static/images/task_images/land.jpg,76,,,,,,,0,,,5,,,,,,,,167131,1,6,TRUE,,,
travel,151,605839,0.0-49.0-0.0,"""event"",""trial"",""time""
""fullscreenenter"",""1"",""58468""
","
","
","""event"",""trial"",""time""
""fullscreenenter"",""1"",""58468""
","
",,,,,,,,,,,,"[{""stimulus"":""run_exp/static/images/task_images/rocket-01.jpg"",""time"":0.10000000055879354},{""stimulus"":""run_exp/static/images/task_images/rocket-02.jpg"",""time"":1061.7999999998137},{""stimulus"":""run_exp/static/images/task_images/rocket-03.jpg"",""time"":2121.100000000559},{""stimulus"":""run_exp/static/images/task_images/rocket-04.jpg"",""time"":3181.600000000559},{""stimulus"":""run_exp/static/images/task_images/rocket-05.jpg"",""time"":4241.799999999814},{""stimulus"":""run_exp/static/images/task_images/rocket-06.jpg"",""time"":5301.799999999814},{""stimulus"":""run_exp/static/images/task_images/rocket-07.jpg"",""time"":6361.100000000559},{""stimulus"":""run_exp/static/images/task_images/rocket-08.jpg"",""time"":7421.799999999814},{""stimulus"":""run_exp/static/images/task_images/rocket-09.jpg"",""time"":8481.200000000186}]",[],5,,,,,,,,,,,,,,
alien_welcome,152,610842,0.0-49.0-1.0,"""event"",""trial"",""time""
""fullscreenenter"",""1"",""58468""
","
","
","""event"",""trial"",""time""
""fullscreenenter"",""1"",""58468""
","
",,null,run_exp/static/images/task_images/aliens/old_aliens/planet/alien_planet-9.jpg,null,,,,,,,,,,,,,9,"14,13,57,66,34,9,63,61,44,62,77,53,47,65,36,31,79,1,27,17,40,46,32,74,41,19,30,35,12,25,16,39,24,67,52,3,59,80,29,5",,,,,,,,,,
land,153,611344,0.0-49.0-2.0,"""event"",""trial"",""time""
""fullscreenenter"",""1"",""58468""
","
","
","""event"",""trial"",""time""
""fullscreenenter"",""1"",""58468""
","
",,null,run_exp/static/images/task_images/land.jpg,null,,,,,,,102,,,6,,,,,,,,,,,,,,
dig,154,613348,0.0-49.0-3.0,"""event"",""trial"",""time""
""fullscreenenter"",""1"",""58468""
","
","
","""event"",""trial"",""time""
""fullscreenenter"",""1"",""58468""
","
",,,,,,,,,,,,"[{""stimulus"":""run_exp/static/images/task_images/dig.jpg"",""time"":0.2999999998137355},{""stimulus"":""run_exp/static/images/task_images/land.jpg"",""time"":669.2000000001863},{""stimulus"":""run_exp/static/images/task_images/dig.jpg"",""time"":1336.3999999994412}]",[],6,,,,,,,,,,,,,,
harvest,155,614351,0.0-49.0-4.0,"""event"",""trial"",""time""
""fullscreenenter"",""1"",""58468""
","
","
","""event"",""trial"",""time""
""fullscreenenter"",""1"",""58468""
","
",,null,run_exp/static/images/task_images/gems/102.jpg,null,,,,,,,87,,,6,,,,,102,0.849464745,0.852941176,,,,,,,
decision,156,614691,0.0-49.0-5.0,"""event"",""trial"",""time""
""fullscreenenter"",""1"",""58468""
","
","
","""event"",""trial"",""time""
""fullscreenenter"",""1"",""58468""
","
",,338.5,run_exp/static/images/task_images/land.jpg,65,,,,,,,87,,,6,,,,,,,,185527,1,0,FALSE,,,
dig,157,617356,0.0-50.0-0.0,"""event"",""trial"",""time""
""fullscreenenter"",""1"",""58468""
","
","
","""event"",""trial"",""time""
""fullscreenenter"",""1"",""58468""
","
",,,,,,,,,,,,"[{""stimulus"":""run_exp/static/images/task_images/dig.jpg"",""time"":0.20000000018626451},{""stimulus"":""run_exp/static/images/task_images/land.jpg"",""time"":887.8999999994412},{""stimulus"":""run_exp/static/images/task_images/dig.jpg"",""time"":1775.2000000001863}]",[],6,,,,,,,,,,,,,,
harvest,158,618357,0.0-50.0-1.0,"""event"",""trial"",""time""
""fullscreenenter"",""1"",""58468""
","
","
","""event"",""trial"",""time""
""fullscreenenter"",""1"",""58468""
","
",,null,run_exp/static/images/task_images/gems/87.jpg,null,,,,,,,75,,,6,,,,,87,0.861058276,0.862068966,,,,,,,
decision,159,618432,0.0-50.0-2.0,"""event"",""trial"",""time""
""fullscreenenter"",""1"",""58468""
","
","
","""event"",""trial"",""time""
""fullscreenenter"",""1"",""58468""
","
",,73.5,run_exp/static/images/task_images/land.jpg,65,,,,,,,75,,,6,,,,,,,,189268,1,1,FALSE,,,
dig,160,621361,0.0-51.0-0.0,"""event"",""trial"",""time""
""fullscreenenter"",""1"",""58468""
","
","
","""event"",""trial"",""time""
""fullscreenenter"",""1"",""58468""
","
",,,,,,,,,,,,"[{""stimulus"":""run_exp/static/images/task_images/dig.jpg"",""time"":0.20000000018626451},{""stimulus"":""run_exp/static/images/task_images/land.jpg"",""time"":976},{""stimulus"":""run_exp/static/images/task_images/dig.jpg"",""time"":1952}]",[],6,,,,,,,,,,,,,,
harvest,161,622364,0.0-51.0-1.0,"""event"",""trial"",""time""
""fullscreenenter"",""1"",""58468""
","
","
","""event"",""trial"",""time""
""fullscreenenter"",""1"",""58468""
","
",,null,run_exp/static/images/task_images/gems/75.jpg,null,,,,,,,62,,,6,,,,,75,0.824299139,0.826666667,,,,,,,
decision,162,622708,0.0-51.0-2.0,"""event"",""trial"",""time""
""fullscreenenter"",""1"",""58468""
","
","
","""event"",""trial"",""time""
""fullscreenenter"",""1"",""58468""
","
",,343.3,run_exp/static/images/task_images/land.jpg,65,,,,,,,62,,,6,,,,,,,,193544,1,2,FALSE,,,
dig,163,625367,0.0-52.0-0.0,"""event"",""trial"",""time""
""fullscreenenter"",""1"",""58468""
","
","
","""event"",""trial"",""time""
""fullscreenenter"",""1"",""58468""
","
",,,,,,,,,,,,"[{""stimulus"":""run_exp/static/images/task_images/dig.jpg"",""time"":0.09999999962747097},{""stimulus"":""run_exp/static/images/task_images/land.jpg"",""time"":886.3999999994412},{""stimulus"":""run_exp/static/images/task_images/dig.jpg"",""time"":1771.5999999996275}]",[],6,,,,,,,,,,,,,,
harvest,164,626369,0.0-52.0-1.0,"""event"",""trial"",""time""
""fullscreenenter"",""1"",""58468""
","
","
","""event"",""trial"",""time""
""fullscreenenter"",""1"",""58468""
","
",,null,run_exp/static/images/task_images/gems/62.jpg,null,,,,,,,50,,,6,,,,,62,0.809702162,0.806451613,,,,,,,
decision,165,627014,0.0-52.0-2.0,"""event"",""trial"",""time""
""fullscreenenter"",""1"",""58468""
","
","
","""event"",""trial"",""time""
""fullscreenenter"",""1"",""58468""
","
",,643.9,run_exp/static/images/task_images/land.jpg,65,,,,,,,50,,,6,,,,,,,,197850,1,3,FALSE,,,
dig,166,629373,0.0-53.0-0.0,"""event"",""trial"",""time""
""fullscreenenter"",""1"",""58468""
","
","
","""event"",""trial"",""time""
""fullscreenenter"",""1"",""58468""
","
",,,,,,,,,,,,"[{""stimulus"":""run_exp/static/images/task_images/dig.jpg"",""time"":0.10000000055879354},{""stimulus"":""run_exp/static/images/task_images/land.jpg"",""time"":787.1000000005588},{""stimulus"":""run_exp/static/images/task_images/dig.jpg"",""time"":1571.4000000003725}]",[],6,,,,,,,,,,,,,,
harvest,167,630375,0.0-53.0-1.0,"""event"",""trial"",""time""
""fullscreenenter"",""1"",""58468""
","
","
","""event"",""trial"",""time""
""fullscreenenter"",""1"",""58468""
","
",,null,run_exp/static/images/task_images/gems/50.jpg,null,,,,,,,45,,,6,,,,,50,0.904576612,0.9,,,,,,,
decision,168,630811,0.0-53.0-2.0,"""event"",""trial"",""time""
""fullscreenenter"",""1"",""58468""
","
","
","""event"",""trial"",""time""
""fullscreenenter"",""1"",""58468""
","
",,435.3,run_exp/static/images/task_images/land.jpg,65,,,,,,,45,,,6,,,,,,,,201647,1,4,FALSE,,,
dig,169,633376,0.0-54.0-0.0,"""event"",""trial"",""time""
""fullscreenenter"",""1"",""58468""
","
","
","""event"",""trial"",""time""
""fullscreenenter"",""1"",""58468""
","
",,,,,,,,,,,,"[{""stimulus"":""run_exp/static/images/task_images/dig.jpg"",""time"":0},{""stimulus"":""run_exp/static/images/task_images/land.jpg"",""time"":855.7000000001863},{""stimulus"":""run_exp/static/images/task_images/dig.jpg"",""time"":1709.5}]",[],6,,,,,,,,,,,,,,
harvest,170,634378,0.0-54.0-1.0,"""event"",""trial"",""time""
""fullscreenenter"",""1"",""58468""
","
","
","""event"",""trial"",""time""
""fullscreenenter"",""1"",""58468""
","
",,null,run_exp/static/images/task_images/gems/45.jpg,null,,,,,,,40,,,6,,,,,45,0.898813059,0.888888889,,,,,,,
decision,171,634467,0.0-54.0-2.0,"""event"",""trial"",""time""
""fullscreenenter"",""1"",""58468""
","
","
","""event"",""trial"",""time""
""fullscreenenter"",""1"",""58468""
","
",,88.2,run_exp/static/images/task_images/land.jpg,65,,,,,,,40,,,6,,,,,,,,205303,1,5,FALSE,,,
dig,172,637380,0.0-55.0-0.0,"""event"",""trial"",""time""
""fullscreenenter"",""1"",""58468""
","
","
","""event"",""trial"",""time""
""fullscreenenter"",""1"",""58468""
","
",,,,,,,,,,,,"[{""stimulus"":""run_exp/static/images/task_images/dig.jpg"",""time"":0.19999999925494194},{""stimulus"":""run_exp/static/images/task_images/land.jpg"",""time"":971.1999999992549},{""stimulus"":""run_exp/static/images/task_images/dig.jpg"",""time"":1941.2999999998137}]",[],6,,,,,,,,,,,,,,
harvest,173,638382,0.0-55.0-1.0,"""event"",""trial"",""time""
""fullscreenenter"",""1"",""58468""
","
","
","""event"",""trial"",""time""
""fullscreenenter"",""1"",""58468""
","
",,null,run_exp/static/images/task_images/gems/40.jpg,null,,,,,,,31,,,6,,,,,40,0.76423796,0.775,,,,,,,
decision,174,638749,0.0-55.0-2.0,"""event"",""trial"",""time""
""fullscreenenter"",""1"",""58468""
","
","
","""event"",""trial"",""time""
""fullscreenenter"",""1"",""58468""
","
",,365.5,run_exp/static/images/task_images/land.jpg,65,,,,,,,31,,,6,,,,,,,,209585,1,6,FALSE,,,
dig,175,641388,0.0-56.0-0.0,"""event"",""trial"",""time""
""fullscreenenter"",""1"",""58468""
","
","
","""event"",""trial"",""time""
""fullscreenenter"",""1"",""58468""
","
",,,,,,,,,,,,"[{""stimulus"":""run_exp/static/images/task_images/dig.jpg"",""time"":0.09999999962747097},{""stimulus"":""run_exp/static/images/task_images/land.jpg"",""time"":879.9000000003725},{""stimulus"":""run_exp/static/images/task_images/dig.jpg"",""time"":1757.9000000003725}]",[],6,,,,,,,,,,,,,,
harvest,176,642390,0.0-56.0-1.0,"""event"",""trial"",""time""
""fullscreenenter"",""1"",""58468""
","
","
","""event"",""trial"",""time""
""fullscreenenter"",""1"",""58468""
","
",,null,run_exp/static/images/task_images/gems/31.jpg,null,,,,,,,24,,,6,,,,,31,0.77537443,0.774193548,,,,,,,
decision,177,642509,0.0-56.0-2.0,"""event"",""trial"",""time""
""fullscreenenter"",""1"",""58468""
","
","
","""event"",""trial"",""time""
""fullscreenenter"",""1"",""58468""
","
",,117.9,run_exp/static/images/task_images/land.jpg,65,,,,,,,24,,,6,,,,,,,,213346,1,7,FALSE,,,
dig,178,645393,0.0-57.0-0.0,"""event"",""trial"",""time""
""fullscreenenter"",""1"",""58468""
","
","
","""event"",""trial"",""time""
""fullscreenenter"",""1"",""58468""
","
",,,,,,,,,,,,"[{""stimulus"":""run_exp/static/images/task_images/dig.jpg"",""time"":0.20000000018626451},{""stimulus"":""run_exp/static/images/task_images/land.jpg"",""time"":961.3000000007451},{""stimulus"":""run_exp/static/images/task_images/dig.jpg"",""time"":1921.9000000003725}]",[],6,,,,,,,,,,,,,,
harvest,179,646395,0.0-57.0-1.0,"""event"",""trial"",""time""
""fullscreenenter"",""1"",""58468""
","
","
","""event"",""trial"",""time""
""fullscreenenter"",""1"",""58468""
","
",,null,run_exp/static/images/task_images/gems/24.jpg,null,,,,,,,19,,,6,,,,,24,0.776377406,0.791666667,,,,,,,
decision,180,646737,0.0-57.0-2.0,"""event"",""trial"",""time""
""fullscreenenter"",""1"",""58468""
","
","
","""event"",""trial"",""time""
""fullscreenenter"",""1"",""58468""
","
",,340.4,run_exp/static/images/task_images/land.jpg,65,,,,,,,19,,,6,,,,,,,,217573,1,8,FALSE,,,
dig,181,649398,0.0-58.0-0.0,"""event"",""trial"",""time""
""fullscreenenter"",""1"",""58468""
","
","
","""event"",""trial"",""time""
""fullscreenenter"",""1"",""58468""
","
",,,,,,,,,,,,"[{""stimulus"":""run_exp/static/images/task_images/dig.jpg"",""time"":0.2999999998137355},{""stimulus"":""run_exp/static/images/task_images/land.jpg"",""time"":887.4000000003725},{""stimulus"":""run_exp/static/images/task_images/dig.jpg"",""time"":1773.7000000001863}]",[],6,,,,,,,,,,,,,,
harvest,182,650400,0.0-58.0-1.0,"""event"",""trial"",""time""
""fullscreenenter"",""1"",""58468""
","
","
","""event"",""trial"",""time""
""fullscreenenter"",""1"",""58468""
","
",,null,run_exp/static/images/task_images/gems/19.jpg,null,,,,,,,16,,,6,,,,,19,0.867923063,0.842105263,,,,,,,
decision,183,650524,0.0-58.0-2.0,"""event"",""trial"",""time""
""fullscreenenter"",""1"",""58468""
","
","
","""event"",""trial"",""time""
""fullscreenenter"",""1"",""58468""
","
",,122.8,run_exp/static/images/task_images/land.jpg,65,,,,,,,16,,,6,,,,,,,,221361,1,9,FALSE,,,
dig,184,653407,0.0-59.0-0.0,"""event"",""trial"",""time""
""fullscreenenter"",""1"",""58468""
","
","
","""event"",""trial"",""time""
""fullscreenenter"",""1"",""58468""
","
",,,,,,,,,,,,"[{""stimulus"":""run_exp/static/images/task_images/dig.jpg"",""time"":0.10000000055879354},{""stimulus"":""run_exp/static/images/task_images/land.jpg"",""time"":960.2000000001863},{""stimulus"":""run_exp/static/images/task_images/dig.jpg"",""time"":1919.2000000001863}]",[],6,,,,,,,,,,,,,,
harvest,185,654408,0.0-59.0-1.0,"""event"",""trial"",""time""
""fullscreenenter"",""1"",""58468""
","
","
","""event"",""trial"",""time""
""fullscreenenter"",""1"",""58468""
","
",,null,run_exp/static/images/task_images/gems/16.jpg,null,,,,,,,13,,,6,,,,,16,0.835250575,0.8125,,,,,,,
decision,186,654728,0.0-59.0-2.0,"""event"",""trial"",""time""
""fullscreenenter"",""1"",""58468""
","
","
","""event"",""trial"",""time""
""fullscreenenter"",""1"",""58468""
","
",,319,run_exp/static/images/task_images/land.jpg,65,,,,,,,13,,,6,,,,,,,,225564,1,10,FALSE,,,
dig,187,657411,0.0-60.0-0.0,"""event"",""trial"",""time""
""fullscreenenter"",""1"",""58468""
","
","
","""event"",""trial"",""time""
""fullscreenenter"",""1"",""58468""
","
",,,,,,,,,,,,"[{""stimulus"":""run_exp/static/images/task_images/dig.jpg"",""time"":0.20000000018626451},{""stimulus"":""run_exp/static/images/task_images/land.jpg"",""time"":894.0999999996275},{""stimulus"":""run_exp/static/images/task_images/dig.jpg"",""time"":1788.2000000001863}]",[],6,,,,,,,,,,,,,,
harvest,188,658413,0.0-60.0-1.0,"""event"",""trial"",""time""
""fullscreenenter"",""1"",""58468""
","
","
","""event"",""trial"",""time""
""fullscreenenter"",""1"",""58468""
","
",,null,run_exp/static/images/task_images/gems/13.jpg,null,,,,,,,10,,,6,,,,,13,0.787909573,0.769230769,,,,,,,
decision,189,659275,0.0-60.0-2.0,"""event"",""trial"",""time""
""fullscreenenter"",""1"",""58468""
","
","
","""event"",""trial"",""time""
""fullscreenenter"",""1"",""58468""
","
",,860.8,run_exp/static/images/task_images/land.jpg,65,,,,,,,10,,,6,,,,,,,,230111,1,11,FALSE,,,
dig,190,661418,0.0-61.0-0.0,"""event"",""trial"",""time""
""fullscreenenter"",""1"",""58468""
","
","
","""event"",""trial"",""time""
""fullscreenenter"",""1"",""58468""
","
",,,,,,,,,,,,"[{""stimulus"":""run_exp/static/images/task_images/dig.jpg"",""time"":0.19999999925494194},{""stimulus"":""run_exp/static/images/task_images/land.jpg"",""time"":714.7999999998137},{""stimulus"":""run_exp/static/images/task_images/dig.jpg"",""time"":1427.7999999998137}]",[],6,,,,,,,,,,,,,,
harvest,191,662420,0.0-61.0-1.0,"""event"",""trial"",""time""
""fullscreenenter"",""1"",""58468""
","
","
","""event"",""trial"",""time""
""fullscreenenter"",""1"",""58468""
","
",,null,run_exp/static/images/task_images/gems/10.jpg,null,,,,,,,8,,,6,,,,,10,0.802507766,0.8,,,,,,,
decision,192,662656,0.0-61.0-2.0,"""event"",""trial"",""time""
""fullscreenenter"",""1"",""58468""
","
","
","""event"",""trial"",""time""
""fullscreenenter"",""1"",""58468""
","
",,234.5,run_exp/static/images/task_images/land.jpg,65,,,,,,,8,,,6,,,,,,,,233492,1,12,FALSE,,,
dig,193,665423,0.0-62.0-0.0,"""event"",""trial"",""time""
""fullscreenenter"",""1"",""58468""
","
","
","""event"",""trial"",""time""
""fullscreenenter"",""1"",""58468""
","
",,,,,,,,,,,,"[{""stimulus"":""run_exp/static/images/task_images/dig.jpg"",""time"":0.2999999998137355},{""stimulus"":""run_exp/static/images/task_images/land.jpg"",""time"":922},{""stimulus"":""run_exp/static/images/task_images/dig.jpg"",""time"":1844.7000000001863}]",[],6,,,,,,,,,,,,,,
harvest,194,666425,0.0-62.0-1.0,"""event"",""trial"",""time""
""fullscreenenter"",""1"",""58468""
","
","
","""event"",""trial"",""time""
""fullscreenenter"",""1"",""58468""
","
",,null,run_exp/static/images/task_images/gems/8.jpg,null,,,,,,,6,,,6,,,,,8,0.725216901,0.75,,,,,,,
decision,195,666603,0.0-62.0-2.0,"""event"",""trial"",""time""
""fullscreenenter"",""1"",""58468""
","
","
","""event"",""trial"",""time""
""fullscreenenter"",""1"",""58468""
","
",,175.9,run_exp/static/images/task_images/land.jpg,65,,,,,,,6,,,6,,,,,,,,237439,1,13,FALSE,,,
dig,196,669431,0.0-63.0-0.0,"""event"",""trial"",""time""
""fullscreenenter"",""1"",""58468""
","
","
","""event"",""trial"",""time""
""fullscreenenter"",""1"",""58468""
","
",,,,,,,,,,,,"[{""stimulus"":""run_exp/static/images/task_images/dig.jpg"",""time"":0.20000000018626451},{""stimulus"":""run_exp/static/images/task_images/land.jpg"",""time"":942.5},{""stimulus"":""run_exp/static/images/task_images/dig.jpg"",""time"":1883.0999999996275}]",[],6,,,,,,,,,,,,,,
harvest,197,670433,0.0-63.0-1.0,"""event"",""trial"",""time""
""fullscreenenter"",""1"",""58468""
","
","
","""event"",""trial"",""time""
""fullscreenenter"",""1"",""58468""
","
",,null,run_exp/static/images/task_images/gems/6.jpg,null,,,,,,,5,,,6,,,,,6,0.782221609,0.833333333,,,,,,,
decision,198,670474,0.0-63.0-2.0,"""event"",""trial"",""time""
""fullscreenenter"",""1"",""58468""
","
","
","""event"",""trial"",""time""
""fullscreenenter"",""1"",""58468""
","
",,40.2,run_exp/static/images/task_images/land.jpg,65,,,,,,,5,,,6,,,,,,,,241310,1,14,FALSE,,,
dig,199,673436,0.0-64.0-0.0,"""event"",""trial"",""time""
""fullscreenenter"",""1"",""58468""
","
","
","""event"",""trial"",""time""
""fullscreenenter"",""1"",""58468""
","
",,,,,,,,,,,,"[{""stimulus"":""run_exp/static/images/task_images/dig.jpg"",""time"":0.10000000055879354},{""stimulus"":""run_exp/static/images/task_images/land.jpg"",""time"":987},{""stimulus"":""run_exp/static/images/task_images/dig.jpg"",""time"":1973.7000000001863}]",[],6,,,,,,,,,,,,,,
harvest,200,674438,0.0-64.0-1.0,"""event"",""trial"",""time""
""fullscreenenter"",""1"",""58468""
","
","
","""event"",""trial"",""time""
""fullscreenenter"",""1"",""58468""
","
",,null,run_exp/static/images/task_images/gems/5.jpg,null,,,,,,,4,,,6,,,,,5,0.758105854,0.8,,,,,,,
decision,201,674822,0.0-64.0-2.0,"""event"",""trial"",""time""
""fullscreenenter"",""1"",""58468""
","
","
","""event"",""trial"",""time""
""fullscreenenter"",""1"",""58468""
","
",,382.7,run_exp/static/images/task_images/land.jpg,65,,,,,,,4,,,6,,,,,,,,245658,1,15,FALSE,,,
dig,202,677442,0.0-65.0-0.0,"""event"",""trial"",""time""
""fullscreenenter"",""1"",""58468""
","
","
","""event"",""trial"",""time""
""fullscreenenter"",""1"",""58468""
","
",,,,,,,,,,,,"[{""stimulus"":""run_exp/static/images/task_images/dig.jpg"",""time"":0.20000000018626451},{""stimulus"":""run_exp/static/images/task_images/land.jpg"",""time"":873.7000000001863},{""stimulus"":""run_exp/static/images/task_images/dig.jpg"",""time"":1745.7999999998137}]",[],6,,,,,,,,,,,,,,
harvest,203,678443,0.0-65.0-1.0,"""event"",""trial"",""time""
""fullscreenenter"",""1"",""58468""
","
","
","""event"",""trial"",""time""
""fullscreenenter"",""1"",""58468""
","
",,null,run_exp/static/images/task_images/gems/4.jpg,null,,,,,,,3,,,6,,,,,4,0.848223889,0.75,,,,,,,
decision,204,678731,0.0-65.0-2.0,"""event"",""trial"",""time""
""fullscreenenter"",""1"",""58468""
","
","
","""event"",""trial"",""time""
""fullscreenenter"",""1"",""58468""
","
",,286.1,run_exp/static/images/task_images/land.jpg,65,,,,,,,3,,,6,,,,,,,,249567,1,16,FALSE,,,
dig,205,681447,0.0-66.0-0.0,"""event"",""trial"",""time""
""fullscreenenter"",""1"",""58468""
","
","
","""event"",""trial"",""time""
""fullscreenenter"",""1"",""58468""
","
",,,,,,,,,,,,"[{""stimulus"":""run_exp/static/images/task_images/dig.jpg"",""time"":0.09999999962747097},{""stimulus"":""run_exp/static/images/task_images/land.jpg"",""time"":905.2000000001863},{""stimulus"":""run_exp/static/images/task_images/dig.jpg"",""time"":1809.5999999996275}]",[],6,,,,,,,,,,,,,,
harvest,206,682449,0.0-66.0-1.0,"""event"",""trial"",""time""
""fullscreenenter"",""1"",""58468""
","
","
","""event"",""trial"",""time""
""fullscreenenter"",""1"",""58468""
","
",,null,run_exp/static/images/task_images/gems/3.jpg,null,,,,,,,2,,,6,,,,,3,0.767134801,0.666666667,,,,,,,
decision,207,682817,0.0-66.0-2.0,"""event"",""trial"",""time""
""fullscreenenter"",""1"",""58468""
","
","
","""event"",""trial"",""time""
""fullscreenenter"",""1"",""58468""
","
",,367.6,run_exp/static/images/task_images/land.jpg,65,,,,,,,2,,,6,,,,,,,,253654,1,17,FALSE,,,
dig,208,685452,0.0-67.0-0.0,"""event"",""trial"",""time""
""fullscreenenter"",""1"",""58468""
","
","
","""event"",""trial"",""time""
""fullscreenenter"",""1"",""58468""
","
",,,,,,,,,,,,"[{""stimulus"":""run_exp/static/images/task_images/dig.jpg"",""time"":0.20000000018626451},{""stimulus"":""run_exp/static/images/task_images/land.jpg"",""time"":879.1000000005588},{""stimulus"":""run_exp/static/images/task_images/dig.jpg"",""time"":1755.800000000745}]",[],6,,,,,,,,,,,,,,
harvest,209,686454,0.0-67.0-1.0,"""event"",""trial"",""time""
""fullscreenenter"",""1"",""58468""
","
","
","""event"",""trial"",""time""
""fullscreenenter"",""1"",""58468""
","
",,null,run_exp/static/images/task_images/gems/2.jpg,null,,,,,,,2,,,6,,,,,2,0.815985628,1,,,,,,,
decision,210,686819,0.0-67.0-2.0,"""event"",""trial"",""time""
""fullscreenenter"",""1"",""58468""
","
","
","""event"",""trial"",""time""
""fullscreenenter"",""1"",""58468""
","
",,364,run_exp/static/images/task_images/land.jpg,65,,,,,,,2,,,6,,,,,,,,257655,1,18,FALSE,,,
dig,211,689459,0.0-68.0-0.0,"""event"",""trial"",""time""
""fullscreenenter"",""1"",""58468""
","
","
","""event"",""trial"",""time""
""fullscreenenter"",""1"",""58468""
","
",,,,,,,,,,,,"[{""stimulus"":""run_exp/static/images/task_images/dig.jpg"",""time"":0.09999999962747097},{""stimulus"":""run_exp/static/images/task_images/land.jpg"",""time"":878.8999999994412},{""stimulus"":""run_exp/static/images/task_images/dig.jpg"",""time"":1756.8999999994412}]",[],6,,,,,,,,,,,,,,
harvest,212,690460,0.0-68.0-1.0,"""event"",""trial"",""time""
""fullscreenenter"",""1"",""58468""
","
","
","""event"",""trial"",""time""
""fullscreenenter"",""1"",""58468""
","
",,null,run_exp/static/images/task_images/gems/2.jpg,null,,,,,,,2,,,6,,,,,2,0.799064966,1,,,,,,,
decision,213,690963,0.0-68.0-2.0,"""event"",""trial"",""time""
""fullscreenenter"",""1"",""58468""
","
","
","""event"",""trial"",""time""
""fullscreenenter"",""1"",""58468""
","
",,501.1,run_exp/static/images/task_images/land.jpg,65,,,,,,,0,,,6,,,,,,,,261799,1,19,FALSE,,,
dig,214,693463,0.0-69.0-0.0,"""event"",""trial"",""time""
""fullscreenenter"",""1"",""58468""
","
","
","""event"",""trial"",""time""
""fullscreenenter"",""1"",""58468""
","
",,,,,,,,,,,,"[{""stimulus"":""run_exp/static/images/task_images/dig.jpg"",""time"":0.09999999962747097},{""stimulus"":""run_exp/static/images/task_images/land.jpg"",""time"":832.9000000003725},{""stimulus"":""run_exp/static/images/task_images/dig.jpg"",""time"":1665.9000000003725}]",[],6,,,,,,,,,,,,,,
harvest,215,694465,0.0-69.0-1.0,"""event"",""trial"",""time""
""fullscreenenter"",""1"",""58468""
","
","
","""event"",""trial"",""time""
""fullscreenenter"",""1"",""58468""
","
",,null,run_exp/static/images/task_images/gems/0.jpg,null,,,,,,,0,,,6,,,,,0,0.763081866,NaN,,,,,,,
decision,216,694991,0.0-69.0-2.0,"""event"",""trial"",""time""
""fullscreenenter"",""1"",""58468""
","
","
","""event"",""trial"",""time""
""fullscreenenter"",""1"",""58468""
","
",,525.3,run_exp/static/images/task_images/land.jpg,76,,,,,,,0,,,6,,,,,,,,265827,1,20,TRUE,,,
travel,217,704464,0.0-70.0-0.0,"""event"",""trial"",""time""
""fullscreenenter"",""1"",""58468""
","
","
","""event"",""trial"",""time""
""fullscreenenter"",""1"",""58468""
","
",,,,,,,,,,,,"[{""stimulus"":""run_exp/static/images/task_images/rocket-01.jpg"",""time"":0.10000000055879354},{""stimulus"":""run_exp/static/images/task_images/rocket-02.jpg"",""time"":1054},{""stimulus"":""run_exp/static/images/task_images/rocket-03.jpg"",""time"":2105.2999999998137},{""stimulus"":""run_exp/static/images/task_images/rocket-04.jpg"",""time"":3158.100000000559},{""stimulus"":""run_exp/static/images/task_images/rocket-05.jpg"",""time"":4209.200000000186},{""stimulus"":""run_exp/static/images/task_images/rocket-06.jpg"",""time"":5261.5},{""stimulus"":""run_exp/static/images/task_images/rocket-07.jpg"",""time"":6313.299999999814},{""stimulus"":""run_exp/static/images/task_images/rocket-08.jpg"",""time"":7365.600000000559},{""stimulus"":""run_exp/static/images/task_images/rocket-09.jpg"",""time"":8417.400000000373}]",[],6,,,,,,,,,,,,,,
alien_welcome,218,709466,0.0-70.0-1.0,"""event"",""trial"",""time""
""fullscreenenter"",""1"",""58468""
","
","
","""event"",""trial"",""time""
""fullscreenenter"",""1"",""58468""
","
",,null,run_exp/static/images/task_images/aliens/old_aliens/planet/alien_planet-63.jpg,null,,,,,,,,,,,,,63,"14,13,57,66,34,9,63,61,44,62,77,53,47,65,36,31,79,1,27,17,40,46,32,74,41,19,30,35,12,25,16,39,24,67,52,3,59,80,29,5",,,,,,,,,,
land,219,709968,0.0-70.0-2.0,"""event"",""trial"",""time""
""fullscreenenter"",""1"",""58468""
","
","
","""event"",""trial"",""time""
""fullscreenenter"",""1"",""58468""
","
",,null,run_exp/static/images/task_images/land.jpg,null,,,,,,,95,,,7,,,,,,,,,,,,,,
dig,220,711972,0.0-70.0-3.0,"""event"",""trial"",""time""
""fullscreenenter"",""1"",""58468""
","
","
","""event"",""trial"",""time""
""fullscreenenter"",""1"",""58468""
","
",,,,,,,,,,,,"[{""stimulus"":""run_exp/static/images/task_images/dig.jpg"",""time"":0.20000000018626451},{""stimulus"":""run_exp/static/images/task_images/land.jpg"",""time"":669.1000000005588},{""stimulus"":""run_exp/static/images/task_images/dig.jpg"",""time"":1336.6000000005588}]",[],7,,,,,,,,,,,,,,
harvest,221,712974,0.0-70.0-4.0,"""event"",""trial"",""time""
""fullscreenenter"",""1"",""58468""
","
","
","""event"",""trial"",""time""
""fullscreenenter"",""1"",""58468""
","
",,null,run_exp/static/images/task_images/gems/95.jpg,null,,,,,,,74,,,7,,,,,95,0.777908322,0.778947368,,,,,,,
decision,222,713392,0.0-70.0-5.0,"""event"",""trial"",""time""
""fullscreenenter"",""1"",""58468""
","
","
","""event"",""trial"",""time""
""fullscreenenter"",""1"",""58468""
","
",,417.3,run_exp/static/images/task_images/land.jpg,65,,,,,,,74,,,7,,,,,,,,284228,1,0,FALSE,,,
dig,223,715976,0.0-71.0-0.0,"""event"",""trial"",""time""
""fullscreenenter"",""1"",""58468""
","
","
","""event"",""trial"",""time""
""fullscreenenter"",""1"",""58468""
","
",,,,,,,,,,,,"[{""stimulus"":""run_exp/static/images/task_images/dig.jpg"",""time"":0.09999999962747097},{""stimulus"":""run_exp/static/images/task_images/land.jpg"",""time"":860.9000000003725},{""stimulus"":""run_exp/static/images/task_images/dig.jpg"",""time"":1721.5999999996275}]",[],7,,,,,,,,,,,,,,
harvest,224,716978,0.0-71.0-1.0,"""event"",""trial"",""time""
""fullscreenenter"",""1"",""58468""
","
","
","""event"",""trial"",""time""
""fullscreenenter"",""1"",""58468""
","
",,null,run_exp/static/images/task_images/gems/74.jpg,null,,,,,,,56,,,7,,,,,74,0.758042541,0.756756757,,,,,,,
decision,225,717346,0.0-71.0-2.0,"""event"",""trial"",""time""
""fullscreenenter"",""1"",""58468""
","
","
","""event"",""trial"",""time""
""fullscreenenter"",""1"",""58468""
","
",,366.5,run_exp/static/images/task_images/land.jpg,65,,,,,,,56,,,7,,,,,,,,288182,1,1,FALSE,,,
dig,226,719982,0.0-72.0-0.0,"""event"",""trial"",""time""
""fullscreenenter"",""1"",""58468""
","
","
","""event"",""trial"",""time""
""fullscreenenter"",""1"",""58468""
","
",,,,,,,,,,,,"[{""stimulus"":""run_exp/static/images/task_images/dig.jpg"",""time"":0.09999999962747097},{""stimulus"":""run_exp/static/images/task_images/land.jpg"",""time"":878.3999999994412},{""stimulus"":""run_exp/static/images/task_images/dig.jpg"",""time"":1755}]",[],7,,,,,,,,,,,,,,
harvest,227,720984,0.0-72.0-1.0,"""event"",""trial"",""time""
""fullscreenenter"",""1"",""58468""
","
","
","""event"",""trial"",""time""
""fullscreenenter"",""1"",""58468""
","
",,null,run_exp/static/images/task_images/gems/56.jpg,null,,,,,,,45,,,7,,,,,56,0.802903546,0.803571429,,,,,,,
decision,228,721336,0.0-72.0-2.0,"""event"",""trial"",""time""
""fullscreenenter"",""1"",""58468""
","
","
","""event"",""trial"",""time""
""fullscreenenter"",""1"",""58468""
","
",,350.7,run_exp/static/images/task_images/land.jpg,65,,,,,,,45,,,7,,,,,,,,292172,1,2,FALSE,,,
dig,229,723989,0.0-73.0-0.0,"""event"",""trial"",""time""
""fullscreenenter"",""1"",""58468""
","
","
","""event"",""trial"",""time""
""fullscreenenter"",""1"",""58468""
","
",,,,,,,,,,,,"[{""stimulus"":""run_exp/static/images/task_images/dig.jpg"",""time"":0.09999999962747097},{""stimulus"":""run_exp/static/images/task_images/land.jpg"",""time"":885.0999999996275},{""stimulus"":""run_exp/static/images/task_images/dig.jpg"",""time"":1767.3999999994412}]",[],7,,,,,,,,,,,,,,
harvest,230,724991,0.0-73.0-1.0,"""event"",""trial"",""time""
""fullscreenenter"",""1"",""58468""
","
","
","""event"",""trial"",""time""
""fullscreenenter"",""1"",""58468""
","
",,null,run_exp/static/images/task_images/gems/45.jpg,null,,,,,,,36,,,7,,,,,45,0.801439072,0.8,,,,,,,
decision,231,725107,0.0-73.0-2.0,"""event"",""trial"",""time""
""fullscreenenter"",""1"",""58468""
","
","
","""event"",""trial"",""time""
""fullscreenenter"",""1"",""58468""
","
",,114.2,run_exp/static/images/task_images/land.jpg,65,,,,,,,36,,,7,,,,,,,,295943,1,3,FALSE,,,
dig,232,727994,0.0-74.0-0.0,"""event"",""trial"",""time""
""fullscreenenter"",""1"",""58468""
","
","
","""event"",""trial"",""time""
""fullscreenenter"",""1"",""58468""
","
",,,,,,,,,,,,"[{""stimulus"":""run_exp/static/images/task_images/dig.jpg"",""time"":0.20000000018626451},{""stimulus"":""run_exp/static/images/task_images/land.jpg"",""time"":962.2000000001863},{""stimulus"":""run_exp/static/images/task_images/dig.jpg"",""time"":1923.2999999998137}]",[],7,,,,,,,,,,,,,,
harvest,233,728995,0.0-74.0-1.0,"""event"",""trial"",""time""
""fullscreenenter"",""1"",""58468""
","
","
","""event"",""trial"",""time""
""fullscreenenter"",""1"",""58468""
","
",,null,run_exp/static/images/task_images/gems/36.jpg,null,,,,,,,28,,,7,,,,,36,0.787598503,0.777777778,,,,,,,
decision,234,729164,0.0-74.0-2.0,"""event"",""trial"",""time""
""fullscreenenter"",""1"",""58468""
","
","
","""event"",""trial"",""time""
""fullscreenenter"",""1"",""58468""
","
",,167.6,run_exp/static/images/task_images/land.jpg,65,,,,,,,28,,,7,,,,,,,,300000,1,4,TRUE,,,
end_of_block_continue,235,738063,0.0-75.0-0.0,"""event"",""trial"",""time""
""fullscreenenter"",""1"",""58468""
","
","
","""event"",""trial"",""time""
""fullscreenenter"",""1"",""58468""
","
",,null,run_exp/static/audio/clip_32_block_end.m4a,,,,,,,null,,,,,,,,,,,,,,,,,,
alien_welcome,236,743067,0.0-76.0-0.0,"""event"",""trial"",""time""
""fullscreenenter"",""1"",""58468""
","
","
","""event"",""trial"",""time""
""fullscreenenter"",""1"",""58468""
","
",,null,run_exp/static/images/task_images/aliens/old_aliens/planet/alien_planet-61.jpg,null,,,,,,,,,,,,,61,"14,13,57,66,34,9,63,61,44,62,77,53,47,65,36,31,79,1,27,17,40,46,32,74,41,19,30,35,12,25,16,39,24,67,52,3,59,80,29,5",,,,,,,,,,
land,237,743569,0.0-76.0-1.0,"""event"",""trial"",""time""
""fullscreenenter"",""1"",""58468""
","
","
","""event"",""trial"",""time""
""fullscreenenter"",""1"",""58468""
","
",,null,run_exp/static/images/task_images/land.jpg,null,,,,,,,103,,,8,,,,,,,,,,,,,,
dig,238,745573,0.0-76.0-2.0,"""event"",""trial"",""time""
""fullscreenenter"",""1"",""58468""
","
","
","""event"",""trial"",""time""
""fullscreenenter"",""1"",""58468""
","
",,,,,,,,,,,,"[{""stimulus"":""run_exp/static/images/task_images/dig.jpg"",""time"":0.2999999998137355},{""stimulus"":""run_exp/static/images/task_images/land.jpg"",""time"":669.0999999996275},{""stimulus"":""run_exp/static/images/task_images/dig.jpg"",""time"":1335.8999999994412}]",[],8,,,,,,,,,,,,,,
harvest,239,746574,0.0-76.0-3.0,"""event"",""trial"",""time""
""fullscreenenter"",""1"",""58468""
","
","
","""event"",""trial"",""time""
""fullscreenenter"",""1"",""58468""
","
",,null,run_exp/static/images/task_images/gems/103.jpg,null,,,,,,,23,,,8,,,,,103,0.222473536,0.223300971,,,,,,,
decision,240,746635,0.0-76.0-4.0,"""event"",""trial"",""time""
""fullscreenenter"",""1"",""58468""
","
","
","""event"",""trial"",""time""
""fullscreenenter"",""1"",""58468""
","
",,59.8,run_exp/static/images/task_images/land.jpg,65,,,,,,,23,,,8,,,,,,,,8570,2,0,FALSE,,,
dig,241,749580,0.0-77.0-0.0,"""event"",""trial"",""time""
""fullscreenenter"",""1"",""58468""
","
","
","""event"",""trial"",""time""
""fullscreenenter"",""1"",""58468""
","
",,,,,,,,,,,,"[{""stimulus"":""run_exp/static/images/task_images/dig.jpg"",""time"":0.09999999962747097},{""stimulus"":""run_exp/static/images/task_images/land.jpg"",""time"":981.5},{""stimulus"":""run_exp/static/images/task_images/dig.jpg"",""time"":1961.0999999996275}]",[],8,,,,,,,,,,,,,,
harvest,242,750582,0.0-77.0-1.0,"""event"",""trial"",""time""
""fullscreenenter"",""1"",""58468""
","
","
","""event"",""trial"",""time""
""fullscreenenter"",""1"",""58468""
","
",,null,run_exp/static/images/task_images/gems/23.jpg,null,,,,,,,4,,,8,,,,,23,0.189208031,0.173913043,,,,,,,
decision,243,750874,0.0-77.0-2.0,"""event"",""trial"",""time""
""fullscreenenter"",""1"",""58468""
","
","
","""event"",""trial"",""time""
""fullscreenenter"",""1"",""58468""
","
",,290.5,run_exp/static/images/task_images/land.jpg,65,,,,,,,4,,,8,,,,,,,,12809,2,1,FALSE,,,
dig,244,753587,0.0-78.0-0.0,"""event"",""trial"",""time""
""fullscreenenter"",""1"",""58468""
","
","
","""event"",""trial"",""time""
""fullscreenenter"",""1"",""58468""
","
",,,,,,,,,,,,"[{""stimulus"":""run_exp/static/images/task_images/dig.jpg"",""time"":0.09999999962747097},{""stimulus"":""run_exp/static/images/task_images/land.jpg"",""time"":904.7000000001863},{""stimulus"":""run_exp/static/images/task_images/dig.jpg"",""time"":1807.5}]",[],8,,,,,,,,,,,,,,
harvest,245,754590,0.0-78.0-1.0,"""event"",""trial"",""time""
""fullscreenenter"",""1"",""58468""
","
","
","""event"",""trial"",""time""
""fullscreenenter"",""1"",""58468""
","
",,null,run_exp/static/images/task_images/gems/4.jpg,null,,,,,,,1,,,8,,,,,4,0.285421915,0.25,,,,,,,
decision,246,754668,0.0-78.0-2.0,"""event"",""trial"",""time""
""fullscreenenter"",""1"",""58468""
","
","
","""event"",""trial"",""time""
""fullscreenenter"",""1"",""58468""
","
",,76.7,run_exp/static/images/task_images/land.jpg,65,,,,,,,1,,,8,,,,,,,,16603,2,2,FALSE,,,
dig,247,757596,0.0-79.0-0.0,"""event"",""trial"",""time""
""fullscreenenter"",""1"",""58468""
","
","
","""event"",""trial"",""time""
""fullscreenenter"",""1"",""58468""
","
",,,,,,,,,,,,"[{""stimulus"":""run_exp/static/images/task_images/dig.jpg"",""time"":0.20000000018626451},{""stimulus"":""run_exp/static/images/task_images/land.jpg"",""time"":975.8999999994412},{""stimulus"":""run_exp/static/images/task_images/dig.jpg"",""time"":1949.7999999998137}]",[],8,,,,,,,,,,,,,,
harvest,248,758598,0.0-79.0-1.0,"""event"",""trial"",""time""
""fullscreenenter"",""1"",""58468""
","
","
","""event"",""trial"",""time""
""fullscreenenter"",""1"",""58468""
","
",,null,run_exp/static/images/task_images/gems/1.jpg,null,,,,,,,0,,,8,,,,,1,0.159080566,0,,,,,,,
decision,249,759039,0.0-79.0-2.0,"""event"",""trial"",""time""
""fullscreenenter"",""1"",""58468""
","
","
","""event"",""trial"",""time""
""fullscreenenter"",""1"",""58468""
","
",,440.2,run_exp/static/images/task_images/land.jpg,76,,,,,,,0,,,8,,,,,,,,20974,2,3,TRUE,,,
travel,250,768602,0.0-80.0-0.0,"""event"",""trial"",""time""
""fullscreenenter"",""1"",""58468""
","
","
","""event"",""trial"",""time""
""fullscreenenter"",""1"",""58468""
","
",,,,,,,,,,,,"[{""stimulus"":""run_exp/static/images/task_images/rocket-01.jpg"",""time"":0.10000000055879354},{""stimulus"":""run_exp/static/images/task_images/rocket-02.jpg"",""time"":1063},{""stimulus"":""run_exp/static/images/task_images/rocket-03.jpg"",""time"":2124.9000000003725},{""stimulus"":""run_exp/static/images/task_images/rocket-04.jpg"",""time"":3187},{""stimulus"":""run_exp/static/images/task_images/rocket-05.jpg"",""time"":4249.800000000745},{""stimulus"":""run_exp/static/images/task_images/rocket-06.jpg"",""time"":5310.700000000186},{""stimulus"":""run_exp/static/images/task_images/rocket-07.jpg"",""time"":6373.100000000559},{""stimulus"":""run_exp/static/images/task_images/rocket-08.jpg"",""time"":7435.9000000003725},{""stimulus"":""run_exp/static/images/task_images/rocket-09.jpg"",""time"":8497.700000000186}]",[],8,,,,,,,,,,,,,,
alien_welcome,251,773604,0.0-80.0-1.0,"""event"",""trial"",""time""
""fullscreenenter"",""1"",""58468""
","
","
","""event"",""trial"",""time""
""fullscreenenter"",""1"",""58468""
","
",,null,run_exp/static/images/task_images/aliens/old_aliens/planet/alien_planet-44.jpg,null,,,,,,,,,,,,,44,"14,13,57,66,34,9,63,61,44,62,77,53,47,65,36,31,79,1,27,17,40,46,32,74,41,19,30,35,12,25,16,39,24,67,52,3,59,80,29,5",,,,,,,,,,
land,252,774107,0.0-80.0-2.0,"""event"",""trial"",""time""
""fullscreenenter"",""1"",""58468""
","
","
","""event"",""trial"",""time""
