trial_type,trial_index,time_elapsed,internal_node_id,interactions,blur_events,focus_events,fullscreenenter_events,fullscreenexit_events,success,rt,stimulus,key_press,prompt,subject_id,participant_id,age,gender,button_pressed,next_reward,animation_sequence,responses,planet,curr_prac_trial,n_prac_rounds,alien,aliens,reward_received,decay_rate_actual,decay_rate_exp,time_in_block,block_num,prt,last_trial_on_planet,button_html,bonus,num_failures
pavlovia,0,2,0.0-0.0,"""event"",""trial"",""time""
""fullscreenenter"",""1"",""1729""
","
","
","""event"",""trial"",""time""
""fullscreenenter"",""1"",""1729""
","
",,,,,,,,,,,,,,,,,,,,,,,,,,,,
fullscreen,1,2729,0.0-1.0,"""event"",""trial"",""time""
""fullscreenenter"",""1"",""1729""
","
","
","""event"",""trial"",""time""
""fullscreenenter"",""1"",""1729""
","
",TRUE,,,,,,,,,,,,,,,,,,,,,,,,,,,
instruc_welcome,2,12932,0.0-2.0,"""event"",""trial"",""time""
""fullscreenenter"",""1"",""1729""
","
","
","""event"",""trial"",""time""
""fullscreenenter"",""1"",""1729""
","
",,null,run_exp/static/audio/clip_1_welcome.m4a,null,"<p>Howdy! In this experiment, you’ll be an explorer traveling through space to collect space treasure.</p><p>Your mission is to collect as much treasure as possible.</p><br><br><p><img src='run_exp/static/images/task_images/opening_img-01.jpg' height='300' width='auto'></p>",9563,4173,19.44,Male,,,,,,,,,,,,,,,,,,,
audio-keyboard-response,3,29720,0.0-3.0,"""event"",""trial"",""time""
""fullscreenenter"",""1"",""1729""
","
","
","""event"",""trial"",""time""
""fullscreenenter"",""1"",""1729""
","
",,null,run_exp/static/audio/clip_2_move.m4a,null,,,,,,,,,,,,,,,,,,,,,,,,
welcome_dec,4,30255,0.0-4.0,"""event"",""trial"",""time""
""fullscreenenter"",""1"",""1729""
","
","
","""event"",""trial"",""time""
""fullscreenenter"",""1"",""1729""
","
",,531.3,"<p>Howdy! In this experiment, you’ll be an explorer traveling through space to collect space treasure.</p><p>Your mission is to collect as much treasure as possible.</p><br><br><p><img src='run_exp/static/images/task_images/opening_img-01.jpg' height='300' width='auto'></p>",,,,,,,1,,,,,,,,,,,,,,,,,,
html-keyboard-response,5,31318,0.0-5.0,"""event"",""trial"",""time""
""fullscreenenter"",""1"",""1729""
","
","
","""event"",""trial"",""time""
""fullscreenenter"",""1"",""1729""
","
",,1059.7,"<p>Howdy! In this experiment, you’ll be an explorer traveling through space to collect space treasure.</p><p>Your mission is to collect as much treasure as possible.</p><br><br><p><img src='run_exp/static/images/task_images/opening_img-01.jpg' height='300' width='auto'></p><button class=""jspsych-html-btn-unchosen""><img src=""run_exp/static/images/task_images/planet-01.jpg"" height=""50""></button><button class=""jspsych-html-btn-chosen""><img src=""run_exp/static/images/task_images/planet-02.jpg"" height=""50""></button><p><b>[press the space bar to lock in your answer]<b><br></p>",32,,,,,,,,,,,,,,,,,,,,,,,,
instruc_goal,6,41562,0.0-6.0-0.0,"""event"",""trial"",""time""
""fullscreenenter"",""1"",""1729""
","
","
","""event"",""trial"",""time""
""fullscreenenter"",""1"",""1729""
","
",,null,run_exp/static/audio/clip_3_goal.m4a,null,"<p> As a space explorer, you’ll visit different planets to dig for space treasure, these pink gems.</p> <p> The more treasure you dig up, the more bonus money you’ll win! </p><br><br><p><img src='run_exp/static/images/task_images/pink_gem.jpg' height='300' width='auto'></p>",,,,,,,,,,,,,,,,,,,,,,,
instruc_goal,7,44547,0.0-6.0-1.0,"""event"",""trial"",""time""
""fullscreenenter"",""1"",""1729""
","
","
","""event"",""trial"",""time""
""fullscreenenter"",""1"",""1729""
","
",,2982.5,"<p> As a space explorer, you’ll visit different planets to dig for space treasure, these pink gems.</p> <p> The more treasure you dig up, the more bonus money you’ll win! </p><br><br><p><img src='run_exp/static/images/task_images/pink_gem.jpg' height='300' width='auto'></p>",,,,,,,1,,,,,,,,,,,,,,,,,,
html-keyboard-response,8,45144,0.0-6.0-2.0,"""event"",""trial"",""time""
""fullscreenenter"",""1"",""1729""
","
","
","""event"",""trial"",""time""
""fullscreenenter"",""1"",""1729""
","
",,596,"<p> As a space explorer, you’ll visit different planets to dig for space treasure, these pink gems.</p> <p> The more treasure you dig up, the more bonus money you’ll win! </p><br><br><p><img src='run_exp/static/images/task_images/pink_gem.jpg' height='300' width='auto'></p><button class=""jspsych-html-btn-unchosen""><img src=""run_exp/static/images/task_images/planet-01.jpg"" height=""50""></button><button class=""jspsych-html-btn-chosen""><img src=""run_exp/static/images/task_images/planet-02.jpg"" height=""50""></button><p><b>[press the space bar to lock in your answer]<b><br></p>",32,,,,,,,,,,,,,,,,,,,,,,,,
instruc_dig,9,61345,0.0-7.0-0.0,"""event"",""trial"",""time""
""fullscreenenter"",""1"",""1729""
","
","
","""event"",""trial"",""time""
""fullscreenenter"",""1"",""1729""
","
",,null,run_exp/static/audio/clip_4_dig.m4a,null,,,,,,,100,,,,,,,,,,,,,,,,,
instruc_dig_try,10,61768,0.0-7.0-1.0,"""event"",""trial"",""time""
""fullscreenenter"",""1"",""1729""
","
","
","""event"",""trial"",""time""
""fullscreenenter"",""1"",""1729""
","
",,420.2,"<p> When you’ve arrived at a new planet, you will dig once. </p> <p>Then, you get to decide if you want to stay on the planet and dig again or travel to a new planet and dig there.</p> <p> To stay and dig, press the letter <strong>‘A’</strong> on your keyboard. Try pressing it now! </p><p><img src='run_exp/static/images/task_images/land.jpg'  height='700' width='auto'></p>",65,"<p> When you’ve arrived at a new planet, you will dig once. </p> <p>Then, you get to decide if you want to stay on the planet and dig again or travel to a new planet and dig there.</p> <p> To stay and dig, press the letter <strong>‘A’</strong> on your keyboard. Try pressing it now! </p><p><img src='run_exp/static/images/task_images/land.jpg'  height='700' width='auto'></p>",,,,,,100,,,,,,,,,,,,,,,,,
dig_prac,11,63784,0.0-7.0-2.0,"""event"",""trial"",""time""
""fullscreenenter"",""1"",""1729""
","
","
","""event"",""trial"",""time""
""fullscreenenter"",""1"",""1729""
","
",,,,,,,,,,,,"[{""stimulus"":""run_exp/static/images/task_images/dig.jpg"",""time"":0.3999999761581421},{""stimulus"":""run_exp/static/images/task_images/land.jpg"",""time"":671},{""stimulus"":""run_exp/static/images/task_images/dig.jpg"",""time"":1336.5999999642372}]",[],,,,,,,,,,,,,,,
instruc_travel,12,100216,0.0-7.0-3.0,"""event"",""trial"",""time""
""fullscreenenter"",""1"",""1729""
","
","
","""event"",""trial"",""time""
""fullscreenenter"",""1"",""1729""
","
",,null,run_exp/static/audio/clip_5_travel.m4a,null,"<p>Every time you dig up gems, there are less gems on the planet, so the more you dig on a planet the fewer gems you’ll get with each dig.</p><p>When gems are running low, you may want to travel to a new planet. </p> <p>  Planets are very far apart in this galaxy, so it will take some time to travel between them. </p> <br><p>There are lots and lots of planets for you to visit, so you won’t be able to return to any planets you’ve seen before. </p><br><p>To leave this planet and travel to a new one, press the letter <strong>‘L’</strong> on your keyboard. Try pressing it now! </p><p><img src='run_exp/static/images/task_images/rocket-01.jpg'  height='600' width='auto'></p>",,,,,,,,,,,,,,,,,,,,,,,
instruc_travel_try,13,102380,0.0-7.0-4.0,"""event"",""trial"",""time""
""fullscreenenter"",""1"",""1729""
","
","
","""event"",""trial"",""time""
""fullscreenenter"",""1"",""1729""
","
",,2162.1,"<p>Every time you dig up gems, there are less gems on the planet, so the more you dig on a planet the fewer gems you’ll get with each dig.</p><p>When gems are running low, you may want to travel to a new planet. </p> <p>  Planets are very far apart in this galaxy, so it will take some time to travel between them. </p> <br><p>There are lots and lots of planets for you to visit, so you won’t be able to return to any planets you’ve seen before. </p><br><p>To leave this planet and travel to a new one, press the letter <strong>‘L’</strong> on your keyboard. Try pressing it now! </p><p><img src='run_exp/static/images/task_images/rocket-01.jpg'  height='600' width='auto'></p>",76,"<p>Every time you dig up gems, there are less gems on the planet, so the more you dig on a planet the fewer gems you’ll get with each dig.</p><p>When gems are running low, you may want to travel to a new planet. </p> <p>  Planets are very far apart in this galaxy, so it will take some time to travel between them. </p> <br><p>There are lots and lots of planets for you to visit, so you won’t be able to return to any planets you’ve seen before. </p><br><p>To leave this planet and travel to a new one, press the letter <strong>‘L’</strong> on your keyboard. Try pressing it now! </p><p><img src='run_exp/static/images/task_images/rocket-01.jpg'  height='600' width='auto'></p>",,,,,,,,,,,,,,,,,,,,,,,
travel_prac,14,112390,0.0-7.0-5.0,"""event"",""trial"",""time""
""fullscreenenter"",""1"",""1729""
","
","
","""event"",""trial"",""time""
""fullscreenenter"",""1"",""1729""
","
",,,,,,,,,,,,"[{""stimulus"":""run_exp/static/images/task_images/rocket-01.jpg"",""time"":0.5},{""stimulus"":""run_exp/static/images/task_images/rocket-02.jpg"",""time"":1120.5},{""stimulus"":""run_exp/static/images/task_images/rocket-03.jpg"",""time"":2234.899999976158},{""stimulus"":""run_exp/static/images/task_images/rocket-04.jpg"",""time"":3343.800000011921},{""stimulus"":""run_exp/static/images/task_images/rocket-05.jpg"",""time"":4446.899999976158},{""stimulus"":""run_exp/static/images/task_images/rocket-06.jpg"",""time"":5560.800000011921},{""stimulus"":""run_exp/static/images/task_images/rocket-07.jpg"",""time"":6675.300000011921},{""stimulus"":""run_exp/static/images/task_images/rocket-08.jpg"",""time"":7784.800000011921},{""stimulus"":""run_exp/static/images/task_images/rocket-09.jpg"",""time"":8899.199999988079}]",[],0,,,,,,,,,,,,,,
instruc_alien_greet,15,139759,0.0-7.0-6.0,"""event"",""trial"",""time""
""fullscreenenter"",""1"",""1729""
","
","
","""event"",""trial"",""time""
""fullscreenenter"",""1"",""1729""
","
",,null,run_exp/static/audio/clip_6_alien.m4a,null,"<p>When you arrive at a new planet, the alien who owns the treasure mine on that planet will greet you!</p><p>The better an alien takes care of their mine the easier it is to dig for gems. Some aliens take better care of their mine than others. So, you won’t get exactly the same amount of gems on each planet.</p><p>What the alien looks like does not tell you anything about how many gems there are on the planet.</p><br><p><img src=""run_exp/static/images/task_images/aliens/instructions_aliens/planet/alien_planet-1.jpg""  height=""600"" width=""auto""></p>",,,,,,,,,,,,,,,,,,,,,,,
instruc_alien_greet,16,143820,0.0-7.0-7.0,"""event"",""trial"",""time""
""fullscreenenter"",""1"",""1729""
","
","
","""event"",""trial"",""time""
""fullscreenenter"",""1"",""1729""
","
",,4058.8,"<p>When you arrive at a new planet, the alien who owns the treasure mine on that planet will greet you!</p><p>The better an alien takes care of their mine the easier it is to dig for gems. Some aliens take better care of their mine than others. So, you won’t get exactly the same amount of gems on each planet.</p><p>What the alien looks like does not tell you anything about how many gems there are on the planet.</p><br><p><img src=""run_exp/static/images/task_images/aliens/instructions_aliens/planet/alien_planet-1.jpg""  height=""600"" width=""auto""></p>",,,,,,,1,,,,,,,,,,,,,,,,,,
html-keyboard-response,17,145048,0.0-7.0-8.0,"""event"",""trial"",""time""
""fullscreenenter"",""1"",""1729""
","
","
","""event"",""trial"",""time""
""fullscreenenter"",""1"",""1729""
","
",,1226,"<p>When you arrive at a new planet, the alien who owns the treasure mine on that planet will greet you!</p><p>The better an alien takes care of their mine the easier it is to dig for gems. Some aliens take better care of their mine than others. So, you won’t get exactly the same amount of gems on each planet.</p><p>What the alien looks like does not tell you anything about how many gems there are on the planet.</p><br><p><img src=""run_exp/static/images/task_images/aliens/instructions_aliens/planet/alien_planet-1.jpg""  height=""600"" width=""auto""></p><button class=""jspsych-html-btn-unchosen""><img src=""run_exp/static/images/task_images/planet-01.jpg"" height=""50""></button><button class=""jspsych-html-btn-chosen""><img src=""run_exp/static/images/task_images/planet-02.jpg"" height=""50""></button><p><b>[press the space bar to lock in your answer]<b><br></p>",32,,,,,,,,,,,,,,,,,,,,,,,,
time_out,18,156338,0.0-8.0-0.0,"""event"",""trial"",""time""
""fullscreenenter"",""1"",""1729""
","
","
","""event"",""trial"",""time""
""fullscreenenter"",""1"",""1729""
","
",,null,run_exp/static/audio/clip_7_timeout.m4a,null,"<p>If you don't make your choice fast enough, you’ll have to wait a few seconds before you can make another one.</p><p>You can’t dig for more gems or travel to new planets. You just have to sit and wait.</p><br><p><img src='run_exp/static/images/task_images/time_out.jpg'  height='600' width='auto'></p>",,,,,,,,,,,,,,,,,,,,,,,
time_out,19,157727,0.0-8.0-1.0,"""event"",""trial"",""time""
""fullscreenenter"",""1"",""1729""
","
","
","""event"",""trial"",""time""
""fullscreenenter"",""1"",""1729""
","
",,1387,"<p>If you don't make your choice fast enough, you’ll have to wait a few seconds before you can make another one.</p><p>You can’t dig for more gems or travel to new planets. You just have to sit and wait.</p><br><p><img src='run_exp/static/images/task_images/time_out.jpg'  height='600' width='auto'></p>",,,,,,,1,,,,,,,,,,,,,,,,,,
html-keyboard-response,20,158354,0.0-8.0-2.0,"""event"",""trial"",""time""
""fullscreenenter"",""1"",""1729""
","
","
","""event"",""trial"",""time""
""fullscreenenter"",""1"",""1729""
","
",,624.6,"<p>If you don't make your choice fast enough, you’ll have to wait a few seconds before you can make another one.</p><p>You can’t dig for more gems or travel to new planets. You just have to sit and wait.</p><br><p><img src='run_exp/static/images/task_images/time_out.jpg'  height='600' width='auto'></p><button class=""jspsych-html-btn-unchosen""><img src=""run_exp/static/images/task_images/planet-01.jpg"" height=""50""></button><button class=""jspsych-html-btn-chosen""><img src=""run_exp/static/images/task_images/planet-02.jpg"" height=""50""></button><p><b>[press the space bar to lock in your answer]<b><br></p>",32,,,,,,,,,,,,,,,,,,,,,,,,
instruc_break,21,174217,0.0-9.0-0.0,"""event"",""trial"",""time""
""fullscreenenter"",""1"",""1729""
","
","
","""event"",""trial"",""time""
""fullscreenenter"",""1"",""1729""
","
",,null,run_exp/static/audio/clip_8_break.m4a,null,"<p> After digging and traveling for a while, you’ll be able to take a break at home base. </p><p>The game will last 20 minutes no matter what.</p><p>You will visit home base every 5 minutes, so, you will visit home base three times during the game.</p><br><p><img src='run_exp/static/images/task_images/home_base.jpg' height='600' width='auto'></p>",,,,,,,,,,,,,,,,,,,,,,,
instruc_break,22,175187,0.0-9.0-1.0,"""event"",""trial"",""time""
""fullscreenenter"",""1"",""1729""
","
","
","""event"",""trial"",""time""
""fullscreenenter"",""1"",""1729""
","
",,967.1,"<p> After digging and traveling for a while, you’ll be able to take a break at home base. </p><p>The game will last 20 minutes no matter what.</p><p>You will visit home base every 5 minutes, so, you will visit home base three times during the game.</p><br><p><img src='run_exp/static/images/task_images/home_base.jpg' height='600' width='auto'></p>",,,,,,,1,,,,,,,,,,,,,,,,,,
html-keyboard-response,23,175706,0.0-9.0-2.0,"""event"",""trial"",""time""
""fullscreenenter"",""1"",""1729""
","
","
","""event"",""trial"",""time""
""fullscreenenter"",""1"",""1729""
","
",,516.9,"<p> After digging and traveling for a while, you’ll be able to take a break at home base. </p><p>The game will last 20 minutes no matter what.</p><p>You will visit home base every 5 minutes, so, you will visit home base three times during the game.</p><br><p><img src='run_exp/static/images/task_images/home_base.jpg' height='600' width='auto'></p><button class=""jspsych-html-btn-unchosen""><img src=""run_exp/static/images/task_images/planet-01.jpg"" height=""50""></button><button class=""jspsych-html-btn-chosen""><img src=""run_exp/static/images/task_images/planet-02.jpg"" height=""50""></button><p><b>[press the space bar to lock in your answer]<b><br></p>",32,,,,,,,,,,,,,,,,,,,,,,,,
instruc_prac_game,24,186013,0.0-10.0-0.0,"""event"",""trial"",""time""
""fullscreenenter"",""1"",""1729""
","
","
","""event"",""trial"",""time""
""fullscreenenter"",""1"",""1729""
","
",,null,run_exp/static/audio/clip_9_practice.m4a,null,"<p> Are you ready to play a practice game? </p> <p>In this practice game, you'll be digging up barrels of gems. But, in the real game, you'll be digging up the gems themselves. </p>",,,,,,,,,,,,,,,,,,,,,,,
html-button-response,25,187733,0.0-10.0-1.0,"""event"",""trial"",""time""
""fullscreenenter"",""1"",""1729""
","
","
","""event"",""trial"",""time""
""fullscreenenter"",""1"",""1729""
","
",,1717.8,"<p> Are you ready to play a practice game? </p> <p>In this practice game, you'll be digging up barrels of gems. But, in the real game, you'll be digging up the gems themselves. </p>",,,,,,,0,,,,,,,,,,,,,,,,,,
alien_welcome_prac,26,192743,0.0-11.0-0.0,"""event"",""trial"",""time""
""fullscreenenter"",""1"",""1729""
","
","
","""event"",""trial"",""time""
""fullscreenenter"",""1"",""1729""
","
",,null,run_exp/static/images/task_images/aliens/practice_aliens/planet/alien_planet-5.jpg,null,,,,,,,,,,,,,,,,,,,,,,,,
land_prac,27,193253,0.0-11.0-1.0,"""event"",""trial"",""time""
""fullscreenenter"",""1"",""1729""
","
","
","""event"",""trial"",""time""
""fullscreenenter"",""1"",""1729""
","
",,null,run_exp/static/images/task_images/land.jpg,null,,,,,,,101,,,0,,,,,,,,,,,,,,
dig_prac,28,195262,0.0-11.0-2.0,"""event"",""trial"",""time""
""fullscreenenter"",""1"",""1729""
","
","
","""event"",""trial"",""time""
""fullscreenenter"",""1"",""1729""
","
",,,,,,,,,,,,"[{""stimulus"":""run_exp/static/images/task_images/dig.jpg"",""time"":0.5},{""stimulus"":""run_exp/static/images/task_images/land.jpg"",""time"":672.1999999880791},{""stimulus"":""run_exp/static/images/task_images/dig.jpg"",""time"":1343.699999988079}]",[],,,,,,,,,,,,,,,
harvest_prac,29,196272,0.0-11.0-3.0,"""event"",""trial"",""time""
""fullscreenenter"",""1"",""1729""
","
","
","""event"",""trial"",""time""
""fullscreenenter"",""1"",""1729""
","
",,null,run_exp/static/images/task_images/barrel_text.jpg,null,,,,,,,,,,,,,,,,,,,,,,,,
decision_prac,30,196593,0.0-11.0-4.0,"""event"",""trial"",""time""
""fullscreenenter"",""1"",""1729""
","
","
","""event"",""trial"",""time""
""fullscreenenter"",""1"",""1729""
","
",,318.7,run_exp/static/images/task_images/land.jpg,65,,,,,,,,,,,1,,,,,,,,,,,,,
dig_prac,31,198605,0.0-12.0-0.0,"""event"",""trial"",""time""
""fullscreenenter"",""1"",""1729""
","
","
","""event"",""trial"",""time""
""fullscreenenter"",""1"",""1729""
","
",,,,,,,,,,,,"[{""stimulus"":""run_exp/static/images/task_images/dig.jpg"",""time"":0.10000002384185791},{""stimulus"":""run_exp/static/images/task_images/land.jpg"",""time"":673.6999999880791},{""stimulus"":""run_exp/static/images/task_images/dig.jpg"",""time"":1338.699999988079}]",[],,,,,,,,,,,,,,,
harvest_prac,32,199616,0.0-12.0-1.0,"""event"",""trial"",""time""
""fullscreenenter"",""1"",""1729""
","
","
","""event"",""trial"",""time""
""fullscreenenter"",""1"",""1729""
","
",,null,run_exp/static/images/task_images/barrel_text.jpg,null,,,,,,,,,,,,,,,,,,,,,,,,
decision_prac,33,199935,0.0-12.0-2.0,"""event"",""trial"",""time""
""fullscreenenter"",""1"",""1729""
","
","
","""event"",""trial"",""time""
""fullscreenenter"",""1"",""1729""
","
",,317,run_exp/static/images/task_images/land.jpg,65,,,,,,,,,,,2,,,,,,,,,,,,,
dig_prac,34,201943,0.0-13.0-0.0,"""event"",""trial"",""time""
""fullscreenenter"",""1"",""1729""
","
","
","""event"",""trial"",""time""
""fullscreenenter"",""1"",""1729""
","
",,,,,,,,,,,,"[{""stimulus"":""run_exp/static/images/task_images/dig.jpg"",""time"":0.19999998807907104},{""stimulus"":""run_exp/static/images/task_images/land.jpg"",""time"":676.3000000119209},{""stimulus"":""run_exp/static/images/task_images/dig.jpg"",""time"":1341.699999988079}]",[],,,,,,,,,,,,,,,
harvest_prac,35,202953,0.0-13.0-1.0,"""event"",""trial"",""time""
""fullscreenenter"",""1"",""1729""
","
","
","""event"",""trial"",""time""
""fullscreenenter"",""1"",""1729""
","
",,null,run_exp/static/images/task_images/barrel_text.jpg,null,,,,,,,,,,,,,,,,,,,,,,,,
decision_prac,36,203077,0.0-13.0-2.0,"""event"",""trial"",""time""
""fullscreenenter"",""1"",""1729""
","
","
","""event"",""trial"",""time""
""fullscreenenter"",""1"",""1729""
","
",,121,run_exp/static/images/task_images/land.jpg,65,,,,,,,,,,,3,,,,,,,,,,,,,
dig_prac,37,205085,0.0-14.0-0.0,"""event"",""trial"",""time""
""fullscreenenter"",""1"",""1729""
","
","
","""event"",""trial"",""time""
""fullscreenenter"",""1"",""1729""
","
",,,,,,,,,,,,"[{""stimulus"":""run_exp/static/images/task_images/dig.jpg"",""time"":0.19999998807907104},{""stimulus"":""run_exp/static/images/task_images/land.jpg"",""time"":669},{""stimulus"":""run_exp/static/images/task_images/dig.jpg"",""time"":1342.300000011921}]",[],,,,,,,,,,,,,,,
harvest_prac,38,206093,0.0-14.0-1.0,"""event"",""trial"",""time""
""fullscreenenter"",""1"",""1729""
","
","
","""event"",""trial"",""time""
""fullscreenenter"",""1"",""1729""
","
",,null,run_exp/static/images/task_images/barrel_text.jpg,null,,,,,,,,,,,,,,,,,,,,,,,,
decision_prac,39,206387,0.0-14.0-2.0,"""event"",""trial"",""time""
""fullscreenenter"",""1"",""1729""
","
","
","""event"",""trial"",""time""
""fullscreenenter"",""1"",""1729""
","
",,291.4,run_exp/static/images/task_images/land.jpg,65,,,,,,,,,,,4,,,,,,,,,,,,,
dig_prac,40,208398,0.0-15.0-0.0,"""event"",""trial"",""time""
""fullscreenenter"",""1"",""1729""
","
","
","""event"",""trial"",""time""
""fullscreenenter"",""1"",""1729""
","
",,,,,,,,,,,,"[{""stimulus"":""run_exp/static/images/task_images/dig.jpg"",""time"":0.19999998807907104},{""stimulus"":""run_exp/static/images/task_images/land.jpg"",""time"":673.1000000238419},{""stimulus"":""run_exp/static/images/task_images/dig.jpg"",""time"":1345.300000011921}]",[],,,,,,,,,,,,,,,
harvest_prac,41,209409,0.0-15.0-1.0,"""event"",""trial"",""time""
""fullscreenenter"",""1"",""1729""
","
","
","""event"",""trial"",""time""
""fullscreenenter"",""1"",""1729""
","
",,null,run_exp/static/images/task_images/barrel_text.jpg,null,,,,,,,,,,,,,,,,,,,,,,,,
decision_prac,42,210100,0.0-15.0-2.0,"""event"",""trial"",""time""
""fullscreenenter"",""1"",""1729""
","
","
","""event"",""trial"",""time""
""fullscreenenter"",""1"",""1729""
","
",,689.2,run_exp/static/images/task_images/land.jpg,65,,,,,,,,,,,,1,,,,,,,,,,,,
quiz_instruc,43,293910,0.0-16.0-0.0,"""event"",""trial"",""time""
""fullscreenenter"",""1"",""1729""
","
","
","""event"",""trial"",""time""
""fullscreenenter"",""1"",""1729""
","
",,83806.7,run_exp/static/audio/clip_10_quiz.m4a,,,,,,,0,,,,,,,,,,,,,,,,,,
instruc_repeat,44,337463,0.0-16.0-1.0,"""event"",""trial"",""time""
""fullscreenenter"",""1"",""1729""
","
","
","""event"",""trial"",""time""
""fullscreenenter"",""1"",""1729""
","
",,null,"<p> Are you ready to play a practice game? </p> <p>In this practice game, you'll be digging up barrels of gems. But, in the real game, you'll be digging up the gems themselves. </p>",null,"<p>In this game, your goal is to collect as many gems as you can. That’s how you will win bonus money. </p> <p>The entire game will last 20 minutes no matter how many gems you collect or how many planets you visit. </p><p>To stay on a planet and dig again, press the letter A on your keyboard. To leave for a new planet, press the letter L.</p><p>The more you dig on a planet, the fewer gems you’ll get with each dig which is why you might consider leaving for a new planet. </p><p>When you arrive at a new planet, you’ll be greeted by an alien. What the alien looks like does not tell you anything about how much treasure is on the planet. </p>",,,,,,,,,,,,,,,,,,,,,,,
instruc_repeat_continue,45,341231,0.0-16.0-2.0,"""event"",""trial"",""time""
""fullscreenenter"",""1"",""1729""
","
","
","""event"",""trial"",""time""
""fullscreenenter"",""1"",""1729""
","
",,3766,"<p> Are you ready to play a practice game? </p> <p>In this practice game, you'll be digging up barrels of gems. But, in the real game, you'll be digging up the gems themselves. </p>",,,,,,,0,,,,,,,,,,,,,,,,,,
quiz_q_1_ask,46,345064,0.0-16.0-3.0,"""event"",""trial"",""time""
""fullscreenenter"",""1"",""1729""
","
","
","""event"",""trial"",""time""
""fullscreenenter"",""1"",""1729""
","
",,3830.3,run_exp/static/audio/clip_11_q1_ask.m4a,,,,,,,2,,,,,,,,,,,,,,,,,,
quiz_q_1_fb_correct,47,349073,0.0-17.0-0.0,"""event"",""trial"",""time""
""fullscreenenter"",""1"",""1729""
","
","
","""event"",""trial"",""time""
""fullscreenenter"",""1"",""1729""
","
",,null,run_exp/static/audio/clip_12_q1_correct.m4a,null,<p>That’s correct. You win extra money by collecting more gems.</p>,,,,,,,,,,,,,,,,,,,,,,,
quiz_q_2_ask,48,352422,0.0-17.0-1.0,"""event"",""trial"",""time""
""fullscreenenter"",""1"",""1729""
","
","
","""event"",""trial"",""time""
""fullscreenenter"",""1"",""1729""
","
",,3345.5,run_exp/static/audio/clip_14_q2_ask.m4a,,,,,,,1,,,,,,,,,,,,,,,,,,
quiz_q_2_fb_correct,49,356573,0.0-18.0-0.0,"""event"",""trial"",""time""
""fullscreenenter"",""1"",""1729""
","
","
","""event"",""trial"",""time""
""fullscreenenter"",""1"",""1729""
","
",,null,run_exp/static/audio/clip_15_q2_correct.m4a,null,<p>That’s correct. The experiment is 20 minutes no matter what.</p>,,,,,,,,,,,,,,,,,,,,,,,
quiz_q_3_ask,50,359623,0.0-18.0-1.0,"""event"",""trial"",""time""
""fullscreenenter"",""1"",""1729""
","
","
","""event"",""trial"",""time""
""fullscreenenter"",""1"",""1729""
","
",,3048.1,run_exp/static/audio/clip_17_q3_ask.m4a,,,,,,,1,,,,,,,,,,,,,,,,,,
quiz_q_3_fb_correct,51,363772,0.0-19.0-0.0,"""event"",""trial"",""time""
""fullscreenenter"",""1"",""1729""
","
","
","""event"",""trial"",""time""
""fullscreenenter"",""1"",""1729""
","
",,null,run_exp/static/audio/clip_18_q3_correct.m4a,null,<p> That’s correct. You press the letter L to travel to a new planet.</p>,,,,,,,,,,,,,,,,,,,,,,,
quiz_q_4_ask,52,368055,0.0-19.0-1.0,"""event"",""trial"",""time""
""fullscreenenter"",""1"",""1729""
","
","
","""event"",""trial"",""time""
""fullscreenenter"",""1"",""1729""
","
",,4281.1,run_exp/static/audio/clip_20_q4_ask.m4a,,,,,,,0,,,,,,,,,,,,,,,,,,
quiz_q_4_fb_correct,53,373524,0.0-20.0-0.0,"""event"",""trial"",""time""
""fullscreenenter"",""1"",""1729""
","
","
","""event"",""trial"",""time""
""fullscreenenter"",""1"",""1729""
","
",,null,run_exp/static/audio/clip_21_q4_correct.m4a,null,<p> That’s correct. The more you dig on a planet the fewer gems you’ll get with each dig. </p>,,,,,,,,,,,,,,,,,,,,,,,
quiz_q_5_ask,54,376072,0.0-20.0-1.0,"""event"",""trial"",""time""
""fullscreenenter"",""1"",""1729""
","
","
","""event"",""trial"",""time""
""fullscreenenter"",""1"",""1729""
","
",,2545.3,run_exp/static/audio/clip_23_q5_ask.m4a,,,,,,,1,,,,,,,,,,,,,,,,,,
quiz_q_5_fb_correct,55,381233,0.0-21.0-0.0,"""event"",""trial"",""time""
""fullscreenenter"",""1"",""1729""
","
","
","""event"",""trial"",""time""
""fullscreenenter"",""1"",""1729""
","
",,null,run_exp/static/audio/clip_24_q5_correct.m4a,null,<p> That’s correct. The alien tells you nothing about how much treasure is on the planet.</p>,,,,,,,,,,,,,,,,,,,,,,,
quiz_correct,56,384855,0.0-22.0-0.0,"""event"",""trial"",""time""
""fullscreenenter"",""1"",""1729""
","
","
","""event"",""trial"",""time""
""fullscreenenter"",""1"",""1729""
","
",,null,run_exp/static/audio/clip_26_correct_quiz.m4a,null,,,,,,,,,,,,,,,,,,,,,,,,
quiz_correct_continue,57,386350,0.0-22.0-1.0,"""event"",""trial"",""time""
""fullscreenenter"",""1"",""1729""
","
","
","""event"",""trial"",""time""
""fullscreenenter"",""1"",""1729""
","
",,1493.4,<p>Good job! You're now ready to move on to the real game!</p>,,,,,,,0,,,,,,,,,,,,,,,,,,
audio-keyboard-response,58,396628,0.0-22.0-2.0,"""event"",""trial"",""time""
""fullscreenenter"",""1"",""1729""
","
","
","""event"",""trial"",""time""
""fullscreenenter"",""1"",""1729""
","
",,null,run_exp/static/audio/clip_28_real_game.m4a,null,,,,,,,,,,,,,,,,,,,,,,,,
instruc_begin_exp_contine,59,398370,0.0-22.0-3.0,"""event"",""trial"",""time""
""fullscreenenter"",""1"",""1729""
","
","
","""event"",""trial"",""time""
""fullscreenenter"",""1"",""1729""
","
",,1739.6,"<p>Now that you know how  to dig for space treasure and travel to new planets,you can start exploring! </p><p>Do you want to go over the instructions again or get started with the real game?</p>",,,,,,,1,,,,,,1,,,,,,,,,,,,
alien_welcome,60,403382,0.0-23.0-0.0,"""event"",""trial"",""time""
""fullscreenenter"",""1"",""1729""
","
","
","""event"",""trial"",""time""
""fullscreenenter"",""1"",""1729""
","
",,null,run_exp/static/images/task_images/aliens/old_aliens/planet/alien_planet-26.jpg,null,,,,,,,,,,,,,26,"26,56,60,78,8,59,57,70,21,47,63,65,35,75,38,4,55,58,42,39,76,19,72,7,53,10,51,24,43,73,44,68,9,50,27,77,5,34,2",,,,,,,,,,
land,61,403893,0.0-23.0-1.0,"""event"",""trial"",""time""
""fullscreenenter"",""1"",""1729""
","
","
","""event"",""trial"",""time""
""fullscreenenter"",""1"",""1729""
","
",,null,run_exp/static/images/task_images/land.jpg,null,,,,,,,103,,,1,,,,,,,,,,,,,,
dig,62,405901,0.0-23.0-2.0,"""event"",""trial"",""time""
""fullscreenenter"",""1"",""1729""
","
","
","""event"",""trial"",""time""
""fullscreenenter"",""1"",""1729""
","
",,,,,,,,,,,,"[{""stimulus"":""run_exp/static/images/task_images/dig.jpg"",""time"":0.5},{""stimulus"":""run_exp/static/images/task_images/land.jpg"",""time"":671.3000000119209},{""stimulus"":""run_exp/static/images/task_images/dig.jpg"",""time"":1341.699999988079}]",[],1,,,,,,,,,,,,,,
harvest,63,406912,0.0-23.0-3.0,"""event"",""trial"",""time""
""fullscreenenter"",""1"",""1729""
","
","
","""event"",""trial"",""time""
""fullscreenenter"",""1"",""1729""
","
",,null,run_exp/static/images/task_images/gems/103.jpg,null,,,,,,,24,,,1,,,,,103,0.235194725,0.233009709,,,,,,,
decision,64,407509,0.0-23.0-4.0,"""event"",""trial"",""time""
""fullscreenenter"",""1"",""1729""
","
","
","""event"",""trial"",""time""
""fullscreenenter"",""1"",""1729""
","
",,593.9,run_exp/static/images/task_images/land.jpg,65,,,,,,,24,,,1,,,,,,,,9138,1,0,FALSE,,,
dig,65,409924,0.0-24.0-0.0,"""event"",""trial"",""time""
""fullscreenenter"",""1"",""1729""
","
","
","""event"",""trial"",""time""
""fullscreenenter"",""1"",""1729""
","
",,,,,,,,,,,,"[{""stimulus"":""run_exp/static/images/task_images/dig.jpg"",""time"":0.3999999761581421},{""stimulus"":""run_exp/static/images/task_images/land.jpg"",""time"":814.6999999880791},{""stimulus"":""run_exp/static/images/task_images/dig.jpg"",""time"":1616.199999988079}]",[],1,,,,,,,,,,,,,,
harvest,66,410935,0.0-24.0-1.0,"""event"",""trial"",""time""
""fullscreenenter"",""1"",""1729""
","
","
","""event"",""trial"",""time""
""fullscreenenter"",""1"",""1729""
","
",,null,run_exp/static/images/task_images/gems/24.jpg,null,,,,,,,7,,,1,,,,,24,0.274913063,0.291666667,,,,,,,
decision,67,411326,0.0-24.0-2.0,"""event"",""trial"",""time""
""fullscreenenter"",""1"",""1729""
","
","
","""event"",""trial"",""time""
""fullscreenenter"",""1"",""1729""
","
",,389,run_exp/static/images/task_images/land.jpg,65,,,,,,,7,,,1,,,,,,,,12954,1,1,FALSE,,,
dig,68,413941,0.0-25.0-0.0,"""event"",""trial"",""time""
""fullscreenenter"",""1"",""1729""
","
","
","""event"",""trial"",""time""
""fullscreenenter"",""1"",""1729""
","
",,,,,,,,,,,,"[{""stimulus"":""run_exp/static/images/task_images/dig.jpg"",""time"":0.19999998807907104},{""stimulus"":""run_exp/static/images/task_images/land.jpg"",""time"":877.6999999880791},{""stimulus"":""run_exp/static/images/task_images/dig.jpg"",""time"":1749.1000000238419}]",[],1,,,,,,,,,,,,,,
harvest,69,414952,0.0-25.0-1.0,"""event"",""trial"",""time""
""fullscreenenter"",""1"",""1729""
","
","
","""event"",""trial"",""time""
""fullscreenenter"",""1"",""1729""
","
",,null,run_exp/static/images/task_images/gems/7.jpg,null,,,,,,,2,,,1,,,,,7,0.221207391,0.285714286,,,,,,,
decision,70,415290,0.0-25.0-2.0,"""event"",""trial"",""time""
""fullscreenenter"",""1"",""1729""
","
","
","""event"",""trial"",""time""
""fullscreenenter"",""1"",""1729""
","
",,336.2,run_exp/static/images/task_images/land.jpg,65,,,,,,,2,,,1,,,,,,,,16918,1,2,FALSE,,,
dig,71,417959,0.0-26.0-0.0,"""event"",""trial"",""time""
""fullscreenenter"",""1"",""1729""
","
","
","""event"",""trial"",""time""
""fullscreenenter"",""1"",""1729""
","
",,,,,,,,,,,,"[{""stimulus"":""run_exp/static/images/task_images/dig.jpg"",""time"":0.19999998807907104},{""stimulus"":""run_exp/static/images/task_images/land.jpg"",""time"":900.0999999642372},{""stimulus"":""run_exp/static/images/task_images/dig.jpg"",""time"":1787.8999999761581}]",[],1,,,,,,,,,,,,,,
harvest,72,418968,0.0-26.0-1.0,"""event"",""trial"",""time""
""fullscreenenter"",""1"",""1729""
","
","
","""event"",""trial"",""time""
""fullscreenenter"",""1"",""1729""
","
",,null,run_exp/static/images/task_images/gems/2.jpg,null,,,,,,,0,,,1,,,,,2,0.245086931,0,,,,,,,
decision,73,419707,0.0-26.0-2.0,"""event"",""trial"",""time""
""fullscreenenter"",""1"",""1729""
","
","
","""event"",""trial"",""time""
""fullscreenenter"",""1"",""1729""
","
",,736.9,run_exp/static/images/task_images/land.jpg,76,,,,,,,0,,,1,,,,,,,,21336,1,3,TRUE,,,
travel,74,428981,0.0-27.0-0.0,"""event"",""trial"",""time""
""fullscreenenter"",""1"",""1729""
","
","
","""event"",""trial"",""time""
""fullscreenenter"",""1"",""1729""
","
",,,,,,,,,,,,"[{""stimulus"":""run_exp/static/images/task_images/rocket-01.jpg"",""time"":0.10000002384185791},{""stimulus"":""run_exp/static/images/task_images/rocket-02.jpg"",""time"":1039.699999988079},{""stimulus"":""run_exp/static/images/task_images/rocket-03.jpg"",""time"":2061.800000011921},{""stimulus"":""run_exp/static/images/task_images/rocket-04.jpg"",""time"":3094.800000011921},{""stimulus"":""run_exp/static/images/task_images/rocket-05.jpg"",""time"":4122.300000011921},{""stimulus"":""run_exp/static/images/task_images/rocket-06.jpg"",""time"":5149.699999988079},{""stimulus"":""run_exp/static/images/task_images/rocket-07.jpg"",""time"":6183.100000023842},{""stimulus"":""run_exp/static/images/task_images/rocket-08.jpg"",""time"":7210.399999976158},{""stimulus"":""run_exp/static/images/task_images/rocket-09.jpg"",""time"":8238.100000023842}]",[],1,,,,,,,,,,,,,,
alien_welcome,75,433992,0.0-27.0-1.0,"""event"",""trial"",""time""
""fullscreenenter"",""1"",""1729""
","
","
","""event"",""trial"",""time""
""fullscreenenter"",""1"",""1729""
","
",,null,run_exp/static/images/task_images/aliens/old_aliens/planet/alien_planet-56.jpg,null,,,,,,,,,,,,,56,"26,56,60,78,8,59,57,70,21,47,63,65,35,75,38,4,55,58,42,39,76,19,72,7,53,10,51,24,43,73,44,68,9,50,27,77,5,34,2",,,,,,,,,,
land,76,434503,0.0-27.0-2.0,"""event"",""trial"",""time""
""fullscreenenter"",""1"",""1729""
","
","
","""event"",""trial"",""time""
""fullscreenenter"",""1"",""1729""
","
",,null,run_exp/static/images/task_images/land.jpg,null,,,,,,,108,,,2,,,,,,,,,,,,,,
dig,77,436511,0.0-27.0-3.0,"""event"",""trial"",""time""
""fullscreenenter"",""1"",""1729""
","
","
","""event"",""trial"",""time""
""fullscreenenter"",""1"",""1729""
","
",,,,,,,,,,,,"[{""stimulus"":""run_exp/static/images/task_images/dig.jpg"",""time"":0.5},{""stimulus"":""run_exp/static/images/task_images/land.jpg"",""time"":677.3999999761581},{""stimulus"":""run_exp/static/images/task_images/dig.jpg"",""time"":1341.199999988079}]",[],2,,,,,,,,,,,,,,
harvest,78,437517,0.0-27.0-4.0,"""event"",""trial"",""time""
""fullscreenenter"",""1"",""1729""
","
","
","""event"",""trial"",""time""
""fullscreenenter"",""1"",""1729""
","
",,null,run_exp/static/images/task_images/gems/108.jpg,null,,,,,,,21,,,2,,,,,108,0.19440476,0.194444444,,,,,,,
decision,79,437845,0.0-27.0-5.0,"""event"",""trial"",""time""
""fullscreenenter"",""1"",""1729""
","
","
","""event"",""trial"",""time""
""fullscreenenter"",""1"",""1729""
","
",,325.6,run_exp/static/images/task_images/land.jpg,65,,,,,,,21,,,2,,,,,,,,39473,1,0,FALSE,,,
dig,80,440528,0.0-28.0-0.0,"""event"",""trial"",""time""
""fullscreenenter"",""1"",""1729""
","
","
","""event"",""trial"",""time""
""fullscreenenter"",""1"",""1729""
","
",,,,,,,,,,,,"[{""stimulus"":""run_exp/static/images/task_images/dig.jpg"",""time"":0.10000002384185791},{""stimulus"":""run_exp/static/images/task_images/land.jpg"",""time"":903.1999999880791},{""stimulus"":""run_exp/static/images/task_images/dig.jpg"",""time"":1791.699999988079}]",[],2,,,,,,,,,,,,,,
harvest,81,441532,0.0-28.0-1.0,"""event"",""trial"",""time""
""fullscreenenter"",""1"",""1729""
","
","
","""event"",""trial"",""time""
""fullscreenenter"",""1"",""1729""
","
",,null,run_exp/static/images/task_images/gems/21.jpg,null,,,,,,,4,,,2,,,,,21,0.204729423,0.19047619,,,,,,,
decision,82,442596,0.0-28.0-2.0,"""event"",""trial"",""time""
""fullscreenenter"",""1"",""1729""
","
","
","""event"",""trial"",""time""
""fullscreenenter"",""1"",""1729""
","
",,1061.9,run_exp/static/images/task_images/land.jpg,65,,,,,,,4,,,2,,,,,,,,44224,1,1,FALSE,,,
dig,83,444545,0.0-29.0-0.0,"""event"",""trial"",""time""
""fullscreenenter"",""1"",""1729""
","
","
","""event"",""trial"",""time""
""fullscreenenter"",""1"",""1729""
","
",,,,,,,,,,,,"[{""stimulus"":""run_exp/static/images/task_images/dig.jpg"",""time"":0.19999998807907104},{""stimulus"":""run_exp/static/images/task_images/land.jpg"",""time"":656},{""stimulus"":""run_exp/static/images/task_images/dig.jpg"",""time"":1300.4000000357628}]",[],2,,,,,,,,,,,,,,
harvest,84,445550,0.0-29.0-1.0,"""event"",""trial"",""time""
""fullscreenenter"",""1"",""1729""
","
","
","""event"",""trial"",""time""
""fullscreenenter"",""1"",""1729""
","
",,null,run_exp/static/images/task_images/gems/4.jpg,null,,,,,,,1,,,2,,,,,4,0.240005031,0.25,,,,,,,
decision,85,446139,0.0-29.0-2.0,"""event"",""trial"",""time""
""fullscreenenter"",""1"",""1729""
","
","
","""event"",""trial"",""time""
""fullscreenenter"",""1"",""1729""
","
",,587.2,run_exp/static/images/task_images/land.jpg,76,,,,,,,1,,,2,,,,,,,,47767,1,2,TRUE,,,
travel,86,455557,0.0-30.0-0.0,"""event"",""trial"",""time""
""fullscreenenter"",""1"",""1729""
","
","
","""event"",""trial"",""time""
""fullscreenenter"",""1"",""1729""
","
",,,,,,,,,,,,"[{""stimulus"":""run_exp/static/images/task_images/rocket-01.jpg"",""time"":0.20000004768371582},{""stimulus"":""run_exp/static/images/task_images/rocket-02.jpg"",""time"":1054.5},{""stimulus"":""run_exp/static/images/task_images/rocket-03.jpg"",""time"":2094.600000023842},{""stimulus"":""run_exp/static/images/task_images/rocket-04.jpg"",""time"":3145.5},{""stimulus"":""run_exp/static/images/task_images/rocket-05.jpg"",""time"":4184.400000035763},{""stimulus"":""run_exp/static/images/task_images/rocket-06.jpg"",""time"":5230.100000023842},{""stimulus"":""run_exp/static/images/task_images/rocket-07.jpg"",""time"":6279.800000011921},{""stimulus"":""run_exp/static/images/task_images/rocket-08.jpg"",""time"":7318},{""stimulus"":""run_exp/static/images/task_images/rocket-09.jpg"",""time"":8368.5}]",[],2,,,,,,,,,,,,,,
alien_welcome,87,460573,0.0-30.0-1.0,"""event"",""trial"",""time""
""fullscreenenter"",""1"",""1729""
","
","
","""event"",""trial"",""time""
""fullscreenenter"",""1"",""1729""
","
",,null,run_exp/static/images/task_images/aliens/old_aliens/planet/alien_planet-60.jpg,null,,,,,,,,,,,,,60,"26,56,60,78,8,59,57,70,21,47,63,65,35,75,38,4,55,58,42,39,76,19,72,7,53,10,51,24,43,73,44,68,9,50,27,77,5,34,2",,,,,,,,,,
land,88,461078,0.0-30.0-2.0,"""event"",""trial"",""time""
""fullscreenenter"",""1"",""1729""
","
","
","""event"",""trial"",""time""
""fullscreenenter"",""1"",""1729""
","
",,null,run_exp/static/images/task_images/land.jpg,null,,,,,,,111,,,3,,,,,,,,,,,,,,
dig,89,463087,0.0-30.0-3.0,"""event"",""trial"",""time""
""fullscreenenter"",""1"",""1729""
","
","
","""event"",""trial"",""time""
""fullscreenenter"",""1"",""1729""
","
",,,,,,,,,,,,"[{""stimulus"":""run_exp/static/images/task_images/dig.jpg"",""time"":0.5},{""stimulus"":""run_exp/static/images/task_images/land.jpg"",""time"":671.6999999880791},{""stimulus"":""run_exp/static/images/task_images/dig.jpg"",""time"":1343.800000011921}]",[],3,,,,,,,,,,,,,,
harvest,90,464097,0.0-30.0-4.0,"""event"",""trial"",""time""
""fullscreenenter"",""1"",""1729""
","
","
","""event"",""trial"",""time""
""fullscreenenter"",""1"",""1729""
","
",,null,run_exp/static/images/task_images/gems/111.jpg,null,,,,,,,52,,,3,,,,,111,0.467131576,0.468468468,,,,,,,
decision,91,464564,0.0-30.0-5.0,"""event"",""trial"",""time""
""fullscreenenter"",""1"",""1729""
","
","
","""event"",""trial"",""time""
""fullscreenenter"",""1"",""1729""
","
",,464.7,run_exp/static/images/task_images/land.jpg,65,,,,,,,52,,,3,,,,,,,,66192,1,0,FALSE,,,
dig,92,467109,0.0-31.0-0.0,"""event"",""trial"",""time""
""fullscreenenter"",""1"",""1729""
","
","
","""event"",""trial"",""time""
""fullscreenenter"",""1"",""1729""
","
",,,,,,,,,,,,"[{""stimulus"":""run_exp/static/images/task_images/dig.jpg"",""time"":0.20000004768371582},{""stimulus"":""run_exp/static/images/task_images/land.jpg"",""time"":846.1000000238419},{""stimulus"":""run_exp/static/images/task_images/dig.jpg"",""time"":1695.1000000238419}]",[],3,,,,,,,,,,,,,,
harvest,93,468119,0.0-31.0-1.0,"""event"",""trial"",""time""
""fullscreenenter"",""1"",""1729""
","
","
","""event"",""trial"",""time""
""fullscreenenter"",""1"",""1729""
","
",,null,run_exp/static/images/task_images/gems/52.jpg,null,,,,,,,33,,,3,,,,,52,0.634389793,0.634615385,,,,,,,
decision,94,468480,0.0-31.0-2.0,"""event"",""trial"",""time""
""fullscreenenter"",""1"",""1729""
","
","
","""event"",""trial"",""time""
""fullscreenenter"",""1"",""1729""
","
",,358.2,run_exp/static/images/task_images/land.jpg,65,,,,,,,33,,,3,,,,,,,,70108,1,1,FALSE,,,
dig,95,471137,0.0-32.0-0.0,"""event"",""trial"",""time""
""fullscreenenter"",""1"",""1729""
","
","
","""event"",""trial"",""time""
""fullscreenenter"",""1"",""1729""
","
",,,,,,,,,,,,"[{""stimulus"":""run_exp/static/images/task_images/dig.jpg"",""time"":0.20000004768371582},{""stimulus"":""run_exp/static/images/task_images/land.jpg"",""time"":889.9000000357628},{""stimulus"":""run_exp/static/images/task_images/dig.jpg"",""time"":1772.4000000357628}]",[],3,,,,,,,,,,,,,,
harvest,96,472142,0.0-32.0-1.0,"""event"",""trial"",""time""
""fullscreenenter"",""1"",""1729""
","
","
","""event"",""trial"",""time""
""fullscreenenter"",""1"",""1729""
","
",,null,run_exp/static/images/task_images/gems/33.jpg,null,,,,,,,15,,,3,,,,,33,0.446726226,0.454545455,,,,,,,
decision,97,472410,0.0-32.0-2.0,"""event"",""trial"",""time""
""fullscreenenter"",""1"",""1729""
","
","
","""event"",""trial"",""time""
""fullscreenenter"",""1"",""1729""
","
",,266.4,run_exp/static/images/task_images/land.jpg,65,,,,,,,15,,,3,,,,,,,,74038,1,2,FALSE,,,
dig,98,475149,0.0-33.0-0.0,"""event"",""trial"",""time""
""fullscreenenter"",""1"",""1729""
","
","
","""event"",""trial"",""time""
""fullscreenenter"",""1"",""1729""
","
",,,,,,,,,,,,"[{""stimulus"":""run_exp/static/images/task_images/dig.jpg"",""time"":0.10000002384185791},{""stimulus"":""run_exp/static/images/task_images/land.jpg"",""time"":922.8000000119209},{""stimulus"":""run_exp/static/images/task_images/dig.jpg"",""time"":1824.800000011921}]",[],3,,,,,,,,,,,,,,
harvest,99,476159,0.0-33.0-1.0,"""event"",""trial"",""time""
""fullscreenenter"",""1"",""1729""
","
","
","""event"",""trial"",""time""
""fullscreenenter"",""1"",""1729""
","
",,null,run_exp/static/images/task_images/gems/15.jpg,null,,,,,,,8,,,3,,,,,15,0.542599729,0.533333333,,,,,,,
decision,100,476322,0.0-33.0-2.0,"""event"",""trial"",""time""
""fullscreenenter"",""1"",""1729""
","
","
","""event"",""trial"",""time""
""fullscreenenter"",""1"",""1729""
","
",,160.8,run_exp/static/images/task_images/land.jpg,65,,,,,,,8,,,3,,,,,,,,77951,1,3,FALSE,,,
dig,101,479172,0.0-34.0-0.0,"""event"",""trial"",""time""
""fullscreenenter"",""1"",""1729""
","
","
","""event"",""trial"",""time""
""fullscreenenter"",""1"",""1729""
","
",,,,,,,,,,,,"[{""stimulus"":""run_exp/static/images/task_images/dig.jpg"",""time"":0.09999996423721313},{""stimulus"":""run_exp/static/images/task_images/land.jpg"",""time"":954.0999999642372},{""stimulus"":""run_exp/static/images/task_images/dig.jpg"",""time"":1899.800000011921}]",[],3,,,,,,,,,,,,,,
harvest,102,480182,0.0-34.0-1.0,"""event"",""trial"",""time""
""fullscreenenter"",""1"",""1729""
","
","
","""event"",""trial"",""time""
""fullscreenenter"",""1"",""1729""
","
",,null,run_exp/static/images/task_images/gems/8.jpg,null,,,,,,,3,,,3,,,,,8,0.407775843,0.375,,,,,,,
decision,103,480790,0.0-34.0-2.0,"""event"",""trial"",""time""
""fullscreenenter"",""1"",""1729""
","
","
","""event"",""trial"",""time""
""fullscreenenter"",""1"",""1729""
","
",,605.7,run_exp/static/images/task_images/land.jpg,76,,,,,,,3,,,3,,,,,,,,82418,1,4,TRUE,,,
travel,104,490193,0.0-35.0-0.0,"""event"",""trial"",""time""
""fullscreenenter"",""1"",""1729""
","
","
","""event"",""trial"",""time""
""fullscreenenter"",""1"",""1729""
","
",,,,,,,,,,,,"[{""stimulus"":""run_exp/static/images/task_images/rocket-01.jpg"",""time"":0.20000004768371582},{""stimulus"":""run_exp/static/images/task_images/rocket-02.jpg"",""time"":1054.5},{""stimulus"":""run_exp/static/images/task_images/rocket-03.jpg"",""time"":2093.7000000476837},{""stimulus"":""run_exp/static/images/task_images/rocket-04.jpg"",""time"":3132.800000011921},{""stimulus"":""run_exp/static/images/task_images/rocket-05.jpg"",""time"":4183.400000035763},{""stimulus"":""run_exp/static/images/task_images/rocket-06.jpg"",""time"":5222.5},{""stimulus"":""run_exp/static/images/task_images/rocket-07.jpg"",""time"":6267.300000011921},{""stimulus"":""run_exp/static/images/task_images/rocket-08.jpg"",""time"":7311.5},{""stimulus"":""run_exp/static/images/task_images/rocket-09.jpg"",""time"":8351.5}]",[],3,,,,,,,,,,,,,,
alien_welcome,105,495200,0.0-35.0-1.0,"""event"",""trial"",""time""
""fullscreenenter"",""1"",""1729""
","
","
","""event"",""trial"",""time""
""fullscreenenter"",""1"",""1729""
","
",,null,run_exp/static/images/task_images/aliens/old_aliens/planet/alien_planet-78.jpg,null,,,,,,,,,,,,,78,"26,56,60,78,8,59,57,70,21,47,63,65,35,75,38,4,55,58,42,39,76,19,72,7,53,10,51,24,43,73,44,68,9,50,27,77,5,34,2",,,,,,,,,,
land,106,495711,0.0-35.0-2.0,"""event"",""trial"",""time""
""fullscreenenter"",""1"",""1729""
","
","
","""event"",""trial"",""time""
""fullscreenenter"",""1"",""1729""
","
",,null,run_exp/static/images/task_images/land.jpg,null,,,,,,,97,,,4,,,,,,,,,,,,,,
dig,107,497719,0.0-35.0-3.0,"""event"",""trial"",""time""
""fullscreenenter"",""1"",""1729""
","
","
","""event"",""trial"",""time""
""fullscreenenter"",""1"",""1729""
","
",,,,,,,,,,,,"[{""stimulus"":""run_exp/static/images/task_images/dig.jpg"",""time"":0.6000000238418579},{""stimulus"":""run_exp/static/images/task_images/land.jpg"",""time"":676.4000000357628},{""stimulus"":""run_exp/static/images/task_images/dig.jpg"",""time"":1341.4000000357628}]",[],4,,,,,,,,,,,,,,
harvest,108,498729,0.0-35.0-4.0,"""event"",""trial"",""time""
""fullscreenenter"",""1"",""1729""
","
","
","""event"",""trial"",""time""
""fullscreenenter"",""1"",""1729""
","
",,null,run_exp/static/images/task_images/gems/97.jpg,null,,,,,,,46,,,4,,,,,97,0.471810035,0.474226804,,,,,,,
decision,109,498830,0.0-35.0-5.0,"""event"",""trial"",""time""
""fullscreenenter"",""1"",""1729""
","
","
","""event"",""trial"",""time""
""fullscreenenter"",""1"",""1729""
","
",,98.60000002,run_exp/static/images/task_images/land.jpg,65,,,,,,,46,,,4,,,,,,,,100458,1,0,FALSE,,,
dig,110,501742,0.0-36.0-0.0,"""event"",""trial"",""time""
""fullscreenenter"",""1"",""1729""
","
","
","""event"",""trial"",""time""
""fullscreenenter"",""1"",""1729""
","
",,,,,,,,,,,,"[{""stimulus"":""run_exp/static/images/task_images/dig.jpg"",""time"":0.19999998807907104},{""stimulus"":""run_exp/static/images/task_images/land.jpg"",""time"":975.6999999880791},{""stimulus"":""run_exp/static/images/task_images/dig.jpg"",""time"":1942.3999999761581}]",[],4,,,,,,,,,,,,,,
harvest,111,502752,0.0-36.0-1.0,"""event"",""trial"",""time""
""fullscreenenter"",""1"",""1729""
","
","
","""event"",""trial"",""time""
""fullscreenenter"",""1"",""1729""
","
",,null,run_exp/static/images/task_images/gems/46.jpg,null,,,,,,,22,,,4,,,,,46,0.483969252,0.47826087,,,,,,,
decision,112,503609,0.0-36.0-2.0,"""event"",""trial"",""time""
""fullscreenenter"",""1"",""1729""
","
","
","""event"",""trial"",""time""
""fullscreenenter"",""1"",""1729""
","
",,854.8,run_exp/static/images/task_images/land.jpg,65,,,,,,,22,,,4,,,,,,,,105237,1,1,FALSE,,,
dig,113,505766,0.0-37.0-0.0,"""event"",""trial"",""time""
""fullscreenenter"",""1"",""1729""
","
","
","""event"",""trial"",""time""
""fullscreenenter"",""1"",""1729""
","
",,,,,,,,,,,,"[{""stimulus"":""run_exp/static/images/task_images/dig.jpg"",""time"":0.10000002384185791},{""stimulus"":""run_exp/static/images/task_images/land.jpg"",""time"":723.3000000119209},{""stimulus"":""run_exp/static/images/task_images/dig.jpg"",""time"":1432.6000000238419}]",[],4,,,,,,,,,,,,,,
harvest,114,506775,0.0-37.0-1.0,"""event"",""trial"",""time""
""fullscreenenter"",""1"",""1729""
","
","
","""event"",""trial"",""time""
""fullscreenenter"",""1"",""1729""
","
",,null,run_exp/static/images/task_images/gems/22.jpg,null,,,,,,,12,,,4,,,,,22,0.540074019,0.545454545,,,,,,,
decision,115,507006,0.0-37.0-2.0,"""event"",""trial"",""time""
""fullscreenenter"",""1"",""1729""
","
","
","""event"",""trial"",""time""
""fullscreenenter"",""1"",""1729""
","
",,229.1,run_exp/static/images/task_images/land.jpg,65,,,,,,,12,,,4,,,,,,,,108634,1,2,FALSE,,,
dig,116,509782,0.0-38.0-0.0,"""event"",""trial"",""time""
""fullscreenenter"",""1"",""1729""
","
","
","""event"",""trial"",""time""
""fullscreenenter"",""1"",""1729""
","
",,,,,,,,,,,,"[{""stimulus"":""run_exp/static/images/task_images/dig.jpg"",""time"":0.19999998807907104},{""stimulus"":""run_exp/static/images/task_images/land.jpg"",""time"":932.5},{""stimulus"":""run_exp/static/images/task_images/dig.jpg"",""time"":1855.5}]",[],4,,,,,,,,,,,,,,
harvest,117,510792,0.0-38.0-1.0,"""event"",""trial"",""time""
""fullscreenenter"",""1"",""1729""
","
","
","""event"",""trial"",""time""
""fullscreenenter"",""1"",""1729""
","
",,null,run_exp/static/images/task_images/gems/12.jpg,null,,,,,,,6,,,4,,,,,12,0.536839055,0.5,,,,,,,
decision,118,511111,0.0-38.0-2.0,"""event"",""trial"",""time""
""fullscreenenter"",""1"",""1729""
","
","
","""event"",""trial"",""time""
""fullscreenenter"",""1"",""1729""
","
",,316.6,run_exp/static/images/task_images/land.jpg,65,,,,,,,6,,,4,,,,,,,,112739,1,3,FALSE,,,
dig,119,513805,0.0-39.0-0.0,"""event"",""trial"",""time""
""fullscreenenter"",""1"",""1729""
","
","
","""event"",""trial"",""time""
""fullscreenenter"",""1"",""1729""
","
",,,,,,,,,,,,"[{""stimulus"":""run_exp/static/images/task_images/dig.jpg"",""time"":0.19999998807907104},{""stimulus"":""run_exp/static/images/task_images/land.jpg"",""time"":902.3999999761581},{""stimulus"":""run_exp/static/images/task_images/dig.jpg"",""time"":1796.2999999523163}]",[],4,,,,,,,,,,,,,,
harvest,120,514815,0.0-39.0-1.0,"""event"",""trial"",""time""
""fullscreenenter"",""1"",""1729""
","
","
","""event"",""trial"",""time""
""fullscreenenter"",""1"",""1729""
","
",,null,run_exp/static/images/task_images/gems/6.jpg,null,,,,,,,3,,,4,,,,,6,0.541598867,0.5,,,,,,,
decision,121,514959,0.0-39.0-2.0,"""event"",""trial"",""time""
""fullscreenenter"",""1"",""1729""
","
","
","""event"",""trial"",""time""
""fullscreenenter"",""1"",""1729""
","
",,141.9,run_exp/static/images/task_images/land.jpg,76,,,,,,,3,,,4,,,,,,,,116587,1,4,TRUE,,,
travel,122,524823,0.0-40.0-0.0,"""event"",""trial"",""time""
""fullscreenenter"",""1"",""1729""
","
","
","""event"",""trial"",""time""
""fullscreenenter"",""1"",""1729""
","
",,,,,,,,,,,,"[{""stimulus"":""run_exp/static/images/task_images/rocket-01.jpg"",""time"":0.09999996423721313},{""stimulus"":""run_exp/static/images/task_images/rocket-02.jpg"",""time"":1100.3999999761581},{""stimulus"":""run_exp/static/images/task_images/rocket-03.jpg"",""time"":2197.5},{""stimulus"":""run_exp/static/images/task_images/rocket-04.jpg"",""time"":3294.699999988079},{""stimulus"":""run_exp/static/images/task_images/rocket-05.jpg"",""time"":4386},{""stimulus"":""run_exp/static/images/task_images/rocket-06.jpg"",""time"":5483.099999964237},{""stimulus"":""run_exp/static/images/task_images/rocket-07.jpg"",""time"":6580.299999952316},{""stimulus"":""run_exp/static/images/task_images/rocket-08.jpg"",""time"":7677.399999976158},{""stimulus"":""run_exp/static/images/task_images/rocket-09.jpg"",""time"":8762.899999976158}]",[],4,,,,,,,,,,,,,,
alien_welcome,123,529832,0.0-40.0-1.0,"""event"",""trial"",""time""
""fullscreenenter"",""1"",""1729""
","
","
","""event"",""trial"",""time""
""fullscreenenter"",""1"",""1729""
","
",,null,run_exp/static/images/task_images/aliens/old_aliens/planet/alien_planet-8.jpg,null,,,,,,,,,,,,,8,"26,56,60,78,8,59,57,70,21,47,63,65,35,75,38,4,55,58,42,39,76,19,72,7,53,10,51,24,43,73,44,68,9,50,27,77,5,34,2",,,,,,,,,,
land,124,530343,0.0-40.0-2.0,"""event"",""trial"",""time""
""fullscreenenter"",""1"",""1729""
","
","
","""event"",""trial"",""time""
""fullscreenenter"",""1"",""1729""
","
",,null,run_exp/static/images/task_images/land.jpg,null,,,,,,,102,,,5,,,,,,,,,,,,,,
dig,125,532352,0.0-40.0-3.0,"""event"",""trial"",""time""
""fullscreenenter"",""1"",""1729""
","
","
","""event"",""trial"",""time""
""fullscreenenter"",""1"",""1729""
","
",,,,,,,,,,,,"[{""stimulus"":""run_exp/static/images/task_images/dig.jpg"",""time"":0.5},{""stimulus"":""run_exp/static/images/task_images/land.jpg"",""time"":678},{""stimulus"":""run_exp/static/images/task_images/dig.jpg"",""time"":1341.5}]",[],5,,,,,,,,,,,,,,
harvest,126,533361,0.0-40.0-4.0,"""event"",""trial"",""time""
""fullscreenenter"",""1"",""1729""
","
","
","""event"",""trial"",""time""
""fullscreenenter"",""1"",""1729""
","
",,null,run_exp/static/images/task_images/gems/102.jpg,null,,,,,,,49,,,5,,,,,102,0.476686613,0.480392157,,,,,,,
decision,127,533655,0.0-40.0-5.0,"""event"",""trial"",""time""
""fullscreenenter"",""1"",""1729""
","
","
","""event"",""trial"",""time""
""fullscreenenter"",""1"",""1729""
","
",,291.5,run_exp/static/images/task_images/land.jpg,65,,,,,,,49,,,5,,,,,,,,135284,1,0,FALSE,,,
dig,128,536375,0.0-41.0-0.0,"""event"",""trial"",""time""
""fullscreenenter"",""1"",""1729""
","
","
","""event"",""trial"",""time""
""fullscreenenter"",""1"",""1729""
","
",,,,,,,,,,,,"[{""stimulus"":""run_exp/static/images/task_images/dig.jpg"",""time"":0.10000002384185791},{""stimulus"":""run_exp/static/images/task_images/land.jpg"",""time"":910},{""stimulus"":""run_exp/static/images/task_images/dig.jpg"",""time"":1809.9000000357628}]",[],5,,,,,,,,,,,,,,
harvest,129,537385,0.0-41.0-1.0,"""event"",""trial"",""time""
""fullscreenenter"",""1"",""1729""
","
","
","""event"",""trial"",""time""
""fullscreenenter"",""1"",""1729""
","
",,null,run_exp/static/images/task_images/gems/49.jpg,null,,,,,,,25,,,5,,,,,49,0.504668904,0.510204082,,,,,,,
decision,130,537613,0.0-41.0-2.0,"""event"",""trial"",""time""
""fullscreenenter"",""1"",""1729""
","
","
","""event"",""trial"",""time""
""fullscreenenter"",""1"",""1729""
","
",,225.7,run_exp/static/images/task_images/land.jpg,65,,,,,,,25,,,5,,,,,,,,139241,1,1,FALSE,,,
dig,131,540397,0.0-42.0-0.0,"""event"",""trial"",""time""
""fullscreenenter"",""1"",""1729""
","
","
","""event"",""trial"",""time""
""fullscreenenter"",""1"",""1729""
","
",,,,,,,,,,,,"[{""stimulus"":""run_exp/static/images/task_images/dig.jpg"",""time"":0.09999996423721313},{""stimulus"":""run_exp/static/images/task_images/land.jpg"",""time"":935.1999999880791},{""stimulus"":""run_exp/static/images/task_images/dig.jpg"",""time"":1852.5999999642372}]",[],5,,,,,,,,,,,,,,
harvest,132,541407,0.0-42.0-1.0,"""event"",""trial"",""time""
""fullscreenenter"",""1"",""1729""
","
","
","""event"",""trial"",""time""
""fullscreenenter"",""1"",""1729""
","
",,null,run_exp/static/images/task_images/gems/25.jpg,null,,,,,,,12,,,5,,,,,25,0.473521984,0.48,,,,,,,
decision,133,541737,0.0-42.0-2.0,"""event"",""trial"",""time""
""fullscreenenter"",""1"",""1729""
","
","
","""event"",""trial"",""time""
""fullscreenenter"",""1"",""1729""
","
",,327.7,run_exp/static/images/task_images/land.jpg,65,,,,,,,12,,,5,,,,,,,,143365,1,2,FALSE,,,
dig,134,544414,0.0-43.0-0.0,"""event"",""trial"",""time""
""fullscreenenter"",""1"",""1729""
","
","
","""event"",""trial"",""time""
""fullscreenenter"",""1"",""1729""
","
",,,,,,,,,,,,"[{""stimulus"":""run_exp/static/images/task_images/dig.jpg"",""time"":0.10000002384185791},{""stimulus"":""run_exp/static/images/task_images/land.jpg"",""time"":897.6000000238419},{""stimulus"":""run_exp/static/images/task_images/dig.jpg"",""time"":1784.800000011921}]",[],5,,,,,,,,,,,,,,
harvest,135,545420,0.0-43.0-1.0,"""event"",""trial"",""time""
""fullscreenenter"",""1"",""1729""
","
","
","""event"",""trial"",""time""
""fullscreenenter"",""1"",""1729""
","
",,null,run_exp/static/images/task_images/gems/12.jpg,null,,,,,,,6,,,5,,,,,12,0.53364275,0.5,,,,,,,
decision,136,545563,0.0-43.0-2.0,"""event"",""trial"",""time""
""fullscreenenter"",""1"",""1729""
","
","
","""event"",""trial"",""time""
""fullscreenenter"",""1"",""1729""
","
",,140.4,run_exp/static/images/task_images/land.jpg,76,,,,,,,6,,,5,,,,,,,,147191,1,3,TRUE,,,
travel,137,555432,0.0-44.0-0.0,"""event"",""trial"",""time""
""fullscreenenter"",""1"",""1729""
","
","
","""event"",""trial"",""time""
""fullscreenenter"",""1"",""1729""
","
",,,,,,,,,,,,"[{""stimulus"":""run_exp/static/images/task_images/rocket-01.jpg"",""time"":0.10000002384185791},{""stimulus"":""run_exp/static/images/task_images/rocket-02.jpg"",""time"":1104.6000000238419},{""stimulus"":""run_exp/static/images/task_images/rocket-03.jpg"",""time"":2198.5},{""stimulus"":""run_exp/static/images/task_images/rocket-04.jpg"",""time"":3294.100000023842},{""stimulus"":""run_exp/static/images/task_images/rocket-05.jpg"",""time"":4385.5},{""stimulus"":""run_exp/static/images/task_images/rocket-06.jpg"",""time"":5482.399999976158},{""stimulus"":""run_exp/static/images/task_images/rocket-07.jpg"",""time"":6574.100000023842},{""stimulus"":""run_exp/static/images/task_images/rocket-08.jpg"",""time"":7671.100000023842},{""stimulus"":""run_exp/static/images/task_images/rocket-09.jpg"",""time"":8769.199999988079}]",[],5,,,,,,,,,,,,,,
alien_welcome,138,560441,0.0-44.0-1.0,"""event"",""trial"",""time""
""fullscreenenter"",""1"",""1729""
","
","
","""event"",""trial"",""time""
""fullscreenenter"",""1"",""1729""
","
",,null,run_exp/static/images/task_images/aliens/old_aliens/planet/alien_planet-59.jpg,null,,,,,,,,,,,,,59,"26,56,60,78,8,59,57,70,21,47,63,65,35,75,38,4,55,58,42,39,76,19,72,7,53,10,51,24,43,73,44,68,9,50,27,77,5,34,2",,,,,,,,,,
land,139,560953,0.0-44.0-2.0,"""event"",""trial"",""time""
""fullscreenenter"",""1"",""1729""
","
","
","""event"",""trial"",""time""
""fullscreenenter"",""1"",""1729""
","
",,null,run_exp/static/images/task_images/land.jpg,null,,,,,,,99,,,6,,,,,,,,,,,,,,
dig,140,562967,0.0-44.0-3.0,"""event"",""trial"",""time""
""fullscreenenter"",""1"",""1729""
","
","
","""event"",""trial"",""time""
""fullscreenenter"",""1"",""1729""
","
",,,,,,,,,,,,"[{""stimulus"":""run_exp/static/images/task_images/dig.jpg"",""time"":0.5},{""stimulus"":""run_exp/static/images/task_images/land.jpg"",""time"":677.1999999880791},{""stimulus"":""run_exp/static/images/task_images/dig.jpg"",""time"":1338.8999999761581}]",[],6,,,,,,,,,,,,,,
harvest,141,563977,0.0-44.0-4.0,"""event"",""trial"",""time""
""fullscreenenter"",""1"",""1729""
","
","
","""event"",""trial"",""time""
""fullscreenenter"",""1"",""1729""
","
",,null,run_exp/static/images/task_images/gems/99.jpg,null,,,,,,,74,,,6,,,,,99,0.74306716,0.747474747,,,,,,,
decision,142,564286,0.0-44.0-5.0,"""event"",""trial"",""time""
""fullscreenenter"",""1"",""1729""
","
","
","""event"",""trial"",""time""
""fullscreenenter"",""1"",""1729""
","
",,306.5,run_exp/static/images/task_images/land.jpg,65,,,,,,,74,,,6,,,,,,,,165914,1,0,FALSE,,,
dig,143,566990,0.0-45.0-0.0,"""event"",""trial"",""time""
""fullscreenenter"",""1"",""1729""
","
","
","""event"",""trial"",""time""
""fullscreenenter"",""1"",""1729""
","
",,,,,,,,,,,,"[{""stimulus"":""run_exp/static/images/task_images/dig.jpg"",""time"":0.19999998807907104},{""stimulus"":""run_exp/static/images/task_images/land.jpg"",""time"":905.8999999761581},{""stimulus"":""run_exp/static/images/task_images/dig.jpg"",""time"":1805.699999988079}]",[],6,,,,,,,,,,,,,,
harvest,144,568000,0.0-45.0-1.0,"""event"",""trial"",""time""
""fullscreenenter"",""1"",""1729""
","
","
","""event"",""trial"",""time""
""fullscreenenter"",""1"",""1729""
","
",,null,run_exp/static/images/task_images/gems/74.jpg,null,,,,,,,63,,,6,,,,,74,0.851128708,0.851351351,,,,,,,
decision,145,568394,0.0-45.0-2.0,"""event"",""trial"",""time""
""fullscreenenter"",""1"",""1729""
","
","
","""event"",""trial"",""time""
""fullscreenenter"",""1"",""1729""
","
",,391,run_exp/static/images/task_images/land.jpg,65,,,,,,,63,,,6,,,,,,,,170022,1,1,FALSE,,,
dig,146,571013,0.0-46.0-0.0,"""event"",""trial"",""time""
""fullscreenenter"",""1"",""1729""
","
","
","""event"",""trial"",""time""
""fullscreenenter"",""1"",""1729""
","
",,,,,,,,,,,,"[{""stimulus"":""run_exp/static/images/task_images/dig.jpg"",""time"":0.19999998807907104},{""stimulus"":""run_exp/static/images/task_images/land.jpg"",""time"":874.1999999880791},{""stimulus"":""run_exp/static/images/task_images/dig.jpg"",""time"":1744.800000011921}]",[],6,,,,,,,,,,,,,,
harvest,147,572023,0.0-46.0-1.0,"""event"",""trial"",""time""
""fullscreenenter"",""1"",""1729""
","
","
","""event"",""trial"",""time""
""fullscreenenter"",""1"",""1729""
","
",,null,run_exp/static/images/task_images/gems/63.jpg,null,,,,,,,48,,,6,,,,,63,0.764465807,0.761904762,,,,,,,
decision,148,572569,0.0-46.0-2.0,"""event"",""trial"",""time""
""fullscreenenter"",""1"",""1729""
","
","
","""event"",""trial"",""time""
""fullscreenenter"",""1"",""1729""
","
",,543.2,run_exp/static/images/task_images/land.jpg,65,,,,,,,48,,,6,,,,,,,,174197,1,2,FALSE,,,
dig,149,575030,0.0-47.0-0.0,"""event"",""trial"",""time""
""fullscreenenter"",""1"",""1729""
","
","
","""event"",""trial"",""time""
""fullscreenenter"",""1"",""1729""
","
",,,,,,,,,,,,"[{""stimulus"":""run_exp/static/images/task_images/dig.jpg"",""time"":0.30000001192092896},{""stimulus"":""run_exp/static/images/task_images/land.jpg"",""time"":826.3999999761581},{""stimulus"":""run_exp/static/images/task_images/dig.jpg"",""time"":1644.800000011921}]",[],6,,,,,,,,,,,,,,
harvest,150,576040,0.0-47.0-1.0,"""event"",""trial"",""time""
""fullscreenenter"",""1"",""1729""
","
","
","""event"",""trial"",""time""
""fullscreenenter"",""1"",""1729""
","
",,null,run_exp/static/images/task_images/gems/48.jpg,null,,,,,,,38,,,6,,,,,48,0.791348029,0.791666667,,,,,,,
decision,151,576713,0.0-47.0-2.0,"""event"",""trial"",""time""
""fullscreenenter"",""1"",""1729""
","
","
","""event"",""trial"",""time""
""fullscreenenter"",""1"",""1729""
","
",,670.8,run_exp/static/images/task_images/land.jpg,65,,,,,,,38,,,6,,,,,,,,178341,1,3,FALSE,,,
dig,152,579047,0.0-48.0-0.0,"""event"",""trial"",""time""
""fullscreenenter"",""1"",""1729""
","
","
","""event"",""trial"",""time""
""fullscreenenter"",""1"",""1729""
","
",,,,,,,,,,,,"[{""stimulus"":""run_exp/static/images/task_images/dig.jpg"",""time"":0.10000002384185791},{""stimulus"":""run_exp/static/images/task_images/land.jpg"",""time"":778.7000000476837},{""stimulus"":""run_exp/static/images/task_images/dig.jpg"",""time"":1555.300000011921}]",[],6,,,,,,,,,,,,,,
harvest,153,580057,0.0-48.0-1.0,"""event"",""trial"",""time""
""fullscreenenter"",""1"",""1729""
","
","
","""event"",""trial"",""time""
""fullscreenenter"",""1"",""1729""
","
",,null,run_exp/static/images/task_images/gems/38.jpg,null,,,,,,,34,,,6,,,,,38,0.905961455,0.894736842,,,,,,,
decision,154,580552,0.0-48.0-2.0,"""event"",""trial"",""time""
""fullscreenenter"",""1"",""1729""
","
","
","""event"",""trial"",""time""
""fullscreenenter"",""1"",""1729""
","
",,492.9,run_exp/static/images/task_images/land.jpg,65,,,,,,,34,,,6,,,,,,,,182181,1,4,FALSE,,,
dig,155,583070,0.0-49.0-0.0,"""event"",""trial"",""time""
""fullscreenenter"",""1"",""1729""
","
","
","""event"",""trial"",""time""
""fullscreenenter"",""1"",""1729""
","
",,,,,,,,,,,,"[{""stimulus"":""run_exp/static/images/task_images/dig.jpg"",""time"":0.20000004768371582},{""stimulus"":""run_exp/static/images/task_images/land.jpg"",""time"":841.7000000476837},{""stimulus"":""run_exp/static/images/task_images/dig.jpg"",""time"":1677.5}]",[],6,,,,,,,,,,,,,,
harvest,156,584080,0.0-49.0-1.0,"""event"",""trial"",""time""
""fullscreenenter"",""1"",""1729""
","
","
","""event"",""trial"",""time""
""fullscreenenter"",""1"",""1729""
","
",,null,run_exp/static/images/task_images/gems/34.jpg,null,,,,,,,27,,,6,,,,,34,0.784742473,0.794117647,,,,,,,
decision,157,584991,0.0-49.0-2.0,"""event"",""trial"",""time""
""fullscreenenter"",""1"",""1729""
","
","
","""event"",""trial"",""time""
""fullscreenenter"",""1"",""1729""
","
",,909.4,run_exp/static/images/task_images/land.jpg,65,,,,,,,27,,,6,,,,,,,,186619,1,5,FALSE,,,
dig,158,587087,0.0-50.0-0.0,"""event"",""trial"",""time""
""fullscreenenter"",""1"",""1729""
","
","
","""event"",""trial"",""time""
""fullscreenenter"",""1"",""1729""
","
",,,,,,,,,,,,"[{""stimulus"":""run_exp/static/images/task_images/dig.jpg"",""time"":0.19999998807907104},{""stimulus"":""run_exp/static/images/task_images/land.jpg"",""time"":698.5},{""stimulus"":""run_exp/static/images/task_images/dig.jpg"",""time"":1395.199999988079}]",[],6,,,,,,,,,,,,,,
harvest,159,588097,0.0-50.0-1.0,"""event"",""trial"",""time""
""fullscreenenter"",""1"",""1729""
","
","
","""event"",""trial"",""time""
""fullscreenenter"",""1"",""1729""
","
",,null,run_exp/static/images/task_images/gems/27.jpg,null,,,,,,,23,,,6,,,,,27,0.869542297,0.851851852,,,,,,,
decision,160,588255,0.0-50.0-2.0,"""event"",""trial"",""time""
""fullscreenenter"",""1"",""1729""
","
","
","""event"",""trial"",""time""
""fullscreenenter"",""1"",""1729""
","
",,156.8,run_exp/static/images/task_images/land.jpg,65,,,,,,,23,,,6,,,,,,,,189883,1,6,FALSE,,,
dig,161,591104,0.0-51.0-0.0,"""event"",""trial"",""time""
""fullscreenenter"",""1"",""1729""
","
","
","""event"",""trial"",""time""
""fullscreenenter"",""1"",""1729""
","
",,,,,,,,,,,,"[{""stimulus"":""run_exp/static/images/task_images/dig.jpg"",""time"":0.19999998807907104},{""stimulus"":""run_exp/static/images/task_images/land.jpg"",""time"":956.1999999880791},{""stimulus"":""run_exp/static/images/task_images/dig.jpg"",""time"":1900.699999988079}]",[],6,,,,,,,,,,,,,,
harvest,162,592109,0.0-51.0-1.0,"""event"",""trial"",""time""
""fullscreenenter"",""1"",""1729""
","
","
","""event"",""trial"",""time""
""fullscreenenter"",""1"",""1729""
","
",,null,run_exp/static/images/task_images/gems/23.jpg,null,,,,,,,18,,,6,,,,,23,0.763574357,0.782608696,,,,,,,
decision,163,594037,0.0-51.0-2.0,"""event"",""trial"",""time""
""fullscreenenter"",""1"",""1729""
","
","
","""event"",""trial"",""time""
""fullscreenenter"",""1"",""1729""
","
",,1925.8,run_exp/static/images/task_images/land.jpg,65,,,,,,,18,,,6,,,,,,,,195665,1,7,FALSE,,,
dig,164,595127,0.0-52.0-0.0,"""event"",""trial"",""time""
""fullscreenenter"",""1"",""1729""
","
","
","""event"",""trial"",""time""
""fullscreenenter"",""1"",""1729""
","
",,,,,,,,,,,,"[{""stimulus"":""run_exp/static/images/task_images/dig.jpg"",""time"":0.20000004768371582},{""stimulus"":""run_exp/static/images/task_images/land.jpg"",""time"":365.7000000476837},{""stimulus"":""run_exp/static/images/task_images/dig.jpg"",""time"":724.7000000476837}]",[],6,,,,,,,,,,,,,,
harvest,165,596136,0.0-52.0-1.0,"""event"",""trial"",""time""
""fullscreenenter"",""1"",""1729""
","
","
","""event"",""trial"",""time""
""fullscreenenter"",""1"",""1729""
","
",,null,run_exp/static/images/task_images/gems/18.jpg,null,,,,,,,14,,,6,,,,,18,0.752692553,0.777777778,,,,,,,
decision,166,596426,0.0-52.0-2.0,"""event"",""trial"",""time""
""fullscreenenter"",""1"",""1729""
","
","
","""event"",""trial"",""time""
""fullscreenenter"",""1"",""1729""
","
",,288.2,run_exp/static/images/task_images/land.jpg,65,,,,,,,14,,,6,,,,,,,,198054,1,8,FALSE,,,
dig,167,599144,0.0-53.0-0.0,"""event"",""trial"",""time""
""fullscreenenter"",""1"",""1729""
","
","
","""event"",""trial"",""time""
""fullscreenenter"",""1"",""1729""
","
",,,,,,,,,,,,"[{""stimulus"":""run_exp/static/images/task_images/dig.jpg"",""time"":0.10000002384185791},{""stimulus"":""run_exp/static/images/task_images/land.jpg"",""time"":915},{""stimulus"":""run_exp/static/images/task_images/dig.jpg"",""time"":1816}]",[],6,,,,,,,,,,,,,,
harvest,168,600150,0.0-53.0-1.0,"""event"",""trial"",""time""
""fullscreenenter"",""1"",""1729""
","
","
","""event"",""trial"",""time""
""fullscreenenter"",""1"",""1729""
","
",,null,run_exp/static/images/task_images/gems/14.jpg,null,,,,,,,12,,,6,,,,,14,0.836091421,0.857142857,,,,,,,
decision,169,600464,0.0-53.0-2.0,"""event"",""trial"",""time""
""fullscreenenter"",""1"",""1729""
","
","
","""event"",""trial"",""time""
""fullscreenenter"",""1"",""1729""
","
",,311.8,run_exp/static/images/task_images/land.jpg,65,,,,,,,12,,,6,,,,,,,,202092,1,9,FALSE,,,
dig,170,603161,0.0-54.0-0.0,"""event"",""trial"",""time""
""fullscreenenter"",""1"",""1729""
","
","
","""event"",""trial"",""time""
""fullscreenenter"",""1"",""1729""
","
",,,,,,,,,,,,"[{""stimulus"":""run_exp/static/images/task_images/dig.jpg"",""time"":0.10000002384185791},{""stimulus"":""run_exp/static/images/task_images/land.jpg"",""time"":901.1000000238419},{""stimulus"":""run_exp/static/images/task_images/dig.jpg"",""time"":1795.1000000238419}]",[],6,,,,,,,,,,,,,,
harvest,171,604165,0.0-54.0-1.0,"""event"",""trial"",""time""
""fullscreenenter"",""1"",""1729""
","
","
","""event"",""trial"",""time""
""fullscreenenter"",""1"",""1729""
","
",,null,run_exp/static/images/task_images/gems/12.jpg,null,,,,,,,10,,,6,,,,,12,0.844745583,0.833333333,,,,,,,
decision,172,604292,0.0-54.0-2.0,"""event"",""trial"",""time""
""fullscreenenter"",""1"",""1729""
","
","
","""event"",""trial"",""time""
""fullscreenenter"",""1"",""1729""
","
",,125.1,run_exp/static/images/task_images/land.jpg,65,,,,,,,10,,,6,,,,,,,,205920,1,10,FALSE,,,
dig,173,607173,0.0-55.0-0.0,"""event"",""trial"",""time""
""fullscreenenter"",""1"",""1729""
","
","
","""event"",""trial"",""time""
""fullscreenenter"",""1"",""1729""
","
",,,,,,,,,,,,"[{""stimulus"":""run_exp/static/images/task_images/dig.jpg"",""time"":0.30000001192092896},{""stimulus"":""run_exp/static/images/task_images/land.jpg"",""time"":966.1999999880791},{""stimulus"":""run_exp/static/images/task_images/dig.jpg"",""time"":1929}]",[],6,,,,,,,,,,,,,,
harvest,174,608181,0.0-55.0-1.0,"""event"",""trial"",""time""
""fullscreenenter"",""1"",""1729""
","
","
","""event"",""trial"",""time""
""fullscreenenter"",""1"",""1729""
","
",,null,run_exp/static/images/task_images/gems/10.jpg,null,,,,,,,9,,,6,,,,,10,0.873820675,0.9,,,,,,,
decision,175,608407,0.0-55.0-2.0,"""event"",""trial"",""time""
""fullscreenenter"",""1"",""1729""
","
","
","""event"",""trial"",""time""
""fullscreenenter"",""1"",""1729""
","
",,223.6,run_exp/static/images/task_images/land.jpg,76,,,,,,,9,,,6,,,,,,,,210035,1,11,TRUE,,,
travel,176,618189,0.0-56.0-0.0,"""event"",""trial"",""time""
""fullscreenenter"",""1"",""1729""
","
","
","""event"",""trial"",""time""
""fullscreenenter"",""1"",""1729""
","
",,,,,,,,,,,,"[{""stimulus"":""run_exp/static/images/task_images/rocket-01.jpg"",""time"":0.19999998807907104},{""stimulus"":""run_exp/static/images/task_images/rocket-02.jpg"",""time"":1093.1000000238419},{""stimulus"":""run_exp/static/images/task_images/rocket-03.jpg"",""time"":2181.300000011921},{""stimulus"":""run_exp/static/images/task_images/rocket-04.jpg"",""time"":3266.699999988079},{""stimulus"":""run_exp/static/images/task_images/rocket-05.jpg"",""time"":4346.5},{""stimulus"":""run_exp/static/images/task_images/rocket-06.jpg"",""time"":5437.900000035763},{""stimulus"":""run_exp/static/images/task_images/rocket-07.jpg"",""time"":6525.400000035763},{""stimulus"":""run_exp/static/images/task_images/rocket-08.jpg"",""time"":7614.699999988079},{""stimulus"":""run_exp/static/images/task_images/rocket-09.jpg"",""time"":8694.600000023842}]",[],6,,,,,,,,,,,,,,
alien_welcome,177,623200,0.0-56.0-1.0,"""event"",""trial"",""time""
""fullscreenenter"",""1"",""1729""
","
","
","""event"",""trial"",""time""
""fullscreenenter"",""1"",""1729""
","
",,null,run_exp/static/images/task_images/aliens/old_aliens/planet/alien_planet-57.jpg,null,,,,,,,,,,,,,57,"26,56,60,78,8,59,57,70,21,47,63,65,35,75,38,4,55,58,42,39,76,19,72,7,53,10,51,24,43,73,44,68,9,50,27,77,5,34,2",,,,,,,,,,
land,178,623711,0.0-56.0-2.0,"""event"",""trial"",""time""
""fullscreenenter"",""1"",""1729""
","
","
","""event"",""trial"",""time""
""fullscreenenter"",""1"",""1729""
","
",,null,run_exp/static/images/task_images/land.jpg,null,,,,,,,104,,,7,,,,,,,,,,,,,,
dig,179,625719,0.0-56.0-3.0,"""event"",""trial"",""time""
""fullscreenenter"",""1"",""1729""
","
","
","""event"",""trial"",""time""
""fullscreenenter"",""1"",""1729""
","
",,,,,,,,,,,,"[{""stimulus"":""run_exp/static/images/task_images/dig.jpg"",""time"":0.3999999761581421},{""stimulus"":""run_exp/static/images/task_images/land.jpg"",""time"":676.5999999642372},{""stimulus"":""run_exp/static/images/task_images/dig.jpg"",""time"":1341.3999999761581}]",[],7,,,,,,,,,,,,,,
harvest,180,626729,0.0-56.0-4.0,"""event"",""trial"",""time""
""fullscreenenter"",""1"",""1729""
","
","
","""event"",""trial"",""time""
""fullscreenenter"",""1"",""1729""
","
",,null,run_exp/static/images/task_images/gems/104.jpg,null,,,,,,,91,,,7,,,,,104,0.870299742,0.875,,,,,,,
decision,181,627020,0.0-56.0-5.0,"""event"",""trial"",""time""
""fullscreenenter"",""1"",""1729""
","
","
","""event"",""trial"",""time""
""fullscreenenter"",""1"",""1729""
","
",,288.3,run_exp/static/images/task_images/land.jpg,65,,,,,,,91,,,7,,,,,,,,228648,1,0,FALSE,,,
dig,182,629742,0.0-57.0-0.0,"""event"",""trial"",""time""
""fullscreenenter"",""1"",""1729""
","
","
","""event"",""trial"",""time""
""fullscreenenter"",""1"",""1729""
","
",,,,,,,,,,,,"[{""stimulus"":""run_exp/static/images/task_images/dig.jpg"",""time"":0.19999998807907104},{""stimulus"":""run_exp/static/images/task_images/land.jpg"",""time"":913.1999999880791},{""stimulus"":""run_exp/static/images/task_images/dig.jpg"",""time"":1813.199999988079}]",[],7,,,,,,,,,,,,,,
harvest,183,630752,0.0-57.0-1.0,"""event"",""trial"",""time""
""fullscreenenter"",""1"",""1729""
","
","
","""event"",""trial"",""time""
""fullscreenenter"",""1"",""1729""
","
",,null,run_exp/static/images/task_images/gems/91.jpg,null,,,,,,,71,,,7,,,,,91,0.781972484,0.78021978,,,,,,,
decision,184,630859,0.0-57.0-2.0,"""event"",""trial"",""time""
""fullscreenenter"",""1"",""1729""
","
","
","""event"",""trial"",""time""
""fullscreenenter"",""1"",""1729""
","
",,104.5,run_exp/static/images/task_images/land.jpg,65,,,,,,,71,,,7,,,,,,,,232487,1,1,FALSE,,,
dig,185,633769,0.0-58.0-0.0,"""event"",""trial"",""time""
""fullscreenenter"",""1"",""1729""
","
","
","""event"",""trial"",""time""
""fullscreenenter"",""1"",""1729""
","
",,,,,,,,,,,,"[{""stimulus"":""run_exp/static/images/task_images/dig.jpg"",""time"":0.09999996423721313},{""stimulus"":""run_exp/static/images/task_images/land.jpg"",""time"":974.8000000119209},{""stimulus"":""run_exp/static/images/task_images/dig.jpg"",""time"":1938.5999999642372}]",[],7,,,,,,,,,,,,,,
harvest,186,634775,0.0-58.0-1.0,"""event"",""trial"",""time""
""fullscreenenter"",""1"",""1729""
","
","
","""event"",""trial"",""time""
""fullscreenenter"",""1"",""1729""
","
",,null,run_exp/static/images/task_images/gems/71.jpg,null,,,,,,,56,,,7,,,,,71,0.786704484,0.788732394,,,,,,,
decision,187,635438,0.0-58.0-2.0,"""event"",""trial"",""time""
""fullscreenenter"",""1"",""1729""
","
","
","""event"",""trial"",""time""
""fullscreenenter"",""1"",""1729""
","
",,660.7,run_exp/static/images/task_images/land.jpg,65,,,,,,,56,,,7,,,,,,,,237066,1,2,FALSE,,,
dig,188,637793,0.0-59.0-0.0,"""event"",""trial"",""time""
""fullscreenenter"",""1"",""1729""
","
","
","""event"",""trial"",""time""
""fullscreenenter"",""1"",""1729""
","
",,,,,,,,,,,,"[{""stimulus"":""run_exp/static/images/task_images/dig.jpg"",""time"":0.19999998807907104},{""stimulus"":""run_exp/static/images/task_images/land.jpg"",""time"":788.8000000119209},{""stimulus"":""run_exp/static/images/task_images/dig.jpg"",""time"":1566.6000000238419}]",[],7,,,,,,,,,,,,,,
harvest,189,638798,0.0-59.0-1.0,"""event"",""trial"",""time""
""fullscreenenter"",""1"",""1729""
","
","
","""event"",""trial"",""time""
""fullscreenenter"",""1"",""1729""
","
",,null,run_exp/static/images/task_images/gems/56.jpg,null,,,,,,,43,,,7,,,,,56,0.773379181,0.767857143,,,,,,,
decision,190,638953,0.0-59.0-2.0,"""event"",""trial"",""time""
""fullscreenenter"",""1"",""1729""
","
","
","""event"",""trial"",""time""
""fullscreenenter"",""1"",""1729""
","
",,152.5,run_exp/static/images/task_images/land.jpg,65,,,,,,,43,,,7,,,,,,,,240581,1,3,FALSE,,,
dig,191,641805,0.0-60.0-0.0,"""event"",""trial"",""time""
""fullscreenenter"",""1"",""1729""
","
","
","""event"",""trial"",""time""
""fullscreenenter"",""1"",""1729""
","
",,,,,,,,,,,,"[{""stimulus"":""run_exp/static/images/task_images/dig.jpg"",""time"":0.09999996423721313},{""stimulus"":""run_exp/static/images/task_images/land.jpg"",""time"":956.7999999523163},{""stimulus"":""run_exp/static/images/task_images/dig.jpg"",""time"":1908.8999999761581}]",[],7,,,,,,,,,,,,,,
harvest,192,642815,0.0-60.0-1.0,"""event"",""trial"",""time""
""fullscreenenter"",""1"",""1729""
","
","
","""event"",""trial"",""time""
""fullscreenenter"",""1"",""1729""
","
",,null,run_exp/static/images/task_images/gems/43.jpg,null,,,,,,,35,,,7,,,,,43,0.815715065,0.813953488,,,,,,,
decision,193,643248,0.0-60.0-2.0,"""event"",""trial"",""time""
""fullscreenenter"",""1"",""1729""
","
","
","""event"",""trial"",""time""
""fullscreenenter"",""1"",""1729""
","
",,430.5,run_exp/static/images/task_images/land.jpg,65,,,,,,,35,,,7,,,,,,,,244876,1,4,FALSE,,,
dig,194,645833,0.0-61.0-0.0,"""event"",""trial"",""time""
""fullscreenenter"",""1"",""1729""
","
","
","""event"",""trial"",""time""
""fullscreenenter"",""1"",""1729""
","
",,,,,,,,,,,,"[{""stimulus"":""run_exp/static/images/task_images/dig.jpg"",""time"":0.19999998807907104},{""stimulus"":""run_exp/static/images/task_images/land.jpg"",""time"":858},{""stimulus"":""run_exp/static/images/task_images/dig.jpg"",""time"":1722.300000011921}]",[],7,,,,,,,,,,,,,,
harvest,195,646839,0.0-61.0-1.0,"""event"",""trial"",""time""
""fullscreenenter"",""1"",""1729""
","
","
","""event"",""trial"",""time""
""fullscreenenter"",""1"",""1729""
","
",,null,run_exp/static/images/task_images/gems/35.jpg,null,,,,,,,29,,,7,,,,,35,0.820589921,0.828571429,,,,,,,
decision,196,646907,0.0-61.0-2.0,"""event"",""trial"",""time""
""fullscreenenter"",""1"",""1729""
","
","
","""event"",""trial"",""time""
""fullscreenenter"",""1"",""1729""
","
",,65.29999995,run_exp/static/images/task_images/land.jpg,65,,,,,,,29,,,7,,,,,,,,248535,1,5,FALSE,,,
dig,197,649856,0.0-62.0-0.0,"""event"",""trial"",""time""
""fullscreenenter"",""1"",""1729""
","
","
","""event"",""trial"",""time""
""fullscreenenter"",""1"",""1729""
","
",,,,,,,,,,,,"[{""stimulus"":""run_exp/static/images/task_images/dig.jpg"",""time"":0.19999998807907104},{""stimulus"":""run_exp/static/images/task_images/land.jpg"",""time"":983.1000000238419},{""stimulus"":""run_exp/static/images/task_images/dig.jpg"",""time"":1969.9000000357628}]",[],7,,,,,,,,,,,,,,
harvest,198,650861,0.0-62.0-1.0,"""event"",""trial"",""time""
""fullscreenenter"",""1"",""1729""
","
","
","""event"",""trial"",""time""
""fullscreenenter"",""1"",""1729""
","
",,null,run_exp/static/images/task_images/gems/29.jpg,null,,,,,,,23,,,7,,,,,29,0.798012542,0.793103448,,,,,,,
decision,199,651051,0.0-62.0-2.0,"""event"",""trial"",""time""
""fullscreenenter"",""1"",""1729""
","
","
","""event"",""trial"",""time""
""fullscreenenter"",""1"",""1729""
","
",,188.9,run_exp/static/images/task_images/land.jpg,65,,,,,,,23,,,7,,,,,,,,252680,1,6,FALSE,,,
dig,200,653873,0.0-63.0-0.0,"""event"",""trial"",""time""
""fullscreenenter"",""1"",""1729""
","
","
","""event"",""trial"",""time""
""fullscreenenter"",""1"",""1729""
","
",,,,,,,,,,,,"[{""stimulus"":""run_exp/static/images/task_images/dig.jpg"",""time"":0.19999998807907104},{""stimulus"":""run_exp/static/images/task_images/land.jpg"",""time"":943.1000000238419},{""stimulus"":""run_exp/static/images/task_images/dig.jpg"",""time"":1877.699999988079}]",[],7,,,,,,,,,,,,,,
harvest,201,654877,0.0-63.0-1.0,"""event"",""trial"",""time""
""fullscreenenter"",""1"",""1729""
","
","
","""event"",""trial"",""time""
""fullscreenenter"",""1"",""1729""
","
",,null,run_exp/static/images/task_images/gems/23.jpg,null,,,,,,,17,,,7,,,,,23,0.726011194,0.739130435,,,,,,,
decision,202,654973,0.0-63.0-2.0,"""event"",""trial"",""time""
""fullscreenenter"",""1"",""1729""
","
","
","""event"",""trial"",""time""
""fullscreenenter"",""1"",""1729""
","
",,93.69999999,run_exp/static/images/task_images/land.jpg,65,,,,,,,17,,,7,,,,,,,,256601,1,7,FALSE,,,
dig,203,657885,0.0-64.0-0.0,"""event"",""trial"",""time""
""fullscreenenter"",""1"",""1729""
","
","
","""event"",""trial"",""time""
""fullscreenenter"",""1"",""1729""
","
",,,,,,,,,,,,"[{""stimulus"":""run_exp/static/images/task_images/dig.jpg"",""time"":0.10000002384185791},{""stimulus"":""run_exp/static/images/task_images/land.jpg"",""time"":974.8000000119209},{""stimulus"":""run_exp/static/images/task_images/dig.jpg"",""time"":1944.5}]",[],7,,,,,,,,,,,,,,
harvest,204,658895,0.0-64.0-1.0,"""event"",""trial"",""time""
""fullscreenenter"",""1"",""1729""
","
","
","""event"",""trial"",""time""
""fullscreenenter"",""1"",""1729""
","
",,null,run_exp/static/images/task_images/gems/17.jpg,null,,,,,,,14,,,7,,,,,17,0.827527888,0.823529412,,,,,,,
decision,205,659143,0.0-64.0-2.0,"""event"",""trial"",""time""
""fullscreenenter"",""1"",""1729""
","
","
","""event"",""trial"",""time""
""fullscreenenter"",""1"",""1729""
","
",,245.5,run_exp/static/images/task_images/land.jpg,65,,,,,,,14,,,7,,,,,,,,260771,1,8,FALSE,,,
dig,206,661913,0.0-65.0-0.0,"""event"",""trial"",""time""
""fullscreenenter"",""1"",""1729""
","
","
","""event"",""trial"",""time""
""fullscreenenter"",""1"",""1729""
","
",,,,,,,,,,,,"[{""stimulus"":""run_exp/static/images/task_images/dig.jpg"",""time"":0.19999998807907104},{""stimulus"":""run_exp/static/images/task_images/land.jpg"",""time"":925.5999999642372},{""stimulus"":""run_exp/static/images/task_images/dig.jpg"",""time"":1843.5}]",[],7,,,,,,,,,,,,,,
harvest,207,662918,0.0-65.0-1.0,"""event"",""trial"",""time""
""fullscreenenter"",""1"",""1729""
","
","
","""event"",""trial"",""time""
""fullscreenenter"",""1"",""1729""
","
",,null,run_exp/static/images/task_images/gems/14.jpg,null,,,,,,,12,,,7,,,,,14,0.830667185,0.857142857,,,,,,,
decision,208,663263,0.0-65.0-2.0,"""event"",""trial"",""time""
""fullscreenenter"",""1"",""1729""
","
","
","""event"",""trial"",""time""
""fullscreenenter"",""1"",""1729""
","
",,342.8,run_exp/static/images/task_images/land.jpg,65,,,,,,,12,,,7,,,,,,,,264891,1,9,FALSE,,,
dig,209,665925,0.0-66.0-0.0,"""event"",""trial"",""time""
""fullscreenenter"",""1"",""1729""
","
","
","""event"",""trial"",""time""
""fullscreenenter"",""1"",""1729""
","
",,,,,,,,,,,,"[{""stimulus"":""run_exp/static/images/task_images/dig.jpg"",""time"":0.19999998807907104},{""stimulus"":""run_exp/static/images/task_images/land.jpg"",""time"":893.3999999761581},{""stimulus"":""run_exp/static/images/task_images/dig.jpg"",""time"":1781.5}]",[],7,,,,,,,,,,,,,,
harvest,210,666935,0.0-66.0-1.0,"""event"",""trial"",""time""
""fullscreenenter"",""1"",""1729""
","
","
","""event"",""trial"",""time""
""fullscreenenter"",""1"",""1729""
","
",,null,run_exp/static/images/task_images/gems/12.jpg,null,,,,,,,10,,,7,,,,,12,0.825906233,0.833333333,,,,,,,
decision,211,667035,0.0-66.0-2.0,"""event"",""trial"",""time""
""fullscreenenter"",""1"",""1729""
","
","
","""event"",""trial"",""time""
""fullscreenenter"",""1"",""1729""
","
",,97.89999998,run_exp/static/images/task_images/land.jpg,76,,,,,,,10,,,7,,,,,,,,268663,1,10,TRUE,,,
travel,212,676941,0.0-67.0-0.0,"""event"",""trial"",""time""
""fullscreenenter"",""1"",""1729""
","
","
","""event"",""trial"",""time""
""fullscreenenter"",""1"",""1729""
","
",,,,,,,,,,,,"[{""stimulus"":""run_exp/static/images/task_images/rocket-01.jpg"",""time"":0.19999998807907104},{""stimulus"":""run_exp/static/images/task_images/rocket-02.jpg"",""time"":1103.6000000238419},{""stimulus"":""run_exp/static/images/task_images/rocket-03.jpg"",""time"":2206.5},{""stimulus"":""run_exp/static/images/task_images/rocket-04.jpg"",""time"":3303.699999988079},{""stimulus"":""run_exp/static/images/task_images/rocket-05.jpg"",""time"":4406.699999988079},{""stimulus"":""run_exp/static/images/task_images/rocket-06.jpg"",""time"":5503.800000011921},{""stimulus"":""run_exp/static/images/task_images/rocket-07.jpg"",""time"":6606.600000023842},{""stimulus"":""run_exp/static/images/task_images/rocket-08.jpg"",""time"":7703.5},{""stimulus"":""run_exp/static/images/task_images/rocket-09.jpg"",""time"":8807.899999976158}]",[],7,,,,,,,,,,,,,,
alien_welcome,213,681952,0.0-67.0-1.0,"""event"",""trial"",""time""
""fullscreenenter"",""1"",""1729""
","
","
","""event"",""trial"",""time""
""fullscreenenter"",""1"",""1729""
","
",,null,run_exp/static/images/task_images/aliens/old_aliens/planet/alien_planet-70.jpg,null,,,,,,,,,,,,,70,"26,56,60,78,8,59,57,70,21,47,63,65,35,75,38,4,55,58,42,39,76,19,72,7,53,10,51,24,43,73,44,68,9,50,27,77,5,34,2",,,,,,,,,,
land,214,682463,0.0-67.0-2.0,"""event"",""trial"",""time""
""fullscreenenter"",""1"",""1729""
","
","
","""event"",""trial"",""time""
""fullscreenenter"",""1"",""1729""
","
",,null,run_exp/static/images/task_images/land.jpg,null,,,,,,,93,,,8,,,,,,,,,,,,,,
dig,215,684471,0.0-67.0-3.0,"""event"",""trial"",""time""
""fullscreenenter"",""1"",""1729""
","
","
","""event"",""trial"",""time""
""fullscreenenter"",""1"",""1729""
","
",,,,,,,,,,,,"[{""stimulus"":""run_exp/static/images/task_images/dig.jpg"",""time"":0.5},{""stimulus"":""run_exp/static/images/task_images/land.jpg"",""time"":677},{""stimulus"":""run_exp/static/images/task_images/dig.jpg"",""time"":1341}]",[],8,,,,,,,,,,,,,,
harvest,216,685481,0.0-67.0-4.0,"""event"",""trial"",""time""
""fullscreenenter"",""1"",""1729""
","
","
","""event"",""trial"",""time""
""fullscreenenter"",""1"",""1729""
","
",,null,run_exp/static/images/task_images/gems/93.jpg,null,,,,,,,64,,,8,,,,,93,0.68828644,0.688172043,,,,,,,
decision,217,685563,0.0-67.0-5.0,"""event"",""trial"",""time""
""fullscreenenter"",""1"",""1729""
","
","
","""event"",""trial"",""time""
""fullscreenenter"",""1"",""1729""
","
",,79.19999999,run_exp/static/images/task_images/land.jpg,65,,,,,,,64,,,8,,,,,,,,287191,1,0,FALSE,,,
dig,218,688494,0.0-68.0-0.0,"""event"",""trial"",""time""
""fullscreenenter"",""1"",""1729""
","
","
","""event"",""trial"",""time""
""fullscreenenter"",""1"",""1729""
","
",,,,,,,,,,,,"[{""stimulus"":""run_exp/static/images/task_images/dig.jpg"",""time"":0.20000004768371582},{""stimulus"":""run_exp/static/images/task_images/land.jpg"",""time"":983.2000000476837},{""stimulus"":""run_exp/static/images/task_images/dig.jpg"",""time"":1952.800000011921}]",[],8,,,,,,,,,,,,,,
harvest,219,689505,0.0-68.0-1.0,"""event"",""trial"",""time""
""fullscreenenter"",""1"",""1729""
","
","
","""event"",""trial"",""time""
""fullscreenenter"",""1"",""1729""
","
",,null,run_exp/static/images/task_images/gems/64.jpg,null,,,,,,,53,,,8,,,,,64,0.828407992,0.828125,,,,,,,
decision,220,689930,0.0-68.0-2.0,"""event"",""trial"",""time""
""fullscreenenter"",""1"",""1729""
","
","
","""event"",""trial"",""time""
""fullscreenenter"",""1"",""1729""
","
",,423,run_exp/static/images/task_images/land.jpg,65,,,,,,,53,,,8,,,,,,,,291558,1,1,FALSE,,,
dig,221,692517,0.0-69.0-0.0,"""event"",""trial"",""time""
""fullscreenenter"",""1"",""1729""
","
","
","""event"",""trial"",""time""
""fullscreenenter"",""1"",""1729""
","
",,,,,,,,,,,,"[{""stimulus"":""run_exp/static/images/task_images/dig.jpg"",""time"":0.19999998807907104},{""stimulus"":""run_exp/static/images/task_images/land.jpg"",""time"":865.1999999880791},{""stimulus"":""run_exp/static/images/task_images/dig.jpg"",""time"":1730.0999999642372}]",[],8,,,,,,,,,,,,,,
harvest,222,693527,0.0-69.0-1.0,"""event"",""trial"",""time""
""fullscreenenter"",""1"",""1729""
","
","
","""event"",""trial"",""time""
""fullscreenenter"",""1"",""1729""
","
",,null,run_exp/static/images/task_images/gems/53.jpg,null,,,,,,,43,,,8,,,,,53,0.809025358,0.811320755,,,,,,,
decision,223,693635,0.0-69.0-2.0,"""event"",""trial"",""time""
""fullscreenenter"",""1"",""1729""
","
","
","""event"",""trial"",""time""
""fullscreenenter"",""1"",""1729""
","
",,105.6,run_exp/static/images/task_images/land.jpg,65,,,,,,,43,,,8,,,,,,,,295264,1,2,FALSE,,,
dig,224,696534,0.0-70.0-0.0,"""event"",""trial"",""time""
""fullscreenenter"",""1"",""1729""
","
","
","""event"",""trial"",""time""
""fullscreenenter"",""1"",""1729""
","
",,,,,,,,,,,,"[{""stimulus"":""run_exp/static/images/task_images/dig.jpg"",""time"":0.20000004768371582},{""stimulus"":""run_exp/static/images/task_images/land.jpg"",""time"":968.1000000238419},{""stimulus"":""run_exp/static/images/task_images/dig.jpg"",""time"":1937.6000000238419}]",[],8,,,,,,,,,,,,,,
harvest,225,697544,0.0-70.0-1.0,"""event"",""trial"",""time""
""fullscreenenter"",""1"",""1729""
","
","
","""event"",""trial"",""time""
""fullscreenenter"",""1"",""1729""
","
",,null,run_exp/static/images/task_images/gems/43.jpg,null,,,,,,,38,,,8,,,,,43,0.875644,0.88372093,,,,,,,
decision,226,697830,0.0-70.0-2.0,"""event"",""trial"",""time""
""fullscreenenter"",""1"",""1729""
","
","
","""event"",""trial"",""time""
""fullscreenenter"",""1"",""1729""
","
",,283.5,run_exp/static/images/task_images/land.jpg,65,,,,,,,38,,,8,,,,,,,,299458,1,3,FALSE,,,
dig,227,700557,0.0-71.0-0.0,"""event"",""trial"",""time""
""fullscreenenter"",""1"",""1729""
","
","
","""event"",""trial"",""time""
""fullscreenenter"",""1"",""1729""
","
",,,,,,,,,,,,"[{""stimulus"":""run_exp/static/images/task_images/dig.jpg"",""time"":0.10000002384185791},{""stimulus"":""run_exp/static/images/task_images/land.jpg"",""time"":906.9000000357628},{""stimulus"":""run_exp/static/images/task_images/dig.jpg"",""time"":1824}]",[],8,,,,,,,,,,,,,,
harvest,228,701567,0.0-71.0-1.0,"""event"",""trial"",""time""
""fullscreenenter"",""1"",""1729""
","
","
","""event"",""trial"",""time""
""fullscreenenter"",""1"",""1729""
","
",,null,run_exp/static/images/task_images/gems/38.jpg,null,,,,,,,33,,,8,,,,,38,0.879327451,0.868421053,,,,,,,
decision,229,701576,0.0-71.0-2.0,"""event"",""trial"",""time""
""fullscreenenter"",""1"",""1729""
","
","
","""event"",""trial"",""time""
""fullscreenenter"",""1"",""1729""
","
",,6.5,run_exp/static/images/task_images/land.jpg,65,,,,,,,33,,,8,,,,,,,,303204,1,4,TRUE,,,
end_of_block_continue,230,710584,0.0-72.0-0.0,"""event"",""trial"",""time""
""fullscreenenter"",""1"",""1729""
","
","
","""event"",""trial"",""time""
""fullscreenenter"",""1"",""1729""
","
",,null,run_exp/static/audio/clip_32_block_end.m4a,,,,,,,null,,,,,,,,,,,,,,,,,,
alien_welcome,231,715597,0.0-73.0-0.0,"""event"",""trial"",""time""
""fullscreenenter"",""1"",""1729""
","
","
","""event"",""trial"",""time""
""fullscreenenter"",""1"",""1729""
","
",,null,run_exp/static/images/task_images/aliens/old_aliens/planet/alien_planet-21.jpg,null,,,,,,,,,,,,,21,"26,56,60,78,8,59,57,70,21,47,63,65,35,75,38,4,55,58,42,39,76,19,72,7,53,10,51,24,43,73,44,68,9,50,27,77,5,34,2",,,,,,,,,,
land,232,716103,0.0-73.0-1.0,"""event"",""trial"",""time""
""fullscreenenter"",""1"",""1729""
","
","
","""event"",""trial"",""time""
""fullscreenenter"",""1"",""1729""
","
",,null,run_exp/static/images/task_images/land.jpg,null,,,,,,,110,,,9,,,,,,,,,,,,,,
dig,233,718111,0.0-73.0-2.0,"""event"",""trial"",""time""
""fullscreenenter"",""1"",""1729""
","
","
","""event"",""trial"",""time""
""fullscreenenter"",""1"",""1729""
","
",,,,,,,,,,,,"[{""stimulus"":""run_exp/static/images/task_images/dig.jpg"",""time"":0.40000003576278687},{""stimulus"":""run_exp/static/images/task_images/land.jpg"",""time"":677.2000000476837},{""stimulus"":""run_exp/static/images/task_images/dig.jpg"",""time"":1341.2000000476837}]",[],9,,,,,,,,,,,,,,
harvest,234,719122,0.0-73.0-3.0,"""event"",""trial"",""time""
""fullscreenenter"",""1"",""1729""
","
","
","""event"",""trial"",""time""
""fullscreenenter"",""1"",""1729""
","
",,null,run_exp/static/images/task_images/gems/110.jpg,null,,,,,,,14,,,9,,,,,110,0.125829199,0.127272727,,,,,,,
decision,235,719378,0.0-73.0-4.0,"""event"",""trial"",""time""
""fullscreenenter"",""1"",""1729""
","
","
","""event"",""trial"",""time""
""fullscreenenter"",""1"",""1729""
","
",,253.6,run_exp/static/images/task_images/land.jpg,65,,,,,,,14,,,9,,,,,,,,8785,2,0,FALSE,,,
dig,236,722134,0.0-74.0-0.0,"""event"",""trial"",""time""
""fullscreenenter"",""1"",""1729""
","
","
","""event"",""trial"",""time""
""fullscreenenter"",""1"",""1729""
","
",,,,,,,,,,,,"[{""stimulus"":""run_exp/static/images/task_images/dig.jpg"",""time"":0.20000004768371582},{""stimulus"":""run_exp/static/images/task_images/land.jpg"",""time"":919.5},{""stimulus"":""run_exp/static/images/task_images/dig.jpg"",""time"":1841.1000000238419}]",[],9,,,,,,,,,,,,,,
harvest,237,723144,0.0-74.0-1.0,"""event"",""trial"",""time""
""fullscreenenter"",""1"",""1729""
","
","
","""event"",""trial"",""time""
""fullscreenenter"",""1"",""1729""
","
",,null,run_exp/static/images/task_images/gems/14.jpg,null,,,,,,,3,,,9,,,,,14,0.238994222,0.214285714,,,,,,,
decision,238,723364,0.0-74.0-2.0,"""event"",""trial"",""time""
""fullscreenenter"",""1"",""1729""
","
","
","""event"",""trial"",""time""
""fullscreenenter"",""1"",""1729""
","
",,216.7,run_exp/static/images/task_images/land.jpg,76,,,,,,,3,,,9,,,,,,,,12771,2,1,TRUE,,,
travel,239,733158,0.0-75.0-0.0,"""event"",""trial"",""time""
""fullscreenenter"",""1"",""1729""
","
","
","""event"",""trial"",""time""
""fullscreenenter"",""1"",""1729""
","
",,,,,,,,,,,,"[{""stimulus"":""run_exp/static/images/task_images/rocket-01.jpg"",""time"":0.20000004768371582},{""stimulus"":""run_exp/static/images/task_images/rocket-02.jpg"",""time"":1094.7000000476837},{""stimulus"":""run_exp/static/images/task_images/rocket-03.jpg"",""time"":2186.100000023842},{""stimulus"":""run_exp/static/images/task_images/rocket-04.jpg"",""time"":3271.5},{""stimulus"":""run_exp/static/images/task_images/rocket-05.jpg"",""time"":4357.100000023842},{""stimulus"":""run_exp/static/images/task_images/rocket-06.jpg"",""time"":5437},{""stimulus"":""run_exp/static/images/task_images/rocket-07.jpg"",""time"":6528.200000047684},{""stimulus"":""run_exp/static/images/task_images/rocket-08.jpg"",""time"":7613.700000047684},{""stimulus"":""run_exp/static/images/task_images/rocket-09.jpg"",""time"":8705}]",[],9,,,,,,,,,,,,,,
alien_welcome,240,738168,0.0-75.0-1.0,"""event"",""trial"",""time""
""fullscreenenter"",""1"",""1729""
","
","
","""event"",""trial"",""time""
""fullscreenenter"",""1"",""1729""
","
",,null,run_exp/static/images/task_images/aliens/old_aliens/planet/alien_planet-47.jpg,null,,,,,,,,,,,,,47,"26,56,60,78,8,59,57,70,21,47,63,65,35,75,38,4,55,58,42,39,76,19,72,7,53,10,51,24,43,73,44,68,9,50,27,77,5,34,2",,,,,,,,,,
land,241,738679,0.0-75.0-2.0,"""event"",""trial"",""time""
""fullscreenenter"",""1"",""1729""
","
","
","""event"",""trial"",""time""
""fullscreenenter"",""1"",""1729""
","
",,null,run_exp/static/images/task_images/land.jpg,null,,,,,,,100,,,10,,,,,,,,,,,,,,
dig,242,740687,0.0-75.0-3.0,"""event"",""trial"",""time""
""fullscreenenter"",""1"",""1729""
","
","
","""event"",""trial"",""time""
""fullscreenenter"",""1"",""1729""
","
",,,,,,,,,,,,"[{""stimulus"":""run_exp/static/images/task_images/dig.jpg"",""time"":0.5},{""stimulus"":""run_exp/static/images/task_images/land.jpg"",""time"":677.1999999880791},{""stimulus"":""run_exp/static/images/task_images/dig.jpg"",""time"":1341.6000000238419}]",[],10,,,,,,,,,,,,,,
harvest,243,741697,0.0-75.0-4.0,"""event"",""trial"",""time""
""fullscreenenter"",""1"",""1729""
","
","
","""event"",""trial"",""time""
""fullscreenenter"",""1"",""1729""
","
",,null,run_exp/static/images/task_images/gems/100.jpg,null,,,,,,,37,,,10,,,,,100,0.371500245,0.37,,,,,,,
decision,244,742023,0.0-75.0-5.0,"""event"",""trial"",""time""
""fullscreenenter"",""1"",""1729""
","
","
","""event"",""trial"",""time""
""fullscreenenter"",""1"",""1729""
","
",,322.8,run_exp/static/images/task_images/land.jpg,65,,,,,,,37,,,10,,,,,,,,31430,2,0,FALSE,,,
dig,245,744709,0.0-76.0-0.0,"""event"",""trial"",""time""
""fullscreenenter"",""1"",""1729""
","
","
","""event"",""trial"",""time""
""fullscreenenter"",""1"",""1729""
","
",,,,,,,,,,,,"[{""stimulus"":""run_exp/static/images/task_images/dig.jpg"",""time"":0.19999998807907104},{""stimulus"":""run_exp/static/images/task_images/land.jpg"",""time"":900.5999999642372},{""stimulus"":""run_exp/static/images/task_images/dig.jpg"",""time"":1788.7999999523163}]",[],10,,,,,,,,,,,,,,
harvest,246,745720,0.0-76.0-1.0,"""event"",""trial"",""time""
""fullscreenenter"",""1"",""1729""
","
","
","""event"",""trial"",""time""
""fullscreenenter"",""1"",""1729""
","
",,null,run_exp/static/images/task_images/gems/37.jpg,null,,,,,,,9,,,10,,,,,37,0.244033579,0.243243243,,,,,,,
decision,247,746038,0.0-76.0-2.0,"""event"",""trial"",""time""
""fullscreenenter"",""1"",""1729""
","
","
","""event"",""trial"",""time""
""fullscreenenter"",""1"",""1729""
","
",,315.8,run_exp/static/images/task_images/land.jpg,65,,,,,,,9,,,10,,,,,,,,35446,2,1,FALSE,,,
dig,248,748733,0.0-77.0-0.0,"""event"",""trial"",""time""
""fullscreenenter"",""1"",""1729""
","
","
","""event"",""trial"",""time""
""fullscreenenter"",""1"",""1729""
","
",,,,,,,,,,,,"[{""stimulus"":""run_exp/static/images/task_images/dig.jpg"",""time"":0},{""stimulus"":""run_exp/static/images/task_images/land.jpg"",""time"":899.5},{""stimulus"":""run_exp/static/images/task_images/dig.jpg"",""time"":1796.4000000357628}]",[],10,,,,,,,,,,,,,,
harvest,249,749743,0.0-77.0-1.0,"""event"",""trial"",""time""
""fullscreenenter"",""1"",""1729""
","
","
","""event"",""trial"",""time""
""fullscreenenter"",""1"",""1729""
","
",,null,run_exp/static/images/task_images/gems/9.jpg,null,,,,,,,2,,,10,,,,,9,0.208887299,0.222222222,,,,,,,
decision,250,749747,0.0-77.0-2.0,"""event"",""trial"",""time""
""fullscreenenter"",""1"",""1729""
","
","
","""event"",""trial"",""time""
""fullscreenenter"",""1"",""1729""
","
",,1.699999988,run_exp/static/images/task_images/land.jpg,76,,,,,,,2,,,10,,,,,,,,39154,2,2,TRUE,,,
travel,251,759751,0.0-78.0-0.0,"""event"",""trial"",""time""
""fullscreenenter"",""1"",""1729""
","
","
","""event"",""trial"",""time""
""fullscreenenter"",""1"",""1729""
","
