trial_type,trial_index,time_elapsed,internal_node_id,interactions,blur_events,focus_events,fullscreenenter_events,fullscreenexit_events,success,rt,stimulus,key_press,prompt,subject_id,participant_id,age,gender,button_pressed,next_reward,animation_sequence,responses,planet,curr_prac_trial,n_prac_rounds,alien,aliens,reward_received,decay_rate_actual,decay_rate_exp,time_in_block,block_num,prt,last_trial_on_planet,button_html,bonus,num_failures
pavlovia,0,4,0.0-0.0,"""event"",""trial"",""time""
""blur"",""0"",""0""
""focus"",""1"",""14600""
""fullscreenenter"",""1"",""14732""
","""event"",""trial"",""time""
""blur"",""0"",""0""
","""event"",""trial"",""time""
""focus"",""1"",""14600""
","""event"",""trial"",""time""
""fullscreenenter"",""1"",""14732""
","
",,,,,,,,,,,,,,,,,,,,,,,,,,,,
fullscreen,1,15704,0.0-1.0,"""event"",""trial"",""time""
""blur"",""0"",""0""
""focus"",""1"",""14600""
""fullscreenenter"",""1"",""14732""
""fullscreenexit"",""2"",""19559""
","""event"",""trial"",""time""
""blur"",""0"",""0""
","""event"",""trial"",""time""
""focus"",""1"",""14600""
","""event"",""trial"",""time""
""fullscreenenter"",""1"",""14732""
","""event"",""trial"",""time""
""fullscreenexit"",""2"",""19559""
",TRUE,,,,,,,,,,,,,,,,,,,,,,,,,,,
instruc_welcome,2,26320,0.0-2.0,"""event"",""trial"",""time""
""blur"",""0"",""0""
""focus"",""1"",""14600""
""fullscreenenter"",""1"",""14732""
""fullscreenexit"",""2"",""19559""
","""event"",""trial"",""time""
""blur"",""0"",""0""
","""event"",""trial"",""time""
""focus"",""1"",""14600""
","""event"",""trial"",""time""
""fullscreenenter"",""1"",""14732""
","""event"",""trial"",""time""
""fullscreenexit"",""2"",""19559""
",,null,run_exp/static/audio/clip_1_welcome.m4a,null,"<p>Howdy! In this experiment, you’ll be an explorer traveling through space to collect space treasure.</p><p>Your mission is to collect as much treasure as possible.</p><br><br><p><img src='run_exp/static/images/task_images/opening_img-01.jpg' height='300' width='auto'></p>",10023,4710,22.83,Male,,,,,,,,,,,,,,,,,,,
audio-keyboard-response,3,43154,0.0-3.0,"""event"",""trial"",""time""
""blur"",""0"",""0""
""focus"",""1"",""14600""
""fullscreenenter"",""1"",""14732""
""fullscreenexit"",""2"",""19559""
","""event"",""trial"",""time""
""blur"",""0"",""0""
","""event"",""trial"",""time""
""focus"",""1"",""14600""
","""event"",""trial"",""time""
""fullscreenenter"",""1"",""14732""
","""event"",""trial"",""time""
""fullscreenexit"",""2"",""19559""
",,null,run_exp/static/audio/clip_2_move.m4a,null,,,,,,,,,,,,,,,,,,,,,,,,
welcome_dec,4,48744,0.0-4.0,"""event"",""trial"",""time""
""blur"",""0"",""0""
""focus"",""1"",""14600""
""fullscreenenter"",""1"",""14732""
""fullscreenexit"",""2"",""19559""
","""event"",""trial"",""time""
""blur"",""0"",""0""
","""event"",""trial"",""time""
""focus"",""1"",""14600""
","""event"",""trial"",""time""
""fullscreenenter"",""1"",""14732""
","""event"",""trial"",""time""
""fullscreenexit"",""2"",""19559""
",,5586.7,"<p>Howdy! In this experiment, you’ll be an explorer traveling through space to collect space treasure.</p><p>Your mission is to collect as much treasure as possible.</p><br><br><p><img src='run_exp/static/images/task_images/opening_img-01.jpg' height='300' width='auto'></p>",,,,,,,1,,,,,,,,,,,,,,,,,,
html-keyboard-response,5,49487,0.0-5.0,"""event"",""trial"",""time""
""blur"",""0"",""0""
""focus"",""1"",""14600""
""fullscreenenter"",""1"",""14732""
""fullscreenexit"",""2"",""19559""
","""event"",""trial"",""time""
""blur"",""0"",""0""
","""event"",""trial"",""time""
""focus"",""1"",""14600""
","""event"",""trial"",""time""
""fullscreenenter"",""1"",""14732""
","""event"",""trial"",""time""
""fullscreenexit"",""2"",""19559""
",,740.5,"<p>Howdy! In this experiment, you’ll be an explorer traveling through space to collect space treasure.</p><p>Your mission is to collect as much treasure as possible.</p><br><br><p><img src='run_exp/static/images/task_images/opening_img-01.jpg' height='300' width='auto'></p><button class=""jspsych-html-btn-unchosen""><img src=""run_exp/static/images/task_images/planet-01.jpg"" height=""50""></button><button class=""jspsych-html-btn-chosen""><img src=""run_exp/static/images/task_images/planet-02.jpg"" height=""50""></button><p><b>[press the space bar to lock in your answer]<b><br></p>",32,,,,,,,,,,,,,,,,,,,,,,,,
instruc_goal,6,59772,0.0-6.0-0.0,"""event"",""trial"",""time""
""blur"",""0"",""0""
""focus"",""1"",""14600""
""fullscreenenter"",""1"",""14732""
""fullscreenexit"",""2"",""19559""
","""event"",""trial"",""time""
""blur"",""0"",""0""
","""event"",""trial"",""time""
""focus"",""1"",""14600""
","""event"",""trial"",""time""
""fullscreenenter"",""1"",""14732""
","""event"",""trial"",""time""
""fullscreenexit"",""2"",""19559""
",,null,run_exp/static/audio/clip_3_goal.m4a,null,"<p> As a space explorer, you’ll visit different planets to dig for space treasure, these pink gems.</p> <p> The more treasure you dig up, the more bonus money you’ll win! </p><br><br><p><img src='run_exp/static/images/task_images/pink_gem.jpg' height='300' width='auto'></p>",,,,,,,,,,,,,,,,,,,,,,,
instruc_goal,7,65176,0.0-6.0-1.0,"""event"",""trial"",""time""
""blur"",""0"",""0""
""focus"",""1"",""14600""
""fullscreenenter"",""1"",""14732""
""fullscreenexit"",""2"",""19559""
","""event"",""trial"",""time""
""blur"",""0"",""0""
","""event"",""trial"",""time""
""focus"",""1"",""14600""
","""event"",""trial"",""time""
""fullscreenenter"",""1"",""14732""
","""event"",""trial"",""time""
""fullscreenexit"",""2"",""19559""
",,5402.4,"<p> As a space explorer, you’ll visit different planets to dig for space treasure, these pink gems.</p> <p> The more treasure you dig up, the more bonus money you’ll win! </p><br><br><p><img src='run_exp/static/images/task_images/pink_gem.jpg' height='300' width='auto'></p>",,,,,,,1,,,,,,,,,,,,,,,,,,
html-keyboard-response,8,65507,0.0-6.0-2.0,"""event"",""trial"",""time""
""blur"",""0"",""0""
""focus"",""1"",""14600""
""fullscreenenter"",""1"",""14732""
""fullscreenexit"",""2"",""19559""
","""event"",""trial"",""time""
""blur"",""0"",""0""
","""event"",""trial"",""time""
""focus"",""1"",""14600""
","""event"",""trial"",""time""
""fullscreenenter"",""1"",""14732""
","""event"",""trial"",""time""
""fullscreenexit"",""2"",""19559""
",,329.8,"<p> As a space explorer, you’ll visit different planets to dig for space treasure, these pink gems.</p> <p> The more treasure you dig up, the more bonus money you’ll win! </p><br><br><p><img src='run_exp/static/images/task_images/pink_gem.jpg' height='300' width='auto'></p><button class=""jspsych-html-btn-unchosen""><img src=""run_exp/static/images/task_images/planet-01.jpg"" height=""50""></button><button class=""jspsych-html-btn-chosen""><img src=""run_exp/static/images/task_images/planet-02.jpg"" height=""50""></button><p><b>[press the space bar to lock in your answer]<b><br></p>",32,,,,,,,,,,,,,,,,,,,,,,,,
instruc_dig,9,81772,0.0-7.0-0.0,"""event"",""trial"",""time""
""blur"",""0"",""0""
""focus"",""1"",""14600""
""fullscreenenter"",""1"",""14732""
""fullscreenexit"",""2"",""19559""
","""event"",""trial"",""time""
""blur"",""0"",""0""
","""event"",""trial"",""time""
""focus"",""1"",""14600""
","""event"",""trial"",""time""
""fullscreenenter"",""1"",""14732""
","""event"",""trial"",""time""
""fullscreenexit"",""2"",""19559""
",,null,run_exp/static/audio/clip_4_dig.m4a,null,,,,,,,100,,,,,,,,,,,,,,,,,
instruc_dig_try,10,83579,0.0-7.0-1.0,"""event"",""trial"",""time""
""blur"",""0"",""0""
""focus"",""1"",""14600""
""fullscreenenter"",""1"",""14732""
""fullscreenexit"",""2"",""19559""
","""event"",""trial"",""time""
""blur"",""0"",""0""
","""event"",""trial"",""time""
""focus"",""1"",""14600""
","""event"",""trial"",""time""
""fullscreenenter"",""1"",""14732""
","""event"",""trial"",""time""
""fullscreenexit"",""2"",""19559""
",,1804.8,"<p> When you’ve arrived at a new planet, you will dig once. </p> <p>Then, you get to decide if you want to stay on the planet and dig again or travel to a new planet and dig there.</p> <p> To stay and dig, press the letter <strong>‘A’</strong> on your keyboard. Try pressing it now! </p><p><img src='run_exp/static/images/task_images/land.jpg'  height='700' width='auto'></p>",65,"<p> When you’ve arrived at a new planet, you will dig once. </p> <p>Then, you get to decide if you want to stay on the planet and dig again or travel to a new planet and dig there.</p> <p> To stay and dig, press the letter <strong>‘A’</strong> on your keyboard. Try pressing it now! </p><p><img src='run_exp/static/images/task_images/land.jpg'  height='700' width='auto'></p>",,,,,,100,,,,,,,,,,,,,,,,,
dig_prac,11,85602,0.0-7.0-2.0,"""event"",""trial"",""time""
""blur"",""0"",""0""
""focus"",""1"",""14600""
""fullscreenenter"",""1"",""14732""
""fullscreenexit"",""2"",""19559""
","""event"",""trial"",""time""
""blur"",""0"",""0""
","""event"",""trial"",""time""
""focus"",""1"",""14600""
","""event"",""trial"",""time""
""fullscreenenter"",""1"",""14732""
","""event"",""trial"",""time""
""fullscreenexit"",""2"",""19559""
",,,,,,,,,,,,"[{""stimulus"":""run_exp/static/images/task_images/dig.jpg"",""time"":0.5},{""stimulus"":""run_exp/static/images/task_images/land.jpg"",""time"":684.7999999523163},{""stimulus"":""run_exp/static/images/task_images/dig.jpg"",""time"":1343.0999999046326}]",[],,,,,,,,,,,,,,,
instruc_travel,12,122106,0.0-7.0-3.0,"""event"",""trial"",""time""
""blur"",""0"",""0""
""focus"",""1"",""14600""
""fullscreenenter"",""1"",""14732""
""fullscreenexit"",""2"",""19559""
","""event"",""trial"",""time""
""blur"",""0"",""0""
","""event"",""trial"",""time""
""focus"",""1"",""14600""
","""event"",""trial"",""time""
""fullscreenenter"",""1"",""14732""
","""event"",""trial"",""time""
""fullscreenexit"",""2"",""19559""
",,null,run_exp/static/audio/clip_5_travel.m4a,null,"<p>Every time you dig up gems, there are less gems on the planet, so the more you dig on a planet the fewer gems you’ll get with each dig.</p><p>When gems are running low, you may want to travel to a new planet. </p> <p>  Planets are very far apart in this galaxy, so it will take some time to travel between them. </p> <br><p>There are lots and lots of planets for you to visit, so you won’t be able to return to any planets you’ve seen before. </p><br><p>To leave this planet and travel to a new one, press the letter <strong>‘L’</strong> on your keyboard. Try pressing it now! </p><p><img src='run_exp/static/images/task_images/rocket-01.jpg'  height='600' width='auto'></p>",,,,,,,,,,,,,,,,,,,,,,,
instruc_travel_try,13,123145,0.0-7.0-4.0,"""event"",""trial"",""time""
""blur"",""0"",""0""
""focus"",""1"",""14600""
""fullscreenenter"",""1"",""14732""
""fullscreenexit"",""2"",""19559""
","""event"",""trial"",""time""
""blur"",""0"",""0""
","""event"",""trial"",""time""
""focus"",""1"",""14600""
","""event"",""trial"",""time""
""fullscreenenter"",""1"",""14732""
","""event"",""trial"",""time""
""fullscreenexit"",""2"",""19559""
",,1036.6,"<p>Every time you dig up gems, there are less gems on the planet, so the more you dig on a planet the fewer gems you’ll get with each dig.</p><p>When gems are running low, you may want to travel to a new planet. </p> <p>  Planets are very far apart in this galaxy, so it will take some time to travel between them. </p> <br><p>There are lots and lots of planets for you to visit, so you won’t be able to return to any planets you’ve seen before. </p><br><p>To leave this planet and travel to a new one, press the letter <strong>‘L’</strong> on your keyboard. Try pressing it now! </p><p><img src='run_exp/static/images/task_images/rocket-01.jpg'  height='600' width='auto'></p>",76,"<p>Every time you dig up gems, there are less gems on the planet, so the more you dig on a planet the fewer gems you’ll get with each dig.</p><p>When gems are running low, you may want to travel to a new planet. </p> <p>  Planets are very far apart in this galaxy, so it will take some time to travel between them. </p> <br><p>There are lots and lots of planets for you to visit, so you won’t be able to return to any planets you’ve seen before. </p><br><p>To leave this planet and travel to a new one, press the letter <strong>‘L’</strong> on your keyboard. Try pressing it now! </p><p><img src='run_exp/static/images/task_images/rocket-01.jpg'  height='600' width='auto'></p>",,,,,,,,,,,,,,,,,,,,,,,
travel_prac,14,133162,0.0-7.0-5.0,"""event"",""trial"",""time""
""blur"",""0"",""0""
""focus"",""1"",""14600""
""fullscreenenter"",""1"",""14732""
""fullscreenexit"",""2"",""19559""
","""event"",""trial"",""time""
""blur"",""0"",""0""
","""event"",""trial"",""time""
""focus"",""1"",""14600""
","""event"",""trial"",""time""
""fullscreenenter"",""1"",""14732""
","""event"",""trial"",""time""
""fullscreenexit"",""2"",""19559""
",,,,,,,,,,,,"[{""stimulus"":""run_exp/static/images/task_images/rocket-01.jpg"",""time"":0.39999985694885254},{""stimulus"":""run_exp/static/images/task_images/rocket-02.jpg"",""time"":1120.5},{""stimulus"":""run_exp/static/images/task_images/rocket-03.jpg"",""time"":2224.5999999046326},{""stimulus"":""run_exp/static/images/task_images/rocket-04.jpg"",""time"":3337.7999999523163},{""stimulus"":""run_exp/static/images/task_images/rocket-05.jpg"",""time"":4457.899999856949},{""stimulus"":""run_exp/static/images/task_images/rocket-06.jpg"",""time"":5572.599999904633},{""stimulus"":""run_exp/static/images/task_images/rocket-07.jpg"",""time"":6683.5},{""stimulus"":""run_exp/static/images/task_images/rocket-08.jpg"",""time"":7796.099999904633},{""stimulus"":""run_exp/static/images/task_images/rocket-09.jpg"",""time"":8897.099999904633}]",[],0,,,,,,,,,,,,,,
instruc_alien_greet,15,160496,0.0-7.0-6.0,"""event"",""trial"",""time""
""blur"",""0"",""0""
""focus"",""1"",""14600""
""fullscreenenter"",""1"",""14732""
""fullscreenexit"",""2"",""19559""
","""event"",""trial"",""time""
""blur"",""0"",""0""
","""event"",""trial"",""time""
""focus"",""1"",""14600""
","""event"",""trial"",""time""
""fullscreenenter"",""1"",""14732""
","""event"",""trial"",""time""
""fullscreenexit"",""2"",""19559""
",,null,run_exp/static/audio/clip_6_alien.m4a,null,"<p>When you arrive at a new planet, the alien who owns the treasure mine on that planet will greet you!</p><p>The better an alien takes care of their mine the easier it is to dig for gems. Some aliens take better care of their mine than others. So, you won’t get exactly the same amount of gems on each planet.</p><p>What the alien looks like does not tell you anything about how many gems there are on the planet.</p><br><p><img src=""run_exp/static/images/task_images/aliens/instructions_aliens/planet/alien_planet-1.jpg""  height=""600"" width=""auto""></p>",,,,,,,,,,,,,,,,,,,,,,,
instruc_alien_greet,16,166052,0.0-7.0-7.0,"""event"",""trial"",""time""
""blur"",""0"",""0""
""focus"",""1"",""14600""
""fullscreenenter"",""1"",""14732""
""fullscreenexit"",""2"",""19559""
","""event"",""trial"",""time""
""blur"",""0"",""0""
","""event"",""trial"",""time""
""focus"",""1"",""14600""
","""event"",""trial"",""time""
""fullscreenenter"",""1"",""14732""
","""event"",""trial"",""time""
""fullscreenexit"",""2"",""19559""
",,5553.9,"<p>When you arrive at a new planet, the alien who owns the treasure mine on that planet will greet you!</p><p>The better an alien takes care of their mine the easier it is to dig for gems. Some aliens take better care of their mine than others. So, you won’t get exactly the same amount of gems on each planet.</p><p>What the alien looks like does not tell you anything about how many gems there are on the planet.</p><br><p><img src=""run_exp/static/images/task_images/aliens/instructions_aliens/planet/alien_planet-1.jpg""  height=""600"" width=""auto""></p>",,,,,,,1,,,,,,,,,,,,,,,,,,
html-keyboard-response,17,166506,0.0-7.0-8.0,"""event"",""trial"",""time""
""blur"",""0"",""0""
""focus"",""1"",""14600""
""fullscreenenter"",""1"",""14732""
""fullscreenexit"",""2"",""19559""
","""event"",""trial"",""time""
""blur"",""0"",""0""
","""event"",""trial"",""time""
""focus"",""1"",""14600""
","""event"",""trial"",""time""
""fullscreenenter"",""1"",""14732""
","""event"",""trial"",""time""
""fullscreenexit"",""2"",""19559""
",,453.1000001,"<p>When you arrive at a new planet, the alien who owns the treasure mine on that planet will greet you!</p><p>The better an alien takes care of their mine the easier it is to dig for gems. Some aliens take better care of their mine than others. So, you won’t get exactly the same amount of gems on each planet.</p><p>What the alien looks like does not tell you anything about how many gems there are on the planet.</p><br><p><img src=""run_exp/static/images/task_images/aliens/instructions_aliens/planet/alien_planet-1.jpg""  height=""600"" width=""auto""></p><button class=""jspsych-html-btn-unchosen""><img src=""run_exp/static/images/task_images/planet-01.jpg"" height=""50""></button><button class=""jspsych-html-btn-chosen""><img src=""run_exp/static/images/task_images/planet-02.jpg"" height=""50""></button><p><b>[press the space bar to lock in your answer]<b><br></p>",32,,,,,,,,,,,,,,,,,,,,,,,,
time_out,18,177717,0.0-8.0-0.0,"""event"",""trial"",""time""
""blur"",""0"",""0""
""focus"",""1"",""14600""
""fullscreenenter"",""1"",""14732""
""fullscreenexit"",""2"",""19559""
","""event"",""trial"",""time""
""blur"",""0"",""0""
","""event"",""trial"",""time""
""focus"",""1"",""14600""
","""event"",""trial"",""time""
""fullscreenenter"",""1"",""14732""
","""event"",""trial"",""time""
""fullscreenexit"",""2"",""19559""
",,null,run_exp/static/audio/clip_7_timeout.m4a,null,"<p>If you don't make your choice fast enough, you’ll have to wait a few seconds before you can make another one.</p><p>You can’t dig for more gems or travel to new planets. You just have to sit and wait.</p><br><p><img src='run_exp/static/images/task_images/time_out.jpg'  height='600' width='auto'></p>",,,,,,,,,,,,,,,,,,,,,,,
time_out,19,181135,0.0-8.0-1.0,"""event"",""trial"",""time""
""blur"",""0"",""0""
""focus"",""1"",""14600""
""fullscreenenter"",""1"",""14732""
""fullscreenexit"",""2"",""19559""
","""event"",""trial"",""time""
""blur"",""0"",""0""
","""event"",""trial"",""time""
""focus"",""1"",""14600""
","""event"",""trial"",""time""
""fullscreenenter"",""1"",""14732""
","""event"",""trial"",""time""
""fullscreenexit"",""2"",""19559""
",,3414.6,"<p>If you don't make your choice fast enough, you’ll have to wait a few seconds before you can make another one.</p><p>You can’t dig for more gems or travel to new planets. You just have to sit and wait.</p><br><p><img src='run_exp/static/images/task_images/time_out.jpg'  height='600' width='auto'></p>",,,,,,,1,,,,,,,,,,,,,,,,,,
html-keyboard-response,20,181353,0.0-8.0-2.0,"""event"",""trial"",""time""
""blur"",""0"",""0""
""focus"",""1"",""14600""
""fullscreenenter"",""1"",""14732""
""fullscreenexit"",""2"",""19559""
","""event"",""trial"",""time""
""blur"",""0"",""0""
","""event"",""trial"",""time""
""focus"",""1"",""14600""
","""event"",""trial"",""time""
""fullscreenenter"",""1"",""14732""
","""event"",""trial"",""time""
""fullscreenexit"",""2"",""19559""
",,215.3999999,"<p>If you don't make your choice fast enough, you’ll have to wait a few seconds before you can make another one.</p><p>You can’t dig for more gems or travel to new planets. You just have to sit and wait.</p><br><p><img src='run_exp/static/images/task_images/time_out.jpg'  height='600' width='auto'></p><button class=""jspsych-html-btn-unchosen""><img src=""run_exp/static/images/task_images/planet-01.jpg"" height=""50""></button><button class=""jspsych-html-btn-chosen""><img src=""run_exp/static/images/task_images/planet-02.jpg"" height=""50""></button><p><b>[press the space bar to lock in your answer]<b><br></p>",32,,,,,,,,,,,,,,,,,,,,,,,,
instruc_break,21,197117,0.0-9.0-0.0,"""event"",""trial"",""time""
""blur"",""0"",""0""
""focus"",""1"",""14600""
""fullscreenenter"",""1"",""14732""
""fullscreenexit"",""2"",""19559""
","""event"",""trial"",""time""
""blur"",""0"",""0""
","""event"",""trial"",""time""
""focus"",""1"",""14600""
","""event"",""trial"",""time""
""fullscreenenter"",""1"",""14732""
","""event"",""trial"",""time""
""fullscreenexit"",""2"",""19559""
",,null,run_exp/static/audio/clip_8_break.m4a,null,"<p> After digging and traveling for a while, you’ll be able to take a break at home base. </p><p>The game will last 20 minutes no matter what.</p><p>You will visit home base every 5 minutes, so, you will visit home base three times during the game.</p><br><p><img src='run_exp/static/images/task_images/home_base.jpg' height='600' width='auto'></p>",,,,,,,,,,,,,,,,,,,,,,,
instruc_break,22,201063,0.0-9.0-1.0,"""event"",""trial"",""time""
""blur"",""0"",""0""
""focus"",""1"",""14600""
""fullscreenenter"",""1"",""14732""
""fullscreenexit"",""2"",""19559""
","""event"",""trial"",""time""
""blur"",""0"",""0""
","""event"",""trial"",""time""
""focus"",""1"",""14600""
","""event"",""trial"",""time""
""fullscreenenter"",""1"",""14732""
","""event"",""trial"",""time""
""fullscreenexit"",""2"",""19559""
",,3944.1,"<p> After digging and traveling for a while, you’ll be able to take a break at home base. </p><p>The game will last 20 minutes no matter what.</p><p>You will visit home base every 5 minutes, so, you will visit home base three times during the game.</p><br><p><img src='run_exp/static/images/task_images/home_base.jpg' height='600' width='auto'></p>",,,,,,,1,,,,,,,,,,,,,,,,,,
html-keyboard-response,23,201226,0.0-9.0-2.0,"""event"",""trial"",""time""
""blur"",""0"",""0""
""focus"",""1"",""14600""
""fullscreenenter"",""1"",""14732""
""fullscreenexit"",""2"",""19559""
","""event"",""trial"",""time""
""blur"",""0"",""0""
","""event"",""trial"",""time""
""focus"",""1"",""14600""
","""event"",""trial"",""time""
""fullscreenenter"",""1"",""14732""
","""event"",""trial"",""time""
""fullscreenexit"",""2"",""19559""
",,160.7,"<p> After digging and traveling for a while, you’ll be able to take a break at home base. </p><p>The game will last 20 minutes no matter what.</p><p>You will visit home base every 5 minutes, so, you will visit home base three times during the game.</p><br><p><img src='run_exp/static/images/task_images/home_base.jpg' height='600' width='auto'></p><button class=""jspsych-html-btn-unchosen""><img src=""run_exp/static/images/task_images/planet-01.jpg"" height=""50""></button><button class=""jspsych-html-btn-chosen""><img src=""run_exp/static/images/task_images/planet-02.jpg"" height=""50""></button><p><b>[press the space bar to lock in your answer]<b><br></p>",32,,,,,,,,,,,,,,,,,,,,,,,,
instruc_prac_game,24,211456,0.0-10.0-0.0,"""event"",""trial"",""time""
""blur"",""0"",""0""
""focus"",""1"",""14600""
""fullscreenenter"",""1"",""14732""
""fullscreenexit"",""2"",""19559""
","""event"",""trial"",""time""
""blur"",""0"",""0""
","""event"",""trial"",""time""
""focus"",""1"",""14600""
","""event"",""trial"",""time""
""fullscreenenter"",""1"",""14732""
","""event"",""trial"",""time""
""fullscreenexit"",""2"",""19559""
",,null,run_exp/static/audio/clip_9_practice.m4a,null,"<p> Are you ready to play a practice game? </p> <p>In this practice game, you'll be digging up barrels of gems. But, in the real game, you'll be digging up the gems themselves. </p>",,,,,,,,,,,,,,,,,,,,,,,
html-button-response,25,219272,0.0-10.0-1.0,"""event"",""trial"",""time""
""blur"",""0"",""0""
""focus"",""1"",""14600""
""fullscreenenter"",""1"",""14732""
""fullscreenexit"",""2"",""19559""
","""event"",""trial"",""time""
""blur"",""0"",""0""
","""event"",""trial"",""time""
""focus"",""1"",""14600""
","""event"",""trial"",""time""
""fullscreenenter"",""1"",""14732""
","""event"",""trial"",""time""
""fullscreenexit"",""2"",""19559""
",,7816.7,"<p> Are you ready to play a practice game? </p> <p>In this practice game, you'll be digging up barrels of gems. But, in the real game, you'll be digging up the gems themselves. </p>",,,,,,,0,,,,,,,,,,,,,,,,,,
alien_welcome_prac,26,224294,0.0-11.0-0.0,"""event"",""trial"",""time""
""blur"",""0"",""0""
""focus"",""1"",""14600""
""fullscreenenter"",""1"",""14732""
""fullscreenexit"",""2"",""19559""
","""event"",""trial"",""time""
""blur"",""0"",""0""
","""event"",""trial"",""time""
""focus"",""1"",""14600""
","""event"",""trial"",""time""
""fullscreenenter"",""1"",""14732""
","""event"",""trial"",""time""
""fullscreenexit"",""2"",""19559""
",,null,run_exp/static/images/task_images/aliens/practice_aliens/planet/alien_planet-5.jpg,null,,,,,,,,,,,,,,,,,,,,,,,,
land_prac,27,224812,0.0-11.0-1.0,"""event"",""trial"",""time""
""blur"",""0"",""0""
""focus"",""1"",""14600""
""fullscreenenter"",""1"",""14732""
""fullscreenexit"",""2"",""19559""
","""event"",""trial"",""time""
""blur"",""0"",""0""
","""event"",""trial"",""time""
""focus"",""1"",""14600""
","""event"",""trial"",""time""
""fullscreenenter"",""1"",""14732""
","""event"",""trial"",""time""
""fullscreenexit"",""2"",""19559""
",,null,run_exp/static/images/task_images/land.jpg,null,,,,,,,104,,,0,,,,,,,,,,,,,,
dig_prac,28,226823,0.0-11.0-2.0,"""event"",""trial"",""time""
""blur"",""0"",""0""
""focus"",""1"",""14600""
""fullscreenenter"",""1"",""14732""
""fullscreenexit"",""2"",""19559""
","""event"",""trial"",""time""
""blur"",""0"",""0""
","""event"",""trial"",""time""
""focus"",""1"",""14600""
","""event"",""trial"",""time""
""fullscreenenter"",""1"",""14732""
","""event"",""trial"",""time""
""fullscreenexit"",""2"",""19559""
",,,,,,,,,,,,"[{""stimulus"":""run_exp/static/images/task_images/dig.jpg"",""time"":0.5999999046325684},{""stimulus"":""run_exp/static/images/task_images/land.jpg"",""time"":674.4000000953674},{""stimulus"":""run_exp/static/images/task_images/dig.jpg"",""time"":1346.2000000476837}]",[],,,,,,,,,,,,,,,
harvest_prac,29,227831,0.0-11.0-3.0,"""event"",""trial"",""time""
""blur"",""0"",""0""
""focus"",""1"",""14600""
""fullscreenenter"",""1"",""14732""
""fullscreenexit"",""2"",""19559""
","""event"",""trial"",""time""
""blur"",""0"",""0""
","""event"",""trial"",""time""
""focus"",""1"",""14600""
","""event"",""trial"",""time""
""fullscreenenter"",""1"",""14732""
","""event"",""trial"",""time""
""fullscreenexit"",""2"",""19559""
",,null,run_exp/static/images/task_images/barrel_text.jpg,null,,,,,,,,,,,,,,,,,,,,,,,,
decision_prac,30,229859,0.0-11.0-4.0,"""event"",""trial"",""time""
""blur"",""0"",""0""
""focus"",""1"",""14600""
""fullscreenenter"",""1"",""14732""
""fullscreenexit"",""2"",""19559""
","""event"",""trial"",""time""
""blur"",""0"",""0""
","""event"",""trial"",""time""
""focus"",""1"",""14600""
","""event"",""trial"",""time""
""fullscreenenter"",""1"",""14732""
","""event"",""trial"",""time""
""fullscreenexit"",""2"",""19559""
",,2026.4,run_exp/static/images/task_images/land.jpg,65,,,,,,,,,,,1,,,,,,,,,,,,,
dig_prac,31,231881,0.0-12.0-0.0,"""event"",""trial"",""time""
""blur"",""0"",""0""
""focus"",""1"",""14600""
""fullscreenenter"",""1"",""14732""
""fullscreenexit"",""2"",""19559""
","""event"",""trial"",""time""
""blur"",""0"",""0""
","""event"",""trial"",""time""
""focus"",""1"",""14600""
","""event"",""trial"",""time""
""fullscreenenter"",""1"",""14732""
","""event"",""trial"",""time""
""fullscreenexit"",""2"",""19559""
",,,,,,,,,,,,"[{""stimulus"":""run_exp/static/images/task_images/dig.jpg"",""time"":0.2999999523162842},{""stimulus"":""run_exp/static/images/task_images/land.jpg"",""time"":672.3999998569489},{""stimulus"":""run_exp/static/images/task_images/dig.jpg"",""time"":1346}]",[],,,,,,,,,,,,,,,
harvest_prac,32,232890,0.0-12.0-1.0,"""event"",""trial"",""time""
""blur"",""0"",""0""
""focus"",""1"",""14600""
""fullscreenenter"",""1"",""14732""
""fullscreenexit"",""2"",""19559""
","""event"",""trial"",""time""
""blur"",""0"",""0""
","""event"",""trial"",""time""
""focus"",""1"",""14600""
","""event"",""trial"",""time""
""fullscreenenter"",""1"",""14732""
","""event"",""trial"",""time""
""fullscreenexit"",""2"",""19559""
",,null,run_exp/static/images/task_images/barrel_text.jpg,null,,,,,,,,,,,,,,,,,,,,,,,,
decision_prac,33,235532,0.0-12.0-2.0,"""event"",""trial"",""time""
""blur"",""0"",""0""
""focus"",""1"",""14600""
""fullscreenenter"",""1"",""14732""
""fullscreenexit"",""2"",""19559""
","""event"",""trial"",""time""
""blur"",""0"",""0""
","""event"",""trial"",""time""
""focus"",""1"",""14600""
","""event"",""trial"",""time""
""fullscreenenter"",""1"",""14732""
","""event"",""trial"",""time""
""fullscreenexit"",""2"",""19559""
",,2639.6,run_exp/static/images/task_images/land.jpg,76,,,,,,,,,,,2,,,,,,,,,,,,,
travel,34,242892,0.0-13.0-0.0,"""event"",""trial"",""time""
""blur"",""0"",""0""
""focus"",""1"",""14600""
""fullscreenenter"",""1"",""14732""
""fullscreenexit"",""2"",""19559""
","""event"",""trial"",""time""
""blur"",""0"",""0""
","""event"",""trial"",""time""
""focus"",""1"",""14600""
","""event"",""trial"",""time""
""fullscreenenter"",""1"",""14732""
","""event"",""trial"",""time""
""fullscreenexit"",""2"",""19559""
",,,,,,,,,,,,"[{""stimulus"":""run_exp/static/images/task_images/rocket-01.jpg"",""time"":0.19999980926513672},{""stimulus"":""run_exp/static/images/task_images/rocket-02.jpg"",""time"":827.2999999523163},{""stimulus"":""run_exp/static/images/task_images/rocket-03.jpg"",""time"":1644},{""stimulus"":""run_exp/static/images/task_images/rocket-04.jpg"",""time"":2461.2999999523163},{""stimulus"":""run_exp/static/images/task_images/rocket-05.jpg"",""time"":3280.199999809265},{""stimulus"":""run_exp/static/images/task_images/rocket-06.jpg"",""time"":4087.199999809265},{""stimulus"":""run_exp/static/images/task_images/rocket-07.jpg"",""time"":4906},{""stimulus"":""run_exp/static/images/task_images/rocket-08.jpg"",""time"":5736.299999952316},{""stimulus"":""run_exp/static/images/task_images/rocket-09.jpg"",""time"":6539.299999952316}]",[],0,,,,,,,,,,,,,,
alien_welcome_prac,35,247900,0.0-13.0-1.0,"""event"",""trial"",""time""
""blur"",""0"",""0""
""focus"",""1"",""14600""
""fullscreenenter"",""1"",""14732""
""fullscreenexit"",""2"",""19559""
","""event"",""trial"",""time""
""blur"",""0"",""0""
","""event"",""trial"",""time""
""focus"",""1"",""14600""
","""event"",""trial"",""time""
""fullscreenenter"",""1"",""14732""
","""event"",""trial"",""time""
""fullscreenexit"",""2"",""19559""
",,null,run_exp/static/images/task_images/aliens/practice_aliens/planet/alien_planet-4.jpg,null,,,,,,,,,,,,,,,,,,,,,,,,
land_prac,36,248418,0.0-13.0-2.0,"""event"",""trial"",""time""
""blur"",""0"",""0""
""focus"",""1"",""14600""
""fullscreenenter"",""1"",""14732""
""fullscreenexit"",""2"",""19559""
","""event"",""trial"",""time""
""blur"",""0"",""0""
","""event"",""trial"",""time""
""focus"",""1"",""14600""
","""event"",""trial"",""time""
""fullscreenenter"",""1"",""14732""
","""event"",""trial"",""time""
""fullscreenexit"",""2"",""19559""
",,null,run_exp/static/images/task_images/land.jpg,null,,,,,,,104,,,0,,,,,,,,,,,,,,
dig_prac,37,250431,0.0-13.0-3.0,"""event"",""trial"",""time""
""blur"",""0"",""0""
""focus"",""1"",""14600""
""fullscreenenter"",""1"",""14732""
""fullscreenexit"",""2"",""19559""
","""event"",""trial"",""time""
""blur"",""0"",""0""
","""event"",""trial"",""time""
""focus"",""1"",""14600""
","""event"",""trial"",""time""
""fullscreenenter"",""1"",""14732""
","""event"",""trial"",""time""
""fullscreenexit"",""2"",""19559""
",,,,,,,,,,,,"[{""stimulus"":""run_exp/static/images/task_images/dig.jpg"",""time"":0.2999999523162842},{""stimulus"":""run_exp/static/images/task_images/land.jpg"",""time"":674.7999999523163},{""stimulus"":""run_exp/static/images/task_images/dig.jpg"",""time"":1344.5}]",[],,,,,,,,,,,,,,,
harvest_prac,38,251439,0.0-13.0-4.0,"""event"",""trial"",""time""
""blur"",""0"",""0""
""focus"",""1"",""14600""
""fullscreenenter"",""1"",""14732""
""fullscreenexit"",""2"",""19559""
","""event"",""trial"",""time""
""blur"",""0"",""0""
","""event"",""trial"",""time""
""focus"",""1"",""14600""
","""event"",""trial"",""time""
""fullscreenenter"",""1"",""14732""
","""event"",""trial"",""time""
""fullscreenexit"",""2"",""19559""
",,null,run_exp/static/images/task_images/barrel_text.jpg,null,,,,,,,,,,,,,,,,,,,,,,,,
decision_prac,39,253731,0.0-13.0-5.0,"""event"",""trial"",""time""
""blur"",""0"",""0""
""focus"",""1"",""14600""
""fullscreenenter"",""1"",""14732""
""fullscreenexit"",""2"",""19559""
","""event"",""trial"",""time""
""blur"",""0"",""0""
","""event"",""trial"",""time""
""focus"",""1"",""14600""
","""event"",""trial"",""time""
""fullscreenenter"",""1"",""14732""
","""event"",""trial"",""time""
""fullscreenexit"",""2"",""19559""
",,2290.9,run_exp/static/images/task_images/land.jpg,65,,,,,,,,,,,3,,,,,,,,,,,,,
dig_prac,40,255744,0.0-14.0-0.0,"""event"",""trial"",""time""
""blur"",""0"",""0""
""focus"",""1"",""14600""
""fullscreenenter"",""1"",""14732""
""fullscreenexit"",""2"",""19559""
","""event"",""trial"",""time""
""blur"",""0"",""0""
","""event"",""trial"",""time""
""focus"",""1"",""14600""
","""event"",""trial"",""time""
""fullscreenenter"",""1"",""14732""
","""event"",""trial"",""time""
""fullscreenexit"",""2"",""19559""
",,,,,,,,,,,,"[{""stimulus"":""run_exp/static/images/task_images/dig.jpg"",""time"":0.09999990463256836},{""stimulus"":""run_exp/static/images/task_images/land.jpg"",""time"":678.0999999046326},{""stimulus"":""run_exp/static/images/task_images/dig.jpg"",""time"":1346.6999998092651}]",[],,,,,,,,,,,,,,,
harvest_prac,41,256747,0.0-14.0-1.0,"""event"",""trial"",""time""
""blur"",""0"",""0""
""focus"",""1"",""14600""
""fullscreenenter"",""1"",""14732""
""fullscreenexit"",""2"",""19559""
","""event"",""trial"",""time""
""blur"",""0"",""0""
","""event"",""trial"",""time""
""focus"",""1"",""14600""
","""event"",""trial"",""time""
""fullscreenenter"",""1"",""14732""
","""event"",""trial"",""time""
""fullscreenexit"",""2"",""19559""
",,null,run_exp/static/images/task_images/barrel_text.jpg,null,,,,,,,,,,,,,,,,,,,,,,,,
decision_prac,42,257839,0.0-14.0-2.0,"""event"",""trial"",""time""
""blur"",""0"",""0""
""focus"",""1"",""14600""
""fullscreenenter"",""1"",""14732""
""fullscreenexit"",""2"",""19559""
","""event"",""trial"",""time""
""blur"",""0"",""0""
","""event"",""trial"",""time""
""focus"",""1"",""14600""
","""event"",""trial"",""time""
""fullscreenenter"",""1"",""14732""
","""event"",""trial"",""time""
""fullscreenexit"",""2"",""19559""
",,1091,run_exp/static/images/task_images/land.jpg,65,,,,,,,,,,,4,,,,,,,,,,,,,
dig_prac,43,259848,0.0-15.0-0.0,"""event"",""trial"",""time""
""blur"",""0"",""0""
""focus"",""1"",""14600""
""fullscreenenter"",""1"",""14732""
""fullscreenexit"",""2"",""19559""
","""event"",""trial"",""time""
""blur"",""0"",""0""
","""event"",""trial"",""time""
""focus"",""1"",""14600""
","""event"",""trial"",""time""
""fullscreenenter"",""1"",""14732""
","""event"",""trial"",""time""
""fullscreenexit"",""2"",""19559""
",,,,,,,,,,,,"[{""stimulus"":""run_exp/static/images/task_images/dig.jpg"",""time"":0.20000004768371582},{""stimulus"":""run_exp/static/images/task_images/land.jpg"",""time"":673.6000001430511},{""stimulus"":""run_exp/static/images/task_images/dig.jpg"",""time"":1338.1000001430511}]",[],,,,,,,,,,,,,,,
harvest_prac,44,260853,0.0-15.0-1.0,"""event"",""trial"",""time""
""blur"",""0"",""0""
""focus"",""1"",""14600""
""fullscreenenter"",""1"",""14732""
""fullscreenexit"",""2"",""19559""
","""event"",""trial"",""time""
""blur"",""0"",""0""
","""event"",""trial"",""time""
""focus"",""1"",""14600""
","""event"",""trial"",""time""
""fullscreenenter"",""1"",""14732""
","""event"",""trial"",""time""
""fullscreenexit"",""2"",""19559""
",,null,run_exp/static/images/task_images/barrel_text.jpg,null,,,,,,,,,,,,,,,,,,,,,,,,
decision_prac,45,261952,0.0-15.0-2.0,"""event"",""trial"",""time""
""blur"",""0"",""0""
""focus"",""1"",""14600""
""fullscreenenter"",""1"",""14732""
""fullscreenexit"",""2"",""19559""
","""event"",""trial"",""time""
""blur"",""0"",""0""
","""event"",""trial"",""time""
""focus"",""1"",""14600""
","""event"",""trial"",""time""
""fullscreenenter"",""1"",""14732""
","""event"",""trial"",""time""
""fullscreenexit"",""2"",""19559""
",,1097.7,run_exp/static/images/task_images/land.jpg,65,,,,,,,,,,,,1,,,,,,,,,,,,
quiz_instruc,46,264165,0.0-16.0-0.0,"""event"",""trial"",""time""
""blur"",""0"",""0""
""focus"",""1"",""14600""
""fullscreenenter"",""1"",""14732""
""fullscreenexit"",""2"",""19559""
","""event"",""trial"",""time""
""blur"",""0"",""0""
","""event"",""trial"",""time""
""focus"",""1"",""14600""
","""event"",""trial"",""time""
""fullscreenenter"",""1"",""14732""
","""event"",""trial"",""time""
""fullscreenexit"",""2"",""19559""
",,2210.2,run_exp/static/audio/clip_10_quiz.m4a,,,,,,,0,,,,,,,,,,,,,,,,,,
instruc_repeat,47,307035,0.0-16.0-1.0,"""event"",""trial"",""time""
""blur"",""0"",""0""
""focus"",""1"",""14600""
""fullscreenenter"",""1"",""14732""
""fullscreenexit"",""2"",""19559""
","""event"",""trial"",""time""
""blur"",""0"",""0""
","""event"",""trial"",""time""
""focus"",""1"",""14600""
","""event"",""trial"",""time""
""fullscreenenter"",""1"",""14732""
","""event"",""trial"",""time""
""fullscreenexit"",""2"",""19559""
",,null,"<p> Are you ready to play a practice game? </p> <p>In this practice game, you'll be digging up barrels of gems. But, in the real game, you'll be digging up the gems themselves. </p>",null,"<p>In this game, your goal is to collect as many gems as you can. That’s how you will win bonus money. </p> <p>The entire game will last 20 minutes no matter how many gems you collect or how many planets you visit. </p><p>To stay on a planet and dig again, press the letter A on your keyboard. To leave for a new planet, press the letter L.</p><p>The more you dig on a planet, the fewer gems you’ll get with each dig which is why you might consider leaving for a new planet. </p><p>When you arrive at a new planet, you’ll be greeted by an alien. What the alien looks like does not tell you anything about how much treasure is on the planet. </p>",,,,,,,,,,,,,,,,,,,,,,,
instruc_repeat_continue,48,313386,0.0-16.0-2.0,"""event"",""trial"",""time""
""blur"",""0"",""0""
""focus"",""1"",""14600""
""fullscreenenter"",""1"",""14732""
""fullscreenexit"",""2"",""19559""
","""event"",""trial"",""time""
""blur"",""0"",""0""
","""event"",""trial"",""time""
""focus"",""1"",""14600""
","""event"",""trial"",""time""
""fullscreenenter"",""1"",""14732""
","""event"",""trial"",""time""
""fullscreenexit"",""2"",""19559""
",,6348.8,"<p> Are you ready to play a practice game? </p> <p>In this practice game, you'll be digging up barrels of gems. But, in the real game, you'll be digging up the gems themselves. </p>",,,,,,,0,,,,,,,,,,,,,,,,,,
quiz_q_1_ask,49,316856,0.0-16.0-3.0,"""event"",""trial"",""time""
""blur"",""0"",""0""
""focus"",""1"",""14600""
""fullscreenenter"",""1"",""14732""
""fullscreenexit"",""2"",""19559""
","""event"",""trial"",""time""
""blur"",""0"",""0""
","""event"",""trial"",""time""
""focus"",""1"",""14600""
","""event"",""trial"",""time""
""fullscreenenter"",""1"",""14732""
","""event"",""trial"",""time""
""fullscreenexit"",""2"",""19559""
",,3467.5,run_exp/static/audio/clip_11_q1_ask.m4a,,,,,,,2,,,,,,,,,,,,,,,,,,
quiz_q_1_fb_correct,50,320795,0.0-17.0-0.0,"""event"",""trial"",""time""
""blur"",""0"",""0""
""focus"",""1"",""14600""
""fullscreenenter"",""1"",""14732""
""fullscreenexit"",""2"",""19559""
","""event"",""trial"",""time""
""blur"",""0"",""0""
","""event"",""trial"",""time""
""focus"",""1"",""14600""
","""event"",""trial"",""time""
""fullscreenenter"",""1"",""14732""
","""event"",""trial"",""time""
""fullscreenexit"",""2"",""19559""
",,null,run_exp/static/audio/clip_12_q1_correct.m4a,null,<p>That’s correct. You win extra money by collecting more gems.</p>,,,,,,,,,,,,,,,,,,,,,,,
quiz_q_2_ask,51,324411,0.0-17.0-1.0,"""event"",""trial"",""time""
""blur"",""0"",""0""
""focus"",""1"",""14600""
""fullscreenenter"",""1"",""14732""
""fullscreenexit"",""2"",""19559""
","""event"",""trial"",""time""
""blur"",""0"",""0""
","""event"",""trial"",""time""
""focus"",""1"",""14600""
","""event"",""trial"",""time""
""fullscreenenter"",""1"",""14732""
","""event"",""trial"",""time""
""fullscreenexit"",""2"",""19559""
",,3613.1,run_exp/static/audio/clip_14_q2_ask.m4a,,,,,,,1,,,,,,,,,,,,,,,,,,
quiz_q_2_fb_correct,52,328516,0.0-18.0-0.0,"""event"",""trial"",""time""
""blur"",""0"",""0""
""focus"",""1"",""14600""
""fullscreenenter"",""1"",""14732""
""fullscreenexit"",""2"",""19559""
","""event"",""trial"",""time""
""blur"",""0"",""0""
","""event"",""trial"",""time""
""focus"",""1"",""14600""
","""event"",""trial"",""time""
""fullscreenenter"",""1"",""14732""
","""event"",""trial"",""time""
""fullscreenexit"",""2"",""19559""
",,null,run_exp/static/audio/clip_15_q2_correct.m4a,null,<p>That’s correct. The experiment is 20 minutes no matter what.</p>,,,,,,,,,,,,,,,,,,,,,,,
quiz_q_3_ask,53,330521,0.0-18.0-1.0,"""event"",""trial"",""time""
""blur"",""0"",""0""
""focus"",""1"",""14600""
""fullscreenenter"",""1"",""14732""
""fullscreenexit"",""2"",""19559""
","""event"",""trial"",""time""
""blur"",""0"",""0""
","""event"",""trial"",""time""
""focus"",""1"",""14600""
","""event"",""trial"",""time""
""fullscreenenter"",""1"",""14732""
","""event"",""trial"",""time""
""fullscreenexit"",""2"",""19559""
",,2003.7,run_exp/static/audio/clip_17_q3_ask.m4a,,,,,,,1,,,,,,,,,,,,,,,,,,
quiz_q_3_fb_correct,54,334615,0.0-19.0-0.0,"""event"",""trial"",""time""
""blur"",""0"",""0""
""focus"",""1"",""14600""
""fullscreenenter"",""1"",""14732""
""fullscreenexit"",""2"",""19559""
","""event"",""trial"",""time""
""blur"",""0"",""0""
","""event"",""trial"",""time""
""focus"",""1"",""14600""
","""event"",""trial"",""time""
""fullscreenenter"",""1"",""14732""
","""event"",""trial"",""time""
""fullscreenexit"",""2"",""19559""
",,null,run_exp/static/audio/clip_18_q3_correct.m4a,null,<p> That’s correct. You press the letter L to travel to a new planet.</p>,,,,,,,,,,,,,,,,,,,,,,,
quiz_q_4_ask,55,337460,0.0-19.0-1.0,"""event"",""trial"",""time""
""blur"",""0"",""0""
""focus"",""1"",""14600""
""fullscreenenter"",""1"",""14732""
""fullscreenexit"",""2"",""19559""
","""event"",""trial"",""time""
""blur"",""0"",""0""
","""event"",""trial"",""time""
""focus"",""1"",""14600""
","""event"",""trial"",""time""
""fullscreenenter"",""1"",""14732""
","""event"",""trial"",""time""
""fullscreenexit"",""2"",""19559""
",,2843.3,run_exp/static/audio/clip_20_q4_ask.m4a,,,,,,,0,,,,,,,,,,,,,,,,,,
quiz_q_4_fb_correct,56,342895,0.0-20.0-0.0,"""event"",""trial"",""time""
""blur"",""0"",""0""
""focus"",""1"",""14600""
""fullscreenenter"",""1"",""14732""
""fullscreenexit"",""2"",""19559""
","""event"",""trial"",""time""
""blur"",""0"",""0""
","""event"",""trial"",""time""
""focus"",""1"",""14600""
","""event"",""trial"",""time""
""fullscreenenter"",""1"",""14732""
","""event"",""trial"",""time""
""fullscreenexit"",""2"",""19559""
",,null,run_exp/static/audio/clip_21_q4_correct.m4a,null,<p> That’s correct. The more you dig on a planet the fewer gems you’ll get with each dig. </p>,,,,,,,,,,,,,,,,,,,,,,,
quiz_q_5_ask,57,345485,0.0-20.0-1.0,"""event"",""trial"",""time""
""blur"",""0"",""0""
""focus"",""1"",""14600""
""fullscreenenter"",""1"",""14732""
""fullscreenexit"",""2"",""19559""
","""event"",""trial"",""time""
""blur"",""0"",""0""
","""event"",""trial"",""time""
""focus"",""1"",""14600""
","""event"",""trial"",""time""
""fullscreenenter"",""1"",""14732""
","""event"",""trial"",""time""
""fullscreenexit"",""2"",""19559""
",,2587,run_exp/static/audio/clip_23_q5_ask.m4a,,,,,,,1,,,,,,,,,,,,,,,,,,
quiz_q_5_fb_correct,58,350595,0.0-21.0-0.0,"""event"",""trial"",""time""
""blur"",""0"",""0""
""focus"",""1"",""14600""
""fullscreenenter"",""1"",""14732""
""fullscreenexit"",""2"",""19559""
","""event"",""trial"",""time""
""blur"",""0"",""0""
","""event"",""trial"",""time""
""focus"",""1"",""14600""
","""event"",""trial"",""time""
""fullscreenenter"",""1"",""14732""
","""event"",""trial"",""time""
""fullscreenexit"",""2"",""19559""
",,null,run_exp/static/audio/clip_24_q5_correct.m4a,null,<p> That’s correct. The alien tells you nothing about how much treasure is on the planet.</p>,,,,,,,,,,,,,,,,,,,,,,,
quiz_correct,59,354155,0.0-22.0-0.0,"""event"",""trial"",""time""
""blur"",""0"",""0""
""focus"",""1"",""14600""
""fullscreenenter"",""1"",""14732""
""fullscreenexit"",""2"",""19559""
","""event"",""trial"",""time""
""blur"",""0"",""0""
","""event"",""trial"",""time""
""focus"",""1"",""14600""
","""event"",""trial"",""time""
""fullscreenenter"",""1"",""14732""
","""event"",""trial"",""time""
""fullscreenexit"",""2"",""19559""
",,null,run_exp/static/audio/clip_26_correct_quiz.m4a,null,,,,,,,,,,,,,,,,,,,,,,,,
quiz_correct_continue,60,355401,0.0-22.0-1.0,"""event"",""trial"",""time""
""blur"",""0"",""0""
""focus"",""1"",""14600""
""fullscreenenter"",""1"",""14732""
""fullscreenexit"",""2"",""19559""
","""event"",""trial"",""time""
""blur"",""0"",""0""
","""event"",""trial"",""time""
""focus"",""1"",""14600""
","""event"",""trial"",""time""
""fullscreenenter"",""1"",""14732""
","""event"",""trial"",""time""
""fullscreenexit"",""2"",""19559""
",,1244.2,<p>Good job! You're now ready to move on to the real game!</p>,,,,,,,0,,,,,,,,,,,,,,,,,,
audio-keyboard-response,61,365636,0.0-22.0-2.0,"""event"",""trial"",""time""
""blur"",""0"",""0""
""focus"",""1"",""14600""
""fullscreenenter"",""1"",""14732""
""fullscreenexit"",""2"",""19559""
","""event"",""trial"",""time""
""blur"",""0"",""0""
","""event"",""trial"",""time""
""focus"",""1"",""14600""
","""event"",""trial"",""time""
""fullscreenenter"",""1"",""14732""
","""event"",""trial"",""time""
""fullscreenexit"",""2"",""19559""
",,null,run_exp/static/audio/clip_28_real_game.m4a,null,,,,,,,,,,,,,,,,,,,,,,,,
instruc_begin_exp_contine,62,390201,0.0-22.0-3.0,"""event"",""trial"",""time""
""blur"",""0"",""0""
""focus"",""1"",""14600""
""fullscreenenter"",""1"",""14732""
""fullscreenexit"",""2"",""19559""
","""event"",""trial"",""time""
""blur"",""0"",""0""
","""event"",""trial"",""time""
""focus"",""1"",""14600""
","""event"",""trial"",""time""
""fullscreenenter"",""1"",""14732""
","""event"",""trial"",""time""
""fullscreenexit"",""2"",""19559""
",,24564.6,"<p>Now that you know how  to dig for space treasure and travel to new planets,you can start exploring! </p><p>Do you want to go over the instructions again or get started with the real game?</p>",,,,,,,1,,,,,,1,,,,,,,,,,,,
alien_welcome,63,395213,0.0-23.0-0.0,"""event"",""trial"",""time""
""blur"",""0"",""0""
""focus"",""1"",""14600""
""fullscreenenter"",""1"",""14732""
""fullscreenexit"",""2"",""19559""
","""event"",""trial"",""time""
""blur"",""0"",""0""
","""event"",""trial"",""time""
""focus"",""1"",""14600""
","""event"",""trial"",""time""
""fullscreenenter"",""1"",""14732""
","""event"",""trial"",""time""
""fullscreenexit"",""2"",""19559""
",,null,run_exp/static/images/task_images/aliens/old_aliens/planet/alien_planet-70.jpg,null,,,,,,,,,,,,,70,"70,71,46,75,43,5,38,18,56,28,15,34,67,17,36,80,3,31,69,62,61,45,22,78,66,59,32,24,68,60,54,49,73,50,74,1,10,64,9,55,8,52",,,,,,,,,,
land,64,395719,0.0-23.0-1.0,"""event"",""trial"",""time""
""blur"",""0"",""0""
""focus"",""1"",""14600""
""fullscreenenter"",""1"",""14732""
""fullscreenexit"",""2"",""19559""
","""event"",""trial"",""time""
""blur"",""0"",""0""
","""event"",""trial"",""time""
""focus"",""1"",""14600""
","""event"",""trial"",""time""
""fullscreenenter"",""1"",""14732""
","""event"",""trial"",""time""
""fullscreenexit"",""2"",""19559""
",,null,run_exp/static/images/task_images/land.jpg,null,,,,,,,98,,,1,,,,,,,,,,,,,,
dig,65,397732,0.0-23.0-2.0,"""event"",""trial"",""time""
""blur"",""0"",""0""
""focus"",""1"",""14600""
""fullscreenenter"",""1"",""14732""
""fullscreenexit"",""2"",""19559""
","""event"",""trial"",""time""
""blur"",""0"",""0""
","""event"",""trial"",""time""
""focus"",""1"",""14600""
","""event"",""trial"",""time""
""fullscreenenter"",""1"",""14732""
","""event"",""trial"",""time""
""fullscreenexit"",""2"",""19559""
",,,,,,,,,,,,"[{""stimulus"":""run_exp/static/images/task_images/dig.jpg"",""time"":0.40000009536743164},{""stimulus"":""run_exp/static/images/task_images/land.jpg"",""time"":676.7999999523163},{""stimulus"":""run_exp/static/images/task_images/dig.jpg"",""time"":1336.5}]",[],1,,,,,,,,,,,,,,
harvest,66,398742,0.0-23.0-3.0,"""event"",""trial"",""time""
""blur"",""0"",""0""
""focus"",""1"",""14600""
""fullscreenenter"",""1"",""14732""
""fullscreenexit"",""2"",""19559""
","""event"",""trial"",""time""
""blur"",""0"",""0""
","""event"",""trial"",""time""
""focus"",""1"",""14600""
","""event"",""trial"",""time""
""fullscreenenter"",""1"",""14732""
","""event"",""trial"",""time""
""fullscreenexit"",""2"",""19559""
",,null,run_exp/static/images/task_images/gems/98.jpg,null,,,,,,,17,,,1,,,,,98,0.169870402,0.173469388,,,,,,,
decision,67,399139,0.0-23.0-4.0,"""event"",""trial"",""time""
""blur"",""0"",""0""
""focus"",""1"",""14600""
""fullscreenenter"",""1"",""14732""
""fullscreenexit"",""2"",""19559""
","""event"",""trial"",""time""
""blur"",""0"",""0""
","""event"",""trial"",""time""
""focus"",""1"",""14600""
","""event"",""trial"",""time""
""fullscreenenter"",""1"",""14732""
","""event"",""trial"",""time""
""fullscreenexit"",""2"",""19559""
",,394.7,run_exp/static/images/task_images/land.jpg,65,,,,,,,17,,,1,,,,,,,,8936,1,0,FALSE,,,
dig,68,401756,0.0-24.0-0.0,"""event"",""trial"",""time""
""blur"",""0"",""0""
""focus"",""1"",""14600""
""fullscreenenter"",""1"",""14732""
""fullscreenexit"",""2"",""19559""
","""event"",""trial"",""time""
""blur"",""0"",""0""
","""event"",""trial"",""time""
""focus"",""1"",""14600""
","""event"",""trial"",""time""
""fullscreenenter"",""1"",""14732""
","""event"",""trial"",""time""
""fullscreenexit"",""2"",""19559""
",,,,,,,,,,,,"[{""stimulus"":""run_exp/static/images/task_images/dig.jpg"",""time"":0.20000004768371582},{""stimulus"":""run_exp/static/images/task_images/land.jpg"",""time"":882.7999999523163},{""stimulus"":""run_exp/static/images/task_images/dig.jpg"",""time"":1748}]",[],1,,,,,,,,,,,,,,
harvest,69,402765,0.0-24.0-1.0,"""event"",""trial"",""time""
""blur"",""0"",""0""
""focus"",""1"",""14600""
""fullscreenenter"",""1"",""14732""
""fullscreenexit"",""2"",""19559""
","""event"",""trial"",""time""
""blur"",""0"",""0""
","""event"",""trial"",""time""
""focus"",""1"",""14600""
","""event"",""trial"",""time""
""fullscreenenter"",""1"",""14732""
","""event"",""trial"",""time""
""fullscreenexit"",""2"",""19559""
",,null,run_exp/static/images/task_images/gems/17.jpg,null,,,,,,,2,,,1,,,,,17,0.096462676,0.117647059,,,,,,,
decision,70,402834,0.0-24.0-2.0,"""event"",""trial"",""time""
""blur"",""0"",""0""
""focus"",""1"",""14600""
""fullscreenenter"",""1"",""14732""
""fullscreenexit"",""2"",""19559""
","""event"",""trial"",""time""
""blur"",""0"",""0""
","""event"",""trial"",""time""
""focus"",""1"",""14600""
","""event"",""trial"",""time""
""fullscreenenter"",""1"",""14732""
","""event"",""trial"",""time""
""fullscreenexit"",""2"",""19559""
",,66.5999999,run_exp/static/images/task_images/land.jpg,65,,,,,,,2,,,1,,,,,,,,12630,1,1,FALSE,,,
dig,71,405776,0.0-25.0-0.0,"""event"",""trial"",""time""
""blur"",""0"",""0""
""focus"",""1"",""14600""
""fullscreenenter"",""1"",""14732""
""fullscreenexit"",""2"",""19559""
","""event"",""trial"",""time""
""blur"",""0"",""0""
","""event"",""trial"",""time""
""focus"",""1"",""14600""
","""event"",""trial"",""time""
""fullscreenenter"",""1"",""14732""
","""event"",""trial"",""time""
""fullscreenexit"",""2"",""19559""
",,,,,,,,,,,,"[{""stimulus"":""run_exp/static/images/task_images/dig.jpg"",""time"":0.09999990463256836},{""stimulus"":""run_exp/static/images/task_images/land.jpg"",""time"":990.9000000953674},{""stimulus"":""run_exp/static/images/task_images/dig.jpg"",""time"":1971.2999999523163}]",[],1,,,,,,,,,,,,,,
harvest,72,406786,0.0-25.0-1.0,"""event"",""trial"",""time""
""blur"",""0"",""0""
""focus"",""1"",""14600""
""fullscreenenter"",""1"",""14732""
""fullscreenexit"",""2"",""19559""
","""event"",""trial"",""time""
""blur"",""0"",""0""
","""event"",""trial"",""time""
""focus"",""1"",""14600""
","""event"",""trial"",""time""
""fullscreenenter"",""1"",""14732""
","""event"",""trial"",""time""
""fullscreenexit"",""2"",""19559""
",,null,run_exp/static/images/task_images/gems/2.jpg,null,,,,,,,1,,,1,,,,,2,0.359318272,0.5,,,,,,,
decision,73,406988,0.0-25.0-2.0,"""event"",""trial"",""time""
""blur"",""0"",""0""
""focus"",""1"",""14600""
""fullscreenenter"",""1"",""14732""
""fullscreenexit"",""2"",""19559""
","""event"",""trial"",""time""
""blur"",""0"",""0""
","""event"",""trial"",""time""
""focus"",""1"",""14600""
","""event"",""trial"",""time""
""fullscreenenter"",""1"",""14732""
","""event"",""trial"",""time""
""fullscreenexit"",""2"",""19559""
",,200.1000001,run_exp/static/images/task_images/land.jpg,76,,,,,,,1,,,1,,,,,,,,16785,1,2,TRUE,,,
travel,74,416790,0.0-26.0-0.0,"""event"",""trial"",""time""
""blur"",""0"",""0""
""focus"",""1"",""14600""
""fullscreenenter"",""1"",""14732""
""fullscreenexit"",""2"",""19559""
","""event"",""trial"",""time""
""blur"",""0"",""0""
","""event"",""trial"",""time""
""focus"",""1"",""14600""
","""event"",""trial"",""time""
""fullscreenenter"",""1"",""14732""
","""event"",""trial"",""time""
""fullscreenexit"",""2"",""19559""
",,,,,,,,,,,,"[{""stimulus"":""run_exp/static/images/task_images/rocket-01.jpg"",""time"":0.10000014305114746},{""stimulus"":""run_exp/static/images/task_images/rocket-02.jpg"",""time"":1095.1000001430511},{""stimulus"":""run_exp/static/images/task_images/rocket-03.jpg"",""time"":2179.9000000953674},{""stimulus"":""run_exp/static/images/task_images/rocket-04.jpg"",""time"":3274},{""stimulus"":""run_exp/static/images/task_images/rocket-05.jpg"",""time"":4355.299999952316},{""stimulus"":""run_exp/static/images/task_images/rocket-06.jpg"",""time"":5444.700000047684},{""stimulus"":""run_exp/static/images/task_images/rocket-07.jpg"",""time"":6534.299999952316},{""stimulus"":""run_exp/static/images/task_images/rocket-08.jpg"",""time"":7621.799999952316},{""stimulus"":""run_exp/static/images/task_images/rocket-09.jpg"",""time"":8707.900000095367}]",[],1,,,,,,,,,,,,,,
alien_welcome,75,421806,0.0-26.0-1.0,"""event"",""trial"",""time""
""blur"",""0"",""0""
""focus"",""1"",""14600""
""fullscreenenter"",""1"",""14732""
""fullscreenexit"",""2"",""19559""
","""event"",""trial"",""time""
""blur"",""0"",""0""
","""event"",""trial"",""time""
""focus"",""1"",""14600""
","""event"",""trial"",""time""
""fullscreenenter"",""1"",""14732""
","""event"",""trial"",""time""
""fullscreenexit"",""2"",""19559""
",,null,run_exp/static/images/task_images/aliens/old_aliens/planet/alien_planet-71.jpg,null,,,,,,,,,,,,,71,"70,71,46,75,43,5,38,18,56,28,15,34,67,17,36,80,3,31,69,62,61,45,22,78,66,59,32,24,68,60,54,49,73,50,74,1,10,64,9,55,8,52",,,,,,,,,,
land,76,422316,0.0-26.0-2.0,"""event"",""trial"",""time""
""blur"",""0"",""0""
""focus"",""1"",""14600""
""fullscreenenter"",""1"",""14732""
""fullscreenexit"",""2"",""19559""
","""event"",""trial"",""time""
""blur"",""0"",""0""
","""event"",""trial"",""time""
""focus"",""1"",""14600""
","""event"",""trial"",""time""
""fullscreenenter"",""1"",""14732""
","""event"",""trial"",""time""
""fullscreenexit"",""2"",""19559""
",,null,run_exp/static/images/task_images/land.jpg,null,,,,,,,104,,,2,,,,,,,,,,,,,,
dig,77,424327,0.0-26.0-3.0,"""event"",""trial"",""time""
""blur"",""0"",""0""
""focus"",""1"",""14600""
""fullscreenenter"",""1"",""14732""
""fullscreenexit"",""2"",""19559""
","""event"",""trial"",""time""
""blur"",""0"",""0""
","""event"",""trial"",""time""
""focus"",""1"",""14600""
","""event"",""trial"",""time""
""fullscreenenter"",""1"",""14732""
","""event"",""trial"",""time""
""fullscreenexit"",""2"",""19559""
",,,,,,,,,,,,"[{""stimulus"":""run_exp/static/images/task_images/dig.jpg"",""time"":0.2999999523162842},{""stimulus"":""run_exp/static/images/task_images/land.jpg"",""time"":673.0999999046326},{""stimulus"":""run_exp/static/images/task_images/dig.jpg"",""time"":1343.9000000953674}]",[],2,,,,,,,,,,,,,,
harvest,78,425332,0.0-26.0-4.0,"""event"",""trial"",""time""
""blur"",""0"",""0""
""focus"",""1"",""14600""
""fullscreenenter"",""1"",""14732""
""fullscreenexit"",""2"",""19559""
","""event"",""trial"",""time""
""blur"",""0"",""0""
","""event"",""trial"",""time""
""focus"",""1"",""14600""
","""event"",""trial"",""time""
""fullscreenenter"",""1"",""14732""
","""event"",""trial"",""time""
""fullscreenexit"",""2"",""19559""
",,null,run_exp/static/images/task_images/gems/104.jpg,null,,,,,,,16,,,2,,,,,104,0.150916053,0.153846154,,,,,,,
decision,79,425704,0.0-26.0-5.0,"""event"",""trial"",""time""
""blur"",""0"",""0""
""focus"",""1"",""14600""
""fullscreenenter"",""1"",""14732""
""fullscreenexit"",""2"",""19559""
","""event"",""trial"",""time""
""blur"",""0"",""0""
","""event"",""trial"",""time""
""focus"",""1"",""14600""
","""event"",""trial"",""time""
""fullscreenenter"",""1"",""14732""
","""event"",""trial"",""time""
""fullscreenexit"",""2"",""19559""
",,370,run_exp/static/images/task_images/land.jpg,65,,,,,,,16,,,2,,,,,,,,35500,1,0,FALSE,,,
dig,80,428338,0.0-27.0-0.0,"""event"",""trial"",""time""
""blur"",""0"",""0""
""focus"",""1"",""14600""
""fullscreenenter"",""1"",""14732""
""fullscreenexit"",""2"",""19559""
","""event"",""trial"",""time""
""blur"",""0"",""0""
","""event"",""trial"",""time""
""focus"",""1"",""14600""
","""event"",""trial"",""time""
""fullscreenenter"",""1"",""14732""
","""event"",""trial"",""time""
""fullscreenexit"",""2"",""19559""
",,,,,,,,,,,,"[{""stimulus"":""run_exp/static/images/task_images/dig.jpg"",""time"":0.19999980926513672},{""stimulus"":""run_exp/static/images/task_images/land.jpg"",""time"":891.2999999523163},{""stimulus"":""run_exp/static/images/task_images/dig.jpg"",""time"":1760.5}]",[],2,,,,,,,,,,,,,,
harvest,81,429340,0.0-27.0-1.0,"""event"",""trial"",""time""
""blur"",""0"",""0""
""focus"",""1"",""14600""
""fullscreenenter"",""1"",""14732""
""fullscreenexit"",""2"",""19559""
","""event"",""trial"",""time""
""blur"",""0"",""0""
","""event"",""trial"",""time""
""focus"",""1"",""14600""
","""event"",""trial"",""time""
""fullscreenenter"",""1"",""14732""
","""event"",""trial"",""time""
""fullscreenexit"",""2"",""19559""
",,null,run_exp/static/images/task_images/gems/16.jpg,null,,,,,,,4,,,2,,,,,16,0.227673286,0.25,,,,,,,
decision,82,429720,0.0-27.0-2.0,"""event"",""trial"",""time""
""blur"",""0"",""0""
""focus"",""1"",""14600""
""fullscreenenter"",""1"",""14732""
""fullscreenexit"",""2"",""19559""
","""event"",""trial"",""time""
""blur"",""0"",""0""
","""event"",""trial"",""time""
""focus"",""1"",""14600""
","""event"",""trial"",""time""
""fullscreenenter"",""1"",""14732""
","""event"",""trial"",""time""
""fullscreenexit"",""2"",""19559""
",,379.2,run_exp/static/images/task_images/land.jpg,65,,,,,,,4,,,2,,,,,,,,39516,1,1,FALSE,,,
dig,83,432344,0.0-28.0-0.0,"""event"",""trial"",""time""
""blur"",""0"",""0""
""focus"",""1"",""14600""
""fullscreenenter"",""1"",""14732""
""fullscreenexit"",""2"",""19559""
","""event"",""trial"",""time""
""blur"",""0"",""0""
","""event"",""trial"",""time""
""focus"",""1"",""14600""
","""event"",""trial"",""time""
""fullscreenenter"",""1"",""14732""
","""event"",""trial"",""time""
""fullscreenexit"",""2"",""19559""
",,,,,,,,,,,,"[{""stimulus"":""run_exp/static/images/task_images/dig.jpg"",""time"":0.09999990463256836},{""stimulus"":""run_exp/static/images/task_images/land.jpg"",""time"":875.7999999523163},{""stimulus"":""run_exp/static/images/task_images/dig.jpg"",""time"":1751.2999999523163}]",[],2,,,,,,,,,,,,,,
harvest,84,433352,0.0-28.0-1.0,"""event"",""trial"",""time""
""blur"",""0"",""0""
""focus"",""1"",""14600""
""fullscreenenter"",""1"",""14732""
""fullscreenexit"",""2"",""19559""
","""event"",""trial"",""time""
""blur"",""0"",""0""
","""event"",""trial"",""time""
""focus"",""1"",""14600""
","""event"",""trial"",""time""
""fullscreenenter"",""1"",""14732""
","""event"",""trial"",""time""
""fullscreenexit"",""2"",""19559""
",,null,run_exp/static/images/task_images/gems/4.jpg,null,,,,,,,1,,,2,,,,,4,0.14649071,0.25,,,,,,,
decision,85,433595,0.0-28.0-2.0,"""event"",""trial"",""time""
""blur"",""0"",""0""
""focus"",""1"",""14600""
""fullscreenenter"",""1"",""14732""
""fullscreenexit"",""2"",""19559""
","""event"",""trial"",""time""
""blur"",""0"",""0""
","""event"",""trial"",""time""
""focus"",""1"",""14600""
","""event"",""trial"",""time""
""fullscreenenter"",""1"",""14732""
","""event"",""trial"",""time""
""fullscreenexit"",""2"",""19559""
",,241.4000001,run_exp/static/images/task_images/land.jpg,65,,,,,,,1,,,2,,,,,,,,43391,1,2,FALSE,,,
dig,86,436358,0.0-29.0-0.0,"""event"",""trial"",""time""
""blur"",""0"",""0""
""focus"",""1"",""14600""
""fullscreenenter"",""1"",""14732""
""fullscreenexit"",""2"",""19559""
","""event"",""trial"",""time""
""blur"",""0"",""0""
","""event"",""trial"",""time""
""focus"",""1"",""14600""
","""event"",""trial"",""time""
""fullscreenenter"",""1"",""14732""
","""event"",""trial"",""time""
""fullscreenexit"",""2"",""19559""
",,,,,,,,,,,,"[{""stimulus"":""run_exp/static/images/task_images/dig.jpg"",""time"":0.20000004768371582},{""stimulus"":""run_exp/static/images/task_images/land.jpg"",""time"":920.9000000953674},{""stimulus"":""run_exp/static/images/task_images/dig.jpg"",""time"":1843.2000000476837}]",[],2,,,,,,,,,,,,,,
harvest,87,437366,0.0-29.0-1.0,"""event"",""trial"",""time""
""blur"",""0"",""0""
""focus"",""1"",""14600""
""fullscreenenter"",""1"",""14732""
""fullscreenexit"",""2"",""19559""
","""event"",""trial"",""time""
""blur"",""0"",""0""
","""event"",""trial"",""time""
""focus"",""1"",""14600""
","""event"",""trial"",""time""
""fullscreenenter"",""1"",""14732""
","""event"",""trial"",""time""
""fullscreenexit"",""2"",""19559""
",,null,run_exp/static/images/task_images/gems/1.jpg,null,,,,,,,0,,,2,,,,,1,0.239496435,0,,,,,,,
decision,88,438247,0.0-29.0-2.0,"""event"",""trial"",""time""
""blur"",""0"",""0""
""focus"",""1"",""14600""
""fullscreenenter"",""1"",""14732""
""fullscreenexit"",""2"",""19559""
","""event"",""trial"",""time""
""blur"",""0"",""0""
","""event"",""trial"",""time""
""focus"",""1"",""14600""
","""event"",""trial"",""time""
""fullscreenenter"",""1"",""14732""
","""event"",""trial"",""time""
""fullscreenexit"",""2"",""19559""
",,879.2,run_exp/static/images/task_images/land.jpg,76,,,,,,,0,,,2,,,,,,,,48044,1,3,TRUE,,,
travel,89,447377,0.0-30.0-0.0,"""event"",""trial"",""time""
""blur"",""0"",""0""
""focus"",""1"",""14600""
""fullscreenenter"",""1"",""14732""
""fullscreenexit"",""2"",""19559""
","""event"",""trial"",""time""
""blur"",""0"",""0""
","""event"",""trial"",""time""
""focus"",""1"",""14600""
","""event"",""trial"",""time""
""fullscreenenter"",""1"",""14732""
","""event"",""trial"",""time""
""fullscreenexit"",""2"",""19559""
",,,,,,,,,,,,"[{""stimulus"":""run_exp/static/images/task_images/rocket-01.jpg"",""time"":0.19999980926513672},{""stimulus"":""run_exp/static/images/task_images/rocket-02.jpg"",""time"":1026.1999998092651},{""stimulus"":""run_exp/static/images/task_images/rocket-03.jpg"",""time"":2035.0999999046326},{""stimulus"":""run_exp/static/images/task_images/rocket-04.jpg"",""time"":3041.7999999523163},{""stimulus"":""run_exp/static/images/task_images/rocket-05.jpg"",""time"":4055.699999809265},{""stimulus"":""run_exp/static/images/task_images/rocket-06.jpg"",""time"":5077.199999809265},{""stimulus"":""run_exp/static/images/task_images/rocket-07.jpg"",""time"":6084.299999952316},{""stimulus"":""run_exp/static/images/task_images/rocket-08.jpg"",""time"":7101.5},{""stimulus"":""run_exp/static/images/task_images/rocket-09.jpg"",""time"":8116}]",[],2,,,,,,,,,,,,,,
alien_welcome,90,452383,0.0-30.0-1.0,"""event"",""trial"",""time""
""blur"",""0"",""0""
""focus"",""1"",""14600""
""fullscreenenter"",""1"",""14732""
""fullscreenexit"",""2"",""19559""
","""event"",""trial"",""time""
""blur"",""0"",""0""
","""event"",""trial"",""time""
""focus"",""1"",""14600""
","""event"",""trial"",""time""
""fullscreenenter"",""1"",""14732""
","""event"",""trial"",""time""
""fullscreenexit"",""2"",""19559""
",,null,run_exp/static/images/task_images/aliens/old_aliens/planet/alien_planet-46.jpg,null,,,,,,,,,,,,,46,"70,71,46,75,43,5,38,18,56,28,15,34,67,17,36,80,3,31,69,62,61,45,22,78,66,59,32,24,68,60,54,49,73,50,74,1,10,64,9,55,8,52",,,,,,,,,,
land,91,452893,0.0-30.0-2.0,"""event"",""trial"",""time""
""blur"",""0"",""0""
""focus"",""1"",""14600""
""fullscreenenter"",""1"",""14732""
""fullscreenexit"",""2"",""19559""
","""event"",""trial"",""time""
""blur"",""0"",""0""
","""event"",""trial"",""time""
""focus"",""1"",""14600""
","""event"",""trial"",""time""
""fullscreenenter"",""1"",""14732""
","""event"",""trial"",""time""
""fullscreenexit"",""2"",""19559""
",,null,run_exp/static/images/task_images/land.jpg,null,,,,,,,100,,,3,,,,,,,,,,,,,,
dig,92,454906,0.0-30.0-3.0,"""event"",""trial"",""time""
""blur"",""0"",""0""
""focus"",""1"",""14600""
""fullscreenenter"",""1"",""14732""
""fullscreenexit"",""2"",""19559""
","""event"",""trial"",""time""
""blur"",""0"",""0""
","""event"",""trial"",""time""
""focus"",""1"",""14600""
","""event"",""trial"",""time""
""fullscreenenter"",""1"",""14732""
","""event"",""trial"",""time""
""fullscreenexit"",""2"",""19559""
",,,,,,,,,,,,"[{""stimulus"":""run_exp/static/images/task_images/dig.jpg"",""time"":0.2999999523162842},{""stimulus"":""run_exp/static/images/task_images/land.jpg"",""time"":672.6000001430511},{""stimulus"":""run_exp/static/images/task_images/dig.jpg"",""time"":1345.7999999523163}]",[],3,,,,,,,,,,,,,,
harvest,93,455916,0.0-30.0-4.0,"""event"",""trial"",""time""
""blur"",""0"",""0""
""focus"",""1"",""14600""
""fullscreenenter"",""1"",""14732""
""fullscreenexit"",""2"",""19559""
","""event"",""trial"",""time""
""blur"",""0"",""0""
","""event"",""trial"",""time""
""focus"",""1"",""14600""
","""event"",""trial"",""time""
""fullscreenenter"",""1"",""14732""
","""event"",""trial"",""time""
""fullscreenexit"",""2"",""19559""
",,null,run_exp/static/images/task_images/gems/100.jpg,null,,,,,,,44,,,3,,,,,100,0.442425765,0.44,,,,,,,
decision,94,456059,0.0-30.0-5.0,"""event"",""trial"",""time""
""blur"",""0"",""0""
""focus"",""1"",""14600""
""fullscreenenter"",""1"",""14732""
""fullscreenexit"",""2"",""19559""
","""event"",""trial"",""time""
""blur"",""0"",""0""
","""event"",""trial"",""time""
""focus"",""1"",""14600""
","""event"",""trial"",""time""
""fullscreenenter"",""1"",""14732""
","""event"",""trial"",""time""
""fullscreenexit"",""2"",""19559""
",,140.8,run_exp/static/images/task_images/land.jpg,65,,,,,,,44,,,3,,,,,,,,65855,1,0,FALSE,,,
dig,95,458925,0.0-31.0-0.0,"""event"",""trial"",""time""
""blur"",""0"",""0""
""focus"",""1"",""14600""
""fullscreenenter"",""1"",""14732""
""fullscreenexit"",""2"",""19559""
","""event"",""trial"",""time""
""blur"",""0"",""0""
","""event"",""trial"",""time""
""focus"",""1"",""14600""
","""event"",""trial"",""time""
""fullscreenenter"",""1"",""14732""
","""event"",""trial"",""time""
""fullscreenexit"",""2"",""19559""
",,,,,,,,,,,,"[{""stimulus"":""run_exp/static/images/task_images/dig.jpg"",""time"":0.20000004768371582},{""stimulus"":""run_exp/static/images/task_images/land.jpg"",""time"":958.4000000953674},{""stimulus"":""run_exp/static/images/task_images/dig.jpg"",""time"":1913.8000001907349}]",[],3,,,,,,,,,,,,,,
harvest,96,459935,0.0-31.0-1.0,"""event"",""trial"",""time""
""blur"",""0"",""0""
""focus"",""1"",""14600""
""fullscreenenter"",""1"",""14732""
""fullscreenexit"",""2"",""19559""
","""event"",""trial"",""time""
""blur"",""0"",""0""
","""event"",""trial"",""time""
""focus"",""1"",""14600""
","""event"",""trial"",""time""
""fullscreenenter"",""1"",""14732""
","""event"",""trial"",""time""
""fullscreenexit"",""2"",""19559""
",,null,run_exp/static/images/task_images/gems/44.jpg,null,,,,,,,21,,,3,,,,,44,0.476376203,0.477272727,,,,,,,
decision,97,460998,0.0-31.0-2.0,"""event"",""trial"",""time""
""blur"",""0"",""0""
""focus"",""1"",""14600""
""fullscreenenter"",""1"",""14732""
""fullscreenexit"",""2"",""19559""
","""event"",""trial"",""time""
""blur"",""0"",""0""
","""event"",""trial"",""time""
""focus"",""1"",""14600""
","""event"",""trial"",""time""
""fullscreenenter"",""1"",""14732""
","""event"",""trial"",""time""
""fullscreenexit"",""2"",""19559""
",,1060.7,run_exp/static/images/task_images/land.jpg,76,,,,,,,21,,,3,,,,,,,,70794,1,1,TRUE,,,
travel,98,469950,0.0-32.0-0.0,"""event"",""trial"",""time""
""blur"",""0"",""0""
""focus"",""1"",""14600""
""fullscreenenter"",""1"",""14732""
""fullscreenexit"",""2"",""19559""
","""event"",""trial"",""time""
""blur"",""0"",""0""
","""event"",""trial"",""time""
""focus"",""1"",""14600""
","""event"",""trial"",""time""
""fullscreenenter"",""1"",""14732""
","""event"",""trial"",""time""
""fullscreenexit"",""2"",""19559""
",,,,,,,,,,,,"[{""stimulus"":""run_exp/static/images/task_images/rocket-01.jpg"",""time"":0.10000014305114746},{""stimulus"":""run_exp/static/images/task_images/rocket-02.jpg"",""time"":996.7000000476837},{""stimulus"":""run_exp/static/images/task_images/rocket-03.jpg"",""time"":1996.7000000476837},{""stimulus"":""run_exp/static/images/task_images/rocket-04.jpg"",""time"":2985.4000000953674},{""stimulus"":""run_exp/static/images/task_images/rocket-05.jpg"",""time"":3975.4000000953674},{""stimulus"":""run_exp/static/images/task_images/rocket-06.jpg"",""time"":4976.799999952316},{""stimulus"":""run_exp/static/images/task_images/rocket-07.jpg"",""time"":5963.200000047684},{""stimulus"":""run_exp/static/images/task_images/rocket-08.jpg"",""time"":6962.100000143051},{""stimulus"":""run_exp/static/images/task_images/rocket-09.jpg"",""time"":7947}]",[],3,,,,,,,,,,,,,,
alien_welcome,99,474963,0.0-32.0-1.0,"""event"",""trial"",""time""
""blur"",""0"",""0""
""focus"",""1"",""14600""
""fullscreenenter"",""1"",""14732""
""fullscreenexit"",""2"",""19559""
","""event"",""trial"",""time""
""blur"",""0"",""0""
","""event"",""trial"",""time""
""focus"",""1"",""14600""
","""event"",""trial"",""time""
""fullscreenenter"",""1"",""14732""
","""event"",""trial"",""time""
""fullscreenexit"",""2"",""19559""
",,null,run_exp/static/images/task_images/aliens/old_aliens/planet/alien_planet-75.jpg,null,,,,,,,,,,,,,75,"70,71,46,75,43,5,38,18,56,28,15,34,67,17,36,80,3,31,69,62,61,45,22,78,66,59,32,24,68,60,54,49,73,50,74,1,10,64,9,55,8,52",,,,,,,,,,
land,100,475467,0.0-32.0-2.0,"""event"",""trial"",""time""
""blur"",""0"",""0""
""focus"",""1"",""14600""
""fullscreenenter"",""1"",""14732""
""fullscreenexit"",""2"",""19559""
","""event"",""trial"",""time""
""blur"",""0"",""0""
","""event"",""trial"",""time""
""focus"",""1"",""14600""
","""event"",""trial"",""time""
""fullscreenenter"",""1"",""14732""
","""event"",""trial"",""time""
""fullscreenexit"",""2"",""19559""
",,null,run_exp/static/images/task_images/land.jpg,null,,,,,,,91,,,4,,,,,,,,,,,,,,
dig,101,477473,0.0-32.0-3.0,"""event"",""trial"",""time""
""blur"",""0"",""0""
""focus"",""1"",""14600""
""fullscreenenter"",""1"",""14732""
""fullscreenexit"",""2"",""19559""
","""event"",""trial"",""time""
""blur"",""0"",""0""
","""event"",""trial"",""time""
""focus"",""1"",""14600""
","""event"",""trial"",""time""
""fullscreenenter"",""1"",""14732""
","""event"",""trial"",""time""
""fullscreenexit"",""2"",""19559""
",,,,,,,,,,,,"[{""stimulus"":""run_exp/static/images/task_images/dig.jpg"",""time"":0.20000004768371582},{""stimulus"":""run_exp/static/images/task_images/land.jpg"",""time"":669.2000000476837},{""stimulus"":""run_exp/static/images/task_images/dig.jpg"",""time"":1340.7000000476837}]",[],4,,,,,,,,,,,,,,
harvest,102,478487,0.0-32.0-4.0,"""event"",""trial"",""time""
""blur"",""0"",""0""
""focus"",""1"",""14600""
""fullscreenenter"",""1"",""14732""
""fullscreenexit"",""2"",""19559""
","""event"",""trial"",""time""
""blur"",""0"",""0""
","""event"",""trial"",""time""
""focus"",""1"",""14600""
","""event"",""trial"",""time""
""fullscreenenter"",""1"",""14732""
","""event"",""trial"",""time""
""fullscreenexit"",""2"",""19559""
",,null,run_exp/static/images/task_images/gems/91.jpg,null,,,,,,,50,,,4,,,,,91,0.545047815,0.549450549,,,,,,,
decision,103,478833,0.0-32.0-5.0,"""event"",""trial"",""time""
""blur"",""0"",""0""
""focus"",""1"",""14600""
""fullscreenenter"",""1"",""14732""
""fullscreenexit"",""2"",""19559""
","""event"",""trial"",""time""
""blur"",""0"",""0""
","""event"",""trial"",""time""
""focus"",""1"",""14600""
","""event"",""trial"",""time""
""fullscreenenter"",""1"",""14732""
","""event"",""trial"",""time""
""fullscreenexit"",""2"",""19559""
",,344.7,run_exp/static/images/task_images/land.jpg,65,,,,,,,50,,,4,,,,,,,,88629,1,0,FALSE,,,
dig,104,481504,0.0-33.0-0.0,"""event"",""trial"",""time""
""blur"",""0"",""0""
""focus"",""1"",""14600""
""fullscreenenter"",""1"",""14732""
""fullscreenexit"",""2"",""19559""
","""event"",""trial"",""time""
""blur"",""0"",""0""
","""event"",""trial"",""time""
""focus"",""1"",""14600""
","""event"",""trial"",""time""
""fullscreenenter"",""1"",""14732""
","""event"",""trial"",""time""
""fullscreenexit"",""2"",""19559""
",,,,,,,,,,,,"[{""stimulus"":""run_exp/static/images/task_images/dig.jpg"",""time"":0.19999980926513672},{""stimulus"":""run_exp/static/images/task_images/land.jpg"",""time"":901.5},{""stimulus"":""run_exp/static/images/task_images/dig.jpg"",""time"":1781.3999998569489}]",[],4,,,,,,,,,,,,,,
harvest,105,482520,0.0-33.0-1.0,"""event"",""trial"",""time""
""blur"",""0"",""0""
""focus"",""1"",""14600""
""fullscreenenter"",""1"",""14732""
""fullscreenexit"",""2"",""19559""
","""event"",""trial"",""time""
""blur"",""0"",""0""
","""event"",""trial"",""time""
""focus"",""1"",""14600""
","""event"",""trial"",""time""
""fullscreenenter"",""1"",""14732""
","""event"",""trial"",""time""
""fullscreenexit"",""2"",""19559""
",,null,run_exp/static/images/task_images/gems/50.jpg,null,,,,,,,22,,,4,,,,,50,0.439587146,0.44,,,,,,,
decision,106,482600,0.0-33.0-2.0,"""event"",""trial"",""time""
""blur"",""0"",""0""
""focus"",""1"",""14600""
""fullscreenenter"",""1"",""14732""
""fullscreenexit"",""2"",""19559""
","""event"",""trial"",""time""
""blur"",""0"",""0""
","""event"",""trial"",""time""
""focus"",""1"",""14600""
","""event"",""trial"",""time""
""fullscreenenter"",""1"",""14732""
","""event"",""trial"",""time""
""fullscreenexit"",""2"",""19559""
",,77.79999995,run_exp/static/images/task_images/land.jpg,65,,,,,,,22,,,4,,,,,,,,92396,1,1,FALSE,,,
dig,107,485537,0.0-34.0-0.0,"""event"",""trial"",""time""
""blur"",""0"",""0""
""focus"",""1"",""14600""
""fullscreenenter"",""1"",""14732""
""fullscreenexit"",""2"",""19559""
","""event"",""trial"",""time""
""blur"",""0"",""0""
","""event"",""trial"",""time""
""focus"",""1"",""14600""
","""event"",""trial"",""time""
""fullscreenenter"",""1"",""14732""
","""event"",""trial"",""time""
""fullscreenexit"",""2"",""19559""
",,,,,,,,,,,,"[{""stimulus"":""run_exp/static/images/task_images/dig.jpg"",""time"":0.09999990463256836},{""stimulus"":""run_exp/static/images/task_images/land.jpg"",""time"":976},{""stimulus"":""run_exp/static/images/task_images/dig.jpg"",""time"":1953}]",[],4,,,,,,,,,,,,,,
harvest,108,486545,0.0-34.0-1.0,"""event"",""trial"",""time""
""blur"",""0"",""0""
""focus"",""1"",""14600""
""fullscreenenter"",""1"",""14732""
""fullscreenexit"",""2"",""19559""
","""event"",""trial"",""time""
""blur"",""0"",""0""
","""event"",""trial"",""time""
""focus"",""1"",""14600""
","""event"",""trial"",""time""
""fullscreenenter"",""1"",""14732""
","""event"",""trial"",""time""
""fullscreenexit"",""2"",""19559""
",,null,run_exp/static/images/task_images/gems/22.jpg,null,,,,,,,12,,,4,,,,,22,0.558635211,0.545454545,,,,,,,
decision,109,487169,0.0-34.0-2.0,"""event"",""trial"",""time""
""blur"",""0"",""0""
""focus"",""1"",""14600""
""fullscreenenter"",""1"",""14732""
""fullscreenexit"",""2"",""19559""
","""event"",""trial"",""time""
""blur"",""0"",""0""
","""event"",""trial"",""time""
""focus"",""1"",""14600""
","""event"",""trial"",""time""
""fullscreenenter"",""1"",""14732""
","""event"",""trial"",""time""
""fullscreenexit"",""2"",""19559""
",,622.7,run_exp/static/images/task_images/land.jpg,76,,,,,,,12,,,4,,,,,,,,96965,1,2,TRUE,,,
travel,110,496547,0.0-35.0-0.0,"""event"",""trial"",""time""
""blur"",""0"",""0""
""focus"",""1"",""14600""
""fullscreenenter"",""1"",""14732""
""fullscreenexit"",""2"",""19559""
","""event"",""trial"",""time""
""blur"",""0"",""0""
","""event"",""trial"",""time""
""focus"",""1"",""14600""
","""event"",""trial"",""time""
""fullscreenenter"",""1"",""14732""
","""event"",""trial"",""time""
""fullscreenexit"",""2"",""19559""
",,,,,,,,,,,,"[{""stimulus"":""run_exp/static/images/task_images/rocket-01.jpg"",""time"":0.20000004768371582},{""stimulus"":""run_exp/static/images/task_images/rocket-02.jpg"",""time"":1055.8000001907349},{""stimulus"":""run_exp/static/images/task_images/rocket-03.jpg"",""time"":2084.9000000953674},{""stimulus"":""run_exp/static/images/task_images/rocket-04.jpg"",""time"":3136.600000143051},{""stimulus"":""run_exp/static/images/task_images/rocket-05.jpg"",""time"":4174.300000190735},{""stimulus"":""run_exp/static/images/task_images/rocket-06.jpg"",""time"":5215.800000190735},{""stimulus"":""run_exp/static/images/task_images/rocket-07.jpg"",""time"":6252.200000047684},{""stimulus"":""run_exp/static/images/task_images/rocket-08.jpg"",""time"":7299.600000143051},{""stimulus"":""run_exp/static/images/task_images/rocket-09.jpg"",""time"":8344.200000047684}]",[],4,,,,,,,,,,,,,,
alien_welcome,111,501560,0.0-35.0-1.0,"""event"",""trial"",""time""
""blur"",""0"",""0""
""focus"",""1"",""14600""
""fullscreenenter"",""1"",""14732""
""fullscreenexit"",""2"",""19559""
","""event"",""trial"",""time""
""blur"",""0"",""0""
","""event"",""trial"",""time""
""focus"",""1"",""14600""
","""event"",""trial"",""time""
""fullscreenenter"",""1"",""14732""
","""event"",""trial"",""time""
""fullscreenexit"",""2"",""19559""
",,null,run_exp/static/images/task_images/aliens/old_aliens/planet/alien_planet-43.jpg,null,,,,,,,,,,,,,43,"70,71,46,75,43,5,38,18,56,28,15,34,67,17,36,80,3,31,69,62,61,45,22,78,66,59,32,24,68,60,54,49,73,50,74,1,10,64,9,55,8,52",,,,,,,,,,
land,112,502074,0.0-35.0-2.0,"""event"",""trial"",""time""
""blur"",""0"",""0""
""focus"",""1"",""14600""
""fullscreenenter"",""1"",""14732""
""fullscreenexit"",""2"",""19559""
","""event"",""trial"",""time""
""blur"",""0"",""0""
","""event"",""trial"",""time""
""focus"",""1"",""14600""
","""event"",""trial"",""time""
""fullscreenenter"",""1"",""14732""
","""event"",""trial"",""time""
""fullscreenexit"",""2"",""19559""
",,null,run_exp/static/images/task_images/land.jpg,null,,,,,,,97,,,5,,,,,,,,,,,,,,
dig,113,504084,0.0-35.0-3.0,"""event"",""trial"",""time""
""blur"",""0"",""0""
""focus"",""1"",""14600""
""fullscreenenter"",""1"",""14732""
""fullscreenexit"",""2"",""19559""
","""event"",""trial"",""time""
""blur"",""0"",""0""
","""event"",""trial"",""time""
""focus"",""1"",""14600""
","""event"",""trial"",""time""
""fullscreenenter"",""1"",""14732""
","""event"",""trial"",""time""
""fullscreenexit"",""2"",""19559""
",,,,,,,,,,,,"[{""stimulus"":""run_exp/static/images/task_images/dig.jpg"",""time"":0.2999999523162842},{""stimulus"":""run_exp/static/images/task_images/land.jpg"",""time"":670.3999998569489},{""stimulus"":""run_exp/static/images/task_images/dig.jpg"",""time"":1335.7000000476837}]",[],5,,,,,,,,,,,,,,
harvest,114,505088,0.0-35.0-4.0,"""event"",""trial"",""time""
""blur"",""0"",""0""
""focus"",""1"",""14600""
""fullscreenenter"",""1"",""14732""
""fullscreenexit"",""2"",""19559""
","""event"",""trial"",""time""
""blur"",""0"",""0""
","""event"",""trial"",""time""
""focus"",""1"",""14600""
","""event"",""trial"",""time""
""fullscreenenter"",""1"",""14732""
","""event"",""trial"",""time""
""fullscreenexit"",""2"",""19559""
",,null,run_exp/static/images/task_images/gems/97.jpg,null,,,,,,,55,,,5,,,,,97,0.570958575,0.567010309,,,,,,,
decision,115,505282,0.0-35.0-5.0,"""event"",""trial"",""time""
""blur"",""0"",""0""
""focus"",""1"",""14600""
""fullscreenenter"",""1"",""14732""
""fullscreenexit"",""2"",""19559""
","""event"",""trial"",""time""
""blur"",""0"",""0""
","""event"",""trial"",""time""
""focus"",""1"",""14600""
","""event"",""trial"",""time""
""fullscreenenter"",""1"",""14732""
","""event"",""trial"",""time""
""fullscreenexit"",""2"",""19559""
",,192.0999999,run_exp/static/images/task_images/land.jpg,65,,,,,,,55,,,5,,,,,,,,115078,1,0,FALSE,,,
dig,116,508096,0.0-36.0-0.0,"""event"",""trial"",""time""
""blur"",""0"",""0""
""focus"",""1"",""14600""
""fullscreenenter"",""1"",""14732""
""fullscreenexit"",""2"",""19559""
","""event"",""trial"",""time""
""blur"",""0"",""0""
","""event"",""trial"",""time""
""focus"",""1"",""14600""
","""event"",""trial"",""time""
""fullscreenenter"",""1"",""14732""
","""event"",""trial"",""time""
""fullscreenexit"",""2"",""19559""
",,,,,,,,,,,,"[{""stimulus"":""run_exp/static/images/task_images/dig.jpg"",""time"":0.39999985694885254},{""stimulus"":""run_exp/static/images/task_images/land.jpg"",""time"":944.7999999523163},{""stimulus"":""run_exp/static/images/task_images/dig.jpg"",""time"":1877.8999998569489}]",[],5,,,,,,,,,,,,,,
harvest,117,509106,0.0-36.0-1.0,"""event"",""trial"",""time""
""blur"",""0"",""0""
""focus"",""1"",""14600""
""fullscreenenter"",""1"",""14732""
""fullscreenexit"",""2"",""19559""
","""event"",""trial"",""time""
""blur"",""0"",""0""
","""event"",""trial"",""time""
""focus"",""1"",""14600""
","""event"",""trial"",""time""
""fullscreenenter"",""1"",""14732""
","""event"",""trial"",""time""
""fullscreenexit"",""2"",""19559""
",,null,run_exp/static/images/task_images/gems/55.jpg,null,,,,,,,29,,,5,,,,,55,0.533058469,0.527272727,,,,,,,
decision,118,509145,0.0-36.0-2.0,"""event"",""trial"",""time""
""blur"",""0"",""0""
""focus"",""1"",""14600""
""fullscreenenter"",""1"",""14732""
""fullscreenexit"",""2"",""19559""
","""event"",""trial"",""time""
""blur"",""0"",""0""
","""event"",""trial"",""time""
""focus"",""1"",""14600""
","""event"",""trial"",""time""
""fullscreenenter"",""1"",""14732""
","""event"",""trial"",""time""
""fullscreenexit"",""2"",""19559""
",,36.89999986,run_exp/static/images/task_images/land.jpg,65,,,,,,,29,,,5,,,,,,,,118941,1,1,FALSE,,,
dig,119,512124,0.0-37.0-0.0,"""event"",""trial"",""time""
""blur"",""0"",""0""
""focus"",""1"",""14600""
""fullscreenenter"",""1"",""14732""
""fullscreenexit"",""2"",""19559""
","""event"",""trial"",""time""
""blur"",""0"",""0""
","""event"",""trial"",""time""
""focus"",""1"",""14600""
","""event"",""trial"",""time""
""fullscreenenter"",""1"",""14732""
","""event"",""trial"",""time""
""fullscreenexit"",""2"",""19559""
",,,,,,,,,,,,"[{""stimulus"":""run_exp/static/images/task_images/dig.jpg"",""time"":0.20000004768371582},{""stimulus"":""run_exp/static/images/task_images/land.jpg"",""time"":1001.6000001430511},{""stimulus"":""run_exp/static/images/task_images/dig.jpg"",""time"":1977.9000000953674}]",[],5,,,,,,,,,,,,,,
harvest,120,513140,0.0-37.0-1.0,"""event"",""trial"",""time""
""blur"",""0"",""0""
""focus"",""1"",""14600""
""fullscreenenter"",""1"",""14732""
""fullscreenexit"",""2"",""19559""
","""event"",""trial"",""time""
""blur"",""0"",""0""
","""event"",""trial"",""time""
""focus"",""1"",""14600""
","""event"",""trial"",""time""
""fullscreenenter"",""1"",""14732""
","""event"",""trial"",""time""
""fullscreenexit"",""2"",""19559""
",,null,run_exp/static/images/task_images/gems/29.jpg,null,,,,,,,15,,,5,,,,,29,0.523582639,0.517241379,,,,,,,
decision,121,513238,0.0-37.0-2.0,"""event"",""trial"",""time""
""blur"",""0"",""0""
""focus"",""1"",""14600""
""fullscreenenter"",""1"",""14732""
""fullscreenexit"",""2"",""19559""
","""event"",""trial"",""time""
""blur"",""0"",""0""
","""event"",""trial"",""time""
""focus"",""1"",""14600""
","""event"",""trial"",""time""
""fullscreenenter"",""1"",""14732""
","""event"",""trial"",""time""
""fullscreenexit"",""2"",""19559""
",,95.60000014,run_exp/static/images/task_images/land.jpg,65,,,,,,,15,,,5,,,,,,,,123034,1,2,FALSE,,,
dig,122,516154,0.0-38.0-0.0,"""event"",""trial"",""time""
""blur"",""0"",""0""
""focus"",""1"",""14600""
""fullscreenenter"",""1"",""14732""
""fullscreenexit"",""2"",""19559""
","""event"",""trial"",""time""
""blur"",""0"",""0""
","""event"",""trial"",""time""
""focus"",""1"",""14600""
","""event"",""trial"",""time""
""fullscreenenter"",""1"",""14732""
","""event"",""trial"",""time""
""fullscreenexit"",""2"",""19559""
",,,,,,,,,,,,"[{""stimulus"":""run_exp/static/images/task_images/dig.jpg"",""time"":0.20000004768371582},{""stimulus"":""run_exp/static/images/task_images/land.jpg"",""time"":970.1000001430511},{""stimulus"":""run_exp/static/images/task_images/dig.jpg"",""time"":1945.9000000953674}]",[],5,,,,,,,,,,,,,,
harvest,123,517160,0.0-38.0-1.0,"""event"",""trial"",""time""
""blur"",""0"",""0""
""focus"",""1"",""14600""
""fullscreenenter"",""1"",""14732""
""fullscreenexit"",""2"",""19559""
","""event"",""trial"",""time""
""blur"",""0"",""0""
","""event"",""trial"",""time""
""focus"",""1"",""14600""
","""event"",""trial"",""time""
""fullscreenenter"",""1"",""14732""
","""event"",""trial"",""time""
""fullscreenexit"",""2"",""19559""
",,null,run_exp/static/images/task_images/gems/15.jpg,null,,,,,,,8,,,5,,,,,15,0.536471686,0.533333333,,,,,,,
decision,124,517328,0.0-38.0-2.0,"""event"",""trial"",""time""
""blur"",""0"",""0""
""focus"",""1"",""14600""
""fullscreenenter"",""1"",""14732""
""fullscreenexit"",""2"",""19559""
","""event"",""trial"",""time""
""blur"",""0"",""0""
","""event"",""trial"",""time""
""focus"",""1"",""14600""
","""event"",""trial"",""time""
""fullscreenenter"",""1"",""14732""
","""event"",""trial"",""time""
""fullscreenexit"",""2"",""19559""
",,166.5,run_exp/static/images/task_images/land.jpg,76,,,,,,,8,,,5,,,,,,,,127124,1,3,TRUE,,,
travel,125,527168,0.0-39.0-0.0,"""event"",""trial"",""time""
""blur"",""0"",""0""
""focus"",""1"",""14600""
""fullscreenenter"",""1"",""14732""
""fullscreenexit"",""2"",""19559""
","""event"",""trial"",""time""
""blur"",""0"",""0""
","""event"",""trial"",""time""
""focus"",""1"",""14600""
","""event"",""trial"",""time""
""fullscreenenter"",""1"",""14732""
","""event"",""trial"",""time""
""fullscreenexit"",""2"",""19559""
",,,,,,,,,,,,"[{""stimulus"":""run_exp/static/images/task_images/rocket-01.jpg"",""time"":0.10000014305114746},{""stimulus"":""run_exp/static/images/task_images/rocket-02.jpg"",""time"":1099.6000001430511},{""stimulus"":""run_exp/static/images/task_images/rocket-03.jpg"",""time"":2186.2000000476837},{""stimulus"":""run_exp/static/images/task_images/rocket-04.jpg"",""time"":3286.7999999523163},{""stimulus"":""run_exp/static/images/task_images/rocket-05.jpg"",""time"":4375.900000095367},{""stimulus"":""run_exp/static/images/task_images/rocket-06.jpg"",""time"":5466.400000095367},{""stimulus"":""run_exp/static/images/task_images/rocket-07.jpg"",""time"":6554.299999952316},{""stimulus"":""run_exp/static/images/task_images/rocket-08.jpg"",""time"":7648.600000143051},{""stimulus"":""run_exp/static/images/task_images/rocket-09.jpg"",""time"":8748.200000047684}]",[],5,,,,,,,,,,,,,,
alien_welcome,126,532178,0.0-39.0-1.0,"""event"",""trial"",""time""
""blur"",""0"",""0""
""focus"",""1"",""14600""
""fullscreenenter"",""1"",""14732""
""fullscreenexit"",""2"",""19559""
","""event"",""trial"",""time""
""blur"",""0"",""0""
","""event"",""trial"",""time""
""focus"",""1"",""14600""
","""event"",""trial"",""time""
""fullscreenenter"",""1"",""14732""
","""event"",""trial"",""time""
""fullscreenexit"",""2"",""19559""
",,null,run_exp/static/images/task_images/aliens/old_aliens/planet/alien_planet-5.jpg,null,,,,,,,,,,,,,5,"70,71,46,75,43,5,38,18,56,28,15,34,67,17,36,80,3,31,69,62,61,45,22,78,66,59,32,24,68,60,54,49,73,50,74,1,10,64,9,55,8,52",,,,,,,,,,
land,127,532683,0.0-39.0-2.0,"""event"",""trial"",""time""
""blur"",""0"",""0""
""focus"",""1"",""14600""
""fullscreenenter"",""1"",""14732""
""fullscreenexit"",""2"",""19559""
","""event"",""trial"",""time""
""blur"",""0"",""0""
","""event"",""trial"",""time""
""focus"",""1"",""14600""
","""event"",""trial"",""time""
""fullscreenenter"",""1"",""14732""
","""event"",""trial"",""time""
""fullscreenexit"",""2"",""19559""
",,null,run_exp/static/images/task_images/land.jpg,null,,,,,,,96,,,6,,,,,,,,,,,,,,
dig,128,534695,0.0-39.0-3.0,"""event"",""trial"",""time""
""blur"",""0"",""0""
""focus"",""1"",""14600""
""fullscreenenter"",""1"",""14732""
""fullscreenexit"",""2"",""19559""
","""event"",""trial"",""time""
""blur"",""0"",""0""
","""event"",""trial"",""time""
""focus"",""1"",""14600""
","""event"",""trial"",""time""
""fullscreenenter"",""1"",""14732""
","""event"",""trial"",""time""
""fullscreenexit"",""2"",""19559""
",,,,,,,,,,,,"[{""stimulus"":""run_exp/static/images/task_images/dig.jpg"",""time"":0.19999980926513672},{""stimulus"":""run_exp/static/images/task_images/land.jpg"",""time"":672.7999999523163},{""stimulus"":""run_exp/static/images/task_images/dig.jpg"",""time"":1351.6999998092651}]",[],6,,,,,,,,,,,,,,
harvest,129,535706,0.0-39.0-4.0,"""event"",""trial"",""time""
""blur"",""0"",""0""
""focus"",""1"",""14600""
""fullscreenenter"",""1"",""14732""
""fullscreenexit"",""2"",""19559""
","""event"",""trial"",""time""
""blur"",""0"",""0""
","""event"",""trial"",""time""
""focus"",""1"",""14600""
","""event"",""trial"",""time""
""fullscreenenter"",""1"",""14732""
","""event"",""trial"",""time""
""fullscreenexit"",""2"",""19559""
",,null,run_exp/static/images/task_images/gems/96.jpg,null,,,,,,,75,,,6,,,,,96,0.781308745,0.78125,,,,,,,
decision,130,536181,0.0-39.0-5.0,"""event"",""trial"",""time""
""blur"",""0"",""0""
""focus"",""1"",""14600""
""fullscreenenter"",""1"",""14732""
""fullscreenexit"",""2"",""19559""
","""event"",""trial"",""time""
""blur"",""0"",""0""
","""event"",""trial"",""time""
""focus"",""1"",""14600""
","""event"",""trial"",""time""
""fullscreenenter"",""1"",""14732""
","""event"",""trial"",""time""
""fullscreenexit"",""2"",""19559""
",,473.8000002,run_exp/static/images/task_images/land.jpg,65,,,,,,,75,,,6,,,,,,,,145977,1,0,FALSE,,,
dig,131,538712,0.0-40.0-0.0,"""event"",""trial"",""time""
""blur"",""0"",""0""
""focus"",""1"",""14600""
""fullscreenenter"",""1"",""14732""
""fullscreenexit"",""2"",""19559""
","""event"",""trial"",""time""
""blur"",""0"",""0""
","""event"",""trial"",""time""
""focus"",""1"",""14600""
","""event"",""trial"",""time""
""fullscreenenter"",""1"",""14732""
","""event"",""trial"",""time""
""fullscreenexit"",""2"",""19559""
",,,,,,,,,,,,"[{""stimulus"":""run_exp/static/images/task_images/dig.jpg"",""time"":0.20000004768371582},{""stimulus"":""run_exp/static/images/task_images/land.jpg"",""time"":849.7999999523163},{""stimulus"":""run_exp/static/images/task_images/dig.jpg"",""time"":1686.3999998569489}]",[],6,,,,,,,,,,,,,,
harvest,132,539728,0.0-40.0-1.0,"""event"",""trial"",""time""
""blur"",""0"",""0""
""focus"",""1"",""14600""
""fullscreenenter"",""1"",""14732""
""fullscreenexit"",""2"",""19559""
","""event"",""trial"",""time""
""blur"",""0"",""0""
","""event"",""trial"",""time""
""focus"",""1"",""14600""
","""event"",""trial"",""time""
""fullscreenenter"",""1"",""14732""
","""event"",""trial"",""time""
""fullscreenexit"",""2"",""19559""
",,null,run_exp/static/images/task_images/gems/75.jpg,null,,,,,,,57,,,6,,,,,75,0.759347728,0.76,,,,,,,
decision,133,539815,0.0-40.0-2.0,"""event"",""trial"",""time""
""blur"",""0"",""0""
""focus"",""1"",""14600""
""fullscreenenter"",""1"",""14732""
""fullscreenexit"",""2"",""19559""
","""event"",""trial"",""time""
""blur"",""0"",""0""
","""event"",""trial"",""time""
""focus"",""1"",""14600""
","""event"",""trial"",""time""
""fullscreenenter"",""1"",""14732""
","""event"",""trial"",""time""
""fullscreenexit"",""2"",""19559""
",,85.79999995,run_exp/static/images/task_images/land.jpg,65,,,,,,,57,,,6,,,,,,,,149611,1,1,FALSE,,,
dig,134,542737,0.0-41.0-0.0,"""event"",""trial"",""time""
""blur"",""0"",""0""
""focus"",""1"",""14600""
""fullscreenenter"",""1"",""14732""
""fullscreenexit"",""2"",""19559""
","""event"",""trial"",""time""
""blur"",""0"",""0""
","""event"",""trial"",""time""
""focus"",""1"",""14600""
","""event"",""trial"",""time""
""fullscreenenter"",""1"",""14732""
","""event"",""trial"",""time""
""fullscreenexit"",""2"",""19559""
",,,,,,,,,,,,"[{""stimulus"":""run_exp/static/images/task_images/dig.jpg"",""time"":0.40000009536743164},{""stimulus"":""run_exp/static/images/task_images/land.jpg"",""time"":977.2000000476837},{""stimulus"":""run_exp/static/images/task_images/dig.jpg"",""time"":1950}]",[],6,,,,,,,,,,,,,,
harvest,135,543743,0.0-41.0-1.0,"""event"",""trial"",""time""
""blur"",""0"",""0""
""focus"",""1"",""14600""
""fullscreenenter"",""1"",""14732""
""fullscreenexit"",""2"",""19559""
","""event"",""trial"",""time""
""blur"",""0"",""0""
","""event"",""trial"",""time""
""focus"",""1"",""14600""
","""event"",""trial"",""time""
""fullscreenenter"",""1"",""14732""
","""event"",""trial"",""time""
""fullscreenexit"",""2"",""19559""
",,null,run_exp/static/images/task_images/gems/57.jpg,null,,,,,,,51,,,6,,,,,57,0.887946042,0.894736842,,,,,,,
decision,136,543929,0.0-41.0-2.0,"""event"",""trial"",""time""
""blur"",""0"",""0""
""focus"",""1"",""14600""
""fullscreenenter"",""1"",""14732""
""fullscreenexit"",""2"",""19559""
","""event"",""trial"",""time""
""blur"",""0"",""0""
","""event"",""trial"",""time""
""focus"",""1"",""14600""
","""event"",""trial"",""time""
""fullscreenenter"",""1"",""14732""
","""event"",""trial"",""time""
""fullscreenexit"",""2"",""19559""
",,184.0999999,run_exp/static/images/task_images/land.jpg,65,,,,,,,51,,,6,,,,,,,,153725,1,2,FALSE,,,
dig,137,546760,0.0-42.0-0.0,"""event"",""trial"",""time""
""blur"",""0"",""0""
""focus"",""1"",""14600""
""fullscreenenter"",""1"",""14732""
""fullscreenexit"",""2"",""19559""
","""event"",""trial"",""time""
""blur"",""0"",""0""
","""event"",""trial"",""time""
""focus"",""1"",""14600""
","""event"",""trial"",""time""
""fullscreenenter"",""1"",""14732""
","""event"",""trial"",""time""
""fullscreenexit"",""2"",""19559""
",,,,,,,,,,,,"[{""stimulus"":""run_exp/static/images/task_images/dig.jpg"",""time"":0.09999990463256836},{""stimulus"":""run_exp/static/images/task_images/land.jpg"",""time"":947.5},{""stimulus"":""run_exp/static/images/task_images/dig.jpg"",""time"":1884.5}]",[],6,,,,,,,,,,,,,,
harvest,138,547776,0.0-42.0-1.0,"""event"",""trial"",""time""
""blur"",""0"",""0""
""focus"",""1"",""14600""
""fullscreenenter"",""1"",""14732""
""fullscreenexit"",""2"",""19559""
","""event"",""trial"",""time""
""blur"",""0"",""0""
","""event"",""trial"",""time""
""focus"",""1"",""14600""
","""event"",""trial"",""time""
""fullscreenenter"",""1"",""14732""
","""event"",""trial"",""time""
""fullscreenexit"",""2"",""19559""
",,null,run_exp/static/images/task_images/gems/51.jpg,null,,,,,,,40,,,6,,,,,51,0.780579662,0.784313725,,,,,,,
decision,139,548117,0.0-42.0-2.0,"""event"",""trial"",""time""
""blur"",""0"",""0""
""focus"",""1"",""14600""
""fullscreenenter"",""1"",""14732""
""fullscreenexit"",""2"",""19559""
","""event"",""trial"",""time""
""blur"",""0"",""0""
","""event"",""trial"",""time""
""focus"",""1"",""14600""
","""event"",""trial"",""time""
""fullscreenenter"",""1"",""14732""
","""event"",""trial"",""time""
""fullscreenexit"",""2"",""19559""
",,338.3,run_exp/static/images/task_images/land.jpg,65,,,,,,,40,,,6,,,,,,,,157913,1,3,FALSE,,,
dig,140,550792,0.0-43.0-0.0,"""event"",""trial"",""time""
""blur"",""0"",""0""
""focus"",""1"",""14600""
""fullscreenenter"",""1"",""14732""
""fullscreenexit"",""2"",""19559""
","""event"",""trial"",""time""
""blur"",""0"",""0""
","""event"",""trial"",""time""
""focus"",""1"",""14600""
","""event"",""trial"",""time""
""fullscreenenter"",""1"",""14732""
","""event"",""trial"",""time""
""fullscreenexit"",""2"",""19559""
",,,,,,,,,,,,"[{""stimulus"":""run_exp/static/images/task_images/dig.jpg"",""time"":0.40000009536743164},{""stimulus"":""run_exp/static/images/task_images/land.jpg"",""time"":893.5},{""stimulus"":""run_exp/static/images/task_images/dig.jpg"",""time"":1784}]",[],6,,,,,,,,,,,,,,
harvest,141,551796,0.0-43.0-1.0,"""event"",""trial"",""time""
""blur"",""0"",""0""
""focus"",""1"",""14600""
""fullscreenenter"",""1"",""14732""
""fullscreenexit"",""2"",""19559""
","""event"",""trial"",""time""
""blur"",""0"",""0""
","""event"",""trial"",""time""
""focus"",""1"",""14600""
","""event"",""trial"",""time""
""fullscreenenter"",""1"",""14732""
","""event"",""trial"",""time""
""fullscreenexit"",""2"",""19559""
",,null,run_exp/static/images/task_images/gems/40.jpg,null,,,,,,,33,,,6,,,,,40,0.819993369,0.825,,,,,,,
decision,142,551986,0.0-43.0-2.0,"""event"",""trial"",""time""
""blur"",""0"",""0""
""focus"",""1"",""14600""
""fullscreenenter"",""1"",""14732""
""fullscreenexit"",""2"",""19559""
","""event"",""trial"",""time""
""blur"",""0"",""0""
","""event"",""trial"",""time""
""focus"",""1"",""14600""
","""event"",""trial"",""time""
""fullscreenenter"",""1"",""14732""
","""event"",""trial"",""time""
""fullscreenexit"",""2"",""19559""
",,189,run_exp/static/images/task_images/land.jpg,65,,,,,,,33,,,6,,,,,,,,161783,1,4,FALSE,,,
dig,143,554807,0.0-44.0-0.0,"""event"",""trial"",""time""
""blur"",""0"",""0""
""focus"",""1"",""14600""
""fullscreenenter"",""1"",""14732""
""fullscreenexit"",""2"",""19559""
","""event"",""trial"",""time""
""blur"",""0"",""0""
","""event"",""trial"",""time""
""focus"",""1"",""14600""
","""event"",""trial"",""time""
""fullscreenenter"",""1"",""14732""
","""event"",""trial"",""time""
""fullscreenexit"",""2"",""19559""
",,,,,,,,,,,,"[{""stimulus"":""run_exp/static/images/task_images/dig.jpg"",""time"":0.19999980926513672},{""stimulus"":""run_exp/static/images/task_images/land.jpg"",""time"":946.7999999523163},{""stimulus"":""run_exp/static/images/task_images/dig.jpg"",""time"":1888.1999998092651}]",[],6,,,,,,,,,,,,,,
harvest,144,555819,0.0-44.0-1.0,"""event"",""trial"",""time""
""blur"",""0"",""0""
""focus"",""1"",""14600""
""fullscreenenter"",""1"",""14732""
""fullscreenexit"",""2"",""19559""
","""event"",""trial"",""time""
""blur"",""0"",""0""
","""event"",""trial"",""time""
""focus"",""1"",""14600""
","""event"",""trial"",""time""
""fullscreenenter"",""1"",""14732""
","""event"",""trial"",""time""
""fullscreenexit"",""2"",""19559""
",,null,run_exp/static/images/task_images/gems/33.jpg,null,,,,,,,28,,,6,,,,,33,0.863200786,0.848484848,,,,,,,
decision,145,556171,0.0-44.0-2.0,"""event"",""trial"",""time""
""blur"",""0"",""0""
""focus"",""1"",""14600""
""fullscreenenter"",""1"",""14732""
""fullscreenexit"",""2"",""19559""
","""event"",""trial"",""time""
""blur"",""0"",""0""
","""event"",""trial"",""time""
""focus"",""1"",""14600""
","""event"",""trial"",""time""
""fullscreenenter"",""1"",""14732""
","""event"",""trial"",""time""
""fullscreenexit"",""2"",""19559""
",,350.8000002,run_exp/static/images/task_images/land.jpg,65,,,,,,,28,,,6,,,,,,,,165967,1,5,FALSE,,,
dig,146,558828,0.0-45.0-0.0,"""event"",""trial"",""time""
""blur"",""0"",""0""
""focus"",""1"",""14600""
""fullscreenenter"",""1"",""14732""
""fullscreenexit"",""2"",""19559""
","""event"",""trial"",""time""
""blur"",""0"",""0""
","""event"",""trial"",""time""
""focus"",""1"",""14600""
","""event"",""trial"",""time""
""fullscreenenter"",""1"",""14732""
","""event"",""trial"",""time""
""fullscreenexit"",""2"",""19559""
",,,,,,,,,,,,"[{""stimulus"":""run_exp/static/images/task_images/dig.jpg"",""time"":0.20000004768371582},{""stimulus"":""run_exp/static/images/task_images/land.jpg"",""time"":898.5999999046326},{""stimulus"":""run_exp/static/images/task_images/dig.jpg"",""time"":1779.2999999523163}]",[],6,,,,,,,,,,,,,,
harvest,147,559844,0.0-45.0-1.0,"""event"",""trial"",""time""
""blur"",""0"",""0""
""focus"",""1"",""14600""
""fullscreenenter"",""1"",""14732""
""fullscreenexit"",""2"",""19559""
","""event"",""trial"",""time""
""blur"",""0"",""0""
","""event"",""trial"",""time""
