trial_type,trial_index,time_elapsed,internal_node_id,interactions,blur_events,focus_events,fullscreenenter_events,fullscreenexit_events,success,rt,stimulus,key_press,prompt,subject_id,participant_id,age,gender,button_pressed,next_reward,animation_sequence,responses,planet,curr_prac_trial,n_prac_rounds,alien,aliens,reward_received,decay_rate_actual,decay_rate_exp,time_in_block,block_num,prt,last_trial_on_planet,button_html,bonus,num_failures
pavlovia,0,5,0.0-0.0,"""event"",""trial"",""time""
""focus"",""1"",""18058""
""fullscreenenter"",""1"",""18153""
","
","""event"",""trial"",""time""
""focus"",""1"",""18058""
","""event"",""trial"",""time""
""fullscreenenter"",""1"",""18153""
","
",,,,,,,,,,,,,,,,,,,,,,,,,,,,
fullscreen,1,19140,0.0-1.0,"""event"",""trial"",""time""
""focus"",""1"",""18058""
""fullscreenenter"",""1"",""18153""
","
","""event"",""trial"",""time""
""focus"",""1"",""18058""
","""event"",""trial"",""time""
""fullscreenenter"",""1"",""18153""
","
",TRUE,,,,,,,,,,,,,,,,,,,,,,,,,,,
instruc_welcome,2,28887,0.0-2.0,"""event"",""trial"",""time""
""focus"",""1"",""18058""
""fullscreenenter"",""1"",""18153""
","
","""event"",""trial"",""time""
""focus"",""1"",""18058""
","""event"",""trial"",""time""
""fullscreenenter"",""1"",""18153""
","
",,null,run_exp/static/audio/clip_1_welcome.m4a,null,"<p>Howdy! In this experiment, you’ll be an explorer traveling through space to collect space treasure.</p><p>Your mission is to collect as much treasure as possible.</p><br><br><p><img src='run_exp/static/images/task_images/opening_img-01.jpg' height='300' width='auto'></p>",9237,1148,21.5,Male,,,,,,,,,,,,,,,,,,,
audio-keyboard-response,3,45468,0.0-3.0,"""event"",""trial"",""time""
""focus"",""1"",""18058""
""fullscreenenter"",""1"",""18153""
","
","""event"",""trial"",""time""
""focus"",""1"",""18058""
","""event"",""trial"",""time""
""fullscreenenter"",""1"",""18153""
","
",,null,run_exp/static/audio/clip_2_move.m4a,null,,,,,,,,,,,,,,,,,,,,,,,,
welcome_dec,4,48194,0.0-4.0,"""event"",""trial"",""time""
""focus"",""1"",""18058""
""fullscreenenter"",""1"",""18153""
","
","""event"",""trial"",""time""
""focus"",""1"",""18058""
","""event"",""trial"",""time""
""fullscreenenter"",""1"",""18153""
","
",,2722.7,"<p>Howdy! In this experiment, you’ll be an explorer traveling through space to collect space treasure.</p><p>Your mission is to collect as much treasure as possible.</p><br><br><p><img src='run_exp/static/images/task_images/opening_img-01.jpg' height='300' width='auto'></p>",,,,,,,1,,,,,,,,,,,,,,,,,,
html-keyboard-response,5,49444,0.0-5.0,"""event"",""trial"",""time""
""focus"",""1"",""18058""
""fullscreenenter"",""1"",""18153""
","
","""event"",""trial"",""time""
""focus"",""1"",""18058""
","""event"",""trial"",""time""
""fullscreenenter"",""1"",""18153""
","
",,1248.4,"<p>Howdy! In this experiment, you’ll be an explorer traveling through space to collect space treasure.</p><p>Your mission is to collect as much treasure as possible.</p><br><br><p><img src='run_exp/static/images/task_images/opening_img-01.jpg' height='300' width='auto'></p><button class=""jspsych-html-btn-unchosen""><img src=""run_exp/static/images/task_images/planet-01.jpg"" height=""50""></button><button class=""jspsych-html-btn-chosen""><img src=""run_exp/static/images/task_images/planet-02.jpg"" height=""50""></button><p><b>[press the space bar to lock in your answer]<b><br></p>",32,,,,,,,,,,,,,,,,,,,,,,,,
instruc_goal,6,59508,0.0-6.0-0.0,"""event"",""trial"",""time""
""focus"",""1"",""18058""
""fullscreenenter"",""1"",""18153""
","
","""event"",""trial"",""time""
""focus"",""1"",""18058""
","""event"",""trial"",""time""
""fullscreenenter"",""1"",""18153""
","
",,null,run_exp/static/audio/clip_3_goal.m4a,null,"<p> As a space explorer, you’ll visit different planets to dig for space treasure, these pink gems.</p> <p> The more treasure you dig up, the more bonus money you’ll win! </p><br><br><p><img src='run_exp/static/images/task_images/pink_gem.jpg' height='300' width='auto'></p>",,,,,,,,,,,,,,,,,,,,,,,
instruc_goal,7,66642,0.0-6.0-1.0,"""event"",""trial"",""time""
""focus"",""1"",""18058""
""fullscreenenter"",""1"",""18153""
","
","""event"",""trial"",""time""
""focus"",""1"",""18058""
","""event"",""trial"",""time""
""fullscreenenter"",""1"",""18153""
","
",,7132.2,"<p> As a space explorer, you’ll visit different planets to dig for space treasure, these pink gems.</p> <p> The more treasure you dig up, the more bonus money you’ll win! </p><br><br><p><img src='run_exp/static/images/task_images/pink_gem.jpg' height='300' width='auto'></p>",,,,,,,1,,,,,,,,,,,,,,,,,,
html-keyboard-response,8,67301,0.0-6.0-2.0,"""event"",""trial"",""time""
""focus"",""1"",""18058""
""fullscreenenter"",""1"",""18153""
","
","""event"",""trial"",""time""
""focus"",""1"",""18058""
","""event"",""trial"",""time""
""fullscreenenter"",""1"",""18153""
","
",,657.3,"<p> As a space explorer, you’ll visit different planets to dig for space treasure, these pink gems.</p> <p> The more treasure you dig up, the more bonus money you’ll win! </p><br><br><p><img src='run_exp/static/images/task_images/pink_gem.jpg' height='300' width='auto'></p><button class=""jspsych-html-btn-unchosen""><img src=""run_exp/static/images/task_images/planet-01.jpg"" height=""50""></button><button class=""jspsych-html-btn-chosen""><img src=""run_exp/static/images/task_images/planet-02.jpg"" height=""50""></button><p><b>[press the space bar to lock in your answer]<b><br></p>",32,,,,,,,,,,,,,,,,,,,,,,,,
instruc_dig,9,83308,0.0-7.0-0.0,"""event"",""trial"",""time""
""focus"",""1"",""18058""
""fullscreenenter"",""1"",""18153""
","
","""event"",""trial"",""time""
""focus"",""1"",""18058""
","""event"",""trial"",""time""
""fullscreenenter"",""1"",""18153""
","
",,null,run_exp/static/audio/clip_4_dig.m4a,null,,,,,,,100,,,,,,,,,,,,,,,,,
instruc_dig_try,10,84516,0.0-7.0-1.0,"""event"",""trial"",""time""
""focus"",""1"",""18058""
""fullscreenenter"",""1"",""18153""
","
","""event"",""trial"",""time""
""focus"",""1"",""18058""
","""event"",""trial"",""time""
""fullscreenenter"",""1"",""18153""
","
",,1206.1,"<p> When you’ve arrived at a new planet, you will dig once. </p> <p>Then, you get to decide if you want to stay on the planet and dig again or travel to a new planet and dig there.</p> <p> To stay and dig, press the letter <strong>‘A’</strong> on your keyboard. Try pressing it now! </p><p><img src='run_exp/static/images/task_images/land.jpg'  height='700' width='auto'></p>",65,"<p> When you’ve arrived at a new planet, you will dig once. </p> <p>Then, you get to decide if you want to stay on the planet and dig again or travel to a new planet and dig there.</p> <p> To stay and dig, press the letter <strong>‘A’</strong> on your keyboard. Try pressing it now! </p><p><img src='run_exp/static/images/task_images/land.jpg'  height='700' width='auto'></p>",,,,,,100,,,,,,,,,,,,,,,,,
dig_prac,11,86524,0.0-7.0-2.0,"""event"",""trial"",""time""
""focus"",""1"",""18058""
""fullscreenenter"",""1"",""18153""
","
","""event"",""trial"",""time""
""focus"",""1"",""18058""
","""event"",""trial"",""time""
""fullscreenenter"",""1"",""18153""
","
",,,,,,,,,,,,"[{""stimulus"":""run_exp/static/images/task_images/dig.jpg"",""time"":0.10000002384185791},{""stimulus"":""run_exp/static/images/task_images/land.jpg"",""time"":681.5},{""stimulus"":""run_exp/static/images/task_images/dig.jpg"",""time"":1350.699999988079}]",[],,,,,,,,,,,,,,,
instruc_travel,12,122768,0.0-7.0-3.0,"""event"",""trial"",""time""
""focus"",""1"",""18058""
""fullscreenenter"",""1"",""18153""
","
","""event"",""trial"",""time""
""focus"",""1"",""18058""
","""event"",""trial"",""time""
""fullscreenenter"",""1"",""18153""
","
",,null,run_exp/static/audio/clip_5_travel.m4a,null,"<p>Every time you dig up gems, there are less gems on the planet, so the more you dig on a planet the fewer gems you’ll get with each dig.</p><p>When gems are running low, you may want to travel to a new planet. </p> <p>  Planets are very far apart in this galaxy, so it will take some time to travel between them. </p> <br><p>There are lots and lots of planets for you to visit, so you won’t be able to return to any planets you’ve seen before. </p><br><p>To leave this planet and travel to a new one, press the letter <strong>‘L’</strong> on your keyboard. Try pressing it now! </p><p><img src='run_exp/static/images/task_images/rocket-01.jpg'  height='600' width='auto'></p>",,,,,,,,,,,,,,,,,,,,,,,
instruc_travel_try,13,125338,0.0-7.0-4.0,"""event"",""trial"",""time""
""focus"",""1"",""18058""
""fullscreenenter"",""1"",""18153""
","
","""event"",""trial"",""time""
""focus"",""1"",""18058""
","""event"",""trial"",""time""
""fullscreenenter"",""1"",""18153""
","
",,2567.9,"<p>Every time you dig up gems, there are less gems on the planet, so the more you dig on a planet the fewer gems you’ll get with each dig.</p><p>When gems are running low, you may want to travel to a new planet. </p> <p>  Planets are very far apart in this galaxy, so it will take some time to travel between them. </p> <br><p>There are lots and lots of planets for you to visit, so you won’t be able to return to any planets you’ve seen before. </p><br><p>To leave this planet and travel to a new one, press the letter <strong>‘L’</strong> on your keyboard. Try pressing it now! </p><p><img src='run_exp/static/images/task_images/rocket-01.jpg'  height='600' width='auto'></p>",76,"<p>Every time you dig up gems, there are less gems on the planet, so the more you dig on a planet the fewer gems you’ll get with each dig.</p><p>When gems are running low, you may want to travel to a new planet. </p> <p>  Planets are very far apart in this galaxy, so it will take some time to travel between them. </p> <br><p>There are lots and lots of planets for you to visit, so you won’t be able to return to any planets you’ve seen before. </p><br><p>To leave this planet and travel to a new one, press the letter <strong>‘L’</strong> on your keyboard. Try pressing it now! </p><p><img src='run_exp/static/images/task_images/rocket-01.jpg'  height='600' width='auto'></p>",,,,,,,,,,,,,,,,,,,,,,,
travel_prac,14,135344,0.0-7.0-5.0,"""event"",""trial"",""time""
""focus"",""1"",""18058""
""fullscreenenter"",""1"",""18153""
","
","""event"",""trial"",""time""
""focus"",""1"",""18058""
","""event"",""trial"",""time""
""fullscreenenter"",""1"",""18153""
","
",,,,,,,,,,,,"[{""stimulus"":""run_exp/static/images/task_images/rocket-01.jpg"",""time"":0.19999998807907104},{""stimulus"":""run_exp/static/images/task_images/rocket-02.jpg"",""time"":1118.800000011921},{""stimulus"":""run_exp/static/images/task_images/rocket-03.jpg"",""time"":2223.600000023842},{""stimulus"":""run_exp/static/images/task_images/rocket-04.jpg"",""time"":3342},{""stimulus"":""run_exp/static/images/task_images/rocket-05.jpg"",""time"":4450.199999988079},{""stimulus"":""run_exp/static/images/task_images/rocket-06.jpg"",""time"":5572.199999988079},{""stimulus"":""run_exp/static/images/task_images/rocket-07.jpg"",""time"":6668.699999988079},{""stimulus"":""run_exp/static/images/task_images/rocket-08.jpg"",""time"":7783.900000035763},{""stimulus"":""run_exp/static/images/task_images/rocket-09.jpg"",""time"":8890.5}]",[],0,,,,,,,,,,,,,,
instruc_alien_greet,15,162528,0.0-7.0-6.0,"""event"",""trial"",""time""
""focus"",""1"",""18058""
""fullscreenenter"",""1"",""18153""
","
","""event"",""trial"",""time""
""focus"",""1"",""18058""
","""event"",""trial"",""time""
""fullscreenenter"",""1"",""18153""
","
",,null,run_exp/static/audio/clip_6_alien.m4a,null,"<p>When you arrive at a new planet, the alien who owns the treasure mine on that planet will greet you!</p><p>The better an alien takes care of their mine the easier it is to dig for gems. Some aliens take better care of their mine than others. So, you won’t get exactly the same amount of gems on each planet.</p><p>What the alien looks like does not tell you anything about how many gems there are on the planet.</p><br><p><img src=""run_exp/static/images/task_images/aliens/instructions_aliens/planet/alien_planet-1.jpg""  height=""600"" width=""auto""></p>",,,,,,,,,,,,,,,,,,,,,,,
instruc_alien_greet,16,165090,0.0-7.0-7.0,"""event"",""trial"",""time""
""focus"",""1"",""18058""
""fullscreenenter"",""1"",""18153""
","
","""event"",""trial"",""time""
""focus"",""1"",""18058""
","""event"",""trial"",""time""
""fullscreenenter"",""1"",""18153""
","
",,2558.8,"<p>When you arrive at a new planet, the alien who owns the treasure mine on that planet will greet you!</p><p>The better an alien takes care of their mine the easier it is to dig for gems. Some aliens take better care of their mine than others. So, you won’t get exactly the same amount of gems on each planet.</p><p>What the alien looks like does not tell you anything about how many gems there are on the planet.</p><br><p><img src=""run_exp/static/images/task_images/aliens/instructions_aliens/planet/alien_planet-1.jpg""  height=""600"" width=""auto""></p>",,,,,,,1,,,,,,,,,,,,,,,,,,
html-keyboard-response,17,165806,0.0-7.0-8.0,"""event"",""trial"",""time""
""focus"",""1"",""18058""
""fullscreenenter"",""1"",""18153""
","
","""event"",""trial"",""time""
""focus"",""1"",""18058""
","""event"",""trial"",""time""
""fullscreenenter"",""1"",""18153""
","
",,714.9,"<p>When you arrive at a new planet, the alien who owns the treasure mine on that planet will greet you!</p><p>The better an alien takes care of their mine the easier it is to dig for gems. Some aliens take better care of their mine than others. So, you won’t get exactly the same amount of gems on each planet.</p><p>What the alien looks like does not tell you anything about how many gems there are on the planet.</p><br><p><img src=""run_exp/static/images/task_images/aliens/instructions_aliens/planet/alien_planet-1.jpg""  height=""600"" width=""auto""></p><button class=""jspsych-html-btn-unchosen""><img src=""run_exp/static/images/task_images/planet-01.jpg"" height=""50""></button><button class=""jspsych-html-btn-chosen""><img src=""run_exp/static/images/task_images/planet-02.jpg"" height=""50""></button><p><b>[press the space bar to lock in your answer]<b><br></p>",32,,,,,,,,,,,,,,,,,,,,,,,,
time_out,18,176887,0.0-8.0-0.0,"""event"",""trial"",""time""
""focus"",""1"",""18058""
""fullscreenenter"",""1"",""18153""
","
","""event"",""trial"",""time""
""focus"",""1"",""18058""
","""event"",""trial"",""time""
""fullscreenenter"",""1"",""18153""
","
",,null,run_exp/static/audio/clip_7_timeout.m4a,null,"<p>If you don't make your choice fast enough, you’ll have to wait a few seconds before you can make another one.</p><p>You can’t dig for more gems or travel to new planets. You just have to sit and wait.</p><br><p><img src='run_exp/static/images/task_images/time_out.jpg'  height='600' width='auto'></p>",,,,,,,,,,,,,,,,,,,,,,,
time_out,19,181859,0.0-8.0-1.0,"""event"",""trial"",""time""
""focus"",""1"",""18058""
""fullscreenenter"",""1"",""18153""
","
","""event"",""trial"",""time""
""focus"",""1"",""18058""
","""event"",""trial"",""time""
""fullscreenenter"",""1"",""18153""
","
",,4969.8,"<p>If you don't make your choice fast enough, you’ll have to wait a few seconds before you can make another one.</p><p>You can’t dig for more gems or travel to new planets. You just have to sit and wait.</p><br><p><img src='run_exp/static/images/task_images/time_out.jpg'  height='600' width='auto'></p>",,,,,,,1,,,,,,,,,,,,,,,,,,
html-keyboard-response,20,182212,0.0-8.0-2.0,"""event"",""trial"",""time""
""focus"",""1"",""18058""
""fullscreenenter"",""1"",""18153""
","
","""event"",""trial"",""time""
""focus"",""1"",""18058""
","""event"",""trial"",""time""
""fullscreenenter"",""1"",""18153""
","
",,351.2,"<p>If you don't make your choice fast enough, you’ll have to wait a few seconds before you can make another one.</p><p>You can’t dig for more gems or travel to new planets. You just have to sit and wait.</p><br><p><img src='run_exp/static/images/task_images/time_out.jpg'  height='600' width='auto'></p><button class=""jspsych-html-btn-unchosen""><img src=""run_exp/static/images/task_images/planet-01.jpg"" height=""50""></button><button class=""jspsych-html-btn-chosen""><img src=""run_exp/static/images/task_images/planet-02.jpg"" height=""50""></button><p><b>[press the space bar to lock in your answer]<b><br></p>",32,,,,,,,,,,,,,,,,,,,,,,,,
instruc_break,21,197868,0.0-9.0-0.0,"""event"",""trial"",""time""
""focus"",""1"",""18058""
""fullscreenenter"",""1"",""18153""
","
","""event"",""trial"",""time""
""focus"",""1"",""18058""
","""event"",""trial"",""time""
""fullscreenenter"",""1"",""18153""
","
",,null,run_exp/static/audio/clip_8_break.m4a,null,"<p> After digging and traveling for a while, you’ll be able to take a break at home base. </p><p>The game will last 20 minutes no matter what.</p><p>You will visit home base every 5 minutes, so, you will visit home base three times during the game.</p><br><p><img src='run_exp/static/images/task_images/home_base.jpg' height='600' width='auto'></p>",,,,,,,,,,,,,,,,,,,,,,,
instruc_break,22,199971,0.0-9.0-1.0,"""event"",""trial"",""time""
""focus"",""1"",""18058""
""fullscreenenter"",""1"",""18153""
","
","""event"",""trial"",""time""
""focus"",""1"",""18058""
","""event"",""trial"",""time""
""fullscreenenter"",""1"",""18153""
","
",,2100.7,"<p> After digging and traveling for a while, you’ll be able to take a break at home base. </p><p>The game will last 20 minutes no matter what.</p><p>You will visit home base every 5 minutes, so, you will visit home base three times during the game.</p><br><p><img src='run_exp/static/images/task_images/home_base.jpg' height='600' width='auto'></p>",,,,,,,1,,,,,,,,,,,,,,,,,,
html-keyboard-response,23,200315,0.0-9.0-2.0,"""event"",""trial"",""time""
""focus"",""1"",""18058""
""fullscreenenter"",""1"",""18153""
","
","""event"",""trial"",""time""
""focus"",""1"",""18058""
","""event"",""trial"",""time""
""fullscreenenter"",""1"",""18153""
","
",,343.4,"<p> After digging and traveling for a while, you’ll be able to take a break at home base. </p><p>The game will last 20 minutes no matter what.</p><p>You will visit home base every 5 minutes, so, you will visit home base three times during the game.</p><br><p><img src='run_exp/static/images/task_images/home_base.jpg' height='600' width='auto'></p><button class=""jspsych-html-btn-unchosen""><img src=""run_exp/static/images/task_images/planet-01.jpg"" height=""50""></button><button class=""jspsych-html-btn-chosen""><img src=""run_exp/static/images/task_images/planet-02.jpg"" height=""50""></button><p><b>[press the space bar to lock in your answer]<b><br></p>",32,,,,,,,,,,,,,,,,,,,,,,,,
instruc_prac_game,24,210447,0.0-10.0-0.0,"""event"",""trial"",""time""
""focus"",""1"",""18058""
""fullscreenenter"",""1"",""18153""
","
","""event"",""trial"",""time""
""focus"",""1"",""18058""
","""event"",""trial"",""time""
""fullscreenenter"",""1"",""18153""
","
",,null,run_exp/static/audio/clip_9_practice.m4a,null,"<p> Are you ready to play a practice game? </p> <p>In this practice game, you'll be digging up barrels of gems. But, in the real game, you'll be digging up the gems themselves. </p>",,,,,,,,,,,,,,,,,,,,,,,
html-button-response,25,211866,0.0-10.0-1.0,"""event"",""trial"",""time""
""focus"",""1"",""18058""
""fullscreenenter"",""1"",""18153""
","
","""event"",""trial"",""time""
""focus"",""1"",""18058""
","""event"",""trial"",""time""
""fullscreenenter"",""1"",""18153""
","
",,1417.1,"<p> Are you ready to play a practice game? </p> <p>In this practice game, you'll be digging up barrels of gems. But, in the real game, you'll be digging up the gems themselves. </p>",,,,,,,0,,,,,,,,,,,,,,,,,,
alien_welcome_prac,26,216873,0.0-11.0-0.0,"""event"",""trial"",""time""
""focus"",""1"",""18058""
""fullscreenenter"",""1"",""18153""
","
","""event"",""trial"",""time""
""focus"",""1"",""18058""
","""event"",""trial"",""time""
""fullscreenenter"",""1"",""18153""
","
",,null,run_exp/static/images/task_images/aliens/practice_aliens/planet/alien_planet-5.jpg,null,,,,,,,,,,,,,,,,,,,,,,,,
land_prac,27,217374,0.0-11.0-1.0,"""event"",""trial"",""time""
""focus"",""1"",""18058""
""fullscreenenter"",""1"",""18153""
","
","""event"",""trial"",""time""
""focus"",""1"",""18058""
","""event"",""trial"",""time""
""fullscreenenter"",""1"",""18153""
","
",,null,run_exp/static/images/task_images/land.jpg,null,,,,,,,101,,,0,,,,,,,,,,,,,,
dig_prac,28,219387,0.0-11.0-2.0,"""event"",""trial"",""time""
""focus"",""1"",""18058""
""fullscreenenter"",""1"",""18153""
","
","""event"",""trial"",""time""
""focus"",""1"",""18058""
","""event"",""trial"",""time""
""fullscreenenter"",""1"",""18153""
","
",,,,,,,,,,,,"[{""stimulus"":""run_exp/static/images/task_images/dig.jpg"",""time"":0.40000003576278687},{""stimulus"":""run_exp/static/images/task_images/land.jpg"",""time"":682.9000000357628},{""stimulus"":""run_exp/static/images/task_images/dig.jpg"",""time"":1336.800000011921}]",[],,,,,,,,,,,,,,,
harvest_prac,29,220395,0.0-11.0-3.0,"""event"",""trial"",""time""
""focus"",""1"",""18058""
""fullscreenenter"",""1"",""18153""
","
","""event"",""trial"",""time""
""focus"",""1"",""18058""
","""event"",""trial"",""time""
""fullscreenenter"",""1"",""18153""
","
",,null,run_exp/static/images/task_images/barrel_text.jpg,null,,,,,,,,,,,,,,,,,,,,,,,,
decision_prac,30,223406,0.0-11.0-4.0,"""event"",""trial"",""time""
""focus"",""1"",""18058""
""fullscreenenter"",""1"",""18153""
","
","""event"",""trial"",""time""
""focus"",""1"",""18058""
","""event"",""trial"",""time""
""fullscreenenter"",""1"",""18153""
","
",,null,run_exp/static/images/task_images/land.jpg,null,,,,,,,,,,,1,,,,,,,,,,,,,
time_out,31,225421,0.0-12.0-0.0,"""event"",""trial"",""time""
""focus"",""1"",""18058""
""fullscreenenter"",""1"",""18153""
","
","""event"",""trial"",""time""
""focus"",""1"",""18058""
","""event"",""trial"",""time""
""fullscreenenter"",""1"",""18153""
","
",,null,run_exp/static/images/task_images/time_out.jpg,null,,,,,,,,,,,,,,,,,,,,,,,,
decision_prac,32,226044,0.0-12.0-1.0,"""event"",""trial"",""time""
""focus"",""1"",""18058""
""fullscreenenter"",""1"",""18153""
","
","""event"",""trial"",""time""
""focus"",""1"",""18058""
","""event"",""trial"",""time""
""fullscreenenter"",""1"",""18153""
","
",,620.9,run_exp/static/images/task_images/land.jpg,65,,,,,,,,,,,2,,,,,,,,,,,,,
dig_prac,33,228057,0.0-13.0-0.0,"""event"",""trial"",""time""
""focus"",""1"",""18058""
""fullscreenenter"",""1"",""18153""
","
","""event"",""trial"",""time""
""focus"",""1"",""18058""
","""event"",""trial"",""time""
""fullscreenenter"",""1"",""18153""
","
",,,,,,,,,,,,"[{""stimulus"":""run_exp/static/images/task_images/dig.jpg"",""time"":0.19999998807907104},{""stimulus"":""run_exp/static/images/task_images/land.jpg"",""time"":668.6000000238419},{""stimulus"":""run_exp/static/images/task_images/dig.jpg"",""time"":1340.8999999761581}]",[],,,,,,,,,,,,,,,
harvest_prac,34,229066,0.0-13.0-1.0,"""event"",""trial"",""time""
""focus"",""1"",""18058""
""fullscreenenter"",""1"",""18153""
","
","""event"",""trial"",""time""
""focus"",""1"",""18058""
","""event"",""trial"",""time""
""fullscreenenter"",""1"",""18153""
","
",,null,run_exp/static/images/task_images/barrel_text.jpg,null,,,,,,,,,,,,,,,,,,,,,,,,
decision_prac,35,229674,0.0-13.0-2.0,"""event"",""trial"",""time""
""focus"",""1"",""18058""
""fullscreenenter"",""1"",""18153""
","
","""event"",""trial"",""time""
""focus"",""1"",""18058""
","""event"",""trial"",""time""
""fullscreenenter"",""1"",""18153""
","
",,607.3,run_exp/static/images/task_images/land.jpg,65,,,,,,,,,,,3,,,,,,,,,,,,,
dig_prac,36,231685,0.0-14.0-0.0,"""event"",""trial"",""time""
""focus"",""1"",""18058""
""fullscreenenter"",""1"",""18153""
","
","""event"",""trial"",""time""
""focus"",""1"",""18058""
","""event"",""trial"",""time""
""fullscreenenter"",""1"",""18153""
","
",,,,,,,,,,,,"[{""stimulus"":""run_exp/static/images/task_images/dig.jpg"",""time"":0.2999999523162842},{""stimulus"":""run_exp/static/images/task_images/land.jpg"",""time"":683.1999999880791},{""stimulus"":""run_exp/static/images/task_images/dig.jpg"",""time"":1338.699999988079}]",[],,,,,,,,,,,,,,,
harvest_prac,37,232698,0.0-14.0-1.0,"""event"",""trial"",""time""
""focus"",""1"",""18058""
""fullscreenenter"",""1"",""18153""
","
","""event"",""trial"",""time""
""focus"",""1"",""18058""
","""event"",""trial"",""time""
""fullscreenenter"",""1"",""18153""
","
",,null,run_exp/static/images/task_images/barrel_text.jpg,null,,,,,,,,,,,,,,,,,,,,,,,,
decision_prac,38,233274,0.0-14.0-2.0,"""event"",""trial"",""time""
""focus"",""1"",""18058""
""fullscreenenter"",""1"",""18153""
","
","""event"",""trial"",""time""
""focus"",""1"",""18058""
","""event"",""trial"",""time""
""fullscreenenter"",""1"",""18153""
","
",,576,run_exp/static/images/task_images/land.jpg,65,,,,,,,,,,,4,,,,,,,,,,,,,
dig_prac,39,235288,0.0-15.0-0.0,"""event"",""trial"",""time""
""focus"",""1"",""18058""
""fullscreenenter"",""1"",""18153""
","
","""event"",""trial"",""time""
""focus"",""1"",""18058""
","""event"",""trial"",""time""
""fullscreenenter"",""1"",""18153""
","
",,,,,,,,,,,,"[{""stimulus"":""run_exp/static/images/task_images/dig.jpg"",""time"":0.19999998807907104},{""stimulus"":""run_exp/static/images/task_images/land.jpg"",""time"":669.8000000119209},{""stimulus"":""run_exp/static/images/task_images/dig.jpg"",""time"":1339.6000000238419}]",[],,,,,,,,,,,,,,,
harvest_prac,40,236302,0.0-15.0-1.0,"""event"",""trial"",""time""
""focus"",""1"",""18058""
""fullscreenenter"",""1"",""18153""
","
","""event"",""trial"",""time""
""focus"",""1"",""18058""
","""event"",""trial"",""time""
""fullscreenenter"",""1"",""18153""
","
",,null,run_exp/static/images/task_images/barrel_text.jpg,null,,,,,,,,,,,,,,,,,,,,,,,,
decision_prac,41,236771,0.0-15.0-2.0,"""event"",""trial"",""time""
""focus"",""1"",""18058""
""fullscreenenter"",""1"",""18153""
","
","""event"",""trial"",""time""
""focus"",""1"",""18058""
","""event"",""trial"",""time""
""fullscreenenter"",""1"",""18153""
","
",,468.1,run_exp/static/images/task_images/land.jpg,65,,,,,,,,,,,,1,,,,,,,,,,,,
quiz_instruc,42,239714,0.0-16.0-0.0,"""event"",""trial"",""time""
""focus"",""1"",""18058""
""fullscreenenter"",""1"",""18153""
","
","""event"",""trial"",""time""
""focus"",""1"",""18058""
","""event"",""trial"",""time""
""fullscreenenter"",""1"",""18153""
","
",,2939.4,run_exp/static/audio/clip_10_quiz.m4a,,,,,,,0,,,,,,,,,,,,,,,,,,
instruc_repeat,43,282466,0.0-16.0-1.0,"""event"",""trial"",""time""
""focus"",""1"",""18058""
""fullscreenenter"",""1"",""18153""
","
","""event"",""trial"",""time""
""focus"",""1"",""18058""
","""event"",""trial"",""time""
""fullscreenenter"",""1"",""18153""
","
",,null,"<p> Are you ready to play a practice game? </p> <p>In this practice game, you'll be digging up barrels of gems. But, in the real game, you'll be digging up the gems themselves. </p>",null,"<p>In this game, your goal is to collect as many gems as you can. That’s how you will win bonus money. </p> <p>The entire game will last 20 minutes no matter how many gems you collect or how many planets you visit. </p><p>To stay on a planet and dig again, press the letter A on your keyboard. To leave for a new planet, press the letter L.</p><p>The more you dig on a planet, the fewer gems you’ll get with each dig which is why you might consider leaving for a new planet. </p><p>When you arrive at a new planet, you’ll be greeted by an alien. What the alien looks like does not tell you anything about how much treasure is on the planet. </p>",,,,,,,,,,,,,,,,,,,,,,,
instruc_repeat_continue,44,283840,0.0-16.0-2.0,"""event"",""trial"",""time""
""focus"",""1"",""18058""
""fullscreenenter"",""1"",""18153""
","
","""event"",""trial"",""time""
""focus"",""1"",""18058""
","""event"",""trial"",""time""
""fullscreenenter"",""1"",""18153""
","
",,1372,"<p> Are you ready to play a practice game? </p> <p>In this practice game, you'll be digging up barrels of gems. But, in the real game, you'll be digging up the gems themselves. </p>",,,,,,,0,,,,,,,,,,,,,,,,,,
quiz_q_1_ask,45,288817,0.0-16.0-3.0,"""event"",""trial"",""time""
""focus"",""1"",""18058""
""fullscreenenter"",""1"",""18153""
","
","""event"",""trial"",""time""
""focus"",""1"",""18058""
","""event"",""trial"",""time""
""fullscreenenter"",""1"",""18153""
","
",,4975.6,run_exp/static/audio/clip_11_q1_ask.m4a,,,,,,,2,,,,,,,,,,,,,,,,,,
quiz_q_1_fb_correct,46,292667,0.0-17.0-0.0,"""event"",""trial"",""time""
""focus"",""1"",""18058""
""fullscreenenter"",""1"",""18153""
","
","""event"",""trial"",""time""
""focus"",""1"",""18058""
","""event"",""trial"",""time""
""fullscreenenter"",""1"",""18153""
","
",,null,run_exp/static/audio/clip_12_q1_correct.m4a,null,<p>That’s correct. You win extra money by collecting more gems.</p>,,,,,,,,,,,,,,,,,,,,,,,
quiz_q_2_ask,47,297481,0.0-17.0-1.0,"""event"",""trial"",""time""
""focus"",""1"",""18058""
""fullscreenenter"",""1"",""18153""
","
","""event"",""trial"",""time""
""focus"",""1"",""18058""
","""event"",""trial"",""time""
""fullscreenenter"",""1"",""18153""
","
",,4812.3,run_exp/static/audio/clip_14_q2_ask.m4a,,,,,,,1,,,,,,,,,,,,,,,,,,
quiz_q_2_fb_correct,48,301486,0.0-18.0-0.0,"""event"",""trial"",""time""
""focus"",""1"",""18058""
""fullscreenenter"",""1"",""18153""
","
","""event"",""trial"",""time""
""focus"",""1"",""18058""
","""event"",""trial"",""time""
""fullscreenenter"",""1"",""18153""
","
",,null,run_exp/static/audio/clip_15_q2_correct.m4a,null,<p>That’s correct. The experiment is 20 minutes no matter what.</p>,,,,,,,,,,,,,,,,,,,,,,,
quiz_q_3_ask,49,305554,0.0-18.0-1.0,"""event"",""trial"",""time""
""focus"",""1"",""18058""
""fullscreenenter"",""1"",""18153""
","
","""event"",""trial"",""time""
""focus"",""1"",""18058""
","""event"",""trial"",""time""
""fullscreenenter"",""1"",""18153""
","
",,4066.4,run_exp/static/audio/clip_17_q3_ask.m4a,,,,,,,1,,,,,,,,,,,,,,,,,,
quiz_q_3_fb_correct,50,309546,0.0-19.0-0.0,"""event"",""trial"",""time""
""focus"",""1"",""18058""
""fullscreenenter"",""1"",""18153""
","
","""event"",""trial"",""time""
""focus"",""1"",""18058""
","""event"",""trial"",""time""
""fullscreenenter"",""1"",""18153""
","
",,null,run_exp/static/audio/clip_18_q3_correct.m4a,null,<p> That’s correct. You press the letter L to travel to a new planet.</p>,,,,,,,,,,,,,,,,,,,,,,,
quiz_q_4_ask,51,312522,0.0-19.0-1.0,"""event"",""trial"",""time""
""focus"",""1"",""18058""
""fullscreenenter"",""1"",""18153""
","
","""event"",""trial"",""time""
""focus"",""1"",""18058""
","""event"",""trial"",""time""
""fullscreenenter"",""1"",""18153""
","
",,2974.9,run_exp/static/audio/clip_20_q4_ask.m4a,,,,,,,0,,,,,,,,,,,,,,,,,,
quiz_q_4_fb_correct,52,317848,0.0-20.0-0.0,"""event"",""trial"",""time""
""focus"",""1"",""18058""
""fullscreenenter"",""1"",""18153""
","
","""event"",""trial"",""time""
""focus"",""1"",""18058""
","""event"",""trial"",""time""
""fullscreenenter"",""1"",""18153""
","
",,null,run_exp/static/audio/clip_21_q4_correct.m4a,null,<p> That’s correct. The more you dig on a planet the fewer gems you’ll get with each dig. </p>,,,,,,,,,,,,,,,,,,,,,,,
quiz_q_5_ask,53,320042,0.0-20.0-1.0,"""event"",""trial"",""time""
""focus"",""1"",""18058""
""fullscreenenter"",""1"",""18153""
","
","""event"",""trial"",""time""
""focus"",""1"",""18058""
","""event"",""trial"",""time""
""fullscreenenter"",""1"",""18153""
","
",,2192.6,run_exp/static/audio/clip_23_q5_ask.m4a,,,,,,,1,,,,,,,,,,,,,,,,,,
quiz_q_5_fb_correct,54,325048,0.0-21.0-0.0,"""event"",""trial"",""time""
""focus"",""1"",""18058""
""fullscreenenter"",""1"",""18153""
","
","""event"",""trial"",""time""
""focus"",""1"",""18058""
","""event"",""trial"",""time""
""fullscreenenter"",""1"",""18153""
","
",,null,run_exp/static/audio/clip_24_q5_correct.m4a,null,<p> That’s correct. The alien tells you nothing about how much treasure is on the planet.</p>,,,,,,,,,,,,,,,,,,,,,,,
quiz_correct,55,328507,0.0-22.0-0.0,"""event"",""trial"",""time""
""focus"",""1"",""18058""
""fullscreenenter"",""1"",""18153""
","
","""event"",""trial"",""time""
""focus"",""1"",""18058""
","""event"",""trial"",""time""
""fullscreenenter"",""1"",""18153""
","
",,null,run_exp/static/audio/clip_26_correct_quiz.m4a,null,,,,,,,,,,,,,,,,,,,,,,,,
quiz_correct_continue,56,330418,0.0-22.0-1.0,"""event"",""trial"",""time""
""focus"",""1"",""18058""
""fullscreenenter"",""1"",""18153""
","
","""event"",""trial"",""time""
""focus"",""1"",""18058""
","""event"",""trial"",""time""
""fullscreenenter"",""1"",""18153""
","
",,1909.2,<p>Good job! You're now ready to move on to the real game!</p>,,,,,,,0,,,,,,,,,,,,,,,,,,
audio-keyboard-response,57,340547,0.0-22.0-2.0,"""event"",""trial"",""time""
""focus"",""1"",""18058""
""fullscreenenter"",""1"",""18153""
","
","""event"",""trial"",""time""
""focus"",""1"",""18058""
","""event"",""trial"",""time""
""fullscreenenter"",""1"",""18153""
","
",,null,run_exp/static/audio/clip_28_real_game.m4a,null,,,,,,,,,,,,,,,,,,,,,,,,
instruc_begin_exp_contine,58,341563,0.0-22.0-3.0,"""event"",""trial"",""time""
""focus"",""1"",""18058""
""fullscreenenter"",""1"",""18153""
","
","""event"",""trial"",""time""
""focus"",""1"",""18058""
","""event"",""trial"",""time""
""fullscreenenter"",""1"",""18153""
","
",,1015,"<p>Now that you know how  to dig for space treasure and travel to new planets,you can start exploring! </p><p>Do you want to go over the instructions again or get started with the real game?</p>",,,,,,,1,,,,,,1,,,,,,,,,,,,
alien_welcome,59,346567,0.0-23.0-0.0,"""event"",""trial"",""time""
""focus"",""1"",""18058""
""fullscreenenter"",""1"",""18153""
","
","""event"",""trial"",""time""
""focus"",""1"",""18058""
","""event"",""trial"",""time""
""fullscreenenter"",""1"",""18153""
","
",,null,run_exp/static/images/task_images/aliens/old_aliens/planet/alien_planet-50.jpg,null,,,,,,,,,,,,,50,"50,65,49,5,37,74,52,8,72,7,25,45,79,13,17,33,51,48,75,54,55,78,44,23,4,30,70,69,10,24,64,38,71,27",,,,,,,,,,
land,60,347080,0.0-23.0-1.0,"""event"",""trial"",""time""
""focus"",""1"",""18058""
""fullscreenenter"",""1"",""18153""
","
","""event"",""trial"",""time""
""focus"",""1"",""18058""
","""event"",""trial"",""time""
""fullscreenenter"",""1"",""18153""
","
",,null,run_exp/static/images/task_images/land.jpg,null,,,,,,,97,,,1,,,,,,,,,,,,,,
dig,61,349090,0.0-23.0-2.0,"""event"",""trial"",""time""
""focus"",""1"",""18058""
""fullscreenenter"",""1"",""18153""
","
","""event"",""trial"",""time""
""focus"",""1"",""18058""
","""event"",""trial"",""time""
""fullscreenenter"",""1"",""18153""
","
",,,,,,,,,,,,"[{""stimulus"":""run_exp/static/images/task_images/dig.jpg"",""time"":0.2999999523162842},{""stimulus"":""run_exp/static/images/task_images/land.jpg"",""time"":668.7999999523163},{""stimulus"":""run_exp/static/images/task_images/dig.jpg"",""time"":1339.7999999523163}]",[],1,,,,,,,,,,,,,,
harvest,62,350106,0.0-23.0-3.0,"""event"",""trial"",""time""
""focus"",""1"",""18058""
""fullscreenenter"",""1"",""18153""
","
","""event"",""trial"",""time""
""focus"",""1"",""18058""
","""event"",""trial"",""time""
""fullscreenenter"",""1"",""18153""
","
",,null,run_exp/static/images/task_images/gems/97.jpg,null,,,,,,,33,,,1,,,,,97,0.342239269,0.340206186,,,,,,,
decision,63,351554,0.0-23.0-4.0,"""event"",""trial"",""time""
""focus"",""1"",""18058""
""fullscreenenter"",""1"",""18153""
","
","""event"",""trial"",""time""
""focus"",""1"",""18058""
","""event"",""trial"",""time""
""fullscreenenter"",""1"",""18153""
","
",,1446,run_exp/static/images/task_images/land.jpg,65,,,,,,,33,,,1,,,,,,,,9990,1,0,FALSE,,,
dig,64,353119,0.0-24.0-0.0,"""event"",""trial"",""time""
""focus"",""1"",""18058""
""fullscreenenter"",""1"",""18153""
","
","""event"",""trial"",""time""
""focus"",""1"",""18058""
","""event"",""trial"",""time""
""fullscreenenter"",""1"",""18153""
","
",,,,,,,,,,,,"[{""stimulus"":""run_exp/static/images/task_images/dig.jpg"",""time"":0.10000002384185791},{""stimulus"":""run_exp/static/images/task_images/land.jpg"",""time"":528.5},{""stimulus"":""run_exp/static/images/task_images/dig.jpg"",""time"":1043.3999999761581}]",[],1,,,,,,,,,,,,,,
harvest,65,354130,0.0-24.0-1.0,"""event"",""trial"",""time""
""focus"",""1"",""18058""
""fullscreenenter"",""1"",""18153""
","
","""event"",""trial"",""time""
""focus"",""1"",""18058""
","""event"",""trial"",""time""
""fullscreenenter"",""1"",""18153""
","
",,null,run_exp/static/images/task_images/gems/33.jpg,null,,,,,,,7,,,1,,,,,33,0.205767506,0.212121212,,,,,,,
decision,66,354995,0.0-24.0-2.0,"""event"",""trial"",""time""
""focus"",""1"",""18058""
""fullscreenenter"",""1"",""18153""
","
","""event"",""trial"",""time""
""focus"",""1"",""18058""
","""event"",""trial"",""time""
""fullscreenenter"",""1"",""18153""
","
",,864.4,run_exp/static/images/task_images/land.jpg,65,,,,,,,7,,,1,,,,,,,,13431,1,1,FALSE,,,
dig,67,357136,0.0-25.0-0.0,"""event"",""trial"",""time""
""focus"",""1"",""18058""
""fullscreenenter"",""1"",""18153""
","
","""event"",""trial"",""time""
""focus"",""1"",""18058""
","""event"",""trial"",""time""
""fullscreenenter"",""1"",""18153""
","
",,,,,,,,,,,,"[{""stimulus"":""run_exp/static/images/task_images/dig.jpg"",""time"":0.10000002384185791},{""stimulus"":""run_exp/static/images/task_images/land.jpg"",""time"":722.8000000119209},{""stimulus"":""run_exp/static/images/task_images/dig.jpg"",""time"":1425.5}]",[],1,,,,,,,,,,,,,,
harvest,68,358139,0.0-25.0-1.0,"""event"",""trial"",""time""
""focus"",""1"",""18058""
""fullscreenenter"",""1"",""18153""
","
","""event"",""trial"",""time""
""focus"",""1"",""18058""
","""event"",""trial"",""time""
""fullscreenenter"",""1"",""18153""
","
",,null,run_exp/static/images/task_images/gems/7.jpg,null,,,,,,,1,,,1,,,,,7,0.154450013,0.142857143,,,,,,,
decision,69,358594,0.0-25.0-2.0,"""event"",""trial"",""time""
""focus"",""1"",""18058""
""fullscreenenter"",""1"",""18153""
","
","""event"",""trial"",""time""
""focus"",""1"",""18058""
","""event"",""trial"",""time""
""fullscreenenter"",""1"",""18153""
","
",,452.9,run_exp/static/images/task_images/land.jpg,76,,,,,,,1,,,1,,,,,,,,17030,1,2,TRUE,,,
travel,70,368137,0.0-26.0-0.0,"""event"",""trial"",""time""
""focus"",""1"",""18058""
""fullscreenenter"",""1"",""18153""
","
","""event"",""trial"",""time""
""focus"",""1"",""18058""
","""event"",""trial"",""time""
""fullscreenenter"",""1"",""18153""
","
",,,,,,,,,,,,"[{""stimulus"":""run_exp/static/images/task_images/rocket-01.jpg"",""time"":0.10000002384185791},{""stimulus"":""run_exp/static/images/task_images/rocket-02.jpg"",""time"":1075.4000000357628},{""stimulus"":""run_exp/static/images/task_images/rocket-03.jpg"",""time"":2140.5},{""stimulus"":""run_exp/static/images/task_images/rocket-04.jpg"",""time"":3184.400000035763},{""stimulus"":""run_exp/static/images/task_images/rocket-05.jpg"",""time"":4256.300000011921},{""stimulus"":""run_exp/static/images/task_images/rocket-06.jpg"",""time"":5314.5},{""stimulus"":""run_exp/static/images/task_images/rocket-07.jpg"",""time"":6362.699999988079},{""stimulus"":""run_exp/static/images/task_images/rocket-08.jpg"",""time"":7422.600000023842},{""stimulus"":""run_exp/static/images/task_images/rocket-09.jpg"",""time"":8483.100000023842}]",[],1,,,,,,,,,,,,,,
alien_welcome,71,373149,0.0-26.0-1.0,"""event"",""trial"",""time""
""focus"",""1"",""18058""
""fullscreenenter"",""1"",""18153""
","
","""event"",""trial"",""time""
""focus"",""1"",""18058""
","""event"",""trial"",""time""
""fullscreenenter"",""1"",""18153""
","
",,null,run_exp/static/images/task_images/aliens/old_aliens/planet/alien_planet-65.jpg,null,,,,,,,,,,,,,65,"50,65,49,5,37,74,52,8,72,7,25,45,79,13,17,33,51,48,75,54,55,78,44,23,4,30,70,69,10,24,64,38,71,27",,,,,,,,,,
land,72,373665,0.0-26.0-2.0,"""event"",""trial"",""time""
""focus"",""1"",""18058""
""fullscreenenter"",""1"",""18153""
","
","""event"",""trial"",""time""
""focus"",""1"",""18058""
","""event"",""trial"",""time""
""fullscreenenter"",""1"",""18153""
","
",,null,run_exp/static/images/task_images/land.jpg,null,,,,,,,103,,,2,,,,,,,,,,,,,,
dig,73,375677,0.0-26.0-3.0,"""event"",""trial"",""time""
""focus"",""1"",""18058""
""fullscreenenter"",""1"",""18153""
","
","""event"",""trial"",""time""
""focus"",""1"",""18058""
","""event"",""trial"",""time""
""fullscreenenter"",""1"",""18153""
","
",,,,,,,,,,,,"[{""stimulus"":""run_exp/static/images/task_images/dig.jpg"",""time"":0.3999999761581421},{""stimulus"":""run_exp/static/images/task_images/land.jpg"",""time"":669.8000000119209},{""stimulus"":""run_exp/static/images/task_images/dig.jpg"",""time"":1338.800000011921}]",[],2,,,,,,,,,,,,,,
harvest,74,376691,0.0-26.0-4.0,"""event"",""trial"",""time""
""focus"",""1"",""18058""
""fullscreenenter"",""1"",""18153""
","
","""event"",""trial"",""time""
""focus"",""1"",""18058""
","""event"",""trial"",""time""
""fullscreenenter"",""1"",""18153""
","
",,null,run_exp/static/images/task_images/gems/103.jpg,null,,,,,,,25,,,2,,,,,103,0.244011766,0.242718447,,,,,,,
decision,75,377108,0.0-26.0-5.0,"""event"",""trial"",""time""
""focus"",""1"",""18058""
""fullscreenenter"",""1"",""18153""
","
","""event"",""trial"",""time""
""focus"",""1"",""18058""
","""event"",""trial"",""time""
""fullscreenenter"",""1"",""18153""
","
",,414.8,run_exp/static/images/task_images/land.jpg,65,,,,,,,25,,,2,,,,,,,,35544,1,0,FALSE,,,
dig,76,379699,0.0-27.0-0.0,"""event"",""trial"",""time""
""focus"",""1"",""18058""
""fullscreenenter"",""1"",""18153""
","
","""event"",""trial"",""time""
""focus"",""1"",""18058""
","""event"",""trial"",""time""
""fullscreenenter"",""1"",""18153""
","
",,,,,,,,,,,,"[{""stimulus"":""run_exp/static/images/task_images/dig.jpg"",""time"":0.10000002384185791},{""stimulus"":""run_exp/static/images/task_images/land.jpg"",""time"":862.5},{""stimulus"":""run_exp/static/images/task_images/dig.jpg"",""time"":1734.199999988079}]",[],2,,,,,,,,,,,,,,
harvest,77,380716,0.0-27.0-1.0,"""event"",""trial"",""time""
""focus"",""1"",""18058""
""fullscreenenter"",""1"",""18153""
","
","""event"",""trial"",""time""
""focus"",""1"",""18058""
","""event"",""trial"",""time""
""fullscreenenter"",""1"",""18153""
","
",,null,run_exp/static/images/task_images/gems/25.jpg,null,,,,,,,5,,,2,,,,,25,0.194254911,0.2,,,,,,,
decision,78,381518,0.0-27.0-2.0,"""event"",""trial"",""time""
""focus"",""1"",""18058""
""fullscreenenter"",""1"",""18153""
","
","""event"",""trial"",""time""
""focus"",""1"",""18058""
","""event"",""trial"",""time""
""fullscreenenter"",""1"",""18153""
","
",,801.4,run_exp/static/images/task_images/land.jpg,65,,,,,,,5,,,2,,,,,,,,39954,1,1,FALSE,,,
dig,79,383723,0.0-28.0-0.0,"""event"",""trial"",""time""
""focus"",""1"",""18058""
""fullscreenenter"",""1"",""18153""
","
","""event"",""trial"",""time""
""focus"",""1"",""18058""
","""event"",""trial"",""time""
""fullscreenenter"",""1"",""18153""
","
",,,,,,,,,,,,"[{""stimulus"":""run_exp/static/images/task_images/dig.jpg"",""time"":0.09999996423721313},{""stimulus"":""run_exp/static/images/task_images/land.jpg"",""time"":741},{""stimulus"":""run_exp/static/images/task_images/dig.jpg"",""time"":1472.5999999642372}]",[],2,,,,,,,,,,,,,,
harvest,80,384733,0.0-28.0-1.0,"""event"",""trial"",""time""
""focus"",""1"",""18058""
""fullscreenenter"",""1"",""18153""
","
","""event"",""trial"",""time""
""focus"",""1"",""18058""
","""event"",""trial"",""time""
""fullscreenenter"",""1"",""18153""
","
",,null,run_exp/static/images/task_images/gems/5.jpg,null,,,,,,,1,,,2,,,,,5,0.183488512,0.2,,,,,,,
decision,81,385210,0.0-28.0-2.0,"""event"",""trial"",""time""
""focus"",""1"",""18058""
""fullscreenenter"",""1"",""18153""
","
","""event"",""trial"",""time""
""focus"",""1"",""18058""
","""event"",""trial"",""time""
""fullscreenenter"",""1"",""18153""
","
",,476,run_exp/static/images/task_images/land.jpg,76,,,,,,,1,,,2,,,,,,,,43646,1,2,TRUE,,,
travel,82,394749,0.0-29.0-0.0,"""event"",""trial"",""time""
""focus"",""1"",""18058""
""fullscreenenter"",""1"",""18153""
","
","""event"",""trial"",""time""
""focus"",""1"",""18058""
","""event"",""trial"",""time""
""fullscreenenter"",""1"",""18153""
","
",,,,,,,,,,,,"[{""stimulus"":""run_exp/static/images/task_images/rocket-01.jpg"",""time"":0.19999998807907104},{""stimulus"":""run_exp/static/images/task_images/rocket-02.jpg"",""time"":1067.300000011921},{""stimulus"":""run_exp/static/images/task_images/rocket-03.jpg"",""time"":2128.900000035763},{""stimulus"":""run_exp/static/images/task_images/rocket-04.jpg"",""time"":3189.400000035763},{""stimulus"":""run_exp/static/images/task_images/rocket-05.jpg"",""time"":4235.699999988079},{""stimulus"":""run_exp/static/images/task_images/rocket-06.jpg"",""time"":5305.699999988079},{""stimulus"":""run_exp/static/images/task_images/rocket-07.jpg"",""time"":6354.699999988079},{""stimulus"":""run_exp/static/images/task_images/rocket-08.jpg"",""time"":7418.199999988079},{""stimulus"":""run_exp/static/images/task_images/rocket-09.jpg"",""time"":8480.100000023842}]",[],2,,,,,,,,,,,,,,
alien_welcome,83,399764,0.0-29.0-1.0,"""event"",""trial"",""time""
""focus"",""1"",""18058""
""fullscreenenter"",""1"",""18153""
","
","""event"",""trial"",""time""
""focus"",""1"",""18058""
","""event"",""trial"",""time""
""fullscreenenter"",""1"",""18153""
","
",,null,run_exp/static/images/task_images/aliens/old_aliens/planet/alien_planet-49.jpg,null,,,,,,,,,,,,,49,"50,65,49,5,37,74,52,8,72,7,25,45,79,13,17,33,51,48,75,54,55,78,44,23,4,30,70,69,10,24,64,38,71,27",,,,,,,,,,
land,84,400278,0.0-29.0-2.0,"""event"",""trial"",""time""
""focus"",""1"",""18058""
""fullscreenenter"",""1"",""18153""
","
","""event"",""trial"",""time""
""focus"",""1"",""18058""
","""event"",""trial"",""time""
""fullscreenenter"",""1"",""18153""
","
",,null,run_exp/static/images/task_images/land.jpg,null,,,,,,,104,,,3,,,,,,,,,,,,,,
dig,85,402293,0.0-29.0-3.0,"""event"",""trial"",""time""
""focus"",""1"",""18058""
""fullscreenenter"",""1"",""18153""
","
","""event"",""trial"",""time""
""focus"",""1"",""18058""
","""event"",""trial"",""time""
""fullscreenenter"",""1"",""18153""
","
",,,,,,,,,,,,"[{""stimulus"":""run_exp/static/images/task_images/dig.jpg"",""time"":0.3999999761581421},{""stimulus"":""run_exp/static/images/task_images/land.jpg"",""time"":669.3999999761581},{""stimulus"":""run_exp/static/images/task_images/dig.jpg"",""time"":1342.8999999761581}]",[],3,,,,,,,,,,,,,,
harvest,86,403306,0.0-29.0-4.0,"""event"",""trial"",""time""
""focus"",""1"",""18058""
""fullscreenenter"",""1"",""18153""
","
","""event"",""trial"",""time""
""focus"",""1"",""18058""
","""event"",""trial"",""time""
""fullscreenenter"",""1"",""18153""
","
",,null,run_exp/static/images/task_images/gems/104.jpg,null,,,,,,,51,,,3,,,,,104,0.494623272,0.490384615,,,,,,,
decision,87,403778,0.0-29.0-5.0,"""event"",""trial"",""time""
""focus"",""1"",""18058""
""fullscreenenter"",""1"",""18153""
","
","""event"",""trial"",""time""
""focus"",""1"",""18058""
","""event"",""trial"",""time""
""fullscreenenter"",""1"",""18153""
","
",,470.7,run_exp/static/images/task_images/land.jpg,65,,,,,,,51,,,3,,,,,,,,62214,1,0,FALSE,,,
dig,88,406316,0.0-30.0-0.0,"""event"",""trial"",""time""
""focus"",""1"",""18058""
""fullscreenenter"",""1"",""18153""
","
","""event"",""trial"",""time""
""focus"",""1"",""18058""
","""event"",""trial"",""time""
""fullscreenenter"",""1"",""18153""
","
",,,,,,,,,,,,"[{""stimulus"":""run_exp/static/images/task_images/dig.jpg"",""time"":0},{""stimulus"":""run_exp/static/images/task_images/land.jpg"",""time"":844.1999999880791},{""stimulus"":""run_exp/static/images/task_images/dig.jpg"",""time"":1694.199999988079}]",[],3,,,,,,,,,,,,,,
harvest,89,407331,0.0-30.0-1.0,"""event"",""trial"",""time""
""focus"",""1"",""18058""
""fullscreenenter"",""1"",""18153""
","
","""event"",""trial"",""time""
""focus"",""1"",""18058""
","""event"",""trial"",""time""
""fullscreenenter"",""1"",""18153""
","
",,null,run_exp/static/images/task_images/gems/51.jpg,null,,,,,,,23,,,3,,,,,51,0.452137865,0.450980392,,,,,,,
decision,90,407746,0.0-30.0-2.0,"""event"",""trial"",""time""
""focus"",""1"",""18058""
""fullscreenenter"",""1"",""18153""
","
","""event"",""trial"",""time""
""focus"",""1"",""18058""
","""event"",""trial"",""time""
""fullscreenenter"",""1"",""18153""
","
",,413.8,run_exp/static/images/task_images/land.jpg,65,,,,,,,23,,,3,,,,,,,,66182,1,1,FALSE,,,
dig,91,410341,0.0-31.0-0.0,"""event"",""trial"",""time""
""focus"",""1"",""18058""
""fullscreenenter"",""1"",""18153""
","
","""event"",""trial"",""time""
""focus"",""1"",""18058""
","""event"",""trial"",""time""
""fullscreenenter"",""1"",""18153""
","
",,,,,,,,,,,,"[{""stimulus"":""run_exp/static/images/task_images/dig.jpg"",""time"":0.10000002384185791},{""stimulus"":""run_exp/static/images/task_images/land.jpg"",""time"":876.6000000238419},{""stimulus"":""run_exp/static/images/task_images/dig.jpg"",""time"":1735}]",[],3,,,,,,,,,,,,,,
harvest,92,411350,0.0-31.0-1.0,"""event"",""trial"",""time""
""focus"",""1"",""18058""
""fullscreenenter"",""1"",""18153""
","
","""event"",""trial"",""time""
""focus"",""1"",""18058""
","""event"",""trial"",""time""
""fullscreenenter"",""1"",""18153""
","
",,null,run_exp/static/images/task_images/gems/23.jpg,null,,,,,,,13,,,3,,,,,23,0.544074443,0.565217391,,,,,,,
decision,93,412603,0.0-31.0-2.0,"""event"",""trial"",""time""
""focus"",""1"",""18058""
""fullscreenenter"",""1"",""18153""
","
","""event"",""trial"",""time""
""focus"",""1"",""18058""
","""event"",""trial"",""time""
""fullscreenenter"",""1"",""18153""
","
",,1252,run_exp/static/images/task_images/land.jpg,65,,,,,,,13,,,3,,,,,,,,71039,1,2,FALSE,,,
dig,94,414357,0.0-32.0-0.0,"""event"",""trial"",""time""
""focus"",""1"",""18058""
""fullscreenenter"",""1"",""18153""
","
","""event"",""trial"",""time""
""focus"",""1"",""18058""
","""event"",""trial"",""time""
""fullscreenenter"",""1"",""18153""
","
",,,,,,,,,,,,"[{""stimulus"":""run_exp/static/images/task_images/dig.jpg"",""time"":0.19999998807907104},{""stimulus"":""run_exp/static/images/task_images/land.jpg"",""time"":593.3000000119209},{""stimulus"":""run_exp/static/images/task_images/dig.jpg"",""time"":1165.6000000238419}]",[],3,,,,,,,,,,,,,,
harvest,95,415370,0.0-32.0-1.0,"""event"",""trial"",""time""
""focus"",""1"",""18058""
""fullscreenenter"",""1"",""18153""
","
","""event"",""trial"",""time""
""focus"",""1"",""18058""
","""event"",""trial"",""time""
""fullscreenenter"",""1"",""18153""
","
",,null,run_exp/static/images/task_images/gems/13.jpg,null,,,,,,,7,,,3,,,,,13,0.517327697,0.538461538,,,,,,,
decision,96,416371,0.0-32.0-2.0,"""event"",""trial"",""time""
""focus"",""1"",""18058""
""fullscreenenter"",""1"",""18153""
","
","""event"",""trial"",""time""
""focus"",""1"",""18058""
","""event"",""trial"",""time""
""fullscreenenter"",""1"",""18153""
","
",,998.9,run_exp/static/images/task_images/land.jpg,65,,,,,,,7,,,3,,,,,,,,74807,1,3,FALSE,,,
dig,97,418379,0.0-33.0-0.0,"""event"",""trial"",""time""
""focus"",""1"",""18058""
""fullscreenenter"",""1"",""18153""
","
","""event"",""trial"",""time""
""focus"",""1"",""18058""
","""event"",""trial"",""time""
""fullscreenenter"",""1"",""18153""
","
",,,,,,,,,,,,"[{""stimulus"":""run_exp/static/images/task_images/dig.jpg"",""time"":0.20000004768371582},{""stimulus"":""run_exp/static/images/task_images/land.jpg"",""time"":683.5},{""stimulus"":""run_exp/static/images/task_images/dig.jpg"",""time"":1337.1000000238419}]",[],3,,,,,,,,,,,,,,
harvest,98,419396,0.0-33.0-1.0,"""event"",""trial"",""time""
""focus"",""1"",""18058""
""fullscreenenter"",""1"",""18153""
","
","""event"",""trial"",""time""
""focus"",""1"",""18058""
","""event"",""trial"",""time""
""fullscreenenter"",""1"",""18153""
","
",,null,run_exp/static/images/task_images/gems/7.jpg,null,,,,,,,3,,,3,,,,,7,0.490339842,0.428571429,,,,,,,
decision,99,419897,0.0-33.0-2.0,"""event"",""trial"",""time""
""focus"",""1"",""18058""
""fullscreenenter"",""1"",""18153""
","
","""event"",""trial"",""time""
""focus"",""1"",""18058""
","""event"",""trial"",""time""
""fullscreenenter"",""1"",""18153""
","
",,499.7,run_exp/static/images/task_images/land.jpg,76,,,,,,,3,,,3,,,,,,,,78333,1,4,TRUE,,,
travel,100,429404,0.0-34.0-0.0,"""event"",""trial"",""time""
""focus"",""1"",""18058""
""fullscreenenter"",""1"",""18153""
","
","""event"",""trial"",""time""
""focus"",""1"",""18058""
","""event"",""trial"",""time""
""fullscreenenter"",""1"",""18153""
","
",,,,,,,,,,,,"[{""stimulus"":""run_exp/static/images/task_images/rocket-01.jpg"",""time"":0.09999996423721313},{""stimulus"":""run_exp/static/images/task_images/rocket-02.jpg"",""time"":1069.8999999761581},{""stimulus"":""run_exp/static/images/task_images/rocket-03.jpg"",""time"":2115.399999976158},{""stimulus"":""run_exp/static/images/task_images/rocket-04.jpg"",""time"":3173},{""stimulus"":""run_exp/static/images/task_images/rocket-05.jpg"",""time"":4235.399999976158},{""stimulus"":""run_exp/static/images/task_images/rocket-06.jpg"",""time"":5277.300000011921},{""stimulus"":""run_exp/static/images/task_images/rocket-07.jpg"",""time"":6335.199999988079},{""stimulus"":""run_exp/static/images/task_images/rocket-08.jpg"",""time"":7394.399999976158},{""stimulus"":""run_exp/static/images/task_images/rocket-09.jpg"",""time"":8441}]",[],3,,,,,,,,,,,,,,
alien_welcome,101,434412,0.0-34.0-1.0,"""event"",""trial"",""time""
""focus"",""1"",""18058""
""fullscreenenter"",""1"",""18153""
","
","""event"",""trial"",""time""
""focus"",""1"",""18058""
","""event"",""trial"",""time""
""fullscreenenter"",""1"",""18153""
","
",,null,run_exp/static/images/task_images/aliens/old_aliens/planet/alien_planet-5.jpg,null,,,,,,,,,,,,,5,"50,65,49,5,37,74,52,8,72,7,25,45,79,13,17,33,51,48,75,54,55,78,44,23,4,30,70,69,10,24,64,38,71,27",,,,,,,,,,
land,102,434926,0.0-34.0-2.0,"""event"",""trial"",""time""
""focus"",""1"",""18058""
""fullscreenenter"",""1"",""18153""
","
","""event"",""trial"",""time""
""focus"",""1"",""18058""
","""event"",""trial"",""time""
""fullscreenenter"",""1"",""18153""
","
",,null,run_exp/static/images/task_images/land.jpg,null,,,,,,,102,,,4,,,,,,,,,,,,,,
dig,103,436939,0.0-34.0-3.0,"""event"",""trial"",""time""
""focus"",""1"",""18058""
""fullscreenenter"",""1"",""18153""
","
","""event"",""trial"",""time""
""focus"",""1"",""18058""
","""event"",""trial"",""time""
""fullscreenenter"",""1"",""18153""
","
",,,,,,,,,,,,"[{""stimulus"":""run_exp/static/images/task_images/dig.jpg"",""time"":0.30000001192092896},{""stimulus"":""run_exp/static/images/task_images/land.jpg"",""time"":669.3999999761581},{""stimulus"":""run_exp/static/images/task_images/dig.jpg"",""time"":1341.699999988079}]",[],4,,,,,,,,,,,,,,
harvest,104,437955,0.0-34.0-4.0,"""event"",""trial"",""time""
""focus"",""1"",""18058""
""fullscreenenter"",""1"",""18153""
","
","""event"",""trial"",""time""
""focus"",""1"",""18058""
","""event"",""trial"",""time""
""fullscreenenter"",""1"",""18153""
","
",,null,run_exp/static/images/task_images/gems/102.jpg,null,,,,,,,51,,,4,,,,,102,0.502785973,0.5,,,,,,,
decision,105,438378,0.0-34.0-5.0,"""event"",""trial"",""time""
""focus"",""1"",""18058""
""fullscreenenter"",""1"",""18153""
","
","""event"",""trial"",""time""
""focus"",""1"",""18058""
","""event"",""trial"",""time""
""fullscreenenter"",""1"",""18153""
","
",,421.4,run_exp/static/images/task_images/land.jpg,65,,,,,,,51,,,4,,,,,,,,96814,1,0,FALSE,,,
dig,106,440967,0.0-35.0-0.0,"""event"",""trial"",""time""
""focus"",""1"",""18058""
""fullscreenenter"",""1"",""18153""
","
","""event"",""trial"",""time""
""focus"",""1"",""18058""
","""event"",""trial"",""time""
""fullscreenenter"",""1"",""18153""
","
",,,,,,,,,,,,"[{""stimulus"":""run_exp/static/images/task_images/dig.jpg"",""time"":0.19999998807907104},{""stimulus"":""run_exp/static/images/task_images/land.jpg"",""time"":860.6999999880791},{""stimulus"":""run_exp/static/images/task_images/dig.jpg"",""time"":1726.800000011921}]",[],4,,,,,,,,,,,,,,
harvest,107,441979,0.0-35.0-1.0,"""event"",""trial"",""time""
""focus"",""1"",""18058""
""fullscreenenter"",""1"",""18153""
","
","""event"",""trial"",""time""
""focus"",""1"",""18058""
","""event"",""trial"",""time""
""fullscreenenter"",""1"",""18153""
","
",,null,run_exp/static/images/task_images/gems/51.jpg,null,,,,,,,23,,,4,,,,,51,0.444294402,0.450980392,,,,,,,
decision,108,442394,0.0-35.0-2.0,"""event"",""trial"",""time""
""focus"",""1"",""18058""
""fullscreenenter"",""1"",""18153""
","
","""event"",""trial"",""time""
""focus"",""1"",""18058""
","""event"",""trial"",""time""
""fullscreenenter"",""1"",""18153""
","
",,413.5,run_exp/static/images/task_images/land.jpg,65,,,,,,,23,,,4,,,,,,,,100830,1,1,FALSE,,,
dig,109,444994,0.0-36.0-0.0,"""event"",""trial"",""time""
""focus"",""1"",""18058""
""fullscreenenter"",""1"",""18153""
","
","""event"",""trial"",""time""
""focus"",""1"",""18058""
","""event"",""trial"",""time""
""fullscreenenter"",""1"",""18153""
","
",,,,,,,,,,,,"[{""stimulus"":""run_exp/static/images/task_images/dig.jpg"",""time"":0.10000002384185791},{""stimulus"":""run_exp/static/images/task_images/land.jpg"",""time"":863.6000000238419},{""stimulus"":""run_exp/static/images/task_images/dig.jpg"",""time"":1738.5}]",[],4,,,,,,,,,,,,,,
harvest,110,445998,0.0-36.0-1.0,"""event"",""trial"",""time""
""focus"",""1"",""18058""
""fullscreenenter"",""1"",""18153""
","
","""event"",""trial"",""time""
""focus"",""1"",""18058""
","""event"",""trial"",""time""
""fullscreenenter"",""1"",""18153""
","
",,null,run_exp/static/images/task_images/gems/23.jpg,null,,,,,,,11,,,4,,,,,23,0.472202794,0.47826087,,,,,,,
decision,111,446425,0.0-36.0-2.0,"""event"",""trial"",""time""
""focus"",""1"",""18058""
""fullscreenenter"",""1"",""18153""
","
","""event"",""trial"",""time""
""focus"",""1"",""18058""
","""event"",""trial"",""time""
""fullscreenenter"",""1"",""18153""
","
",,425.9,run_exp/static/images/task_images/land.jpg,65,,,,,,,11,,,4,,,,,,,,104861,1,2,FALSE,,,
dig,112,449008,0.0-37.0-0.0,"""event"",""trial"",""time""
""focus"",""1"",""18058""
""fullscreenenter"",""1"",""18153""
","
","""event"",""trial"",""time""
""focus"",""1"",""18058""
","""event"",""trial"",""time""
""fullscreenenter"",""1"",""18153""
","
",,,,,,,,,,,,"[{""stimulus"":""run_exp/static/images/task_images/dig.jpg"",""time"":0.09999996423721313},{""stimulus"":""run_exp/static/images/task_images/land.jpg"",""time"":859},{""stimulus"":""run_exp/static/images/task_images/dig.jpg"",""time"":1723.2999999523163}]",[],4,,,,,,,,,,,,,,
harvest,113,450024,0.0-37.0-1.0,"""event"",""trial"",""time""
""focus"",""1"",""18058""
""fullscreenenter"",""1"",""18153""
","
","""event"",""trial"",""time""
""focus"",""1"",""18058""
","""event"",""trial"",""time""
""fullscreenenter"",""1"",""18153""
","
",,null,run_exp/static/images/task_images/gems/11.jpg,null,,,,,,,5,,,4,,,,,11,0.445892063,0.454545455,,,,,,,
decision,114,450497,0.0-37.0-2.0,"""event"",""trial"",""time""
""focus"",""1"",""18058""
""fullscreenenter"",""1"",""18153""
","
","""event"",""trial"",""time""
""focus"",""1"",""18058""
","""event"",""trial"",""time""
""fullscreenenter"",""1"",""18153""
","
",,471.4,run_exp/static/images/task_images/land.jpg,76,,,,,,,5,,,4,,,,,,,,108933,1,3,TRUE,,,
travel,115,460023,0.0-38.0-0.0,"""event"",""trial"",""time""
""focus"",""1"",""18058""
""fullscreenenter"",""1"",""18153""
","
","""event"",""trial"",""time""
""focus"",""1"",""18058""
","""event"",""trial"",""time""
""fullscreenenter"",""1"",""18153""
","
",,,,,,,,,,,,"[{""stimulus"":""run_exp/static/images/task_images/rocket-01.jpg"",""time"":0.10000002384185791},{""stimulus"":""run_exp/static/images/task_images/rocket-02.jpg"",""time"":1074.300000011921},{""stimulus"":""run_exp/static/images/task_images/rocket-03.jpg"",""time"":2120},{""stimulus"":""run_exp/static/images/task_images/rocket-04.jpg"",""time"":3178.699999988079},{""stimulus"":""run_exp/static/images/task_images/rocket-05.jpg"",""time"":4240.5},{""stimulus"":""run_exp/static/images/task_images/rocket-06.jpg"",""time"":5297.600000023842},{""stimulus"":""run_exp/static/images/task_images/rocket-07.jpg"",""time"":6361.699999988079},{""stimulus"":""run_exp/static/images/task_images/rocket-08.jpg"",""time"":7421.399999976158},{""stimulus"":""run_exp/static/images/task_images/rocket-09.jpg"",""time"":8465.100000023842}]",[],4,,,,,,,,,,,,,,
alien_welcome,116,465031,0.0-38.0-1.0,"""event"",""trial"",""time""
""focus"",""1"",""18058""
""fullscreenenter"",""1"",""18153""
","
","""event"",""trial"",""time""
""focus"",""1"",""18058""
","""event"",""trial"",""time""
""fullscreenenter"",""1"",""18153""
","
",,null,run_exp/static/images/task_images/aliens/old_aliens/planet/alien_planet-37.jpg,null,,,,,,,,,,,,,37,"50,65,49,5,37,74,52,8,72,7,25,45,79,13,17,33,51,48,75,54,55,78,44,23,4,30,70,69,10,24,64,38,71,27",,,,,,,,,,
land,117,465545,0.0-38.0-2.0,"""event"",""trial"",""time""
""focus"",""1"",""18058""
""fullscreenenter"",""1"",""18153""
","
","""event"",""trial"",""time""
""focus"",""1"",""18058""
","""event"",""trial"",""time""
""fullscreenenter"",""1"",""18153""
","
",,null,run_exp/static/images/task_images/land.jpg,null,,,,,,,97,,,5,,,,,,,,,,,,,,
dig,118,467560,0.0-38.0-3.0,"""event"",""trial"",""time""
""focus"",""1"",""18058""
""fullscreenenter"",""1"",""18153""
","
","""event"",""trial"",""time""
""focus"",""1"",""18058""
","""event"",""trial"",""time""
""fullscreenenter"",""1"",""18153""
","
",,,,,,,,,,,,"[{""stimulus"":""run_exp/static/images/task_images/dig.jpg"",""time"":0.2999999523162842},{""stimulus"":""run_exp/static/images/task_images/land.jpg"",""time"":669.3999999761581},{""stimulus"":""run_exp/static/images/task_images/dig.jpg"",""time"":1338.199999988079}]",[],5,,,,,,,,,,,,,,
harvest,119,468563,0.0-38.0-4.0,"""event"",""trial"",""time""
""focus"",""1"",""18058""
""fullscreenenter"",""1"",""18153""
","
","""event"",""trial"",""time""
""focus"",""1"",""18058""
","""event"",""trial"",""time""
""fullscreenenter"",""1"",""18153""
","
",,null,run_exp/static/images/task_images/gems/97.jpg,null,,,,,,,46,,,5,,,,,97,0.469455672,0.474226804,,,,,,,
decision,120,468994,0.0-38.0-5.0,"""event"",""trial"",""time""
""focus"",""1"",""18058""
""fullscreenenter"",""1"",""18153""
","
","""event"",""trial"",""time""
""focus"",""1"",""18058""
","""event"",""trial"",""time""
""fullscreenenter"",""1"",""18153""
","
",,429.4,run_exp/static/images/task_images/land.jpg,65,,,,,,,46,,,5,,,,,,,,127430,1,0,FALSE,,,
dig,121,471579,0.0-39.0-0.0,"""event"",""trial"",""time""
""focus"",""1"",""18058""
""fullscreenenter"",""1"",""18153""
","
","""event"",""trial"",""time""
""focus"",""1"",""18058""
","""event"",""trial"",""time""
""fullscreenenter"",""1"",""18153""
","
",,,,,,,,,,,,"[{""stimulus"":""run_exp/static/images/task_images/dig.jpg"",""time"":0.09999996423721313},{""stimulus"":""run_exp/static/images/task_images/land.jpg"",""time"":864.7999999523163},{""stimulus"":""run_exp/static/images/task_images/dig.jpg"",""time"":1723.0999999642372}]",[],5,,,,,,,,,,,,,,
harvest,122,472595,0.0-39.0-1.0,"""event"",""trial"",""time""
""focus"",""1"",""18058""
""fullscreenenter"",""1"",""18153""
","
","""event"",""trial"",""time""
""focus"",""1"",""18058""
","""event"",""trial"",""time""
""fullscreenenter"",""1"",""18153""
","
",,null,run_exp/static/images/task_images/gems/46.jpg,null,,,,,,,23,,,5,,,,,46,0.501624838,0.5,,,,,,,
decision,123,473010,0.0-39.0-2.0,"""event"",""trial"",""time""
""focus"",""1"",""18058""
""fullscreenenter"",""1"",""18153""
","
","""event"",""trial"",""time""
""focus"",""1"",""18058""
","""event"",""trial"",""time""
""fullscreenenter"",""1"",""18153""
","
",,413.9,run_exp/static/images/task_images/land.jpg,65,,,,,,,23,,,5,,,,,,,,131446,1,1,FALSE,,,
dig,124,475611,0.0-40.0-0.0,"""event"",""trial"",""time""
""focus"",""1"",""18058""
""fullscreenenter"",""1"",""18153""
","
","""event"",""trial"",""time""
""focus"",""1"",""18058""
","""event"",""trial"",""time""
""fullscreenenter"",""1"",""18153""
","
",,,,,,,,,,,,"[{""stimulus"":""run_exp/static/images/task_images/dig.jpg"",""time"":0.19999998807907104},{""stimulus"":""run_exp/static/images/task_images/land.jpg"",""time"":870.1000000238419},{""stimulus"":""run_exp/static/images/task_images/dig.jpg"",""time"":1739.9000000357628}]",[],5,,,,,,,,,,,,,,
harvest,125,476625,0.0-40.0-1.0,"""event"",""trial"",""time""
""focus"",""1"",""18058""
""fullscreenenter"",""1"",""18153""
","
","""event"",""trial"",""time""
""focus"",""1"",""18058""
","""event"",""trial"",""time""
""fullscreenenter"",""1"",""18153""
","
",,null,run_exp/static/images/task_images/gems/23.jpg,null,,,,,,,10,,,5,,,,,23,0.416954668,0.434782609,,,,,,,
decision,126,476941,0.0-40.0-2.0,"""event"",""trial"",""time""
""focus"",""1"",""18058""
""fullscreenenter"",""1"",""18153""
","
","""event"",""trial"",""time""
""focus"",""1"",""18058""
","""event"",""trial"",""time""
""fullscreenenter"",""1"",""18153""
","
",,313.9,run_exp/static/images/task_images/land.jpg,65,,,,,,,10,,,5,,,,,,,,135377,1,2,FALSE,,,
dig,127,479643,0.0-41.0-0.0,"""event"",""trial"",""time""
""focus"",""1"",""18058""
""fullscreenenter"",""1"",""18153""
","
","""event"",""trial"",""time""
""focus"",""1"",""18058""
","""event"",""trial"",""time""
""fullscreenenter"",""1"",""18153""
","
",,,,,,,,,,,,"[{""stimulus"":""run_exp/static/images/task_images/dig.jpg"",""time"":0.09999996423721313},{""stimulus"":""run_exp/static/images/task_images/land.jpg"",""time"":901.2999999523163},{""stimulus"":""run_exp/static/images/task_images/dig.jpg"",""time"":1806.5}]",[],5,,,,,,,,,,,,,,
harvest,128,480658,0.0-41.0-1.0,"""event"",""trial"",""time""
""focus"",""1"",""18058""
""fullscreenenter"",""1"",""18153""
","
","""event"",""trial"",""time""
""focus"",""1"",""18058""
","""event"",""trial"",""time""
""fullscreenenter"",""1"",""18153""
","
",,null,run_exp/static/images/task_images/gems/10.jpg,null,,,,,,,5,,,5,,,,,10,0.489979864,0.5,,,,,,,
decision,129,480971,0.0-41.0-2.0,"""event"",""trial"",""time""
""focus"",""1"",""18058""
""fullscreenenter"",""1"",""18153""
","
","""event"",""trial"",""time""
""focus"",""1"",""18058""
","""event"",""trial"",""time""
""fullscreenenter"",""1"",""18153""
","
",,311.3,run_exp/static/images/task_images/land.jpg,76,,,,,,,5,,,5,,,,,,,,139407,1,3,TRUE,,,
travel,130,490667,0.0-42.0-0.0,"""event"",""trial"",""time""
""focus"",""1"",""18058""
""fullscreenenter"",""1"",""18153""
","
","""event"",""trial"",""time""
""focus"",""1"",""18058""
","""event"",""trial"",""time""
""fullscreenenter"",""1"",""18153""
","
",,,,,,,,,,,,"[{""stimulus"":""run_exp/static/images/task_images/rocket-01.jpg"",""time"":0.19999998807907104},{""stimulus"":""run_exp/static/images/task_images/rocket-02.jpg"",""time"":1089.8999999761581},{""stimulus"":""run_exp/static/images/task_images/rocket-03.jpg"",""time"":2165.300000011921},{""stimulus"":""run_exp/static/images/task_images/rocket-04.jpg"",""time"":3239},{""stimulus"":""run_exp/static/images/task_images/rocket-05.jpg"",""time"":4306.199999988079},{""stimulus"":""run_exp/static/images/task_images/rocket-06.jpg"",""time"":5381.699999988079},{""stimulus"":""run_exp/static/images/task_images/rocket-07.jpg"",""time"":6456.899999976158},{""stimulus"":""run_exp/static/images/task_images/rocket-08.jpg"",""time"":7533},{""stimulus"":""run_exp/static/images/task_images/rocket-09.jpg"",""time"":8610.199999988079}]",[],5,,,,,,,,,,,,,,
alien_welcome,131,495680,0.0-42.0-1.0,"""event"",""trial"",""time""
""focus"",""1"",""18058""
""fullscreenenter"",""1"",""18153""
","
","""event"",""trial"",""time""
""focus"",""1"",""18058""
","""event"",""trial"",""time""
""fullscreenenter"",""1"",""18153""
","
",,null,run_exp/static/images/task_images/aliens/old_aliens/planet/alien_planet-74.jpg,null,,,,,,,,,,,,,74,"50,65,49,5,37,74,52,8,72,7,25,45,79,13,17,33,51,48,75,54,55,78,44,23,4,30,70,69,10,24,64,38,71,27",,,,,,,,,,
land,132,496194,0.0-42.0-2.0,"""event"",""trial"",""time""
""focus"",""1"",""18058""
""fullscreenenter"",""1"",""18153""
","
","""event"",""trial"",""time""
""focus"",""1"",""18058""
","""event"",""trial"",""time""
""fullscreenenter"",""1"",""18153""
","
",,null,run_exp/static/images/task_images/land.jpg,null,,,,,,,100,,,6,,,,,,,,,,,,,,
dig,133,498207,0.0-42.0-3.0,"""event"",""trial"",""time""
""focus"",""1"",""18058""
""fullscreenenter"",""1"",""18153""
","
","""event"",""trial"",""time""
""focus"",""1"",""18058""
","""event"",""trial"",""time""
""fullscreenenter"",""1"",""18153""
","
",,,,,,,,,,,,"[{""stimulus"":""run_exp/static/images/task_images/dig.jpg"",""time"":0.40000003576278687},{""stimulus"":""run_exp/static/images/task_images/land.jpg"",""time"":670.9000000357628},{""stimulus"":""run_exp/static/images/task_images/dig.jpg"",""time"":1340.800000011921}]",[],6,,,,,,,,,,,,,,
harvest,134,499221,0.0-42.0-4.0,"""event"",""trial"",""time""
""focus"",""1"",""18058""
""fullscreenenter"",""1"",""18153""
","
","""event"",""trial"",""time""
""focus"",""1"",""18058""
","""event"",""trial"",""time""
""fullscreenenter"",""1"",""18153""
","
",,null,run_exp/static/images/task_images/gems/100.jpg,null,,,,,,,83,,,6,,,,,100,0.827364297,0.83,,,,,,,
decision,135,499539,0.0-42.0-5.0,"""event"",""trial"",""time""
""focus"",""1"",""18058""
""fullscreenenter"",""1"",""18153""
","
","""event"",""trial"",""time""
""focus"",""1"",""18058""
","""event"",""trial"",""time""
""fullscreenenter"",""1"",""18153""
","
",,316.9,run_exp/static/images/task_images/land.jpg,65,,,,,,,83,,,6,,,,,,,,157975,1,0,FALSE,,,
dig,136,502235,0.0-43.0-0.0,"""event"",""trial"",""time""
""focus"",""1"",""18058""
""fullscreenenter"",""1"",""18153""
","
","""event"",""trial"",""time""
""focus"",""1"",""18058""
","""event"",""trial"",""time""
""fullscreenenter"",""1"",""18153""
","
",,,,,,,,,,,,"[{""stimulus"":""run_exp/static/images/task_images/dig.jpg"",""time"":0.19999998807907104},{""stimulus"":""run_exp/static/images/task_images/land.jpg"",""time"":895.8999999761581},{""stimulus"":""run_exp/static/images/task_images/dig.jpg"",""time"":1800.0999999642372}]",[],6,,,,,,,,,,,,,,
harvest,137,503251,0.0-43.0-1.0,"""event"",""trial"",""time""
""focus"",""1"",""18058""
""fullscreenenter"",""1"",""18153""
","
","""event"",""trial"",""time""
""focus"",""1"",""18058""
","""event"",""trial"",""time""
""fullscreenenter"",""1"",""18153""
","
",,null,run_exp/static/images/task_images/gems/83.jpg,null,,,,,,,67,,,6,,,,,83,0.803654677,0.807228916,,,,,,,
decision,138,503602,0.0-43.0-2.0,"""event"",""trial"",""time""
""focus"",""1"",""18058""
""fullscreenenter"",""1"",""18153""
","
","""event"",""trial"",""time""
""focus"",""1"",""18058""
","""event"",""trial"",""time""
""fullscreenenter"",""1"",""18153""
","
",,350.8,run_exp/static/images/task_images/land.jpg,65,,,,,,,67,,,6,,,,,,,,162039,1,1,FALSE,,,
dig,139,506260,0.0-44.0-0.0,"""event"",""trial"",""time""
""focus"",""1"",""18058""
""fullscreenenter"",""1"",""18153""
","
","""event"",""trial"",""time""
""focus"",""1"",""18058""
","""event"",""trial"",""time""
""fullscreenenter"",""1"",""18153""
","
",,,,,,,,,,,,"[{""stimulus"":""run_exp/static/images/task_images/dig.jpg"",""time"":0.10000002384185791},{""stimulus"":""run_exp/static/images/task_images/land.jpg"",""time"":893.1000000238419},{""stimulus"":""run_exp/static/images/task_images/dig.jpg"",""time"":1779.6000000238419}]",[],6,,,,,,,,,,,,,,
harvest,140,507272,0.0-44.0-1.0,"""event"",""trial"",""time""
""focus"",""1"",""18058""
""fullscreenenter"",""1"",""18153""
","
","""event"",""trial"",""time""
""focus"",""1"",""18058""
","""event"",""trial"",""time""
""fullscreenenter"",""1"",""18153""
","
",,null,run_exp/static/images/task_images/gems/67.jpg,null,,,,,,,54,,,6,,,,,67,0.799443155,0.805970149,,,,,,,
decision,141,507819,0.0-44.0-2.0,"""event"",""trial"",""time""
""focus"",""1"",""18058""
""fullscreenenter"",""1"",""18153""
","
","""event"",""trial"",""time""
""focus"",""1"",""18058""
","""event"",""trial"",""time""
""fullscreenenter"",""1"",""18153""
","
",,546.1,run_exp/static/images/task_images/land.jpg,65,,,,,,,54,,,6,,,,,,,,166256,1,2,FALSE,,,
dig,142,510276,0.0-45.0-0.0,"""event"",""trial"",""time""
""focus"",""1"",""18058""
""fullscreenenter"",""1"",""18153""
","
","""event"",""trial"",""time""
""focus"",""1"",""18058""
","""event"",""trial"",""time""
""fullscreenenter"",""1"",""18153""
","
",,,,,,,,,,,,"[{""stimulus"":""run_exp/static/images/task_images/dig.jpg"",""time"":0.10000002384185791},{""stimulus"":""run_exp/static/images/task_images/land.jpg"",""time"":818.6000000238419},{""stimulus"":""run_exp/static/images/task_images/dig.jpg"",""time"":1642.5}]",[],6,,,,,,,,,,,,,,
harvest,143,511288,0.0-45.0-1.0,"""event"",""trial"",""time""
""focus"",""1"",""18058""
""fullscreenenter"",""1"",""18153""
","
","""event"",""trial"",""time""
""focus"",""1"",""18058""
","""event"",""trial"",""time""
""fullscreenenter"",""1"",""18153""
","
",,null,run_exp/static/images/task_images/gems/54.jpg,null,,,,,,,44,,,6,,,,,54,0.817764022,0.814814815,,,,,,,
decision,144,511612,0.0-45.0-2.0,"""event"",""trial"",""time""
""focus"",""1"",""18058""
""fullscreenenter"",""1"",""18153""
","
","""event"",""trial"",""time""
""focus"",""1"",""18058""
","""event"",""trial"",""time""
""fullscreenenter"",""1"",""18153""
","
",,323.2,run_exp/static/images/task_images/land.jpg,65,,,,,,,44,,,6,,,,,,,,170048,1,3,FALSE,,,
dig,145,514299,0.0-46.0-0.0,"""event"",""trial"",""time""
""focus"",""1"",""18058""
""fullscreenenter"",""1"",""18153""
","
","""event"",""trial"",""time""
""focus"",""1"",""18058""
","""event"",""trial"",""time""
""fullscreenenter"",""1"",""18153""
","
",,,,,,,,,,,,"[{""stimulus"":""run_exp/static/images/task_images/dig.jpg"",""time"":0.20000004768371582},{""stimulus"":""run_exp/static/images/task_images/land.jpg"",""time"":906.4000000357628},{""stimulus"":""run_exp/static/images/task_images/dig.jpg"",""time"":1796.300000011921}]",[],6,,,,,,,,,,,,,,
harvest,146,515302,0.0-46.0-1.0,"""event"",""trial"",""time""
""focus"",""1"",""18058""
""fullscreenenter"",""1"",""18153""
","
","""event"",""trial"",""time""
""focus"",""1"",""18058""
","""event"",""trial"",""time""
""fullscreenenter"",""1"",""18153""
","
",,null,run_exp/static/images/task_images/gems/44.jpg,null,,,,,,,35,,,6,,,,,44,0.793213624,0.795454545,,,,,,,
decision,147,515611,0.0-46.0-2.0,"""event"",""trial"",""time""
""focus"",""1"",""18058""
""fullscreenenter"",""1"",""18153""
","
","""event"",""trial"",""time""
""focus"",""1"",""18058""
","""event"",""trial"",""time""
""fullscreenenter"",""1"",""18153""
","
",,307.9,run_exp/static/images/task_images/land.jpg,65,,,,,,,35,,,6,,,,,,,,174047,1,4,FALSE,,,
dig,148,518313,0.0-47.0-0.0,"""event"",""trial"",""time""
""focus"",""1"",""18058""
""fullscreenenter"",""1"",""18153""
","
","""event"",""trial"",""time""
""focus"",""1"",""18058""
","""event"",""trial"",""time""
""fullscreenenter"",""1"",""18153""
","
",,,,,,,,,,,,"[{""stimulus"":""run_exp/static/images/task_images/dig.jpg"",""time"":0.19999998807907104},{""stimulus"":""run_exp/static/images/task_images/land.jpg"",""time"":903.8000000119209},{""stimulus"":""run_exp/static/images/task_images/dig.jpg"",""time"":1809}]",[],6,,,,,,,,,,,,,,
harvest,149,519322,0.0-47.0-1.0,"""event"",""trial"",""time""
""focus"",""1"",""18058""
""fullscreenenter"",""1"",""18153""
","
","""event"",""trial"",""time""
""focus"",""1"",""18058""
","""event"",""trial"",""time""
""fullscreenenter"",""1"",""18153""
","
",,null,run_exp/static/images/task_images/gems/35.jpg,null,,,,,,,26,,,6,,,,,35,0.74605255,0.742857143,,,,,,,
decision,150,519747,0.0-47.0-2.0,"""event"",""trial"",""time""
""focus"",""1"",""18058""
""fullscreenenter"",""1"",""18153""
","
","""event"",""trial"",""time""
""focus"",""1"",""18058""
","""event"",""trial"",""time""
""fullscreenenter"",""1"",""18153""
","
",,423.5,run_exp/static/images/task_images/land.jpg,65,,,,,,,26,,,6,,,,,,,,178183,1,5,FALSE,,,
dig,151,522332,0.0-48.0-0.0,"""event"",""trial"",""time""
""focus"",""1"",""18058""
""fullscreenenter"",""1"",""18153""
","
","""event"",""trial"",""time""
""focus"",""1"",""18058""
","""event"",""trial"",""time""
""fullscreenenter"",""1"",""18153""
","
",,,,,,,,,,,,"[{""stimulus"":""run_exp/static/images/task_images/dig.jpg"",""time"":0.10000002384185791},{""stimulus"":""run_exp/static/images/task_images/land.jpg"",""time"":860},{""stimulus"":""run_exp/static/images/task_images/dig.jpg"",""time"":1729}]",[],6,,,,,,,,,,,,,,
harvest,152,523349,0.0-48.0-1.0,"""event"",""trial"",""time""
""focus"",""1"",""18058""
""fullscreenenter"",""1"",""18153""
","
","""event"",""trial"",""time""
""focus"",""1"",""18058""
","""event"",""trial"",""time""
""fullscreenenter"",""1"",""18153""
","
",,null,run_exp/static/images/task_images/gems/26.jpg,null,,,,,,,22,,,6,,,,,26,0.860739265,0.846153846,,,,,,,
decision,153,523652,0.0-48.0-2.0,"""event"",""trial"",""time""
""focus"",""1"",""18058""
""fullscreenenter"",""1"",""18153""
","
","""event"",""trial"",""time""
""focus"",""1"",""18058""
","""event"",""trial"",""time""
""fullscreenenter"",""1"",""18153""
","
",,301.3,run_exp/static/images/task_images/land.jpg,65,,,,,,,22,,,6,,,,,,,,182088,1,6,FALSE,,,
dig,154,526356,0.0-49.0-0.0,"""event"",""trial"",""time""
""focus"",""1"",""18058""
""fullscreenenter"",""1"",""18153""
","
","""event"",""trial"",""time""
""focus"",""1"",""18058""
","""event"",""trial"",""time""
""fullscreenenter"",""1"",""18153""
","
",,,,,,,,,,,,"[{""stimulus"":""run_exp/static/images/task_images/dig.jpg"",""time"":0.09999996423721313},{""stimulus"":""run_exp/static/images/task_images/land.jpg"",""time"":911.6999999880791},{""stimulus"":""run_exp/static/images/task_images/dig.jpg"",""time"":1800.3999999761581}]",[],6,,,,,,,,,,,,,,
harvest,155,527368,0.0-49.0-1.0,"""event"",""trial"",""time""
""focus"",""1"",""18058""
""fullscreenenter"",""1"",""18153""
","
","""event"",""trial"",""time""
""focus"",""1"",""18058""
","""event"",""trial"",""time""
""fullscreenenter"",""1"",""18153""
","
",,null,run_exp/static/images/task_images/gems/22.jpg,null,,,,,,,17,,,6,,,,,22,0.767132379,0.772727273,,,,,,,
decision,156,527659,0.0-49.0-2.0,"""event"",""trial"",""time""
""focus"",""1"",""18058""
""fullscreenenter"",""1"",""18153""
","
","""event"",""trial"",""time""
""focus"",""1"",""18058""
","""event"",""trial"",""time""
""fullscreenenter"",""1"",""18153""
","
",,290.1,run_exp/static/images/task_images/land.jpg,65,,,,,,,17,,,6,,,,,,,,186095,1,7,FALSE,,,
dig,157,530377,0.0-50.0-0.0,"""event"",""trial"",""time""
""focus"",""1"",""18058""
""fullscreenenter"",""1"",""18153""
","
","""event"",""trial"",""time""
""focus"",""1"",""18058""
","""event"",""trial"",""time""
""fullscreenenter"",""1"",""18153""
","
",,,,,,,,,,,,"[{""stimulus"":""run_exp/static/images/task_images/dig.jpg"",""time"":0.10000002384185791},{""stimulus"":""run_exp/static/images/task_images/land.jpg"",""time"":906},{""stimulus"":""run_exp/static/images/task_images/dig.jpg"",""time"":1809.300000011921}]",[],6,,,,,,,,,,,,,,
harvest,158,531390,0.0-50.0-1.0,"""event"",""trial"",""time""
""focus"",""1"",""18058""
""fullscreenenter"",""1"",""18153""
","
","""event"",""trial"",""time""
""focus"",""1"",""18058""
","""event"",""trial"",""time""
""fullscreenenter"",""1"",""18153""
","
",,null,run_exp/static/images/task_images/gems/17.jpg,null,,,,,,,13,,,6,,,,,17,0.789675926,0.764705882,,,,,,,
decision,159,531468,0.0-50.0-2.0,"""event"",""trial"",""time""
""focus"",""1"",""18058""
""fullscreenenter"",""1"",""18153""
","
","""event"",""trial"",""time""
""focus"",""1"",""18058""
","""event"",""trial"",""time""
""fullscreenenter"",""1"",""18153""
","
",,77.30000001,run_exp/static/images/task_images/land.jpg,65,,,,,,,13,,,6,,,,,,,,189904,1,8,FALSE,,,
dig,160,534402,0.0-51.0-0.0,"""event"",""trial"",""time""
""focus"",""1"",""18058""
""fullscreenenter"",""1"",""18153""
","
","""event"",""trial"",""time""
""focus"",""1"",""18058""
","""event"",""trial"",""time""
""fullscreenenter"",""1"",""18153""
","
",,,,,,,,,,,,"[{""stimulus"":""run_exp/static/images/task_images/dig.jpg"",""time"":0.19999998807907104},{""stimulus"":""run_exp/static/images/task_images/land.jpg"",""time"":981},{""stimulus"":""run_exp/static/images/task_images/dig.jpg"",""time"":1964}]",[],6,,,,,,,,,,,,,,
harvest,161,535416,0.0-51.0-1.0,"""event"",""trial"",""time""
""focus"",""1"",""18058""
""fullscreenenter"",""1"",""18153""
","
","""event"",""trial"",""time""
""focus"",""1"",""18058""
","""event"",""trial"",""time""
""fullscreenenter"",""1"",""18153""
","
",,null,run_exp/static/images/task_images/gems/13.jpg,null,,,,,,,10,,,6,,,,,13,0.796116533,0.769230769,,,,,,,
decision,162,535781,0.0-51.0-2.0,"""event"",""trial"",""time""
""focus"",""1"",""18058""
""fullscreenenter"",""1"",""18153""
","
","""event"",""trial"",""time""
""focus"",""1"",""18058""
","""event"",""trial"",""time""
""fullscreenenter"",""1"",""18153""
","
",,364.3,run_exp/static/images/task_images/land.jpg,65,,,,,,,10,,,6,,,,,,,,194217,1,9,FALSE,,,
dig,163,538424,0.0-52.0-0.0,"""event"",""trial"",""time""
""focus"",""1"",""18058""
""fullscreenenter"",""1"",""18153""
","
","""event"",""trial"",""time""
""focus"",""1"",""18058""
","""event"",""trial"",""time""
""fullscreenenter"",""1"",""18153""
","
",,,,,,,,,,,,"[{""stimulus"":""run_exp/static/images/task_images/dig.jpg"",""time"":0.19999998807907104},{""stimulus"":""run_exp/static/images/task_images/land.jpg"",""time"":879.1999999880791},{""stimulus"":""run_exp/static/images/task_images/dig.jpg"",""time"":1767.800000011921}]",[],6,,,,,,,,,,,,,,
harvest,164,539437,0.0-52.0-1.0,"""event"",""trial"",""time""
""focus"",""1"",""18058""
""fullscreenenter"",""1"",""18153""
","
","""event"",""trial"",""time""
""focus"",""1"",""18058""
","""event"",""trial"",""time""
""fullscreenenter"",""1"",""18153""
","
",,null,run_exp/static/images/task_images/gems/10.jpg,null,,,,,,,8,,,6,,,,,10,0.77185519,0.8,,,,,,,
decision,165,539764,0.0-52.0-2.0,"""event"",""trial"",""time""
""focus"",""1"",""18058""
""fullscreenenter"",""1"",""18153""
","
","""event"",""trial"",""time""
""focus"",""1"",""18058""
","""event"",""trial"",""time""
""fullscreenenter"",""1"",""18153""
","
",,325.2,run_exp/static/images/task_images/land.jpg,76,,,,,,,8,,,6,,,,,,,,198200,1,10,TRUE,,,
travel,166,549446,0.0-53.0-0.0,"""event"",""trial"",""time""
""focus"",""1"",""18058""
""fullscreenenter"",""1"",""18153""
","
","""event"",""trial"",""time""
""focus"",""1"",""18058""
","""event"",""trial"",""time""
""fullscreenenter"",""1"",""18153""
","
",,,,,,,,,,,,"[{""stimulus"":""run_exp/static/images/task_images/rocket-01.jpg"",""time"":0.20000004768371582},{""stimulus"":""run_exp/static/images/task_images/rocket-02.jpg"",""time"":1075.7000000476837},{""stimulus"":""run_exp/static/images/task_images/rocket-03.jpg"",""time"":2148.900000035763},{""stimulus"":""run_exp/static/images/task_images/rocket-04.jpg"",""time"":3224.600000023842},{""stimulus"":""run_exp/static/images/task_images/rocket-05.jpg"",""time"":4297.200000047684},{""stimulus"":""run_exp/static/images/task_images/rocket-06.jpg"",""time"":5382.5},{""stimulus"":""run_exp/static/images/task_images/rocket-07.jpg"",""time"":6446.700000047684},{""stimulus"":""run_exp/static/images/task_images/rocket-08.jpg"",""time"":7519.200000047684},{""stimulus"":""run_exp/static/images/task_images/rocket-09.jpg"",""time"":8593.200000047684}]",[],6,,,,,,,,,,,,,,
alien_welcome,167,554458,0.0-53.0-1.0,"""event"",""trial"",""time""
""focus"",""1"",""18058""
""fullscreenenter"",""1"",""18153""
","
","""event"",""trial"",""time""
""focus"",""1"",""18058""
","""event"",""trial"",""time""
""fullscreenenter"",""1"",""18153""
","
",,null,run_exp/static/images/task_images/aliens/old_aliens/planet/alien_planet-52.jpg,null,,,,,,,,,,,,,52,"50,65,49,5,37,74,52,8,72,7,25,45,79,13,17,33,51,48,75,54,55,78,44,23,4,30,70,69,10,24,64,38,71,27",,,,,,,,,,
land,168,554973,0.0-53.0-2.0,"""event"",""trial"",""time""
""focus"",""1"",""18058""
""fullscreenenter"",""1"",""18153""
","
","""event"",""trial"",""time""
""focus"",""1"",""18058""
","""event"",""trial"",""time""
""fullscreenenter"",""1"",""18153""
","
",,null,run_exp/static/images/task_images/land.jpg,null,,,,,,,90,,,7,,,,,,,,,,,,,,
dig,169,556984,0.0-53.0-3.0,"""event"",""trial"",""time""
""focus"",""1"",""18058""
""fullscreenenter"",""1"",""18153""
","
","""event"",""trial"",""time""
""focus"",""1"",""18058""
","""event"",""trial"",""time""
""fullscreenenter"",""1"",""18153""
","
",,,,,,,,,,,,"[{""stimulus"":""run_exp/static/images/task_images/dig.jpg"",""time"":0.30000001192092896},{""stimulus"":""run_exp/static/images/task_images/land.jpg"",""time"":682},{""stimulus"":""run_exp/static/images/task_images/dig.jpg"",""time"":1337.5}]",[],7,,,,,,,,,,,,,,
harvest,170,557999,0.0-53.0-4.0,"""event"",""trial"",""time""
""focus"",""1"",""18058""
""fullscreenenter"",""1"",""18153""
","
","""event"",""trial"",""time""
""focus"",""1"",""18058""
","""event"",""trial"",""time""
""fullscreenenter"",""1"",""18153""
","
",,null,run_exp/static/images/task_images/gems/90.jpg,null,,,,,,,77,,,7,,,,,90,0.857044161,0.855555556,,,,,,,
decision,171,558435,0.0-53.0-5.0,"""event"",""trial"",""time""
""focus"",""1"",""18058""
""fullscreenenter"",""1"",""18153""
","
","""event"",""trial"",""time""
""focus"",""1"",""18058""
","""event"",""trial"",""time""
""fullscreenenter"",""1"",""18153""
","
",,434.5,run_exp/static/images/task_images/land.jpg,65,,,,,,,77,,,7,,,,,,,,216871,1,0,FALSE,,,
dig,172,561005,0.0-54.0-0.0,"""event"",""trial"",""time""
""focus"",""1"",""18058""
""fullscreenenter"",""1"",""18153""
","
","""event"",""trial"",""time""
""focus"",""1"",""18058""
","""event"",""trial"",""time""
""fullscreenenter"",""1"",""18153""
","
",,,,,,,,,,,,"[{""stimulus"":""run_exp/static/images/task_images/dig.jpg"",""time"":0.19999998807907104},{""stimulus"":""run_exp/static/images/task_images/land.jpg"",""time"":869},{""stimulus"":""run_exp/static/images/task_images/dig.jpg"",""time"":1712.300000011921}]",[],7,,,,,,,,,,,,,,
harvest,173,562019,0.0-54.0-1.0,"""event"",""trial"",""time""
""focus"",""1"",""18058""
""fullscreenenter"",""1"",""18153""
","
","""event"",""trial"",""time""
""focus"",""1"",""18058""
","""event"",""trial"",""time""
""fullscreenenter"",""1"",""18153""
","
",,null,run_exp/static/images/task_images/gems/77.jpg,null,,,,,,,61,,,7,,,,,77,0.798566286,0.792207792,,,,,,,
decision,174,562420,0.0-54.0-2.0,"""event"",""trial"",""time""
""focus"",""1"",""18058""
""fullscreenenter"",""1"",""18153""
","
","""event"",""trial"",""time""
""focus"",""1"",""18058""
","""event"",""trial"",""time""
""fullscreenenter"",""1"",""18153""
","
",,399.7,run_exp/static/images/task_images/land.jpg,65,,,,,,,61,,,7,,,,,,,,220856,1,1,FALSE,,,
dig,175,565034,0.0-55.0-0.0,"""event"",""trial"",""time""
""focus"",""1"",""18058""
""fullscreenenter"",""1"",""18153""
","
","""event"",""trial"",""time""
""focus"",""1"",""18058""
","""event"",""trial"",""time""
""fullscreenenter"",""1"",""18153""
","
",,,,,,,,,,,,"[{""stimulus"":""run_exp/static/images/task_images/dig.jpg"",""time"":0.10000002384185791},{""stimulus"":""run_exp/static/images/task_images/land.jpg"",""time"":867},{""stimulus"":""run_exp/static/images/task_images/dig.jpg"",""time"":1735.699999988079}]",[],7,,,,,,,,,,,,,,
harvest,176,566051,0.0-55.0-1.0,"""event"",""trial"",""time""
""focus"",""1"",""18058""
""fullscreenenter"",""1"",""18153""
","
","""event"",""trial"",""time""
""focus"",""1"",""18058""
","""event"",""trial"",""time""
""fullscreenenter"",""1"",""18153""
","
",,null,run_exp/static/images/task_images/gems/61.jpg,null,,,,,,,52,,,7,,,,,61,0.857304465,0.852459016,,,,,,,
decision,177,566646,0.0-55.0-2.0,"""event"",""trial"",""time""
""focus"",""1"",""18058""
""fullscreenenter"",""1"",""18153""
","
","""event"",""trial"",""time""
""focus"",""1"",""18058""
","""event"",""trial"",""time""
""fullscreenenter"",""1"",""18153""
","
",,594,run_exp/static/images/task_images/land.jpg,65,,,,,,,52,,,7,,,,,,,,225082,1,2,FALSE,,,
dig,178,569069,0.0-56.0-0.0,"""event"",""trial"",""time""
""focus"",""1"",""18058""
""fullscreenenter"",""1"",""18153""
","
","""event"",""trial"",""time""
""focus"",""1"",""18058""
","""event"",""trial"",""time""
""fullscreenenter"",""1"",""18153""
","
",,,,,,,,,,,,"[{""stimulus"":""run_exp/static/images/task_images/dig.jpg"",""time"":0.09999996423721313},{""stimulus"":""run_exp/static/images/task_images/land.jpg"",""time"":809.7999999523163},{""stimulus"":""run_exp/static/images/task_images/dig.jpg"",""time"":1619.7999999523163}]",[],7,,,,,,,,,,,,,,
harvest,179,570081,0.0-56.0-1.0,"""event"",""trial"",""time""
""focus"",""1"",""18058""
""fullscreenenter"",""1"",""18153""
","
","""event"",""trial"",""time""
""focus"",""1"",""18058""
","""event"",""trial"",""time""
""fullscreenenter"",""1"",""18153""
","
",,null,run_exp/static/images/task_images/gems/52.jpg,null,,,,,,,43,,,7,,,,,52,0.818474665,0.826923077,,,,,,,
decision,180,570445,0.0-56.0-2.0,"""event"",""trial"",""time""
""focus"",""1"",""18058""
""fullscreenenter"",""1"",""18153""
","
","""event"",""trial"",""time""
""focus"",""1"",""18058""
","""event"",""trial"",""time""
""fullscreenenter"",""1"",""18153""
","
",,361.7,run_exp/static/images/task_images/land.jpg,65,,,,,,,43,,,7,,,,,,,,228881,1,3,FALSE,,,
dig,181,573093,0.0-57.0-0.0,"""event"",""trial"",""time""
""focus"",""1"",""18058""
""fullscreenenter"",""1"",""18153""
","
","""event"",""trial"",""time""
""focus"",""1"",""18058""
","""event"",""trial"",""time""
""fullscreenenter"",""1"",""18153""
","
",,,,,,,,,,,,"[{""stimulus"":""run_exp/static/images/task_images/dig.jpg"",""time"":0.19999998807907104},{""stimulus"":""run_exp/static/images/task_images/land.jpg"",""time"":880.7999999523163},{""stimulus"":""run_exp/static/images/task_images/dig.jpg"",""time"":1768.8999999761581}]",[],7,,,,,,,,,,,,,,
harvest,182,574107,0.0-57.0-1.0,"""event"",""trial"",""time""
""focus"",""1"",""18058""
""fullscreenenter"",""1"",""18153""
","
","""event"",""trial"",""time""
""focus"",""1"",""18058""
","""event"",""trial"",""time""
""fullscreenenter"",""1"",""18153""
","
",,null,run_exp/static/images/task_images/gems/43.jpg,null,,,,,,,35,,,7,,,,,43,0.824286185,0.813953488,,,,,,,
decision,183,574490,0.0-57.0-2.0,"""event"",""trial"",""time""
""focus"",""1"",""18058""
""fullscreenenter"",""1"",""18153""
","
","""event"",""trial"",""time""
""focus"",""1"",""18058""
","""event"",""trial"",""time""
""fullscreenenter"",""1"",""18153""
","
",,380.9,run_exp/static/images/task_images/land.jpg,65,,,,,,,35,,,7,,,,,,,,232926,1,4,FALSE,,,
dig,184,577125,0.0-58.0-0.0,"""event"",""trial"",""time""
""focus"",""1"",""18058""
""fullscreenenter"",""1"",""18153""
","
","""event"",""trial"",""time""
""focus"",""1"",""18058""
","""event"",""trial"",""time""
""fullscreenenter"",""1"",""18153""
","
",,,,,,,,,,,,"[{""stimulus"":""run_exp/static/images/task_images/dig.jpg"",""time"":0.19999998807907104},{""stimulus"":""run_exp/static/images/task_images/land.jpg"",""time"":874.8000000119209},{""stimulus"":""run_exp/static/images/task_images/dig.jpg"",""time"":1759.800000011921}]",[],7,,,,,,,,,,,,,,
harvest,185,578141,0.0-58.0-1.0,"""event"",""trial"",""time""
""focus"",""1"",""18058""
""fullscreenenter"",""1"",""18153""
","
","""event"",""trial"",""time""
""focus"",""1"",""18058""
","""event"",""trial"",""time""
""fullscreenenter"",""1"",""18153""
","
",,null,run_exp/static/images/task_images/gems/35.jpg,null,,,,,,,30,,,7,,,,,35,0.847613892,0.857142857,,,,,,,
decision,186,578481,0.0-58.0-2.0,"""event"",""trial"",""time""
""focus"",""1"",""18058""
""fullscreenenter"",""1"",""18153""
","
","""event"",""trial"",""time""
""focus"",""1"",""18058""
","""event"",""trial"",""time""
""fullscreenenter"",""1"",""18153""
","
",,337.9,run_exp/static/images/task_images/land.jpg,65,,,,,,,30,,,7,,,,,,,,236917,1,5,FALSE,,,
dig,187,581145,0.0-59.0-0.0,"""event"",""trial"",""time""
""focus"",""1"",""18058""
""fullscreenenter"",""1"",""18153""
","
","""event"",""trial"",""time""
""focus"",""1"",""18058""
","""event"",""trial"",""time""
""fullscreenenter"",""1"",""18153""
","
",,,,,,,,,,,,"[{""stimulus"":""run_exp/static/images/task_images/dig.jpg"",""time"":0},{""stimulus"":""run_exp/static/images/task_images/land.jpg"",""time"":888.6999999880791},{""stimulus"":""run_exp/static/images/task_images/dig.jpg"",""time"":1790.0999999642372}]",[],7,,,,,,,,,,,,,,
harvest,188,582159,0.0-59.0-1.0,"""event"",""trial"",""time""
""focus"",""1"",""18058""
""fullscreenenter"",""1"",""18153""
","
","""event"",""trial"",""time""
""focus"",""1"",""18058""
","""event"",""trial"",""time""
""fullscreenenter"",""1"",""18153""
","
",,null,run_exp/static/images/task_images/gems/30.jpg,null,,,,,,,26,,,7,,,,,30,0.852032375,0.866666667,,,,,,,
decision,189,582596,0.0-59.0-2.0,"""event"",""trial"",""time""
""focus"",""1"",""18058""
""fullscreenenter"",""1"",""18153""
","
","""event"",""trial"",""time""
""focus"",""1"",""18058""
","""event"",""trial"",""time""
""fullscreenenter"",""1"",""18153""
","
",,435.4,run_exp/static/images/task_images/land.jpg,65,,,,,,,26,,,7,,,,,,,,241032,1,6,FALSE,,,
dig,190,585176,0.0-60.0-0.0,"""event"",""trial"",""time""
""focus"",""1"",""18058""
""fullscreenenter"",""1"",""18153""
","
","""event"",""trial"",""time""
""focus"",""1"",""18058""
","""event"",""trial"",""time""
""fullscreenenter"",""1"",""18153""
","
",,,,,,,,,,,,"[{""stimulus"":""run_exp/static/images/task_images/dig.jpg"",""time"":0.19999998807907104},{""stimulus"":""run_exp/static/images/task_images/land.jpg"",""time"":857.0999999642372},{""stimulus"":""run_exp/static/images/task_images/dig.jpg"",""time"":1718.199999988079}]",[],7,,,,,,,,,,,,,,
harvest,191,586192,0.0-60.0-1.0,"""event"",""trial"",""time""
""focus"",""1"",""18058""
""fullscreenenter"",""1"",""18153""
","
","""event"",""trial"",""time""
""focus"",""1"",""18058""
","""event"",""trial"",""time""
""fullscreenenter"",""1"",""18153""
","
",,null,run_exp/static/images/task_images/gems/26.jpg,null,,,,,,,19,,,7,,,,,26,0.74751909,0.730769231,,,,,,,
decision,192,586641,0.0-60.0-2.0,"""event"",""trial"",""time""
""focus"",""1"",""18058""
""fullscreenenter"",""1"",""18153""
","
","""event"",""trial"",""time""
""focus"",""1"",""18058""
","""event"",""trial"",""time""
""fullscreenenter"",""1"",""18153""
","
",,448.8,run_exp/static/images/task_images/land.jpg,65,,,,,,,19,,,7,,,,,,,,245077,1,7,FALSE,,,
dig,193,589197,0.0-61.0-0.0,"""event"",""trial"",""time""
""focus"",""1"",""18058""
""fullscreenenter"",""1"",""18153""
","
","""event"",""trial"",""time""
""focus"",""1"",""18058""
","""event"",""trial"",""time""
""fullscreenenter"",""1"",""18153""
","
",,,,,,,,,,,,"[{""stimulus"":""run_exp/static/images/task_images/dig.jpg"",""time"":0.19999998807907104},{""stimulus"":""run_exp/static/images/task_images/land.jpg"",""time"":852.6999999880791},{""stimulus"":""run_exp/static/images/task_images/dig.jpg"",""time"":1711}]",[],7,,,,,,,,,,,,,,
harvest,194,590211,0.0-61.0-1.0,"""event"",""trial"",""time""
""focus"",""1"",""18058""
""fullscreenenter"",""1"",""18153""
","
","""event"",""trial"",""time""
""focus"",""1"",""18058""
","""event"",""trial"",""time""
""fullscreenenter"",""1"",""18153""
","
",,null,run_exp/static/images/task_images/gems/19.jpg,null,,,,,,,16,,,7,,,,,19,0.849022111,0.842105263,,,,,,,
decision,195,590570,0.0-61.0-2.0,"""event"",""trial"",""time""
""focus"",""1"",""18058""
""fullscreenenter"",""1"",""18153""
","
","""event"",""trial"",""time""
""focus"",""1"",""18058""
","""event"",""trial"",""time""
""fullscreenenter"",""1"",""18153""
","
",,358.3,run_exp/static/images/task_images/land.jpg,76,,,,,,,16,,,7,,,,,,,,249007,1,8,TRUE,,,
travel,196,600220,0.0-62.0-0.0,"""event"",""trial"",""time""
""focus"",""1"",""18058""
""fullscreenenter"",""1"",""18153""
","
","""event"",""trial"",""time""
""focus"",""1"",""18058""
","""event"",""trial"",""time""
""fullscreenenter"",""1"",""18153""
","
",,,,,,,,,,,,"[{""stimulus"":""run_exp/static/images/task_images/rocket-01.jpg"",""time"":0.19999998807907104},{""stimulus"":""run_exp/static/images/task_images/rocket-02.jpg"",""time"":1077.300000011921},{""stimulus"":""run_exp/static/images/task_images/rocket-03.jpg"",""time"":2143.600000023842},{""stimulus"":""run_exp/static/images/task_images/rocket-04.jpg"",""time"":3222.900000035763},{""stimulus"":""run_exp/static/images/task_images/rocket-05.jpg"",""time"":4285.900000035763},{""stimulus"":""run_exp/static/images/task_images/rocket-06.jpg"",""time"":5356.800000011921},{""stimulus"":""run_exp/static/images/task_images/rocket-07.jpg"",""time"":6427.100000023842},{""stimulus"":""run_exp/static/images/task_images/rocket-08.jpg"",""time"":7512.199999988079},{""stimulus"":""run_exp/static/images/task_images/rocket-09.jpg"",""time"":8569.300000011921}]",[],7,,,,,,,,,,,,,,
alien_welcome,197,605225,0.0-62.0-1.0,"""event"",""trial"",""time""
""focus"",""1"",""18058""
""fullscreenenter"",""1"",""18153""
","
","""event"",""trial"",""time""
""focus"",""1"",""18058""
","""event"",""trial"",""time""
""fullscreenenter"",""1"",""18153""
","
",,null,run_exp/static/images/task_images/aliens/old_aliens/planet/alien_planet-8.jpg,null,,,,,,,,,,,,,8,"50,65,49,5,37,74,52,8,72,7,25,45,79,13,17,33,51,48,75,54,55,78,44,23,4,30,70,69,10,24,64,38,71,27",,,,,,,,,,
land,198,605729,0.0-62.0-2.0,"""event"",""trial"",""time""
""focus"",""1"",""18058""
""fullscreenenter"",""1"",""18153""
","
","""event"",""trial"",""time""
""focus"",""1"",""18058""
","""event"",""trial"",""time""
""fullscreenenter"",""1"",""18153""
","
",,null,run_exp/static/images/task_images/land.jpg,null,,,,,,,101,,,8,,,,,,,,,,,,,,
dig,199,607738,0.0-62.0-3.0,"""event"",""trial"",""time""
""focus"",""1"",""18058""
""fullscreenenter"",""1"",""18153""
","
","""event"",""trial"",""time""
""focus"",""1"",""18058""
","""event"",""trial"",""time""
""fullscreenenter"",""1"",""18153""
","
",,,,,,,,,,,,"[{""stimulus"":""run_exp/static/images/task_images/dig.jpg"",""time"":0.3999999761581421},{""stimulus"":""run_exp/static/images/task_images/land.jpg"",""time"":668.8999999761581},{""stimulus"":""run_exp/static/images/task_images/dig.jpg"",""time"":1338.8999999761581}]",[],8,,,,,,,,,,,,,,
harvest,200,608740,0.0-62.0-4.0,"""event"",""trial"",""time""
""focus"",""1"",""18058""
""fullscreenenter"",""1"",""18153""
","
","""event"",""trial"",""time""
""focus"",""1"",""18058""
","""event"",""trial"",""time""
""fullscreenenter"",""1"",""18153""
","
",,null,run_exp/static/images/task_images/gems/101.jpg,null,,,,,,,83,,,8,,,,,101,0.817047415,0.821782178,,,,,,,
decision,201,609138,0.0-62.0-5.0,"""event"",""trial"",""time""
""focus"",""1"",""18058""
""fullscreenenter"",""1"",""18153""
","
","""event"",""trial"",""time""
""focus"",""1"",""18058""
","""event"",""trial"",""time""
""fullscreenenter"",""1"",""18153""
","
",,396.8,run_exp/static/images/task_images/land.jpg,65,,,,,,,83,,,8,,,,,,,,267574,1,0,FALSE,,,
dig,202,611751,0.0-63.0-0.0,"""event"",""trial"",""time""
""focus"",""1"",""18058""
""fullscreenenter"",""1"",""18153""
","
","""event"",""trial"",""time""
""focus"",""1"",""18058""
","""event"",""trial"",""time""
""fullscreenenter"",""1"",""18153""
","
",,,,,,,,,,,,"[{""stimulus"":""run_exp/static/images/task_images/dig.jpg"",""time"":0.19999998807907104},{""stimulus"":""run_exp/static/images/task_images/land.jpg"",""time"":879.5},{""stimulus"":""run_exp/static/images/task_images/dig.jpg"",""time"":1738.5999999642372}]",[],8,,,,,,,,,,,,,,
harvest,203,612764,0.0-63.0-1.0,"""event"",""trial"",""time""
""focus"",""1"",""18058""
""fullscreenenter"",""1"",""18153""
","
","""event"",""trial"",""time""
""focus"",""1"",""18058""
","""event"",""trial"",""time""
""fullscreenenter"",""1"",""18153""
","
",,null,run_exp/static/images/task_images/gems/83.jpg,null,,,,,,,62,,,8,,,,,83,0.744419438,0.746987952,,,,,,,
decision,204,613269,0.0-63.0-2.0,"""event"",""trial"",""time""
""focus"",""1"",""18058""
""fullscreenenter"",""1"",""18153""
","
","""event"",""trial"",""time""
""focus"",""1"",""18058""
","""event"",""trial"",""time""
""fullscreenenter"",""1"",""18153""
","
",,502.4,run_exp/static/images/task_images/land.jpg,65,,,,,,,62,,,8,,,,,,,,271705,1,1,FALSE,,,
dig,205,615774,0.0-64.0-0.0,"""event"",""trial"",""time""
