trial_type,trial_index,time_elapsed,internal_node_id,interactions,blur_events,focus_events,fullscreenenter_events,fullscreenexit_events,success,rt,stimulus,key_press,prompt,subject_id,participant_id,age,gender,button_pressed,next_reward,animation_sequence,responses,planet,curr_prac_trial,n_prac_rounds,alien,aliens,reward_received,decay_rate_actual,decay_rate_exp,time_in_block,block_num,prt,last_trial_on_planet,button_html,bonus,num_failures
pavlovia,0,3,0.0-0.0,"""event"",""trial"",""time""
""fullscreenenter"",""1"",""4322""
","
","
","""event"",""trial"",""time""
""fullscreenenter"",""1"",""4322""
","
",,,,,,,,,,,,,,,,,,,,,,,,,,,,
fullscreen,1,5267,0.0-1.0,"""event"",""trial"",""time""
""fullscreenenter"",""1"",""4322""
","
","
","""event"",""trial"",""time""
""fullscreenenter"",""1"",""4322""
","
",TRUE,,,,,,,,,,,,,,,,,,,,,,,,,,,
instruc_welcome,2,15049,0.0-2.0,"""event"",""trial"",""time""
""fullscreenenter"",""1"",""4322""
","
","
","""event"",""trial"",""time""
""fullscreenenter"",""1"",""4322""
","
",,null,run_exp/static/audio/clip_1_welcome.m4a,null,"<p>Howdy! In this experiment, you’ll be an explorer traveling through space to collect space treasure.</p><p>Your mission is to collect as much treasure as possible.</p><br><br><p><img src='run_exp/static/images/task_images/opening_img-01.jpg' height='300' width='auto'></p>",10636,4898,17.17,Female,,,,,,,,,,,,,,,,,,,
audio-keyboard-response,3,31625,0.0-3.0,"""event"",""trial"",""time""
""fullscreenenter"",""1"",""4322""
","
","
","""event"",""trial"",""time""
""fullscreenenter"",""1"",""4322""
","
",,null,run_exp/static/audio/clip_2_move.m4a,null,,,,,,,,,,,,,,,,,,,,,,,,
welcome_dec,4,32273,0.0-4.0,"""event"",""trial"",""time""
""fullscreenenter"",""1"",""4322""
","
","
","""event"",""trial"",""time""
""fullscreenenter"",""1"",""4322""
","
",,645.5999999,"<p>Howdy! In this experiment, you’ll be an explorer traveling through space to collect space treasure.</p><p>Your mission is to collect as much treasure as possible.</p><br><br><p><img src='run_exp/static/images/task_images/opening_img-01.jpg' height='300' width='auto'></p>",,,,,,,1,,,,,,,,,,,,,,,,,,
html-keyboard-response,5,33331,0.0-5.0,"""event"",""trial"",""time""
""fullscreenenter"",""1"",""4322""
","
","
","""event"",""trial"",""time""
""fullscreenenter"",""1"",""4322""
","
",,1056.5,"<p>Howdy! In this experiment, you’ll be an explorer traveling through space to collect space treasure.</p><p>Your mission is to collect as much treasure as possible.</p><br><br><p><img src='run_exp/static/images/task_images/opening_img-01.jpg' height='300' width='auto'></p><button class=""jspsych-html-btn-unchosen""><img src=""run_exp/static/images/task_images/planet-01.jpg"" height=""50""></button><button class=""jspsych-html-btn-chosen""><img src=""run_exp/static/images/task_images/planet-02.jpg"" height=""50""></button><p><b>[press the space bar to lock in your answer]<b><br></p>",32,,,,,,,,,,,,,,,,,,,,,,,,
instruc_goal,6,43379,0.0-6.0-0.0,"""event"",""trial"",""time""
""fullscreenenter"",""1"",""4322""
","
","
","""event"",""trial"",""time""
""fullscreenenter"",""1"",""4322""
","
",,null,run_exp/static/audio/clip_3_goal.m4a,null,"<p> As a space explorer, you’ll visit different planets to dig for space treasure, these pink gems.</p> <p> The more treasure you dig up, the more bonus money you’ll win! </p><br><br><p><img src='run_exp/static/images/task_images/pink_gem.jpg' height='300' width='auto'></p>",,,,,,,,,,,,,,,,,,,,,,,
instruc_goal,7,46222,0.0-6.0-1.0,"""event"",""trial"",""time""
""fullscreenenter"",""1"",""4322""
","
","
","""event"",""trial"",""time""
""fullscreenenter"",""1"",""4322""
","
",,2841.1,"<p> As a space explorer, you’ll visit different planets to dig for space treasure, these pink gems.</p> <p> The more treasure you dig up, the more bonus money you’ll win! </p><br><br><p><img src='run_exp/static/images/task_images/pink_gem.jpg' height='300' width='auto'></p>",,,,,,,1,,,,,,,,,,,,,,,,,,
html-keyboard-response,8,47649,0.0-6.0-2.0,"""event"",""trial"",""time""
""fullscreenenter"",""1"",""4322""
","
","
","""event"",""trial"",""time""
""fullscreenenter"",""1"",""4322""
","
",,1426.1,"<p> As a space explorer, you’ll visit different planets to dig for space treasure, these pink gems.</p> <p> The more treasure you dig up, the more bonus money you’ll win! </p><br><br><p><img src='run_exp/static/images/task_images/pink_gem.jpg' height='300' width='auto'></p><button class=""jspsych-html-btn-unchosen""><img src=""run_exp/static/images/task_images/planet-01.jpg"" height=""50""></button><button class=""jspsych-html-btn-chosen""><img src=""run_exp/static/images/task_images/planet-02.jpg"" height=""50""></button><p><b>[press the space bar to lock in your answer]<b><br></p>",32,,,,,,,,,,,,,,,,,,,,,,,,
instruc_dig,9,63646,0.0-7.0-0.0,"""event"",""trial"",""time""
""fullscreenenter"",""1"",""4322""
","
","
","""event"",""trial"",""time""
""fullscreenenter"",""1"",""4322""
","
",,null,run_exp/static/audio/clip_4_dig.m4a,null,,,,,,,100,,,,,,,,,,,,,,,,,
instruc_dig_try,10,64731,0.0-7.0-1.0,"""event"",""trial"",""time""
""fullscreenenter"",""1"",""4322""
","
","
","""event"",""trial"",""time""
""fullscreenenter"",""1"",""4322""
","
",,1083,"<p> When you’ve arrived at a new planet, you will dig once. </p> <p>Then, you get to decide if you want to stay on the planet and dig again or travel to a new planet and dig there.</p> <p> To stay and dig, press the letter <strong>‘A’</strong> on your keyboard. Try pressing it now! </p><p><img src='run_exp/static/images/task_images/land.jpg'  height='700' width='auto'></p>",65,"<p> When you’ve arrived at a new planet, you will dig once. </p> <p>Then, you get to decide if you want to stay on the planet and dig again or travel to a new planet and dig there.</p> <p> To stay and dig, press the letter <strong>‘A’</strong> on your keyboard. Try pressing it now! </p><p><img src='run_exp/static/images/task_images/land.jpg'  height='700' width='auto'></p>",,,,,,100,,,,,,,,,,,,,,,,,
dig_prac,11,66755,0.0-7.0-2.0,"""event"",""trial"",""time""
""fullscreenenter"",""1"",""4322""
","
","
","""event"",""trial"",""time""
""fullscreenenter"",""1"",""4322""
","
",,,,,,,,,,,,"[{""stimulus"":""run_exp/static/images/task_images/dig.jpg"",""time"":0.20000004768371582},{""stimulus"":""run_exp/static/images/task_images/land.jpg"",""time"":673.6000001430511},{""stimulus"":""run_exp/static/images/task_images/dig.jpg"",""time"":1338}]",[],,,,,,,,,,,,,,,
instruc_travel,12,102984,0.0-7.0-3.0,"""event"",""trial"",""time""
""fullscreenenter"",""1"",""4322""
","
","
","""event"",""trial"",""time""
""fullscreenenter"",""1"",""4322""
","
",,null,run_exp/static/audio/clip_5_travel.m4a,null,"<p>Every time you dig up gems, there are less gems on the planet, so the more you dig on a planet the fewer gems you’ll get with each dig.</p><p>When gems are running low, you may want to travel to a new planet. </p> <p>  Planets are very far apart in this galaxy, so it will take some time to travel between them. </p> <br><p>There are lots and lots of planets for you to visit, so you won’t be able to return to any planets you’ve seen before. </p><br><p>To leave this planet and travel to a new one, press the letter <strong>‘L’</strong> on your keyboard. Try pressing it now! </p><p><img src='run_exp/static/images/task_images/rocket-01.jpg'  height='600' width='auto'></p>",,,,,,,,,,,,,,,,,,,,,,,
instruc_travel_try,13,105699,0.0-7.0-4.0,"""event"",""trial"",""time""
""fullscreenenter"",""1"",""4322""
","
","
","""event"",""trial"",""time""
""fullscreenenter"",""1"",""4322""
","
",,2712.6,"<p>Every time you dig up gems, there are less gems on the planet, so the more you dig on a planet the fewer gems you’ll get with each dig.</p><p>When gems are running low, you may want to travel to a new planet. </p> <p>  Planets are very far apart in this galaxy, so it will take some time to travel between them. </p> <br><p>There are lots and lots of planets for you to visit, so you won’t be able to return to any planets you’ve seen before. </p><br><p>To leave this planet and travel to a new one, press the letter <strong>‘L’</strong> on your keyboard. Try pressing it now! </p><p><img src='run_exp/static/images/task_images/rocket-01.jpg'  height='600' width='auto'></p>",76,"<p>Every time you dig up gems, there are less gems on the planet, so the more you dig on a planet the fewer gems you’ll get with each dig.</p><p>When gems are running low, you may want to travel to a new planet. </p> <p>  Planets are very far apart in this galaxy, so it will take some time to travel between them. </p> <br><p>There are lots and lots of planets for you to visit, so you won’t be able to return to any planets you’ve seen before. </p><br><p>To leave this planet and travel to a new one, press the letter <strong>‘L’</strong> on your keyboard. Try pressing it now! </p><p><img src='run_exp/static/images/task_images/rocket-01.jpg'  height='600' width='auto'></p>",,,,,,,,,,,,,,,,,,,,,,,
travel_prac,14,115711,0.0-7.0-5.0,"""event"",""trial"",""time""
""fullscreenenter"",""1"",""4322""
","
","
","""event"",""trial"",""time""
""fullscreenenter"",""1"",""4322""
","
",,,,,,,,,,,,"[{""stimulus"":""run_exp/static/images/task_images/rocket-01.jpg"",""time"":0.20000004768371582},{""stimulus"":""run_exp/static/images/task_images/rocket-02.jpg"",""time"":1120},{""stimulus"":""run_exp/static/images/task_images/rocket-03.jpg"",""time"":2231.2000000476837},{""stimulus"":""run_exp/static/images/task_images/rocket-04.jpg"",""time"":3335.5999999046326},{""stimulus"":""run_exp/static/images/task_images/rocket-05.jpg"",""time"":4447.799999952316},{""stimulus"":""run_exp/static/images/task_images/rocket-06.jpg"",""time"":5561.899999856949},{""stimulus"":""run_exp/static/images/task_images/rocket-07.jpg"",""time"":6671.899999856949},{""stimulus"":""run_exp/static/images/task_images/rocket-08.jpg"",""time"":7785.299999952316},{""stimulus"":""run_exp/static/images/task_images/rocket-09.jpg"",""time"":8889.5}]",[],0,,,,,,,,,,,,,,
instruc_alien_greet,15,142898,0.0-7.0-6.0,"""event"",""trial"",""time""
""fullscreenenter"",""1"",""4322""
","
","
","""event"",""trial"",""time""
""fullscreenenter"",""1"",""4322""
","
",,null,run_exp/static/audio/clip_6_alien.m4a,null,"<p>When you arrive at a new planet, the alien who owns the treasure mine on that planet will greet you!</p><p>The better an alien takes care of their mine the easier it is to dig for gems. Some aliens take better care of their mine than others. So, you won’t get exactly the same amount of gems on each planet.</p><p>What the alien looks like does not tell you anything about how many gems there are on the planet.</p><br><p><img src=""run_exp/static/images/task_images/aliens/instructions_aliens/planet/alien_planet-1.jpg""  height=""600"" width=""auto""></p>",,,,,,,,,,,,,,,,,,,,,,,
instruc_alien_greet,16,145253,0.0-7.0-7.0,"""event"",""trial"",""time""
""fullscreenenter"",""1"",""4322""
","
","
","""event"",""trial"",""time""
""fullscreenenter"",""1"",""4322""
","
",,2353.1,"<p>When you arrive at a new planet, the alien who owns the treasure mine on that planet will greet you!</p><p>The better an alien takes care of their mine the easier it is to dig for gems. Some aliens take better care of their mine than others. So, you won’t get exactly the same amount of gems on each planet.</p><p>What the alien looks like does not tell you anything about how many gems there are on the planet.</p><br><p><img src=""run_exp/static/images/task_images/aliens/instructions_aliens/planet/alien_planet-1.jpg""  height=""600"" width=""auto""></p>",,,,,,,1,,,,,,,,,,,,,,,,,,
html-keyboard-response,17,146061,0.0-7.0-8.0,"""event"",""trial"",""time""
""fullscreenenter"",""1"",""4322""
","
","
","""event"",""trial"",""time""
""fullscreenenter"",""1"",""4322""
","
",,806.5,"<p>When you arrive at a new planet, the alien who owns the treasure mine on that planet will greet you!</p><p>The better an alien takes care of their mine the easier it is to dig for gems. Some aliens take better care of their mine than others. So, you won’t get exactly the same amount of gems on each planet.</p><p>What the alien looks like does not tell you anything about how many gems there are on the planet.</p><br><p><img src=""run_exp/static/images/task_images/aliens/instructions_aliens/planet/alien_planet-1.jpg""  height=""600"" width=""auto""></p><button class=""jspsych-html-btn-unchosen""><img src=""run_exp/static/images/task_images/planet-01.jpg"" height=""50""></button><button class=""jspsych-html-btn-chosen""><img src=""run_exp/static/images/task_images/planet-02.jpg"" height=""50""></button><p><b>[press the space bar to lock in your answer]<b><br></p>",32,,,,,,,,,,,,,,,,,,,,,,,,
time_out,18,157128,0.0-8.0-0.0,"""event"",""trial"",""time""
""fullscreenenter"",""1"",""4322""
","
","
","""event"",""trial"",""time""
""fullscreenenter"",""1"",""4322""
","
",,null,run_exp/static/audio/clip_7_timeout.m4a,null,"<p>If you don't make your choice fast enough, you’ll have to wait a few seconds before you can make another one.</p><p>You can’t dig for more gems or travel to new planets. You just have to sit and wait.</p><br><p><img src='run_exp/static/images/task_images/time_out.jpg'  height='600' width='auto'></p>",,,,,,,,,,,,,,,,,,,,,,,
time_out,19,158620,0.0-8.0-1.0,"""event"",""trial"",""time""
""fullscreenenter"",""1"",""4322""
","
","
","""event"",""trial"",""time""
""fullscreenenter"",""1"",""4322""
","
",,1490.6,"<p>If you don't make your choice fast enough, you’ll have to wait a few seconds before you can make another one.</p><p>You can’t dig for more gems or travel to new planets. You just have to sit and wait.</p><br><p><img src='run_exp/static/images/task_images/time_out.jpg'  height='600' width='auto'></p>",,,,,,,1,,,,,,,,,,,,,,,,,,
html-keyboard-response,20,160504,0.0-8.0-2.0,"""event"",""trial"",""time""
""fullscreenenter"",""1"",""4322""
","
","
","""event"",""trial"",""time""
""fullscreenenter"",""1"",""4322""
","
",,1882.9,"<p>If you don't make your choice fast enough, you’ll have to wait a few seconds before you can make another one.</p><p>You can’t dig for more gems or travel to new planets. You just have to sit and wait.</p><br><p><img src='run_exp/static/images/task_images/time_out.jpg'  height='600' width='auto'></p><button class=""jspsych-html-btn-unchosen""><img src=""run_exp/static/images/task_images/planet-01.jpg"" height=""50""></button><button class=""jspsych-html-btn-chosen""><img src=""run_exp/static/images/task_images/planet-02.jpg"" height=""50""></button><p><b>[press the space bar to lock in your answer]<b><br></p>",32,,,,,,,,,,,,,,,,,,,,,,,,
instruc_break,21,176157,0.0-9.0-0.0,"""event"",""trial"",""time""
""fullscreenenter"",""1"",""4322""
","
","
","""event"",""trial"",""time""
""fullscreenenter"",""1"",""4322""
","
",,null,run_exp/static/audio/clip_8_break.m4a,null,"<p> After digging and traveling for a while, you’ll be able to take a break at home base. </p><p>The game will last 20 minutes no matter what.</p><p>You will visit home base every 5 minutes, so, you will visit home base three times during the game.</p><br><p><img src='run_exp/static/images/task_images/home_base.jpg' height='600' width='auto'></p>",,,,,,,,,,,,,,,,,,,,,,,
instruc_break,22,177752,0.0-9.0-1.0,"""event"",""trial"",""time""
""fullscreenenter"",""1"",""4322""
","
","
","""event"",""trial"",""time""
""fullscreenenter"",""1"",""4322""
","
",,1593.1,"<p> After digging and traveling for a while, you’ll be able to take a break at home base. </p><p>The game will last 20 minutes no matter what.</p><p>You will visit home base every 5 minutes, so, you will visit home base three times during the game.</p><br><p><img src='run_exp/static/images/task_images/home_base.jpg' height='600' width='auto'></p>",,,,,,,1,,,,,,,,,,,,,,,,,,
html-keyboard-response,23,178374,0.0-9.0-2.0,"""event"",""trial"",""time""
""fullscreenenter"",""1"",""4322""
","
","
","""event"",""trial"",""time""
""fullscreenenter"",""1"",""4322""
","
",,621.1999998,"<p> After digging and traveling for a while, you’ll be able to take a break at home base. </p><p>The game will last 20 minutes no matter what.</p><p>You will visit home base every 5 minutes, so, you will visit home base three times during the game.</p><br><p><img src='run_exp/static/images/task_images/home_base.jpg' height='600' width='auto'></p><button class=""jspsych-html-btn-unchosen""><img src=""run_exp/static/images/task_images/planet-01.jpg"" height=""50""></button><button class=""jspsych-html-btn-chosen""><img src=""run_exp/static/images/task_images/planet-02.jpg"" height=""50""></button><p><b>[press the space bar to lock in your answer]<b><br></p>",32,,,,,,,,,,,,,,,,,,,,,,,,
instruc_prac_game,24,188488,0.0-10.0-0.0,"""event"",""trial"",""time""
""fullscreenenter"",""1"",""4322""
","
","
","""event"",""trial"",""time""
""fullscreenenter"",""1"",""4322""
","
",,null,run_exp/static/audio/clip_9_practice.m4a,null,"<p> Are you ready to play a practice game? </p> <p>In this practice game, you'll be digging up barrels of gems. But, in the real game, you'll be digging up the gems themselves. </p>",,,,,,,,,,,,,,,,,,,,,,,
html-button-response,25,190471,0.0-10.0-1.0,"""event"",""trial"",""time""
""fullscreenenter"",""1"",""4322""
","
","
","""event"",""trial"",""time""
""fullscreenenter"",""1"",""4322""
","
",,1982.3,"<p> Are you ready to play a practice game? </p> <p>In this practice game, you'll be digging up barrels of gems. But, in the real game, you'll be digging up the gems themselves. </p>",,,,,,,0,,,,,,,,,,,,,,,,,,
alien_welcome_prac,26,195478,0.0-11.0-0.0,"""event"",""trial"",""time""
""fullscreenenter"",""1"",""4322""
","
","
","""event"",""trial"",""time""
""fullscreenenter"",""1"",""4322""
","
",,null,run_exp/static/images/task_images/aliens/practice_aliens/planet/alien_planet-5.jpg,null,,,,,,,,,,,,,,,,,,,,,,,,
land_prac,27,195991,0.0-11.0-1.0,"""event"",""trial"",""time""
""fullscreenenter"",""1"",""4322""
","
","
","""event"",""trial"",""time""
""fullscreenenter"",""1"",""4322""
","
",,null,run_exp/static/images/task_images/land.jpg,null,,,,,,,103,,,0,,,,,,,,,,,,,,
dig_prac,28,197996,0.0-11.0-2.0,"""event"",""trial"",""time""
""fullscreenenter"",""1"",""4322""
","
","
","""event"",""trial"",""time""
""fullscreenenter"",""1"",""4322""
","
",,,,,,,,,,,,"[{""stimulus"":""run_exp/static/images/task_images/dig.jpg"",""time"":0.20000004768371582},{""stimulus"":""run_exp/static/images/task_images/land.jpg"",""time"":677.4000000953674},{""stimulus"":""run_exp/static/images/task_images/dig.jpg"",""time"":1340.4000000953674}]",[],,,,,,,,,,,,,,,
harvest_prac,29,199004,0.0-11.0-3.0,"""event"",""trial"",""time""
""fullscreenenter"",""1"",""4322""
","
","
","""event"",""trial"",""time""
""fullscreenenter"",""1"",""4322""
","
",,null,run_exp/static/images/task_images/barrel_text.jpg,null,,,,,,,,,,,,,,,,,,,,,,,,
decision_prac,30,202011,0.0-11.0-4.0,"""event"",""trial"",""time""
""fullscreenenter"",""1"",""4322""
","
","
","""event"",""trial"",""time""
""fullscreenenter"",""1"",""4322""
","
",,null,run_exp/static/images/task_images/land.jpg,null,,,,,,,,,,,1,,,,,,,,,,,,,
time_out,31,204020,0.0-12.0-0.0,"""event"",""trial"",""time""
""fullscreenenter"",""1"",""4322""
","
","
","""event"",""trial"",""time""
""fullscreenenter"",""1"",""4322""
","
",,null,run_exp/static/images/task_images/time_out.jpg,null,,,,,,,,,,,,,,,,,,,,,,,,
decision_prac,32,204078,0.0-12.0-1.0,"""event"",""trial"",""time""
""fullscreenenter"",""1"",""4322""
","
","
","""event"",""trial"",""time""
""fullscreenenter"",""1"",""4322""
","
",,56.60000014,run_exp/static/images/task_images/land.jpg,65,,,,,,,,,,,2,,,,,,,,,,,,,
dig_prac,33,206084,0.0-13.0-0.0,"""event"",""trial"",""time""
""fullscreenenter"",""1"",""4322""
","
","
","""event"",""trial"",""time""
""fullscreenenter"",""1"",""4322""
","
",,,,,,,,,,,,"[{""stimulus"":""run_exp/static/images/task_images/dig.jpg"",""time"":0.09999990463256836},{""stimulus"":""run_exp/static/images/task_images/land.jpg"",""time"":676.0999999046326},{""stimulus"":""run_exp/static/images/task_images/dig.jpg"",""time"":1340.2000000476837}]",[],,,,,,,,,,,,,,,
harvest_prac,34,207090,0.0-13.0-1.0,"""event"",""trial"",""time""
""fullscreenenter"",""1"",""4322""
","
","
","""event"",""trial"",""time""
""fullscreenenter"",""1"",""4322""
","
",,null,run_exp/static/images/task_images/barrel_text.jpg,null,,,,,,,,,,,,,,,,,,,,,,,,
decision_prac,35,207578,0.0-13.0-2.0,"""event"",""trial"",""time""
""fullscreenenter"",""1"",""4322""
","
","
","""event"",""trial"",""time""
""fullscreenenter"",""1"",""4322""
","
",,488,run_exp/static/images/task_images/land.jpg,65,,,,,,,,,,,3,,,,,,,,,,,,,
dig_prac,36,209589,0.0-14.0-0.0,"""event"",""trial"",""time""
""fullscreenenter"",""1"",""4322""
","
","
","""event"",""trial"",""time""
""fullscreenenter"",""1"",""4322""
","
",,,,,,,,,,,,"[{""stimulus"":""run_exp/static/images/task_images/dig.jpg"",""time"":0.20000004768371582},{""stimulus"":""run_exp/static/images/task_images/land.jpg"",""time"":671.2000000476837},{""stimulus"":""run_exp/static/images/task_images/dig.jpg"",""time"":1335.3000001907349}]",[],,,,,,,,,,,,,,,
harvest_prac,37,210597,0.0-14.0-1.0,"""event"",""trial"",""time""
""fullscreenenter"",""1"",""4322""
","
","
","""event"",""trial"",""time""
""fullscreenenter"",""1"",""4322""
","
",,null,run_exp/static/images/task_images/barrel_text.jpg,null,,,,,,,,,,,,,,,,,,,,,,,,
decision_prac,38,211012,0.0-14.0-2.0,"""event"",""trial"",""time""
""fullscreenenter"",""1"",""4322""
","
","
","""event"",""trial"",""time""
""fullscreenenter"",""1"",""4322""
","
",,414,run_exp/static/images/task_images/land.jpg,65,,,,,,,,,,,4,,,,,,,,,,,,,
dig_prac,39,213020,0.0-15.0-0.0,"""event"",""trial"",""time""
""fullscreenenter"",""1"",""4322""
","
","
","""event"",""trial"",""time""
""fullscreenenter"",""1"",""4322""
","
",,,,,,,,,,,,"[{""stimulus"":""run_exp/static/images/task_images/dig.jpg"",""time"":0.09999990463256836},{""stimulus"":""run_exp/static/images/task_images/land.jpg"",""time"":670.5},{""stimulus"":""run_exp/static/images/task_images/dig.jpg"",""time"":1342.3999998569489}]",[],,,,,,,,,,,,,,,
harvest_prac,40,214025,0.0-15.0-1.0,"""event"",""trial"",""time""
""fullscreenenter"",""1"",""4322""
","
","
","""event"",""trial"",""time""
""fullscreenenter"",""1"",""4322""
","
",,null,run_exp/static/images/task_images/barrel_text.jpg,null,,,,,,,,,,,,,,,,,,,,,,,,
decision_prac,41,215653,0.0-15.0-2.0,"""event"",""trial"",""time""
""fullscreenenter"",""1"",""4322""
","
","
","""event"",""trial"",""time""
""fullscreenenter"",""1"",""4322""
","
",,1627.1,run_exp/static/images/task_images/land.jpg,65,,,,,,,,,,,,1,,,,,,,,,,,,
quiz_instruc,42,227538,0.0-16.0-0.0,"""event"",""trial"",""time""
""fullscreenenter"",""1"",""4322""
","
","
","""event"",""trial"",""time""
""fullscreenenter"",""1"",""4322""
","
",,11882.9,run_exp/static/audio/clip_10_quiz.m4a,,,,,,,0,,,,,,,,,,,,,,,,,,
instruc_repeat,43,270279,0.0-16.0-1.0,"""event"",""trial"",""time""
""fullscreenenter"",""1"",""4322""
","
","
","""event"",""trial"",""time""
""fullscreenenter"",""1"",""4322""
","
",,null,"<p> Are you ready to play a practice game? </p> <p>In this practice game, you'll be digging up barrels of gems. But, in the real game, you'll be digging up the gems themselves. </p>",null,"<p>In this game, your goal is to collect as many gems as you can. That’s how you will win bonus money. </p> <p>The entire game will last 20 minutes no matter how many gems you collect or how many planets you visit. </p><p>To stay on a planet and dig again, press the letter A on your keyboard. To leave for a new planet, press the letter L.</p><p>The more you dig on a planet, the fewer gems you’ll get with each dig which is why you might consider leaving for a new planet. </p><p>When you arrive at a new planet, you’ll be greeted by an alien. What the alien looks like does not tell you anything about how much treasure is on the planet. </p>",,,,,,,,,,,,,,,,,,,,,,,
instruc_repeat_continue,44,271500,0.0-16.0-2.0,"""event"",""trial"",""time""
""fullscreenenter"",""1"",""4322""
","
","
","""event"",""trial"",""time""
""fullscreenenter"",""1"",""4322""
","
",,1220,"<p> Are you ready to play a practice game? </p> <p>In this practice game, you'll be digging up barrels of gems. But, in the real game, you'll be digging up the gems themselves. </p>",,,,,,,0,,,,,,,,,,,,,,,,,,
quiz_q_1_ask,45,279803,0.0-16.0-3.0,"""event"",""trial"",""time""
""fullscreenenter"",""1"",""4322""
","
","
","""event"",""trial"",""time""
""fullscreenenter"",""1"",""4322""
","
",,8302,run_exp/static/audio/clip_11_q1_ask.m4a,,,,,,,2,,,,,,,,,,,,,,,,,,
quiz_q_1_fb_correct,46,283655,0.0-17.0-0.0,"""event"",""trial"",""time""
""fullscreenenter"",""1"",""4322""
","
","
","""event"",""trial"",""time""
""fullscreenenter"",""1"",""4322""
","
",,null,run_exp/static/audio/clip_12_q1_correct.m4a,null,<p>That’s correct. You win extra money by collecting more gems.</p>,,,,,,,,,,,,,,,,,,,,,,,
quiz_q_2_ask,47,287567,0.0-17.0-1.0,"""event"",""trial"",""time""
""fullscreenenter"",""1"",""4322""
","
","
","""event"",""trial"",""time""
""fullscreenenter"",""1"",""4322""
","
",,3910.7,run_exp/static/audio/clip_14_q2_ask.m4a,,,,,,,1,,,,,,,,,,,,,,,,,,
quiz_q_2_fb_correct,48,291570,0.0-18.0-0.0,"""event"",""trial"",""time""
""fullscreenenter"",""1"",""4322""
","
","
","""event"",""trial"",""time""
""fullscreenenter"",""1"",""4322""
","
",,null,run_exp/static/audio/clip_15_q2_correct.m4a,null,<p>That’s correct. The experiment is 20 minutes no matter what.</p>,,,,,,,,,,,,,,,,,,,,,,,
quiz_q_3_ask,49,295384,0.0-18.0-1.0,"""event"",""trial"",""time""
""fullscreenenter"",""1"",""4322""
","
","
","""event"",""trial"",""time""
""fullscreenenter"",""1"",""4322""
","
",,3813.3,run_exp/static/audio/clip_17_q3_ask.m4a,,,,,,,1,,,,,,,,,,,,,,,,,,
quiz_q_3_fb_correct,50,299356,0.0-19.0-0.0,"""event"",""trial"",""time""
""fullscreenenter"",""1"",""4322""
","
","
","""event"",""trial"",""time""
""fullscreenenter"",""1"",""4322""
","
",,null,run_exp/static/audio/clip_18_q3_correct.m4a,null,<p> That’s correct. You press the letter L to travel to a new planet.</p>,,,,,,,,,,,,,,,,,,,,,,,
quiz_q_4_ask,51,303685,0.0-19.0-1.0,"""event"",""trial"",""time""
""fullscreenenter"",""1"",""4322""
","
","
","""event"",""trial"",""time""
""fullscreenenter"",""1"",""4322""
","
",,4327.3,run_exp/static/audio/clip_20_q4_ask.m4a,,,,,,,0,,,,,,,,,,,,,,,,,,
quiz_q_4_fb_correct,52,308999,0.0-20.0-0.0,"""event"",""trial"",""time""
""fullscreenenter"",""1"",""4322""
","
","
","""event"",""trial"",""time""
""fullscreenenter"",""1"",""4322""
","
",,null,run_exp/static/audio/clip_21_q4_correct.m4a,null,<p> That’s correct. The more you dig on a planet the fewer gems you’ll get with each dig. </p>,,,,,,,,,,,,,,,,,,,,,,,
quiz_q_5_ask,53,313151,0.0-20.0-1.0,"""event"",""trial"",""time""
""fullscreenenter"",""1"",""4322""
","
","
","""event"",""trial"",""time""
""fullscreenenter"",""1"",""4322""
","
",,4150.4,run_exp/static/audio/clip_23_q5_ask.m4a,,,,,,,1,,,,,,,,,,,,,,,,,,
quiz_q_5_fb_correct,54,318151,0.0-21.0-0.0,"""event"",""trial"",""time""
""fullscreenenter"",""1"",""4322""
","
","
","""event"",""trial"",""time""
""fullscreenenter"",""1"",""4322""
","
",,null,run_exp/static/audio/clip_24_q5_correct.m4a,null,<p> That’s correct. The alien tells you nothing about how much treasure is on the planet.</p>,,,,,,,,,,,,,,,,,,,,,,,
quiz_correct,55,321607,0.0-22.0-0.0,"""event"",""trial"",""time""
""fullscreenenter"",""1"",""4322""
","
","
","""event"",""trial"",""time""
""fullscreenenter"",""1"",""4322""
","
",,null,run_exp/static/audio/clip_26_correct_quiz.m4a,null,,,,,,,,,,,,,,,,,,,,,,,,
quiz_correct_continue,56,322734,0.0-22.0-1.0,"""event"",""trial"",""time""
""fullscreenenter"",""1"",""4322""
","
","
","""event"",""trial"",""time""
""fullscreenenter"",""1"",""4322""
","
",,1126.2,<p>Good job! You're now ready to move on to the real game!</p>,,,,,,,0,,,,,,,,,,,,,,,,,,
audio-keyboard-response,57,332849,0.0-22.0-2.0,"""event"",""trial"",""time""
""fullscreenenter"",""1"",""4322""
","
","
","""event"",""trial"",""time""
""fullscreenenter"",""1"",""4322""
","
",,null,run_exp/static/audio/clip_28_real_game.m4a,null,,,,,,,,,,,,,,,,,,,,,,,,
instruc_begin_exp_contine,58,334771,0.0-22.0-3.0,"""event"",""trial"",""time""
""fullscreenenter"",""1"",""4322""
","
","
","""event"",""trial"",""time""
""fullscreenenter"",""1"",""4322""
","
",,1921,"<p>Now that you know how  to dig for space treasure and travel to new planets,you can start exploring! </p><p>Do you want to go over the instructions again or get started with the real game?</p>",,,,,,,1,,,,,,1,,,,,,,,,,,,
alien_welcome,59,339785,0.0-23.0-0.0,"""event"",""trial"",""time""
""fullscreenenter"",""1"",""4322""
","
","
","""event"",""trial"",""time""
""fullscreenenter"",""1"",""4322""
","
",,null,run_exp/static/images/task_images/aliens/old_aliens/planet/alien_planet-37.jpg,null,,,,,,,,,,,,,37,"37,42,64,26,19,30,72,65,79,48,45,40,46,29,59,1,61,8,5,74,60,34,28,13,35,39,9",,,,,,,,,,
land,60,340289,0.0-23.0-1.0,"""event"",""trial"",""time""
""fullscreenenter"",""1"",""4322""
","
","
","""event"",""trial"",""time""
""fullscreenenter"",""1"",""4322""
","
",,null,run_exp/static/images/task_images/land.jpg,null,,,,,,,101,,,1,,,,,,,,,,,,,,
dig,61,342304,0.0-23.0-2.0,"""event"",""trial"",""time""
""fullscreenenter"",""1"",""4322""
","
","
","""event"",""trial"",""time""
""fullscreenenter"",""1"",""4322""
","
",,,,,,,,,,,,"[{""stimulus"":""run_exp/static/images/task_images/dig.jpg"",""time"":0.20000004768371582},{""stimulus"":""run_exp/static/images/task_images/land.jpg"",""time"":670.8000001907349},{""stimulus"":""run_exp/static/images/task_images/dig.jpg"",""time"":1339.2000000476837}]",[],1,,,,,,,,,,,,,,
harvest,62,343309,0.0-23.0-3.0,"""event"",""trial"",""time""
""fullscreenenter"",""1"",""4322""
","
","
","""event"",""trial"",""time""
""fullscreenenter"",""1"",""4322""
","
",,null,run_exp/static/images/task_images/gems/101.jpg,null,,,,,,,26,,,1,,,,,101,0.25607766,0.257425743,,,,,,,
decision,63,344392,0.0-23.0-4.0,"""event"",""trial"",""time""
""fullscreenenter"",""1"",""4322""
","
","
","""event"",""trial"",""time""
""fullscreenenter"",""1"",""4322""
","
",,1081,run_exp/static/images/task_images/land.jpg,65,,,,,,,26,,,1,,,,,,,,9620,1,0,FALSE,,,
dig,64,346320,0.0-24.0-0.0,"""event"",""trial"",""time""
""fullscreenenter"",""1"",""4322""
","
","
","""event"",""trial"",""time""
""fullscreenenter"",""1"",""4322""
","
",,,,,,,,,,,,"[{""stimulus"":""run_exp/static/images/task_images/dig.jpg"",""time"":0},{""stimulus"":""run_exp/static/images/task_images/land.jpg"",""time"":642.2000000476837},{""stimulus"":""run_exp/static/images/task_images/dig.jpg"",""time"":1284.1000001430511}]",[],1,,,,,,,,,,,,,,
harvest,65,347325,0.0-24.0-1.0,"""event"",""trial"",""time""
""fullscreenenter"",""1"",""4322""
","
","
","""event"",""trial"",""time""
""fullscreenenter"",""1"",""4322""
","
",,null,run_exp/static/images/task_images/gems/26.jpg,null,,,,,,,3,,,1,,,,,26,0.098912453,0.115384615,,,,,,,
decision,66,347575,0.0-24.0-2.0,"""event"",""trial"",""time""
""fullscreenenter"",""1"",""4322""
","
","
","""event"",""trial"",""time""
""fullscreenenter"",""1"",""4322""
","
",,248.7,run_exp/static/images/task_images/land.jpg,65,,,,,,,3,,,1,,,,,,,,12803,1,1,FALSE,,,
dig,67,350337,0.0-25.0-0.0,"""event"",""trial"",""time""
""fullscreenenter"",""1"",""4322""
","
","
","""event"",""trial"",""time""
""fullscreenenter"",""1"",""4322""
","
",,,,,,,,,,,,"[{""stimulus"":""run_exp/static/images/task_images/dig.jpg"",""time"":0.20000004768371582},{""stimulus"":""run_exp/static/images/task_images/land.jpg"",""time"":923.7000000476837},{""stimulus"":""run_exp/static/images/task_images/dig.jpg"",""time"":1848}]",[],1,,,,,,,,,,,,,,
harvest,68,351340,0.0-25.0-1.0,"""event"",""trial"",""time""
""fullscreenenter"",""1"",""4322""
","
","
","""event"",""trial"",""time""
""fullscreenenter"",""1"",""4322""
","
",,null,run_exp/static/images/task_images/gems/3.jpg,null,,,,,,,0,,,1,,,,,3,0.137405449,0,,,,,,,
decision,69,351818,0.0-25.0-2.0,"""event"",""trial"",""time""
""fullscreenenter"",""1"",""4322""
","
","
","""event"",""trial"",""time""
""fullscreenenter"",""1"",""4322""
","
",,476.5999999,run_exp/static/images/task_images/land.jpg,65,,,,,,,0,,,1,,,,,,,,17046,1,2,FALSE,,,
dig,70,354348,0.0-26.0-0.0,"""event"",""trial"",""time""
""fullscreenenter"",""1"",""4322""
","
","
","""event"",""trial"",""time""
""fullscreenenter"",""1"",""4322""
","
",,,,,,,,,,,,"[{""stimulus"":""run_exp/static/images/task_images/dig.jpg"",""time"":0.09999990463256836},{""stimulus"":""run_exp/static/images/task_images/land.jpg"",""time"":848.9000000953674},{""stimulus"":""run_exp/static/images/task_images/dig.jpg"",""time"":1689.0999999046326}]",[],1,,,,,,,,,,,,,,
harvest,71,355353,0.0-26.0-1.0,"""event"",""trial"",""time""
""fullscreenenter"",""1"",""4322""
","
","
","""event"",""trial"",""time""
""fullscreenenter"",""1"",""4322""
","
",,null,run_exp/static/images/task_images/gems/0.jpg,null,,,,,,,0,,,1,,,,,0,0.207503255,NaN,,,,,,,
decision,72,356105,0.0-26.0-2.0,"""event"",""trial"",""time""
""fullscreenenter"",""1"",""4322""
","
","
","""event"",""trial"",""time""
""fullscreenenter"",""1"",""4322""
","
",,751.0999999,run_exp/static/images/task_images/land.jpg,65,,,,,,,0,,,1,,,,,,,,21333,1,3,FALSE,,,
dig,73,358357,0.0-27.0-0.0,"""event"",""trial"",""time""
""fullscreenenter"",""1"",""4322""
","
","
","""event"",""trial"",""time""
""fullscreenenter"",""1"",""4322""
","
",,,,,,,,,,,,"[{""stimulus"":""run_exp/static/images/task_images/dig.jpg"",""time"":0.20000004768371582},{""stimulus"":""run_exp/static/images/task_images/land.jpg"",""time"":753.5999999046326},{""stimulus"":""run_exp/static/images/task_images/dig.jpg"",""time"":1505.5}]",[],1,,,,,,,,,,,,,,
harvest,74,359369,0.0-27.0-1.0,"""event"",""trial"",""time""
""fullscreenenter"",""1"",""4322""
","
","
","""event"",""trial"",""time""
""fullscreenenter"",""1"",""4322""
","
",,null,run_exp/static/images/task_images/gems/0.jpg,null,,,,,,,0,,,1,,,,,0,0.303805277,NaN,,,,,,,
decision,75,359600,0.0-27.0-2.0,"""event"",""trial"",""time""
""fullscreenenter"",""1"",""4322""
","
","
","""event"",""trial"",""time""
""fullscreenenter"",""1"",""4322""
","
",,230.4000001,run_exp/static/images/task_images/land.jpg,76,,,,,,,0,,,1,,,,,,,,24828,1,4,TRUE,,,
travel,76,369374,0.0-28.0-0.0,"""event"",""trial"",""time""
""fullscreenenter"",""1"",""4322""
","
","
","""event"",""trial"",""time""
""fullscreenenter"",""1"",""4322""
","
",,,,,,,,,,,,"[{""stimulus"":""run_exp/static/images/task_images/rocket-01.jpg"",""time"":0.20000004768371582},{""stimulus"":""run_exp/static/images/task_images/rocket-02.jpg"",""time"":1089.6000001430511},{""stimulus"":""run_exp/static/images/task_images/rocket-03.jpg"",""time"":2178.5},{""stimulus"":""run_exp/static/images/task_images/rocket-04.jpg"",""time"":3260.100000143051},{""stimulus"":""run_exp/static/images/task_images/rocket-05.jpg"",""time"":4340.700000047684},{""stimulus"":""run_exp/static/images/task_images/rocket-06.jpg"",""time"":5433.700000047684},{""stimulus"":""run_exp/static/images/task_images/rocket-07.jpg"",""time"":6518.5},{""stimulus"":""run_exp/static/images/task_images/rocket-08.jpg"",""time"":7606.200000047684},{""stimulus"":""run_exp/static/images/task_images/rocket-09.jpg"",""time"":8682.5}]",[],1,,,,,,,,,,,,,,
alien_welcome,77,374385,0.0-28.0-1.0,"""event"",""trial"",""time""
""fullscreenenter"",""1"",""4322""
","
","
","""event"",""trial"",""time""
""fullscreenenter"",""1"",""4322""
","
",,null,run_exp/static/images/task_images/aliens/old_aliens/planet/alien_planet-42.jpg,null,,,,,,,,,,,,,42,"37,42,64,26,19,30,72,65,79,48,45,40,46,29,59,1,61,8,5,74,60,34,28,13,35,39,9",,,,,,,,,,
land,78,374894,0.0-28.0-2.0,"""event"",""trial"",""time""
""fullscreenenter"",""1"",""4322""
","
","
","""event"",""trial"",""time""
""fullscreenenter"",""1"",""4322""
","
",,null,run_exp/static/images/task_images/land.jpg,null,,,,,,,94,,,2,,,,,,,,,,,,,,
dig,79,376902,0.0-28.0-3.0,"""event"",""trial"",""time""
""fullscreenenter"",""1"",""4322""
","
","
","""event"",""trial"",""time""
""fullscreenenter"",""1"",""4322""
","
",,,,,,,,,,,,"[{""stimulus"":""run_exp/static/images/task_images/dig.jpg"",""time"":0.2999999523162842},{""stimulus"":""run_exp/static/images/task_images/land.jpg"",""time"":674.0999999046326},{""stimulus"":""run_exp/static/images/task_images/dig.jpg"",""time"":1342.0999999046326}]",[],2,,,,,,,,,,,,,,
harvest,80,377911,0.0-28.0-4.0,"""event"",""trial"",""time""
""fullscreenenter"",""1"",""4322""
","
","
","""event"",""trial"",""time""
""fullscreenenter"",""1"",""4322""
","
",,null,run_exp/static/images/task_images/gems/94.jpg,null,,,,,,,27,,,2,,,,,94,0.285095744,0.287234043,,,,,,,
decision,81,378308,0.0-28.0-5.0,"""event"",""trial"",""time""
""fullscreenenter"",""1"",""4322""
","
","
","""event"",""trial"",""time""
""fullscreenenter"",""1"",""4322""
","
",,395.3000002,run_exp/static/images/task_images/land.jpg,65,,,,,,,27,,,2,,,,,,,,43536,1,0,FALSE,,,
dig,82,380916,0.0-29.0-0.0,"""event"",""trial"",""time""
""fullscreenenter"",""1"",""4322""
","
","
","""event"",""trial"",""time""
""fullscreenenter"",""1"",""4322""
","
",,,,,,,,,,,,"[{""stimulus"":""run_exp/static/images/task_images/dig.jpg"",""time"":0.20000004768371582},{""stimulus"":""run_exp/static/images/task_images/land.jpg"",""time"":870},{""stimulus"":""run_exp/static/images/task_images/dig.jpg"",""time"":1742.7999999523163}]",[],2,,,,,,,,,,,,,,
harvest,83,381917,0.0-29.0-1.0,"""event"",""trial"",""time""
""fullscreenenter"",""1"",""4322""
","
","
","""event"",""trial"",""time""
""fullscreenenter"",""1"",""4322""
","
",,null,run_exp/static/images/task_images/gems/27.jpg,null,,,,,,,8,,,2,,,,,27,0.299874612,0.296296296,,,,,,,
decision,84,382882,0.0-29.0-2.0,"""event"",""trial"",""time""
""fullscreenenter"",""1"",""4322""
","
","
","""event"",""trial"",""time""
""fullscreenenter"",""1"",""4322""
","
",,963.6999998,run_exp/static/images/task_images/land.jpg,65,,,,,,,8,,,2,,,,,,,,48110,1,1,FALSE,,,
dig,85,384925,0.0-30.0-0.0,"""event"",""trial"",""time""
""fullscreenenter"",""1"",""4322""
","
","
","""event"",""trial"",""time""
""fullscreenenter"",""1"",""4322""
","
",,,,,,,,,,,,"[{""stimulus"":""run_exp/static/images/task_images/dig.jpg"",""time"":0.09999990463256836},{""stimulus"":""run_exp/static/images/task_images/land.jpg"",""time"":687.7999999523163},{""stimulus"":""run_exp/static/images/task_images/dig.jpg"",""time"":1360.3999998569489}]",[],2,,,,,,,,,,,,,,
harvest,86,385933,0.0-30.0-1.0,"""event"",""trial"",""time""
""fullscreenenter"",""1"",""4322""
","
","
","""event"",""trial"",""time""
""fullscreenenter"",""1"",""4322""
","
",,null,run_exp/static/images/task_images/gems/8.jpg,null,,,,,,,2,,,2,,,,,8,0.226802192,0.25,,,,,,,
decision,87,386068,0.0-30.0-2.0,"""event"",""trial"",""time""
""fullscreenenter"",""1"",""4322""
","
","
","""event"",""trial"",""time""
""fullscreenenter"",""1"",""4322""
","
",,133.8,run_exp/static/images/task_images/land.jpg,65,,,,,,,2,,,2,,,,,,,,51296,1,2,FALSE,,,
dig,88,388941,0.0-31.0-0.0,"""event"",""trial"",""time""
""fullscreenenter"",""1"",""4322""
","
","
","""event"",""trial"",""time""
""fullscreenenter"",""1"",""4322""
","
",,,,,,,,,,,,"[{""stimulus"":""run_exp/static/images/task_images/dig.jpg"",""time"":0.20000004768371582},{""stimulus"":""run_exp/static/images/task_images/land.jpg"",""time"":959.0999999046326},{""stimulus"":""run_exp/static/images/task_images/dig.jpg"",""time"":1916.5}]",[],2,,,,,,,,,,,,,,
harvest,89,389948,0.0-31.0-1.0,"""event"",""trial"",""time""
""fullscreenenter"",""1"",""4322""
","
","
","""event"",""trial"",""time""
""fullscreenenter"",""1"",""4322""
","
",,null,run_exp/static/images/task_images/gems/2.jpg,null,,,,,,,0,,,2,,,,,2,0.2270488,0,,,,,,,
decision,90,390336,0.0-31.0-2.0,"""event"",""trial"",""time""
""fullscreenenter"",""1"",""4322""
","
","
","""event"",""trial"",""time""
""fullscreenenter"",""1"",""4322""
","
",,387.0999999,run_exp/static/images/task_images/land.jpg,65,,,,,,,0,,,2,,,,,,,,55564,1,3,FALSE,,,
dig,91,392958,0.0-32.0-0.0,"""event"",""trial"",""time""
""fullscreenenter"",""1"",""4322""
","
","
","""event"",""trial"",""time""
""fullscreenenter"",""1"",""4322""
","
",,,,,,,,,,,,"[{""stimulus"":""run_exp/static/images/task_images/dig.jpg"",""time"":0},{""stimulus"":""run_exp/static/images/task_images/land.jpg"",""time"":877},{""stimulus"":""run_exp/static/images/task_images/dig.jpg"",""time"":1747.1999998092651}]",[],2,,,,,,,,,,,,,,
harvest,92,393969,0.0-32.0-1.0,"""event"",""trial"",""time""
""fullscreenenter"",""1"",""4322""
","
","
","""event"",""trial"",""time""
""fullscreenenter"",""1"",""4322""
","
",,null,run_exp/static/images/task_images/gems/0.jpg,null,,,,,,,0,,,2,,,,,0,0.247345468,NaN,,,,,,,
decision,93,394233,0.0-32.0-2.0,"""event"",""trial"",""time""
""fullscreenenter"",""1"",""4322""
","
","
","""event"",""trial"",""time""
""fullscreenenter"",""1"",""4322""
","
",,263.3999999,run_exp/static/images/task_images/land.jpg,76,,,,,,,0,,,2,,,,,,,,59461,1,4,TRUE,,,
travel,94,403974,0.0-33.0-0.0,"""event"",""trial"",""time""
""fullscreenenter"",""1"",""4322""
","
","
","""event"",""trial"",""time""
""fullscreenenter"",""1"",""4322""
","
",,,,,,,,,,,,"[{""stimulus"":""run_exp/static/images/task_images/rocket-01.jpg"",""time"":0.20000004768371582},{""stimulus"":""run_exp/static/images/task_images/rocket-02.jpg"",""time"":1089.5999999046326},{""stimulus"":""run_exp/static/images/task_images/rocket-03.jpg"",""time"":2169.899999856949},{""stimulus"":""run_exp/static/images/task_images/rocket-04.jpg"",""time"":3249.899999856949},{""stimulus"":""run_exp/static/images/task_images/rocket-05.jpg"",""time"":4330.599999904633},{""stimulus"":""run_exp/static/images/task_images/rocket-06.jpg"",""time"":5410.399999856949},{""stimulus"":""run_exp/static/images/task_images/rocket-07.jpg"",""time"":6489.5},{""stimulus"":""run_exp/static/images/task_images/rocket-08.jpg"",""time"":7569.099999904633},{""stimulus"":""run_exp/static/images/task_images/rocket-09.jpg"",""time"":8649.599999904633}]",[],2,,,,,,,,,,,,,,
alien_welcome,95,408981,0.0-33.0-1.0,"""event"",""trial"",""time""
""fullscreenenter"",""1"",""4322""
","
","
","""event"",""trial"",""time""
""fullscreenenter"",""1"",""4322""
","
",,null,run_exp/static/images/task_images/aliens/old_aliens/planet/alien_planet-64.jpg,null,,,,,,,,,,,,,64,"37,42,64,26,19,30,72,65,79,48,45,40,46,29,59,1,61,8,5,74,60,34,28,13,35,39,9",,,,,,,,,,
land,96,409489,0.0-33.0-2.0,"""event"",""trial"",""time""
""fullscreenenter"",""1"",""4322""
","
","
","""event"",""trial"",""time""
""fullscreenenter"",""1"",""4322""
","
",,null,run_exp/static/images/task_images/land.jpg,null,,,,,,,96,,,3,,,,,,,,,,,,,,
dig,97,411503,0.0-33.0-3.0,"""event"",""trial"",""time""
""fullscreenenter"",""1"",""4322""
","
","
","""event"",""trial"",""time""
""fullscreenenter"",""1"",""4322""
","
",,,,,,,,,,,,"[{""stimulus"":""run_exp/static/images/task_images/dig.jpg"",""time"":0.2999999523162842},{""stimulus"":""run_exp/static/images/task_images/land.jpg"",""time"":674.9000000953674},{""stimulus"":""run_exp/static/images/task_images/dig.jpg"",""time"":1339.7000000476837}]",[],3,,,,,,,,,,,,,,
harvest,98,412509,0.0-33.0-4.0,"""event"",""trial"",""time""
""fullscreenenter"",""1"",""4322""
","
","
","""event"",""trial"",""time""
""fullscreenenter"",""1"",""4322""
","
",,null,run_exp/static/images/task_images/gems/96.jpg,null,,,,,,,47,,,3,,,,,96,0.485850601,0.489583333,,,,,,,
decision,99,412869,0.0-33.0-5.0,"""event"",""trial"",""time""
""fullscreenenter"",""1"",""4322""
","
","
","""event"",""trial"",""time""
""fullscreenenter"",""1"",""4322""
","
",,358.8,run_exp/static/images/task_images/land.jpg,65,,,,,,,47,,,3,,,,,,,,78097,1,0,FALSE,,,
dig,100,415517,0.0-34.0-0.0,"""event"",""trial"",""time""
""fullscreenenter"",""1"",""4322""
","
","
","""event"",""trial"",""time""
""fullscreenenter"",""1"",""4322""
","
",,,,,,,,,,,,"[{""stimulus"":""run_exp/static/images/task_images/dig.jpg"",""time"":0.20000004768371582},{""stimulus"":""run_exp/static/images/task_images/land.jpg"",""time"":886.1000001430511},{""stimulus"":""run_exp/static/images/task_images/dig.jpg"",""time"":1766.9000000953674}]",[],3,,,,,,,,,,,,,,
harvest,101,416524,0.0-34.0-1.0,"""event"",""trial"",""time""
""fullscreenenter"",""1"",""4322""
","
","
","""event"",""trial"",""time""
""fullscreenenter"",""1"",""4322""
","
",,null,run_exp/static/images/task_images/gems/47.jpg,null,,,,,,,25,,,3,,,,,47,0.540986116,0.531914894,,,,,,,
decision,102,416536,0.0-34.0-2.0,"""event"",""trial"",""time""
""fullscreenenter"",""1"",""4322""
","
","
","""event"",""trial"",""time""
""fullscreenenter"",""1"",""4322""
","
",,10.70000005,run_exp/static/images/task_images/land.jpg,65,,,,,,,25,,,3,,,,,,,,81764,1,1,FALSE,,,
dig,103,419537,0.0-35.0-0.0,"""event"",""trial"",""time""
""fullscreenenter"",""1"",""4322""
","
","
","""event"",""trial"",""time""
""fullscreenenter"",""1"",""4322""
","
",,,,,,,,,,,,"[{""stimulus"":""run_exp/static/images/task_images/dig.jpg"",""time"":0.10000014305114746},{""stimulus"":""run_exp/static/images/task_images/land.jpg"",""time"":1003.7000000476837},{""stimulus"":""run_exp/static/images/task_images/dig.jpg"",""time"":1999}]",[],3,,,,,,,,,,,,,,
harvest,104,420541,0.0-35.0-1.0,"""event"",""trial"",""time""
""fullscreenenter"",""1"",""4322""
","
","
","""event"",""trial"",""time""
""fullscreenenter"",""1"",""4322""
","
",,null,run_exp/static/images/task_images/gems/25.jpg,null,,,,,,,12,,,3,,,,,25,0.499927287,0.48,,,,,,,
decision,105,420892,0.0-35.0-2.0,"""event"",""trial"",""time""
""fullscreenenter"",""1"",""4322""
","
","
","""event"",""trial"",""time""
""fullscreenenter"",""1"",""4322""
","
",,349.5,run_exp/static/images/task_images/land.jpg,65,,,,,,,12,,,3,,,,,,,,86120,1,2,FALSE,,,
dig,106,423549,0.0-36.0-0.0,"""event"",""trial"",""time""
""fullscreenenter"",""1"",""4322""
","
","
","""event"",""trial"",""time""
""fullscreenenter"",""1"",""4322""
","
",,,,,,,,,,,,"[{""stimulus"":""run_exp/static/images/task_images/dig.jpg"",""time"":0.09999990463256836},{""stimulus"":""run_exp/static/images/task_images/land.jpg"",""time"":891.3999998569489},{""stimulus"":""run_exp/static/images/task_images/dig.jpg"",""time"":1778.0999999046326}]",[],3,,,,,,,,,,,,,,
harvest,107,424557,0.0-36.0-1.0,"""event"",""trial"",""time""
""fullscreenenter"",""1"",""4322""
","
","
","""event"",""trial"",""time""
""fullscreenenter"",""1"",""4322""
","
",,null,run_exp/static/images/task_images/gems/12.jpg,null,,,,,,,6,,,3,,,,,12,0.498945523,0.5,,,,,,,
decision,108,424647,0.0-36.0-2.0,"""event"",""trial"",""time""
""fullscreenenter"",""1"",""4322""
","
","
","""event"",""trial"",""time""
""fullscreenenter"",""1"",""4322""
","
",,88.69999981,run_exp/static/images/task_images/land.jpg,65,,,,,,,6,,,3,,,,,,,,89875,1,3,FALSE,,,
dig,109,427568,0.0-37.0-0.0,"""event"",""trial"",""time""
""fullscreenenter"",""1"",""4322""
","
","
","""event"",""trial"",""time""
""fullscreenenter"",""1"",""4322""
","
",,,,,,,,,,,,"[{""stimulus"":""run_exp/static/images/task_images/dig.jpg"",""time"":0.09999990463256836},{""stimulus"":""run_exp/static/images/task_images/land.jpg"",""time"":979.5999999046326},{""stimulus"":""run_exp/static/images/task_images/dig.jpg"",""time"":1941.6999998092651}]",[],3,,,,,,,,,,,,,,
harvest,110,428574,0.0-37.0-1.0,"""event"",""trial"",""time""
""fullscreenenter"",""1"",""4322""
","
","
","""event"",""trial"",""time""
""fullscreenenter"",""1"",""4322""
","
",,null,run_exp/static/images/task_images/gems/6.jpg,null,,,,,,,3,,,3,,,,,6,0.462636716,0.5,,,,,,,
decision,111,428722,0.0-37.0-2.0,"""event"",""trial"",""time""
""fullscreenenter"",""1"",""4322""
","
","
","""event"",""trial"",""time""
""fullscreenenter"",""1"",""4322""
","
",,147.2,run_exp/static/images/task_images/land.jpg,65,,,,,,,3,,,3,,,,,,,,93950,1,4,FALSE,,,
dig,112,431581,0.0-38.0-0.0,"""event"",""trial"",""time""
""fullscreenenter"",""1"",""4322""
","
","
","""event"",""trial"",""time""
""fullscreenenter"",""1"",""4322""
","
",,,,,,,,,,,,"[{""stimulus"":""run_exp/static/images/task_images/dig.jpg"",""time"":0.10000014305114746},{""stimulus"":""run_exp/static/images/task_images/land.jpg"",""time"":951.6000001430511},{""stimulus"":""run_exp/static/images/task_images/dig.jpg"",""time"":1908.7999999523163}]",[],3,,,,,,,,,,,,,,
harvest,113,432587,0.0-38.0-1.0,"""event"",""trial"",""time""
""fullscreenenter"",""1"",""4322""
","
","
","""event"",""trial"",""time""
""fullscreenenter"",""1"",""4322""
","
",,null,run_exp/static/images/task_images/gems/3.jpg,null,,,,,,,1,,,3,,,,,3,0.441964606,0.333333333,,,,,,,
decision,114,432695,0.0-38.0-2.0,"""event"",""trial"",""time""
""fullscreenenter"",""1"",""4322""
","
","
","""event"",""trial"",""time""
""fullscreenenter"",""1"",""4322""
","
",,106.8,run_exp/static/images/task_images/land.jpg,65,,,,,,,1,,,3,,,,,,,,97923,1,5,FALSE,,,
dig,115,435590,0.0-39.0-0.0,"""event"",""trial"",""time""
""fullscreenenter"",""1"",""4322""
","
","
","""event"",""trial"",""time""
""fullscreenenter"",""1"",""4322""
","
",,,,,,,,,,,,"[{""stimulus"":""run_exp/static/images/task_images/dig.jpg"",""time"":0.20000004768371582},{""stimulus"":""run_exp/static/images/task_images/land.jpg"",""time"":972.7999999523163},{""stimulus"":""run_exp/static/images/task_images/dig.jpg"",""time"":1933}]",[],3,,,,,,,,,,,,,,
harvest,116,436598,0.0-39.0-1.0,"""event"",""trial"",""time""
""fullscreenenter"",""1"",""4322""
","
","
","""event"",""trial"",""time""
""fullscreenenter"",""1"",""4322""
","
",,null,run_exp/static/images/task_images/gems/1.jpg,null,,,,,,,0,,,3,,,,,1,0.43471307,0,,,,,,,
decision,117,436646,0.0-39.0-2.0,"""event"",""trial"",""time""
""fullscreenenter"",""1"",""4322""
","
","
","""event"",""trial"",""time""
""fullscreenenter"",""1"",""4322""
","
",,47.29999995,run_exp/static/images/task_images/land.jpg,65,,,,,,,0,,,3,,,,,,,,101874,1,6,FALSE,,,
dig,118,439607,0.0-40.0-0.0,"""event"",""trial"",""time""
""fullscreenenter"",""1"",""4322""
","
","
","""event"",""trial"",""time""
""fullscreenenter"",""1"",""4322""
","
",,,,,,,,,,,,"[{""stimulus"":""run_exp/static/images/task_images/dig.jpg"",""time"":0.20000004768371582},{""stimulus"":""run_exp/static/images/task_images/land.jpg"",""time"":985},{""stimulus"":""run_exp/static/images/task_images/dig.jpg"",""time"":1972}]",[],3,,,,,,,,,,,,,,
harvest,119,440615,0.0-40.0-1.0,"""event"",""trial"",""time""
""fullscreenenter"",""1"",""4322""
","
","
","""event"",""trial"",""time""
""fullscreenenter"",""1"",""4322""
","
",,null,run_exp/static/images/task_images/gems/0.jpg,null,,,,,,,0,,,3,,,,,0,0.458781643,NaN,,,,,,,
decision,120,440718,0.0-40.0-2.0,"""event"",""trial"",""time""
""fullscreenenter"",""1"",""4322""
","
","
","""event"",""trial"",""time""
""fullscreenenter"",""1"",""4322""
","
",,101.9000001,run_exp/static/images/task_images/land.jpg,65,,,,,,,0,,,3,,,,,,,,105946,1,7,FALSE,,,
dig,121,443624,0.0-41.0-0.0,"""event"",""trial"",""time""
""fullscreenenter"",""1"",""4322""
","
","
","""event"",""trial"",""time""
""fullscreenenter"",""1"",""4322""
","
",,,,,,,,,,,,"[{""stimulus"":""run_exp/static/images/task_images/dig.jpg"",""time"":0.10000014305114746},{""stimulus"":""run_exp/static/images/task_images/land.jpg"",""time"":972.9000000953674},{""stimulus"":""run_exp/static/images/task_images/dig.jpg"",""time"":1939.5}]",[],3,,,,,,,,,,,,,,
harvest,122,444629,0.0-41.0-1.0,"""event"",""trial"",""time""
""fullscreenenter"",""1"",""4322""
","
","
","""event"",""trial"",""time""
""fullscreenenter"",""1"",""4322""
","
",,null,run_exp/static/images/task_images/gems/0.jpg,null,,,,,,,0,,,3,,,,,0,0.500344643,NaN,,,,,,,
decision,123,446256,0.0-41.0-2.0,"""event"",""trial"",""time""
""fullscreenenter"",""1"",""4322""
","
","
","""event"",""trial"",""time""
""fullscreenenter"",""1"",""4322""
","
",,1625.7,run_exp/static/images/task_images/land.jpg,76,,,,,,,0,,,3,,,,,,,,111484,1,8,TRUE,,,
travel,124,454629,0.0-42.0-0.0,"""event"",""trial"",""time""
""fullscreenenter"",""1"",""4322""
","
","
","""event"",""trial"",""time""
""fullscreenenter"",""1"",""4322""
","
",,,,,,,,,,,,"[{""stimulus"":""run_exp/static/images/task_images/rocket-01.jpg"",""time"":0.10000014305114746},{""stimulus"":""run_exp/static/images/task_images/rocket-02.jpg"",""time"":932.4000000953674},{""stimulus"":""run_exp/static/images/task_images/rocket-03.jpg"",""time"":1867.5},{""stimulus"":""run_exp/static/images/task_images/rocket-04.jpg"",""time"":2797.7000000476837},{""stimulus"":""run_exp/static/images/task_images/rocket-05.jpg"",""time"":3727},{""stimulus"":""run_exp/static/images/task_images/rocket-06.jpg"",""time"":4658},{""stimulus"":""run_exp/static/images/task_images/rocket-07.jpg"",""time"":5587.5},{""stimulus"":""run_exp/static/images/task_images/rocket-08.jpg"",""time"":6517.100000143051},{""stimulus"":""run_exp/static/images/task_images/rocket-09.jpg"",""time"":7442.900000095367}]",[],3,,,,,,,,,,,,,,
alien_welcome,125,459637,0.0-42.0-1.0,"""event"",""trial"",""time""
""fullscreenenter"",""1"",""4322""
","
","
","""event"",""trial"",""time""
""fullscreenenter"",""1"",""4322""
","
",,null,run_exp/static/images/task_images/aliens/old_aliens/planet/alien_planet-26.jpg,null,,,,,,,,,,,,,26,"37,42,64,26,19,30,72,65,79,48,45,40,46,29,59,1,61,8,5,74,60,34,28,13,35,39,9",,,,,,,,,,
land,126,460141,0.0-42.0-2.0,"""event"",""trial"",""time""
""fullscreenenter"",""1"",""4322""
","
","
","""event"",""trial"",""time""
""fullscreenenter"",""1"",""4322""
","
",,null,run_exp/static/images/task_images/land.jpg,null,,,,,,,103,,,4,,,,,,,,,,,,,,
dig,127,462149,0.0-42.0-3.0,"""event"",""trial"",""time""
""fullscreenenter"",""1"",""4322""
","
","
","""event"",""trial"",""time""
""fullscreenenter"",""1"",""4322""
","
",,,,,,,,,,,,"[{""stimulus"":""run_exp/static/images/task_images/dig.jpg"",""time"":0.20000004768371582},{""stimulus"":""run_exp/static/images/task_images/land.jpg"",""time"":671.6000001430511},{""stimulus"":""run_exp/static/images/task_images/dig.jpg"",""time"":1343.6000001430511}]",[],4,,,,,,,,,,,,,,
harvest,128,463161,0.0-42.0-4.0,"""event"",""trial"",""time""
""fullscreenenter"",""1"",""4322""
","
","
","""event"",""trial"",""time""
""fullscreenenter"",""1"",""4322""
","
",,null,run_exp/static/images/task_images/gems/103.jpg,null,,,,,,,55,,,4,,,,,103,0.534019622,0.533980583,,,,,,,
decision,129,464288,0.0-42.0-5.0,"""event"",""trial"",""time""
""fullscreenenter"",""1"",""4322""
","
","
","""event"",""trial"",""time""
""fullscreenenter"",""1"",""4322""
","
",,1125.9,run_exp/static/images/task_images/land.jpg,65,,,,,,,55,,,4,,,,,,,,129517,1,0,FALSE,,,
dig,130,466165,0.0-43.0-0.0,"""event"",""trial"",""time""
""fullscreenenter"",""1"",""4322""
","
","
","""event"",""trial"",""time""
""fullscreenenter"",""1"",""4322""
","
",,,,,,,,,,,,"[{""stimulus"":""run_exp/static/images/task_images/dig.jpg"",""time"":0.20000004768371582},{""stimulus"":""run_exp/static/images/task_images/land.jpg"",""time"":630.8999998569489},{""stimulus"":""run_exp/static/images/task_images/dig.jpg"",""time"":1250.0999999046326}]",[],4,,,,,,,,,,,,,,
harvest,131,467170,0.0-43.0-1.0,"""event"",""trial"",""time""
""fullscreenenter"",""1"",""4322""
","
","
","""event"",""trial"",""time""
""fullscreenenter"",""1"",""4322""
","
",,null,run_exp/static/images/task_images/gems/55.jpg,null,,,,,,,26,,,4,,,,,55,0.471253722,0.472727273,,,,,,,
decision,132,467353,0.0-43.0-2.0,"""event"",""trial"",""time""
""fullscreenenter"",""1"",""4322""
","
","
","""event"",""trial"",""time""
""fullscreenenter"",""1"",""4322""
","
",,182.5,run_exp/static/images/task_images/land.jpg,65,,,,,,,26,,,4,,,,,,,,132581,1,1,FALSE,,,
dig,133,470181,0.0-44.0-0.0,"""event"",""trial"",""time""
""fullscreenenter"",""1"",""4322""
","
","
","""event"",""trial"",""time""
""fullscreenenter"",""1"",""4322""
","
",,,,,,,,,,,,"[{""stimulus"":""run_exp/static/images/task_images/dig.jpg"",""time"":0.09999990463256836},{""stimulus"":""run_exp/static/images/task_images/land.jpg"",""time"":947.4000000953674},{""stimulus"":""run_exp/static/images/task_images/dig.jpg"",""time"":1884.9000000953674}]",[],4,,,,,,,,,,,,,,
harvest,134,471189,0.0-44.0-1.0,"""event"",""trial"",""time""
""fullscreenenter"",""1"",""4322""
","
","
","""event"",""trial"",""time""
""fullscreenenter"",""1"",""4322""
","
",,null,run_exp/static/images/task_images/gems/26.jpg,null,,,,,,,12,,,4,,,,,26,0.458056346,0.461538462,,,,,,,
decision,135,471315,0.0-44.0-2.0,"""event"",""trial"",""time""
""fullscreenenter"",""1"",""4322""
","
","
","""event"",""trial"",""time""
""fullscreenenter"",""1"",""4322""
","
",,124.2,run_exp/static/images/task_images/land.jpg,65,,,,,,,12,,,4,,,,,,,,136543,1,2,FALSE,,,
dig,136,474198,0.0-45.0-0.0,"""event"",""trial"",""time""
""fullscreenenter"",""1"",""4322""
","
","
","""event"",""trial"",""time""
""fullscreenenter"",""1"",""4322""
","
",,,,,,,,,,,,"[{""stimulus"":""run_exp/static/images/task_images/dig.jpg"",""time"":0.10000014305114746},{""stimulus"":""run_exp/static/images/task_images/land.jpg"",""time"":971.7999999523163},{""stimulus"":""run_exp/static/images/task_images/dig.jpg"",""time"":1922.6000001430511}]",[],4,,,,,,,,,,,,,,
harvest,137,475205,0.0-45.0-1.0,"""event"",""trial"",""time""
""fullscreenenter"",""1"",""4322""
","
","
","""event"",""trial"",""time""
""fullscreenenter"",""1"",""4322""
","
",,null,run_exp/static/images/task_images/gems/12.jpg,null,,,,,,,6,,,4,,,,,12,0.502531164,0.5,,,,,,,
decision,138,475279,0.0-45.0-2.0,"""event"",""trial"",""time""
""fullscreenenter"",""1"",""4322""
","
","
","""event"",""trial"",""time""
""fullscreenenter"",""1"",""4322""
","
",,72.60000014,run_exp/static/images/task_images/land.jpg,65,,,,,,,6,,,4,,,,,,,,140507,1,3,FALSE,,,
dig,139,478217,0.0-46.0-0.0,"""event"",""trial"",""time""
""fullscreenenter"",""1"",""4322""
","
","
","""event"",""trial"",""time""
""fullscreenenter"",""1"",""4322""
","
",,,,,,,,,,,,"[{""stimulus"":""run_exp/static/images/task_images/dig.jpg"",""time"":0.20000004768371582},{""stimulus"":""run_exp/static/images/task_images/land.jpg"",""time"":980.3999998569489},{""stimulus"":""run_exp/static/images/task_images/dig.jpg"",""time"":1956.3999998569489}]",[],4,,,,,,,,,,,,,,
harvest,140,479223,0.0-46.0-1.0,"""event"",""trial"",""time""
""fullscreenenter"",""1"",""4322""
","
","
","""event"",""trial"",""time""
""fullscreenenter"",""1"",""4322""
","
",,null,run_exp/static/images/task_images/gems/6.jpg,null,,,,,,,3,,,4,,,,,6,0.478123525,0.5,,,,,,,
decision,141,479269,0.0-46.0-2.0,"""event"",""trial"",""time""
""fullscreenenter"",""1"",""4322""
","
","
","""event"",""trial"",""time""
""fullscreenenter"",""1"",""4322""
","
",,44.69999981,run_exp/static/images/task_images/land.jpg,65,,,,,,,3,,,4,,,,,,,,144497,1,4,FALSE,,,
dig,142,482229,0.0-47.0-0.0,"""event"",""trial"",""time""
""fullscreenenter"",""1"",""4322""
","
","
","""event"",""trial"",""time""
""fullscreenenter"",""1"",""4322""
","
",,,,,,,,,,,,"[{""stimulus"":""run_exp/static/images/task_images/dig.jpg"",""time"":0.20000004768371582},{""stimulus"":""run_exp/static/images/task_images/land.jpg"",""time"":990.2999999523163},{""stimulus"":""run_exp/static/images/task_images/dig.jpg"",""time"":1973.9000000953674}]",[],4,,,,,,,,,,,,,,
harvest,143,483237,0.0-47.0-1.0,"""event"",""trial"",""time""
""fullscreenenter"",""1"",""4322""
","
","
","""event"",""trial"",""time""
""fullscreenenter"",""1"",""4322""
","
",,null,run_exp/static/images/task_images/gems/3.jpg,null,,,,,,,1,,,4,,,,,3,0.496208692,0.333333333,,,,,,,
decision,144,483253,0.0-47.0-2.0,"""event"",""trial"",""time""
""fullscreenenter"",""1"",""4322""
","
","
","""event"",""trial"",""time""
""fullscreenenter"",""1"",""4322""
","
",,15,run_exp/static/images/task_images/land.jpg,65,,,,,,,1,,,4,,,,,,,,148481,1,5,FALSE,,,
dig,145,486246,0.0-48.0-0.0,"""event"",""trial"",""time""
""fullscreenenter"",""1"",""4322""
","
","
","""event"",""trial"",""time""
""fullscreenenter"",""1"",""4322""
","
",,,,,,,,,,,,"[{""stimulus"":""run_exp/static/images/task_images/dig.jpg"",""time"":0.19999980926513672},{""stimulus"":""run_exp/static/images/task_images/land.jpg"",""time"":1001.3999998569489},{""stimulus"":""run_exp/static/images/task_images/dig.jpg"",""time"":1994}]",[],4,,,,,,,,,,,,,,
harvest,146,487253,0.0-48.0-1.0,"""event"",""trial"",""time""
""fullscreenenter"",""1"",""4322""
","
","
","""event"",""trial"",""time""
""fullscreenenter"",""1"",""4322""
","
",,null,run_exp/static/images/task_images/gems/1.jpg,null,,,,,,,1,,,4,,,,,1,0.594710596,1,,,,,,,
decision,147,487315,0.0-48.0-2.0,"""event"",""trial"",""time""
""fullscreenenter"",""1"",""4322""
","
","
","""event"",""trial"",""time""
""fullscreenenter"",""1"",""4322""
","
",,60.9000001,run_exp/static/images/task_images/land.jpg,65,,,,,,,1,,,4,,,,,,,,152543,1,6,FALSE,,,
dig,148,490265,0.0-49.0-0.0,"""event"",""trial"",""time""
""fullscreenenter"",""1"",""4322""
","
","
","""event"",""trial"",""time""
""fullscreenenter"",""1"",""4322""
","
",,,,,,,,,,,,"[{""stimulus"":""run_exp/static/images/task_images/dig.jpg"",""time"":0.09999990463256836},{""stimulus"":""run_exp/static/images/task_images/land.jpg"",""time"":985},{""stimulus"":""run_exp/static/images/task_images/dig.jpg"",""time"":1960.2999999523163}]",[],4,,,,,,,,,,,,,,
harvest,149,491270,0.0-49.0-1.0,"""event"",""trial"",""time""
""fullscreenenter"",""1"",""4322""
","
","
","""event"",""trial"",""time""
""fullscreenenter"",""1"",""4322""
","
",,null,run_exp/static/images/task_images/gems/1.jpg,null,,,,,,,1,,,4,,,,,1,0.65605273,1,,,,,,,
decision,150,491453,0.0-49.0-2.0,"""event"",""trial"",""time""
""fullscreenenter"",""1"",""4322""
","
","
","""event"",""trial"",""time""
""fullscreenenter"",""1"",""4322""
","
",,182.4000001,run_exp/static/images/task_images/land.jpg,65,,,,,,,0,,,4,,,,,,,,156681,1,7,FALSE,,,
dig,151,494277,0.0-50.0-0.0,"""event"",""trial"",""time""
""fullscreenenter"",""1"",""4322""
","
","
","""event"",""trial"",""time""
""fullscreenenter"",""1"",""4322""
","
",,,,,,,,,,,,"[{""stimulus"":""run_exp/static/images/task_images/dig.jpg"",""time"":0.09999990463256836},{""stimulus"":""run_exp/static/images/task_images/land.jpg"",""time"":941.8999998569489},{""stimulus"":""run_exp/static/images/task_images/dig.jpg"",""time"":1889.8999998569489}]",[],4,,,,,,,,,,,,,,
harvest,152,495287,0.0-50.0-1.0,"""event"",""trial"",""time""
""fullscreenenter"",""1"",""4322""
","
","
","""event"",""trial"",""time""
""fullscreenenter"",""1"",""4322""
","
",,null,run_exp/static/images/task_images/gems/0.jpg,null,,,,,,,0,,,4,,,,,0,0.532277139,NaN,,,,,,,
decision,153,495877,0.0-50.0-2.0,"""event"",""trial"",""time""
""fullscreenenter"",""1"",""4322""
","
","
","""event"",""trial"",""time""
""fullscreenenter"",""1"",""4322""
","
",,588.6999998,run_exp/static/images/task_images/land.jpg,76,,,,,,,0,,,4,,,,,,,,161105,1,8,TRUE,,,
travel,154,505292,0.0-51.0-0.0,"""event"",""trial"",""time""
""fullscreenenter"",""1"",""4322""
","
","
","""event"",""trial"",""time""
""fullscreenenter"",""1"",""4322""
","
",,,,,,,,,,,,"[{""stimulus"":""run_exp/static/images/task_images/rocket-01.jpg"",""time"":0.09999990463256836},{""stimulus"":""run_exp/static/images/task_images/rocket-02.jpg"",""time"":1053.8999998569489},{""stimulus"":""run_exp/static/images/task_images/rocket-03.jpg"",""time"":2093.399999856949},{""stimulus"":""run_exp/static/images/task_images/rocket-04.jpg"",""time"":3141.899999856949},{""stimulus"":""run_exp/static/images/task_images/rocket-05.jpg"",""time"":4183.599999904633},{""stimulus"":""run_exp/static/images/task_images/rocket-06.jpg"",""time"":5229.599999904633},{""stimulus"":""run_exp/static/images/task_images/rocket-07.jpg"",""time"":6277.099999904633},{""stimulus"":""run_exp/static/images/task_images/rocket-08.jpg"",""time"":7316.599999904633},{""stimulus"":""run_exp/static/images/task_images/rocket-09.jpg"",""time"":8364.700000047684}]",[],4,,,,,,,,,,,,,,
alien_welcome,155,510304,0.0-51.0-1.0,"""event"",""trial"",""time""
""fullscreenenter"",""1"",""4322""
","
","
","""event"",""trial"",""time""
""fullscreenenter"",""1"",""4322""
","
",,null,run_exp/static/images/task_images/aliens/old_aliens/planet/alien_planet-19.jpg,null,,,,,,,,,,,,,19,"37,42,64,26,19,30,72,65,79,48,45,40,46,29,59,1,61,8,5,74,60,34,28,13,35,39,9",,,,,,,,,,
land,156,510812,0.0-51.0-2.0,"""event"",""trial"",""time""
""fullscreenenter"",""1"",""4322""
","
","
","""event"",""trial"",""time""
""fullscreenenter"",""1"",""4322""
","
",,null,run_exp/static/images/task_images/land.jpg,null,,,,,,,98,,,5,,,,,,,,,,,,,,
dig,157,512820,0.0-51.0-3.0,"""event"",""trial"",""time""
""fullscreenenter"",""1"",""4322""
","
","
","""event"",""trial"",""time""
""fullscreenenter"",""1"",""4322""
","
",,,,,,,,,,,,"[{""stimulus"":""run_exp/static/images/task_images/dig.jpg"",""time"":0.09999990463256836},{""stimulus"":""run_exp/static/images/task_images/land.jpg"",""time"":672.0999999046326},{""stimulus"":""run_exp/static/images/task_images/dig.jpg"",""time"":1335.0999999046326}]",[],5,,,,,,,,,,,,,,
harvest,158,513829,0.0-51.0-4.0,"""event"",""trial"",""time""
""fullscreenenter"",""1"",""4322""
","
","
","""event"",""trial"",""time""
""fullscreenenter"",""1"",""4322""
","
",,null,run_exp/static/images/task_images/gems/98.jpg,null,,,,,,,47,,,5,,,,,98,0.477248727,0.479591837,,,,,,,
decision,159,514015,0.0-51.0-5.0,"""event"",""trial"",""time""
""fullscreenenter"",""1"",""4322""
","
","
","""event"",""trial"",""time""
""fullscreenenter"",""1"",""4322""
","
",,184.8999999,run_exp/static/images/task_images/land.jpg,65,,,,,,,47,,,5,,,,,,,,179243,1,0,FALSE,,,
dig,160,516837,0.0-52.0-0.0,"""event"",""trial"",""time""
""fullscreenenter"",""1"",""4322""
","
","
","""event"",""trial"",""time""
""fullscreenenter"",""1"",""4322""
","
",,,,,,,,,,,,"[{""stimulus"":""run_exp/static/images/task_images/dig.jpg"",""time"":0.20000004768371582},{""stimulus"":""run_exp/static/images/task_images/land.jpg"",""time"":939.8000001907349},{""stimulus"":""run_exp/static/images/task_images/dig.jpg"",""time"":1884.2000000476837}]",[],5,,,,,,,,,,,,,,
harvest,161,517845,0.0-52.0-1.0,"""event"",""trial"",""time""
""fullscreenenter"",""1"",""4322""
","
","
","""event"",""trial"",""time""
""fullscreenenter"",""1"",""4322""
","
",,null,run_exp/static/images/task_images/gems/47.jpg,null,,,,,,,20,,,5,,,,,47,0.426707724,0.425531915,,,,,,,
decision,162,517991,0.0-52.0-2.0,"""event"",""trial"",""time""
""fullscreenenter"",""1"",""4322""
","
","
","""event"",""trial"",""time""
""fullscreenenter"",""1"",""4322""
","
",,145.1000001,run_exp/static/images/task_images/land.jpg,65,,,,,,,20,,,5,,,,,,,,183219,1,1,FALSE,,,
dig,163,520853,0.0-53.0-0.0,"""event"",""trial"",""time""
""fullscreenenter"",""1"",""4322""
","
","
","""event"",""trial"",""time""
""fullscreenenter"",""1"",""4322""
","
",,,,,,,,,,,,"[{""stimulus"":""run_exp/static/images/task_images/dig.jpg"",""time"":0.2999999523162842},{""stimulus"":""run_exp/static/images/task_images/land.jpg"",""time"":959.2999999523163},{""stimulus"":""run_exp/static/images/task_images/dig.jpg"",""time"":1908.2999999523163}]",[],5,,,,,,,,,,,,,,
harvest,164,521861,0.0-53.0-1.0,"""event"",""trial"",""time""
""fullscreenenter"",""1"",""4322""
","
","
","""event"",""trial"",""time""
""fullscreenenter"",""1"",""4322""
","
",,null,run_exp/static/images/task_images/gems/20.jpg,null,,,,,,,10,,,5,,,,,20,0.478803824,0.5,,,,,,,
decision,165,521887,0.0-53.0-2.0,"""event"",""trial"",""time""
""fullscreenenter"",""1"",""4322""
","
","
","""event"",""trial"",""time""
""fullscreenenter"",""1"",""4322""
","
",,25.20000005,run_exp/static/images/task_images/land.jpg,65,,,,,,,10,,,5,,,,,,,,187115,1,2,FALSE,,,
dig,166,524869,0.0-54.0-0.0,"""event"",""trial"",""time""
""fullscreenenter"",""1"",""4322""
","
","
","""event"",""trial"",""time""
""fullscreenenter"",""1"",""4322""
","
",,,,,,,,,,,,"[{""stimulus"":""run_exp/static/images/task_images/dig.jpg"",""time"":0.20000004768371582},{""stimulus"":""run_exp/static/images/task_images/land.jpg"",""time"":991.7999999523163},{""stimulus"":""run_exp/static/images/task_images/dig.jpg"",""time"":1988.7999999523163}]",[],5,,,,,,,,,,,,,,
harvest,167,525879,0.0-54.0-1.0,"""event"",""trial"",""time""
""fullscreenenter"",""1"",""4322""
","
","
","""event"",""trial"",""time""
""fullscreenenter"",""1"",""4322""
","
",,null,run_exp/static/images/task_images/gems/10.jpg,null,,,,,,,6,,,5,,,,,10,0.55018805,0.6,,,,,,,
decision,168,525903,0.0-54.0-2.0,"""event"",""trial"",""time""
""fullscreenenter"",""1"",""4322""
","
","
","""event"",""trial"",""time""
""fullscreenenter"",""1"",""4322""
","
",,22.5,run_exp/static/images/task_images/land.jpg,65,,,,,,,6,,,5,,,,,,,,191131,1,3,FALSE,,,
dig,169,528886,0.0-55.0-0.0,"""event"",""trial"",""time""
""fullscreenenter"",""1"",""4322""
","
","
","""event"",""trial"",""time""
""fullscreenenter"",""1"",""4322""
","
",,,,,,,,,,,,"[{""stimulus"":""run_exp/static/images/task_images/dig.jpg"",""time"":0.20000004768371582},{""stimulus"":""run_exp/static/images/task_images/land.jpg"",""time"":996.0999999046326},{""stimulus"":""run_exp/static/images/task_images/dig.jpg"",""time"":1988.2000000476837}]",[],5,,,,,,,,,,,,,,
harvest,170,529894,0.0-55.0-1.0,"""event"",""trial"",""time""
""fullscreenenter"",""1"",""4322""
","
","
","""event"",""trial"",""time""
""fullscreenenter"",""1"",""4322""
","
",,null,run_exp/static/images/task_images/gems/6.jpg,null,,,,,,,3,,,5,,,,,6,0.458126506,0.5,,,,,,,
decision,171,530040,0.0-55.0-2.0,"""event"",""trial"",""time""
""fullscreenenter"",""1"",""4322""
","
","
","""event"",""trial"",""time""
""fullscreenenter"",""1"",""4322""
","
",,145.4000001,run_exp/static/images/task_images/land.jpg,65,,,,,,,3,,,5,,,,,,,,195268,1,4,FALSE,,,
dig,172,532902,0.0-56.0-0.0,"""event"",""trial"",""time""
""fullscreenenter"",""1"",""4322""
","
","
","""event"",""trial"",""time""
""fullscreenenter"",""1"",""4322""
","
",,,,,,,,,,,,"[{""stimulus"":""run_exp/static/images/task_images/dig.jpg"",""time"":0.09999990463256836},{""stimulus"":""run_exp/static/images/task_images/land.jpg"",""time"":955.1999998092651},{""stimulus"":""run_exp/static/images/task_images/dig.jpg"",""time"":1909}]",[],5,,,,,,,,,,,,,,
harvest,173,533910,0.0-56.0-1.0,"""event"",""trial"",""time""
""fullscreenenter"",""1"",""4322""
","
","
","""event"",""trial"",""time""
""fullscreenenter"",""1"",""4322""
","
",,null,run_exp/static/images/task_images/gems/3.jpg,null,,,,,,,2,,,5,,,,,3,0.584129153,0.666666667,,,,,,,
decision,174,533918,0.0-56.0-2.0,"""event"",""trial"",""time""
""fullscreenenter"",""1"",""4322""
","
","
","""event"",""trial"",""time""
""fullscreenenter"",""1"",""4322""
","
",,7.599999905,run_exp/static/images/task_images/land.jpg,65,,,,,,,2,,,5,,,,,,,,199147,1,5,FALSE,,,
dig,175,536918,0.0-57.0-0.0,"""event"",""trial"",""time""
""fullscreenenter"",""1"",""4322""
","
","
","""event"",""trial"",""time""
""fullscreenenter"",""1"",""4322""
","
",,,,,,,,,,,,"[{""stimulus"":""run_exp/static/images/task_images/dig.jpg"",""time"":0.19999980926513672},{""stimulus"":""run_exp/static/images/task_images/land.jpg"",""time"":1001.5999999046326},{""stimulus"":""run_exp/static/images/task_images/dig.jpg"",""time"":1997.1999998092651}]",[],5,,,,,,,,,,,,,,
harvest,176,537930,0.0-57.0-1.0,"""event"",""trial"",""time""
""fullscreenenter"",""1"",""4322""
","
","
","""event"",""trial"",""time""
""fullscreenenter"",""1"",""4322""
","
",,null,run_exp/static/images/task_images/gems/2.jpg,null,,,,,,,1,,,5,,,,,2,0.418787297,0.5,,,,,,,
decision,177,538018,0.0-57.0-2.0,"""event"",""trial"",""time""
""fullscreenenter"",""1"",""4322""
","
","
","""event"",""trial"",""time""
""fullscreenenter"",""1"",""4322""
","
",,86.5999999,run_exp/static/images/task_images/land.jpg,65,,,,,,,1,,,5,,,,,,,,203246,1,6,FALSE,,,
dig,178,540946,0.0-58.0-0.0,"""event"",""trial"",""time""
""fullscreenenter"",""1"",""4322""
","
","
","""event"",""trial"",""time""
""fullscreenenter"",""1"",""4322""
","
",,,,,,,,,,,,"[{""stimulus"":""run_exp/static/images/task_images/dig.jpg"",""time"":0.20000004768371582},{""stimulus"":""run_exp/static/images/task_images/land.jpg"",""time"":977.5999999046326},{""stimulus"":""run_exp/static/images/task_images/dig.jpg"",""time"":1949}]",[],5,,,,,,,,,,,,,,
harvest,179,541950,0.0-58.0-1.0,"""event"",""trial"",""time""
""fullscreenenter"",""1"",""4322""
","
","
","""event"",""trial"",""time""
""fullscreenenter"",""1"",""4322""
","
",,null,run_exp/static/images/task_images/gems/1.jpg,null,,,,,,,1,,,5,,,,,1,0.532012299,1,,,,,,,
decision,180,542903,0.0-58.0-2.0,"""event"",""trial"",""time""
""fullscreenenter"",""1"",""4322""
","
","
","""event"",""trial"",""time""
""fullscreenenter"",""1"",""4322""
","
",,951.7,run_exp/static/images/task_images/land.jpg,76,,,,,,,1,,,5,,,,,,,,208132,1,7,TRUE,,,
travel,181,551958,0.0-59.0-0.0,"""event"",""trial"",""time""
""fullscreenenter"",""1"",""4322""
","
","
","""event"",""trial"",""time""
""fullscreenenter"",""1"",""4322""
","
",,,,,,,,,,,,"[{""stimulus"":""run_exp/static/images/task_images/rocket-01.jpg"",""time"":0.19999980926513672},{""stimulus"":""run_exp/static/images/task_images/rocket-02.jpg"",""time"":1012.0999999046326},{""stimulus"":""run_exp/static/images/task_images/rocket-03.jpg"",""time"":2012.2999999523163},{""stimulus"":""run_exp/static/images/task_images/rocket-04.jpg"",""time"":3019.699999809265},{""stimulus"":""run_exp/static/images/task_images/rocket-05.jpg"",""time"":4027.399999856949},{""stimulus"":""run_exp/static/images/task_images/rocket-06.jpg"",""time"":5027.199999809265},{""stimulus"":""run_exp/static/images/task_images/rocket-07.jpg"",""time"":6036.699999809265},{""stimulus"":""run_exp/static/images/task_images/rocket-08.jpg"",""time"":7036},{""stimulus"":""run_exp/static/images/task_images/rocket-09.jpg"",""time"":8046.799999952316}]",[],5,,,,,,,,,,,,,,
alien_welcome,182,556967,0.0-59.0-1.0,"""event"",""trial"",""time""
""fullscreenenter"",""1"",""4322""
","
","
","""event"",""trial"",""time""
""fullscreenenter"",""1"",""4322""
","
",,null,run_exp/static/images/task_images/aliens/old_aliens/planet/alien_planet-30.jpg,null,,,,,,,,,,,,,30,"37,42,64,26,19,30,72,65,79,48,45,40,46,29,59,1,61,8,5,74,60,34,28,13,35,39,9",,,,,,,,,,
land,183,557469,0.0-59.0-2.0,"""event"",""trial"",""time""
""fullscreenenter"",""1"",""4322""
","
","
","""event"",""trial"",""time""
""fullscreenenter"",""1"",""4322""
","
",,null,run_exp/static/images/task_images/land.jpg,null,,,,,,,100,,,6,,,,,,,,,,,,,,
dig,184,559482,0.0-59.0-3.0,"""event"",""trial"",""time""
""fullscreenenter"",""1"",""4322""
","
","
","""event"",""trial"",""time""
""fullscreenenter"",""1"",""4322""
","
",,,,,,,,,,,,"[{""stimulus"":""run_exp/static/images/task_images/dig.jpg"",""time"":0.20000004768371582},{""stimulus"":""run_exp/static/images/task_images/land.jpg"",""time"":670.7999999523163},{""stimulus"":""run_exp/static/images/task_images/dig.jpg"",""time"":1343.2000000476837}]",[],6,,,,,,,,,,,,,,
harvest,185,560488,0.0-59.0-4.0,"""event"",""trial"",""time""
""fullscreenenter"",""1"",""4322""
","
","
","""event"",""trial"",""time""
""fullscreenenter"",""1"",""4322""
","
",,null,run_exp/static/images/task_images/gems/100.jpg,null,,,,,,,84,,,6,,,,,100,0.836423367,0.84,,,,,,,
decision,186,560530,0.0-59.0-5.0,"""event"",""trial"",""time""
""fullscreenenter"",""1"",""4322""
","
","
","""event"",""trial"",""time""
""fullscreenenter"",""1"",""4322""
","
",,40.89999986,run_exp/static/images/task_images/land.jpg,65,,,,,,,84,,,6,,,,,,,,225758,1,0,FALSE,,,
dig,187,563493,0.0-60.0-0.0,"""event"",""trial"",""time""
""fullscreenenter"",""1"",""4322""
","
","
","""event"",""trial"",""time""
""fullscreenenter"",""1"",""4322""
","
",,,,,,,,,,,,"[{""stimulus"":""run_exp/static/images/task_images/dig.jpg"",""time"":0.10000014305114746},{""stimulus"":""run_exp/static/images/task_images/land.jpg"",""time"":997.5},{""stimulus"":""run_exp/static/images/task_images/dig.jpg"",""time"":1981.5}]",[],6,,,,,,,,,,,,,,
harvest,188,564502,0.0-60.0-1.0,"""event"",""trial"",""time""
""fullscreenenter"",""1"",""4322""
","
","
","""event"",""trial"",""time""
""fullscreenenter"",""1"",""4322""
","
",,null,run_exp/static/images/task_images/gems/84.jpg,null,,,,,,,65,,,6,,,,,84,0.768416425,0.773809524,,,,,,,
decision,189,564576,0.0-60.0-2.0,"""event"",""trial"",""time""
""fullscreenenter"",""1"",""4322""
","
","
","""event"",""trial"",""time""
""fullscreenenter"",""1"",""4322""
","
",,72.89999986,run_exp/static/images/task_images/land.jpg,65,,,,,,,65,,,6,,,,,,,,229804,1,1,FALSE,,,
dig,190,567514,0.0-61.0-0.0,"""event"",""trial"",""time""
""fullscreenenter"",""1"",""4322""
","
","
","""event"",""trial"",""time""
""fullscreenenter"",""1"",""4322""
","
",,,,,,,,,,,,"[{""stimulus"":""run_exp/static/images/task_images/dig.jpg"",""time"":0},{""stimulus"":""run_exp/static/images/task_images/land.jpg"",""time"":979.1000001430511},{""stimulus"":""run_exp/static/images/task_images/dig.jpg"",""time"":1955.6000001430511}]",[],6,,,,,,,,,,,,,,
harvest,191,568518,0.0-61.0-1.0,"""event"",""trial"",""time""
""fullscreenenter"",""1"",""4322""
","
","
","""event"",""trial"",""time""
""fullscreenenter"",""1"",""4322""
","
",,null,run_exp/static/images/task_images/gems/65.jpg,null,,,,,,,48,,,6,,,,,65,0.741333709,0.738461538,,,,,,,
decision,192,568662,0.0-61.0-2.0,"""event"",""trial"",""time""
""fullscreenenter"",""1"",""4322""
","
","
","""event"",""trial"",""time""
""fullscreenenter"",""1"",""4322""
","
",,143.3,run_exp/static/images/task_images/land.jpg,65,,,,,,,48,,,6,,,,,,,,233890,1,2,FALSE,,,
dig,193,571530,0.0-62.0-0.0,"""event"",""trial"",""time""
""fullscreenenter"",""1"",""4322""
","
","
","""event"",""trial"",""time""
""fullscreenenter"",""1"",""4322""
","
",,,,,,,,,,,,"[{""stimulus"":""run_exp/static/images/task_images/dig.jpg"",""time"":0.09999990463256836},{""stimulus"":""run_exp/static/images/task_images/land.jpg"",""time"":961.3999998569489},{""stimulus"":""run_exp/static/images/task_images/dig.jpg"",""time"":1909.3999998569489}]",[],6,,,,,,,,,,,,,,
harvest,194,572534,0.0-62.0-1.0,"""event"",""trial"",""time""
""fullscreenenter"",""1"",""4322""
","
","
","""event"",""trial"",""time""
""fullscreenenter"",""1"",""4322""
","
",,null,run_exp/static/images/task_images/gems/48.jpg,null,,,,,,,36,,,6,,,,,48,0.748052385,0.75,,,,,,,
decision,195,572595,0.0-62.0-2.0,"""event"",""trial"",""time""
""fullscreenenter"",""1"",""4322""
","
","
","""event"",""trial"",""time""
""fullscreenenter"",""1"",""4322""
","
",,59.70000005,run_exp/static/images/task_images/land.jpg,65,,,,,,,36,,,6,,,,,,,,237823,1,3,FALSE,,,
dig,196,575542,0.0-63.0-0.0,"""event"",""trial"",""time""
""fullscreenenter"",""1"",""4322""
","
","
","""event"",""trial"",""time""
""fullscreenenter"",""1"",""4322""
","
",,,,,,,,,,,,"[{""stimulus"":""run_exp/static/images/task_images/dig.jpg"",""time"":0.10000014305114746},{""stimulus"":""run_exp/static/images/task_images/land.jpg"",""time"":984.9000000953674},{""stimulus"":""run_exp/static/images/task_images/dig.jpg"",""time"":1970.2999999523163}]",[],6,,,,,,,,,,,,,,
harvest,197,576545,0.0-63.0-1.0,"""event"",""trial"",""time""
""fullscreenenter"",""1"",""4322""
","
","
","""event"",""trial"",""time""
""fullscreenenter"",""1"",""4322""
","
",,null,run_exp/static/images/task_images/gems/36.jpg,null,,,,,,,30,,,6,,,,,36,0.844588698,0.833333333,,,,,,,
decision,198,576741,0.0-63.0-2.0,"""event"",""trial"",""time""
""fullscreenenter"",""1"",""4322""
","
","
","""event"",""trial"",""time""
""fullscreenenter"",""1"",""4322""
","
",,195.5,run_exp/static/images/task_images/land.jpg,65,,,,,,,30,,,6,,,,,,,,241969,1,4,FALSE,,,
dig,199,579550,0.0-64.0-0.0,"""event"",""trial"",""time""
""fullscreenenter"",""1"",""4322""
","
","
","""event"",""trial"",""time""
""fullscreenenter"",""1"",""4322""
","
",,,,,,,,,,,,"[{""stimulus"":""run_exp/static/images/task_images/dig.jpg"",""time"":0.20000004768371582},{""stimulus"":""run_exp/static/images/task_images/land.jpg"",""time"":942},{""stimulus"":""run_exp/static/images/task_images/dig.jpg"",""time"":1870.5}]",[],6,,,,,,,,,,,,,,
harvest,200,580558,0.0-64.0-1.0,"""event"",""trial"",""time""
""fullscreenenter"",""1"",""4322""
","
","
","""event"",""trial"",""time""
""fullscreenenter"",""1"",""4322""
","
",,null,run_exp/static/images/task_images/gems/30.jpg,null,,,,,,,25,,,6,,,,,30,0.826784884,0.833333333,,,,,,,
decision,201,580593,0.0-64.0-2.0,"""event"",""trial"",""time""
""fullscreenenter"",""1"",""4322""
","
","
","""event"",""trial"",""time""
""fullscreenenter"",""1"",""4322""
","
",,33.70000005,run_exp/static/images/task_images/land.jpg,65,,,,,,,25,,,6,,,,,,,,245821,1,5,FALSE,,,
dig,202,583566,0.0-65.0-0.0,"""event"",""trial"",""time""
""fullscreenenter"",""1"",""4322""
","
","
","""event"",""trial"",""time""
""fullscreenenter"",""1"",""4322""
","
",,,,,,,,,,,,"[{""stimulus"":""run_exp/static/images/task_images/dig.jpg"",""time"":0.20000004768371582},{""stimulus"":""run_exp/static/images/task_images/land.jpg"",""time"":993.1000001430511},{""stimulus"":""run_exp/static/images/task_images/dig.jpg"",""time"":1979}]",[],6,,,,,,,,,,,,,,
harvest,203,584574,0.0-65.0-1.0,"""event"",""trial"",""time""
""fullscreenenter"",""1"",""4322""
","
","
","""event"",""trial"",""time""
""fullscreenenter"",""1"",""4322""
","
",,null,run_exp/static/images/task_images/gems/25.jpg,null,,,,,,,21,,,6,,,,,25,0.830694551,0.84,,,,,,,
decision,204,584719,0.0-65.0-2.0,"""event"",""trial"",""time""
""fullscreenenter"",""1"",""4322""
","
","
","""event"",""trial"",""time""
""fullscreenenter"",""1"",""4322""
","
",,143.0999999,run_exp/static/images/task_images/land.jpg,65,,,,,,,21,,,6,,,,,,,,249947,1,6,FALSE,,,
dig,205,587582,0.0-66.0-0.0,"""event"",""trial"",""time""
""fullscreenenter"",""1"",""4322""
","
","
","""event"",""trial"",""time""
""fullscreenenter"",""1"",""4322""
","
",,,,,,,,,,,,"[{""stimulus"":""run_exp/static/images/task_images/dig.jpg"",""time"":0.09999990463256836},{""stimulus"":""run_exp/static/images/task_images/land.jpg"",""time"":961.0999999046326},{""stimulus"":""run_exp/static/images/task_images/dig.jpg"",""time"":1909}]",[],6,,,,,,,,,,,,,,
harvest,206,588591,0.0-66.0-1.0,"""event"",""trial"",""time""
""fullscreenenter"",""1"",""4322""
","
","
","""event"",""trial"",""time""
""fullscreenenter"",""1"",""4322""
","
",,null,run_exp/static/images/task_images/gems/21.jpg,null,,,,,,,16,,,6,,,,,21,0.780141067,0.761904762,,,,,,,
decision,207,588754,0.0-66.0-2.0,"""event"",""trial"",""time""
""fullscreenenter"",""1"",""4322""
","
","
","""event"",""trial"",""time""
""fullscreenenter"",""1"",""4322""
","
",,162.1000001,run_exp/static/images/task_images/land.jpg,65,,,,,,,16,,,6,,,,,,,,253982,1,7,FALSE,,,
dig,208,591592,0.0-67.0-0.0,"""event"",""trial"",""time""
""fullscreenenter"",""1"",""4322""
","
","
","""event"",""trial"",""time""
""fullscreenenter"",""1"",""4322""
","
",,,,,,,,,,,,"[{""stimulus"":""run_exp/static/images/task_images/dig.jpg"",""time"":0.09999990463256836},{""stimulus"":""run_exp/static/images/task_images/land.jpg"",""time"":957.3999998569489},{""stimulus"":""run_exp/static/images/task_images/dig.jpg"",""time"":1898.2000000476837}]",[],6,,,,,,,,,,,,,,
harvest,209,592594,0.0-67.0-1.0,"""event"",""trial"",""time""
""fullscreenenter"",""1"",""4322""
","
","
","""event"",""trial"",""time""
""fullscreenenter"",""1"",""4322""
","
",,null,run_exp/static/images/task_images/gems/16.jpg,null,,,,,,,13,,,6,,,,,16,0.807670057,0.8125,,,,,,,
decision,210,592640,0.0-67.0-2.0,"""event"",""trial"",""time""
""fullscreenenter"",""1"",""4322""
","
","
","""event"",""trial"",""time""
""fullscreenenter"",""1"",""4322""
","
",,45,run_exp/static/images/task_images/land.jpg,65,,,,,,,13,,,6,,,,,,,,257868,1,8,FALSE,,,
dig,211,595606,0.0-68.0-0.0,"""event"",""trial"",""time""
""fullscreenenter"",""1"",""4322""
","
","
","""event"",""trial"",""time""
""fullscreenenter"",""1"",""4322""
","
",,,,,,,,,,,,"[{""stimulus"":""run_exp/static/images/task_images/dig.jpg"",""time"":0.20000004768371582},{""stimulus"":""run_exp/static/images/task_images/land.jpg"",""time"":991.5},{""stimulus"":""run_exp/static/images/task_images/dig.jpg"",""time"":1978.8000001907349}]",[],6,,,,,,,,,,,,,,
harvest,212,596618,0.0-68.0-1.0,"""event"",""trial"",""time""
""fullscreenenter"",""1"",""4322""
","
","
","""event"",""trial"",""time""
""fullscreenenter"",""1"",""4322""
","
",,null,run_exp/static/images/task_images/gems/13.jpg,null,,,,,,,10,,,6,,,,,13,0.789431303,0.769230769,,,,,,,
decision,213,596660,0.0-68.0-2.0,"""event"",""trial"",""time""
""fullscreenenter"",""1"",""4322""
","
","
","""event"",""trial"",""time""
""fullscreenenter"",""1"",""4322""
","
",,41,run_exp/static/images/task_images/land.jpg,65,,,,,,,10,,,6,,,,,,,,261888,1,9,FALSE,,,
dig,214,599630,0.0-69.0-0.0,"""event"",""trial"",""time""
""fullscreenenter"",""1"",""4322""
","
","
","""event"",""trial"",""time""
""fullscreenenter"",""1"",""4322""
","
",,,,,,,,,,,,"[{""stimulus"":""run_exp/static/images/task_images/dig.jpg"",""time"":0.20000004768371582},{""stimulus"":""run_exp/static/images/task_images/land.jpg"",""time"":991.5},{""stimulus"":""run_exp/static/images/task_images/dig.jpg"",""time"":1975.2000000476837}]",[],6,,,,,,,,,,,,,,
harvest,215,600638,0.0-69.0-1.0,"""event"",""trial"",""time""
""fullscreenenter"",""1"",""4322""
","
","
","""event"",""trial"",""time""
""fullscreenenter"",""1"",""4322""
","
",,null,run_exp/static/images/task_images/gems/10.jpg,null,,,,,,,8,,,6,,,,,10,0.812345684,0.8,,,,,,,
decision,216,601081,0.0-69.0-2.0,"""event"",""trial"",""time""
""fullscreenenter"",""1"",""4322""
","
","
","""event"",""trial"",""time""
""fullscreenenter"",""1"",""4322""
","
",,441.9000001,run_exp/static/images/task_images/land.jpg,76,,,,,,,8,,,6,,,,,,,,266309,1,10,TRUE,,,
travel,217,610646,0.0-70.0-0.0,"""event"",""trial"",""time""
""fullscreenenter"",""1"",""4322""
","
","
","""event"",""trial"",""time""
""fullscreenenter"",""1"",""4322""
","
",,,,,,,,,,,,"[{""stimulus"":""run_exp/static/images/task_images/rocket-01.jpg"",""time"":0.20000004768371582},{""stimulus"":""run_exp/static/images/task_images/rocket-02.jpg"",""time"":1066.7000000476837},{""stimulus"":""run_exp/static/images/task_images/rocket-03.jpg"",""time"":2132.2999999523163},{""stimulus"":""run_exp/static/images/task_images/rocket-04.jpg"",""time"":3194.5999999046326},{""stimulus"":""run_exp/static/images/task_images/rocket-05.jpg"",""time"":4250.5},{""stimulus"":""run_exp/static/images/task_images/rocket-06.jpg"",""time"":5314.599999904633},{""stimulus"":""run_exp/static/images/task_images/rocket-07.jpg"",""time"":6377.700000047684},{""stimulus"":""run_exp/static/images/task_images/rocket-08.jpg"",""time"":7446.599999904633},{""stimulus"":""run_exp/static/images/task_images/rocket-09.jpg"",""time"":8502.5}]",[],6,,,,,,,,,,,,,,
alien_welcome,218,615653,0.0-70.0-1.0,"""event"",""trial"",""time""
""fullscreenenter"",""1"",""4322""
","
","
","""event"",""trial"",""time""
""fullscreenenter"",""1"",""4322""
","
",,null,run_exp/static/images/task_images/aliens/old_aliens/planet/alien_planet-72.jpg,null,,,,,,,,,,,,,72,"37,42,64,26,19,30,72,65,79,48,45,40,46,29,59,1,61,8,5,74,60,34,28,13,35,39,9",,,,,,,,,,
land,219,616157,0.0-70.0-2.0,"""event"",""trial"",""time""
""fullscreenenter"",""1"",""4322""
","
","
","""event"",""trial"",""time""
""fullscreenenter"",""1"",""4322""
","
",,null,run_exp/static/images/task_images/land.jpg,null,,,,,,,90,,,7,,,,,,,,,,,,,,
dig,220,618165,0.0-70.0-3.0,"""event"",""trial"",""time""
""fullscreenenter"",""1"",""4322""
","
","
","""event"",""trial"",""time""
""fullscreenenter"",""1"",""4322""
","
",,,,,,,,,,,,"[{""stimulus"":""run_exp/static/images/task_images/dig.jpg"",""time"":0.20000004768371582},{""stimulus"":""run_exp/static/images/task_images/land.jpg"",""time"":674},{""stimulus"":""run_exp/static/images/task_images/dig.jpg"",""time"":1335.4000000953674}]",[],7,,,,,,,,,,,,,,
harvest,221,619167,0.0-70.0-4.0,"""event"",""trial"",""time""
""fullscreenenter"",""1"",""4322""
","
","
","""event"",""trial"",""time""
""fullscreenenter"",""1"",""4322""
","
",,null,run_exp/static/images/task_images/gems/90.jpg,null,,,,,,,72,,,7,,,,,90,0.800067254,0.8,,,,,,,
decision,222,619296,0.0-70.0-5.0,"""event"",""trial"",""time""
""fullscreenenter"",""1"",""4322""
","
","
","""event"",""trial"",""time""
""fullscreenenter"",""1"",""4322""
","
",,128.3000002,run_exp/static/images/task_images/land.jpg,65,,,,,,,72,,,7,,,,,,,,284524,1,0,FALSE,,,
dig,223,622173,0.0-71.0-0.0,"""event"",""trial"",""time""
""fullscreenenter"",""1"",""4322""
","
","
","""event"",""trial"",""time""
""fullscreenenter"",""1"",""4322""
","
",,,,,,,,,,,,"[{""stimulus"":""run_exp/static/images/task_images/dig.jpg"",""time"":0.20000004768371582},{""stimulus"":""run_exp/static/images/task_images/land.jpg"",""time"":965.7000000476837},{""stimulus"":""run_exp/static/images/task_images/dig.jpg"",""time"":1915.0999999046326}]",[],7,,,,,,,,,,,,,,
harvest,224,623181,0.0-71.0-1.0,"""event"",""trial"",""time""
""fullscreenenter"",""1"",""4322""
","
","
","""event"",""trial"",""time""
""fullscreenenter"",""1"",""4322""
","
",,null,run_exp/static/images/task_images/gems/72.jpg,null,,,,,,,58,,,7,,,,,72,0.802996151,0.805555556,,,,,,,
decision,225,623209,0.0-71.0-2.0,"""event"",""trial"",""time""
""fullscreenenter"",""1"",""4322""
","
","
","""event"",""trial"",""time""
""fullscreenenter"",""1"",""4322""
","
",,27.30000019,run_exp/static/images/task_images/land.jpg,65,,,,,,,58,,,7,,,,,,,,288437,1,1,FALSE,,,
dig,226,626184,0.0-72.0-0.0,"""event"",""trial"",""time""
""fullscreenenter"",""1"",""4322""
","
","
","""event"",""trial"",""time""
""fullscreenenter"",""1"",""4322""
","
",,,,,,,,,,,,"[{""stimulus"":""run_exp/static/images/task_images/dig.jpg"",""time"":0.20000004768371582},{""stimulus"":""run_exp/static/images/task_images/land.jpg"",""time"":993.7000000476837},{""stimulus"":""run_exp/static/images/task_images/dig.jpg"",""time"":1985.4000000953674}]",[],7,,,,,,,,,,,,,,
harvest,227,627190,0.0-72.0-1.0,"""event"",""trial"",""time""
""fullscreenenter"",""1"",""4322""
","
","
","""event"",""trial"",""time""
""fullscreenenter"",""1"",""4322""
","
",,null,run_exp/static/images/task_images/gems/58.jpg,null,,,,,,,38,,,7,,,,,58,0.658342878,0.655172414,,,,,,,
decision,228,627284,0.0-72.0-2.0,"""event"",""trial"",""time""
""fullscreenenter"",""1"",""4322""
","
","
","""event"",""trial"",""time""
""fullscreenenter"",""1"",""4322""
","
",,93,run_exp/static/images/task_images/land.jpg,65,,,,,,,38,,,7,,,,,,,,292512,1,2,FALSE,,,
dig,229,630197,0.0-73.0-0.0,"""event"",""trial"",""time""
""fullscreenenter"",""1"",""4322""
","
","
","""event"",""trial"",""time""
""fullscreenenter"",""1"",""4322""
","
",,,,,,,,,,,,"[{""stimulus"":""run_exp/static/images/task_images/dig.jpg"",""time"":0.10000014305114746},{""stimulus"":""run_exp/static/images/task_images/land.jpg"",""time"":974.7000000476837},{""stimulus"":""run_exp/static/images/task_images/dig.jpg"",""time"":1943.8000001907349}]",[],7,,,,,,,,,,,,,,
harvest,230,631205,0.0-73.0-1.0,"""event"",""trial"",""time""
""fullscreenenter"",""1"",""4322""
","
","
","""event"",""trial"",""time""
""fullscreenenter"",""1"",""4322""
","
",,null,run_exp/static/images/task_images/gems/38.jpg,null,,,,,,,28,,,7,,,,,38,0.727045541,0.736842105,,,,,,,
decision,231,631401,0.0-73.0-2.0,"""event"",""trial"",""time""
""fullscreenenter"",""1"",""4322""
","
","
","""event"",""trial"",""time""
""fullscreenenter"",""1"",""4322""
","
",,194.2,run_exp/static/images/task_images/land.jpg,65,,,,,,,28,,,7,,,,,,,,296629,1,3,FALSE,,,
dig,232,634214,0.0-74.0-0.0,"""event"",""trial"",""time""
""fullscreenenter"",""1"",""4322""
","
","
","""event"",""trial"",""time""
""fullscreenenter"",""1"",""4322""
","
",,,,,,,,,,,,"[{""stimulus"":""run_exp/static/images/task_images/dig.jpg"",""time"":0.20000004768371582},{""stimulus"":""run_exp/static/images/task_images/land.jpg"",""time"":938.9000000953674},{""stimulus"":""run_exp/static/images/task_images/dig.jpg"",""time"":1874}]",[],7,,,,,,,,,,,,,,
harvest,233,635221,0.0-74.0-1.0,"""event"",""trial"",""time""
""fullscreenenter"",""1"",""4322""
","
","
","""event"",""trial"",""time""
""fullscreenenter"",""1"",""4322""
","
",,null,run_exp/static/images/task_images/gems/28.jpg,null,,,,,,,22,,,7,,,,,28,0.785084422,0.785714286,,,,,,,
decision,234,635371,0.0-74.0-2.0,"""event"",""trial"",""time""
""fullscreenenter"",""1"",""4322""
","
","
","""event"",""trial"",""time""
""fullscreenenter"",""1"",""4322""
","
",,148.4000001,run_exp/static/images/task_images/land.jpg,65,,,,,,,22,,,7,,,,,,,,300599,1,4,TRUE,,,
end_of_block_continue,235,644186,0.0-75.0-0.0,"""event"",""trial"",""time""
""fullscreenenter"",""1"",""4322""
","
","
","""event"",""trial"",""time""
""fullscreenenter"",""1"",""4322""
","
",,null,run_exp/static/audio/clip_32_block_end.m4a,,,,,,,null,,,,,,,,,,,,,,,,,,
alien_welcome,236,649198,0.0-76.0-0.0,"""event"",""trial"",""time""
""fullscreenenter"",""1"",""4322""
","
","
","""event"",""trial"",""time""
""fullscreenenter"",""1"",""4322""
","
",,null,run_exp/static/images/task_images/aliens/old_aliens/planet/alien_planet-65.jpg,null,,,,,,,,,,,,,65,"37,42,64,26,19,30,72,65,79,48,45,40,46,29,59,1,61,8,5,74,60,34,28,13,35,39,9",,,,,,,,,,
land,237,649701,0.0-76.0-1.0,"""event"",""trial"",""time""
""fullscreenenter"",""1"",""4322""
","
","
","""event"",""trial"",""time""
""fullscreenenter"",""1"",""4322""
","
",,null,run_exp/static/images/task_images/land.jpg,null,,,,,,,108,,,8,,,,,,,,,,,,,,
dig,238,651711,0.0-76.0-2.0,"""event"",""trial"",""time""
""fullscreenenter"",""1"",""4322""
","
","
","""event"",""trial"",""time""
""fullscreenenter"",""1"",""4322""
","
",,,,,,,,,,,,"[{""stimulus"":""run_exp/static/images/task_images/dig.jpg"",""time"":0.20000004768371582},{""stimulus"":""run_exp/static/images/task_images/land.jpg"",""time"":672.2999999523163},{""stimulus"":""run_exp/static/images/task_images/dig.jpg"",""time"":1336.5}]",[],8,,,,,,,,,,,,,,
harvest,239,652719,0.0-76.0-3.0,"""event"",""trial"",""time""
""fullscreenenter"",""1"",""4322""
","
","
","""event"",""trial"",""time""
""fullscreenenter"",""1"",""4322""
","
",,null,run_exp/static/images/task_images/gems/108.jpg,null,,,,,,,27,,,8,,,,,108,0.252027626,0.25,,,,,,,
decision,240,652779,0.0-76.0-4.0,"""event"",""trial"",""time""
""fullscreenenter"",""1"",""4322""
","
","
","""event"",""trial"",""time""
""fullscreenenter"",""1"",""4322""
","
",,59.39999986,run_exp/static/images/task_images/land.jpg,65,,,,,,,27,,,8,,,,,,,,8591,2,0,FALSE,,,
dig,241,655726,0.0-77.0-0.0,"""event"",""trial"",""time""
""fullscreenenter"",""1"",""4322""
","
","
","""event"",""trial"",""time""
""fullscreenenter"",""1"",""4322""
","
",,,,,,,,,,,,"[{""stimulus"":""run_exp/static/images/task_images/dig.jpg"",""time"":0.20000004768371582},{""stimulus"":""run_exp/static/images/task_images/land.jpg"",""time"":987.4000000953674},{""stimulus"":""run_exp/static/images/task_images/dig.jpg"",""time"":1968.1000001430511}]",[],8,,,,,,,,,,,,,,
harvest,242,656733,0.0-77.0-1.0,"""event"",""trial"",""time""
""fullscreenenter"",""1"",""4322""
","
","
","""event"",""trial"",""time""
""fullscreenenter"",""1"",""4322""
","
",,null,run_exp/static/images/task_images/gems/27.jpg,null,,,,,,,8,,,8,,,,,27,0.278356956,0.296296296,,,,,,,
decision,243,656914,0.0-77.0-2.0,"""event"",""trial"",""time""
""fullscreenenter"",""1"",""4322""
","
","
","""event"",""trial"",""time""
""fullscreenenter"",""1"",""4322""
","
",,178.8,run_exp/static/images/task_images/land.jpg,65,,,,,,,8,,,8,,,,,,,,12726,2,1,FALSE,,,
dig,244,659742,0.0-78.0-0.0,"""event"",""trial"",""time""
""fullscreenenter"",""1"",""4322""
","
","
","""event"",""trial"",""time""
""fullscreenenter"",""1"",""4322""
","
",,,,,,,,,,,,"[{""stimulus"":""run_exp/static/images/task_images/dig.jpg"",""time"":0.09999990463256836},{""stimulus"":""run_exp/static/images/task_images/land.jpg"",""time"":944.5},{""stimulus"":""run_exp/static/images/task_images/dig.jpg"",""time"":1888.7999999523163}]",[],8,,,,,,,,,,,,,,
harvest,245,660751,0.0-78.0-1.0,"""event"",""trial"",""time""
""fullscreenenter"",""1"",""4322""
","
","
","""event"",""trial"",""time""
""fullscreenenter"",""1"",""4322""
","
",,null,run_exp/static/images/task_images/gems/8.jpg,null,,,,,,,1,,,8,,,,,8,0.156776047,0.125,,,,,,,
decision,246,660822,0.0-78.0-2.0,"""event"",""trial"",""time""
""fullscreenenter"",""1"",""4322""
","
","
","""event"",""trial"",""time""
""fullscreenenter"",""1"",""4322""
","
",,69.5,run_exp/static/images/task_images/land.jpg,65,,,,,,,1,,,8,,,,,,,,16634,2,2,FALSE,,,
dig,247,663758,0.0-79.0-0.0,"""event"",""trial"",""time""
""fullscreenenter"",""1"",""4322""
","
","
","""event"",""trial"",""time""
""fullscreenenter"",""1"",""4322""
","
",,,,,,,,,,,,"[{""stimulus"":""run_exp/static/images/task_images/dig.jpg"",""time"":0.10000014305114746},{""stimulus"":""run_exp/static/images/task_images/land.jpg"",""time"":982.1000001430511},{""stimulus"":""run_exp/static/images/task_images/dig.jpg"",""time"":1960.7000000476837}]",[],8,,,,,,,,,,,,,,
harvest,248,664768,0.0-79.0-1.0,"""event"",""trial"",""time""
""fullscreenenter"",""1"",""4322""
","
","
","""event"",""trial"",""time""
""fullscreenenter"",""1"",""4322""
","
",,null,run_exp/static/images/task_images/gems/1.jpg,null,,,,,,,0,,,8,,,,,1,0.12994881,0,,,,,,,
decision,249,664788,0.0-79.0-2.0,"""event"",""trial"",""time""
""fullscreenenter"",""1"",""4322""
","
","
","""event"",""trial"",""time""
""fullscreenenter"",""1"",""4322""
","
",,18.5,run_exp/static/images/task_images/land.jpg,65,,,,,,,0,,,8,,,,,,,,20600,2,3,FALSE,,,
dig,250,667776,0.0-80.0-0.0,"""event"",""trial"",""time""
""fullscreenenter"",""1"",""4322""
","
","
","""event"",""trial"",""time""
""fullscreenenter"",""1"",""4322""
","
",,,,,,,,,,,,"[{""stimulus"":""run_exp/static/images/task_images/dig.jpg"",""time"":0.20000004768371582},{""stimulus"":""run_exp/static/images/task_images/land.jpg"",""time"":999.5},{""stimulus"":""run_exp/static/images/task_images/dig.jpg"",""time"":1991.9000000953674}]",[],8,,,,,,,,,,,,,,
harvest,251,668783,0.0-80.0-1.0,"""event"",""trial"",""time""
""fullscreenenter"",""1"",""4322""
","
","
","""event"",""trial"",""time""
""fullscreenenter"",""1"",""4322""
","
",,null,run_exp/static/images/task_images/gems/0.jpg,null,,,,,,,0,,,8,,,,,0,0.170850525,NaN,,,,,,,
decision,252,668850,0.0-80.0-2.0,"""event"",""trial"",""time""
""fullscreenenter"",""1"",""4322""
","
","
","""event"",""trial"",""time""
""fullscreenenter"",""1"",""4322""
","
",,65.79999995,run_exp/static/images/task_images/land.jpg,65,,,,,,,0,,,8,,,,,,,,24662,2,4,FALSE,,,
dig,253,671790,0.0-81.0-0.0,"""event"",""trial"",""time""
""fullscreenenter"",""1"",""4322""
","
","
","""event"",""trial"",""time""
""fullscreenenter"",""1"",""4322""
","
",,,,,,,,,,,,"[{""stimulus"":""run_exp/static/images/task_images/dig.jpg"",""time"":0.10000014305114746},{""stimulus"":""run_exp/static/images/task_images/land.jpg"",""time"":985.1000001430511},{""stimulus"":""run_exp/static/images/task_images/dig.jpg"",""time"":1962}]",[],8,,,,,,,,,,,,,,
harvest,254,672798,0.0-81.0-1.0,"""event"",""trial"",""time""
""fullscreenenter"",""1"",""4322""
","
","
","""event"",""trial"",""time""
""fullscreenenter"",""1"",""4322""
","
",,null,run_exp/static/images/task_images/gems/0.jpg,null,,,,,,,0,,,8,,,,,0,0.260664323,NaN,,,,,,,
decision,255,672805,0.0-81.0-2.0,"""event"",""trial"",""time""
""fullscreenenter"",""1"",""4322""
","
","
","""event"",""trial"",""time""
""fullscreenenter"",""1"",""4322""
","
",,5.800000191,run_exp/static/images/task_images/land.jpg,76,,,,,,,0,,,8,,,,,,,,28617,2,5,TRUE,,,
travel,256,682809,0.0-82.0-0.0,"""event"",""trial"",""time""
""fullscreenenter"",""1"",""4322""
","
","
","""event"",""trial"",""time""
""fullscreenenter"",""1"",""4322""
","
