trial_type,trial_index,time_elapsed,internal_node_id,interactions,blur_events,focus_events,fullscreenenter_events,fullscreenexit_events,success,rt,stimulus,key_press,prompt,subject_id,participant_id,age,gender,button_pressed,next_reward,animation_sequence,responses,planet,curr_prac_trial,n_prac_rounds,alien,aliens,reward_received,decay_rate_actual,decay_rate_exp,time_in_block,block_num,prt,last_trial_on_planet,button_html,bonus,num_failures
pavlovia,0,2,0.0-0.0,"""event"",""trial"",""time""
""fullscreenenter"",""1"",""16691""
","
","
","""event"",""trial"",""time""
""fullscreenenter"",""1"",""16691""
","
",,,,,,,,,,,,,,,,,,,,,,,,,,,,
fullscreen,1,17671,0.0-1.0,"""event"",""trial"",""time""
""fullscreenenter"",""1"",""16691""
","
","
","""event"",""trial"",""time""
""fullscreenenter"",""1"",""16691""
","
",TRUE,,,,,,,,,,,,,,,,,,,,,,,,,,,
instruc_welcome,2,27429,0.0-2.0,"""event"",""trial"",""time""
""fullscreenenter"",""1"",""16691""
","
","
","""event"",""trial"",""time""
""fullscreenenter"",""1"",""16691""
","
",,null,run_exp/static/audio/clip_1_welcome.m4a,null,"<p>Howdy! In this experiment, you’ll be an explorer traveling through space to collect space treasure.</p><p>Your mission is to collect as much treasure as possible.</p><br><br><p><img src='run_exp/static/images/task_images/opening_img-01.jpg' height='300' width='auto'></p>",7948,3910,18.57,Male,,,,,,,,,,,,,,,,,,,
audio-keyboard-response,3,44025,0.0-3.0,"""event"",""trial"",""time""
""fullscreenenter"",""1"",""16691""
""blur"",""4"",""179927""
""focus"",""4"",""923427""
","""event"",""trial"",""time""
""blur"",""4"",""179927""
","""event"",""trial"",""time""
""focus"",""4"",""923427""
","""event"",""trial"",""time""
""fullscreenenter"",""1"",""16691""
","
",,null,run_exp/static/audio/clip_2_move.m4a,null,,,,,,,,,,,,,,,,,,,,,,,,
welcome_dec,4,924499,0.0-4.0,"""event"",""trial"",""time""
""fullscreenenter"",""1"",""16691""
""blur"",""4"",""179927""
""focus"",""4"",""923427""
","""event"",""trial"",""time""
""blur"",""4"",""179927""
","""event"",""trial"",""time""
""focus"",""4"",""923427""
","""event"",""trial"",""time""
""fullscreenenter"",""1"",""16691""
","
",,240311.2,"<p>Howdy! In this experiment, you’ll be an explorer traveling through space to collect space treasure.</p><p>Your mission is to collect as much treasure as possible.</p><br><br><p><img src='run_exp/static/images/task_images/opening_img-01.jpg' height='300' width='auto'></p>",,,,,,,0,,,,,,,,,,,,,,,,,,
html-keyboard-response,5,930331,0.0-5.0,"""event"",""trial"",""time""
""fullscreenenter"",""1"",""16691""
""blur"",""4"",""179927""
""focus"",""4"",""923427""
","""event"",""trial"",""time""
""blur"",""4"",""179927""
","""event"",""trial"",""time""
""focus"",""4"",""923427""
","""event"",""trial"",""time""
""fullscreenenter"",""1"",""16691""
","
",,5826.5,"<p>Howdy! In this experiment, you’ll be an explorer traveling through space to collect space treasure.</p><p>Your mission is to collect as much treasure as possible.</p><br><br><p><img src='run_exp/static/images/task_images/opening_img-01.jpg' height='300' width='auto'></p><button class=""jspsych-html-btn-chosen""><img src=""run_exp/static/images/task_images/planet-01.jpg"" height=""50""></button><button class=""jspsych-html-btn-unchosen""><img src=""run_exp/static/images/task_images/planet-02.jpg"" height=""50""></button><p><b>[press the space bar to lock in your answer]<b><br></p>",32,,,,,,,,,,,,,,,,,,,,,,,,
instruc_welcome,6,940111,0.0-6.0-0.0,"""event"",""trial"",""time""
""fullscreenenter"",""1"",""16691""
""blur"",""4"",""179927""
""focus"",""4"",""923427""
","""event"",""trial"",""time""
""blur"",""4"",""179927""
","""event"",""trial"",""time""
""focus"",""4"",""923427""
","""event"",""trial"",""time""
""fullscreenenter"",""1"",""16691""
","
",,null,run_exp/static/audio/clip_1_welcome.m4a,null,"<p>Howdy! In this experiment, you’ll be an explorer traveling through space to collect space treasure.</p><p>Your mission is to collect as much treasure as possible.</p><br><br><p><img src='run_exp/static/images/task_images/opening_img-01.jpg' height='300' width='auto'></p>",7948,3910,18,Male,,,,,,,,,,,,,,,,,,,
audio-keyboard-response,7,956708,0.0-6.0-1.0,"""event"",""trial"",""time""
""fullscreenenter"",""1"",""16691""
""blur"",""4"",""179927""
""focus"",""4"",""923427""
","""event"",""trial"",""time""
""blur"",""4"",""179927""
","""event"",""trial"",""time""
""focus"",""4"",""923427""
","""event"",""trial"",""time""
""fullscreenenter"",""1"",""16691""
","
",,null,run_exp/static/audio/clip_2_move.m4a,null,,,,,,,,,,,,,,,,,,,,,,,,
welcome_dec,8,959847,0.0-6.0-2.0,"""event"",""trial"",""time""
""fullscreenenter"",""1"",""16691""
""blur"",""4"",""179927""
""focus"",""4"",""923427""
","""event"",""trial"",""time""
""blur"",""4"",""179927""
","""event"",""trial"",""time""
""focus"",""4"",""923427""
","""event"",""trial"",""time""
""fullscreenenter"",""1"",""16691""
","
",,3128.3,"<p>Howdy! In this experiment, you’ll be an explorer traveling through space to collect space treasure.</p><p>Your mission is to collect as much treasure as possible.</p><br><br><p><img src='run_exp/static/images/task_images/opening_img-01.jpg' height='300' width='auto'></p>",,,,,,,1,,,,,,,,,,,,,,,,,,
html-keyboard-response,9,960630,0.0-6.0-3.0,"""event"",""trial"",""time""
""fullscreenenter"",""1"",""16691""
""blur"",""4"",""179927""
""focus"",""4"",""923427""
","""event"",""trial"",""time""
""blur"",""4"",""179927""
","""event"",""trial"",""time""
""focus"",""4"",""923427""
","""event"",""trial"",""time""
""fullscreenenter"",""1"",""16691""
","
",,781.3000001,"<p>Howdy! In this experiment, you’ll be an explorer traveling through space to collect space treasure.</p><p>Your mission is to collect as much treasure as possible.</p><br><br><p><img src='run_exp/static/images/task_images/opening_img-01.jpg' height='300' width='auto'></p><button class=""jspsych-html-btn-unchosen""><img src=""run_exp/static/images/task_images/planet-01.jpg"" height=""50""></button><button class=""jspsych-html-btn-chosen""><img src=""run_exp/static/images/task_images/planet-02.jpg"" height=""50""></button><p><b>[press the space bar to lock in your answer]<b><br></p>",32,,,,,,,,,,,,,,,,,,,,,,,,
instruc_goal,10,970681,0.0-7.0-0.0,"""event"",""trial"",""time""
""fullscreenenter"",""1"",""16691""
""blur"",""4"",""179927""
""focus"",""4"",""923427""
","""event"",""trial"",""time""
""blur"",""4"",""179927""
","""event"",""trial"",""time""
""focus"",""4"",""923427""
","""event"",""trial"",""time""
""fullscreenenter"",""1"",""16691""
","
",,null,run_exp/static/audio/clip_3_goal.m4a,null,"<p> As a space explorer, you’ll visit different planets to dig for space treasure, these pink gems.</p> <p> The more treasure you dig up, the more bonus money you’ll win! </p><br><br><p><img src='run_exp/static/images/task_images/pink_gem.jpg' height='300' width='auto'></p>",,,,,,,,,,,,,,,,,,,,,,,
instruc_goal,11,974077,0.0-7.0-1.0,"""event"",""trial"",""time""
""fullscreenenter"",""1"",""16691""
""blur"",""4"",""179927""
""focus"",""4"",""923427""
","""event"",""trial"",""time""
""blur"",""4"",""179927""
","""event"",""trial"",""time""
""focus"",""4"",""923427""
","""event"",""trial"",""time""
""fullscreenenter"",""1"",""16691""
","
",,3392.3,"<p> As a space explorer, you’ll visit different planets to dig for space treasure, these pink gems.</p> <p> The more treasure you dig up, the more bonus money you’ll win! </p><br><br><p><img src='run_exp/static/images/task_images/pink_gem.jpg' height='300' width='auto'></p>",,,,,,,1,,,,,,,,,,,,,,,,,,
html-keyboard-response,12,974517,0.0-7.0-2.0,"""event"",""trial"",""time""
""fullscreenenter"",""1"",""16691""
""blur"",""4"",""179927""
""focus"",""4"",""923427""
","""event"",""trial"",""time""
""blur"",""4"",""179927""
","""event"",""trial"",""time""
""focus"",""4"",""923427""
","""event"",""trial"",""time""
""fullscreenenter"",""1"",""16691""
","
",,437.6999999,"<p> As a space explorer, you’ll visit different planets to dig for space treasure, these pink gems.</p> <p> The more treasure you dig up, the more bonus money you’ll win! </p><br><br><p><img src='run_exp/static/images/task_images/pink_gem.jpg' height='300' width='auto'></p><button class=""jspsych-html-btn-unchosen""><img src=""run_exp/static/images/task_images/planet-01.jpg"" height=""50""></button><button class=""jspsych-html-btn-chosen""><img src=""run_exp/static/images/task_images/planet-02.jpg"" height=""50""></button><p><b>[press the space bar to lock in your answer]<b><br></p>",32,,,,,,,,,,,,,,,,,,,,,,,,
instruc_dig,13,990522,0.0-8.0-0.0,"""event"",""trial"",""time""
""fullscreenenter"",""1"",""16691""
""blur"",""4"",""179927""
""focus"",""4"",""923427""
","""event"",""trial"",""time""
""blur"",""4"",""179927""
","""event"",""trial"",""time""
""focus"",""4"",""923427""
","""event"",""trial"",""time""
""fullscreenenter"",""1"",""16691""
","
",,null,run_exp/static/audio/clip_4_dig.m4a,null,,,,,,,100,,,,,,,,,,,,,,,,,
instruc_dig_try,14,995065,0.0-8.0-1.0,"""event"",""trial"",""time""
""fullscreenenter"",""1"",""16691""
""blur"",""4"",""179927""
""focus"",""4"",""923427""
","""event"",""trial"",""time""
""blur"",""4"",""179927""
","""event"",""trial"",""time""
""focus"",""4"",""923427""
","""event"",""trial"",""time""
""fullscreenenter"",""1"",""16691""
","
",,4539.7,"<p> When you’ve arrived at a new planet, you will dig once. </p> <p>Then, you get to decide if you want to stay on the planet and dig again or travel to a new planet and dig there.</p> <p> To stay and dig, press the letter <strong>‘A’</strong> on your keyboard. Try pressing it now! </p><p><img src='run_exp/static/images/task_images/land.jpg'  height='700' width='auto'></p>",65,"<p> When you’ve arrived at a new planet, you will dig once. </p> <p>Then, you get to decide if you want to stay on the planet and dig again or travel to a new planet and dig there.</p> <p> To stay and dig, press the letter <strong>‘A’</strong> on your keyboard. Try pressing it now! </p><p><img src='run_exp/static/images/task_images/land.jpg'  height='700' width='auto'></p>",,,,,,100,,,,,,,,,,,,,,,,,
dig_prac,15,997087,0.0-8.0-2.0,"""event"",""trial"",""time""
""fullscreenenter"",""1"",""16691""
""blur"",""4"",""179927""
""focus"",""4"",""923427""
","""event"",""trial"",""time""
""blur"",""4"",""179927""
","""event"",""trial"",""time""
""focus"",""4"",""923427""
","""event"",""trial"",""time""
""fullscreenenter"",""1"",""16691""
","
",,,,,,,,,,,,"[{""stimulus"":""run_exp/static/images/task_images/dig.jpg"",""time"":0.2999999523162842},{""stimulus"":""run_exp/static/images/task_images/land.jpg"",""time"":674.2999999523163},{""stimulus"":""run_exp/static/images/task_images/dig.jpg"",""time"":1345.7999999523163}]",[],,,,,,,,,,,,,,,
instruc_travel,16,1033316,0.0-8.0-3.0,"""event"",""trial"",""time""
""fullscreenenter"",""1"",""16691""
""blur"",""4"",""179927""
""focus"",""4"",""923427""
","""event"",""trial"",""time""
""blur"",""4"",""179927""
","""event"",""trial"",""time""
""focus"",""4"",""923427""
","""event"",""trial"",""time""
""fullscreenenter"",""1"",""16691""
","
",,null,run_exp/static/audio/clip_5_travel.m4a,null,"<p>Every time you dig up gems, there are less gems on the planet, so the more you dig on a planet the fewer gems you’ll get with each dig.</p><p>When gems are running low, you may want to travel to a new planet. </p> <p>  Planets are very far apart in this galaxy, so it will take some time to travel between them. </p> <br><p>There are lots and lots of planets for you to visit, so you won’t be able to return to any planets you’ve seen before. </p><br><p>To leave this planet and travel to a new one, press the letter <strong>‘L’</strong> on your keyboard. Try pressing it now! </p><p><img src='run_exp/static/images/task_images/rocket-01.jpg'  height='600' width='auto'></p>",,,,,,,,,,,,,,,,,,,,,,,
instruc_travel_try,17,1037300,0.0-8.0-4.0,"""event"",""trial"",""time""
""fullscreenenter"",""1"",""16691""
""blur"",""4"",""179927""
""focus"",""4"",""923427""
","""event"",""trial"",""time""
""blur"",""4"",""179927""
","""event"",""trial"",""time""
""focus"",""4"",""923427""
","""event"",""trial"",""time""
""fullscreenenter"",""1"",""16691""
","
",,3981.3,"<p>Every time you dig up gems, there are less gems on the planet, so the more you dig on a planet the fewer gems you’ll get with each dig.</p><p>When gems are running low, you may want to travel to a new planet. </p> <p>  Planets are very far apart in this galaxy, so it will take some time to travel between them. </p> <br><p>There are lots and lots of planets for you to visit, so you won’t be able to return to any planets you’ve seen before. </p><br><p>To leave this planet and travel to a new one, press the letter <strong>‘L’</strong> on your keyboard. Try pressing it now! </p><p><img src='run_exp/static/images/task_images/rocket-01.jpg'  height='600' width='auto'></p>",76,"<p>Every time you dig up gems, there are less gems on the planet, so the more you dig on a planet the fewer gems you’ll get with each dig.</p><p>When gems are running low, you may want to travel to a new planet. </p> <p>  Planets are very far apart in this galaxy, so it will take some time to travel between them. </p> <br><p>There are lots and lots of planets for you to visit, so you won’t be able to return to any planets you’ve seen before. </p><br><p>To leave this planet and travel to a new one, press the letter <strong>‘L’</strong> on your keyboard. Try pressing it now! </p><p><img src='run_exp/static/images/task_images/rocket-01.jpg'  height='600' width='auto'></p>",,,,,,,,,,,,,,,,,,,,,,,
travel_prac,18,1047312,0.0-8.0-5.0,"""event"",""trial"",""time""
""fullscreenenter"",""1"",""16691""
""blur"",""4"",""179927""
""focus"",""4"",""923427""
","""event"",""trial"",""time""
""blur"",""4"",""179927""
","""event"",""trial"",""time""
""focus"",""4"",""923427""
","""event"",""trial"",""time""
""fullscreenenter"",""1"",""16691""
","
",,,,,,,,,,,,"[{""stimulus"":""run_exp/static/images/task_images/rocket-01.jpg"",""time"":0.3999999761581421},{""stimulus"":""run_exp/static/images/task_images/rocket-02.jpg"",""time"":1122.2000000476837},{""stimulus"":""run_exp/static/images/task_images/rocket-03.jpg"",""time"":2234.399999976158},{""stimulus"":""run_exp/static/images/task_images/rocket-04.jpg"",""time"":3345.100000023842},{""stimulus"":""run_exp/static/images/task_images/rocket-05.jpg"",""time"":4454.399999976158},{""stimulus"":""run_exp/static/images/task_images/rocket-06.jpg"",""time"":5559.399999976158},{""stimulus"":""run_exp/static/images/task_images/rocket-07.jpg"",""time"":6673.200000047684},{""stimulus"":""run_exp/static/images/task_images/rocket-08.jpg"",""time"":7783.600000023842},{""stimulus"":""run_exp/static/images/task_images/rocket-09.jpg"",""time"":8898.200000047684}]",[],0,,,,,,,,,,,,,,
instruc_alien_greet,19,1074489,0.0-8.0-6.0,"""event"",""trial"",""time""
""fullscreenenter"",""1"",""16691""
""blur"",""4"",""179927""
""focus"",""4"",""923427""
","""event"",""trial"",""time""
""blur"",""4"",""179927""
","""event"",""trial"",""time""
""focus"",""4"",""923427""
","""event"",""trial"",""time""
""fullscreenenter"",""1"",""16691""
","
",,null,run_exp/static/audio/clip_6_alien.m4a,null,"<p>When you arrive at a new planet, the alien who owns the treasure mine on that planet will greet you!</p><p>The better an alien takes care of their mine the easier it is to dig for gems. Some aliens take better care of their mine than others. So, you won’t get exactly the same amount of gems on each planet.</p><p>What the alien looks like does not tell you anything about how many gems there are on the planet.</p><br><p><img src=""run_exp/static/images/task_images/aliens/instructions_aliens/planet/alien_planet-1.jpg""  height=""600"" width=""auto""></p>",,,,,,,,,,,,,,,,,,,,,,,
instruc_alien_greet,20,1083721,0.0-8.0-7.0,"""event"",""trial"",""time""
""fullscreenenter"",""1"",""16691""
""blur"",""4"",""179927""
""focus"",""4"",""923427""
","""event"",""trial"",""time""
""blur"",""4"",""179927""
","""event"",""trial"",""time""
""focus"",""4"",""923427""
","""event"",""trial"",""time""
""fullscreenenter"",""1"",""16691""
","
",,9228.9,"<p>When you arrive at a new planet, the alien who owns the treasure mine on that planet will greet you!</p><p>The better an alien takes care of their mine the easier it is to dig for gems. Some aliens take better care of their mine than others. So, you won’t get exactly the same amount of gems on each planet.</p><p>What the alien looks like does not tell you anything about how many gems there are on the planet.</p><br><p><img src=""run_exp/static/images/task_images/aliens/instructions_aliens/planet/alien_planet-1.jpg""  height=""600"" width=""auto""></p>",,,,,,,1,,,,,,,,,,,,,,,,,,
html-keyboard-response,21,1084538,0.0-8.0-8.0,"""event"",""trial"",""time""
""fullscreenenter"",""1"",""16691""
""blur"",""4"",""179927""
""focus"",""4"",""923427""
","""event"",""trial"",""time""
""blur"",""4"",""179927""
","""event"",""trial"",""time""
""focus"",""4"",""923427""
","""event"",""trial"",""time""
""fullscreenenter"",""1"",""16691""
","
",,815.1,"<p>When you arrive at a new planet, the alien who owns the treasure mine on that planet will greet you!</p><p>The better an alien takes care of their mine the easier it is to dig for gems. Some aliens take better care of their mine than others. So, you won’t get exactly the same amount of gems on each planet.</p><p>What the alien looks like does not tell you anything about how many gems there are on the planet.</p><br><p><img src=""run_exp/static/images/task_images/aliens/instructions_aliens/planet/alien_planet-1.jpg""  height=""600"" width=""auto""></p><button class=""jspsych-html-btn-unchosen""><img src=""run_exp/static/images/task_images/planet-01.jpg"" height=""50""></button><button class=""jspsych-html-btn-chosen""><img src=""run_exp/static/images/task_images/planet-02.jpg"" height=""50""></button><p><b>[press the space bar to lock in your answer]<b><br></p>",32,,,,,,,,,,,,,,,,,,,,,,,,
time_out,22,1095599,0.0-9.0-0.0,"""event"",""trial"",""time""
""fullscreenenter"",""1"",""16691""
""blur"",""4"",""179927""
""focus"",""4"",""923427""
","""event"",""trial"",""time""
""blur"",""4"",""179927""
","""event"",""trial"",""time""
""focus"",""4"",""923427""
","""event"",""trial"",""time""
""fullscreenenter"",""1"",""16691""
","
",,null,run_exp/static/audio/clip_7_timeout.m4a,null,"<p>If you don't make your choice fast enough, you’ll have to wait a few seconds before you can make another one.</p><p>You can’t dig for more gems or travel to new planets. You just have to sit and wait.</p><br><p><img src='run_exp/static/images/task_images/time_out.jpg'  height='600' width='auto'></p>",,,,,,,,,,,,,,,,,,,,,,,
time_out,23,1098258,0.0-9.0-1.0,"""event"",""trial"",""time""
""fullscreenenter"",""1"",""16691""
""blur"",""4"",""179927""
""focus"",""4"",""923427""
","""event"",""trial"",""time""
""blur"",""4"",""179927""
","""event"",""trial"",""time""
""focus"",""4"",""923427""
","""event"",""trial"",""time""
""fullscreenenter"",""1"",""16691""
","
",,2656,"<p>If you don't make your choice fast enough, you’ll have to wait a few seconds before you can make another one.</p><p>You can’t dig for more gems or travel to new planets. You just have to sit and wait.</p><br><p><img src='run_exp/static/images/task_images/time_out.jpg'  height='600' width='auto'></p>",,,,,,,1,,,,,,,,,,,,,,,,,,
html-keyboard-response,24,1099021,0.0-9.0-2.0,"""event"",""trial"",""time""
""fullscreenenter"",""1"",""16691""
""blur"",""4"",""179927""
""focus"",""4"",""923427""
","""event"",""trial"",""time""
""blur"",""4"",""179927""
","""event"",""trial"",""time""
""focus"",""4"",""923427""
","""event"",""trial"",""time""
""fullscreenenter"",""1"",""16691""
","
",,760.8,"<p>If you don't make your choice fast enough, you’ll have to wait a few seconds before you can make another one.</p><p>You can’t dig for more gems or travel to new planets. You just have to sit and wait.</p><br><p><img src='run_exp/static/images/task_images/time_out.jpg'  height='600' width='auto'></p><button class=""jspsych-html-btn-unchosen""><img src=""run_exp/static/images/task_images/planet-01.jpg"" height=""50""></button><button class=""jspsych-html-btn-chosen""><img src=""run_exp/static/images/task_images/planet-02.jpg"" height=""50""></button><p><b>[press the space bar to lock in your answer]<b><br></p>",32,,,,,,,,,,,,,,,,,,,,,,,,
instruc_break,25,1114692,0.0-10.0-0.0,"""event"",""trial"",""time""
""fullscreenenter"",""1"",""16691""
""blur"",""4"",""179927""
""focus"",""4"",""923427""
","""event"",""trial"",""time""
""blur"",""4"",""179927""
","""event"",""trial"",""time""
""focus"",""4"",""923427""
","""event"",""trial"",""time""
""fullscreenenter"",""1"",""16691""
","
",,null,run_exp/static/audio/clip_8_break.m4a,null,"<p> After digging and traveling for a while, you’ll be able to take a break at home base. </p><p>The game will last 20 minutes no matter what.</p><p>You will visit home base every 5 minutes, so, you will visit home base three times during the game.</p><br><p><img src='run_exp/static/images/task_images/home_base.jpg' height='600' width='auto'></p>",,,,,,,,,,,,,,,,,,,,,,,
instruc_break,26,1116229,0.0-10.0-1.0,"""event"",""trial"",""time""
""fullscreenenter"",""1"",""16691""
""blur"",""4"",""179927""
""focus"",""4"",""923427""
","""event"",""trial"",""time""
""blur"",""4"",""179927""
","""event"",""trial"",""time""
""focus"",""4"",""923427""
","""event"",""trial"",""time""
""fullscreenenter"",""1"",""16691""
","
",,1534.3,"<p> After digging and traveling for a while, you’ll be able to take a break at home base. </p><p>The game will last 20 minutes no matter what.</p><p>You will visit home base every 5 minutes, so, you will visit home base three times during the game.</p><br><p><img src='run_exp/static/images/task_images/home_base.jpg' height='600' width='auto'></p>",,,,,,,1,,,,,,,,,,,,,,,,,,
html-keyboard-response,27,1116588,0.0-10.0-2.0,"""event"",""trial"",""time""
""fullscreenenter"",""1"",""16691""
""blur"",""4"",""179927""
""focus"",""4"",""923427""
","""event"",""trial"",""time""
""blur"",""4"",""179927""
","""event"",""trial"",""time""
""focus"",""4"",""923427""
","""event"",""trial"",""time""
""fullscreenenter"",""1"",""16691""
","
",,357.1,"<p> After digging and traveling for a while, you’ll be able to take a break at home base. </p><p>The game will last 20 minutes no matter what.</p><p>You will visit home base every 5 minutes, so, you will visit home base three times during the game.</p><br><p><img src='run_exp/static/images/task_images/home_base.jpg' height='600' width='auto'></p><button class=""jspsych-html-btn-unchosen""><img src=""run_exp/static/images/task_images/planet-01.jpg"" height=""50""></button><button class=""jspsych-html-btn-chosen""><img src=""run_exp/static/images/task_images/planet-02.jpg"" height=""50""></button><p><b>[press the space bar to lock in your answer]<b><br></p>",32,,,,,,,,,,,,,,,,,,,,,,,,
instruc_prac_game,28,1126703,0.0-11.0-0.0,"""event"",""trial"",""time""
""fullscreenenter"",""1"",""16691""
""blur"",""4"",""179927""
""focus"",""4"",""923427""
","""event"",""trial"",""time""
""blur"",""4"",""179927""
","""event"",""trial"",""time""
""focus"",""4"",""923427""
","""event"",""trial"",""time""
""fullscreenenter"",""1"",""16691""
","
",,null,run_exp/static/audio/clip_9_practice.m4a,null,"<p> Are you ready to play a practice game? </p> <p>In this practice game, you'll be digging up barrels of gems. But, in the real game, you'll be digging up the gems themselves. </p>",,,,,,,,,,,,,,,,,,,,,,,
html-button-response,29,1131672,0.0-11.0-1.0,"""event"",""trial"",""time""
""fullscreenenter"",""1"",""16691""
""blur"",""4"",""179927""
""focus"",""4"",""923427""
","""event"",""trial"",""time""
""blur"",""4"",""179927""
","""event"",""trial"",""time""
""focus"",""4"",""923427""
","""event"",""trial"",""time""
""fullscreenenter"",""1"",""16691""
","
",,4967.2,"<p> Are you ready to play a practice game? </p> <p>In this practice game, you'll be digging up barrels of gems. But, in the real game, you'll be digging up the gems themselves. </p>",,,,,,,0,,,,,,,,,,,,,,,,,,
alien_welcome_prac,30,1136687,0.0-12.0-0.0,"""event"",""trial"",""time""
""fullscreenenter"",""1"",""16691""
""blur"",""4"",""179927""
""focus"",""4"",""923427""
","""event"",""trial"",""time""
""blur"",""4"",""179927""
","""event"",""trial"",""time""
""focus"",""4"",""923427""
","""event"",""trial"",""time""
""fullscreenenter"",""1"",""16691""
","
",,null,run_exp/static/images/task_images/aliens/practice_aliens/planet/alien_planet-5.jpg,null,,,,,,,,,,,,,,,,,,,,,,,,
land_prac,31,1137197,0.0-12.0-1.0,"""event"",""trial"",""time""
""fullscreenenter"",""1"",""16691""
""blur"",""4"",""179927""
""focus"",""4"",""923427""
","""event"",""trial"",""time""
""blur"",""4"",""179927""
","""event"",""trial"",""time""
""focus"",""4"",""923427""
","""event"",""trial"",""time""
""fullscreenenter"",""1"",""16691""
","
",,null,run_exp/static/images/task_images/land.jpg,null,,,,,,,104,,,0,,,,,,,,,,,,,,
dig_prac,32,1139208,0.0-12.0-2.0,"""event"",""trial"",""time""
""fullscreenenter"",""1"",""16691""
""blur"",""4"",""179927""
""focus"",""4"",""923427""
","""event"",""trial"",""time""
""blur"",""4"",""179927""
","""event"",""trial"",""time""
""focus"",""4"",""923427""
","""event"",""trial"",""time""
""fullscreenenter"",""1"",""16691""
","
",,,,,,,,,,,,"[{""stimulus"":""run_exp/static/images/task_images/dig.jpg"",""time"":0.3999999761581421},{""stimulus"":""run_exp/static/images/task_images/land.jpg"",""time"":680.1999999284744},{""stimulus"":""run_exp/static/images/task_images/dig.jpg"",""time"":1341.2999999523163}]",[],,,,,,,,,,,,,,,
harvest_prac,33,1140218,0.0-12.0-3.0,"""event"",""trial"",""time""
""fullscreenenter"",""1"",""16691""
""blur"",""4"",""179927""
""focus"",""4"",""923427""
","""event"",""trial"",""time""
""blur"",""4"",""179927""
","""event"",""trial"",""time""
""focus"",""4"",""923427""
","""event"",""trial"",""time""
""fullscreenenter"",""1"",""16691""
","
",,null,run_exp/static/images/task_images/barrel_text.jpg,null,,,,,,,,,,,,,,,,,,,,,,,,
decision_prac,34,1142938,0.0-12.0-4.0,"""event"",""trial"",""time""
""fullscreenenter"",""1"",""16691""
""blur"",""4"",""179927""
""focus"",""4"",""923427""
","""event"",""trial"",""time""
""blur"",""4"",""179927""
","""event"",""trial"",""time""
""focus"",""4"",""923427""
","""event"",""trial"",""time""
""fullscreenenter"",""1"",""16691""
","
",,2718.2,run_exp/static/images/task_images/land.jpg,65,,,,,,,,,,,1,,,,,,,,,,,,,
dig_prac,35,1144952,0.0-13.0-0.0,"""event"",""trial"",""time""
""fullscreenenter"",""1"",""16691""
""blur"",""4"",""179927""
""focus"",""4"",""923427""
","""event"",""trial"",""time""
""blur"",""4"",""179927""
","""event"",""trial"",""time""
""focus"",""4"",""923427""
","""event"",""trial"",""time""
""fullscreenenter"",""1"",""16691""
","
",,,,,,,,,,,,"[{""stimulus"":""run_exp/static/images/task_images/dig.jpg"",""time"":0.19999992847442627},{""stimulus"":""run_exp/static/images/task_images/land.jpg"",""time"":671.7999999523163},{""stimulus"":""run_exp/static/images/task_images/dig.jpg"",""time"":1338.3999999761581}]",[],,,,,,,,,,,,,,,
harvest_prac,36,1145960,0.0-13.0-1.0,"""event"",""trial"",""time""
""fullscreenenter"",""1"",""16691""
""blur"",""4"",""179927""
""focus"",""4"",""923427""
","""event"",""trial"",""time""
""blur"",""4"",""179927""
","""event"",""trial"",""time""
""focus"",""4"",""923427""
","""event"",""trial"",""time""
""fullscreenenter"",""1"",""16691""
","
",,null,run_exp/static/images/task_images/barrel_text.jpg,null,,,,,,,,,,,,,,,,,,,,,,,,
decision_prac,37,1147677,0.0-13.0-2.0,"""event"",""trial"",""time""
""fullscreenenter"",""1"",""16691""
""blur"",""4"",""179927""
""focus"",""4"",""923427""
","""event"",""trial"",""time""
""blur"",""4"",""179927""
","""event"",""trial"",""time""
""focus"",""4"",""923427""
","""event"",""trial"",""time""
""fullscreenenter"",""1"",""16691""
","
",,1714.7,run_exp/static/images/task_images/land.jpg,65,,,,,,,,,,,2,,,,,,,,,,,,,
dig_prac,38,1149687,0.0-14.0-0.0,"""event"",""trial"",""time""
""fullscreenenter"",""1"",""16691""
""blur"",""4"",""179927""
""focus"",""4"",""923427""
","""event"",""trial"",""time""
""blur"",""4"",""179927""
","""event"",""trial"",""time""
""focus"",""4"",""923427""
","""event"",""trial"",""time""
""fullscreenenter"",""1"",""16691""
","
",,,,,,,,,,,,"[{""stimulus"":""run_exp/static/images/task_images/dig.jpg"",""time"":0.10000002384185791},{""stimulus"":""run_exp/static/images/task_images/land.jpg"",""time"":679.5},{""stimulus"":""run_exp/static/images/task_images/dig.jpg"",""time"":1335.3999999761581}]",[],,,,,,,,,,,,,,,
harvest_prac,39,1150696,0.0-14.0-1.0,"""event"",""trial"",""time""
""fullscreenenter"",""1"",""16691""
""blur"",""4"",""179927""
""focus"",""4"",""923427""
","""event"",""trial"",""time""
""blur"",""4"",""179927""
","""event"",""trial"",""time""
""focus"",""4"",""923427""
","""event"",""trial"",""time""
""fullscreenenter"",""1"",""16691""
","
",,null,run_exp/static/images/task_images/barrel_text.jpg,null,,,,,,,,,,,,,,,,,,,,,,,,
decision_prac,40,1151648,0.0-14.0-2.0,"""event"",""trial"",""time""
""fullscreenenter"",""1"",""16691""
""blur"",""4"",""179927""
""focus"",""4"",""923427""
","""event"",""trial"",""time""
""blur"",""4"",""179927""
","""event"",""trial"",""time""
""focus"",""4"",""923427""
","""event"",""trial"",""time""
""fullscreenenter"",""1"",""16691""
","
",,950.3,run_exp/static/images/task_images/land.jpg,65,,,,,,,,,,,3,,,,,,,,,,,,,
dig_prac,41,1153661,0.0-15.0-0.0,"""event"",""trial"",""time""
""fullscreenenter"",""1"",""16691""
""blur"",""4"",""179927""
""focus"",""4"",""923427""
","""event"",""trial"",""time""
""blur"",""4"",""179927""
","""event"",""trial"",""time""
""focus"",""4"",""923427""
","""event"",""trial"",""time""
""fullscreenenter"",""1"",""16691""
","
",,,,,,,,,,,,"[{""stimulus"":""run_exp/static/images/task_images/dig.jpg"",""time"":0.19999992847442627},{""stimulus"":""run_exp/static/images/task_images/land.jpg"",""time"":674.7999999523163},{""stimulus"":""run_exp/static/images/task_images/dig.jpg"",""time"":1344.0999999046326}]",[],,,,,,,,,,,,,,,
harvest_prac,42,1154672,0.0-15.0-1.0,"""event"",""trial"",""time""
""fullscreenenter"",""1"",""16691""
""blur"",""4"",""179927""
""focus"",""4"",""923427""
","""event"",""trial"",""time""
""blur"",""4"",""179927""
","""event"",""trial"",""time""
""focus"",""4"",""923427""
","""event"",""trial"",""time""
""fullscreenenter"",""1"",""16691""
","
",,null,run_exp/static/images/task_images/barrel_text.jpg,null,,,,,,,,,,,,,,,,,,,,,,,,
decision_prac,43,1155602,0.0-15.0-2.0,"""event"",""trial"",""time""
""fullscreenenter"",""1"",""16691""
""blur"",""4"",""179927""
""focus"",""4"",""923427""
","""event"",""trial"",""time""
""blur"",""4"",""179927""
","""event"",""trial"",""time""
""focus"",""4"",""923427""
","""event"",""trial"",""time""
""fullscreenenter"",""1"",""16691""
","
",,928,run_exp/static/images/task_images/land.jpg,65,,,,,,,,,,,4,,,,,,,,,,,,,
dig_prac,44,1157613,0.0-16.0-0.0,"""event"",""trial"",""time""
""fullscreenenter"",""1"",""16691""
""blur"",""4"",""179927""
""focus"",""4"",""923427""
","""event"",""trial"",""time""
""blur"",""4"",""179927""
","""event"",""trial"",""time""
""focus"",""4"",""923427""
","""event"",""trial"",""time""
""fullscreenenter"",""1"",""16691""
","
",,,,,,,,,,,,"[{""stimulus"":""run_exp/static/images/task_images/dig.jpg"",""time"":0.20000004768371582},{""stimulus"":""run_exp/static/images/task_images/land.jpg"",""time"":674},{""stimulus"":""run_exp/static/images/task_images/dig.jpg"",""time"":1342.2999999523163}]",[],,,,,,,,,,,,,,,
harvest_prac,45,1158624,0.0-16.0-1.0,"""event"",""trial"",""time""
""fullscreenenter"",""1"",""16691""
""blur"",""4"",""179927""
""focus"",""4"",""923427""
","""event"",""trial"",""time""
""blur"",""4"",""179927""
","""event"",""trial"",""time""
""focus"",""4"",""923427""
","""event"",""trial"",""time""
""fullscreenenter"",""1"",""16691""
","
",,null,run_exp/static/images/task_images/barrel_text.jpg,null,,,,,,,,,,,,,,,,,,,,,,,,
decision_prac,46,1159485,0.0-16.0-2.0,"""event"",""trial"",""time""
""fullscreenenter"",""1"",""16691""
""blur"",""4"",""179927""
""focus"",""4"",""923427""
","""event"",""trial"",""time""
""blur"",""4"",""179927""
","""event"",""trial"",""time""
""focus"",""4"",""923427""
","""event"",""trial"",""time""
""fullscreenenter"",""1"",""16691""
","
",,859.7,run_exp/static/images/task_images/land.jpg,65,,,,,,,,,,,,1,,,,,,,,,,,,
quiz_instruc,47,1162816,0.0-17.0-0.0,"""event"",""trial"",""time""
""fullscreenenter"",""1"",""16691""
""blur"",""4"",""179927""
""focus"",""4"",""923427""
","""event"",""trial"",""time""
""blur"",""4"",""179927""
","""event"",""trial"",""time""
""focus"",""4"",""923427""
","""event"",""trial"",""time""
""fullscreenenter"",""1"",""16691""
","
",,3326.2,run_exp/static/audio/clip_10_quiz.m4a,,,,,,,0,,,,,,,,,,,,,,,,,,
instruc_repeat,48,1205556,0.0-17.0-1.0,"""event"",""trial"",""time""
""fullscreenenter"",""1"",""16691""
""blur"",""4"",""179927""
""focus"",""4"",""923427""
","""event"",""trial"",""time""
""blur"",""4"",""179927""
","""event"",""trial"",""time""
""focus"",""4"",""923427""
","""event"",""trial"",""time""
""fullscreenenter"",""1"",""16691""
","
",,null,"<p> Are you ready to play a practice game? </p> <p>In this practice game, you'll be digging up barrels of gems. But, in the real game, you'll be digging up the gems themselves. </p>",null,"<p>In this game, your goal is to collect as many gems as you can. That’s how you will win bonus money. </p> <p>The entire game will last 20 minutes no matter how many gems you collect or how many planets you visit. </p><p>To stay on a planet and dig again, press the letter A on your keyboard. To leave for a new planet, press the letter L.</p><p>The more you dig on a planet, the fewer gems you’ll get with each dig which is why you might consider leaving for a new planet. </p><p>When you arrive at a new planet, you’ll be greeted by an alien. What the alien looks like does not tell you anything about how much treasure is on the planet. </p>",,,,,,,,,,,,,,,,,,,,,,,
instruc_repeat_continue,49,1207901,0.0-17.0-2.0,"""event"",""trial"",""time""
""fullscreenenter"",""1"",""16691""
""blur"",""4"",""179927""
""focus"",""4"",""923427""
","""event"",""trial"",""time""
""blur"",""4"",""179927""
","""event"",""trial"",""time""
""focus"",""4"",""923427""
","""event"",""trial"",""time""
""fullscreenenter"",""1"",""16691""
","
",,2341.7,"<p> Are you ready to play a practice game? </p> <p>In this practice game, you'll be digging up barrels of gems. But, in the real game, you'll be digging up the gems themselves. </p>",,,,,,,0,,,,,,,,,,,,,,,,,,
quiz_q_1_ask,50,1211575,0.0-17.0-3.0,"""event"",""trial"",""time""
""fullscreenenter"",""1"",""16691""
""blur"",""4"",""179927""
""focus"",""4"",""923427""
","""event"",""trial"",""time""
""blur"",""4"",""179927""
","""event"",""trial"",""time""
""focus"",""4"",""923427""
","""event"",""trial"",""time""
""fullscreenenter"",""1"",""16691""
","
",,3671,run_exp/static/audio/clip_11_q1_ask.m4a,,,,,,,2,,,,,,,,,,,,,,,,,,
quiz_q_1_fb_correct,51,1215433,0.0-18.0-0.0,"""event"",""trial"",""time""
""fullscreenenter"",""1"",""16691""
""blur"",""4"",""179927""
""focus"",""4"",""923427""
","""event"",""trial"",""time""
""blur"",""4"",""179927""
","""event"",""trial"",""time""
""focus"",""4"",""923427""
","""event"",""trial"",""time""
""fullscreenenter"",""1"",""16691""
","
",,null,run_exp/static/audio/clip_12_q1_correct.m4a,null,<p>That’s correct. You win extra money by collecting more gems.</p>,,,,,,,,,,,,,,,,,,,,,,,
quiz_q_2_ask,52,1220373,0.0-18.0-1.0,"""event"",""trial"",""time""
""fullscreenenter"",""1"",""16691""
""blur"",""4"",""179927""
""focus"",""4"",""923427""
","""event"",""trial"",""time""
""blur"",""4"",""179927""
","""event"",""trial"",""time""
""focus"",""4"",""923427""
","""event"",""trial"",""time""
""fullscreenenter"",""1"",""16691""
","
",,4935.6,run_exp/static/audio/clip_14_q2_ask.m4a,,,,,,,1,,,,,,,,,,,,,,,,,,
quiz_q_2_fb_correct,53,1224372,0.0-19.0-0.0,"""event"",""trial"",""time""
""fullscreenenter"",""1"",""16691""
""blur"",""4"",""179927""
""focus"",""4"",""923427""
","""event"",""trial"",""time""
""blur"",""4"",""179927""
","""event"",""trial"",""time""
""focus"",""4"",""923427""
","""event"",""trial"",""time""
""fullscreenenter"",""1"",""16691""
","
",,null,run_exp/static/audio/clip_15_q2_correct.m4a,null,<p>That’s correct. The experiment is 20 minutes no matter what.</p>,,,,,,,,,,,,,,,,,,,,,,,
quiz_q_3_ask,54,1229727,0.0-19.0-1.0,"""event"",""trial"",""time""
""fullscreenenter"",""1"",""16691""
""blur"",""4"",""179927""
""focus"",""4"",""923427""
","""event"",""trial"",""time""
""blur"",""4"",""179927""
","""event"",""trial"",""time""
""focus"",""4"",""923427""
","""event"",""trial"",""time""
""fullscreenenter"",""1"",""16691""
","
",,5351.6,run_exp/static/audio/clip_17_q3_ask.m4a,,,,,,,1,,,,,,,,,,,,,,,,,,
quiz_q_3_fb_correct,55,1233694,0.0-20.0-0.0,"""event"",""trial"",""time""
""fullscreenenter"",""1"",""16691""
""blur"",""4"",""179927""
""focus"",""4"",""923427""
","""event"",""trial"",""time""
""blur"",""4"",""179927""
","""event"",""trial"",""time""
""focus"",""4"",""923427""
","""event"",""trial"",""time""
""fullscreenenter"",""1"",""16691""
","
",,null,run_exp/static/audio/clip_18_q3_correct.m4a,null,<p> That’s correct. You press the letter L to travel to a new planet.</p>,,,,,,,,,,,,,,,,,,,,,,,
quiz_q_4_ask,56,1244392,0.0-20.0-1.0,"""event"",""trial"",""time""
""fullscreenenter"",""1"",""16691""
""blur"",""4"",""179927""
""focus"",""4"",""923427""
","""event"",""trial"",""time""
""blur"",""4"",""179927""
","""event"",""trial"",""time""
""focus"",""4"",""923427""
","""event"",""trial"",""time""
""fullscreenenter"",""1"",""16691""
","
",,10694.8,run_exp/static/audio/clip_20_q4_ask.m4a,,,,,,,0,,,,,,,,,,,,,,,,,,
quiz_q_4_fb_correct,57,1249716,0.0-21.0-0.0,"""event"",""trial"",""time""
""fullscreenenter"",""1"",""16691""
""blur"",""4"",""179927""
""focus"",""4"",""923427""
","""event"",""trial"",""time""
""blur"",""4"",""179927""
","""event"",""trial"",""time""
""focus"",""4"",""923427""
","""event"",""trial"",""time""
""fullscreenenter"",""1"",""16691""
","
",,null,run_exp/static/audio/clip_21_q4_correct.m4a,null,<p> That’s correct. The more you dig on a planet the fewer gems you’ll get with each dig. </p>,,,,,,,,,,,,,,,,,,,,,,,
quiz_q_5_ask,58,1264765,0.0-21.0-1.0,"""event"",""trial"",""time""
""fullscreenenter"",""1"",""16691""
""blur"",""4"",""179927""
""focus"",""4"",""923427""
","""event"",""trial"",""time""
""blur"",""4"",""179927""
","""event"",""trial"",""time""
""focus"",""4"",""923427""
","""event"",""trial"",""time""
""fullscreenenter"",""1"",""16691""
","
",,15046.2,run_exp/static/audio/clip_23_q5_ask.m4a,,,,,,,1,,,,,,,,,,,,,,,,,,
quiz_q_5_fb_correct,59,1269748,0.0-22.0-0.0,"""event"",""trial"",""time""
""fullscreenenter"",""1"",""16691""
""blur"",""4"",""179927""
""focus"",""4"",""923427""
","""event"",""trial"",""time""
""blur"",""4"",""179927""
","""event"",""trial"",""time""
""focus"",""4"",""923427""
","""event"",""trial"",""time""
""fullscreenenter"",""1"",""16691""
","
",,null,run_exp/static/audio/clip_24_q5_correct.m4a,null,<p> That’s correct. The alien tells you nothing about how much treasure is on the planet.</p>,,,,,,,,,,,,,,,,,,,,,,,
quiz_correct,60,1273182,0.0-23.0-0.0,"""event"",""trial"",""time""
""fullscreenenter"",""1"",""16691""
""blur"",""4"",""179927""
""focus"",""4"",""923427""
""blur"",""61"",""1394848""
""focus"",""61"",""1445494""
","""event"",""trial"",""time""
""blur"",""4"",""179927""
""blur"",""61"",""1394848""
","""event"",""trial"",""time""
""focus"",""4"",""923427""
""focus"",""61"",""1445494""
","""event"",""trial"",""time""
""fullscreenenter"",""1"",""16691""
","
",,null,run_exp/static/audio/clip_26_correct_quiz.m4a,null,,,,,,,,,,,,,,,,,,,,,,,,
quiz_correct_continue,61,1446376,0.0-23.0-1.0,"""event"",""trial"",""time""
""fullscreenenter"",""1"",""16691""
""blur"",""4"",""179927""
""focus"",""4"",""923427""
""blur"",""61"",""1394848""
""focus"",""61"",""1445494""
","""event"",""trial"",""time""
""blur"",""4"",""179927""
""blur"",""61"",""1394848""
","""event"",""trial"",""time""
""focus"",""4"",""923427""
""focus"",""61"",""1445494""
","""event"",""trial"",""time""
""fullscreenenter"",""1"",""16691""
","
",,129761.8,<p>Good job! You're now ready to move on to the real game!</p>,,,,,,,0,,,,,,,,,,,,,,,,,,
audio-keyboard-response,62,1461523,0.0-23.0-2.0,"""event"",""trial"",""time""
""fullscreenenter"",""1"",""16691""
""blur"",""4"",""179927""
""focus"",""4"",""923427""
""blur"",""61"",""1394848""
""focus"",""61"",""1445494""
","""event"",""trial"",""time""
""blur"",""4"",""179927""
""blur"",""61"",""1394848""
","""event"",""trial"",""time""
""focus"",""4"",""923427""
""focus"",""61"",""1445494""
","""event"",""trial"",""time""
""fullscreenenter"",""1"",""16691""
","
",,null,run_exp/static/audio/clip_28_real_game.m4a,null,,,,,,,,,,,,,,,,,,,,,,,,
instruc_begin_exp_contine,63,1464391,0.0-23.0-3.0,"""event"",""trial"",""time""
""fullscreenenter"",""1"",""16691""
""blur"",""4"",""179927""
""focus"",""4"",""923427""
""blur"",""61"",""1394848""
""focus"",""61"",""1445494""
","""event"",""trial"",""time""
""blur"",""4"",""179927""
""blur"",""61"",""1394848""
","""event"",""trial"",""time""
""focus"",""4"",""923427""
""focus"",""61"",""1445494""
","""event"",""trial"",""time""
""fullscreenenter"",""1"",""16691""
","
",,2865,"<p>Now that you know how  to dig for space treasure and travel to new planets,you can start exploring! </p><p>Do you want to go over the instructions again or get started with the real game?</p>",,,,,,,1,,,,,,1,,,,,,,,,,,,
alien_welcome,64,1469404,0.0-24.0-0.0,"""event"",""trial"",""time""
""fullscreenenter"",""1"",""16691""
""blur"",""4"",""179927""
""focus"",""4"",""923427""
""blur"",""61"",""1394848""
""focus"",""61"",""1445494""
","""event"",""trial"",""time""
""blur"",""4"",""179927""
""blur"",""61"",""1394848""
","""event"",""trial"",""time""
""focus"",""4"",""923427""
""focus"",""61"",""1445494""
","""event"",""trial"",""time""
""fullscreenenter"",""1"",""16691""
","
",,null,run_exp/static/images/task_images/aliens/old_aliens/planet/alien_planet-15.jpg,null,,,,,,,,,,,,,15,"15,32,78,62,40,12,56,72,31,33,25,76,55,24,21,36,29,22,2,43,57,18,59,19,5,7,71,54,23,60,50,28,48,26,69,67,75,3,70,64,4,42,77,73",,,,,,,,,,
land,65,1469917,0.0-24.0-1.0,"""event"",""trial"",""time""
""fullscreenenter"",""1"",""16691""
""blur"",""4"",""179927""
""focus"",""4"",""923427""
""blur"",""61"",""1394848""
""focus"",""61"",""1445494""
","""event"",""trial"",""time""
""blur"",""4"",""179927""
""blur"",""61"",""1394848""
","""event"",""trial"",""time""
""focus"",""4"",""923427""
""focus"",""61"",""1445494""
","""event"",""trial"",""time""
""fullscreenenter"",""1"",""16691""
","
",,null,run_exp/static/images/task_images/land.jpg,null,,,,,,,105,,,1,,,,,,,,,,,,,,
dig,66,1471933,0.0-24.0-2.0,"""event"",""trial"",""time""
""fullscreenenter"",""1"",""16691""
""blur"",""4"",""179927""
""focus"",""4"",""923427""
""blur"",""61"",""1394848""
""focus"",""61"",""1445494""
","""event"",""trial"",""time""
""blur"",""4"",""179927""
""blur"",""61"",""1394848""
","""event"",""trial"",""time""
""focus"",""4"",""923427""
""focus"",""61"",""1445494""
","""event"",""trial"",""time""
""fullscreenenter"",""1"",""16691""
","
",,,,,,,,,,,,"[{""stimulus"":""run_exp/static/images/task_images/dig.jpg"",""time"":0.6000000238418579},{""stimulus"":""run_exp/static/images/task_images/land.jpg"",""time"":673.5},{""stimulus"":""run_exp/static/images/task_images/dig.jpg"",""time"":1337.3000000715256}]",[],1,,,,,,,,,,,,,,
harvest,67,1472941,0.0-24.0-3.0,"""event"",""trial"",""time""
""fullscreenenter"",""1"",""16691""
""blur"",""4"",""179927""
""focus"",""4"",""923427""
""blur"",""61"",""1394848""
""focus"",""61"",""1445494""
","""event"",""trial"",""time""
""blur"",""4"",""179927""
""blur"",""61"",""1394848""
","""event"",""trial"",""time""
""focus"",""4"",""923427""
""focus"",""61"",""1445494""
","""event"",""trial"",""time""
""fullscreenenter"",""1"",""16691""
","
",,null,run_exp/static/images/task_images/gems/105.jpg,null,,,,,,,23,,,1,,,,,105,0.216703788,0.219047619,,,,,,,
decision,68,1474445,0.0-24.0-4.0,"""event"",""trial"",""time""
""fullscreenenter"",""1"",""16691""
""blur"",""4"",""179927""
""focus"",""4"",""923427""
""blur"",""61"",""1394848""
""focus"",""61"",""1445494""
","""event"",""trial"",""time""
""blur"",""4"",""179927""
""blur"",""61"",""1394848""
","""event"",""trial"",""time""
""focus"",""4"",""923427""
""focus"",""61"",""1445494""
","""event"",""trial"",""time""
""fullscreenenter"",""1"",""16691""
","
",,1500.4,run_exp/static/images/task_images/land.jpg,65,,,,,,,23,,,1,,,,,,,,10053,1,0,FALSE,,,
dig,69,1475955,0.0-25.0-0.0,"""event"",""trial"",""time""
""fullscreenenter"",""1"",""16691""
""blur"",""4"",""179927""
""focus"",""4"",""923427""
""blur"",""61"",""1394848""
""focus"",""61"",""1445494""
","""event"",""trial"",""time""
""blur"",""4"",""179927""
""blur"",""61"",""1394848""
","""event"",""trial"",""time""
""focus"",""4"",""923427""
""focus"",""61"",""1445494""
","""event"",""trial"",""time""
""fullscreenenter"",""1"",""16691""
","
",,,,,,,,,,,,"[{""stimulus"":""run_exp/static/images/task_images/dig.jpg"",""time"":0.30000007152557373},{""stimulus"":""run_exp/static/images/task_images/land.jpg"",""time"":507.60000002384186},{""stimulus"":""run_exp/static/images/task_images/dig.jpg"",""time"":1009.1000000238419}]",[],1,,,,,,,,,,,,,,
harvest,70,1476963,0.0-25.0-1.0,"""event"",""trial"",""time""
""fullscreenenter"",""1"",""16691""
""blur"",""4"",""179927""
""focus"",""4"",""923427""
""blur"",""61"",""1394848""
""focus"",""61"",""1445494""
","""event"",""trial"",""time""
""blur"",""4"",""179927""
""blur"",""61"",""1394848""
","""event"",""trial"",""time""
""focus"",""4"",""923427""
""focus"",""61"",""1445494""
","""event"",""trial"",""time""
""fullscreenenter"",""1"",""16691""
","
",,null,run_exp/static/images/task_images/gems/23.jpg,null,,,,,,,4,,,1,,,,,23,0.188392611,0.173913043,,,,,,,
decision,71,1477888,0.0-25.0-2.0,"""event"",""trial"",""time""
""fullscreenenter"",""1"",""16691""
""blur"",""4"",""179927""
""focus"",""4"",""923427""
""blur"",""61"",""1394848""
""focus"",""61"",""1445494""
","""event"",""trial"",""time""
""blur"",""4"",""179927""
""blur"",""61"",""1394848""
","""event"",""trial"",""time""
""focus"",""4"",""923427""
""focus"",""61"",""1445494""
","""event"",""trial"",""time""
""fullscreenenter"",""1"",""16691""
","
",,922.5,run_exp/static/images/task_images/land.jpg,65,,,,,,,4,,,1,,,,,,,,13495,1,1,FALSE,,,
dig,72,1479977,0.0-26.0-0.0,"""event"",""trial"",""time""
""fullscreenenter"",""1"",""16691""
""blur"",""4"",""179927""
""focus"",""4"",""923427""
""blur"",""61"",""1394848""
""focus"",""61"",""1445494""
","""event"",""trial"",""time""
""blur"",""4"",""179927""
""blur"",""61"",""1394848""
","""event"",""trial"",""time""
""focus"",""4"",""923427""
""focus"",""61"",""1445494""
","""event"",""trial"",""time""
""fullscreenenter"",""1"",""16691""
","
",,,,,,,,,,,,"[{""stimulus"":""run_exp/static/images/task_images/dig.jpg"",""time"":0.20000004768371582},{""stimulus"":""run_exp/static/images/task_images/land.jpg"",""time"":702.9000000953674},{""stimulus"":""run_exp/static/images/task_images/dig.jpg"",""time"":1391.1000000238419}]",[],1,,,,,,,,,,,,,,
harvest,73,1480989,0.0-26.0-1.0,"""event"",""trial"",""time""
""fullscreenenter"",""1"",""16691""
""blur"",""4"",""179927""
""focus"",""4"",""923427""
""blur"",""61"",""1394848""
""focus"",""61"",""1445494""
","""event"",""trial"",""time""
""blur"",""4"",""179927""
""blur"",""61"",""1394848""
","""event"",""trial"",""time""
""focus"",""4"",""923427""
""focus"",""61"",""1445494""
","""event"",""trial"",""time""
""fullscreenenter"",""1"",""16691""
","
",,null,run_exp/static/images/task_images/gems/4.jpg,null,,,,,,,0,,,1,,,,,4,0.113350806,0,,,,,,,
decision,74,1482242,0.0-26.0-2.0,"""event"",""trial"",""time""
""fullscreenenter"",""1"",""16691""
""blur"",""4"",""179927""
""focus"",""4"",""923427""
""blur"",""61"",""1394848""
""focus"",""61"",""1445494""
","""event"",""trial"",""time""
""blur"",""4"",""179927""
""blur"",""61"",""1394848""
","""event"",""trial"",""time""
""focus"",""4"",""923427""
""focus"",""61"",""1445494""
","""event"",""trial"",""time""
""fullscreenenter"",""1"",""16691""
","
",,1250.6,run_exp/static/images/task_images/land.jpg,76,,,,,,,0,,,1,,,,,,,,17849,1,2,TRUE,,,
travel,75,1491005,0.0-27.0-0.0,"""event"",""trial"",""time""
""fullscreenenter"",""1"",""16691""
""blur"",""4"",""179927""
""focus"",""4"",""923427""
""blur"",""61"",""1394848""
""focus"",""61"",""1445494""
","""event"",""trial"",""time""
""blur"",""4"",""179927""
""blur"",""61"",""1394848""
","""event"",""trial"",""time""
""focus"",""4"",""923427""
""focus"",""61"",""1445494""
","""event"",""trial"",""time""
""fullscreenenter"",""1"",""16691""
","
",,,,,,,,,,,,"[{""stimulus"":""run_exp/static/images/task_images/rocket-01.jpg"",""time"":0.20000004768371582},{""stimulus"":""run_exp/static/images/task_images/rocket-02.jpg"",""time"":984.2000000476837},{""stimulus"":""run_exp/static/images/task_images/rocket-03.jpg"",""time"":1950.3999999761581},{""stimulus"":""run_exp/static/images/task_images/rocket-04.jpg"",""time"":2925.2000000476837},{""stimulus"":""run_exp/static/images/task_images/rocket-05.jpg"",""time"":3895.8000000715256},{""stimulus"":""run_exp/static/images/task_images/rocket-06.jpg"",""time"":4871.899999976158},{""stimulus"":""run_exp/static/images/task_images/rocket-07.jpg"",""time"":5837.100000023842},{""stimulus"":""run_exp/static/images/task_images/rocket-08.jpg"",""time"":6813},{""stimulus"":""run_exp/static/images/task_images/rocket-09.jpg"",""time"":7783.700000047684}]",[],1,,,,,,,,,,,,,,
alien_welcome,76,1496013,0.0-27.0-1.0,"""event"",""trial"",""time""
""fullscreenenter"",""1"",""16691""
""blur"",""4"",""179927""
""focus"",""4"",""923427""
""blur"",""61"",""1394848""
""focus"",""61"",""1445494""
","""event"",""trial"",""time""
""blur"",""4"",""179927""
""blur"",""61"",""1394848""
","""event"",""trial"",""time""
""focus"",""4"",""923427""
""focus"",""61"",""1445494""
","""event"",""trial"",""time""
""fullscreenenter"",""1"",""16691""
","
",,null,run_exp/static/images/task_images/aliens/old_aliens/planet/alien_planet-32.jpg,null,,,,,,,,,,,,,32,"15,32,78,62,40,12,56,72,31,33,25,76,55,24,21,36,29,22,2,43,57,18,59,19,5,7,71,54,23,60,50,28,48,26,69,67,75,3,70,64,4,42,77,73",,,,,,,,,,
land,77,1496525,0.0-27.0-2.0,"""event"",""trial"",""time""
""fullscreenenter"",""1"",""16691""
""blur"",""4"",""179927""
""focus"",""4"",""923427""
""blur"",""61"",""1394848""
""focus"",""61"",""1445494""
","""event"",""trial"",""time""
""blur"",""4"",""179927""
""blur"",""61"",""1394848""
","""event"",""trial"",""time""
""focus"",""4"",""923427""
""focus"",""61"",""1445494""
","""event"",""trial"",""time""
""fullscreenenter"",""1"",""16691""
","
",,null,run_exp/static/images/task_images/land.jpg,null,,,,,,,98,,,2,,,,,,,,,,,,,,
dig,78,1498541,0.0-27.0-3.0,"""event"",""trial"",""time""
""fullscreenenter"",""1"",""16691""
""blur"",""4"",""179927""
""focus"",""4"",""923427""
""blur"",""61"",""1394848""
""focus"",""61"",""1445494""
","""event"",""trial"",""time""
""blur"",""4"",""179927""
""blur"",""61"",""1394848""
","""event"",""trial"",""time""
""focus"",""4"",""923427""
""focus"",""61"",""1445494""
","""event"",""trial"",""time""
""fullscreenenter"",""1"",""16691""
","
",,,,,,,,,,,,"[{""stimulus"":""run_exp/static/images/task_images/dig.jpg"",""time"":0.3999999761581421},{""stimulus"":""run_exp/static/images/task_images/land.jpg"",""time"":676.8000000715256},{""stimulus"":""run_exp/static/images/task_images/dig.jpg"",""time"":1342.2000000476837}]",[],2,,,,,,,,,,,,,,
harvest,79,1499549,0.0-27.0-4.0,"""event"",""trial"",""time""
""fullscreenenter"",""1"",""16691""
""blur"",""4"",""179927""
""focus"",""4"",""923427""
""blur"",""61"",""1394848""
""focus"",""61"",""1445494""
","""event"",""trial"",""time""
""blur"",""4"",""179927""
""blur"",""61"",""1394848""
","""event"",""trial"",""time""
""focus"",""4"",""923427""
""focus"",""61"",""1445494""
","""event"",""trial"",""time""
""fullscreenenter"",""1"",""16691""
","
",,null,run_exp/static/images/task_images/gems/98.jpg,null,,,,,,,12,,,2,,,,,98,0.124174554,0.12244898,,,,,,,
decision,80,1500304,0.0-27.0-5.0,"""event"",""trial"",""time""
""fullscreenenter"",""1"",""16691""
""blur"",""4"",""179927""
""focus"",""4"",""923427""
""blur"",""61"",""1394848""
""focus"",""61"",""1445494""
","""event"",""trial"",""time""
""blur"",""4"",""179927""
""blur"",""61"",""1394848""
","""event"",""trial"",""time""
""focus"",""4"",""923427""
""focus"",""61"",""1445494""
","""event"",""trial"",""time""
""fullscreenenter"",""1"",""16691""
","
",,752.8,run_exp/static/images/task_images/land.jpg,65,,,,,,,12,,,2,,,,,,,,35911,1,0,FALSE,,,
dig,81,1502562,0.0-28.0-0.0,"""event"",""trial"",""time""
""fullscreenenter"",""1"",""16691""
""blur"",""4"",""179927""
""focus"",""4"",""923427""
""blur"",""61"",""1394848""
""focus"",""61"",""1445494""
","""event"",""trial"",""time""
""blur"",""4"",""179927""
""blur"",""61"",""1394848""
","""event"",""trial"",""time""
""focus"",""4"",""923427""
""focus"",""61"",""1445494""
","""event"",""trial"",""time""
""fullscreenenter"",""1"",""16691""
","
",,,,,,,,,,,,"[{""stimulus"":""run_exp/static/images/task_images/dig.jpg"",""time"":0.10000002384185791},{""stimulus"":""run_exp/static/images/task_images/land.jpg"",""time"":758.5},{""stimulus"":""run_exp/static/images/task_images/dig.jpg"",""time"":1502.5}]",[],2,,,,,,,,,,,,,,
harvest,82,1503571,0.0-28.0-1.0,"""event"",""trial"",""time""
""fullscreenenter"",""1"",""16691""
""blur"",""4"",""179927""
""focus"",""4"",""923427""
""blur"",""61"",""1394848""
""focus"",""61"",""1445494""
","""event"",""trial"",""time""
""blur"",""4"",""179927""
""blur"",""61"",""1394848""
","""event"",""trial"",""time""
""focus"",""4"",""923427""
""focus"",""61"",""1445494""
","""event"",""trial"",""time""
""fullscreenenter"",""1"",""16691""
","
",,null,run_exp/static/images/task_images/gems/12.jpg,null,,,,,,,2,,,2,,,,,12,0.187665629,0.166666667,,,,,,,
decision,83,1504465,0.0-28.0-2.0,"""event"",""trial"",""time""
""fullscreenenter"",""1"",""16691""
""blur"",""4"",""179927""
""focus"",""4"",""923427""
""blur"",""61"",""1394848""
""focus"",""61"",""1445494""
","""event"",""trial"",""time""
""blur"",""4"",""179927""
""blur"",""61"",""1394848""
","""event"",""trial"",""time""
""focus"",""4"",""923427""
""focus"",""61"",""1445494""
","""event"",""trial"",""time""
""fullscreenenter"",""1"",""16691""
","
",,891.8,run_exp/static/images/task_images/land.jpg,76,,,,,,,2,,,2,,,,,,,,40072,1,1,TRUE,,,
travel,84,1513586,0.0-29.0-0.0,"""event"",""trial"",""time""
""fullscreenenter"",""1"",""16691""
""blur"",""4"",""179927""
""focus"",""4"",""923427""
""blur"",""61"",""1394848""
""focus"",""61"",""1445494""
","""event"",""trial"",""time""
""blur"",""4"",""179927""
""blur"",""61"",""1394848""
","""event"",""trial"",""time""
""focus"",""4"",""923427""
""focus"",""61"",""1445494""
","""event"",""trial"",""time""
""fullscreenenter"",""1"",""16691""
","
",,,,,,,,,,,,"[{""stimulus"":""run_exp/static/images/task_images/rocket-01.jpg"",""time"":0.20000004768371582},{""stimulus"":""run_exp/static/images/task_images/rocket-02.jpg"",""time"":1022},{""stimulus"":""run_exp/static/images/task_images/rocket-03.jpg"",""time"":2028.8999999761581},{""stimulus"":""run_exp/static/images/task_images/rocket-04.jpg"",""time"":3038.399999976158},{""stimulus"":""run_exp/static/images/task_images/rocket-05.jpg"",""time"":4057.100000023842},{""stimulus"":""run_exp/static/images/task_images/rocket-06.jpg"",""time"":5070.299999952316},{""stimulus"":""run_exp/static/images/task_images/rocket-07.jpg"",""time"":6080.399999976158},{""stimulus"":""run_exp/static/images/task_images/rocket-08.jpg"",""time"":7097.100000023842},{""stimulus"":""run_exp/static/images/task_images/rocket-09.jpg"",""time"":8104.5}]",[],2,,,,,,,,,,,,,,
alien_welcome,85,1518596,0.0-29.0-1.0,"""event"",""trial"",""time""
""fullscreenenter"",""1"",""16691""
""blur"",""4"",""179927""
""focus"",""4"",""923427""
""blur"",""61"",""1394848""
""focus"",""61"",""1445494""
","""event"",""trial"",""time""
""blur"",""4"",""179927""
""blur"",""61"",""1394848""
","""event"",""trial"",""time""
""focus"",""4"",""923427""
""focus"",""61"",""1445494""
","""event"",""trial"",""time""
""fullscreenenter"",""1"",""16691""
","
",,null,run_exp/static/images/task_images/aliens/old_aliens/planet/alien_planet-78.jpg,null,,,,,,,,,,,,,78,"15,32,78,62,40,12,56,72,31,33,25,76,55,24,21,36,29,22,2,43,57,18,59,19,5,7,71,54,23,60,50,28,48,26,69,67,75,3,70,64,4,42,77,73",,,,,,,,,,
land,86,1519106,0.0-29.0-2.0,"""event"",""trial"",""time""
""fullscreenenter"",""1"",""16691""
""blur"",""4"",""179927""
""focus"",""4"",""923427""
""blur"",""61"",""1394848""
""focus"",""61"",""1445494""
","""event"",""trial"",""time""
""blur"",""4"",""179927""
""blur"",""61"",""1394848""
","""event"",""trial"",""time""
""focus"",""4"",""923427""
""focus"",""61"",""1445494""
","""event"",""trial"",""time""
""fullscreenenter"",""1"",""16691""
","
",,null,run_exp/static/images/task_images/land.jpg,null,,,,,,,99,,,3,,,,,,,,,,,,,,
dig,87,1521116,0.0-29.0-3.0,"""event"",""trial"",""time""
""fullscreenenter"",""1"",""16691""
""blur"",""4"",""179927""
""focus"",""4"",""923427""
""blur"",""61"",""1394848""
""focus"",""61"",""1445494""
","""event"",""trial"",""time""
""blur"",""4"",""179927""
""blur"",""61"",""1394848""
","""event"",""trial"",""time""
""focus"",""4"",""923427""
""focus"",""61"",""1445494""
","""event"",""trial"",""time""
""fullscreenenter"",""1"",""16691""
","
",,,,,,,,,,,,"[{""stimulus"":""run_exp/static/images/task_images/dig.jpg"",""time"":0.40000009536743164},{""stimulus"":""run_exp/static/images/task_images/land.jpg"",""time"":672.9000000953674},{""stimulus"":""run_exp/static/images/task_images/dig.jpg"",""time"":1336.7000000476837}]",[],3,,,,,,,,,,,,,,
harvest,88,1522125,0.0-29.0-4.0,"""event"",""trial"",""time""
""fullscreenenter"",""1"",""16691""
""blur"",""4"",""179927""
""focus"",""4"",""923427""
""blur"",""61"",""1394848""
""focus"",""61"",""1445494""
","""event"",""trial"",""time""
""blur"",""4"",""179927""
""blur"",""61"",""1394848""
","""event"",""trial"",""time""
""focus"",""4"",""923427""
""focus"",""61"",""1445494""
","""event"",""trial"",""time""
""fullscreenenter"",""1"",""16691""
","
",,null,run_exp/static/images/task_images/gems/99.jpg,null,,,,,,,55,,,3,,,,,99,0.556665379,0.555555556,,,,,,,
decision,89,1522569,0.0-29.0-5.0,"""event"",""trial"",""time""
""fullscreenenter"",""1"",""16691""
""blur"",""4"",""179927""
""focus"",""4"",""923427""
""blur"",""61"",""1394848""
""focus"",""61"",""1445494""
","""event"",""trial"",""time""
""blur"",""4"",""179927""
""blur"",""61"",""1394848""
","""event"",""trial"",""time""
""focus"",""4"",""923427""
""focus"",""61"",""1445494""
","""event"",""trial"",""time""
""fullscreenenter"",""1"",""16691""
","
",,441.4,run_exp/static/images/task_images/land.jpg,65,,,,,,,55,,,3,,,,,,,,58176,1,0,FALSE,,,
dig,90,1525138,0.0-30.0-0.0,"""event"",""trial"",""time""
""fullscreenenter"",""1"",""16691""
""blur"",""4"",""179927""
""focus"",""4"",""923427""
""blur"",""61"",""1394848""
""focus"",""61"",""1445494""
","""event"",""trial"",""time""
""blur"",""4"",""179927""
""blur"",""61"",""1394848""
","""event"",""trial"",""time""
""focus"",""4"",""923427""
""focus"",""61"",""1445494""
","""event"",""trial"",""time""
""fullscreenenter"",""1"",""16691""
","
",,,,,,,,,,,,"[{""stimulus"":""run_exp/static/images/task_images/dig.jpg"",""time"":0.10000002384185791},{""stimulus"":""run_exp/static/images/task_images/land.jpg"",""time"":864.2000000476837},{""stimulus"":""run_exp/static/images/task_images/dig.jpg"",""time"":1712.7000000476837}]",[],3,,,,,,,,,,,,,,
harvest,91,1526148,0.0-30.0-1.0,"""event"",""trial"",""time""
""fullscreenenter"",""1"",""16691""
""blur"",""4"",""179927""
""focus"",""4"",""923427""
""blur"",""61"",""1394848""
""focus"",""61"",""1445494""
","""event"",""trial"",""time""
""blur"",""4"",""179927""
""blur"",""61"",""1394848""
","""event"",""trial"",""time""
""focus"",""4"",""923427""
""focus"",""61"",""1445494""
","""event"",""trial"",""time""
""fullscreenenter"",""1"",""16691""
","
",,null,run_exp/static/images/task_images/gems/55.jpg,null,,,,,,,29,,,3,,,,,55,0.531520605,0.527272727,,,,,,,
decision,92,1526561,0.0-30.0-2.0,"""event"",""trial"",""time""
""fullscreenenter"",""1"",""16691""
""blur"",""4"",""179927""
""focus"",""4"",""923427""
""blur"",""61"",""1394848""
""focus"",""61"",""1445494""
","""event"",""trial"",""time""
""blur"",""4"",""179927""
""blur"",""61"",""1394848""
","""event"",""trial"",""time""
""focus"",""4"",""923427""
""focus"",""61"",""1445494""
","""event"",""trial"",""time""
""fullscreenenter"",""1"",""16691""
","
",,410.4,run_exp/static/images/task_images/land.jpg,65,,,,,,,29,,,3,,,,,,,,62168,1,1,FALSE,,,
dig,93,1529165,0.0-31.0-0.0,"""event"",""trial"",""time""
""fullscreenenter"",""1"",""16691""
""blur"",""4"",""179927""
""focus"",""4"",""923427""
""blur"",""61"",""1394848""
""focus"",""61"",""1445494""
","""event"",""trial"",""time""
""blur"",""4"",""179927""
""blur"",""61"",""1394848""
","""event"",""trial"",""time""
""focus"",""4"",""923427""
""focus"",""61"",""1445494""
","""event"",""trial"",""time""
""fullscreenenter"",""1"",""16691""
","
",,,,,,,,,,,,"[{""stimulus"":""run_exp/static/images/task_images/dig.jpg"",""time"":0.19999992847442627},{""stimulus"":""run_exp/static/images/task_images/land.jpg"",""time"":873.1000000238419},{""stimulus"":""run_exp/static/images/task_images/dig.jpg"",""time"":1737}]",[],3,,,,,,,,,,,,,,
harvest,94,1530173,0.0-31.0-1.0,"""event"",""trial"",""time""
""fullscreenenter"",""1"",""16691""
""blur"",""4"",""179927""
""focus"",""4"",""923427""
""blur"",""61"",""1394848""
""focus"",""61"",""1445494""
","""event"",""trial"",""time""
""blur"",""4"",""179927""
""blur"",""61"",""1394848""
","""event"",""trial"",""time""
""focus"",""4"",""923427""
""focus"",""61"",""1445494""
","""event"",""trial"",""time""
""fullscreenenter"",""1"",""16691""
","
",,null,run_exp/static/images/task_images/gems/29.jpg,null,,,,,,,15,,,3,,,,,29,0.532263853,0.517241379,,,,,,,
decision,95,1530815,0.0-31.0-2.0,"""event"",""trial"",""time""
""fullscreenenter"",""1"",""16691""
""blur"",""4"",""179927""
""focus"",""4"",""923427""
""blur"",""61"",""1394848""
""focus"",""61"",""1445494""
","""event"",""trial"",""time""
""blur"",""4"",""179927""
""blur"",""61"",""1394848""
","""event"",""trial"",""time""
""focus"",""4"",""923427""
""focus"",""61"",""1445494""
","""event"",""trial"",""time""
""fullscreenenter"",""1"",""16691""
","
",,639.5,run_exp/static/images/task_images/land.jpg,65,,,,,,,15,,,3,,,,,,,,66422,1,2,FALSE,,,
dig,96,1533180,0.0-32.0-0.0,"""event"",""trial"",""time""
""fullscreenenter"",""1"",""16691""
""blur"",""4"",""179927""
""focus"",""4"",""923427""
""blur"",""61"",""1394848""
""focus"",""61"",""1445494""
","""event"",""trial"",""time""
""blur"",""4"",""179927""
""blur"",""61"",""1394848""
","""event"",""trial"",""time""
""focus"",""4"",""923427""
""focus"",""61"",""1445494""
","""event"",""trial"",""time""
""fullscreenenter"",""1"",""16691""
","
",,,,,,,,,,,,"[{""stimulus"":""run_exp/static/images/task_images/dig.jpg"",""time"":0},{""stimulus"":""run_exp/static/images/task_images/land.jpg"",""time"":795.3999999761581},{""stimulus"":""run_exp/static/images/task_images/dig.jpg"",""time"":1580.0999999046326}]",[],3,,,,,,,,,,,,,,
harvest,97,1534190,0.0-32.0-1.0,"""event"",""trial"",""time""
""fullscreenenter"",""1"",""16691""
""blur"",""4"",""179927""
""focus"",""4"",""923427""
""blur"",""61"",""1394848""
""focus"",""61"",""1445494""
","""event"",""trial"",""time""
""blur"",""4"",""179927""
""blur"",""61"",""1394848""
","""event"",""trial"",""time""
""focus"",""4"",""923427""
""focus"",""61"",""1445494""
","""event"",""trial"",""time""
""fullscreenenter"",""1"",""16691""
","
",,null,run_exp/static/images/task_images/gems/15.jpg,null,,,,,,,7,,,3,,,,,15,0.443623163,0.466666667,,,,,,,
decision,98,1534463,0.0-32.0-2.0,"""event"",""trial"",""time""
""fullscreenenter"",""1"",""16691""
""blur"",""4"",""179927""
""focus"",""4"",""923427""
""blur"",""61"",""1394848""
""focus"",""61"",""1445494""
","""event"",""trial"",""time""
""blur"",""4"",""179927""
""blur"",""61"",""1394848""
","""event"",""trial"",""time""
""focus"",""4"",""923427""
""focus"",""61"",""1445494""
","""event"",""trial"",""time""
""fullscreenenter"",""1"",""16691""
","
",,270.6,run_exp/static/images/task_images/land.jpg,76,,,,,,,7,,,3,,,,,,,,70070,1,3,TRUE,,,
travel,99,1544205,0.0-33.0-0.0,"""event"",""trial"",""time""
""fullscreenenter"",""1"",""16691""
""blur"",""4"",""179927""
""focus"",""4"",""923427""
""blur"",""61"",""1394848""
""focus"",""61"",""1445494""
","""event"",""trial"",""time""
""blur"",""4"",""179927""
""blur"",""61"",""1394848""
","""event"",""trial"",""time""
""focus"",""4"",""923427""
""focus"",""61"",""1445494""
","""event"",""trial"",""time""
""fullscreenenter"",""1"",""16691""
","
",,,,,,,,,,,,"[{""stimulus"":""run_exp/static/images/task_images/rocket-01.jpg"",""time"":0.19999992847442627},{""stimulus"":""run_exp/static/images/task_images/rocket-02.jpg"",""time"":1087.1999999284744},{""stimulus"":""run_exp/static/images/task_images/rocket-03.jpg"",""time"":2170.6999999284744},{""stimulus"":""run_exp/static/images/task_images/rocket-04.jpg"",""time"":3249.2999999523163},{""stimulus"":""run_exp/static/images/task_images/rocket-05.jpg"",""time"":4331.100000023842},{""stimulus"":""run_exp/static/images/task_images/rocket-06.jpg"",""time"":5407.299999952316},{""stimulus"":""run_exp/static/images/task_images/rocket-07.jpg"",""time"":6496.399999976158},{""stimulus"":""run_exp/static/images/task_images/rocket-08.jpg"",""time"":7578.799999952316},{""stimulus"":""run_exp/static/images/task_images/rocket-09.jpg"",""time"":8656.100000023842}]",[],3,,,,,,,,,,,,,,
alien_welcome,100,1549213,0.0-33.0-1.0,"""event"",""trial"",""time""
""fullscreenenter"",""1"",""16691""
""blur"",""4"",""179927""
""focus"",""4"",""923427""
""blur"",""61"",""1394848""
""focus"",""61"",""1445494""
","""event"",""trial"",""time""
""blur"",""4"",""179927""
""blur"",""61"",""1394848""
","""event"",""trial"",""time""
""focus"",""4"",""923427""
""focus"",""61"",""1445494""
","""event"",""trial"",""time""
""fullscreenenter"",""1"",""16691""
","
",,null,run_exp/static/images/task_images/aliens/old_aliens/planet/alien_planet-62.jpg,null,,,,,,,,,,,,,62,"15,32,78,62,40,12,56,72,31,33,25,76,55,24,21,36,29,22,2,43,57,18,59,19,5,7,71,54,23,60,50,28,48,26,69,67,75,3,70,64,4,42,77,73",,,,,,,,,,
land,101,1549725,0.0-33.0-2.0,"""event"",""trial"",""time""
""fullscreenenter"",""1"",""16691""
""blur"",""4"",""179927""
""focus"",""4"",""923427""
""blur"",""61"",""1394848""
""focus"",""61"",""1445494""
","""event"",""trial"",""time""
""blur"",""4"",""179927""
""blur"",""61"",""1394848""
","""event"",""trial"",""time""
""focus"",""4"",""923427""
""focus"",""61"",""1445494""
","""event"",""trial"",""time""
""fullscreenenter"",""1"",""16691""
","
",,null,run_exp/static/images/task_images/land.jpg,null,,,,,,,105,,,4,,,,,,,,,,,,,,
dig,102,1551741,0.0-33.0-3.0,"""event"",""trial"",""time""
""fullscreenenter"",""1"",""16691""
""blur"",""4"",""179927""
""focus"",""4"",""923427""
""blur"",""61"",""1394848""
""focus"",""61"",""1445494""
","""event"",""trial"",""time""
""blur"",""4"",""179927""
""blur"",""61"",""1394848""
","""event"",""trial"",""time""
""focus"",""4"",""923427""
""focus"",""61"",""1445494""
","""event"",""trial"",""time""
""fullscreenenter"",""1"",""16691""
","
",,,,,,,,,,,,"[{""stimulus"":""run_exp/static/images/task_images/dig.jpg"",""time"":0.3999999761581421},{""stimulus"":""run_exp/static/images/task_images/land.jpg"",""time"":675.5},{""stimulus"":""run_exp/static/images/task_images/dig.jpg"",""time"":1342}]",[],4,,,,,,,,,,,,,,
harvest,103,1552749,0.0-33.0-4.0,"""event"",""trial"",""time""
""fullscreenenter"",""1"",""16691""
""blur"",""4"",""179927""
""focus"",""4"",""923427""
""blur"",""61"",""1394848""
""focus"",""61"",""1445494""
","""event"",""trial"",""time""
""blur"",""4"",""179927""
""blur"",""61"",""1394848""
","""event"",""trial"",""time""
""focus"",""4"",""923427""
""focus"",""61"",""1445494""
","""event"",""trial"",""time""
""fullscreenenter"",""1"",""16691""
","
",,null,run_exp/static/images/task_images/gems/105.jpg,null,,,,,,,57,,,4,,,,,105,0.540231036,0.542857143,,,,,,,
decision,104,1553438,0.0-33.0-5.0,"""event"",""trial"",""time""
""fullscreenenter"",""1"",""16691""
""blur"",""4"",""179927""
""focus"",""4"",""923427""
""blur"",""61"",""1394848""
""focus"",""61"",""1445494""
","""event"",""trial"",""time""
""blur"",""4"",""179927""
""blur"",""61"",""1394848""
","""event"",""trial"",""time""
""focus"",""4"",""923427""
""focus"",""61"",""1445494""
","""event"",""trial"",""time""
""fullscreenenter"",""1"",""16691""
","
",,687.1999999,run_exp/static/images/task_images/land.jpg,65,,,,,,,57,,,4,,,,,,,,89045,1,0,FALSE,,,
dig,105,1555762,0.0-34.0-0.0,"""event"",""trial"",""time""
""fullscreenenter"",""1"",""16691""
""blur"",""4"",""179927""
""focus"",""4"",""923427""
""blur"",""61"",""1394848""
""focus"",""61"",""1445494""
","""event"",""trial"",""time""
""blur"",""4"",""179927""
""blur"",""61"",""1394848""
","""event"",""trial"",""time""
""focus"",""4"",""923427""
""focus"",""61"",""1445494""
","""event"",""trial"",""time""
""fullscreenenter"",""1"",""16691""
","
",,,,,,,,,,,,"[{""stimulus"":""run_exp/static/images/task_images/dig.jpg"",""time"":0.20000004768371582},{""stimulus"":""run_exp/static/images/task_images/land.jpg"",""time"":777.7000000476837},{""stimulus"":""run_exp/static/images/task_images/dig.jpg"",""time"":1546.8000000715256}]",[],4,,,,,,,,,,,,,,
harvest,106,1556770,0.0-34.0-1.0,"""event"",""trial"",""time""
""fullscreenenter"",""1"",""16691""
""blur"",""4"",""179927""
""focus"",""4"",""923427""
""blur"",""61"",""1394848""
""focus"",""61"",""1445494""
","""event"",""trial"",""time""
""blur"",""4"",""179927""
""blur"",""61"",""1394848""
","""event"",""trial"",""time""
""focus"",""4"",""923427""
""focus"",""61"",""1445494""
","""event"",""trial"",""time""
""fullscreenenter"",""1"",""16691""
","
",,null,run_exp/static/images/task_images/gems/57.jpg,null,,,,,,,23,,,4,,,,,57,0.41109122,0.403508772,,,,,,,
decision,107,1557181,0.0-34.0-2.0,"""event"",""trial"",""time""
""fullscreenenter"",""1"",""16691""
""blur"",""4"",""179927""
""focus"",""4"",""923427""
""blur"",""61"",""1394848""
""focus"",""61"",""1445494""
","""event"",""trial"",""time""
""blur"",""4"",""179927""
""blur"",""61"",""1394848""
","""event"",""trial"",""time""
""focus"",""4"",""923427""
""focus"",""61"",""1445494""
","""event"",""trial"",""time""
""fullscreenenter"",""1"",""16691""
","
",,408.7,run_exp/static/images/task_images/land.jpg,65,,,,,,,23,,,4,,,,,,,,92788,1,1,FALSE,,,
dig,108,1559779,0.0-35.0-0.0,"""event"",""trial"",""time""
""fullscreenenter"",""1"",""16691""
""blur"",""4"",""179927""
""focus"",""4"",""923427""
""blur"",""61"",""1394848""
""focus"",""61"",""1445494""
","""event"",""trial"",""time""
""blur"",""4"",""179927""
""blur"",""61"",""1394848""
","""event"",""trial"",""time""
""focus"",""4"",""923427""
""focus"",""61"",""1445494""
","""event"",""trial"",""time""
""fullscreenenter"",""1"",""16691""
","
",,,,,,,,,,,,"[{""stimulus"":""run_exp/static/images/task_images/dig.jpg"",""time"":0.19999992847442627},{""stimulus"":""run_exp/static/images/task_images/land.jpg"",""time"":869.1999999284744},{""stimulus"":""run_exp/static/images/task_images/dig.jpg"",""time"":1732}]",[],4,,,,,,,,,,,,,,
harvest,109,1560787,0.0-35.0-1.0,"""event"",""trial"",""time""
""fullscreenenter"",""1"",""16691""
""blur"",""4"",""179927""
""focus"",""4"",""923427""
""blur"",""61"",""1394848""
""focus"",""61"",""1445494""
","""event"",""trial"",""time""
""blur"",""4"",""179927""
""blur"",""61"",""1394848""
","""event"",""trial"",""time""
""focus"",""4"",""923427""
""focus"",""61"",""1445494""
","""event"",""trial"",""time""
""fullscreenenter"",""1"",""16691""
","
",,null,run_exp/static/images/task_images/gems/23.jpg,null,,,,,,,11,,,4,,,,,23,0.488830166,0.47826087,,,,,,,
decision,110,1561193,0.0-35.0-2.0,"""event"",""trial"",""time""
""fullscreenenter"",""1"",""16691""
""blur"",""4"",""179927""
""focus"",""4"",""923427""
""blur"",""61"",""1394848""
""focus"",""61"",""1445494""
","""event"",""trial"",""time""
""blur"",""4"",""179927""
""blur"",""61"",""1394848""
","""event"",""trial"",""time""
""focus"",""4"",""923427""
""focus"",""61"",""1445494""
","""event"",""trial"",""time""
""fullscreenenter"",""1"",""16691""
","
",,404.6,run_exp/static/images/task_images/land.jpg,76,,,,,,,11,,,4,,,,,,,,96800,1,2,TRUE,,,
travel,111,1570797,0.0-36.0-0.0,"""event"",""trial"",""time""
""fullscreenenter"",""1"",""16691""
""blur"",""4"",""179927""
""focus"",""4"",""923427""
""blur"",""61"",""1394848""
""focus"",""61"",""1445494""
","""event"",""trial"",""time""
""blur"",""4"",""179927""
""blur"",""61"",""1394848""
","""event"",""trial"",""time""
""focus"",""4"",""923427""
""focus"",""61"",""1445494""
","""event"",""trial"",""time""
""fullscreenenter"",""1"",""16691""
","
",,,,,,,,,,,,"[{""stimulus"":""run_exp/static/images/task_images/rocket-01.jpg"",""time"":0.20000004768371582},{""stimulus"":""run_exp/static/images/task_images/rocket-02.jpg"",""time"":1072.7000000476837},{""stimulus"":""run_exp/static/images/task_images/rocket-03.jpg"",""time"":2140.8000000715256},{""stimulus"":""run_exp/static/images/task_images/rocket-04.jpg"",""time"":3200.7000000476837},{""stimulus"":""run_exp/static/images/task_images/rocket-05.jpg"",""time"":4268.600000023842},{""stimulus"":""run_exp/static/images/task_images/rocket-06.jpg"",""time"":5333.899999976158},{""stimulus"":""run_exp/static/images/task_images/rocket-07.jpg"",""time"":6407.899999976158},{""stimulus"":""run_exp/static/images/task_images/rocket-08.jpg"",""time"":7472.800000071526},{""stimulus"":""run_exp/static/images/task_images/rocket-09.jpg"",""time"":8535.899999976158}]",[],4,,,,,,,,,,,,,,
alien_welcome,112,1575805,0.0-36.0-1.0,"""event"",""trial"",""time""
""fullscreenenter"",""1"",""16691""
""blur"",""4"",""179927""
""focus"",""4"",""923427""
""blur"",""61"",""1394848""
""focus"",""61"",""1445494""
","""event"",""trial"",""time""
""blur"",""4"",""179927""
""blur"",""61"",""1394848""
","""event"",""trial"",""time""
""focus"",""4"",""923427""
""focus"",""61"",""1445494""
","""event"",""trial"",""time""
""fullscreenenter"",""1"",""16691""
","
",,null,run_exp/static/images/task_images/aliens/old_aliens/planet/alien_planet-40.jpg,null,,,,,,,,,,,,,40,"15,32,78,62,40,12,56,72,31,33,25,76,55,24,21,36,29,22,2,43,57,18,59,19,5,7,71,54,23,60,50,28,48,26,69,67,75,3,70,64,4,42,77,73",,,,,,,,,,
land,113,1576318,0.0-36.0-2.0,"""event"",""trial"",""time""
""fullscreenenter"",""1"",""16691""
""blur"",""4"",""179927""
""focus"",""4"",""923427""
""blur"",""61"",""1394848""
""focus"",""61"",""1445494""
","""event"",""trial"",""time""
""blur"",""4"",""179927""
""blur"",""61"",""1394848""
","""event"",""trial"",""time""
""focus"",""4"",""923427""
""focus"",""61"",""1445494""
","""event"",""trial"",""time""
""fullscreenenter"",""1"",""16691""
","
",,null,run_exp/static/images/task_images/land.jpg,null,,,,,,,99,,,5,,,,,,,,,,,,,,
dig,114,1578333,0.0-36.0-3.0,"""event"",""trial"",""time""
""fullscreenenter"",""1"",""16691""
""blur"",""4"",""179927""
""focus"",""4"",""923427""
""blur"",""61"",""1394848""
""focus"",""61"",""1445494""
","""event"",""trial"",""time""
""blur"",""4"",""179927""
""blur"",""61"",""1394848""
","""event"",""trial"",""time""
""focus"",""4"",""923427""
""focus"",""61"",""1445494""
","""event"",""trial"",""time""
""fullscreenenter"",""1"",""16691""
","
",,,,,,,,,,,,"[{""stimulus"":""run_exp/static/images/task_images/dig.jpg"",""time"":0.40000009536743164},{""stimulus"":""run_exp/static/images/task_images/land.jpg"",""time"":674.5},{""stimulus"":""run_exp/static/images/task_images/dig.jpg"",""time"":1341.3000000715256}]",[],5,,,,,,,,,,,,,,
harvest,115,1579342,0.0-36.0-4.0,"""event"",""trial"",""time""
""fullscreenenter"",""1"",""16691""
""blur"",""4"",""179927""
""focus"",""4"",""923427""
""blur"",""61"",""1394848""
""focus"",""61"",""1445494""
","""event"",""trial"",""time""
""blur"",""4"",""179927""
""blur"",""61"",""1394848""
","""event"",""trial"",""time""
""focus"",""4"",""923427""
""focus"",""61"",""1445494""
","""event"",""trial"",""time""
""fullscreenenter"",""1"",""16691""
","
",,null,run_exp/static/images/task_images/gems/99.jpg,null,,,,,,,53,,,5,,,,,99,0.536886874,0.535353535,,,,,,,
decision,116,1579734,0.0-36.0-5.0,"""event"",""trial"",""time""
""fullscreenenter"",""1"",""16691""
""blur"",""4"",""179927""
""focus"",""4"",""923427""
""blur"",""61"",""1394848""
""focus"",""61"",""1445494""
","""event"",""trial"",""time""
""blur"",""4"",""179927""
""blur"",""61"",""1394848""
","""event"",""trial"",""time""
""focus"",""4"",""923427""
""focus"",""61"",""1445494""
","""event"",""trial"",""time""
""fullscreenenter"",""1"",""16691""
","
",,390,run_exp/static/images/task_images/land.jpg,65,,,,,,,53,,,5,,,,,,,,115341,1,0,FALSE,,,
dig,117,1582354,0.0-37.0-0.0,"""event"",""trial"",""time""
""fullscreenenter"",""1"",""16691""
""blur"",""4"",""179927""
""focus"",""4"",""923427""
""blur"",""61"",""1394848""
""focus"",""61"",""1445494""
","""event"",""trial"",""time""
""blur"",""4"",""179927""
""blur"",""61"",""1394848""
","""event"",""trial"",""time""
""focus"",""4"",""923427""
""focus"",""61"",""1445494""
","""event"",""trial"",""time""
""fullscreenenter"",""1"",""16691""
","
",,,,,,,,,,,,"[{""stimulus"":""run_exp/static/images/task_images/dig.jpg"",""time"":0.20000004768371582},{""stimulus"":""run_exp/static/images/task_images/land.jpg"",""time"":883},{""stimulus"":""run_exp/static/images/task_images/dig.jpg"",""time"":1747}]",[],5,,,,,,,,,,,,,,
harvest,118,1583363,0.0-37.0-1.0,"""event"",""trial"",""time""
""fullscreenenter"",""1"",""16691""
""blur"",""4"",""179927""
""focus"",""4"",""923427""
""blur"",""61"",""1394848""
""focus"",""61"",""1445494""
","""event"",""trial"",""time""
""blur"",""4"",""179927""
""blur"",""61"",""1394848""
","""event"",""trial"",""time""
""focus"",""4"",""923427""
""focus"",""61"",""1445494""
","""event"",""trial"",""time""
""fullscreenenter"",""1"",""16691""
","
",,null,run_exp/static/images/task_images/gems/53.jpg,null,,,,,,,24,,,5,,,,,53,0.461072138,0.452830189,,,,,,,
decision,119,1583985,0.0-37.0-2.0,"""event"",""trial"",""time""
""fullscreenenter"",""1"",""16691""
""blur"",""4"",""179927""
""focus"",""4"",""923427""
""blur"",""61"",""1394848""
""focus"",""61"",""1445494""
","""event"",""trial"",""time""
""blur"",""4"",""179927""
""blur"",""61"",""1394848""
","""event"",""trial"",""time""
""focus"",""4"",""923427""
""focus"",""61"",""1445494""
","""event"",""trial"",""time""
""fullscreenenter"",""1"",""16691""
","
",,620,run_exp/static/images/task_images/land.jpg,76,,,,,,,24,,,5,,,,,,,,119592,1,1,TRUE,,,
travel,120,1593373,0.0-38.0-0.0,"""event"",""trial"",""time""
""fullscreenenter"",""1"",""16691""
""blur"",""4"",""179927""
""focus"",""4"",""923427""
""blur"",""61"",""1394848""
""focus"",""61"",""1445494""
","""event"",""trial"",""time""
""blur"",""4"",""179927""
""blur"",""61"",""1394848""
","""event"",""trial"",""time""
""focus"",""4"",""923427""
""focus"",""61"",""1445494""
","""event"",""trial"",""time""
""fullscreenenter"",""1"",""16691""
","
",,,,,,,,,,,,"[{""stimulus"":""run_exp/static/images/task_images/rocket-01.jpg"",""time"":0.20000004768371582},{""stimulus"":""run_exp/static/images/task_images/rocket-02.jpg"",""time"":1048.6000000238419},{""stimulus"":""run_exp/static/images/task_images/rocket-03.jpg"",""time"":2095.7000000476837},{""stimulus"":""run_exp/static/images/task_images/rocket-04.jpg"",""time"":3136.7000000476837},{""stimulus"":""run_exp/static/images/task_images/rocket-05.jpg"",""time"":4174.100000023842},{""stimulus"":""run_exp/static/images/task_images/rocket-06.jpg"",""time"":5213.900000095367},{""stimulus"":""run_exp/static/images/task_images/rocket-07.jpg"",""time"":6264.900000095367},{""stimulus"":""run_exp/static/images/task_images/rocket-08.jpg"",""time"":7304.400000095367},{""stimulus"":""run_exp/static/images/task_images/rocket-09.jpg"",""time"":8344.900000095367}]",[],5,,,,,,,,,,,,,,
alien_welcome,121,1598381,0.0-38.0-1.0,"""event"",""trial"",""time""
""fullscreenenter"",""1"",""16691""
""blur"",""4"",""179927""
""focus"",""4"",""923427""
""blur"",""61"",""1394848""
""focus"",""61"",""1445494""
","""event"",""trial"",""time""
""blur"",""4"",""179927""
""blur"",""61"",""1394848""
","""event"",""trial"",""time""
""focus"",""4"",""923427""
""focus"",""61"",""1445494""
","""event"",""trial"",""time""
""fullscreenenter"",""1"",""16691""
","
",,null,run_exp/static/images/task_images/aliens/old_aliens/planet/alien_planet-12.jpg,null,,,,,,,,,,,,,12,"15,32,78,62,40,12,56,72,31,33,25,76,55,24,21,36,29,22,2,43,57,18,59,19,5,7,71,54,23,60,50,28,48,26,69,67,75,3,70,64,4,42,77,73",,,,,,,,,,
land,122,1598893,0.0-38.0-2.0,"""event"",""trial"",""time""
""fullscreenenter"",""1"",""16691""
""blur"",""4"",""179927""
""focus"",""4"",""923427""
""blur"",""61"",""1394848""
""focus"",""61"",""1445494""
","""event"",""trial"",""time""
""blur"",""4"",""179927""
""blur"",""61"",""1394848""
","""event"",""trial"",""time""
""focus"",""4"",""923427""
""focus"",""61"",""1445494""
","""event"",""trial"",""time""
""fullscreenenter"",""1"",""16691""
","
",,null,run_exp/static/images/task_images/land.jpg,null,,,,,,,104,,,6,,,,,,,,,,,,,,
dig,123,1600909,0.0-38.0-3.0,"""event"",""trial"",""time""
""fullscreenenter"",""1"",""16691""
""blur"",""4"",""179927""
""focus"",""4"",""923427""
""blur"",""61"",""1394848""
""focus"",""61"",""1445494""
","""event"",""trial"",""time""
""blur"",""4"",""179927""
""blur"",""61"",""1394848""
","""event"",""trial"",""time""
""focus"",""4"",""923427""
""focus"",""61"",""1445494""
","""event"",""trial"",""time""
""fullscreenenter"",""1"",""16691""
","
",,,,,,,,,,,,"[{""stimulus"":""run_exp/static/images/task_images/dig.jpg"",""time"":0.5},{""stimulus"":""run_exp/static/images/task_images/land.jpg"",""time"":675},{""stimulus"":""run_exp/static/images/task_images/dig.jpg"",""time"":1337.7000000476837}]",[],6,,,,,,,,,,,,,,
harvest,124,1601918,0.0-38.0-4.0,"""event"",""trial"",""time""
""fullscreenenter"",""1"",""16691""
""blur"",""4"",""179927""
""focus"",""4"",""923427""
""blur"",""61"",""1394848""
""focus"",""61"",""1445494""
","""event"",""trial"",""time""
""blur"",""4"",""179927""
""blur"",""61"",""1394848""
","""event"",""trial"",""time""
""focus"",""4"",""923427""
""focus"",""61"",""1445494""
","""event"",""trial"",""time""
""fullscreenenter"",""1"",""16691""
","
",,null,run_exp/static/images/task_images/gems/104.jpg,null,,,,,,,86,,,6,,,,,104,0.826794988,0.826923077,,,,,,,
decision,125,1602429,0.0-38.0-5.0,"""event"",""trial"",""time""
""fullscreenenter"",""1"",""16691""
""blur"",""4"",""179927""
""focus"",""4"",""923427""
""blur"",""61"",""1394848""
""focus"",""61"",""1445494""
","""event"",""trial"",""time""
""blur"",""4"",""179927""
""blur"",""61"",""1394848""
","""event"",""trial"",""time""
""focus"",""4"",""923427""
""focus"",""61"",""1445494""
","""event"",""trial"",""time""
""fullscreenenter"",""1"",""16691""
","
",,507.9,run_exp/static/images/task_images/land.jpg,65,,,,,,,86,,,6,,,,,,,,138036,1,0,FALSE,,,
dig,126,1604931,0.0-39.0-0.0,"""event"",""trial"",""time""
""fullscreenenter"",""1"",""16691""
""blur"",""4"",""179927""
""focus"",""4"",""923427""
""blur"",""61"",""1394848""
""focus"",""61"",""1445494""
","""event"",""trial"",""time""
""blur"",""4"",""179927""
""blur"",""61"",""1394848""
","""event"",""trial"",""time""
""focus"",""4"",""923427""
""focus"",""61"",""1445494""
","""event"",""trial"",""time""
""fullscreenenter"",""1"",""16691""
","
",,,,,,,,,,,,"[{""stimulus"":""run_exp/static/images/task_images/dig.jpg"",""time"":0.09999990463256836},{""stimulus"":""run_exp/static/images/task_images/land.jpg"",""time"":835.5999999046326},{""stimulus"":""run_exp/static/images/task_images/dig.jpg"",""time"":1667.7999999523163}]",[],6,,,,,,,,,,,,,,
harvest,127,1605938,0.0-39.0-1.0,"""event"",""trial"",""time""
""fullscreenenter"",""1"",""16691""
""blur"",""4"",""179927""
""focus"",""4"",""923427""
""blur"",""61"",""1394848""
""focus"",""61"",""1445494""
","""event"",""trial"",""time""
""blur"",""4"",""179927""
""blur"",""61"",""1394848""
","""event"",""trial"",""time""
""focus"",""4"",""923427""
""focus"",""61"",""1445494""
","""event"",""trial"",""time""
""fullscreenenter"",""1"",""16691""
","
",,null,run_exp/static/images/task_images/gems/86.jpg,null,,,,,,,65,,,6,,,,,86,0.757202267,0.755813953,,,,,,,
decision,128,1606334,0.0-39.0-2.0,"""event"",""trial"",""time""
""fullscreenenter"",""1"",""16691""
""blur"",""4"",""179927""
""focus"",""4"",""923427""
""blur"",""61"",""1394848""
""focus"",""61"",""1445494""
","""event"",""trial"",""time""
""blur"",""4"",""179927""
""blur"",""61"",""1394848""
","""event"",""trial"",""time""
""focus"",""4"",""923427""
""focus"",""61"",""1445494""
","""event"",""trial"",""time""
""fullscreenenter"",""1"",""16691""
","
",,394.1999999,run_exp/static/images/task_images/land.jpg,65,,,,,,,65,,,6,,,,,,,,141942,1,1,FALSE,,,
dig,129,1608948,0.0-40.0-0.0,"""event"",""trial"",""time""
""fullscreenenter"",""1"",""16691""
""blur"",""4"",""179927""
""focus"",""4"",""923427""
""blur"",""61"",""1394848""
""focus"",""61"",""1445494""
","""event"",""trial"",""time""
""blur"",""4"",""179927""
""blur"",""61"",""1394848""
","""event"",""trial"",""time""
""focus"",""4"",""923427""
""focus"",""61"",""1445494""
","""event"",""trial"",""time""
""fullscreenenter"",""1"",""16691""
","
",,,,,,,,,,,,"[{""stimulus"":""run_exp/static/images/task_images/dig.jpg"",""time"":0.2999999523162842},{""stimulus"":""run_exp/static/images/task_images/land.jpg"",""time"":875},{""stimulus"":""run_exp/static/images/task_images/dig.jpg"",""time"":1746.8999999761581}]",[],6,,,,,,,,,,,,,,
harvest,130,1609956,0.0-40.0-1.0,"""event"",""trial"",""time""
""fullscreenenter"",""1"",""16691""
""blur"",""4"",""179927""
""focus"",""4"",""923427""
""blur"",""61"",""1394848""
""focus"",""61"",""1445494""
","""event"",""trial"",""time""
""blur"",""4"",""179927""
""blur"",""61"",""1394848""
","""event"",""trial"",""time""
""focus"",""4"",""923427""
""focus"",""61"",""1445494""
","""event"",""trial"",""time""
""fullscreenenter"",""1"",""16691""
","
",,null,run_exp/static/images/task_images/gems/65.jpg,null,,,,,,,52,,,6,,,,,65,0.805732585,0.8,,,,,,,
decision,131,1610461,0.0-40.0-2.0,"""event"",""trial"",""time""
""fullscreenenter"",""1"",""16691""
""blur"",""4"",""179927""
""focus"",""4"",""923427""
""blur"",""61"",""1394848""
""focus"",""61"",""1445494""
","""event"",""trial"",""time""
""blur"",""4"",""179927""
""blur"",""61"",""1394848""
","""event"",""trial"",""time""
""focus"",""4"",""923427""
""focus"",""61"",""1445494""
","""event"",""trial"",""time""
""fullscreenenter"",""1"",""16691""
","
",,502.3,run_exp/static/images/task_images/land.jpg,65,,,,,,,52,,,6,,,,,,,,146068,1,2,FALSE,,,
dig,132,1612973,0.0-41.0-0.0,"""event"",""trial"",""time""
""fullscreenenter"",""1"",""16691""
""blur"",""4"",""179927""
""focus"",""4"",""923427""
""blur"",""61"",""1394848""
""focus"",""61"",""1445494""
","""event"",""trial"",""time""
""blur"",""4"",""179927""
""blur"",""61"",""1394848""
","""event"",""trial"",""time""
""focus"",""4"",""923427""
""focus"",""61"",""1445494""
","""event"",""trial"",""time""
""fullscreenenter"",""1"",""16691""
","
",,,,,,,,,,,,"[{""stimulus"":""run_exp/static/images/task_images/dig.jpg"",""time"":0.10000002384185791},{""stimulus"":""run_exp/static/images/task_images/land.jpg"",""time"":844.8000000715256},{""stimulus"":""run_exp/static/images/task_images/dig.jpg"",""time"":1676.7000000476837}]",[],6,,,,,,,,,,,,,,
harvest,133,1613981,0.0-41.0-1.0,"""event"",""trial"",""time""
""fullscreenenter"",""1"",""16691""
""blur"",""4"",""179927""
""focus"",""4"",""923427""
""blur"",""61"",""1394848""
""focus"",""61"",""1445494""
","""event"",""trial"",""time""
""blur"",""4"",""179927""
""blur"",""61"",""1394848""
","""event"",""trial"",""time""
""focus"",""4"",""923427""
""focus"",""61"",""1445494""
","""event"",""trial"",""time""
""fullscreenenter"",""1"",""16691""
","
",,null,run_exp/static/images/task_images/gems/52.jpg,null,,,,,,,36,,,6,,,,,52,0.698563803,0.692307692,,,,,,,
decision,134,1614967,0.0-41.0-2.0,"""event"",""trial"",""time""
""fullscreenenter"",""1"",""16691""
""blur"",""4"",""179927""
""focus"",""4"",""923427""
""blur"",""61"",""1394848""
""focus"",""61"",""1445494""
","""event"",""trial"",""time""
""blur"",""4"",""179927""
""blur"",""61"",""1394848""
","""event"",""trial"",""time""
""focus"",""4"",""923427""
""focus"",""61"",""1445494""
","""event"",""trial"",""time""
""fullscreenenter"",""1"",""16691""
","
",,983.6,run_exp/static/images/task_images/land.jpg,65,,,,,,,36,,,6,,,,,,,,150575,1,3,FALSE,,,
dig,135,1616989,0.0-42.0-0.0,"""event"",""trial"",""time""
""fullscreenenter"",""1"",""16691""
""blur"",""4"",""179927""
""focus"",""4"",""923427""
""blur"",""61"",""1394848""
""focus"",""61"",""1445494""
","""event"",""trial"",""time""
""blur"",""4"",""179927""
""blur"",""61"",""1394848""
","""event"",""trial"",""time""
""focus"",""4"",""923427""
""focus"",""61"",""1445494""
","""event"",""trial"",""time""
""fullscreenenter"",""1"",""16691""
","
",,,,,,,,,,,,"[{""stimulus"":""run_exp/static/images/task_images/dig.jpg"",""time"":0.20000004768371582},{""stimulus"":""run_exp/static/images/task_images/land.jpg"",""time"":681.8000000715256},{""stimulus"":""run_exp/static/images/task_images/dig.jpg"",""time"":1354.2000000476837}]",[],6,,,,,,,,,,,,,,
harvest,136,1617997,0.0-42.0-1.0,"""event"",""trial"",""time""
""fullscreenenter"",""1"",""16691""
""blur"",""4"",""179927""
""focus"",""4"",""923427""
""blur"",""61"",""1394848""
""focus"",""61"",""1445494""
","""event"",""trial"",""time""
""blur"",""4"",""179927""
""blur"",""61"",""1394848""
","""event"",""trial"",""time""
""focus"",""4"",""923427""
""focus"",""61"",""1445494""
","""event"",""trial"",""time""
""fullscreenenter"",""1"",""16691""
","
",,null,run_exp/static/images/task_images/gems/36.jpg,null,,,,,,,31,,,6,,,,,36,0.863063795,0.861111111,,,,,,,
decision,137,1618428,0.0-42.0-2.0,"""event"",""trial"",""time""
""fullscreenenter"",""1"",""16691""
""blur"",""4"",""179927""
""focus"",""4"",""923427""
""blur"",""61"",""1394848""
""focus"",""61"",""1445494""
","""event"",""trial"",""time""
""blur"",""4"",""179927""
""blur"",""61"",""1394848""
","""event"",""trial"",""time""
""focus"",""4"",""923427""
""focus"",""61"",""1445494""
","""event"",""trial"",""time""
""fullscreenenter"",""1"",""16691""
","
",,428.5,run_exp/static/images/task_images/land.jpg,76,,,,,,,31,,,6,,,,,,,,154035,1,4,TRUE,,,
travel,138,1628002,0.0-43.0-0.0,"""event"",""trial"",""time""
""fullscreenenter"",""1"",""16691""
""blur"",""4"",""179927""
""focus"",""4"",""923427""
""blur"",""61"",""1394848""
""focus"",""61"",""1445494""
","""event"",""trial"",""time""
""blur"",""4"",""179927""
""blur"",""61"",""1394848""
","""event"",""trial"",""time""
""focus"",""4"",""923427""
""focus"",""61"",""1445494""
","""event"",""trial"",""time""
""fullscreenenter"",""1"",""16691""
","
",,,,,,,,,,,,"[{""stimulus"":""run_exp/static/images/task_images/rocket-01.jpg"",""time"":0.19999992847442627},{""stimulus"":""run_exp/static/images/task_images/rocket-02.jpg"",""time"":1069.0999999046326},{""stimulus"":""run_exp/static/images/task_images/rocket-03.jpg"",""time"":2130.1999999284744},{""stimulus"":""run_exp/static/images/task_images/rocket-04.jpg"",""time"":3197.399999976158},{""stimulus"":""run_exp/static/images/task_images/rocket-05.jpg"",""time"":4260.099999904633},{""stimulus"":""run_exp/static/images/task_images/rocket-06.jpg"",""time"":5325.699999928474},{""stimulus"":""run_exp/static/images/task_images/rocket-07.jpg"",""time"":6385.699999928474},{""stimulus"":""run_exp/static/images/task_images/rocket-08.jpg"",""time"":7452.399999976158},{""stimulus"":""run_exp/static/images/task_images/rocket-09.jpg"",""time"":8509.5}]",[],6,,,,,,,,,,,,,,
alien_welcome,139,1633011,0.0-43.0-1.0,"""event"",""trial"",""time""
""fullscreenenter"",""1"",""16691""
""blur"",""4"",""179927""
""focus"",""4"",""923427""
""blur"",""61"",""1394848""
""focus"",""61"",""1445494""
","""event"",""trial"",""time""
""blur"",""4"",""179927""
""blur"",""61"",""1394848""
","""event"",""trial"",""time""
""focus"",""4"",""923427""
""focus"",""61"",""1445494""
","""event"",""trial"",""time""
""fullscreenenter"",""1"",""16691""
","
",,null,run_exp/static/images/task_images/aliens/old_aliens/planet/alien_planet-56.jpg,null,,,,,,,,,,,,,56,"15,32,78,62,40,12,56,72,31,33,25,76,55,24,21,36,29,22,2,43,57,18,59,19,5,7,71,54,23,60,50,28,48,26,69,67,75,3,70,64,4,42,77,73",,,,,,,,,,
land,140,1633523,0.0-43.0-2.0,"""event"",""trial"",""time""
""fullscreenenter"",""1"",""16691""
""blur"",""4"",""179927""
""focus"",""4"",""923427""
""blur"",""61"",""1394848""
""focus"",""61"",""1445494""
","""event"",""trial"",""time""
""blur"",""4"",""179927""
""blur"",""61"",""1394848""
","""event"",""trial"",""time""
""focus"",""4"",""923427""
""focus"",""61"",""1445494""
","""event"",""trial"",""time""
""fullscreenenter"",""1"",""16691""
","
",,null,run_exp/static/images/task_images/land.jpg,null,,,,,,,95,,,7,,,,,,,,,,,,,,
dig,141,1635533,0.0-43.0-3.0,"""event"",""trial"",""time""
""fullscreenenter"",""1"",""16691""
""blur"",""4"",""179927""
""focus"",""4"",""923427""
""blur"",""61"",""1394848""
""focus"",""61"",""1445494""
","""event"",""trial"",""time""
""blur"",""4"",""179927""
""blur"",""61"",""1394848""
","""event"",""trial"",""time""
""focus"",""4"",""923427""
""focus"",""61"",""1445494""
","""event"",""trial"",""time""
""fullscreenenter"",""1"",""16691""
","
",,,,,,,,,,,,"[{""stimulus"":""run_exp/static/images/task_images/dig.jpg"",""time"":0.3999999761581421},{""stimulus"":""run_exp/static/images/task_images/land.jpg"",""time"":680.3999999761581},{""stimulus"":""run_exp/static/images/task_images/dig.jpg"",""time"":1341.7999999523163}]",[],7,,,,,,,,,,,,,,
harvest,142,1636541,0.0-43.0-4.0,"""event"",""trial"",""time""
""fullscreenenter"",""1"",""16691""
""blur"",""4"",""179927""
""focus"",""4"",""923427""
""blur"",""61"",""1394848""
""focus"",""61"",""1445494""
","""event"",""trial"",""time""
""blur"",""4"",""179927""
""blur"",""61"",""1394848""
","""event"",""trial"",""time""
""focus"",""4"",""923427""
""focus"",""61"",""1445494""
","""event"",""trial"",""time""
""fullscreenenter"",""1"",""16691""
","
",,null,run_exp/static/images/task_images/gems/95.jpg,null,,,,,,,80,,,7,,,,,95,0.83748436,0.842105263,,,,,,,
decision,143,1638291,0.0-43.0-5.0,"""event"",""trial"",""time""
""fullscreenenter"",""1"",""16691""
""blur"",""4"",""179927""
""focus"",""4"",""923427""
""blur"",""61"",""1394848""
""focus"",""61"",""1445494""
","""event"",""trial"",""time""
""blur"",""4"",""179927""
""blur"",""61"",""1394848""
","""event"",""trial"",""time""
""focus"",""4"",""923427""
""focus"",""61"",""1445494""
","""event"",""trial"",""time""
""fullscreenenter"",""1"",""16691""
","
",,1747.5,run_exp/static/images/task_images/land.jpg,65,,,,,,,80,,,7,,,,,,,,173898,1,0,FALSE,,,
dig,144,1639555,0.0-44.0-0.0,"""event"",""trial"",""time""
""fullscreenenter"",""1"",""16691""
""blur"",""4"",""179927""
""focus"",""4"",""923427""
""blur"",""61"",""1394848""
""focus"",""61"",""1445494""
","""event"",""trial"",""time""
""blur"",""4"",""179927""
""blur"",""61"",""1394848""
","""event"",""trial"",""time""
""focus"",""4"",""923427""
""focus"",""61"",""1445494""
","""event"",""trial"",""time""
""fullscreenenter"",""1"",""16691""
","
",,,,,,,,,,,,"[{""stimulus"":""run_exp/static/images/task_images/dig.jpg"",""time"":0.10000002384185791},{""stimulus"":""run_exp/static/images/task_images/land.jpg"",""time"":422.7999999523163},{""stimulus"":""run_exp/static/images/task_images/dig.jpg"",""time"":844.1999999284744}]",[],7,,,,,,,,,,,,,,
harvest,145,1640562,0.0-44.0-1.0,"""event"",""trial"",""time""
""fullscreenenter"",""1"",""16691""
""blur"",""4"",""179927""
""focus"",""4"",""923427""
""blur"",""61"",""1394848""
""focus"",""61"",""1445494""
","""event"",""trial"",""time""
""blur"",""4"",""179927""
""blur"",""61"",""1394848""
","""event"",""trial"",""time""
""focus"",""4"",""923427""
""focus"",""61"",""1445494""
","""event"",""trial"",""time""
""fullscreenenter"",""1"",""16691""
","
",,null,run_exp/static/images/task_images/gems/80.jpg,null,,,,,,,68,,,7,,,,,80,0.85418107,0.85,,,,,,,
decision,146,1641374,0.0-44.0-2.0,"""event"",""trial"",""time""
""fullscreenenter"",""1"",""16691""
""blur"",""4"",""179927""
""focus"",""4"",""923427""
""blur"",""61"",""1394848""
""focus"",""61"",""1445494""
","""event"",""trial"",""time""
""blur"",""4"",""179927""
""blur"",""61"",""1394848""
","""event"",""trial"",""time""
""focus"",""4"",""923427""
""focus"",""61"",""1445494""
","""event"",""trial"",""time""
""fullscreenenter"",""1"",""16691""
","
",,810.1,run_exp/static/images/task_images/land.jpg,65,,,,,,,68,,,7,,,,,,,,176982,1,1,FALSE,,,
dig,147,1643570,0.0-45.0-0.0,"""event"",""trial"",""time""
""fullscreenenter"",""1"",""16691""
""blur"",""4"",""179927""
""focus"",""4"",""923427""
""blur"",""61"",""1394848""
""focus"",""61"",""1445494""
","""event"",""trial"",""time""
""blur"",""4"",""179927""
""blur"",""61"",""1394848""
","""event"",""trial"",""time""
""focus"",""4"",""923427""
""focus"",""61"",""1445494""
","""event"",""trial"",""time""
""fullscreenenter"",""1"",""16691""
","
",,,,,,,,,,,,"[{""stimulus"":""run_exp/static/images/task_images/dig.jpg"",""time"":0.2999999523162842},{""stimulus"":""run_exp/static/images/task_images/land.jpg"",""time"":739.5999999046326},{""stimulus"":""run_exp/static/images/task_images/dig.jpg"",""time"":1467.2999999523163}]",[],7,,,,,,,,,,,,,,
harvest,148,1644579,0.0-45.0-1.0,"""event"",""trial"",""time""
""fullscreenenter"",""1"",""16691""
""blur"",""4"",""179927""
""focus"",""4"",""923427""
""blur"",""61"",""1394848""
""focus"",""61"",""1445494""
","""event"",""trial"",""time""
""blur"",""4"",""179927""
""blur"",""61"",""1394848""
","""event"",""trial"",""time""
""focus"",""4"",""923427""
""focus"",""61"",""1445494""
","""event"",""trial"",""time""
""fullscreenenter"",""1"",""16691""
","
",,null,run_exp/static/images/task_images/gems/68.jpg,null,,,,,,,52,,,7,,,,,68,0.760457698,0.764705882,,,,,,,
decision,149,1645113,0.0-45.0-2.0,"""event"",""trial"",""time""
""fullscreenenter"",""1"",""16691""
""blur"",""4"",""179927""
""focus"",""4"",""923427""
""blur"",""61"",""1394848""
""focus"",""61"",""1445494""
","""event"",""trial"",""time""
""blur"",""4"",""179927""
""blur"",""61"",""1394848""
","""event"",""trial"",""time""
""focus"",""4"",""923427""
""focus"",""61"",""1445494""
","""event"",""trial"",""time""
""fullscreenenter"",""1"",""16691""
","
",,531.7,run_exp/static/images/task_images/land.jpg,65,,,,,,,52,,,7,,,,,,,,180720,1,2,FALSE,,,
dig,150,1647586,0.0-46.0-0.0,"""event"",""trial"",""time""
""fullscreenenter"",""1"",""16691""
""blur"",""4"",""179927""
""focus"",""4"",""923427""
""blur"",""61"",""1394848""
""focus"",""61"",""1445494""
","""event"",""trial"",""time""
""blur"",""4"",""179927""
""blur"",""61"",""1394848""
","""event"",""trial"",""time""
""focus"",""4"",""923427""
""focus"",""61"",""1445494""
","""event"",""trial"",""time""
""fullscreenenter"",""1"",""16691""
","
