trial_type,trial_index,time_elapsed,internal_node_id,interactions,blur_events,focus_events,fullscreenenter_events,fullscreenexit_events,success,rt,stimulus,key_press,prompt,subject_id,participant_id,age,gender,button_pressed,next_reward,animation_sequence,responses,planet,curr_prac_trial,n_prac_rounds,alien,aliens,reward_received,decay_rate_actual,decay_rate_exp,time_in_block,block_num,prt,last_trial_on_planet,button_html,bonus,num_failures
pavlovia,0,6,0.0-0.0,"""event"",""trial"",""time""
""fullscreenenter"",""1"",""2533""
","
","
","""event"",""trial"",""time""
""fullscreenenter"",""1"",""2533""
","
",,,,,,,,,,,,,,,,,,,,,,,,,,,,
fullscreen,1,3510,0.0-1.0,"""event"",""trial"",""time""
""fullscreenenter"",""1"",""2533""
","
","
","""event"",""trial"",""time""
""fullscreenenter"",""1"",""2533""
","
",TRUE,,,,,,,,,,,,,,,,,,,,,,,,,,,
instruc_welcome,2,13311,0.0-2.0,"""event"",""trial"",""time""
""fullscreenenter"",""1"",""2533""
","
","
","""event"",""trial"",""time""
""fullscreenenter"",""1"",""2533""
","
",,null,run_exp/static/audio/clip_1_welcome.m4a,null,"<p>Howdy! In this experiment, you’ll be an explorer traveling through space to collect space treasure.</p><p>Your mission is to collect as much treasure as possible.</p><br><br><p><img src='run_exp/static/images/task_images/opening_img-01.jpg' height='300' width='auto'></p>",9209,169,23.16,Female,,,,,,,,,,,,,,,,,,,
audio-keyboard-response,3,29930,0.0-3.0,"""event"",""trial"",""time""
""fullscreenenter"",""1"",""2533""
","
","
","""event"",""trial"",""time""
""fullscreenenter"",""1"",""2533""
","
",,null,run_exp/static/audio/clip_2_move.m4a,null,,,,,,,,,,,,,,,,,,,,,,,,
welcome_dec,4,37048,0.0-4.0,"""event"",""trial"",""time""
""fullscreenenter"",""1"",""2533""
","
","
","""event"",""trial"",""time""
""fullscreenenter"",""1"",""2533""
","
",,7114.7,"<p>Howdy! In this experiment, you’ll be an explorer traveling through space to collect space treasure.</p><p>Your mission is to collect as much treasure as possible.</p><br><br><p><img src='run_exp/static/images/task_images/opening_img-01.jpg' height='300' width='auto'></p>",,,,,,,1,,,,,,,,,,,,,,,,,,
html-keyboard-response,5,39227,0.0-5.0,"""event"",""trial"",""time""
""fullscreenenter"",""1"",""2533""
","
","
","""event"",""trial"",""time""
""fullscreenenter"",""1"",""2533""
","
",,2174.5,"<p>Howdy! In this experiment, you’ll be an explorer traveling through space to collect space treasure.</p><p>Your mission is to collect as much treasure as possible.</p><br><br><p><img src='run_exp/static/images/task_images/opening_img-01.jpg' height='300' width='auto'></p><button class=""jspsych-html-btn-unchosen""><img src=""run_exp/static/images/task_images/planet-01.jpg"" height=""50""></button><button class=""jspsych-html-btn-chosen""><img src=""run_exp/static/images/task_images/planet-02.jpg"" height=""50""></button><p><b>[press the space bar to lock in your answer]<b><br></p>",32,,,,,,,,,,,,,,,,,,,,,,,,
instruc_goal,6,49321,0.0-6.0-0.0,"""event"",""trial"",""time""
""fullscreenenter"",""1"",""2533""
","
","
","""event"",""trial"",""time""
""fullscreenenter"",""1"",""2533""
","
",,null,run_exp/static/audio/clip_3_goal.m4a,null,"<p> As a space explorer, you’ll visit different planets to dig for space treasure, these pink gems.</p> <p> The more treasure you dig up, the more bonus money you’ll win! </p><br><br><p><img src='run_exp/static/images/task_images/pink_gem.jpg' height='300' width='auto'></p>",,,,,,,,,,,,,,,,,,,,,,,
instruc_goal,7,53167,0.0-6.0-1.0,"""event"",""trial"",""time""
""fullscreenenter"",""1"",""2533""
","
","
","""event"",""trial"",""time""
""fullscreenenter"",""1"",""2533""
","
",,3843.9,"<p> As a space explorer, you’ll visit different planets to dig for space treasure, these pink gems.</p> <p> The more treasure you dig up, the more bonus money you’ll win! </p><br><br><p><img src='run_exp/static/images/task_images/pink_gem.jpg' height='300' width='auto'></p>",,,,,,,1,,,,,,,,,,,,,,,,,,
html-keyboard-response,8,56406,0.0-6.0-2.0,"""event"",""trial"",""time""
""fullscreenenter"",""1"",""2533""
","
","
","""event"",""trial"",""time""
""fullscreenenter"",""1"",""2533""
","
",,3237.5,"<p> As a space explorer, you’ll visit different planets to dig for space treasure, these pink gems.</p> <p> The more treasure you dig up, the more bonus money you’ll win! </p><br><br><p><img src='run_exp/static/images/task_images/pink_gem.jpg' height='300' width='auto'></p><button class=""jspsych-html-btn-unchosen""><img src=""run_exp/static/images/task_images/planet-01.jpg"" height=""50""></button><button class=""jspsych-html-btn-chosen""><img src=""run_exp/static/images/task_images/planet-02.jpg"" height=""50""></button><p><b>[press the space bar to lock in your answer]<b><br></p>",32,,,,,,,,,,,,,,,,,,,,,,,,
instruc_dig,9,72447,0.0-7.0-0.0,"""event"",""trial"",""time""
""fullscreenenter"",""1"",""2533""
","
","
","""event"",""trial"",""time""
""fullscreenenter"",""1"",""2533""
","
",,null,run_exp/static/audio/clip_4_dig.m4a,null,,,,,,,100,,,,,,,,,,,,,,,,,
instruc_dig_try,10,73607,0.0-7.0-1.0,"""event"",""trial"",""time""
""fullscreenenter"",""1"",""2533""
","
","
","""event"",""trial"",""time""
""fullscreenenter"",""1"",""2533""
","
",,1158.2,"<p> When you’ve arrived at a new planet, you will dig once. </p> <p>Then, you get to decide if you want to stay on the planet and dig again or travel to a new planet and dig there.</p> <p> To stay and dig, press the letter <strong>‘A’</strong> on your keyboard. Try pressing it now! </p><p><img src='run_exp/static/images/task_images/land.jpg'  height='700' width='auto'></p>",65,"<p> When you’ve arrived at a new planet, you will dig once. </p> <p>Then, you get to decide if you want to stay on the planet and dig again or travel to a new planet and dig there.</p> <p> To stay and dig, press the letter <strong>‘A’</strong> on your keyboard. Try pressing it now! </p><p><img src='run_exp/static/images/task_images/land.jpg'  height='700' width='auto'></p>",,,,,,100,,,,,,,,,,,,,,,,,
dig_prac,11,75623,0.0-7.0-2.0,"""event"",""trial"",""time""
""fullscreenenter"",""1"",""2533""
","
","
","""event"",""trial"",""time""
""fullscreenenter"",""1"",""2533""
","
",,,,,,,,,,,,"[{""stimulus"":""run_exp/static/images/task_images/dig.jpg"",""time"":0.5999999940395355},{""stimulus"":""run_exp/static/images/task_images/land.jpg"",""time"":677.1999999880791},{""stimulus"":""run_exp/static/images/task_images/dig.jpg"",""time"":1340.5}]",[],,,,,,,,,,,,,,,
instruc_travel,12,111893,0.0-7.0-3.0,"""event"",""trial"",""time""
""fullscreenenter"",""1"",""2533""
","
","
","""event"",""trial"",""time""
""fullscreenenter"",""1"",""2533""
","
",,null,run_exp/static/audio/clip_5_travel.m4a,null,"<p>Every time you dig up gems, there are less gems on the planet, so the more you dig on a planet the fewer gems you’ll get with each dig.</p><p>When gems are running low, you may want to travel to a new planet. </p> <p>  Planets are very far apart in this galaxy, so it will take some time to travel between them. </p> <br><p>There are lots and lots of planets for you to visit, so you won’t be able to return to any planets you’ve seen before. </p><br><p>To leave this planet and travel to a new one, press the letter <strong>‘L’</strong> on your keyboard. Try pressing it now! </p><p><img src='run_exp/static/images/task_images/rocket-01.jpg'  height='600' width='auto'></p>",,,,,,,,,,,,,,,,,,,,,,,
instruc_travel_try,13,121440,0.0-7.0-4.0,"""event"",""trial"",""time""
""fullscreenenter"",""1"",""2533""
","
","
","""event"",""trial"",""time""
""fullscreenenter"",""1"",""2533""
","
",,9545.3,"<p>Every time you dig up gems, there are less gems on the planet, so the more you dig on a planet the fewer gems you’ll get with each dig.</p><p>When gems are running low, you may want to travel to a new planet. </p> <p>  Planets are very far apart in this galaxy, so it will take some time to travel between them. </p> <br><p>There are lots and lots of planets for you to visit, so you won’t be able to return to any planets you’ve seen before. </p><br><p>To leave this planet and travel to a new one, press the letter <strong>‘L’</strong> on your keyboard. Try pressing it now! </p><p><img src='run_exp/static/images/task_images/rocket-01.jpg'  height='600' width='auto'></p>",76,"<p>Every time you dig up gems, there are less gems on the planet, so the more you dig on a planet the fewer gems you’ll get with each dig.</p><p>When gems are running low, you may want to travel to a new planet. </p> <p>  Planets are very far apart in this galaxy, so it will take some time to travel between them. </p> <br><p>There are lots and lots of planets for you to visit, so you won’t be able to return to any planets you’ve seen before. </p><br><p>To leave this planet and travel to a new one, press the letter <strong>‘L’</strong> on your keyboard. Try pressing it now! </p><p><img src='run_exp/static/images/task_images/rocket-01.jpg'  height='600' width='auto'></p>",,,,,,,,,,,,,,,,,,,,,,,
travel_prac,14,131444,0.0-7.0-5.0,"""event"",""trial"",""time""
""fullscreenenter"",""1"",""2533""
","
","
","""event"",""trial"",""time""
""fullscreenenter"",""1"",""2533""
","
",,,,,,,,,,,,"[{""stimulus"":""run_exp/static/images/task_images/rocket-01.jpg"",""time"":0.5},{""stimulus"":""run_exp/static/images/task_images/rocket-02.jpg"",""time"":1115.7999999821186},{""stimulus"":""run_exp/static/images/task_images/rocket-03.jpg"",""time"":2226.0999999940395},{""stimulus"":""run_exp/static/images/task_images/rocket-04.jpg"",""time"":3340.7999999821186},{""stimulus"":""run_exp/static/images/task_images/rocket-05.jpg"",""time"":4453.5999999940395},{""stimulus"":""run_exp/static/images/task_images/rocket-06.jpg"",""time"":5566},{""stimulus"":""run_exp/static/images/task_images/rocket-07.jpg"",""time"":6673.799999982119},{""stimulus"":""run_exp/static/images/task_images/rocket-08.jpg"",""time"":7786.0999999940395},{""stimulus"":""run_exp/static/images/task_images/rocket-09.jpg"",""time"":8897.90000000596}]",[],0,,,,,,,,,,,,,,
instruc_alien_greet,15,158677,0.0-7.0-6.0,"""event"",""trial"",""time""
""fullscreenenter"",""1"",""2533""
","
","
","""event"",""trial"",""time""
""fullscreenenter"",""1"",""2533""
","
",,null,run_exp/static/audio/clip_6_alien.m4a,null,"<p>When you arrive at a new planet, the alien who owns the treasure mine on that planet will greet you!</p><p>The better an alien takes care of their mine the easier it is to dig for gems. Some aliens take better care of their mine than others. So, you won’t get exactly the same amount of gems on each planet.</p><p>What the alien looks like does not tell you anything about how many gems there are on the planet.</p><br><p><img src=""run_exp/static/images/task_images/aliens/instructions_aliens/planet/alien_planet-1.jpg""  height=""600"" width=""auto""></p>",,,,,,,,,,,,,,,,,,,,,,,
instruc_alien_greet,16,161844,0.0-7.0-7.0,"""event"",""trial"",""time""
""fullscreenenter"",""1"",""2533""
","
","
","""event"",""trial"",""time""
""fullscreenenter"",""1"",""2533""
","
",,3164.3,"<p>When you arrive at a new planet, the alien who owns the treasure mine on that planet will greet you!</p><p>The better an alien takes care of their mine the easier it is to dig for gems. Some aliens take better care of their mine than others. So, you won’t get exactly the same amount of gems on each planet.</p><p>What the alien looks like does not tell you anything about how many gems there are on the planet.</p><br><p><img src=""run_exp/static/images/task_images/aliens/instructions_aliens/planet/alien_planet-1.jpg""  height=""600"" width=""auto""></p>",,,,,,,1,,,,,,,,,,,,,,,,,,
html-keyboard-response,17,162628,0.0-7.0-8.0,"""event"",""trial"",""time""
""fullscreenenter"",""1"",""2533""
","
","
","""event"",""trial"",""time""
""fullscreenenter"",""1"",""2533""
","
",,781.9,"<p>When you arrive at a new planet, the alien who owns the treasure mine on that planet will greet you!</p><p>The better an alien takes care of their mine the easier it is to dig for gems. Some aliens take better care of their mine than others. So, you won’t get exactly the same amount of gems on each planet.</p><p>What the alien looks like does not tell you anything about how many gems there are on the planet.</p><br><p><img src=""run_exp/static/images/task_images/aliens/instructions_aliens/planet/alien_planet-1.jpg""  height=""600"" width=""auto""></p><button class=""jspsych-html-btn-unchosen""><img src=""run_exp/static/images/task_images/planet-01.jpg"" height=""50""></button><button class=""jspsych-html-btn-chosen""><img src=""run_exp/static/images/task_images/planet-02.jpg"" height=""50""></button><p><b>[press the space bar to lock in your answer]<b><br></p>",32,,,,,,,,,,,,,,,,,,,,,,,,
time_out,18,173738,0.0-8.0-0.0,"""event"",""trial"",""time""
""fullscreenenter"",""1"",""2533""
","
","
","""event"",""trial"",""time""
""fullscreenenter"",""1"",""2533""
","
",,null,run_exp/static/audio/clip_7_timeout.m4a,null,"<p>If you don't make your choice fast enough, you’ll have to wait a few seconds before you can make another one.</p><p>You can’t dig for more gems or travel to new planets. You just have to sit and wait.</p><br><p><img src='run_exp/static/images/task_images/time_out.jpg'  height='600' width='auto'></p>",,,,,,,,,,,,,,,,,,,,,,,
time_out,19,175726,0.0-8.0-1.0,"""event"",""trial"",""time""
""fullscreenenter"",""1"",""2533""
","
","
","""event"",""trial"",""time""
""fullscreenenter"",""1"",""2533""
","
",,1984.2,"<p>If you don't make your choice fast enough, you’ll have to wait a few seconds before you can make another one.</p><p>You can’t dig for more gems or travel to new planets. You just have to sit and wait.</p><br><p><img src='run_exp/static/images/task_images/time_out.jpg'  height='600' width='auto'></p>",,,,,,,1,,,,,,,,,,,,,,,,,,
html-keyboard-response,20,184579,0.0-8.0-2.0,"""event"",""trial"",""time""
""fullscreenenter"",""1"",""2533""
","
","
","""event"",""trial"",""time""
""fullscreenenter"",""1"",""2533""
","
",,8850.9,"<p>If you don't make your choice fast enough, you’ll have to wait a few seconds before you can make another one.</p><p>You can’t dig for more gems or travel to new planets. You just have to sit and wait.</p><br><p><img src='run_exp/static/images/task_images/time_out.jpg'  height='600' width='auto'></p><button class=""jspsych-html-btn-unchosen""><img src=""run_exp/static/images/task_images/planet-01.jpg"" height=""50""></button><button class=""jspsych-html-btn-chosen""><img src=""run_exp/static/images/task_images/planet-02.jpg"" height=""50""></button><p><b>[press the space bar to lock in your answer]<b><br></p>",32,,,,,,,,,,,,,,,,,,,,,,,,
instruc_break,21,200285,0.0-9.0-0.0,"""event"",""trial"",""time""
""fullscreenenter"",""1"",""2533""
","
","
","""event"",""trial"",""time""
""fullscreenenter"",""1"",""2533""
","
",,null,run_exp/static/audio/clip_8_break.m4a,null,"<p> After digging and traveling for a while, you’ll be able to take a break at home base. </p><p>The game will last 20 minutes no matter what.</p><p>You will visit home base every 5 minutes, so, you will visit home base three times during the game.</p><br><p><img src='run_exp/static/images/task_images/home_base.jpg' height='600' width='auto'></p>",,,,,,,,,,,,,,,,,,,,,,,
instruc_break,22,203723,0.0-9.0-1.0,"""event"",""trial"",""time""
""fullscreenenter"",""1"",""2533""
","
","
","""event"",""trial"",""time""
""fullscreenenter"",""1"",""2533""
","
",,3435.3,"<p> After digging and traveling for a while, you’ll be able to take a break at home base. </p><p>The game will last 20 minutes no matter what.</p><p>You will visit home base every 5 minutes, so, you will visit home base three times during the game.</p><br><p><img src='run_exp/static/images/task_images/home_base.jpg' height='600' width='auto'></p>",,,,,,,1,,,,,,,,,,,,,,,,,,
html-keyboard-response,23,204693,0.0-9.0-2.0,"""event"",""trial"",""time""
""fullscreenenter"",""1"",""2533""
","
","
","""event"",""trial"",""time""
""fullscreenenter"",""1"",""2533""
","
",,968.2,"<p> After digging and traveling for a while, you’ll be able to take a break at home base. </p><p>The game will last 20 minutes no matter what.</p><p>You will visit home base every 5 minutes, so, you will visit home base three times during the game.</p><br><p><img src='run_exp/static/images/task_images/home_base.jpg' height='600' width='auto'></p><button class=""jspsych-html-btn-unchosen""><img src=""run_exp/static/images/task_images/planet-01.jpg"" height=""50""></button><button class=""jspsych-html-btn-chosen""><img src=""run_exp/static/images/task_images/planet-02.jpg"" height=""50""></button><p><b>[press the space bar to lock in your answer]<b><br></p>",32,,,,,,,,,,,,,,,,,,,,,,,,
instruc_prac_game,24,214855,0.0-10.0-0.0,"""event"",""trial"",""time""
""fullscreenenter"",""1"",""2533""
","
","
","""event"",""trial"",""time""
""fullscreenenter"",""1"",""2533""
","
",,null,run_exp/static/audio/clip_9_practice.m4a,null,"<p> Are you ready to play a practice game? </p> <p>In this practice game, you'll be digging up barrels of gems. But, in the real game, you'll be digging up the gems themselves. </p>",,,,,,,,,,,,,,,,,,,,,,,
html-button-response,25,219411,0.0-10.0-1.0,"""event"",""trial"",""time""
""fullscreenenter"",""1"",""2533""
","
","
","""event"",""trial"",""time""
""fullscreenenter"",""1"",""2533""
","
",,4553.8,"<p> Are you ready to play a practice game? </p> <p>In this practice game, you'll be digging up barrels of gems. But, in the real game, you'll be digging up the gems themselves. </p>",,,,,,,0,,,,,,,,,,,,,,,,,,
alien_welcome_prac,26,224423,0.0-11.0-0.0,"""event"",""trial"",""time""
""fullscreenenter"",""1"",""2533""
","
","
","""event"",""trial"",""time""
""fullscreenenter"",""1"",""2533""
","
",,null,run_exp/static/images/task_images/aliens/practice_aliens/planet/alien_planet-5.jpg,null,,,,,,,,,,,,,,,,,,,,,,,,
land_prac,27,224935,0.0-11.0-1.0,"""event"",""trial"",""time""
""fullscreenenter"",""1"",""2533""
","
","
","""event"",""trial"",""time""
""fullscreenenter"",""1"",""2533""
","
",,null,run_exp/static/images/task_images/land.jpg,null,,,,,,,100,,,0,,,,,,,,,,,,,,
dig_prac,28,226945,0.0-11.0-2.0,"""event"",""trial"",""time""
""fullscreenenter"",""1"",""2533""
","
","
","""event"",""trial"",""time""
""fullscreenenter"",""1"",""2533""
","
",,,,,,,,,,,,"[{""stimulus"":""run_exp/static/images/task_images/dig.jpg"",""time"":0.20000001788139343},{""stimulus"":""run_exp/static/images/task_images/land.jpg"",""time"":672.8000000119209},{""stimulus"":""run_exp/static/images/task_images/dig.jpg"",""time"":1341.7000000178814}]",[],,,,,,,,,,,,,,,
harvest_prac,29,227950,0.0-11.0-3.0,"""event"",""trial"",""time""
""fullscreenenter"",""1"",""2533""
","
","
","""event"",""trial"",""time""
""fullscreenenter"",""1"",""2533""
","
",,null,run_exp/static/images/task_images/barrel_text.jpg,null,,,,,,,,,,,,,,,,,,,,,,,,
decision_prac,30,229570,0.0-11.0-4.0,"""event"",""trial"",""time""
""fullscreenenter"",""1"",""2533""
","
","
","""event"",""trial"",""time""
""fullscreenenter"",""1"",""2533""
","
",,1617.7,run_exp/static/images/task_images/land.jpg,65,,,,,,,,,,,1,,,,,,,,,,,,,
dig_prac,31,231583,0.0-12.0-0.0,"""event"",""trial"",""time""
""fullscreenenter"",""1"",""2533""
","
","
","""event"",""trial"",""time""
""fullscreenenter"",""1"",""2533""
","
",,,,,,,,,,,,"[{""stimulus"":""run_exp/static/images/task_images/dig.jpg"",""time"":0.09999999403953552},{""stimulus"":""run_exp/static/images/task_images/land.jpg"",""time"":675.8000000119209},{""stimulus"":""run_exp/static/images/task_images/dig.jpg"",""time"":1336.0999999940395}]",[],,,,,,,,,,,,,,,
harvest_prac,32,232593,0.0-12.0-1.0,"""event"",""trial"",""time""
""fullscreenenter"",""1"",""2533""
","
","
","""event"",""trial"",""time""
""fullscreenenter"",""1"",""2533""
","
",,null,run_exp/static/images/task_images/barrel_text.jpg,null,,,,,,,,,,,,,,,,,,,,,,,,
decision_prac,33,232829,0.0-12.0-2.0,"""event"",""trial"",""time""
""fullscreenenter"",""1"",""2533""
","
","
","""event"",""trial"",""time""
""fullscreenenter"",""1"",""2533""
","
",,233.5,run_exp/static/images/task_images/land.jpg,76,,,,,,,,,,,2,,,,,,,,,,,,,
travel,34,242608,0.0-13.0-0.0,"""event"",""trial"",""time""
""fullscreenenter"",""1"",""2533""
","
","
","""event"",""trial"",""time""
""fullscreenenter"",""1"",""2533""
","
",,,,,,,,,,,,"[{""stimulus"":""run_exp/static/images/task_images/rocket-01.jpg"",""time"":0.20000001788139343},{""stimulus"":""run_exp/static/images/task_images/rocket-02.jpg"",""time"":1086.7000000178814},{""stimulus"":""run_exp/static/images/task_images/rocket-03.jpg"",""time"":2176.800000011921},{""stimulus"":""run_exp/static/images/task_images/rocket-04.jpg"",""time"":3262.600000023842},{""stimulus"":""run_exp/static/images/task_images/rocket-05.jpg"",""time"":4347.9000000059605},{""stimulus"":""run_exp/static/images/task_images/rocket-06.jpg"",""time"":5430.600000023842},{""stimulus"":""run_exp/static/images/task_images/rocket-07.jpg"",""time"":6517.5},{""stimulus"":""run_exp/static/images/task_images/rocket-08.jpg"",""time"":7599},{""stimulus"":""run_exp/static/images/task_images/rocket-09.jpg"",""time"":8684.300000011921}]",[],0,,,,,,,,,,,,,,
alien_welcome_prac,35,247618,0.0-13.0-1.0,"""event"",""trial"",""time""
""fullscreenenter"",""1"",""2533""
","
","
","""event"",""trial"",""time""
""fullscreenenter"",""1"",""2533""
","
",,null,run_exp/static/images/task_images/aliens/practice_aliens/planet/alien_planet-4.jpg,null,,,,,,,,,,,,,,,,,,,,,,,,
land_prac,36,248126,0.0-13.0-2.0,"""event"",""trial"",""time""
""fullscreenenter"",""1"",""2533""
","
","
","""event"",""trial"",""time""
""fullscreenenter"",""1"",""2533""
","
",,null,run_exp/static/images/task_images/land.jpg,null,,,,,,,102,,,0,,,,,,,,,,,,,,
dig_prac,37,250134,0.0-13.0-3.0,"""event"",""trial"",""time""
""fullscreenenter"",""1"",""2533""
","
","
","""event"",""trial"",""time""
""fullscreenenter"",""1"",""2533""
","
",,,,,,,,,,,,"[{""stimulus"":""run_exp/static/images/task_images/dig.jpg"",""time"":0.5},{""stimulus"":""run_exp/static/images/task_images/land.jpg"",""time"":672.7000000178814},{""stimulus"":""run_exp/static/images/task_images/dig.jpg"",""time"":1338.300000011921}]",[],,,,,,,,,,,,,,,
harvest_prac,38,251146,0.0-13.0-4.0,"""event"",""trial"",""time""
""fullscreenenter"",""1"",""2533""
","
","
","""event"",""trial"",""time""
""fullscreenenter"",""1"",""2533""
","
",,null,run_exp/static/images/task_images/barrel_text.jpg,null,,,,,,,,,,,,,,,,,,,,,,,,
decision_prac,39,254150,0.0-13.0-5.0,"""event"",""trial"",""time""
""fullscreenenter"",""1"",""2533""
","
","
","""event"",""trial"",""time""
""fullscreenenter"",""1"",""2533""
","
",,null,run_exp/static/images/task_images/land.jpg,null,,,,,,,,,,,3,,,,,,,,,,,,,
time_out,40,256162,0.0-14.0-0.0,"""event"",""trial"",""time""
""fullscreenenter"",""1"",""2533""
","
","
","""event"",""trial"",""time""
""fullscreenenter"",""1"",""2533""
","
",,null,run_exp/static/images/task_images/time_out.jpg,null,,,,,,,,,,,,,,,,,,,,,,,,
decision_prac,41,259167,0.0-14.0-1.0,"""event"",""trial"",""time""
""fullscreenenter"",""1"",""2533""
","
","
","""event"",""trial"",""time""
""fullscreenenter"",""1"",""2533""
","
",,null,run_exp/static/images/task_images/land.jpg,null,,,,,,,,,,,4,,,,,,,,,,,,,
time_out,42,261177,0.0-15.0-0.0,"""event"",""trial"",""time""
""fullscreenenter"",""1"",""2533""
","
","
","""event"",""trial"",""time""
""fullscreenenter"",""1"",""2533""
","
",,null,run_exp/static/images/task_images/time_out.jpg,null,,,,,,,,,,,,,,,,,,,,,,,,
decision_prac,43,262373,0.0-15.0-1.0,"""event"",""trial"",""time""
""fullscreenenter"",""1"",""2533""
","
","
","""event"",""trial"",""time""
""fullscreenenter"",""1"",""2533""
","
",,1194.3,run_exp/static/images/task_images/land.jpg,65,,,,,,,,,,,,1,,,,,,,,,,,,
quiz_instruc,44,264856,0.0-16.0-0.0,"""event"",""trial"",""time""
""fullscreenenter"",""1"",""2533""
","
","
","""event"",""trial"",""time""
""fullscreenenter"",""1"",""2533""
","
",,2479.8,run_exp/static/audio/clip_10_quiz.m4a,,,,,,,0,,,,,,,,,,,,,,,,,,
instruc_repeat,45,307648,0.0-16.0-1.0,"""event"",""trial"",""time""
""fullscreenenter"",""1"",""2533""
","
","
","""event"",""trial"",""time""
""fullscreenenter"",""1"",""2533""
","
",,null,"<p> Are you ready to play a practice game? </p> <p>In this practice game, you'll be digging up barrels of gems. But, in the real game, you'll be digging up the gems themselves. </p>",null,"<p>In this game, your goal is to collect as many gems as you can. That’s how you will win bonus money. </p> <p>The entire game will last 20 minutes no matter how many gems you collect or how many planets you visit. </p><p>To stay on a planet and dig again, press the letter A on your keyboard. To leave for a new planet, press the letter L.</p><p>The more you dig on a planet, the fewer gems you’ll get with each dig which is why you might consider leaving for a new planet. </p><p>When you arrive at a new planet, you’ll be greeted by an alien. What the alien looks like does not tell you anything about how much treasure is on the planet. </p>",,,,,,,,,,,,,,,,,,,,,,,
instruc_repeat_continue,46,311292,0.0-16.0-2.0,"""event"",""trial"",""time""
""fullscreenenter"",""1"",""2533""
","
","
","""event"",""trial"",""time""
""fullscreenenter"",""1"",""2533""
","
",,3642.3,"<p> Are you ready to play a practice game? </p> <p>In this practice game, you'll be digging up barrels of gems. But, in the real game, you'll be digging up the gems themselves. </p>",,,,,,,0,,,,,,,,,,,,,,,,,,
quiz_q_1_ask,47,315049,0.0-16.0-3.0,"""event"",""trial"",""time""
""fullscreenenter"",""1"",""2533""
","
","
","""event"",""trial"",""time""
""fullscreenenter"",""1"",""2533""
","
",,3753.8,run_exp/static/audio/clip_11_q1_ask.m4a,,,,,,,2,,,,,,,,,,,,,,,,,,
quiz_q_1_fb_correct,48,318890,0.0-17.0-0.0,"""event"",""trial"",""time""
""fullscreenenter"",""1"",""2533""
","
","
","""event"",""trial"",""time""
""fullscreenenter"",""1"",""2533""
","
",,null,run_exp/static/audio/clip_12_q1_correct.m4a,null,<p>That’s correct. You win extra money by collecting more gems.</p>,,,,,,,,,,,,,,,,,,,,,,,
quiz_q_2_ask,49,320859,0.0-17.0-1.0,"""event"",""trial"",""time""
""fullscreenenter"",""1"",""2533""
","
","
","""event"",""trial"",""time""
""fullscreenenter"",""1"",""2533""
","
",,1967.2,run_exp/static/audio/clip_14_q2_ask.m4a,,,,,,,1,,,,,,,,,,,,,,,,,,
quiz_q_2_fb_correct,50,324885,0.0-18.0-0.0,"""event"",""trial"",""time""
""fullscreenenter"",""1"",""2533""
","
","
","""event"",""trial"",""time""
""fullscreenenter"",""1"",""2533""
","
",,null,run_exp/static/audio/clip_15_q2_correct.m4a,null,<p>That’s correct. The experiment is 20 minutes no matter what.</p>,,,,,,,,,,,,,,,,,,,,,,,
quiz_q_3_ask,51,330059,0.0-18.0-1.0,"""event"",""trial"",""time""
""fullscreenenter"",""1"",""2533""
","
","
","""event"",""trial"",""time""
""fullscreenenter"",""1"",""2533""
","
",,5171.2,run_exp/static/audio/clip_17_q3_ask.m4a,,,,,,,1,,,,,,,,,,,,,,,,,,
quiz_q_3_fb_correct,52,334037,0.0-19.0-0.0,"""event"",""trial"",""time""
""fullscreenenter"",""1"",""2533""
","
","
","""event"",""trial"",""time""
""fullscreenenter"",""1"",""2533""
","
",,null,run_exp/static/audio/clip_18_q3_correct.m4a,null,<p> That’s correct. You press the letter L to travel to a new planet.</p>,,,,,,,,,,,,,,,,,,,,,,,
quiz_q_4_ask,53,338347,0.0-19.0-1.0,"""event"",""trial"",""time""
""fullscreenenter"",""1"",""2533""
","
","
","""event"",""trial"",""time""
""fullscreenenter"",""1"",""2533""
","
",,4306.6,run_exp/static/audio/clip_20_q4_ask.m4a,,,,,,,1,,,,,,,,,,,,,,,,,,
quiz_q_4_fb_incorrect,54,344171,0.0-20.0-0.0,"""event"",""trial"",""time""
""fullscreenenter"",""1"",""2533""
","
","
","""event"",""trial"",""time""
""fullscreenenter"",""1"",""2533""
","
",,null,run_exp/static/audio/clip_22_q4_incorrect.m4a,null,<p>That’s incorrect.  The more you dig on a planet the fewer gems you’ll get with each dig.</p>,,,,,,,,,,,,,,,,,,,,,,,
quiz_q_5_ask,55,348384,0.0-20.0-1.0,"""event"",""trial"",""time""
""fullscreenenter"",""1"",""2533""
","
","
","""event"",""trial"",""time""
""fullscreenenter"",""1"",""2533""
","
",,4210.4,run_exp/static/audio/clip_23_q5_ask.m4a,,,,,,,1,,,,,,,,,,,,,,,,,,
quiz_q_5_fb_correct,56,353388,0.0-21.0-0.0,"""event"",""trial"",""time""
""fullscreenenter"",""1"",""2533""
","
","
","""event"",""trial"",""time""
""fullscreenenter"",""1"",""2533""
","
",,null,run_exp/static/audio/clip_24_q5_correct.m4a,null,<p> That’s correct. The alien tells you nothing about how much treasure is on the planet.</p>,,,,,,,,,,,,,,,,,,,,,,,
quiz_incorrect,57,358955,0.0-22.0-0.0,"""event"",""trial"",""time""
""fullscreenenter"",""1"",""2533""
","
","
","""event"",""trial"",""time""
""fullscreenenter"",""1"",""2533""
","
",,null,run_exp/static/audio/clip_27_incorrect_quiz.m4a,null,,,,,,,,,,,,,,,,,,,,,,,,
quiz_incorrect_continue,58,360011,0.0-22.0-1.0,"""event"",""trial"",""time""
""fullscreenenter"",""1"",""2533""
","
","
","""event"",""trial"",""time""
""fullscreenenter"",""1"",""2533""
","
",,1054.6,"<p>Oops, you missed some questions.</p><p>Now that you’ve heard the correct answers. Try the quiz again!</p>",,,,,,,0,,,,,,,,,,,,,,,,,,
quiz_q_1_ask,59,362578,0.0-22.0-2.0,"""event"",""trial"",""time""
""fullscreenenter"",""1"",""2533""
","
","
","""event"",""trial"",""time""
""fullscreenenter"",""1"",""2533""
","
",,2563.8,run_exp/static/audio/clip_11_q1_ask.m4a,,,,,,,2,,,,,,,,,,,,,,,,,,
quiz_q_1_fb_correct,60,366421,0.0-23.0-0.0,"""event"",""trial"",""time""
""fullscreenenter"",""1"",""2533""
","
","
","""event"",""trial"",""time""
""fullscreenenter"",""1"",""2533""
","
",,null,run_exp/static/audio/clip_12_q1_correct.m4a,null,<p>That’s correct. You win extra money by collecting more gems.</p>,,,,,,,,,,,,,,,,,,,,,,,
quiz_q_2_ask,61,367899,0.0-23.0-1.0,"""event"",""trial"",""time""
""fullscreenenter"",""1"",""2533""
","
","
","""event"",""trial"",""time""
""fullscreenenter"",""1"",""2533""
","
",,1475.9,run_exp/static/audio/clip_14_q2_ask.m4a,,,,,,,1,,,,,,,,,,,,,,,,,,
quiz_q_2_fb_correct,62,371926,0.0-24.0-0.0,"""event"",""trial"",""time""
""fullscreenenter"",""1"",""2533""
","
","
","""event"",""trial"",""time""
""fullscreenenter"",""1"",""2533""
","
",,null,run_exp/static/audio/clip_15_q2_correct.m4a,null,<p>That’s correct. The experiment is 20 minutes no matter what.</p>,,,,,,,,,,,,,,,,,,,,,,,
quiz_q_3_ask,63,373758,0.0-24.0-1.0,"""event"",""trial"",""time""
""fullscreenenter"",""1"",""2533""
","
","
","""event"",""trial"",""time""
""fullscreenenter"",""1"",""2533""
","
",,1829.3,run_exp/static/audio/clip_17_q3_ask.m4a,,,,,,,1,,,,,,,,,,,,,,,,,,
quiz_q_3_fb_correct,64,377728,0.0-25.0-0.0,"""event"",""trial"",""time""
""fullscreenenter"",""1"",""2533""
","
","
","""event"",""trial"",""time""
""fullscreenenter"",""1"",""2533""
","
",,null,run_exp/static/audio/clip_18_q3_correct.m4a,null,<p> That’s correct. You press the letter L to travel to a new planet.</p>,,,,,,,,,,,,,,,,,,,,,,,
quiz_q_4_ask,65,380550,0.0-25.0-1.0,"""event"",""trial"",""time""
""fullscreenenter"",""1"",""2533""
","
","
","""event"",""trial"",""time""
""fullscreenenter"",""1"",""2533""
","
",,2819.1,run_exp/static/audio/clip_20_q4_ask.m4a,,,,,,,0,,,,,,,,,,,,,,,,,,
quiz_q_4_fb_correct,66,385856,0.0-26.0-0.0,"""event"",""trial"",""time""
""fullscreenenter"",""1"",""2533""
","
","
","""event"",""trial"",""time""
""fullscreenenter"",""1"",""2533""
","
",,null,run_exp/static/audio/clip_21_q4_correct.m4a,null,<p> That’s correct. The more you dig on a planet the fewer gems you’ll get with each dig. </p>,,,,,,,,,,,,,,,,,,,,,,,
quiz_q_5_ask,67,395199,0.0-26.0-1.0,"""event"",""trial"",""time""
""fullscreenenter"",""1"",""2533""
","
","
","""event"",""trial"",""time""
""fullscreenenter"",""1"",""2533""
","
",,9339.2,run_exp/static/audio/clip_23_q5_ask.m4a,,,,,,,1,,,,,,,,,,,,,,,,,,
quiz_q_5_fb_correct,68,400192,0.0-27.0-0.0,"""event"",""trial"",""time""
""fullscreenenter"",""1"",""2533""
","
","
","""event"",""trial"",""time""
""fullscreenenter"",""1"",""2533""
","
",,null,run_exp/static/audio/clip_24_q5_correct.m4a,null,<p> That’s correct. The alien tells you nothing about how much treasure is on the planet.</p>,,,,,,,,,,,,,,,,,,,,,,,
quiz_correct,69,403648,0.0-28.0-0.0,"""event"",""trial"",""time""
""fullscreenenter"",""1"",""2533""
","
","
","""event"",""trial"",""time""
""fullscreenenter"",""1"",""2533""
","
",,null,run_exp/static/audio/clip_26_correct_quiz.m4a,null,,,,,,,,,,,,,,,,,,,,,,,,
quiz_correct_continue,70,411659,0.0-28.0-1.0,"""event"",""trial"",""time""
""fullscreenenter"",""1"",""2533""
","
","
","""event"",""trial"",""time""
""fullscreenenter"",""1"",""2533""
","
",,8008.5,<p>Good job! You're now ready to move on to the real game!</p>,,,,,,,0,,,,,,,,,,,,,,,,,,
audio-keyboard-response,71,421782,0.0-28.0-2.0,"""event"",""trial"",""time""
""fullscreenenter"",""1"",""2533""
","
","
","""event"",""trial"",""time""
""fullscreenenter"",""1"",""2533""
","
",,null,run_exp/static/audio/clip_28_real_game.m4a,null,,,,,,,,,,,,,,,,,,,,,,,,
instruc_begin_exp_contine,72,424615,0.0-28.0-3.0,"""event"",""trial"",""time""
""fullscreenenter"",""1"",""2533""
","
","
","""event"",""trial"",""time""
""fullscreenenter"",""1"",""2533""
","
",,2831,"<p>Now that you know how  to dig for space treasure and travel to new planets,you can start exploring! </p><p>Do you want to go over the instructions again or get started with the real game?</p>",,,,,,,1,,,,,,1,,,,,,,,,,,,
alien_welcome,73,429626,0.0-29.0-0.0,"""event"",""trial"",""time""
""fullscreenenter"",""1"",""2533""
","
","
","""event"",""trial"",""time""
""fullscreenenter"",""1"",""2533""
","
",,null,run_exp/static/images/task_images/aliens/old_aliens/planet/alien_planet-27.jpg,null,,,,,,,,,,,,,27,"27,65,17,52,29,54,12,51,71,11,62,43,38,8,57,32,47,34,79,45",,,,,,,,,,
land,74,430137,0.0-29.0-1.0,"""event"",""trial"",""time""
""fullscreenenter"",""1"",""2533""
","
","
","""event"",""trial"",""time""
""fullscreenenter"",""1"",""2533""
","
",,null,run_exp/static/images/task_images/land.jpg,null,,,,,,,89,,,1,,,,,,,,,,,,,,
dig,75,432146,0.0-29.0-2.0,"""event"",""trial"",""time""
""fullscreenenter"",""1"",""2533""
","
","
","""event"",""trial"",""time""
""fullscreenenter"",""1"",""2533""
","
",,,,,,,,,,,,"[{""stimulus"":""run_exp/static/images/task_images/dig.jpg"",""time"":0.4000000059604645},{""stimulus"":""run_exp/static/images/task_images/land.jpg"",""time"":679.5},{""stimulus"":""run_exp/static/images/task_images/dig.jpg"",""time"":1341.0999999940395}]",[],1,,,,,,,,,,,,,,
harvest,76,433151,0.0-29.0-3.0,"""event"",""trial"",""time""
""fullscreenenter"",""1"",""2533""
","
","
","""event"",""trial"",""time""
""fullscreenenter"",""1"",""2533""
","
",,null,run_exp/static/images/task_images/gems/89.jpg,null,,,,,,,21,,,1,,,,,89,0.240220566,0.235955056,,,,,,,
decision,77,435097,0.0-29.0-4.0,"""event"",""trial"",""time""
""fullscreenenter"",""1"",""2533""
","
","
","""event"",""trial"",""time""
""fullscreenenter"",""1"",""2533""
","
",,1942.5,run_exp/static/images/task_images/land.jpg,65,,,,,,,21,,,1,,,,,,,,10481,1,0,FALSE,,,
dig,78,436163,0.0-30.0-0.0,"""event"",""trial"",""time""
""fullscreenenter"",""1"",""2533""
","
","
","""event"",""trial"",""time""
""fullscreenenter"",""1"",""2533""
","
",,,,,,,,,,,,"[{""stimulus"":""run_exp/static/images/task_images/dig.jpg"",""time"":0.30000001192092896},{""stimulus"":""run_exp/static/images/task_images/land.jpg"",""time"":355.2000000178814},{""stimulus"":""run_exp/static/images/task_images/dig.jpg"",""time"":706.4000000059605}]",[],1,,,,,,,,,,,,,,
harvest,79,437167,0.0-30.0-1.0,"""event"",""trial"",""time""
""fullscreenenter"",""1"",""2533""
","
","
","""event"",""trial"",""time""
""fullscreenenter"",""1"",""2533""
","
",,null,run_exp/static/images/task_images/gems/21.jpg,null,,,,,,,3,,,1,,,,,21,0.158709859,0.142857143,,,,,,,
decision,80,438963,0.0-30.0-2.0,"""event"",""trial"",""time""
""fullscreenenter"",""1"",""2533""
","
","
","""event"",""trial"",""time""
""fullscreenenter"",""1"",""2533""
","
",,1795.2,run_exp/static/images/task_images/land.jpg,65,,,,,,,3,,,1,,,,,,,,14346,1,1,FALSE,,,
dig,81,440176,0.0-31.0-0.0,"""event"",""trial"",""time""
""fullscreenenter"",""1"",""2533""
","
","
","""event"",""trial"",""time""
""fullscreenenter"",""1"",""2533""
","
",,,,,,,,,,,,"[{""stimulus"":""run_exp/static/images/task_images/dig.jpg"",""time"":0.09999999403953552},{""stimulus"":""run_exp/static/images/task_images/land.jpg"",""time"":411.2000000178814},{""stimulus"":""run_exp/static/images/task_images/dig.jpg"",""time"":811.3000000119209}]",[],1,,,,,,,,,,,,,,
harvest,82,441185,0.0-31.0-1.0,"""event"",""trial"",""time""
""fullscreenenter"",""1"",""2533""
","
","
","""event"",""trial"",""time""
""fullscreenenter"",""1"",""2533""
","
",,null,run_exp/static/images/task_images/gems/3.jpg,null,,,,,,,0,,,1,,,,,3,0.108465034,0,,,,,,,
decision,83,441905,0.0-31.0-2.0,"""event"",""trial"",""time""
""fullscreenenter"",""1"",""2533""
","
","
","""event"",""trial"",""time""
""fullscreenenter"",""1"",""2533""
","
",,718.6,run_exp/static/images/task_images/land.jpg,65,,,,,,,0,,,1,,,,,,,,17289,1,2,FALSE,,,
dig,84,444194,0.0-32.0-0.0,"""event"",""trial"",""time""
""fullscreenenter"",""1"",""2533""
","
","
","""event"",""trial"",""time""
""fullscreenenter"",""1"",""2533""
","
",,,,,,,,,,,,"[{""stimulus"":""run_exp/static/images/task_images/dig.jpg"",""time"":0.19999998807907104},{""stimulus"":""run_exp/static/images/task_images/land.jpg"",""time"":763.5},{""stimulus"":""run_exp/static/images/task_images/dig.jpg"",""time"":1525.5999999940395}]",[],1,,,,,,,,,,,,,,
harvest,85,445202,0.0-32.0-1.0,"""event"",""trial"",""time""
""fullscreenenter"",""1"",""2533""
","
","
","""event"",""trial"",""time""
""fullscreenenter"",""1"",""2533""
","
",,null,run_exp/static/images/task_images/gems/0.jpg,null,,,,,,,0,,,1,,,,,0,0.147004762,NaN,,,,,,,
decision,86,446263,0.0-32.0-2.0,"""event"",""trial"",""time""
""fullscreenenter"",""1"",""2533""
","
","
","""event"",""trial"",""time""
""fullscreenenter"",""1"",""2533""
","
",,1058.2,run_exp/static/images/task_images/land.jpg,65,,,,,,,0,,,1,,,,,,,,21646,1,3,FALSE,,,
dig,87,448209,0.0-33.0-0.0,"""event"",""trial"",""time""
""fullscreenenter"",""1"",""2533""
","
","
","""event"",""trial"",""time""
""fullscreenenter"",""1"",""2533""
","
",,,,,,,,,,,,"[{""stimulus"":""run_exp/static/images/task_images/dig.jpg"",""time"":0.19999998807907104},{""stimulus"":""run_exp/static/images/task_images/land.jpg"",""time"":658.5},{""stimulus"":""run_exp/static/images/task_images/dig.jpg"",""time"":1302.699999988079}]",[],1,,,,,,,,,,,,,,
harvest,88,449218,0.0-33.0-1.0,"""event"",""trial"",""time""
""fullscreenenter"",""1"",""2533""
","
","
","""event"",""trial"",""time""
""fullscreenenter"",""1"",""2533""
","
",,null,run_exp/static/images/task_images/gems/0.jpg,null,,,,,,,0,,,1,,,,,0,0.231063375,NaN,,,,,,,
decision,89,449850,0.0-33.0-2.0,"""event"",""trial"",""time""
""fullscreenenter"",""1"",""2533""
","
","
","""event"",""trial"",""time""
""fullscreenenter"",""1"",""2533""
","
",,629.6,run_exp/static/images/task_images/land.jpg,65,,,,,,,0,,,1,,,,,,,,25233,1,4,FALSE,,,
dig,90,452236,0.0-34.0-0.0,"""event"",""trial"",""time""
""fullscreenenter"",""1"",""2533""
","
","
","""event"",""trial"",""time""
""fullscreenenter"",""1"",""2533""
","
",,,,,,,,,,,,"[{""stimulus"":""run_exp/static/images/task_images/dig.jpg"",""time"":0.30000001192092896},{""stimulus"":""run_exp/static/images/task_images/land.jpg"",""time"":798.5},{""stimulus"":""run_exp/static/images/task_images/dig.jpg"",""time"":1590.4000000059605}]",[],1,,,,,,,,,,,,,,
harvest,91,453244,0.0-34.0-1.0,"""event"",""trial"",""time""
""fullscreenenter"",""1"",""2533""
","
","
","""event"",""trial"",""time""
""fullscreenenter"",""1"",""2533""
","
",,null,run_exp/static/images/task_images/gems/0.jpg,null,,,,,,,0,,,1,,,,,0,0.208771405,NaN,,,,,,,
decision,92,455071,0.0-34.0-2.0,"""event"",""trial"",""time""
""fullscreenenter"",""1"",""2533""
","
","
","""event"",""trial"",""time""
""fullscreenenter"",""1"",""2533""
","
",,1824.2,run_exp/static/images/task_images/land.jpg,65,,,,,,,0,,,1,,,,,,,,30454,1,5,FALSE,,,
dig,93,456258,0.0-35.0-0.0,"""event"",""trial"",""time""
""fullscreenenter"",""1"",""2533""
","
","
","""event"",""trial"",""time""
""fullscreenenter"",""1"",""2533""
","
",,,,,,,,,,,,"[{""stimulus"":""run_exp/static/images/task_images/dig.jpg"",""time"":0.19999998807907104},{""stimulus"":""run_exp/static/images/task_images/land.jpg"",""time"":401.09999999403954},{""stimulus"":""run_exp/static/images/task_images/dig.jpg"",""time"":789.2999999821186}]",[],1,,,,,,,,,,,,,,
harvest,94,457267,0.0-35.0-1.0,"""event"",""trial"",""time""
""fullscreenenter"",""1"",""2533""
","
","
","""event"",""trial"",""time""
""fullscreenenter"",""1"",""2533""
","
",,null,run_exp/static/images/task_images/gems/0.jpg,null,,,,,,,0,,,1,,,,,0,0.227812854,NaN,,,,,,,
decision,95,457832,0.0-35.0-2.0,"""event"",""trial"",""time""
""fullscreenenter"",""1"",""2533""
","
","
","""event"",""trial"",""time""
""fullscreenenter"",""1"",""2533""
","
",,563.5,run_exp/static/images/task_images/land.jpg,65,,,,,,,0,,,1,,,,,,,,33216,1,6,FALSE,,,
dig,96,460280,0.0-36.0-0.0,"""event"",""trial"",""time""
""fullscreenenter"",""1"",""2533""
","
","
","""event"",""trial"",""time""
""fullscreenenter"",""1"",""2533""
","
",,,,,,,,,,,,"[{""stimulus"":""run_exp/static/images/task_images/dig.jpg"",""time"":0.30000001192092896},{""stimulus"":""run_exp/static/images/task_images/land.jpg"",""time"":824.6999999880791},{""stimulus"":""run_exp/static/images/task_images/dig.jpg"",""time"":1628.699999988079}]",[],1,,,,,,,,,,,,,,
harvest,97,461288,0.0-36.0-1.0,"""event"",""trial"",""time""
""fullscreenenter"",""1"",""2533""
","
","
","""event"",""trial"",""time""
""fullscreenenter"",""1"",""2533""
","
",,null,run_exp/static/images/task_images/gems/0.jpg,null,,,,,,,0,,,1,,,,,0,0.217822609,NaN,,,,,,,
decision,98,461484,0.0-36.0-2.0,"""event"",""trial"",""time""
""fullscreenenter"",""1"",""2533""
","
","
","""event"",""trial"",""time""
""fullscreenenter"",""1"",""2533""
","
",,194,run_exp/static/images/task_images/land.jpg,65,,,,,,,0,,,1,,,,,,,,36867,1,7,FALSE,,,
dig,99,464297,0.0-37.0-0.0,"""event"",""trial"",""time""
""fullscreenenter"",""1"",""2533""
","
","
","""event"",""trial"",""time""
""fullscreenenter"",""1"",""2533""
","
",,,,,,,,,,,,"[{""stimulus"":""run_exp/static/images/task_images/dig.jpg"",""time"":0.09999999403953552},{""stimulus"":""run_exp/static/images/task_images/land.jpg"",""time"":948.8000000119209},{""stimulus"":""run_exp/static/images/task_images/dig.jpg"",""time"":1872.4000000059605}]",[],1,,,,,,,,,,,,,,
harvest,100,465303,0.0-37.0-1.0,"""event"",""trial"",""time""
""fullscreenenter"",""1"",""2533""
","
","
","""event"",""trial"",""time""
""fullscreenenter"",""1"",""2533""
","
",,null,run_exp/static/images/task_images/gems/0.jpg,null,,,,,,,0,,,1,,,,,0,0.180784873,NaN,,,,,,,
decision,101,466181,0.0-37.0-2.0,"""event"",""trial"",""time""
""fullscreenenter"",""1"",""2533""
","
","
","""event"",""trial"",""time""
""fullscreenenter"",""1"",""2533""
","
",,875.4,run_exp/static/images/task_images/land.jpg,65,,,,,,,0,,,1,,,,,,,,41564,1,8,FALSE,,,
dig,102,468314,0.0-38.0-0.0,"""event"",""trial"",""time""
""fullscreenenter"",""1"",""2533""
","
","
","""event"",""trial"",""time""
""fullscreenenter"",""1"",""2533""
","
",,,,,,,,,,,,"[{""stimulus"":""run_exp/static/images/task_images/dig.jpg"",""time"":0.29999998211860657},{""stimulus"":""run_exp/static/images/task_images/land.jpg"",""time"":715.9000000059605},{""stimulus"":""run_exp/static/images/task_images/dig.jpg"",""time"":1427.9000000059605}]",[],1,,,,,,,,,,,,,,
harvest,103,469320,0.0-38.0-1.0,"""event"",""trial"",""time""
""fullscreenenter"",""1"",""2533""
","
","
","""event"",""trial"",""time""
""fullscreenenter"",""1"",""2533""
","
",,null,run_exp/static/images/task_images/gems/0.jpg,null,,,,,,,0,,,1,,,,,0,0.253872581,NaN,,,,,,,
decision,104,471197,0.0-38.0-2.0,"""event"",""trial"",""time""
""fullscreenenter"",""1"",""2533""
","
","
","""event"",""trial"",""time""
""fullscreenenter"",""1"",""2533""
","
",,1875.2,run_exp/static/images/task_images/land.jpg,65,,,,,,,0,,,1,,,,,,,,46580,1,9,FALSE,,,
dig,105,472328,0.0-39.0-0.0,"""event"",""trial"",""time""
""fullscreenenter"",""1"",""2533""
","
","
","""event"",""trial"",""time""
""fullscreenenter"",""1"",""2533""
","
",,,,,,,,,,,,"[{""stimulus"":""run_exp/static/images/task_images/dig.jpg"",""time"":0.09999999403953552},{""stimulus"":""run_exp/static/images/task_images/land.jpg"",""time"":379.7999999821186},{""stimulus"":""run_exp/static/images/task_images/dig.jpg"",""time"":751.1999999880791}]",[],1,,,,,,,,,,,,,,
harvest,106,473332,0.0-39.0-1.0,"""event"",""trial"",""time""
""fullscreenenter"",""1"",""2533""
","
","
","""event"",""trial"",""time""
""fullscreenenter"",""1"",""2533""
","
",,null,run_exp/static/images/task_images/gems/0.jpg,null,,,,,,,0,,,1,,,,,0,0.247281991,NaN,,,,,,,
decision,107,473597,0.0-39.0-2.0,"""event"",""trial"",""time""
""fullscreenenter"",""1"",""2533""
","
","
","""event"",""trial"",""time""
""fullscreenenter"",""1"",""2533""
","
",,263.1,run_exp/static/images/task_images/land.jpg,76,,,,,,,0,,,1,,,,,,,,48980,1,10,TRUE,,,
travel,108,483339,0.0-40.0-0.0,"""event"",""trial"",""time""
""fullscreenenter"",""1"",""2533""
","
","
","""event"",""trial"",""time""
""fullscreenenter"",""1"",""2533""
","
",,,,,,,,,,,,"[{""stimulus"":""run_exp/static/images/task_images/rocket-01.jpg"",""time"":0.09999999403953552},{""stimulus"":""run_exp/static/images/task_images/rocket-02.jpg"",""time"":1088},{""stimulus"":""run_exp/static/images/task_images/rocket-03.jpg"",""time"":2167.5999999940395},{""stimulus"":""run_exp/static/images/task_images/rocket-04.jpg"",""time"":3249.7000000178814},{""stimulus"":""run_exp/static/images/task_images/rocket-05.jpg"",""time"":4327.800000011921},{""stimulus"":""run_exp/static/images/task_images/rocket-06.jpg"",""time"":5411.9000000059605},{""stimulus"":""run_exp/static/images/task_images/rocket-07.jpg"",""time"":6499.9000000059605},{""stimulus"":""run_exp/static/images/task_images/rocket-08.jpg"",""time"":7575.700000017881},{""stimulus"":""run_exp/static/images/task_images/rocket-09.jpg"",""time"":8658.90000000596}]",[],1,,,,,,,,,,,,,,
alien_welcome,109,488348,0.0-40.0-1.0,"""event"",""trial"",""time""
""fullscreenenter"",""1"",""2533""
","
","
","""event"",""trial"",""time""
""fullscreenenter"",""1"",""2533""
","
",,null,run_exp/static/images/task_images/aliens/old_aliens/planet/alien_planet-65.jpg,null,,,,,,,,,,,,,65,"27,65,17,52,29,54,12,51,71,11,62,43,38,8,57,32,47,34,79,45",,,,,,,,,,
land,110,488856,0.0-40.0-2.0,"""event"",""trial"",""time""
""fullscreenenter"",""1"",""2533""
","
","
","""event"",""trial"",""time""
""fullscreenenter"",""1"",""2533""
","
",,null,run_exp/static/images/task_images/land.jpg,null,,,,,,,98,,,2,,,,,,,,,,,,,,
dig,111,490864,0.0-40.0-3.0,"""event"",""trial"",""time""
""fullscreenenter"",""1"",""2533""
","
","
","""event"",""trial"",""time""
""fullscreenenter"",""1"",""2533""
","
",,,,,,,,,,,,"[{""stimulus"":""run_exp/static/images/task_images/dig.jpg"",""time"":0.5},{""stimulus"":""run_exp/static/images/task_images/land.jpg"",""time"":673.9000000059605},{""stimulus"":""run_exp/static/images/task_images/dig.jpg"",""time"":1343.199999988079}]",[],2,,,,,,,,,,,,,,
harvest,112,491873,0.0-40.0-4.0,"""event"",""trial"",""time""
""fullscreenenter"",""1"",""2533""
","
","
","""event"",""trial"",""time""
""fullscreenenter"",""1"",""2533""
","
",,null,run_exp/static/images/task_images/gems/98.jpg,null,,,,,,,22,,,2,,,,,98,0.22334847,0.224489796,,,,,,,
decision,113,492850,0.0-40.0-5.0,"""event"",""trial"",""time""
""fullscreenenter"",""1"",""2533""
","
","
","""event"",""trial"",""time""
""fullscreenenter"",""1"",""2533""
","
",,974.7,run_exp/static/images/task_images/land.jpg,65,,,,,,,22,,,2,,,,,,,,68233,1,0,FALSE,,,
dig,114,494888,0.0-41.0-0.0,"""event"",""trial"",""time""
""fullscreenenter"",""1"",""2533""
","
","
","""event"",""trial"",""time""
""fullscreenenter"",""1"",""2533""
","
",,,,,,,,,,,,"[{""stimulus"":""run_exp/static/images/task_images/dig.jpg"",""time"":0.10000002384185791},{""stimulus"":""run_exp/static/images/task_images/land.jpg"",""time"":685},{""stimulus"":""run_exp/static/images/task_images/dig.jpg"",""time"":1354.800000011921}]",[],2,,,,,,,,,,,,,,
harvest,115,495897,0.0-41.0-1.0,"""event"",""trial"",""time""
""fullscreenenter"",""1"",""2533""
","
","
","""event"",""trial"",""time""
""fullscreenenter"",""1"",""2533""
","
",,null,run_exp/static/images/task_images/gems/22.jpg,null,,,,,,,2,,,2,,,,,22,0.109200074,0.090909091,,,,,,,
decision,116,497469,0.0-41.0-2.0,"""event"",""trial"",""time""
""fullscreenenter"",""1"",""2533""
","
","
","""event"",""trial"",""time""
""fullscreenenter"",""1"",""2533""
","
",,1570.2,run_exp/static/images/task_images/land.jpg,65,,,,,,,2,,,2,,,,,,,,72852,1,1,FALSE,,,
dig,117,498908,0.0-42.0-0.0,"""event"",""trial"",""time""
""fullscreenenter"",""1"",""2533""
","
","
","""event"",""trial"",""time""
""fullscreenenter"",""1"",""2533""
","
",,,,,,,,,,,,"[{""stimulus"":""run_exp/static/images/task_images/dig.jpg"",""time"":0.20000001788139343},{""stimulus"":""run_exp/static/images/task_images/land.jpg"",""time"":479.10000002384186},{""stimulus"":""run_exp/static/images/task_images/dig.jpg"",""time"":962.7000000178814}]",[],2,,,,,,,,,,,,,,
harvest,118,499917,0.0-42.0-1.0,"""event"",""trial"",""time""
""fullscreenenter"",""1"",""2533""
","
","
","""event"",""trial"",""time""
""fullscreenenter"",""1"",""2533""
","
",,null,run_exp/static/images/task_images/gems/2.jpg,null,,,,,,,0,,,2,,,,,2,0.244209397,0,,,,,,,
decision,119,502924,0.0-42.0-2.0,"""event"",""trial"",""time""
""fullscreenenter"",""1"",""2533""
","
","
","""event"",""trial"",""time""
""fullscreenenter"",""1"",""2533""
","
",,null,run_exp/static/images/task_images/land.jpg,null,,,,,,,0,,,2,,,,,,,,78307,1,2,FALSE,,,
time_out,120,504939,0.0-43.0-0.0,"""event"",""trial"",""time""
""fullscreenenter"",""1"",""2533""
","
","
","""event"",""trial"",""time""
""fullscreenenter"",""1"",""2533""
","
",,null,run_exp/static/images/task_images/time_out.jpg,null,,,,,,,0,,,,,,,,,,,,,,,,,
decision,121,504945,0.0-43.0-1.0,"""event"",""trial"",""time""
""fullscreenenter"",""1"",""2533""
","
","
","""event"",""trial"",""time""
""fullscreenenter"",""1"",""2533""
","
",,3.400000006,run_exp/static/images/task_images/land.jpg,65,,,,,,,0,,,2,,,,,,,,80328,1,2,FALSE,,,
dig,122,507947,0.0-44.0-0.0,"""event"",""trial"",""time""
""fullscreenenter"",""1"",""2533""
","
","
","""event"",""trial"",""time""
""fullscreenenter"",""1"",""2533""
","
",,,,,,,,,,,,"[{""stimulus"":""run_exp/static/images/task_images/dig.jpg"",""time"":0.09999999403953552},{""stimulus"":""run_exp/static/images/task_images/land.jpg"",""time"":1004.5999999940395},{""stimulus"":""run_exp/static/images/task_images/dig.jpg"",""time"":2009.4000000059605}]",[],2,,,,,,,,,,,,,,
harvest,123,508952,0.0-44.0-1.0,"""event"",""trial"",""time""
""fullscreenenter"",""1"",""2533""
","
","
","""event"",""trial"",""time""
""fullscreenenter"",""1"",""2533""
","
",,null,run_exp/static/images/task_images/gems/0.jpg,null,,,,,,,0,,,2,,,,,0,0.199237017,NaN,,,,,,,
decision,124,509555,0.0-44.0-2.0,"""event"",""trial"",""time""
""fullscreenenter"",""1"",""2533""
","
","
","""event"",""trial"",""time""
""fullscreenenter"",""1"",""2533""
","
",,602.2,run_exp/static/images/task_images/land.jpg,65,,,,,,,0,,,2,,,,,,,,84939,1,3,FALSE,,,
dig,125,511964,0.0-45.0-0.0,"""event"",""trial"",""time""
""fullscreenenter"",""1"",""2533""
","
","
","""event"",""trial"",""time""
""fullscreenenter"",""1"",""2533""
","
",,,,,,,,,,,,"[{""stimulus"":""run_exp/static/images/task_images/dig.jpg"",""time"":0.19999998807907104},{""stimulus"":""run_exp/static/images/task_images/land.jpg"",""time"":801.8000000119209},{""stimulus"":""run_exp/static/images/task_images/dig.jpg"",""time"":1605.199999988079}]",[],2,,,,,,,,,,,,,,
harvest,126,512972,0.0-45.0-1.0,"""event"",""trial"",""time""
""fullscreenenter"",""1"",""2533""
","
","
","""event"",""trial"",""time""
""fullscreenenter"",""1"",""2533""
","
",,null,run_exp/static/images/task_images/gems/0.jpg,null,,,,,,,0,,,2,,,,,0,0.180110126,NaN,,,,,,,
decision,127,514121,0.0-45.0-2.0,"""event"",""trial"",""time""
""fullscreenenter"",""1"",""2533""
","
","
","""event"",""trial"",""time""
""fullscreenenter"",""1"",""2533""
","
",,1148.2,run_exp/static/images/task_images/land.jpg,65,,,,,,,0,,,2,,,,,,,,89504,1,4,FALSE,,,
dig,128,515985,0.0-46.0-0.0,"""event"",""trial"",""time""
""fullscreenenter"",""1"",""2533""
","
","
","""event"",""trial"",""time""
""fullscreenenter"",""1"",""2533""
","
",,,,,,,,,,,,"[{""stimulus"":""run_exp/static/images/task_images/dig.jpg"",""time"":0.19999998807907104},{""stimulus"":""run_exp/static/images/task_images/land.jpg"",""time"":619.3999999761581},{""stimulus"":""run_exp/static/images/task_images/dig.jpg"",""time"":1243.5999999940395}]",[],2,,,,,,,,,,,,,,
harvest,129,516992,0.0-46.0-1.0,"""event"",""trial"",""time""
""fullscreenenter"",""1"",""2533""
","
","
","""event"",""trial"",""time""
""fullscreenenter"",""1"",""2533""
","
",,null,run_exp/static/images/task_images/gems/0.jpg,null,,,,,,,0,,,2,,,,,0,0.22507035,NaN,,,,,,,
decision,130,517774,0.0-46.0-2.0,"""event"",""trial"",""time""
""fullscreenenter"",""1"",""2533""
","
","
","""event"",""trial"",""time""
""fullscreenenter"",""1"",""2533""
","
",,779.1,run_exp/static/images/task_images/land.jpg,65,,,,,,,0,,,2,,,,,,,,93157,1,5,FALSE,,,
dig,131,520002,0.0-47.0-0.0,"""event"",""trial"",""time""
""fullscreenenter"",""1"",""2533""
","
","
","""event"",""trial"",""time""
""fullscreenenter"",""1"",""2533""
","
",,,,,,,,,,,,"[{""stimulus"":""run_exp/static/images/task_images/dig.jpg"",""time"":0.09999999403953552},{""stimulus"":""run_exp/static/images/task_images/land.jpg"",""time"":747.0999999940395},{""stimulus"":""run_exp/static/images/task_images/dig.jpg"",""time"":1491.0999999940395}]",[],2,,,,,,,,,,,,,,
harvest,132,521009,0.0-47.0-1.0,"""event"",""trial"",""time""
""fullscreenenter"",""1"",""2533""
","
","
","""event"",""trial"",""time""
""fullscreenenter"",""1"",""2533""
","
",,null,run_exp/static/images/task_images/gems/0.jpg,null,,,,,,,0,,,2,,,,,0,0.186447747,NaN,,,,,,,
decision,133,522250,0.0-47.0-2.0,"""event"",""trial"",""time""
""fullscreenenter"",""1"",""2533""
","
","
","""event"",""trial"",""time""
""fullscreenenter"",""1"",""2533""
","
",,1238.3,run_exp/static/images/task_images/land.jpg,65,,,,,,,0,,,2,,,,,,,,97633,1,6,FALSE,,,
dig,134,524019,0.0-48.0-0.0,"""event"",""trial"",""time""
""fullscreenenter"",""1"",""2533""
","
","
","""event"",""trial"",""time""
""fullscreenenter"",""1"",""2533""
","
",,,,,,,,,,,,"[{""stimulus"":""run_exp/static/images/task_images/dig.jpg"",""time"":0.19999998807907104},{""stimulus"":""run_exp/static/images/task_images/land.jpg"",""time"":598.6999999880791},{""stimulus"":""run_exp/static/images/task_images/dig.jpg"",""time"":1182.3999999761581}]",[],2,,,,,,,,,,,,,,
harvest,135,525029,0.0-48.0-1.0,"""event"",""trial"",""time""
""fullscreenenter"",""1"",""2533""
","
","
","""event"",""trial"",""time""
""fullscreenenter"",""1"",""2533""
","
",,null,run_exp/static/images/task_images/gems/0.jpg,null,,,,,,,0,,,2,,,,,0,0.142805451,NaN,,,,,,,
decision,136,525283,0.0-48.0-2.0,"""event"",""trial"",""time""
""fullscreenenter"",""1"",""2533""
","
","
","""event"",""trial"",""time""
""fullscreenenter"",""1"",""2533""
","
",,252.2,run_exp/static/images/task_images/land.jpg,76,,,,,,,0,,,2,,,,,,,,100667,1,7,TRUE,,,
travel,137,535041,0.0-49.0-0.0,"""event"",""trial"",""time""
""fullscreenenter"",""1"",""2533""
","
","
","""event"",""trial"",""time""
""fullscreenenter"",""1"",""2533""
","
",,,,,,,,,,,,"[{""stimulus"":""run_exp/static/images/task_images/rocket-01.jpg"",""time"":0.20000001788139343},{""stimulus"":""run_exp/static/images/task_images/rocket-02.jpg"",""time"":1092.800000011921},{""stimulus"":""run_exp/static/images/task_images/rocket-03.jpg"",""time"":2172.4000000059605},{""stimulus"":""run_exp/static/images/task_images/rocket-04.jpg"",""time"":3260.300000011921},{""stimulus"":""run_exp/static/images/task_images/rocket-05.jpg"",""time"":4342.200000017881},{""stimulus"":""run_exp/static/images/task_images/rocket-06.jpg"",""time"":5420.0999999940395},{""stimulus"":""run_exp/static/images/task_images/rocket-07.jpg"",""time"":6506.0999999940395},{""stimulus"":""run_exp/static/images/task_images/rocket-08.jpg"",""time"":7587.300000011921},{""stimulus"":""run_exp/static/images/task_images/rocket-09.jpg"",""time"":8669.5}]",[],2,,,,,,,,,,,,,,
alien_welcome,138,540051,0.0-49.0-1.0,"""event"",""trial"",""time""
""fullscreenenter"",""1"",""2533""
","
","
","""event"",""trial"",""time""
""fullscreenenter"",""1"",""2533""
","
",,null,run_exp/static/images/task_images/aliens/old_aliens/planet/alien_planet-17.jpg,null,,,,,,,,,,,,,17,"27,65,17,52,29,54,12,51,71,11,62,43,38,8,57,32,47,34,79,45",,,,,,,,,,
land,139,540564,0.0-49.0-2.0,"""event"",""trial"",""time""
""fullscreenenter"",""1"",""2533""
","
","
","""event"",""trial"",""time""
""fullscreenenter"",""1"",""2533""
","
",,null,run_exp/static/images/task_images/land.jpg,null,,,,,,,102,,,3,,,,,,,,,,,,,,
dig,140,542581,0.0-49.0-3.0,"""event"",""trial"",""time""
""fullscreenenter"",""1"",""2533""
","
","
","""event"",""trial"",""time""
""fullscreenenter"",""1"",""2533""
","
",,,,,,,,,,,,"[{""stimulus"":""run_exp/static/images/task_images/dig.jpg"",""time"":0.4000000059604645},{""stimulus"":""run_exp/static/images/task_images/land.jpg"",""time"":679.0999999940395},{""stimulus"":""run_exp/static/images/task_images/dig.jpg"",""time"":1340.699999988079}]",[],3,,,,,,,,,,,,,,
harvest,141,543585,0.0-49.0-4.0,"""event"",""trial"",""time""
""fullscreenenter"",""1"",""2533""
","
","
","""event"",""trial"",""time""
""fullscreenenter"",""1"",""2533""
","
",,null,run_exp/static/images/task_images/gems/102.jpg,null,,,,,,,55,,,3,,,,,102,0.54022344,0.539215686,,,,,,,
decision,142,544099,0.0-49.0-5.0,"""event"",""trial"",""time""
""fullscreenenter"",""1"",""2533""
","
","
","""event"",""trial"",""time""
""fullscreenenter"",""1"",""2533""
","
",,510.7,run_exp/static/images/task_images/land.jpg,65,,,,,,,55,,,3,,,,,,,,119482,1,0,FALSE,,,
dig,143,546597,0.0-50.0-0.0,"""event"",""trial"",""time""
""fullscreenenter"",""1"",""2533""
","
","
","""event"",""trial"",""time""
""fullscreenenter"",""1"",""2533""
","
",,,,,,,,,,,,"[{""stimulus"":""run_exp/static/images/task_images/dig.jpg"",""time"":0.30000001192092896},{""stimulus"":""run_exp/static/images/task_images/land.jpg"",""time"":836.3000000119209},{""stimulus"":""run_exp/static/images/task_images/dig.jpg"",""time"":1666.2000000178814}]",[],3,,,,,,,,,,,,,,
harvest,144,547605,0.0-50.0-1.0,"""event"",""trial"",""time""
""fullscreenenter"",""1"",""2533""
","
","
","""event"",""trial"",""time""
""fullscreenenter"",""1"",""2533""
","
",,null,run_exp/static/images/task_images/gems/55.jpg,null,,,,,,,27,,,3,,,,,55,0.489901493,0.490909091,,,,,,,
decision,145,547750,0.0-50.0-2.0,"""event"",""trial"",""time""
""fullscreenenter"",""1"",""2533""
","
","
","""event"",""trial"",""time""
""fullscreenenter"",""1"",""2533""
","
",,142.3,run_exp/static/images/task_images/land.jpg,65,,,,,,,27,,,3,,,,,,,,123133,1,1,FALSE,,,
dig,146,550619,0.0-51.0-0.0,"""event"",""trial"",""time""
""fullscreenenter"",""1"",""2533""
","
","
","""event"",""trial"",""time""
""fullscreenenter"",""1"",""2533""
","
",,,,,,,,,,,,"[{""stimulus"":""run_exp/static/images/task_images/dig.jpg"",""time"":0.20000001788139343},{""stimulus"":""run_exp/static/images/task_images/land.jpg"",""time"":959.5999999940395},{""stimulus"":""run_exp/static/images/task_images/dig.jpg"",""time"":1915.4000000059605}]",[],3,,,,,,,,,,,,,,
harvest,147,551629,0.0-51.0-1.0,"""event"",""trial"",""time""
""fullscreenenter"",""1"",""2533""
","
","
","""event"",""trial"",""time""
""fullscreenenter"",""1"",""2533""
","
",,null,run_exp/static/images/task_images/gems/27.jpg,null,,,,,,,13,,,3,,,,,27,0.489184331,0.481481481,,,,,,,
decision,148,552554,0.0-51.0-2.0,"""event"",""trial"",""time""
""fullscreenenter"",""1"",""2533""
","
","
","""event"",""trial"",""time""
""fullscreenenter"",""1"",""2533""
","
",,922.2,run_exp/static/images/task_images/land.jpg,65,,,,,,,13,,,3,,,,,,,,127937,1,2,FALSE,,,
dig,149,554637,0.0-52.0-0.0,"""event"",""trial"",""time""
""fullscreenenter"",""1"",""2533""
","
","
","""event"",""trial"",""time""
""fullscreenenter"",""1"",""2533""
","
",,,,,,,,,,,,"[{""stimulus"":""run_exp/static/images/task_images/dig.jpg"",""time"":0.09999999403953552},{""stimulus"":""run_exp/static/images/task_images/land.jpg"",""time"":703.1999999880791},{""stimulus"":""run_exp/static/images/task_images/dig.jpg"",""time"":1391.0999999940395}]",[],3,,,,,,,,,,,,,,
harvest,150,555645,0.0-52.0-1.0,"""event"",""trial"",""time""
""fullscreenenter"",""1"",""2533""
","
","
","""event"",""trial"",""time""
""fullscreenenter"",""1"",""2533""
","
",,null,run_exp/static/images/task_images/gems/13.jpg,null,,,,,,,6,,,3,,,,,13,0.468213241,0.461538462,,,,,,,
decision,151,556151,0.0-52.0-2.0,"""event"",""trial"",""time""
""fullscreenenter"",""1"",""2533""
","
","
","""event"",""trial"",""time""
""fullscreenenter"",""1"",""2533""
","
",,503.1,run_exp/static/images/task_images/land.jpg,65,,,,,,,6,,,3,,,,,,,,131534,1,3,FALSE,,,
dig,152,558657,0.0-53.0-0.0,"""event"",""trial"",""time""
""fullscreenenter"",""1"",""2533""
","
","
","""event"",""trial"",""time""
""fullscreenenter"",""1"",""2533""
","
",,,,,,,,,,,,"[{""stimulus"":""run_exp/static/images/task_images/dig.jpg"",""time"":0.10000002384185791},{""stimulus"":""run_exp/static/images/task_images/land.jpg"",""time"":843.3000000119209},{""stimulus"":""run_exp/static/images/task_images/dig.jpg"",""time"":1675.300000011921}]",[],3,,,,,,,,,,,,,,
harvest,153,559668,0.0-53.0-1.0,"""event"",""trial"",""time""
""fullscreenenter"",""1"",""2533""
","
","
","""event"",""trial"",""time""
""fullscreenenter"",""1"",""2533""
","
",,null,run_exp/static/images/task_images/gems/6.jpg,null,,,,,,,3,,,3,,,,,6,0.44572146,0.5,,,,,,,
decision,154,561445,0.0-53.0-2.0,"""event"",""trial"",""time""
""fullscreenenter"",""1"",""2533""
","
","
","""event"",""trial"",""time""
""fullscreenenter"",""1"",""2533""
","
",,1775.4,run_exp/static/images/task_images/land.jpg,65,,,,,,,3,,,3,,,,,,,,136828,1,4,FALSE,,,
dig,155,562681,0.0-54.0-0.0,"""event"",""trial"",""time""
""fullscreenenter"",""1"",""2533""
","
","
","""event"",""trial"",""time""
""fullscreenenter"",""1"",""2533""
","
",,,,,,,,,,,,"[{""stimulus"":""run_exp/static/images/task_images/dig.jpg"",""time"":0.30000001192092896},{""stimulus"":""run_exp/static/images/task_images/land.jpg"",""time"":420.10000002384186},{""stimulus"":""run_exp/static/images/task_images/dig.jpg"",""time"":828.1000000238419}]",[],3,,,,,,,,,,,,,,
harvest,156,563690,0.0-54.0-1.0,"""event"",""trial"",""time""
""fullscreenenter"",""1"",""2533""
","
","
","""event"",""trial"",""time""
""fullscreenenter"",""1"",""2533""
","
",,null,run_exp/static/images/task_images/gems/3.jpg,null,,,,,,,1,,,3,,,,,3,0.424334545,0.333333333,,,,,,,
decision,157,564072,0.0-54.0-2.0,"""event"",""trial"",""time""
""fullscreenenter"",""1"",""2533""
","
","
","""event"",""trial"",""time""
""fullscreenenter"",""1"",""2533""
","
",,380.4,run_exp/static/images/task_images/land.jpg,65,,,,,,,1,,,3,,,,,,,,139456,1,5,FALSE,,,
dig,158,566700,0.0-55.0-0.0,"""event"",""trial"",""time""
""fullscreenenter"",""1"",""2533""
","
","
","""event"",""trial"",""time""
""fullscreenenter"",""1"",""2533""
","
",,,,,,,,,,,,"[{""stimulus"":""run_exp/static/images/task_images/dig.jpg"",""time"":0.09999999403953552},{""stimulus"":""run_exp/static/images/task_images/land.jpg"",""time"":880.3000000119209},{""stimulus"":""run_exp/static/images/task_images/dig.jpg"",""time"":1750.4000000059605}]",[],3,,,,,,,,,,,,,,
harvest,159,567706,0.0-55.0-1.0,"""event"",""trial"",""time""
""fullscreenenter"",""1"",""2533""
","
","
","""event"",""trial"",""time""
""fullscreenenter"",""1"",""2533""
","
",,null,run_exp/static/images/task_images/gems/1.jpg,null,,,,,,,0,,,3,,,,,1,0.462780303,0,,,,,,,
decision,160,568343,0.0-55.0-2.0,"""event"",""trial"",""time""
""fullscreenenter"",""1"",""2533""
","
","
","""event"",""trial"",""time""
""fullscreenenter"",""1"",""2533""
","
",,634.6,run_exp/static/images/task_images/land.jpg,65,,,,,,,0,,,3,,,,,,,,143727,1,6,FALSE,,,
dig,161,570725,0.0-56.0-0.0,"""event"",""trial"",""time""
""fullscreenenter"",""1"",""2533""
","
","
","""event"",""trial"",""time""
""fullscreenenter"",""1"",""2533""
","
",,,,,,,,,,,,"[{""stimulus"":""run_exp/static/images/task_images/dig.jpg"",""time"":0.20000001788139343},{""stimulus"":""run_exp/static/images/task_images/land.jpg"",""time"":801.7000000178814},{""stimulus"":""run_exp/static/images/task_images/dig.jpg"",""time"":1585.7000000178814}]",[],3,,,,,,,,,,,,,,
harvest,162,571733,0.0-56.0-1.0,"""event"",""trial"",""time""
""fullscreenenter"",""1"",""2533""
","
","
","""event"",""trial"",""time""
""fullscreenenter"",""1"",""2533""
","
",,null,run_exp/static/images/task_images/gems/0.jpg,null,,,,,,,0,,,3,,,,,0,0.535320549,NaN,,,,,,,
decision,163,572899,0.0-56.0-2.0,"""event"",""trial"",""time""
""fullscreenenter"",""1"",""2533""
","
","
","""event"",""trial"",""time""
""fullscreenenter"",""1"",""2533""
","
",,1163,run_exp/static/images/task_images/land.jpg,65,,,,,,,0,,,3,,,,,,,,148282,1,7,FALSE,,,
dig,164,574749,0.0-57.0-0.0,"""event"",""trial"",""time""
""fullscreenenter"",""1"",""2533""
","
","
","""event"",""trial"",""time""
""fullscreenenter"",""1"",""2533""
","
",,,,,,,,,,,,"[{""stimulus"":""run_exp/static/images/task_images/dig.jpg"",""time"":0},{""stimulus"":""run_exp/static/images/task_images/land.jpg"",""time"":617.5},{""stimulus"":""run_exp/static/images/task_images/dig.jpg"",""time"":1230.5}]",[],3,,,,,,,,,,,,,,
harvest,165,575753,0.0-57.0-1.0,"""event"",""trial"",""time""
""fullscreenenter"",""1"",""2533""
","
","
","""event"",""trial"",""time""
""fullscreenenter"",""1"",""2533""
","
",,null,run_exp/static/images/task_images/gems/0.jpg,null,,,,,,,0,,,3,,,,,0,0.417170415,NaN,,,,,,,
decision,166,576053,0.0-57.0-2.0,"""event"",""trial"",""time""
""fullscreenenter"",""1"",""2533""
","
","
","""event"",""trial"",""time""
""fullscreenenter"",""1"",""2533""
","
",,297.8,run_exp/static/images/task_images/land.jpg,65,,,,,,,0,,,3,,,,,,,,151437,1,8,FALSE,,,
dig,167,578761,0.0-58.0-0.0,"""event"",""trial"",""time""
""fullscreenenter"",""1"",""2533""
","
","
","""event"",""trial"",""time""
""fullscreenenter"",""1"",""2533""
","
",,,,,,,,,,,,"[{""stimulus"":""run_exp/static/images/task_images/dig.jpg"",""time"":0.30000001192092896},{""stimulus"":""run_exp/static/images/task_images/land.jpg"",""time"":904.5999999940395},{""stimulus"":""run_exp/static/images/task_images/dig.jpg"",""time"":1809.2000000178814}]",[],3,,,,,,,,,,,,,,
harvest,168,579770,0.0-58.0-1.0,"""event"",""trial"",""time""
""fullscreenenter"",""1"",""2533""
","
","
","""event"",""trial"",""time""
""fullscreenenter"",""1"",""2533""
","
",,null,run_exp/static/images/task_images/gems/0.jpg,null,,,,,,,0,,,3,,,,,0,0.529443377,NaN,,,,,,,
decision,169,579885,0.0-58.0-2.0,"""event"",""trial"",""time""
""fullscreenenter"",""1"",""2533""
","
","
","""event"",""trial"",""time""
""fullscreenenter"",""1"",""2533""
","
",,113.2,run_exp/static/images/task_images/land.jpg,76,,,,,,,0,,,3,,,,,,,,155268,1,9,TRUE,,,
travel,170,589778,0.0-59.0-0.0,"""event"",""trial"",""time""
""fullscreenenter"",""1"",""2533""
","
","
","""event"",""trial"",""time""
""fullscreenenter"",""1"",""2533""
","
",,,,,,,,,,,,"[{""stimulus"":""run_exp/static/images/task_images/rocket-01.jpg"",""time"":0.09999999403953552},{""stimulus"":""run_exp/static/images/task_images/rocket-02.jpg"",""time"":1104},{""stimulus"":""run_exp/static/images/task_images/rocket-03.jpg"",""time"":2200.300000011921},{""stimulus"":""run_exp/static/images/task_images/rocket-04.jpg"",""time"":3298.5999999940395},{""stimulus"":""run_exp/static/images/task_images/rocket-05.jpg"",""time"":4400.4000000059605},{""stimulus"":""run_exp/static/images/task_images/rocket-06.jpg"",""time"":5495.700000017881},{""stimulus"":""run_exp/static/images/task_images/rocket-07.jpg"",""time"":6596.200000017881},{""stimulus"":""run_exp/static/images/task_images/rocket-08.jpg"",""time"":7691.700000017881},{""stimulus"":""run_exp/static/images/task_images/rocket-09.jpg"",""time"":8793.09999999404}]",[],3,,,,,,,,,,,,,,
alien_welcome,171,594786,0.0-59.0-1.0,"""event"",""trial"",""time""
""fullscreenenter"",""1"",""2533""
","
","
","""event"",""trial"",""time""
""fullscreenenter"",""1"",""2533""
","
",,null,run_exp/static/images/task_images/aliens/old_aliens/planet/alien_planet-52.jpg,null,,,,,,,,,,,,,52,"27,65,17,52,29,54,12,51,71,11,62,43,38,8,57,32,47,34,79,45",,,,,,,,,,
land,172,595302,0.0-59.0-2.0,"""event"",""trial"",""time""
""fullscreenenter"",""1"",""2533""
","
","
","""event"",""trial"",""time""
""fullscreenenter"",""1"",""2533""
","
",,null,run_exp/static/images/task_images/land.jpg,null,,,,,,,109,,,4,,,,,,,,,,,,,,
dig,173,597318,0.0-59.0-3.0,"""event"",""trial"",""time""
""fullscreenenter"",""1"",""2533""
","
","
","""event"",""trial"",""time""
""fullscreenenter"",""1"",""2533""
","
",,,,,,,,,,,,"[{""stimulus"":""run_exp/static/images/task_images/dig.jpg"",""time"":0.4000000059604645},{""stimulus"":""run_exp/static/images/task_images/land.jpg"",""time"":673.7000000178814},{""stimulus"":""run_exp/static/images/task_images/dig.jpg"",""time"":1337.9000000059605}]",[],4,,,,,,,,,,,,,,
harvest,174,598325,0.0-59.0-4.0,"""event"",""trial"",""time""
""fullscreenenter"",""1"",""2533""
","
","
","""event"",""trial"",""time""
""fullscreenenter"",""1"",""2533""
","
",,null,run_exp/static/images/task_images/gems/109.jpg,null,,,,,,,51,,,4,,,,,109,0.46580251,0.467889908,,,,,,,
decision,175,601334,0.0-59.0-5.0,"""event"",""trial"",""time""
""fullscreenenter"",""1"",""2533""
","
","
","""event"",""trial"",""time""
""fullscreenenter"",""1"",""2533""
","
",,null,run_exp/static/images/task_images/land.jpg,null,,,,,,,51,,,4,,,,,,,,176717,1,0,FALSE,,,
time_out,176,603348,0.0-60.0-0.0,"""event"",""trial"",""time""
""fullscreenenter"",""1"",""2533""
","
","
","""event"",""trial"",""time""
""fullscreenenter"",""1"",""2533""
","
",,null,run_exp/static/images/task_images/time_out.jpg,null,,,,,,,51,,,,,,,,,,,,,,,,,
decision,177,606358,0.0-60.0-1.0,"""event"",""trial"",""time""
""fullscreenenter"",""1"",""2533""
","
","
","""event"",""trial"",""time""
""fullscreenenter"",""1"",""2533""
","
",,null,run_exp/static/images/task_images/land.jpg,null,,,,,,,51,,,4,,,,,,,,181741,1,0,FALSE,,,
time_out,178,608373,0.0-61.0-0.0,"""event"",""trial"",""time""
""fullscreenenter"",""1"",""2533""
","
","
","""event"",""trial"",""time""
""fullscreenenter"",""1"",""2533""
","
",,null,run_exp/static/images/task_images/time_out.jpg,null,,,,,,,51,,,,,,,,,,,,,,,,,
decision,179,611379,0.0-61.0-1.0,"""event"",""trial"",""time""
""fullscreenenter"",""1"",""2533""
","
","
","""event"",""trial"",""time""
""fullscreenenter"",""1"",""2533""
","
",,null,run_exp/static/images/task_images/land.jpg,null,,,,,,,51,,,4,,,,,,,,186762,1,0,FALSE,,,
time_out,180,613386,0.0-62.0-0.0,"""event"",""trial"",""time""
""fullscreenenter"",""1"",""2533""
","
","
","""event"",""trial"",""time""
""fullscreenenter"",""1"",""2533""
","
",,null,run_exp/static/images/task_images/time_out.jpg,null,,,,,,,51,,,,,,,,,,,,,,,,,
decision,181,616327,0.0-62.0-1.0,"""event"",""trial"",""time""
""fullscreenenter"",""1"",""2533""
","
","
","""event"",""trial"",""time""
""fullscreenenter"",""1"",""2533""
","
",,2939.3,run_exp/static/images/task_images/land.jpg,65,,,,,,,51,,,4,,,,,,,,191711,1,0,FALSE,,,
dig,182,616393,0.0-63.0-0.0,"""event"",""trial"",""time""
""fullscreenenter"",""1"",""2533""
","
","
","""event"",""trial"",""time""
""fullscreenenter"",""1"",""2533""
","
",,,,,,,,,,,,"[{""stimulus"":""run_exp/static/images/task_images/dig.jpg"",""time"":0.19999998807907104},{""stimulus"":""run_exp/static/images/task_images/land.jpg"",""time"":23},{""stimulus"":""run_exp/static/images/task_images/dig.jpg"",""time"":40.69999998807907}]",[],4,,,,,,,,,,,,,,
harvest,183,617405,0.0-63.0-1.0,"""event"",""trial"",""time""
""fullscreenenter"",""1"",""2533""
","
","
","""event"",""trial"",""time""
""fullscreenenter"",""1"",""2533""
","
",,null,run_exp/static/images/task_images/gems/51.jpg,null,,,,,,,22,,,4,,,,,51,0.421744736,0.431372549,,,,,,,
decision,184,620413,0.0-63.0-2.0,"""event"",""trial"",""time""
""fullscreenenter"",""1"",""2533""
","
","
","""event"",""trial"",""time""
""fullscreenenter"",""1"",""2533""
","
",,null,run_exp/static/images/task_images/land.jpg,null,,,,,,,22,,,4,,,,,,,,195797,1,1,FALSE,,,
time_out,185,622430,0.0-64.0-0.0,"""event"",""trial"",""time""
""fullscreenenter"",""1"",""2533""
","
","
","""event"",""trial"",""time""
""fullscreenenter"",""1"",""2533""
","
",,null,run_exp/static/images/task_images/time_out.jpg,null,,,,,,,22,,,,,,,,,,,,,,,,,
decision,186,623597,0.0-64.0-1.0,"""event"",""trial"",""time""
""fullscreenenter"",""1"",""2533""
","
","
","""event"",""trial"",""time""
""fullscreenenter"",""1"",""2533""
","
",,1164.5,run_exp/static/images/task_images/land.jpg,65,,,,,,,22,,,4,,,,,,,,198980,1,1,FALSE,,,
dig,187,625443,0.0-65.0-0.0,"""event"",""trial"",""time""
""fullscreenenter"",""1"",""2533""
","
","
","""event"",""trial"",""time""
""fullscreenenter"",""1"",""2533""
","
",,,,,,,,,,,,"[{""stimulus"":""run_exp/static/images/task_images/dig.jpg"",""time"":0.09999999403953552},{""stimulus"":""run_exp/static/images/task_images/land.jpg"",""time"":618.8999999761581},{""stimulus"":""run_exp/static/images/task_images/dig.jpg"",""time"":1229.8999999761581}]",[],4,,,,,,,,,,,,,,
harvest,188,626450,0.0-65.0-1.0,"""event"",""trial"",""time""
""fullscreenenter"",""1"",""2533""
","
","
","""event"",""trial"",""time""
""fullscreenenter"",""1"",""2533""
","
",,null,run_exp/static/images/task_images/gems/22.jpg,null,,,,,,,11,,,4,,,,,22,0.499241744,0.5,,,,,,,
decision,189,627919,0.0-65.0-2.0,"""event"",""trial"",""time""
""fullscreenenter"",""1"",""2533""
","
","
","""event"",""trial"",""time""
""fullscreenenter"",""1"",""2533""
","
",,1466.3,run_exp/static/images/task_images/land.jpg,65,,,,,,,11,,,4,,,,,,,,203302,1,2,FALSE,,,
dig,190,629462,0.0-66.0-0.0,"""event"",""trial"",""time""
""fullscreenenter"",""1"",""2533""
","
","
","""event"",""trial"",""time""
""fullscreenenter"",""1"",""2533""
","
",,,,,,,,,,,,"[{""stimulus"":""run_exp/static/images/task_images/dig.jpg"",""time"":0.19999998807907104},{""stimulus"":""run_exp/static/images/task_images/land.jpg"",""time"":522.2999999821186},{""stimulus"":""run_exp/static/images/task_images/dig.jpg"",""time"":1034.699999988079}]",[],4,,,,,,,,,,,,,,
harvest,191,630470,0.0-66.0-1.0,"""event"",""trial"",""time""
""fullscreenenter"",""1"",""2533""
","
","
","""event"",""trial"",""time""
""fullscreenenter"",""1"",""2533""
","
",,null,run_exp/static/images/task_images/gems/11.jpg,null,,,,,,,6,,,4,,,,,11,0.513680968,0.545454545,,,,,,,
decision,192,630966,0.0-66.0-2.0,"""event"",""trial"",""time""
""fullscreenenter"",""1"",""2533""
","
","
","""event"",""trial"",""time""
""fullscreenenter"",""1"",""2533""
","
",,493.4,run_exp/static/images/task_images/land.jpg,65,,,,,,,6,,,4,,,,,,,,206349,1,3,FALSE,,,
dig,193,633484,0.0-67.0-0.0,"""event"",""trial"",""time""
""fullscreenenter"",""1"",""2533""
","
","
","""event"",""trial"",""time""
""fullscreenenter"",""1"",""2533""
","
",,,,,,,,,,,,"[{""stimulus"":""run_exp/static/images/task_images/dig.jpg"",""time"":0.19999998807907104},{""stimulus"":""run_exp/static/images/task_images/land.jpg"",""time"":844.9000000059605},{""stimulus"":""run_exp/static/images/task_images/dig.jpg"",""time"":1672.4000000059605}]",[],4,,,,,,,,,,,,,,
harvest,194,634493,0.0-67.0-1.0,"""event"",""trial"",""time""
""fullscreenenter"",""1"",""2533""
","
","
","""event"",""trial"",""time""
""fullscreenenter"",""1"",""2533""
","
",,null,run_exp/static/images/task_images/gems/6.jpg,null,,,,,,,3,,,4,,,,,6,0.508075432,0.5,,,,,,,
decision,195,634529,0.0-67.0-2.0,"""event"",""trial"",""time""
""fullscreenenter"",""1"",""2533""
","
","
","""event"",""trial"",""time""
""fullscreenenter"",""1"",""2533""
","
",,33.09999999,run_exp/static/images/task_images/land.jpg,65,,,,,,,3,,,4,,,,,,,,209912,1,4,FALSE,,,
dig,196,637500,0.0-68.0-0.0,"""event"",""trial"",""time""
""fullscreenenter"",""1"",""2533""
","
","
","""event"",""trial"",""time""
""fullscreenenter"",""1"",""2533""
","
",,,,,,,,,,,,"[{""stimulus"":""run_exp/static/images/task_images/dig.jpg"",""time"":0.09999999403953552},{""stimulus"":""run_exp/static/images/task_images/land.jpg"",""time"":993.2000000178814},{""stimulus"":""run_exp/static/images/task_images/dig.jpg"",""time"":1982.2000000178814}]",[],4,,,,,,,,,,,,,,
harvest,197,638509,0.0-68.0-1.0,"""event"",""trial"",""time""
""fullscreenenter"",""1"",""2533""
","
","
","""event"",""trial"",""time""
""fullscreenenter"",""1"",""2533""
","
",,null,run_exp/static/images/task_images/gems/3.jpg,null,,,,,,,1,,,4,,,,,3,0.385610459,0.333333333,,,,,,,
decision,198,638909,0.0-68.0-2.0,"""event"",""trial"",""time""
""fullscreenenter"",""1"",""2533""
","
","
","""event"",""trial"",""time""
""fullscreenenter"",""1"",""2533""
","
",,396.7,run_exp/static/images/task_images/land.jpg,65,,,,,,,1,,,4,,,,,,,,214292,1,5,FALSE,,,
dig,199,641526,0.0-69.0-0.0,"""event"",""trial"",""time""
""fullscreenenter"",""1"",""2533""
","
","
","""event"",""trial"",""time""
""fullscreenenter"",""1"",""2533""
","
",,,,,,,,,,,,"[{""stimulus"":""run_exp/static/images/task_images/dig.jpg"",""time"":0.09999999403953552},{""stimulus"":""run_exp/static/images/task_images/land.jpg"",""time"":877.9000000059605},{""stimulus"":""run_exp/static/images/task_images/dig.jpg"",""time"":1737.300000011921}]",[],4,,,,,,,,,,,,,,
harvest,200,642530,0.0-69.0-1.0,"""event"",""trial"",""time""
""fullscreenenter"",""1"",""2533""
","
","
","""event"",""trial"",""time""
""fullscreenenter"",""1"",""2533""
","
",,null,run_exp/static/images/task_images/gems/1.jpg,null,,,,,,,0,,,4,,,,,1,0.495053379,0,,,,,,,
decision,201,642889,0.0-69.0-2.0,"""event"",""trial"",""time""
""fullscreenenter"",""1"",""2533""
","
","
","""event"",""trial"",""time""
""fullscreenenter"",""1"",""2533""
","
",,356.4,run_exp/static/images/task_images/land.jpg,65,,,,,,,0,,,4,,,,,,,,218272,1,6,FALSE,,,
dig,202,645541,0.0-70.0-0.0,"""event"",""trial"",""time""
""fullscreenenter"",""1"",""2533""
","
","
","""event"",""trial"",""time""
""fullscreenenter"",""1"",""2533""
","
",,,,,,,,,,,,"[{""stimulus"":""run_exp/static/images/task_images/dig.jpg"",""time"":0.19999998807907104},{""stimulus"":""run_exp/static/images/task_images/land.jpg"",""time"":886.5999999940395},{""stimulus"":""run_exp/static/images/task_images/dig.jpg"",""time"":1765.3999999761581}]",[],4,,,,,,,,,,,,,,
harvest,203,646550,0.0-70.0-1.0,"""event"",""trial"",""time""
""fullscreenenter"",""1"",""2533""
","
","
","""event"",""trial"",""time""
""fullscreenenter"",""1"",""2533""
","
",,null,run_exp/static/images/task_images/gems/0.jpg,null,,,,,,,0,,,4,,,,,0,0.542275789,NaN,,,,,,,
decision,204,646838,0.0-70.0-2.0,"""event"",""trial"",""time""
""fullscreenenter"",""1"",""2533""
","
","
","""event"",""trial"",""time""
""fullscreenenter"",""1"",""2533""
","
",,285.5,run_exp/static/images/task_images/land.jpg,65,,,,,,,0,,,4,,,,,,,,222222,1,7,FALSE,,,
dig,205,649565,0.0-71.0-0.0,"""event"",""trial"",""time""
""fullscreenenter"",""1"",""2533""
","
","
","""event"",""trial"",""time""
""fullscreenenter"",""1"",""2533""
","
",,,,,,,,,,,,"[{""stimulus"":""run_exp/static/images/task_images/dig.jpg"",""time"":0.09999999403953552},{""stimulus"":""run_exp/static/images/task_images/land.jpg"",""time"":912.3000000119209},{""stimulus"":""run_exp/static/images/task_images/dig.jpg"",""time"":1810.4000000059605}]",[],4,,,,,,,,,,,,,,
harvest,206,650573,0.0-71.0-1.0,"""event"",""trial"",""time""
""fullscreenenter"",""1"",""2533""
","
","
","""event"",""trial"",""time""
""fullscreenenter"",""1"",""2533""
","
",,null,run_exp/static/images/task_images/gems/0.jpg,null,,,,,,,0,,,4,,,,,0,0.56109494,NaN,,,,,,,
decision,207,651543,0.0-71.0-2.0,"""event"",""trial"",""time""
""fullscreenenter"",""1"",""2533""
","
","
","""event"",""trial"",""time""
""fullscreenenter"",""1"",""2533""
","
",,967.3,run_exp/static/images/task_images/land.jpg,76,,,,,,,0,,,4,,,,,,,,226926,1,8,TRUE,,,
travel,208,660578,0.0-72.0-0.0,"""event"",""trial"",""time""
""fullscreenenter"",""1"",""2533""
","
","
","""event"",""trial"",""time""
""fullscreenenter"",""1"",""2533""
","
",,,,,,,,,,,,"[{""stimulus"":""run_exp/static/images/task_images/rocket-01.jpg"",""time"":0.20000001788139343},{""stimulus"":""run_exp/static/images/task_images/rocket-02.jpg"",""time"":1011.7000000178814},{""stimulus"":""run_exp/static/images/task_images/rocket-03.jpg"",""time"":2019.300000011921},{""stimulus"":""run_exp/static/images/task_images/rocket-04.jpg"",""time"":3019.4000000059605},{""stimulus"":""run_exp/static/images/task_images/rocket-05.jpg"",""time"":4017.0999999940395},{""stimulus"":""run_exp/static/images/task_images/rocket-06.jpg"",""time"":5019.800000011921},{""stimulus"":""run_exp/static/images/task_images/rocket-07.jpg"",""time"":6025.4000000059605},{""stimulus"":""run_exp/static/images/task_images/rocket-08.jpg"",""time"":7023},{""stimulus"":""run_exp/static/images/task_images/rocket-09.jpg"",""time"":8033.9000000059605}]",[],4,,,,,,,,,,,,,,
alien_welcome,209,665588,0.0-72.0-1.0,"""event"",""trial"",""time""
""fullscreenenter"",""1"",""2533""
","
","
","""event"",""trial"",""time""
""fullscreenenter"",""1"",""2533""
","
",,null,run_exp/static/images/task_images/aliens/old_aliens/planet/alien_planet-29.jpg,null,,,,,,,,,,,,,29,"27,65,17,52,29,54,12,51,71,11,62,43,38,8,57,32,47,34,79,45",,,,,,,,,,
land,210,666098,0.0-72.0-2.0,"""event"",""trial"",""time""
""fullscreenenter"",""1"",""2533""
","
","
","""event"",""trial"",""time""
""fullscreenenter"",""1"",""2533""
","
",,null,run_exp/static/images/task_images/land.jpg,null,,,,,,,98,,,5,,,,,,,,,,,,,,
dig,211,668111,0.0-72.0-3.0,"""event"",""trial"",""time""
""fullscreenenter"",""1"",""2533""
","
","
","""event"",""trial"",""time""
""fullscreenenter"",""1"",""2533""
","
",,,,,,,,,,,,"[{""stimulus"":""run_exp/static/images/task_images/dig.jpg"",""time"":0.5},{""stimulus"":""run_exp/static/images/task_images/land.jpg"",""time"":674},{""stimulus"":""run_exp/static/images/task_images/dig.jpg"",""time"":1342.2999999821186}]",[],5,,,,,,,,,,,,,,
harvest,212,669117,0.0-72.0-4.0,"""event"",""trial"",""time""
""fullscreenenter"",""1"",""2533""
","
","
","""event"",""trial"",""time""
""fullscreenenter"",""1"",""2533""
","
",,null,run_exp/static/images/task_images/gems/98.jpg,null,,,,,,,49,,,5,,,,,98,0.503081199,0.5,,,,,,,
decision,213,669889,0.0-72.0-5.0,"""event"",""trial"",""time""
""fullscreenenter"",""1"",""2533""
","
","
","""event"",""trial"",""time""
""fullscreenenter"",""1"",""2533""
","
",,769.2,run_exp/static/images/task_images/land.jpg,65,,,,,,,49,,,5,,,,,,,,245272,1,0,FALSE,,,
dig,214,672132,0.0-73.0-0.0,"""event"",""trial"",""time""
""fullscreenenter"",""1"",""2533""
","
","
","""event"",""trial"",""time""
""fullscreenenter"",""1"",""2533""
","
",,,,,,,,,,,,"[{""stimulus"":""run_exp/static/images/task_images/dig.jpg"",""time"":0.30000001192092896},{""stimulus"":""run_exp/static/images/task_images/land.jpg"",""time"":748.6000000238419},{""stimulus"":""run_exp/static/images/task_images/dig.jpg"",""time"":1497}]",[],5,,,,,,,,,,,,,,
harvest,215,673140,0.0-73.0-1.0,"""event"",""trial"",""time""
""fullscreenenter"",""1"",""2533""
","
","
","""event"",""trial"",""time""
""fullscreenenter"",""1"",""2533""
","
",,null,run_exp/static/images/task_images/gems/49.jpg,null,,,,,,,25,,,5,,,,,49,0.509085769,0.510204082,,,,,,,
decision,216,676149,0.0-73.0-2.0,"""event"",""trial"",""time""
""fullscreenenter"",""1"",""2533""
","
","
","""event"",""trial"",""time""
""fullscreenenter"",""1"",""2533""
","
",,null,run_exp/static/images/task_images/land.jpg,null,,,,,,,25,,,5,,,,,,,,251532,1,1,FALSE,,,
time_out,217,678154,0.0-74.0-0.0,"""event"",""trial"",""time""
""fullscreenenter"",""1"",""2533""
","
","
","""event"",""trial"",""time""
""fullscreenenter"",""1"",""2533""
","
",,null,run_exp/static/images/task_images/time_out.jpg,null,,,,,,,25,,,,,,,,,,,,,,,,,
decision,218,679757,0.0-74.0-1.0,"""event"",""trial"",""time""
""fullscreenenter"",""1"",""2533""
","
","
","""event"",""trial"",""time""
""fullscreenenter"",""1"",""2533""
","
",,1600.2,run_exp/static/images/task_images/land.jpg,65,,,,,,,25,,,5,,,,,,,,255140,1,1,FALSE,,,
dig,219,681162,0.0-75.0-0.0,"""event"",""trial"",""time""
""fullscreenenter"",""1"",""2533""
","
","
","""event"",""trial"",""time""
""fullscreenenter"",""1"",""2533""
","
",,,,,,,,,,,,"[{""stimulus"":""run_exp/static/images/task_images/dig.jpg"",""time"":0.19999998807907104},{""stimulus"":""run_exp/static/images/task_images/land.jpg"",""time"":474.59999999403954},{""stimulus"":""run_exp/static/images/task_images/dig.jpg"",""time"":941.3000000119209}]",[],5,,,,,,,,,,,,,,
harvest,220,682171,0.0-75.0-1.0,"""event"",""trial"",""time""
""fullscreenenter"",""1"",""2533""
","
","
","""event"",""trial"",""time""
""fullscreenenter"",""1"",""2533""
","
",,null,run_exp/static/images/task_images/gems/25.jpg,null,,,,,,,12,,,5,,,,,25,0.467904483,0.48,,,,,,,
decision,221,682320,0.0-75.0-2.0,"""event"",""trial"",""time""
""fullscreenenter"",""1"",""2533""
","
","
","""event"",""trial"",""time""
""fullscreenenter"",""1"",""2533""
","
",,146.6,run_exp/static/images/task_images/land.jpg,65,,,,,,,12,,,5,,,,,,,,257704,1,2,FALSE,,,
dig,222,685187,0.0-76.0-0.0,"""event"",""trial"",""time""
""fullscreenenter"",""1"",""2533""
","
","
","""event"",""trial"",""time""
""fullscreenenter"",""1"",""2533""
","
",,,,,,,,,,,,"[{""stimulus"":""run_exp/static/images/task_images/dig.jpg"",""time"":0.29999998211860657},{""stimulus"":""run_exp/static/images/task_images/land.jpg"",""time"":961.6999999880791},{""stimulus"":""run_exp/static/images/task_images/dig.jpg"",""time"":1909.699999988079}]",[],5,,,,,,,,,,,,,,
harvest,223,686195,0.0-76.0-1.0,"""event"",""trial"",""time""
""fullscreenenter"",""1"",""2533""
","
","
","""event"",""trial"",""time""
""fullscreenenter"",""1"",""2533""
","
",,null,run_exp/static/images/task_images/gems/12.jpg,null,,,,,,,5,,,5,,,,,12,0.429017855,0.416666667,,,,,,,
decision,224,686402,0.0-76.0-2.0,"""event"",""trial"",""time""
""fullscreenenter"",""1"",""2533""
","
","
","""event"",""trial"",""time""
""fullscreenenter"",""1"",""2533""
","
",,204.3,run_exp/static/images/task_images/land.jpg,65,,,,,,,5,,,5,,,,,,,,261785,1,3,FALSE,,,
dig,225,689207,0.0-77.0-0.0,"""event"",""trial"",""time""
""fullscreenenter"",""1"",""2533""
","
","
","""event"",""trial"",""time""
""fullscreenenter"",""1"",""2533""
","
",,,,,,,,,,,,"[{""stimulus"":""run_exp/static/images/task_images/dig.jpg"",""time"":0.19999998807907104},{""stimulus"":""run_exp/static/images/task_images/land.jpg"",""time"":939.9000000059605},{""stimulus"":""run_exp/static/images/task_images/dig.jpg"",""time"":1870.0999999940395}]",[],5,,,,,,,,,,,,,,
harvest,226,690214,0.0-77.0-1.0,"""event"",""trial"",""time""
""fullscreenenter"",""1"",""2533""
","
","
","""event"",""trial"",""time""
""fullscreenenter"",""1"",""2533""
","
",,null,run_exp/static/images/task_images/gems/5.jpg,null,,,,,,,2,,,5,,,,,5,0.499298253,0.4,,,,,,,
decision,227,692865,0.0-77.0-2.0,"""event"",""trial"",""time""
""fullscreenenter"",""1"",""2533""
","
","
","""event"",""trial"",""time""
""fullscreenenter"",""1"",""2533""
","
",,2648.6,run_exp/static/images/task_images/land.jpg,65,,,,,,,2,,,5,,,,,,,,268248,1,4,FALSE,,,
dig,228,693230,0.0-78.0-0.0,"""event"",""trial"",""time""
""fullscreenenter"",""1"",""2533""
","
","
","""event"",""trial"",""time""
""fullscreenenter"",""1"",""2533""
","
",,,,,,,,,,,,"[{""stimulus"":""run_exp/static/images/task_images/dig.jpg"",""time"":0.29999998211860657},{""stimulus"":""run_exp/static/images/task_images/land.jpg"",""time"":130.09999999403954},{""stimulus"":""run_exp/static/images/task_images/dig.jpg"",""time"":238.09999999403954}]",[],5,,,,,,,,,,,,,,
harvest,229,694236,0.0-78.0-1.0,"""event"",""trial"",""time""
""fullscreenenter"",""1"",""2533""
","
","
","""event"",""trial"",""time""
""fullscreenenter"",""1"",""2533""
","
",,null,run_exp/static/images/task_images/gems/2.jpg,null,,,,,,,1,,,5,,,,,2,0.44743142,0.5,,,,,,,
decision,230,694586,0.0-78.0-2.0,"""event"",""trial"",""time""
""fullscreenenter"",""1"",""2533""
","
","
","""event"",""trial"",""time""
""fullscreenenter"",""1"",""2533""
","
",,347.5,run_exp/static/images/task_images/land.jpg,65,,,,,,,1,,,5,,,,,,,,269970,1,5,FALSE,,,
dig,231,697253,0.0-79.0-0.0,"""event"",""trial"",""time""
""fullscreenenter"",""1"",""2533""
","
","
","""event"",""trial"",""time""
""fullscreenenter"",""1"",""2533""
","
",,,,,,,,,,,,"[{""stimulus"":""run_exp/static/images/task_images/dig.jpg"",""time"":0.19999998807907104},{""stimulus"":""run_exp/static/images/task_images/land.jpg"",""time"":892.6999999880791},{""stimulus"":""run_exp/static/images/task_images/dig.jpg"",""time"":1776}]",[],5,,,,,,,,,,,,,,
harvest,232,698261,0.0-79.0-1.0,"""event"",""trial"",""time""
""fullscreenenter"",""1"",""2533""
","
","
","""event"",""trial"",""time""
""fullscreenenter"",""1"",""2533""
","
",,null,run_exp/static/images/task_images/gems/1.jpg,null,,,,,,,0,,,5,,,,,1,0.418848129,0,,,,,,,
decision,233,699643,0.0-79.0-2.0,"""event"",""trial"",""time""
""fullscreenenter"",""1"",""2533""
","
","
","""event"",""trial"",""time""
""fullscreenenter"",""1"",""2533""
","
",,1378.9,run_exp/static/images/task_images/land.jpg,65,,,,,,,0,,,5,,,,,,,,275026,1,6,FALSE,,,
dig,234,701279,0.0-80.0-0.0,"""event"",""trial"",""time""
""fullscreenenter"",""1"",""2533""
","
","
","""event"",""trial"",""time""
""fullscreenenter"",""1"",""2533""
","
",,,,,,,,,,,,"[{""stimulus"":""run_exp/static/images/task_images/dig.jpg"",""time"":0.19999998807907104},{""stimulus"":""run_exp/static/images/task_images/land.jpg"",""time"":541.3000000119209},{""stimulus"":""run_exp/static/images/task_images/dig.jpg"",""time"":1084.300000011921}]",[],5,,,,,,,,,,,,,,
harvest,235,702286,0.0-80.0-1.0,"""event"",""trial"",""time""
""fullscreenenter"",""1"",""2533""
","
","
","""event"",""trial"",""time""
""fullscreenenter"",""1"",""2533""
","
",,null,run_exp/static/images/task_images/gems/0.jpg,null,,,,,,,0,,,5,,,,,0,0.409526927,NaN,,,,,,,
decision,236,705291,0.0-80.0-2.0,"""event"",""trial"",""time""
""fullscreenenter"",""1"",""2533""
","
","
","""event"",""trial"",""time""
""fullscreenenter"",""1"",""2533""
","
",,null,run_exp/static/images/task_images/land.jpg,null,,,,,,,0,,,5,,,,,,,,280675,1,7,FALSE,,,
time_out,237,707303,0.0-81.0-0.0,"""event"",""trial"",""time""
""fullscreenenter"",""1"",""2533""
","
","
","""event"",""trial"",""time""
""fullscreenenter"",""1"",""2533""
","
",,null,run_exp/static/images/task_images/time_out.jpg,null,,,,,,,0,,,,,,,,,,,,,,,,,
decision,238,707515,0.0-81.0-1.0,"""event"",""trial"",""time""
""fullscreenenter"",""1"",""2533""
","
","
","""event"",""trial"",""time""
""fullscreenenter"",""1"",""2533""
","
",,209.5,run_exp/static/images/task_images/land.jpg,76,,,,,,,0,,,5,,,,,,,,282898,1,7,TRUE,,,
travel,239,717310,0.0-82.0-0.0,"""event"",""trial"",""time""
""fullscreenenter"",""1"",""2533""
","
","
","""event"",""trial"",""time""
""fullscreenenter"",""1"",""2533""
","
",,,,,,,,,,,,"[{""stimulus"":""run_exp/static/images/task_images/rocket-01.jpg"",""time"":0.20000001788139343},{""stimulus"":""run_exp/static/images/task_images/rocket-02.jpg"",""time"":1094.0999999940395},{""stimulus"":""run_exp/static/images/task_images/rocket-03.jpg"",""time"":2183.5},{""stimulus"":""run_exp/static/images/task_images/rocket-04.jpg"",""time"":3270.5999999940395},{""stimulus"":""run_exp/static/images/task_images/rocket-05.jpg"",""time"":4358.0999999940395},{""stimulus"":""run_exp/static/images/task_images/rocket-06.jpg"",""time"":5447.9000000059605},{""stimulus"":""run_exp/static/images/task_images/rocket-07.jpg"",""time"":6533.5},{""stimulus"":""run_exp/static/images/task_images/rocket-08.jpg"",""time"":7613.800000011921},{""stimulus"":""run_exp/static/images/task_images/rocket-09.jpg"",""time"":8700.200000017881}]",[],5,,,,,,,,,,,,,,
alien_welcome,240,722319,0.0-82.0-1.0,"""event"",""trial"",""time""
""fullscreenenter"",""1"",""2533""
","
","
","""event"",""trial"",""time""
""fullscreenenter"",""1"",""2533""
","
",,null,run_exp/static/images/task_images/aliens/old_aliens/planet/alien_planet-54.jpg,null,,,,,,,,,,,,,54,"27,65,17,52,29,54,12,51,71,11,62,43,38,8,57,32,47,34,79,45",,,,,,,,,,
land,241,722831,0.0-82.0-2.0,"""event"",""trial"",""time""
""fullscreenenter"",""1"",""2533""
","
","
","""event"",""trial"",""time""
""fullscreenenter"",""1"",""2533""
","
",,null,run_exp/static/images/task_images/land.jpg,null,,,,,,,95,,,6,,,,,,,,,,,,,,
dig,242,724847,0.0-82.0-3.0,"""event"",""trial"",""time""
""fullscreenenter"",""1"",""2533""
","
","
","""event"",""trial"",""time""
""fullscreenenter"",""1"",""2533""
","
",,,,,,,,,,,,"[{""stimulus"":""run_exp/static/images/task_images/dig.jpg"",""time"":0.5},{""stimulus"":""run_exp/static/images/task_images/land.jpg"",""time"":677.8000000119209},{""stimulus"":""run_exp/static/images/task_images/dig.jpg"",""time"":1341.2000000178814}]",[],6,,,,,,,,,,,,,,
harvest,243,725855,0.0-82.0-4.0,"""event"",""trial"",""time""
""fullscreenenter"",""1"",""2533""
","
","
","""event"",""trial"",""time""
""fullscreenenter"",""1"",""2533""
","
",,null,run_exp/static/images/task_images/gems/95.jpg,null,,,,,,,84,,,6,,,,,95,0.886719868,0.884210526,,,,,,,
decision,244,725876,0.0-82.0-5.0,"""event"",""trial"",""time""
""fullscreenenter"",""1"",""2533""
","
","
","""event"",""trial"",""time""
""fullscreenenter"",""1"",""2533""
","
",,18.40000001,run_exp/static/images/task_images/land.jpg,65,,,,,,,84,,,6,,,,,,,,301259,1,0,TRUE,,,
end_of_block_continue,245,734731,0.0-83.0-0.0,"""event"",""trial"",""time""
""fullscreenenter"",""1"",""2533""
","
","
","""event"",""trial"",""time""
""fullscreenenter"",""1"",""2533""
","
",,null,run_exp/static/audio/clip_32_block_end.m4a,,,,,,,null,,,,,,,,,,,,,,,,,,
alien_welcome,246,739748,0.0-84.0-0.0,"""event"",""trial"",""time""
""fullscreenenter"",""1"",""2533""
","
","
","""event"",""trial"",""time""
""fullscreenenter"",""1"",""2533""
","
",,null,run_exp/static/images/task_images/aliens/old_aliens/planet/alien_planet-12.jpg,null,,,,,,,,,,,,,12,"27,65,17,52,29,54,12,51,71,11,62,43,38,8,57,32,47,34,79,45",,,,,,,,,,
land,247,740255,0.0-84.0-1.0,"""event"",""trial"",""time""
""fullscreenenter"",""1"",""2533""
","
","
","""event"",""trial"",""time""
""fullscreenenter"",""1"",""2533""
","
",,null,run_exp/static/images/task_images/land.jpg,null,,,,,,,99,,,7,,,,,,,,,,,,,,
dig,248,742270,0.0-84.0-2.0,"""event"",""trial"",""time""
""fullscreenenter"",""1"",""2533""
","
","
","""event"",""trial"",""time""
""fullscreenenter"",""1"",""2533""
","
",,,,,,,,,,,,"[{""stimulus"":""run_exp/static/images/task_images/dig.jpg"",""time"":0.6000000238418579},{""stimulus"":""run_exp/static/images/task_images/land.jpg"",""time"":673.9000000059605},{""stimulus"":""run_exp/static/images/task_images/dig.jpg"",""time"":1337.6000000238419}]",[],7,,,,,,,,,,,,,,
harvest,249,743280,0.0-84.0-3.0,"""event"",""trial"",""time""
""fullscreenenter"",""1"",""2533""
","
","
","""event"",""trial"",""time""
""fullscreenenter"",""1"",""2533""
","
",,null,run_exp/static/images/task_images/gems/99.jpg,null,,,,,,,20,,,7,,,,,99,0.205017677,0.202020202,,,,,,,
decision,250,743445,0.0-84.0-4.0,"""event"",""trial"",""time""
""fullscreenenter"",""1"",""2533""
","
","
","""event"",""trial"",""time""
""fullscreenenter"",""1"",""2533""
","
",,162.3,run_exp/static/images/task_images/land.jpg,65,,,,,,,20,,,7,,,,,,,,8703,2,0,FALSE,,,
dig,251,746292,0.0-85.0-0.0,"""event"",""trial"",""time""
""fullscreenenter"",""1"",""2533""
","
","
","""event"",""trial"",""time""
""fullscreenenter"",""1"",""2533""
","
",,,,,,,,,,,,"[{""stimulus"":""run_exp/static/images/task_images/dig.jpg"",""time"":0.19999998807907104},{""stimulus"":""run_exp/static/images/task_images/land.jpg"",""time"":954},{""stimulus"":""run_exp/static/images/task_images/dig.jpg"",""time"":1898.4000000059605}]",[],7,,,,,,,,,,,,,,
harvest,252,747304,0.0-85.0-1.0,"""event"",""trial"",""time""
""fullscreenenter"",""1"",""2533""
","
","
","""event"",""trial"",""time""
""fullscreenenter"",""1"",""2533""
","
",,null,run_exp/static/images/task_images/gems/20.jpg,null,,,,,,,4,,,7,,,,,20,0.21655412,0.2,,,,,,,
decision,253,747356,0.0-85.0-2.0,"""event"",""trial"",""time""
""fullscreenenter"",""1"",""2533""
","
","
","""event"",""trial"",""time""
""fullscreenenter"",""1"",""2533""
","
",,49.80000001,run_exp/static/images/task_images/land.jpg,65,,,,,,,4,,,7,,,,,,,,12615,2,1,FALSE,,,
dig,254,750320,0.0-86.0-0.0,"""event"",""trial"",""time""
""fullscreenenter"",""1"",""2533""
","
","
","""event"",""trial"",""time""
""fullscreenenter"",""1"",""2533""
","
",,,,,,,,,,,,"[{""stimulus"":""run_exp/static/images/task_images/dig.jpg"",""time"":0.09999999403953552},{""stimulus"":""run_exp/static/images/task_images/land.jpg"",""time"":986.6999999880791},{""stimulus"":""run_exp/static/images/task_images/dig.jpg"",""time"":1973.3999999761581}]",[],7,,,,,,,,,,,,,,
harvest,255,751328,0.0-86.0-1.0,"""event"",""trial"",""time""
""fullscreenenter"",""1"",""2533""
","
","
","""event"",""trial"",""time""
""fullscreenenter"",""1"",""2533""
","
",,null,run_exp/static/images/task_images/gems/4.jpg,null,,,,,,,1,,,7,,,,,4,0.224713488,0.25,,,,,,,
decision,256,751419,0.0-86.0-2.0,"""event"",""trial"",""time""
""fullscreenenter"",""1"",""2533""
","
","
","""event"",""trial"",""time""
""fullscreenenter"",""1"",""2533""
","
",,88,run_exp/static/images/task_images/land.jpg,65,,,,,,,1,,,7,,,,,,,,16677,2,2,FALSE,,,
dig,257,754340,0.0-87.0-0.0,"""event"",""trial"",""time""
""fullscreenenter"",""1"",""2533""
","
","
","""event"",""trial"",""time""
""fullscreenenter"",""1"",""2533""
","
",,,,,,,,,,,,"[{""stimulus"":""run_exp/static/images/task_images/dig.jpg"",""time"":0.20000001788139343},{""stimulus"":""run_exp/static/images/task_images/land.jpg"",""time"":979.4000000059605},{""stimulus"":""run_exp/static/images/task_images/dig.jpg"",""time"":1951.300000011921}]",[],7,,,,,,,,,,,,,,
harvest,258,755347,0.0-87.0-1.0,"""event"",""trial"",""time""
""fullscreenenter"",""1"",""2533""
","
","
","""event"",""trial"",""time""
""fullscreenenter"",""1"",""2533""
","
",,null,run_exp/static/images/task_images/gems/1.jpg,null,,,,,,,0,,,7,,,,,1,0.207439178,0,,,,,,,
decision,259,757486,0.0-87.0-2.0,"""event"",""trial"",""time""
""fullscreenenter"",""1"",""2533""
","
","
","""event"",""trial"",""time""
""fullscreenenter"",""1"",""2533""
","
",,2137.6,run_exp/static/images/task_images/land.jpg,65,,,,,,,0,,,7,,,,,,,,22744,2,3,FALSE,,,
dig,260,758355,0.0-88.0-0.0,"""event"",""trial"",""time""
""fullscreenenter"",""1"",""2533""
","
","
","""event"",""trial"",""time""
""fullscreenenter"",""1"",""2533""
","
",,,,,,,,,,,,"[{""stimulus"":""run_exp/static/images/task_images/dig.jpg"",""time"":0.19999998807907104},{""stimulus"":""run_exp/static/images/task_images/land.jpg"",""time"":295.69999998807907},{""stimulus"":""run_exp/static/images/task_images/dig.jpg"",""time"":584.1999999880791}]",[],7,,,,,,,,,,,,,,
harvest,261,759360,0.0-88.0-1.0,"""event"",""trial"",""time""
""fullscreenenter"",""1"",""2533""
","
","
","""event"",""trial"",""time""
""fullscreenenter"",""1"",""2533""
","
",,null,run_exp/static/images/task_images/gems/0.jpg,null,,,,,,,0,,,7,,,,,0,0.185373654,NaN,,,,,,,
decision,262,760635,0.0-88.0-2.0,"""event"",""trial"",""time""
""fullscreenenter"",""1"",""2533""
","
","
","""event"",""trial"",""time""
""fullscreenenter"",""1"",""2533""
","
