trial_type,trial_index,time_elapsed,internal_node_id,interactions,blur_events,focus_events,fullscreenenter_events,fullscreenexit_events,success,rt,stimulus,key_press,prompt,subject_id,participant_id,age,gender,button_pressed,next_reward,animation_sequence,responses,planet,curr_prac_trial,n_prac_rounds,alien,aliens,reward_received,decay_rate_actual,decay_rate_exp,time_in_block,block_num,prt,last_trial_on_planet,button_html,bonus,num_failures
pavlovia,0,2,0.0-0.0,"""event"",""trial"",""time""
""fullscreenenter"",""1"",""3477""
","
","
","""event"",""trial"",""time""
""fullscreenenter"",""1"",""3477""
","
",,,,,,,,,,,,,,,,,,,,,,,,,,,,
fullscreen,1,4422,0.0-1.0,"""event"",""trial"",""time""
""fullscreenenter"",""1"",""3477""
","
","
","""event"",""trial"",""time""
""fullscreenenter"",""1"",""3477""
","
",TRUE,,,,,,,,,,,,,,,,,,,,,,,,,,,
instruc_welcome,2,14456,0.0-2.0,"""event"",""trial"",""time""
""fullscreenenter"",""1"",""3477""
","
","
","""event"",""trial"",""time""
""fullscreenenter"",""1"",""3477""
","
",,null,run_exp/static/audio/clip_1_welcome.m4a,null,"<p>Howdy! In this experiment, you’ll be an explorer traveling through space to collect space treasure.</p><p>Your mission is to collect as much treasure as possible.</p><br><br><p><img src='run_exp/static/images/task_images/opening_img-01.jpg' height='300' width='auto'></p>",10024,4741,24.58,Male,,,,,,,,,,,,,,,,,,,
audio-keyboard-response,3,31246,0.0-3.0,"""event"",""trial"",""time""
""fullscreenenter"",""1"",""3477""
","
","
","""event"",""trial"",""time""
""fullscreenenter"",""1"",""3477""
","
",,null,run_exp/static/audio/clip_2_move.m4a,null,,,,,,,,,,,,,,,,,,,,,,,,
welcome_dec,4,35563,0.0-4.0,"""event"",""trial"",""time""
""fullscreenenter"",""1"",""3477""
","
","
","""event"",""trial"",""time""
""fullscreenenter"",""1"",""3477""
","
",,4313.4,"<p>Howdy! In this experiment, you’ll be an explorer traveling through space to collect space treasure.</p><p>Your mission is to collect as much treasure as possible.</p><br><br><p><img src='run_exp/static/images/task_images/opening_img-01.jpg' height='300' width='auto'></p>",,,,,,,1,,,,,,,,,,,,,,,,,,
html-keyboard-response,5,38579,0.0-5.0,"""event"",""trial"",""time""
""fullscreenenter"",""1"",""3477""
","
","
","""event"",""trial"",""time""
""fullscreenenter"",""1"",""3477""
","
",,3014,"<p>Howdy! In this experiment, you’ll be an explorer traveling through space to collect space treasure.</p><p>Your mission is to collect as much treasure as possible.</p><br><br><p><img src='run_exp/static/images/task_images/opening_img-01.jpg' height='300' width='auto'></p><button class=""jspsych-html-btn-unchosen""><img src=""run_exp/static/images/task_images/planet-01.jpg"" height=""50""></button><button class=""jspsych-html-btn-chosen""><img src=""run_exp/static/images/task_images/planet-02.jpg"" height=""50""></button><p><b>[press the space bar to lock in your answer]<b><br></p>",32,,,,,,,,,,,,,,,,,,,,,,,,
instruc_goal,6,48826,0.0-6.0-0.0,"""event"",""trial"",""time""
""fullscreenenter"",""1"",""3477""
","
","
","""event"",""trial"",""time""
""fullscreenenter"",""1"",""3477""
","
",,null,run_exp/static/audio/clip_3_goal.m4a,null,"<p> As a space explorer, you’ll visit different planets to dig for space treasure, these pink gems.</p> <p> The more treasure you dig up, the more bonus money you’ll win! </p><br><br><p><img src='run_exp/static/images/task_images/pink_gem.jpg' height='300' width='auto'></p>",,,,,,,,,,,,,,,,,,,,,,,
instruc_goal,7,52642,0.0-6.0-1.0,"""event"",""trial"",""time""
""fullscreenenter"",""1"",""3477""
","
","
","""event"",""trial"",""time""
""fullscreenenter"",""1"",""3477""
","
",,3813.2,"<p> As a space explorer, you’ll visit different planets to dig for space treasure, these pink gems.</p> <p> The more treasure you dig up, the more bonus money you’ll win! </p><br><br><p><img src='run_exp/static/images/task_images/pink_gem.jpg' height='300' width='auto'></p>",,,,,,,1,,,,,,,,,,,,,,,,,,
html-keyboard-response,8,53448,0.0-6.0-2.0,"""event"",""trial"",""time""
""fullscreenenter"",""1"",""3477""
","
","
","""event"",""trial"",""time""
""fullscreenenter"",""1"",""3477""
","
",,804.3999999,"<p> As a space explorer, you’ll visit different planets to dig for space treasure, these pink gems.</p> <p> The more treasure you dig up, the more bonus money you’ll win! </p><br><br><p><img src='run_exp/static/images/task_images/pink_gem.jpg' height='300' width='auto'></p><button class=""jspsych-html-btn-unchosen""><img src=""run_exp/static/images/task_images/planet-01.jpg"" height=""50""></button><button class=""jspsych-html-btn-chosen""><img src=""run_exp/static/images/task_images/planet-02.jpg"" height=""50""></button><p><b>[press the space bar to lock in your answer]<b><br></p>",32,,,,,,,,,,,,,,,,,,,,,,,,
instruc_dig,9,69647,0.0-7.0-0.0,"""event"",""trial"",""time""
""fullscreenenter"",""1"",""3477""
","
","
","""event"",""trial"",""time""
""fullscreenenter"",""1"",""3477""
","
",,null,run_exp/static/audio/clip_4_dig.m4a,null,,,,,,,100,,,,,,,,,,,,,,,,,
instruc_dig_try,10,70675,0.0-7.0-1.0,"""event"",""trial"",""time""
""fullscreenenter"",""1"",""3477""
","
","
","""event"",""trial"",""time""
""fullscreenenter"",""1"",""3477""
","
",,1026.8,"<p> When you’ve arrived at a new planet, you will dig once. </p> <p>Then, you get to decide if you want to stay on the planet and dig again or travel to a new planet and dig there.</p> <p> To stay and dig, press the letter <strong>‘A’</strong> on your keyboard. Try pressing it now! </p><p><img src='run_exp/static/images/task_images/land.jpg'  height='700' width='auto'></p>",65,"<p> When you’ve arrived at a new planet, you will dig once. </p> <p>Then, you get to decide if you want to stay on the planet and dig again or travel to a new planet and dig there.</p> <p> To stay and dig, press the letter <strong>‘A’</strong> on your keyboard. Try pressing it now! </p><p><img src='run_exp/static/images/task_images/land.jpg'  height='700' width='auto'></p>",,,,,,100,,,,,,,,,,,,,,,,,
dig_prac,11,72688,0.0-7.0-2.0,"""event"",""trial"",""time""
""fullscreenenter"",""1"",""3477""
","
","
","""event"",""trial"",""time""
""fullscreenenter"",""1"",""3477""
","
",,,,,,,,,,,,"[{""stimulus"":""run_exp/static/images/task_images/dig.jpg"",""time"":0.20000004768371582},{""stimulus"":""run_exp/static/images/task_images/land.jpg"",""time"":671.2999999523163},{""stimulus"":""run_exp/static/images/task_images/dig.jpg"",""time"":1343.4000000953674}]",[],,,,,,,,,,,,,,,
instruc_travel,12,109098,0.0-7.0-3.0,"""event"",""trial"",""time""
""fullscreenenter"",""1"",""3477""
","
","
","""event"",""trial"",""time""
""fullscreenenter"",""1"",""3477""
","
",,null,run_exp/static/audio/clip_5_travel.m4a,null,"<p>Every time you dig up gems, there are less gems on the planet, so the more you dig on a planet the fewer gems you’ll get with each dig.</p><p>When gems are running low, you may want to travel to a new planet. </p> <p>  Planets are very far apart in this galaxy, so it will take some time to travel between them. </p> <br><p>There are lots and lots of planets for you to visit, so you won’t be able to return to any planets you’ve seen before. </p><br><p>To leave this planet and travel to a new one, press the letter <strong>‘L’</strong> on your keyboard. Try pressing it now! </p><p><img src='run_exp/static/images/task_images/rocket-01.jpg'  height='600' width='auto'></p>",,,,,,,,,,,,,,,,,,,,,,,
instruc_travel_try,13,114031,0.0-7.0-4.0,"""event"",""trial"",""time""
""fullscreenenter"",""1"",""3477""
","
","
","""event"",""trial"",""time""
""fullscreenenter"",""1"",""3477""
","
",,4930.7,"<p>Every time you dig up gems, there are less gems on the planet, so the more you dig on a planet the fewer gems you’ll get with each dig.</p><p>When gems are running low, you may want to travel to a new planet. </p> <p>  Planets are very far apart in this galaxy, so it will take some time to travel between them. </p> <br><p>There are lots and lots of planets for you to visit, so you won’t be able to return to any planets you’ve seen before. </p><br><p>To leave this planet and travel to a new one, press the letter <strong>‘L’</strong> on your keyboard. Try pressing it now! </p><p><img src='run_exp/static/images/task_images/rocket-01.jpg'  height='600' width='auto'></p>",76,"<p>Every time you dig up gems, there are less gems on the planet, so the more you dig on a planet the fewer gems you’ll get with each dig.</p><p>When gems are running low, you may want to travel to a new planet. </p> <p>  Planets are very far apart in this galaxy, so it will take some time to travel between them. </p> <br><p>There are lots and lots of planets for you to visit, so you won’t be able to return to any planets you’ve seen before. </p><br><p>To leave this planet and travel to a new one, press the letter <strong>‘L’</strong> on your keyboard. Try pressing it now! </p><p><img src='run_exp/static/images/task_images/rocket-01.jpg'  height='600' width='auto'></p>",,,,,,,,,,,,,,,,,,,,,,,
travel_prac,14,124034,0.0-7.0-5.0,"""event"",""trial"",""time""
""fullscreenenter"",""1"",""3477""
","
","
","""event"",""trial"",""time""
""fullscreenenter"",""1"",""3477""
","
",,,,,,,,,,,,"[{""stimulus"":""run_exp/static/images/task_images/rocket-01.jpg"",""time"":0.2999999523162842},{""stimulus"":""run_exp/static/images/task_images/rocket-02.jpg"",""time"":1113.0999999046326},{""stimulus"":""run_exp/static/images/task_images/rocket-03.jpg"",""time"":2225.7999999523163},{""stimulus"":""run_exp/static/images/task_images/rocket-04.jpg"",""time"":3337.899999856949},{""stimulus"":""run_exp/static/images/task_images/rocket-05.jpg"",""time"":4449.199999809265},{""stimulus"":""run_exp/static/images/task_images/rocket-06.jpg"",""time"":5561},{""stimulus"":""run_exp/static/images/task_images/rocket-07.jpg"",""time"":6674.299999952316},{""stimulus"":""run_exp/static/images/task_images/rocket-08.jpg"",""time"":7785.5},{""stimulus"":""run_exp/static/images/task_images/rocket-09.jpg"",""time"":8896.699999809265}]",[],0,,,,,,,,,,,,,,
instruc_alien_greet,15,151409,0.0-7.0-6.0,"""event"",""trial"",""time""
""fullscreenenter"",""1"",""3477""
","
","
","""event"",""trial"",""time""
""fullscreenenter"",""1"",""3477""
","
",,null,run_exp/static/audio/clip_6_alien.m4a,null,"<p>When you arrive at a new planet, the alien who owns the treasure mine on that planet will greet you!</p><p>The better an alien takes care of their mine the easier it is to dig for gems. Some aliens take better care of their mine than others. So, you won’t get exactly the same amount of gems on each planet.</p><p>What the alien looks like does not tell you anything about how many gems there are on the planet.</p><br><p><img src=""run_exp/static/images/task_images/aliens/instructions_aliens/planet/alien_planet-1.jpg""  height=""600"" width=""auto""></p>",,,,,,,,,,,,,,,,,,,,,,,
instruc_alien_greet,16,152790,0.0-7.0-7.0,"""event"",""trial"",""time""
""fullscreenenter"",""1"",""3477""
","
","
","""event"",""trial"",""time""
""fullscreenenter"",""1"",""3477""
","
",,1377,"<p>When you arrive at a new planet, the alien who owns the treasure mine on that planet will greet you!</p><p>The better an alien takes care of their mine the easier it is to dig for gems. Some aliens take better care of their mine than others. So, you won’t get exactly the same amount of gems on each planet.</p><p>What the alien looks like does not tell you anything about how many gems there are on the planet.</p><br><p><img src=""run_exp/static/images/task_images/aliens/instructions_aliens/planet/alien_planet-1.jpg""  height=""600"" width=""auto""></p>",,,,,,,1,,,,,,,,,,,,,,,,,,
html-keyboard-response,17,153237,0.0-7.0-8.0,"""event"",""trial"",""time""
""fullscreenenter"",""1"",""3477""
","
","
","""event"",""trial"",""time""
""fullscreenenter"",""1"",""3477""
","
",,445.5999999,"<p>When you arrive at a new planet, the alien who owns the treasure mine on that planet will greet you!</p><p>The better an alien takes care of their mine the easier it is to dig for gems. Some aliens take better care of their mine than others. So, you won’t get exactly the same amount of gems on each planet.</p><p>What the alien looks like does not tell you anything about how many gems there are on the planet.</p><br><p><img src=""run_exp/static/images/task_images/aliens/instructions_aliens/planet/alien_planet-1.jpg""  height=""600"" width=""auto""></p><button class=""jspsych-html-btn-unchosen""><img src=""run_exp/static/images/task_images/planet-01.jpg"" height=""50""></button><button class=""jspsych-html-btn-chosen""><img src=""run_exp/static/images/task_images/planet-02.jpg"" height=""50""></button><p><b>[press the space bar to lock in your answer]<b><br></p>",32,,,,,,,,,,,,,,,,,,,,,,,,
time_out,18,164530,0.0-8.0-0.0,"""event"",""trial"",""time""
""fullscreenenter"",""1"",""3477""
","
","
","""event"",""trial"",""time""
""fullscreenenter"",""1"",""3477""
","
",,null,run_exp/static/audio/clip_7_timeout.m4a,null,"<p>If you don't make your choice fast enough, you’ll have to wait a few seconds before you can make another one.</p><p>You can’t dig for more gems or travel to new planets. You just have to sit and wait.</p><br><p><img src='run_exp/static/images/task_images/time_out.jpg'  height='600' width='auto'></p>",,,,,,,,,,,,,,,,,,,,,,,
time_out,19,165783,0.0-8.0-1.0,"""event"",""trial"",""time""
""fullscreenenter"",""1"",""3477""
","
","
","""event"",""trial"",""time""
""fullscreenenter"",""1"",""3477""
","
",,1249.7,"<p>If you don't make your choice fast enough, you’ll have to wait a few seconds before you can make another one.</p><p>You can’t dig for more gems or travel to new planets. You just have to sit and wait.</p><br><p><img src='run_exp/static/images/task_images/time_out.jpg'  height='600' width='auto'></p>",,,,,,,1,,,,,,,,,,,,,,,,,,
html-keyboard-response,20,166174,0.0-8.0-2.0,"""event"",""trial"",""time""
""fullscreenenter"",""1"",""3477""
","
","
","""event"",""trial"",""time""
""fullscreenenter"",""1"",""3477""
","
",,389.2,"<p>If you don't make your choice fast enough, you’ll have to wait a few seconds before you can make another one.</p><p>You can’t dig for more gems or travel to new planets. You just have to sit and wait.</p><br><p><img src='run_exp/static/images/task_images/time_out.jpg'  height='600' width='auto'></p><button class=""jspsych-html-btn-unchosen""><img src=""run_exp/static/images/task_images/planet-01.jpg"" height=""50""></button><button class=""jspsych-html-btn-chosen""><img src=""run_exp/static/images/task_images/planet-02.jpg"" height=""50""></button><p><b>[press the space bar to lock in your answer]<b><br></p>",32,,,,,,,,,,,,,,,,,,,,,,,,
instruc_break,21,182030,0.0-9.0-0.0,"""event"",""trial"",""time""
""fullscreenenter"",""1"",""3477""
","
","
","""event"",""trial"",""time""
""fullscreenenter"",""1"",""3477""
","
",,null,run_exp/static/audio/clip_8_break.m4a,null,"<p> After digging and traveling for a while, you’ll be able to take a break at home base. </p><p>The game will last 20 minutes no matter what.</p><p>You will visit home base every 5 minutes, so, you will visit home base three times during the game.</p><br><p><img src='run_exp/static/images/task_images/home_base.jpg' height='600' width='auto'></p>",,,,,,,,,,,,,,,,,,,,,,,
instruc_break,22,182748,0.0-9.0-1.0,"""event"",""trial"",""time""
""fullscreenenter"",""1"",""3477""
","
","
","""event"",""trial"",""time""
""fullscreenenter"",""1"",""3477""
","
",,713,"<p> After digging and traveling for a while, you’ll be able to take a break at home base. </p><p>The game will last 20 minutes no matter what.</p><p>You will visit home base every 5 minutes, so, you will visit home base three times during the game.</p><br><p><img src='run_exp/static/images/task_images/home_base.jpg' height='600' width='auto'></p>",,,,,,,1,,,,,,,,,,,,,,,,,,
html-keyboard-response,23,183793,0.0-9.0-2.0,"""event"",""trial"",""time""
""fullscreenenter"",""1"",""3477""
","
","
","""event"",""trial"",""time""
""fullscreenenter"",""1"",""3477""
","
",,1043.2,"<p> After digging and traveling for a while, you’ll be able to take a break at home base. </p><p>The game will last 20 minutes no matter what.</p><p>You will visit home base every 5 minutes, so, you will visit home base three times during the game.</p><br><p><img src='run_exp/static/images/task_images/home_base.jpg' height='600' width='auto'></p><button class=""jspsych-html-btn-unchosen""><img src=""run_exp/static/images/task_images/planet-01.jpg"" height=""50""></button><button class=""jspsych-html-btn-chosen""><img src=""run_exp/static/images/task_images/planet-02.jpg"" height=""50""></button><p><b>[press the space bar to lock in your answer]<b><br></p>",32,,,,,,,,,,,,,,,,,,,,,,,,
instruc_prac_game,24,194100,0.0-10.0-0.0,"""event"",""trial"",""time""
""fullscreenenter"",""1"",""3477""
","
","
","""event"",""trial"",""time""
""fullscreenenter"",""1"",""3477""
","
",,null,run_exp/static/audio/clip_9_practice.m4a,null,"<p> Are you ready to play a practice game? </p> <p>In this practice game, you'll be digging up barrels of gems. But, in the real game, you'll be digging up the gems themselves. </p>",,,,,,,,,,,,,,,,,,,,,,,
html-button-response,25,195395,0.0-10.0-1.0,"""event"",""trial"",""time""
""fullscreenenter"",""1"",""3477""
","
","
","""event"",""trial"",""time""
""fullscreenenter"",""1"",""3477""
","
",,1293.3,"<p> Are you ready to play a practice game? </p> <p>In this practice game, you'll be digging up barrels of gems. But, in the real game, you'll be digging up the gems themselves. </p>",,,,,,,0,,,,,,,,,,,,,,,,,,
alien_welcome_prac,26,200403,0.0-11.0-0.0,"""event"",""trial"",""time""
""fullscreenenter"",""1"",""3477""
","
","
","""event"",""trial"",""time""
""fullscreenenter"",""1"",""3477""
","
",,null,run_exp/static/images/task_images/aliens/practice_aliens/planet/alien_planet-5.jpg,null,,,,,,,,,,,,,,,,,,,,,,,,
land_prac,27,200909,0.0-11.0-1.0,"""event"",""trial"",""time""
""fullscreenenter"",""1"",""3477""
","
","
","""event"",""trial"",""time""
""fullscreenenter"",""1"",""3477""
","
",,null,run_exp/static/images/task_images/land.jpg,null,,,,,,,107,,,0,,,,,,,,,,,,,,
dig_prac,28,202915,0.0-11.0-2.0,"""event"",""trial"",""time""
""fullscreenenter"",""1"",""3477""
","
","
","""event"",""trial"",""time""
""fullscreenenter"",""1"",""3477""
","
",,,,,,,,,,,,"[{""stimulus"":""run_exp/static/images/task_images/dig.jpg"",""time"":0.40000009536743164},{""stimulus"":""run_exp/static/images/task_images/land.jpg"",""time"":677.2000000476837},{""stimulus"":""run_exp/static/images/task_images/dig.jpg"",""time"":1342}]",[],,,,,,,,,,,,,,,
harvest_prac,29,203924,0.0-11.0-3.0,"""event"",""trial"",""time""
""fullscreenenter"",""1"",""3477""
","
","
","""event"",""trial"",""time""
""fullscreenenter"",""1"",""3477""
","
",,null,run_exp/static/images/task_images/barrel_text.jpg,null,,,,,,,,,,,,,,,,,,,,,,,,
decision_prac,30,206021,0.0-11.0-4.0,"""event"",""trial"",""time""
""fullscreenenter"",""1"",""3477""
","
","
","""event"",""trial"",""time""
""fullscreenenter"",""1"",""3477""
","
",,2096.3,run_exp/static/images/task_images/land.jpg,65,,,,,,,,,,,1,,,,,,,,,,,,,
dig_prac,31,208029,0.0-12.0-0.0,"""event"",""trial"",""time""
""fullscreenenter"",""1"",""3477""
","
","
","""event"",""trial"",""time""
""fullscreenenter"",""1"",""3477""
","
",,,,,,,,,,,,"[{""stimulus"":""run_exp/static/images/task_images/dig.jpg"",""time"":0.19999980926513672},{""stimulus"":""run_exp/static/images/task_images/land.jpg"",""time"":677},{""stimulus"":""run_exp/static/images/task_images/dig.jpg"",""time"":1340.2999999523163}]",[],,,,,,,,,,,,,,,
harvest_prac,32,209037,0.0-12.0-1.0,"""event"",""trial"",""time""
""fullscreenenter"",""1"",""3477""
","
","
","""event"",""trial"",""time""
""fullscreenenter"",""1"",""3477""
","
",,null,run_exp/static/images/task_images/barrel_text.jpg,null,,,,,,,,,,,,,,,,,,,,,,,,
decision_prac,33,210317,0.0-12.0-2.0,"""event"",""trial"",""time""
""fullscreenenter"",""1"",""3477""
","
","
","""event"",""trial"",""time""
""fullscreenenter"",""1"",""3477""
","
",,1278.9,run_exp/static/images/task_images/land.jpg,65,,,,,,,,,,,2,,,,,,,,,,,,,
dig_prac,34,212324,0.0-13.0-0.0,"""event"",""trial"",""time""
""fullscreenenter"",""1"",""3477""
","
","
","""event"",""trial"",""time""
""fullscreenenter"",""1"",""3477""
","
",,,,,,,,,,,,"[{""stimulus"":""run_exp/static/images/task_images/dig.jpg"",""time"":0.20000004768371582},{""stimulus"":""run_exp/static/images/task_images/land.jpg"",""time"":676.9000000953674},{""stimulus"":""run_exp/static/images/task_images/dig.jpg"",""time"":1341.2000000476837}]",[],,,,,,,,,,,,,,,
harvest_prac,35,213332,0.0-13.0-1.0,"""event"",""trial"",""time""
""fullscreenenter"",""1"",""3477""
","
","
","""event"",""trial"",""time""
""fullscreenenter"",""1"",""3477""
","
",,null,run_exp/static/images/task_images/barrel_text.jpg,null,,,,,,,,,,,,,,,,,,,,,,,,
decision_prac,36,214842,0.0-13.0-2.0,"""event"",""trial"",""time""
""fullscreenenter"",""1"",""3477""
","
","
","""event"",""trial"",""time""
""fullscreenenter"",""1"",""3477""
","
",,1508.9,run_exp/static/images/task_images/land.jpg,76,,,,,,,,,,,3,,,,,,,,,,,,,
travel,37,223333,0.0-14.0-0.0,"""event"",""trial"",""time""
""fullscreenenter"",""1"",""3477""
","
","
","""event"",""trial"",""time""
""fullscreenenter"",""1"",""3477""
","
",,,,,,,,,,,,"[{""stimulus"":""run_exp/static/images/task_images/rocket-01.jpg"",""time"":0.20000004768371582},{""stimulus"":""run_exp/static/images/task_images/rocket-02.jpg"",""time"":952.4000000953674},{""stimulus"":""run_exp/static/images/task_images/rocket-03.jpg"",""time"":1888.5},{""stimulus"":""run_exp/static/images/task_images/rocket-04.jpg"",""time"":2831.0999999046326},{""stimulus"":""run_exp/static/images/task_images/rocket-05.jpg"",""time"":3776.2000000476837},{""stimulus"":""run_exp/static/images/task_images/rocket-06.jpg"",""time"":4720},{""stimulus"":""run_exp/static/images/task_images/rocket-07.jpg"",""time"":5664},{""stimulus"":""run_exp/static/images/task_images/rocket-08.jpg"",""time"":6607.099999904633},{""stimulus"":""run_exp/static/images/task_images/rocket-09.jpg"",""time"":7551.799999952316}]",[],0,,,,,,,,,,,,,,
alien_welcome_prac,38,228341,0.0-14.0-1.0,"""event"",""trial"",""time""
""fullscreenenter"",""1"",""3477""
","
","
","""event"",""trial"",""time""
""fullscreenenter"",""1"",""3477""
","
",,null,run_exp/static/images/task_images/aliens/practice_aliens/planet/alien_planet-4.jpg,null,,,,,,,,,,,,,,,,,,,,,,,,
land_prac,39,228845,0.0-14.0-2.0,"""event"",""trial"",""time""
""fullscreenenter"",""1"",""3477""
","
","
","""event"",""trial"",""time""
""fullscreenenter"",""1"",""3477""
","
",,null,run_exp/static/images/task_images/land.jpg,null,,,,,,,100,,,0,,,,,,,,,,,,,,
dig_prac,40,230849,0.0-14.0-3.0,"""event"",""trial"",""time""
""fullscreenenter"",""1"",""3477""
","
","
","""event"",""trial"",""time""
""fullscreenenter"",""1"",""3477""
","
",,,,,,,,,,,,"[{""stimulus"":""run_exp/static/images/task_images/dig.jpg"",""time"":0.2999999523162842},{""stimulus"":""run_exp/static/images/task_images/land.jpg"",""time"":670.5999999046326},{""stimulus"":""run_exp/static/images/task_images/dig.jpg"",""time"":1342.5}]",[],,,,,,,,,,,,,,,
harvest_prac,41,231854,0.0-14.0-4.0,"""event"",""trial"",""time""
""fullscreenenter"",""1"",""3477""
","
","
","""event"",""trial"",""time""
""fullscreenenter"",""1"",""3477""
","
",,null,run_exp/static/images/task_images/barrel_text.jpg,null,,,,,,,,,,,,,,,,,,,,,,,,
decision_prac,42,232542,0.0-14.0-5.0,"""event"",""trial"",""time""
""fullscreenenter"",""1"",""3477""
","
","
","""event"",""trial"",""time""
""fullscreenenter"",""1"",""3477""
","
",,687.2,run_exp/static/images/task_images/land.jpg,65,,,,,,,,,,,4,,,,,,,,,,,,,
dig_prac,43,234548,0.0-15.0-0.0,"""event"",""trial"",""time""
""fullscreenenter"",""1"",""3477""
","
","
","""event"",""trial"",""time""
""fullscreenenter"",""1"",""3477""
","
",,,,,,,,,,,,"[{""stimulus"":""run_exp/static/images/task_images/dig.jpg"",""time"":0.10000014305114746},{""stimulus"":""run_exp/static/images/task_images/land.jpg"",""time"":677.1000001430511},{""stimulus"":""run_exp/static/images/task_images/dig.jpg"",""time"":1340.7000000476837}]",[],,,,,,,,,,,,,,,
harvest_prac,44,235556,0.0-15.0-1.0,"""event"",""trial"",""time""
""fullscreenenter"",""1"",""3477""
","
","
","""event"",""trial"",""time""
""fullscreenenter"",""1"",""3477""
","
",,null,run_exp/static/images/task_images/barrel_text.jpg,null,,,,,,,,,,,,,,,,,,,,,,,,
decision_prac,45,236129,0.0-15.0-2.0,"""event"",""trial"",""time""
""fullscreenenter"",""1"",""3477""
","
","
","""event"",""trial"",""time""
""fullscreenenter"",""1"",""3477""
","
",,571.7,run_exp/static/images/task_images/land.jpg,65,,,,,,,,,,,,1,,,,,,,,,,,,
quiz_instruc,46,247281,0.0-16.0-0.0,"""event"",""trial"",""time""
""fullscreenenter"",""1"",""3477""
","
","
","""event"",""trial"",""time""
""fullscreenenter"",""1"",""3477""
","
",,11147.4,run_exp/static/audio/clip_10_quiz.m4a,,,,,,,0,,,,,,,,,,,,,,,,,,
instruc_repeat,47,290223,0.0-16.0-1.0,"""event"",""trial"",""time""
""fullscreenenter"",""1"",""3477""
","
","
","""event"",""trial"",""time""
""fullscreenenter"",""1"",""3477""
","
",,null,"<p> Are you ready to play a practice game? </p> <p>In this practice game, you'll be digging up barrels of gems. But, in the real game, you'll be digging up the gems themselves. </p>",null,"<p>In this game, your goal is to collect as many gems as you can. That’s how you will win bonus money. </p> <p>The entire game will last 20 minutes no matter how many gems you collect or how many planets you visit. </p><p>To stay on a planet and dig again, press the letter A on your keyboard. To leave for a new planet, press the letter L.</p><p>The more you dig on a planet, the fewer gems you’ll get with each dig which is why you might consider leaving for a new planet. </p><p>When you arrive at a new planet, you’ll be greeted by an alien. What the alien looks like does not tell you anything about how much treasure is on the planet. </p>",,,,,,,,,,,,,,,,,,,,,,,
instruc_repeat_continue,48,291135,0.0-16.0-2.0,"""event"",""trial"",""time""
""fullscreenenter"",""1"",""3477""
","
","
","""event"",""trial"",""time""
""fullscreenenter"",""1"",""3477""
","
",,910.0999999,"<p> Are you ready to play a practice game? </p> <p>In this practice game, you'll be digging up barrels of gems. But, in the real game, you'll be digging up the gems themselves. </p>",,,,,,,0,,,,,,,,,,,,,,,,,,
quiz_q_1_ask,49,294615,0.0-16.0-3.0,"""event"",""trial"",""time""
""fullscreenenter"",""1"",""3477""
","
","
","""event"",""trial"",""time""
""fullscreenenter"",""1"",""3477""
","
",,3478.6,run_exp/static/audio/clip_11_q1_ask.m4a,,,,,,,2,,,,,,,,,,,,,,,,,,
quiz_q_1_fb_correct,50,298634,0.0-17.0-0.0,"""event"",""trial"",""time""
""fullscreenenter"",""1"",""3477""
","
","
","""event"",""trial"",""time""
""fullscreenenter"",""1"",""3477""
","
",,null,run_exp/static/audio/clip_12_q1_correct.m4a,null,<p>That’s correct. You win extra money by collecting more gems.</p>,,,,,,,,,,,,,,,,,,,,,,,
quiz_q_2_ask,51,300941,0.0-17.0-1.0,"""event"",""trial"",""time""
""fullscreenenter"",""1"",""3477""
","
","
","""event"",""trial"",""time""
""fullscreenenter"",""1"",""3477""
","
",,2305.2,run_exp/static/audio/clip_14_q2_ask.m4a,,,,,,,1,,,,,,,,,,,,,,,,,,
quiz_q_2_fb_correct,52,305144,0.0-18.0-0.0,"""event"",""trial"",""time""
""fullscreenenter"",""1"",""3477""
","
","
","""event"",""trial"",""time""
""fullscreenenter"",""1"",""3477""
","
",,null,run_exp/static/audio/clip_15_q2_correct.m4a,null,<p>That’s correct. The experiment is 20 minutes no matter what.</p>,,,,,,,,,,,,,,,,,,,,,,,
quiz_q_3_ask,53,307268,0.0-18.0-1.0,"""event"",""trial"",""time""
""fullscreenenter"",""1"",""3477""
","
","
","""event"",""trial"",""time""
""fullscreenenter"",""1"",""3477""
","
",,2122.4,run_exp/static/audio/clip_17_q3_ask.m4a,,,,,,,1,,,,,,,,,,,,,,,,,,
quiz_q_3_fb_correct,54,311414,0.0-19.0-0.0,"""event"",""trial"",""time""
""fullscreenenter"",""1"",""3477""
","
","
","""event"",""trial"",""time""
""fullscreenenter"",""1"",""3477""
","
",,null,run_exp/static/audio/clip_18_q3_correct.m4a,null,<p> That’s correct. You press the letter L to travel to a new planet.</p>,,,,,,,,,,,,,,,,,,,,,,,
quiz_q_4_ask,55,315019,0.0-19.0-1.0,"""event"",""trial"",""time""
""fullscreenenter"",""1"",""3477""
","
","
","""event"",""trial"",""time""
""fullscreenenter"",""1"",""3477""
","
",,3601.7,run_exp/static/audio/clip_20_q4_ask.m4a,,,,,,,0,,,,,,,,,,,,,,,,,,
quiz_q_4_fb_correct,56,320504,0.0-20.0-0.0,"""event"",""trial"",""time""
""fullscreenenter"",""1"",""3477""
","
","
","""event"",""trial"",""time""
""fullscreenenter"",""1"",""3477""
","
",,null,run_exp/static/audio/clip_21_q4_correct.m4a,null,<p> That’s correct. The more you dig on a planet the fewer gems you’ll get with each dig. </p>,,,,,,,,,,,,,,,,,,,,,,,
quiz_q_5_ask,57,322281,0.0-20.0-1.0,"""event"",""trial"",""time""
""fullscreenenter"",""1"",""3477""
","
","
","""event"",""trial"",""time""
""fullscreenenter"",""1"",""3477""
","
",,1774.6,run_exp/static/audio/clip_23_q5_ask.m4a,,,,,,,1,,,,,,,,,,,,,,,,,,
quiz_q_5_fb_correct,58,327455,0.0-21.0-0.0,"""event"",""trial"",""time""
""fullscreenenter"",""1"",""3477""
","
","
","""event"",""trial"",""time""
""fullscreenenter"",""1"",""3477""
","
",,null,run_exp/static/audio/clip_24_q5_correct.m4a,null,<p> That’s correct. The alien tells you nothing about how much treasure is on the planet.</p>,,,,,,,,,,,,,,,,,,,,,,,
quiz_correct,59,331085,0.0-22.0-0.0,"""event"",""trial"",""time""
""fullscreenenter"",""1"",""3477""
","
","
","""event"",""trial"",""time""
""fullscreenenter"",""1"",""3477""
","
",,null,run_exp/static/audio/clip_26_correct_quiz.m4a,null,,,,,,,,,,,,,,,,,,,,,,,,
quiz_correct_continue,60,332556,0.0-22.0-1.0,"""event"",""trial"",""time""
""fullscreenenter"",""1"",""3477""
","
","
","""event"",""trial"",""time""
""fullscreenenter"",""1"",""3477""
","
",,1470.1,<p>Good job! You're now ready to move on to the real game!</p>,,,,,,,0,,,,,,,,,,,,,,,,,,
audio-keyboard-response,61,342835,0.0-22.0-2.0,"""event"",""trial"",""time""
""fullscreenenter"",""1"",""3477""
","
","
","""event"",""trial"",""time""
""fullscreenenter"",""1"",""3477""
","
",,null,run_exp/static/audio/clip_28_real_game.m4a,null,,,,,,,,,,,,,,,,,,,,,,,,
instruc_begin_exp_contine,62,344095,0.0-22.0-3.0,"""event"",""trial"",""time""
""fullscreenenter"",""1"",""3477""
","
","
","""event"",""trial"",""time""
""fullscreenenter"",""1"",""3477""
","
",,1258.2,"<p>Now that you know how  to dig for space treasure and travel to new planets,you can start exploring! </p><p>Do you want to go over the instructions again or get started with the real game?</p>",,,,,,,1,,,,,,1,,,,,,,,,,,,
alien_welcome,63,349105,0.0-23.0-0.0,"""event"",""trial"",""time""
""fullscreenenter"",""1"",""3477""
","
","
","""event"",""trial"",""time""
""fullscreenenter"",""1"",""3477""
","
",,null,run_exp/static/images/task_images/aliens/old_aliens/planet/alien_planet-59.jpg,null,,,,,,,,,,,,,59,"59,43,5,34,66,9,18,70,62,25,15,41,42,8,49,11,46,20,27,63,2,60,13,48,45,37,40,16,58,6,77,71,10,68,61,35,51,50,19,44,67,12,75,17,52,29",,,,,,,,,,
land,64,349609,0.0-23.0-1.0,"""event"",""trial"",""time""
""fullscreenenter"",""1"",""3477""
","
","
","""event"",""trial"",""time""
""fullscreenenter"",""1"",""3477""
","
",,null,run_exp/static/images/task_images/land.jpg,null,,,,,,,108,,,1,,,,,,,,,,,,,,
dig,65,351617,0.0-23.0-2.0,"""event"",""trial"",""time""
""fullscreenenter"",""1"",""3477""
","
","
","""event"",""trial"",""time""
""fullscreenenter"",""1"",""3477""
","
",,,,,,,,,,,,"[{""stimulus"":""run_exp/static/images/task_images/dig.jpg"",""time"":0.2999999523162842},{""stimulus"":""run_exp/static/images/task_images/land.jpg"",""time"":669.2000000476837},{""stimulus"":""run_exp/static/images/task_images/dig.jpg"",""time"":1342}]",[],1,,,,,,,,,,,,,,
harvest,66,352625,0.0-23.0-3.0,"""event"",""trial"",""time""
""fullscreenenter"",""1"",""3477""
","
","
","""event"",""trial"",""time""
""fullscreenenter"",""1"",""3477""
","
",,null,run_exp/static/images/task_images/gems/108.jpg,null,,,,,,,18,,,1,,,,,108,0.163826406,0.166666667,,,,,,,
decision,67,353129,0.0-23.0-4.0,"""event"",""trial"",""time""
""fullscreenenter"",""1"",""3477""
","
","
","""event"",""trial"",""time""
""fullscreenenter"",""1"",""3477""
","
",,502.5,run_exp/static/images/task_images/land.jpg,65,,,,,,,18,,,1,,,,,,,,9032,1,0,FALSE,,,
dig,68,355633,0.0-24.0-0.0,"""event"",""trial"",""time""
""fullscreenenter"",""1"",""3477""
","
","
","""event"",""trial"",""time""
""fullscreenenter"",""1"",""3477""
","
",,,,,,,,,,,,"[{""stimulus"":""run_exp/static/images/task_images/dig.jpg"",""time"":0.20000004768371582},{""stimulus"":""run_exp/static/images/task_images/land.jpg"",""time"":836.7999999523163},{""stimulus"":""run_exp/static/images/task_images/dig.jpg"",""time"":1669.7000000476837}]",[],1,,,,,,,,,,,,,,
harvest,69,356641,0.0-24.0-1.0,"""event"",""trial"",""time""
""fullscreenenter"",""1"",""3477""
","
","
","""event"",""trial"",""time""
""fullscreenenter"",""1"",""3477""
","
",,null,run_exp/static/images/task_images/gems/18.jpg,null,,,,,,,4,,,1,,,,,18,0.215510997,0.222222222,,,,,,,
decision,70,357106,0.0-24.0-2.0,"""event"",""trial"",""time""
""fullscreenenter"",""1"",""3477""
","
","
","""event"",""trial"",""time""
""fullscreenenter"",""1"",""3477""
","
",,463.8999999,run_exp/static/images/task_images/land.jpg,76,,,,,,,4,,,1,,,,,,,,13010,1,1,TRUE,,,
travel,71,366649,0.0-25.0-0.0,"""event"",""trial"",""time""
""fullscreenenter"",""1"",""3477""
","
","
","""event"",""trial"",""time""
""fullscreenenter"",""1"",""3477""
","
",,,,,,,,,,,,"[{""stimulus"":""run_exp/static/images/task_images/rocket-01.jpg"",""time"":0.20000004768371582},{""stimulus"":""run_exp/static/images/task_images/rocket-02.jpg"",""time"":1063.1000001430511},{""stimulus"":""run_exp/static/images/task_images/rocket-03.jpg"",""time"":2124.4000000953674},{""stimulus"":""run_exp/static/images/task_images/rocket-04.jpg"",""time"":3180.7000000476837},{""stimulus"":""run_exp/static/images/task_images/rocket-05.jpg"",""time"":4243.400000095367},{""stimulus"":""run_exp/static/images/task_images/rocket-06.jpg"",""time"":5299.5},{""stimulus"":""run_exp/static/images/task_images/rocket-07.jpg"",""time"":6356.200000047684},{""stimulus"":""run_exp/static/images/task_images/rocket-08.jpg"",""time"":7419.5},{""stimulus"":""run_exp/static/images/task_images/rocket-09.jpg"",""time"":8476.300000190735}]",[],1,,,,,,,,,,,,,,
alien_welcome,72,371657,0.0-25.0-1.0,"""event"",""trial"",""time""
""fullscreenenter"",""1"",""3477""
","
","
","""event"",""trial"",""time""
""fullscreenenter"",""1"",""3477""
","
",,null,run_exp/static/images/task_images/aliens/old_aliens/planet/alien_planet-43.jpg,null,,,,,,,,,,,,,43,"59,43,5,34,66,9,18,70,62,25,15,41,42,8,49,11,46,20,27,63,2,60,13,48,45,37,40,16,58,6,77,71,10,68,61,35,51,50,19,44,67,12,75,17,52,29",,,,,,,,,,
land,73,372161,0.0-25.0-2.0,"""event"",""trial"",""time""
""fullscreenenter"",""1"",""3477""
","
","
","""event"",""trial"",""time""
""fullscreenenter"",""1"",""3477""
","
",,null,run_exp/static/images/task_images/land.jpg,null,,,,,,,98,,,2,,,,,,,,,,,,,,
dig,74,374169,0.0-25.0-3.0,"""event"",""trial"",""time""
""fullscreenenter"",""1"",""3477""
","
","
","""event"",""trial"",""time""
""fullscreenenter"",""1"",""3477""
","
",,,,,,,,,,,,"[{""stimulus"":""run_exp/static/images/task_images/dig.jpg"",""time"":0.2999999523162842},{""stimulus"":""run_exp/static/images/task_images/land.jpg"",""time"":670.2000000476837},{""stimulus"":""run_exp/static/images/task_images/dig.jpg"",""time"":1335.2999999523163}]",[],2,,,,,,,,,,,,,,
harvest,75,375176,0.0-25.0-4.0,"""event"",""trial"",""time""
""fullscreenenter"",""1"",""3477""
","
","
","""event"",""trial"",""time""
""fullscreenenter"",""1"",""3477""
","
",,null,run_exp/static/images/task_images/gems/98.jpg,null,,,,,,,23,,,2,,,,,98,0.239101807,0.234693878,,,,,,,
decision,76,375517,0.0-25.0-5.0,"""event"",""trial"",""time""
""fullscreenenter"",""1"",""3477""
","
","
","""event"",""trial"",""time""
""fullscreenenter"",""1"",""3477""
","
",,340.1000001,run_exp/static/images/task_images/land.jpg,65,,,,,,,23,,,2,,,,,,,,31421,1,0,FALSE,,,
dig,77,378185,0.0-26.0-0.0,"""event"",""trial"",""time""
""fullscreenenter"",""1"",""3477""
","
","
","""event"",""trial"",""time""
""fullscreenenter"",""1"",""3477""
","
",,,,,,,,,,,,"[{""stimulus"":""run_exp/static/images/task_images/dig.jpg"",""time"":0.20000004768371582},{""stimulus"":""run_exp/static/images/task_images/land.jpg"",""time"":888.3999998569489},{""stimulus"":""run_exp/static/images/task_images/dig.jpg"",""time"":1777.2000000476837}]",[],2,,,,,,,,,,,,,,
harvest,78,379194,0.0-26.0-1.0,"""event"",""trial"",""time""
""fullscreenenter"",""1"",""3477""
","
","
","""event"",""trial"",""time""
""fullscreenenter"",""1"",""3477""
","
",,null,run_exp/static/images/task_images/gems/23.jpg,null,,,,,,,3,,,2,,,,,23,0.138315746,0.130434783,,,,,,,
decision,79,379588,0.0-26.0-2.0,"""event"",""trial"",""time""
""fullscreenenter"",""1"",""3477""
","
","
","""event"",""trial"",""time""
""fullscreenenter"",""1"",""3477""
","
",,392.5999999,run_exp/static/images/task_images/land.jpg,65,,,,,,,3,,,2,,,,,,,,35491,1,1,FALSE,,,
dig,80,382201,0.0-27.0-0.0,"""event"",""trial"",""time""
""fullscreenenter"",""1"",""3477""
","
","
","""event"",""trial"",""time""
""fullscreenenter"",""1"",""3477""
","
",,,,,,,,,,,,"[{""stimulus"":""run_exp/static/images/task_images/dig.jpg"",""time"":0.09999990463256836},{""stimulus"":""run_exp/static/images/task_images/land.jpg"",""time"":875.1999998092651},{""stimulus"":""run_exp/static/images/task_images/dig.jpg"",""time"":1746.7999999523163}]",[],2,,,,,,,,,,,,,,
harvest,81,383209,0.0-27.0-1.0,"""event"",""trial"",""time""
""fullscreenenter"",""1"",""3477""
","
","
","""event"",""trial"",""time""
""fullscreenenter"",""1"",""3477""
","
",,null,run_exp/static/images/task_images/gems/3.jpg,null,,,,,,,0,,,2,,,,,3,0.145706035,0,,,,,,,
decision,82,384678,0.0-27.0-2.0,"""event"",""trial"",""time""
""fullscreenenter"",""1"",""3477""
","
","
","""event"",""trial"",""time""
""fullscreenenter"",""1"",""3477""
","
",,1468,run_exp/static/images/task_images/land.jpg,76,,,,,,,0,,,2,,,,,,,,40581,1,2,TRUE,,,
travel,83,393218,0.0-28.0-0.0,"""event"",""trial"",""time""
""fullscreenenter"",""1"",""3477""
","
","
","""event"",""trial"",""time""
""fullscreenenter"",""1"",""3477""
","
",,,,,,,,,,,,"[{""stimulus"":""run_exp/static/images/task_images/rocket-01.jpg"",""time"":0.09999990463256836},{""stimulus"":""run_exp/static/images/task_images/rocket-02.jpg"",""time"":952.5999999046326},{""stimulus"":""run_exp/static/images/task_images/rocket-03.jpg"",""time"":1905},{""stimulus"":""run_exp/static/images/task_images/rocket-04.jpg"",""time"":2849.399999856949},{""stimulus"":""run_exp/static/images/task_images/rocket-05.jpg"",""time"":3800.7999999523163},{""stimulus"":""run_exp/static/images/task_images/rocket-06.jpg"",""time"":4745.200000047684},{""stimulus"":""run_exp/static/images/task_images/rocket-07.jpg"",""time"":5697.399999856949},{""stimulus"":""run_exp/static/images/task_images/rocket-08.jpg"",""time"":6640.399999856949},{""stimulus"":""run_exp/static/images/task_images/rocket-09.jpg"",""time"":7593.200000047684}]",[],2,,,,,,,,,,,,,,
alien_welcome,84,398225,0.0-28.0-1.0,"""event"",""trial"",""time""
""fullscreenenter"",""1"",""3477""
","
","
","""event"",""trial"",""time""
""fullscreenenter"",""1"",""3477""
","
",,null,run_exp/static/images/task_images/aliens/old_aliens/planet/alien_planet-5.jpg,null,,,,,,,,,,,,,5,"59,43,5,34,66,9,18,70,62,25,15,41,42,8,49,11,46,20,27,63,2,60,13,48,45,37,40,16,58,6,77,71,10,68,61,35,51,50,19,44,67,12,75,17,52,29",,,,,,,,,,
land,85,398730,0.0-28.0-2.0,"""event"",""trial"",""time""
""fullscreenenter"",""1"",""3477""
","
","
","""event"",""trial"",""time""
""fullscreenenter"",""1"",""3477""
","
",,null,run_exp/static/images/task_images/land.jpg,null,,,,,,,101,,,3,,,,,,,,,,,,,,
dig,86,400738,0.0-28.0-3.0,"""event"",""trial"",""time""
""fullscreenenter"",""1"",""3477""
","
","
","""event"",""trial"",""time""
""fullscreenenter"",""1"",""3477""
","
",,,,,,,,,,,,"[{""stimulus"":""run_exp/static/images/task_images/dig.jpg"",""time"":0.40000009536743164},{""stimulus"":""run_exp/static/images/task_images/land.jpg"",""time"":670.4000000953674},{""stimulus"":""run_exp/static/images/task_images/dig.jpg"",""time"":1342.2000000476837}]",[],3,,,,,,,,,,,,,,
harvest,87,401746,0.0-28.0-4.0,"""event"",""trial"",""time""
""fullscreenenter"",""1"",""3477""
","
","
","""event"",""trial"",""time""
""fullscreenenter"",""1"",""3477""
","
",,null,run_exp/static/images/task_images/gems/101.jpg,null,,,,,,,49,,,3,,,,,101,0.484077162,0.485148515,,,,,,,
decision,88,402169,0.0-28.0-5.0,"""event"",""trial"",""time""
""fullscreenenter"",""1"",""3477""
","
","
","""event"",""trial"",""time""
""fullscreenenter"",""1"",""3477""
","
",,421.9000001,run_exp/static/images/task_images/land.jpg,65,,,,,,,49,,,3,,,,,,,,58072,1,0,FALSE,,,
dig,89,404753,0.0-29.0-0.0,"""event"",""trial"",""time""
""fullscreenenter"",""1"",""3477""
","
","
","""event"",""trial"",""time""
""fullscreenenter"",""1"",""3477""
","
",,,,,,,,,,,,"[{""stimulus"":""run_exp/static/images/task_images/dig.jpg"",""time"":0.19999980926513672},{""stimulus"":""run_exp/static/images/task_images/land.jpg"",""time"":862.3999998569489},{""stimulus"":""run_exp/static/images/task_images/dig.jpg"",""time"":1726.3999998569489}]",[],3,,,,,,,,,,,,,,
harvest,90,405761,0.0-29.0-1.0,"""event"",""trial"",""time""
""fullscreenenter"",""1"",""3477""
","
","
","""event"",""trial"",""time""
""fullscreenenter"",""1"",""3477""
","
",,null,run_exp/static/images/task_images/gems/49.jpg,null,,,,,,,27,,,3,,,,,49,0.541373228,0.551020408,,,,,,,
decision,91,406145,0.0-29.0-2.0,"""event"",""trial"",""time""
""fullscreenenter"",""1"",""3477""
","
","
","""event"",""trial"",""time""
""fullscreenenter"",""1"",""3477""
","
",,381.8,run_exp/static/images/task_images/land.jpg,65,,,,,,,27,,,3,,,,,,,,62048,1,1,FALSE,,,
dig,92,408770,0.0-30.0-0.0,"""event"",""trial"",""time""
""fullscreenenter"",""1"",""3477""
","
","
","""event"",""trial"",""time""
""fullscreenenter"",""1"",""3477""
","
",,,,,,,,,,,,"[{""stimulus"":""run_exp/static/images/task_images/dig.jpg"",""time"":0.20000004768371582},{""stimulus"":""run_exp/static/images/task_images/land.jpg"",""time"":879},{""stimulus"":""run_exp/static/images/task_images/dig.jpg"",""time"":1750.3999998569489}]",[],3,,,,,,,,,,,,,,
harvest,93,409778,0.0-30.0-1.0,"""event"",""trial"",""time""
""fullscreenenter"",""1"",""3477""
","
","
","""event"",""trial"",""time""
""fullscreenenter"",""1"",""3477""
","
",,null,run_exp/static/images/task_images/gems/27.jpg,null,,,,,,,14,,,3,,,,,27,0.522774831,0.518518519,,,,,,,
decision,94,410024,0.0-30.0-2.0,"""event"",""trial"",""time""
""fullscreenenter"",""1"",""3477""
","
","
","""event"",""trial"",""time""
""fullscreenenter"",""1"",""3477""
","
",,244.3000002,run_exp/static/images/task_images/land.jpg,76,,,,,,,14,,,3,,,,,,,,65927,1,2,TRUE,,,
travel,95,419778,0.0-31.0-0.0,"""event"",""trial"",""time""
""fullscreenenter"",""1"",""3477""
","
","
","""event"",""trial"",""time""
""fullscreenenter"",""1"",""3477""
","
",,,,,,,,,,,,"[{""stimulus"":""run_exp/static/images/task_images/rocket-01.jpg"",""time"":0.19999980926513672},{""stimulus"":""run_exp/static/images/task_images/rocket-02.jpg"",""time"":1088.1999998092651},{""stimulus"":""run_exp/static/images/task_images/rocket-03.jpg"",""time"":2175.2999999523163},{""stimulus"":""run_exp/static/images/task_images/rocket-04.jpg"",""time"":3255.399999856949},{""stimulus"":""run_exp/static/images/task_images/rocket-05.jpg"",""time"":4335.099999904633},{""stimulus"":""run_exp/static/images/task_images/rocket-06.jpg"",""time"":5423.799999952316},{""stimulus"":""run_exp/static/images/task_images/rocket-07.jpg"",""time"":6503.899999856949},{""stimulus"":""run_exp/static/images/task_images/rocket-08.jpg"",""time"":7583.5},{""stimulus"":""run_exp/static/images/task_images/rocket-09.jpg"",""time"":8672.199999809265}]",[],3,,,,,,,,,,,,,,
alien_welcome,96,424787,0.0-31.0-1.0,"""event"",""trial"",""time""
""fullscreenenter"",""1"",""3477""
","
","
","""event"",""trial"",""time""
""fullscreenenter"",""1"",""3477""
","
",,null,run_exp/static/images/task_images/aliens/old_aliens/planet/alien_planet-34.jpg,null,,,,,,,,,,,,,34,"59,43,5,34,66,9,18,70,62,25,15,41,42,8,49,11,46,20,27,63,2,60,13,48,45,37,40,16,58,6,77,71,10,68,61,35,51,50,19,44,67,12,75,17,52,29",,,,,,,,,,
land,97,425290,0.0-31.0-2.0,"""event"",""trial"",""time""
""fullscreenenter"",""1"",""3477""
","
","
","""event"",""trial"",""time""
""fullscreenenter"",""1"",""3477""
","
",,null,run_exp/static/images/task_images/land.jpg,null,,,,,,,110,,,4,,,,,,,,,,,,,,
dig,98,427299,0.0-31.0-3.0,"""event"",""trial"",""time""
""fullscreenenter"",""1"",""3477""
","
","
","""event"",""trial"",""time""
""fullscreenenter"",""1"",""3477""
","
",,,,,,,,,,,,"[{""stimulus"":""run_exp/static/images/task_images/dig.jpg"",""time"":0.39999985694885254},{""stimulus"":""run_exp/static/images/task_images/land.jpg"",""time"":671.3999998569489},{""stimulus"":""run_exp/static/images/task_images/dig.jpg"",""time"":1342}]",[],4,,,,,,,,,,,,,,
harvest,99,428306,0.0-31.0-4.0,"""event"",""trial"",""time""
""fullscreenenter"",""1"",""3477""
","
","
","""event"",""trial"",""time""
""fullscreenenter"",""1"",""3477""
","
",,null,run_exp/static/images/task_images/gems/110.jpg,null,,,,,,,55,,,4,,,,,110,0.497846328,0.5,,,,,,,
decision,100,430572,0.0-31.0-5.0,"""event"",""trial"",""time""
""fullscreenenter"",""1"",""3477""
","
","
","""event"",""trial"",""time""
""fullscreenenter"",""1"",""3477""
","
",,2264,run_exp/static/images/task_images/land.jpg,65,,,,,,,55,,,4,,,,,,,,86475,1,0,FALSE,,,
dig,101,431315,0.0-32.0-0.0,"""event"",""trial"",""time""
""fullscreenenter"",""1"",""3477""
","
","
","""event"",""trial"",""time""
""fullscreenenter"",""1"",""3477""
","
",,,,,,,,,,,,"[{""stimulus"":""run_exp/static/images/task_images/dig.jpg"",""time"":0.19999980926513672},{""stimulus"":""run_exp/static/images/task_images/land.jpg"",""time"":252.59999990463257},{""stimulus"":""run_exp/static/images/task_images/dig.jpg"",""time"":499.69999980926514}]",[],4,,,,,,,,,,,,,,
harvest,102,432322,0.0-32.0-1.0,"""event"",""trial"",""time""
""fullscreenenter"",""1"",""3477""
","
","
","""event"",""trial"",""time""
""fullscreenenter"",""1"",""3477""
","
",,null,run_exp/static/images/task_images/gems/55.jpg,null,,,,,,,28,,,4,,,,,55,0.505721659,0.509090909,,,,,,,
decision,103,432771,0.0-32.0-2.0,"""event"",""trial"",""time""
""fullscreenenter"",""1"",""3477""
","
","
","""event"",""trial"",""time""
""fullscreenenter"",""1"",""3477""
","
",,447.5,run_exp/static/images/task_images/land.jpg,65,,,,,,,28,,,4,,,,,,,,88674,1,1,FALSE,,,
dig,104,435331,0.0-33.0-0.0,"""event"",""trial"",""time""
""fullscreenenter"",""1"",""3477""
","
","
","""event"",""trial"",""time""
""fullscreenenter"",""1"",""3477""
","
",,,,,,,,,,,,"[{""stimulus"":""run_exp/static/images/task_images/dig.jpg"",""time"":0.20000004768371582},{""stimulus"":""run_exp/static/images/task_images/land.jpg"",""time"":854.2000000476837},{""stimulus"":""run_exp/static/images/task_images/dig.jpg"",""time"":1709.1000001430511}]",[],4,,,,,,,,,,,,,,
harvest,105,436339,0.0-33.0-1.0,"""event"",""trial"",""time""
""fullscreenenter"",""1"",""3477""
","
","
","""event"",""trial"",""time""
""fullscreenenter"",""1"",""3477""
","
",,null,run_exp/static/images/task_images/gems/28.jpg,null,,,,,,,13,,,4,,,,,28,0.4807348,0.464285714,,,,,,,
decision,106,436548,0.0-33.0-2.0,"""event"",""trial"",""time""
""fullscreenenter"",""1"",""3477""
","
","
","""event"",""trial"",""time""
""fullscreenenter"",""1"",""3477""
","
",,207.1000001,run_exp/static/images/task_images/land.jpg,76,,,,,,,13,,,4,,,,,,,,92451,1,2,TRUE,,,
travel,107,446347,0.0-34.0-0.0,"""event"",""trial"",""time""
""fullscreenenter"",""1"",""3477""
","
","
","""event"",""trial"",""time""
""fullscreenenter"",""1"",""3477""
","
",,,,,,,,,,,,"[{""stimulus"":""run_exp/static/images/task_images/rocket-01.jpg"",""time"":0.20000004768371582},{""stimulus"":""run_exp/static/images/task_images/rocket-02.jpg"",""time"":1092.5},{""stimulus"":""run_exp/static/images/task_images/rocket-03.jpg"",""time"":2180.4000000953674},{""stimulus"":""run_exp/static/images/task_images/rocket-04.jpg"",""time"":3267.7000000476837},{""stimulus"":""run_exp/static/images/task_images/rocket-05.jpg"",""time"":4357},{""stimulus"":""run_exp/static/images/task_images/rocket-06.jpg"",""time"":5445.299999952316},{""stimulus"":""run_exp/static/images/task_images/rocket-07.jpg"",""time"":6531.700000047684},{""stimulus"":""run_exp/static/images/task_images/rocket-08.jpg"",""time"":7620.700000047684},{""stimulus"":""run_exp/static/images/task_images/rocket-09.jpg"",""time"":8708.200000047684}]",[],4,,,,,,,,,,,,,,
alien_welcome,108,451355,0.0-34.0-1.0,"""event"",""trial"",""time""
""fullscreenenter"",""1"",""3477""
","
","
","""event"",""trial"",""time""
""fullscreenenter"",""1"",""3477""
","
",,null,run_exp/static/images/task_images/aliens/old_aliens/planet/alien_planet-66.jpg,null,,,,,,,,,,,,,66,"59,43,5,34,66,9,18,70,62,25,15,41,42,8,49,11,46,20,27,63,2,60,13,48,45,37,40,16,58,6,77,71,10,68,61,35,51,50,19,44,67,12,75,17,52,29",,,,,,,,,,
land,109,451858,0.0-34.0-2.0,"""event"",""trial"",""time""
""fullscreenenter"",""1"",""3477""
","
","
","""event"",""trial"",""time""
""fullscreenenter"",""1"",""3477""
","
",,null,run_exp/static/images/task_images/land.jpg,null,,,,,,,101,,,5,,,,,,,,,,,,,,
dig,110,453867,0.0-34.0-3.0,"""event"",""trial"",""time""
""fullscreenenter"",""1"",""3477""
","
","
","""event"",""trial"",""time""
""fullscreenenter"",""1"",""3477""
","
",,,,,,,,,,,,"[{""stimulus"":""run_exp/static/images/task_images/dig.jpg"",""time"":0.2999999523162842},{""stimulus"":""run_exp/static/images/task_images/land.jpg"",""time"":671.7999999523163},{""stimulus"":""run_exp/static/images/task_images/dig.jpg"",""time"":1335.5}]",[],5,,,,,,,,,,,,,,
harvest,111,454876,0.0-34.0-4.0,"""event"",""trial"",""time""
""fullscreenenter"",""1"",""3477""
","
","
","""event"",""trial"",""time""
""fullscreenenter"",""1"",""3477""
","
",,null,run_exp/static/images/task_images/gems/101.jpg,null,,,,,,,51,,,5,,,,,101,0.507988634,0.504950495,,,,,,,
decision,112,455095,0.0-34.0-5.0,"""event"",""trial"",""time""
""fullscreenenter"",""1"",""3477""
","
","
","""event"",""trial"",""time""
""fullscreenenter"",""1"",""3477""
","
",,217.8999999,run_exp/static/images/task_images/land.jpg,65,,,,,,,51,,,5,,,,,,,,110998,1,0,FALSE,,,
dig,113,457883,0.0-35.0-0.0,"""event"",""trial"",""time""
""fullscreenenter"",""1"",""3477""
","
","
","""event"",""trial"",""time""
""fullscreenenter"",""1"",""3477""
","
",,,,,,,,,,,,"[{""stimulus"":""run_exp/static/images/task_images/dig.jpg"",""time"":0.10000014305114746},{""stimulus"":""run_exp/static/images/task_images/land.jpg"",""time"":931.4000000953674},{""stimulus"":""run_exp/static/images/task_images/dig.jpg"",""time"":1858.2999999523163}]",[],5,,,,,,,,,,,,,,
harvest,114,458892,0.0-35.0-1.0,"""event"",""trial"",""time""
""fullscreenenter"",""1"",""3477""
","
","
","""event"",""trial"",""time""
""fullscreenenter"",""1"",""3477""
","
",,null,run_exp/static/images/task_images/gems/51.jpg,null,,,,,,,24,,,5,,,,,51,0.476401303,0.470588235,,,,,,,
decision,115,458995,0.0-35.0-2.0,"""event"",""trial"",""time""
""fullscreenenter"",""1"",""3477""
","
","
","""event"",""trial"",""time""
""fullscreenenter"",""1"",""3477""
","
",,102.7,run_exp/static/images/task_images/land.jpg,65,,,,,,,24,,,5,,,,,,,,114899,1,1,FALSE,,,
dig,116,461899,0.0-36.0-0.0,"""event"",""trial"",""time""
""fullscreenenter"",""1"",""3477""
","
","
","""event"",""trial"",""time""
""fullscreenenter"",""1"",""3477""
","
",,,,,,,,,,,,"[{""stimulus"":""run_exp/static/images/task_images/dig.jpg"",""time"":0.20000004768371582},{""stimulus"":""run_exp/static/images/task_images/land.jpg"",""time"":973.5999999046326},{""stimulus"":""run_exp/static/images/task_images/dig.jpg"",""time"":1932.9000000953674}]",[],5,,,,,,,,,,,,,,
harvest,117,462906,0.0-36.0-1.0,"""event"",""trial"",""time""
""fullscreenenter"",""1"",""3477""
","
","
","""event"",""trial"",""time""
""fullscreenenter"",""1"",""3477""
","
",,null,run_exp/static/images/task_images/gems/24.jpg,null,,,,,,,12,,,5,,,,,24,0.49406127,0.5,,,,,,,
decision,118,463288,0.0-36.0-2.0,"""event"",""trial"",""time""
""fullscreenenter"",""1"",""3477""
","
","
","""event"",""trial"",""time""
""fullscreenenter"",""1"",""3477""
","
",,381,run_exp/static/images/task_images/land.jpg,76,,,,,,,12,,,5,,,,,,,,119191,1,2,TRUE,,,
travel,119,472908,0.0-37.0-0.0,"""event"",""trial"",""time""
""fullscreenenter"",""1"",""3477""
","
","
","""event"",""trial"",""time""
""fullscreenenter"",""1"",""3477""
","
",,,,,,,,,,,,"[{""stimulus"":""run_exp/static/images/task_images/rocket-01.jpg"",""time"":0.19999980926513672},{""stimulus"":""run_exp/static/images/task_images/rocket-02.jpg"",""time"":1073.2999999523163},{""stimulus"":""run_exp/static/images/task_images/rocket-03.jpg"",""time"":2137},{""stimulus"":""run_exp/static/images/task_images/rocket-04.jpg"",""time"":3208.199999809265},{""stimulus"":""run_exp/static/images/task_images/rocket-05.jpg"",""time"":4281.299999952316},{""stimulus"":""run_exp/static/images/task_images/rocket-06.jpg"",""time"":5344.5},{""stimulus"":""run_exp/static/images/task_images/rocket-07.jpg"",""time"":6417.599999904633},{""stimulus"":""run_exp/static/images/task_images/rocket-08.jpg"",""time"":7481.099999904633},{""stimulus"":""run_exp/static/images/task_images/rocket-09.jpg"",""time"":8552.399999856949}]",[],5,,,,,,,,,,,,,,
alien_welcome,120,477916,0.0-37.0-1.0,"""event"",""trial"",""time""
""fullscreenenter"",""1"",""3477""
","
","
","""event"",""trial"",""time""
""fullscreenenter"",""1"",""3477""
","
",,null,run_exp/static/images/task_images/aliens/old_aliens/planet/alien_planet-9.jpg,null,,,,,,,,,,,,,9,"59,43,5,34,66,9,18,70,62,25,15,41,42,8,49,11,46,20,27,63,2,60,13,48,45,37,40,16,58,6,77,71,10,68,61,35,51,50,19,44,67,12,75,17,52,29",,,,,,,,,,
land,121,478420,0.0-37.0-2.0,"""event"",""trial"",""time""
""fullscreenenter"",""1"",""3477""
","
","
","""event"",""trial"",""time""
""fullscreenenter"",""1"",""3477""
","
",,null,run_exp/static/images/task_images/land.jpg,null,,,,,,,89,,,6,,,,,,,,,,,,,,
dig,122,480428,0.0-37.0-3.0,"""event"",""trial"",""time""
""fullscreenenter"",""1"",""3477""
","
","
","""event"",""trial"",""time""
""fullscreenenter"",""1"",""3477""
","
",,,,,,,,,,,,"[{""stimulus"":""run_exp/static/images/task_images/dig.jpg"",""time"":0.2999999523162842},{""stimulus"":""run_exp/static/images/task_images/land.jpg"",""time"":670.5},{""stimulus"":""run_exp/static/images/task_images/dig.jpg"",""time"":1343.1000001430511}]",[],6,,,,,,,,,,,,,,
harvest,123,481436,0.0-37.0-4.0,"""event"",""trial"",""time""
""fullscreenenter"",""1"",""3477""
","
","
","""event"",""trial"",""time""
""fullscreenenter"",""1"",""3477""
","
",,null,run_exp/static/images/task_images/gems/89.jpg,null,,,,,,,75,,,6,,,,,89,0.838700421,0.842696629,,,,,,,
decision,124,482007,0.0-37.0-5.0,"""event"",""trial"",""time""
""fullscreenenter"",""1"",""3477""
","
","
","""event"",""trial"",""time""
""fullscreenenter"",""1"",""3477""
","
",,569,run_exp/static/images/task_images/land.jpg,65,,,,,,,75,,,6,,,,,,,,137910,1,0,FALSE,,,
dig,125,484445,0.0-38.0-0.0,"""event"",""trial"",""time""
""fullscreenenter"",""1"",""3477""
","
","
","""event"",""trial"",""time""
""fullscreenenter"",""1"",""3477""
","
",,,,,,,,,,,,"[{""stimulus"":""run_exp/static/images/task_images/dig.jpg"",""time"":0.20000004768371582},{""stimulus"":""run_exp/static/images/task_images/land.jpg"",""time"":818.9000000953674},{""stimulus"":""run_exp/static/images/task_images/dig.jpg"",""time"":1626.7999999523163}]",[],6,,,,,,,,,,,,,,
harvest,126,485451,0.0-38.0-1.0,"""event"",""trial"",""time""
""fullscreenenter"",""1"",""3477""
","
","
","""event"",""trial"",""time""
""fullscreenenter"",""1"",""3477""
","
",,null,run_exp/static/images/task_images/gems/75.jpg,null,,,,,,,62,,,6,,,,,75,0.82185871,0.826666667,,,,,,,
decision,127,485606,0.0-38.0-2.0,"""event"",""trial"",""time""
""fullscreenenter"",""1"",""3477""
","
","
","""event"",""trial"",""time""
""fullscreenenter"",""1"",""3477""
","
",,152.7,run_exp/static/images/task_images/land.jpg,65,,,,,,,62,,,6,,,,,,,,141509,1,1,FALSE,,,
dig,128,488461,0.0-39.0-0.0,"""event"",""trial"",""time""
""fullscreenenter"",""1"",""3477""
","
","
","""event"",""trial"",""time""
""fullscreenenter"",""1"",""3477""
","
",,,,,,,,,,,,"[{""stimulus"":""run_exp/static/images/task_images/dig.jpg"",""time"":0.09999990463256836},{""stimulus"":""run_exp/static/images/task_images/land.jpg"",""time"":956.0999999046326},{""stimulus"":""run_exp/static/images/task_images/dig.jpg"",""time"":1900.5999999046326}]",[],6,,,,,,,,,,,,,,
harvest,129,489468,0.0-39.0-1.0,"""event"",""trial"",""time""
""fullscreenenter"",""1"",""3477""
","
","
","""event"",""trial"",""time""
""fullscreenenter"",""1"",""3477""
","
",,null,run_exp/static/images/task_images/gems/62.jpg,null,,,,,,,52,,,6,,,,,62,0.842442336,0.838709677,,,,,,,
decision,130,489643,0.0-39.0-2.0,"""event"",""trial"",""time""
""fullscreenenter"",""1"",""3477""
","
","
","""event"",""trial"",""time""
""fullscreenenter"",""1"",""3477""
","
",,173.3,run_exp/static/images/task_images/land.jpg,65,,,,,,,52,,,6,,,,,,,,145546,1,2,FALSE,,,
dig,131,492476,0.0-40.0-0.0,"""event"",""trial"",""time""
""fullscreenenter"",""1"",""3477""
","
","
","""event"",""trial"",""time""
""fullscreenenter"",""1"",""3477""
","
",,,,,,,,,,,,"[{""stimulus"":""run_exp/static/images/task_images/dig.jpg"",""time"":0.09999990463256836},{""stimulus"":""run_exp/static/images/task_images/land.jpg"",""time"":952},{""stimulus"":""run_exp/static/images/task_images/dig.jpg"",""time"":1887.8999998569489}]",[],6,,,,,,,,,,,,,,
harvest,132,493484,0.0-40.0-1.0,"""event"",""trial"",""time""
""fullscreenenter"",""1"",""3477""
","
","
","""event"",""trial"",""time""
""fullscreenenter"",""1"",""3477""
","
",,null,run_exp/static/images/task_images/gems/52.jpg,null,,,,,,,38,,,6,,,,,52,0.722707091,0.730769231,,,,,,,
decision,133,494973,0.0-40.0-2.0,"""event"",""trial"",""time""
""fullscreenenter"",""1"",""3477""
","
","
","""event"",""trial"",""time""
""fullscreenenter"",""1"",""3477""
","
",,1487.8,run_exp/static/images/task_images/land.jpg,65,,,,,,,38,,,6,,,,,,,,150876,1,3,FALSE,,,
dig,134,496493,0.0-41.0-0.0,"""event"",""trial"",""time""
""fullscreenenter"",""1"",""3477""
","
","
","""event"",""trial"",""time""
""fullscreenenter"",""1"",""3477""
","
",,,,,,,,,,,,"[{""stimulus"":""run_exp/static/images/task_images/dig.jpg"",""time"":0.10000014305114746},{""stimulus"":""run_exp/static/images/task_images/land.jpg"",""time"":507.7000000476837},{""stimulus"":""run_exp/static/images/task_images/dig.jpg"",""time"":1012.1000001430511}]",[],6,,,,,,,,,,,,,,
harvest,135,497501,0.0-41.0-1.0,"""event"",""trial"",""time""
""fullscreenenter"",""1"",""3477""
","
","
","""event"",""trial"",""time""
""fullscreenenter"",""1"",""3477""
","
",,null,run_exp/static/images/task_images/gems/38.jpg,null,,,,,,,34,,,6,,,,,38,0.884893688,0.894736842,,,,,,,
decision,136,497908,0.0-41.0-2.0,"""event"",""trial"",""time""
""fullscreenenter"",""1"",""3477""
","
","
","""event"",""trial"",""time""
""fullscreenenter"",""1"",""3477""
","
",,405.8,run_exp/static/images/task_images/land.jpg,65,,,,,,,34,,,6,,,,,,,,153811,1,4,FALSE,,,
dig,137,500509,0.0-42.0-0.0,"""event"",""trial"",""time""
""fullscreenenter"",""1"",""3477""
","
","
","""event"",""trial"",""time""
""fullscreenenter"",""1"",""3477""
","
",,,,,,,,,,,,"[{""stimulus"":""run_exp/static/images/task_images/dig.jpg"",""time"":0.19999980926513672},{""stimulus"":""run_exp/static/images/task_images/land.jpg"",""time"":869.8999998569489},{""stimulus"":""run_exp/static/images/task_images/dig.jpg"",""time"":1734.2999999523163}]",[],6,,,,,,,,,,,,,,
harvest,138,501517,0.0-42.0-1.0,"""event"",""trial"",""time""
""fullscreenenter"",""1"",""3477""
","
","
","""event"",""trial"",""time""
""fullscreenenter"",""1"",""3477""
","
",,null,run_exp/static/images/task_images/gems/34.jpg,null,,,,,,,27,,,6,,,,,34,0.784972899,0.794117647,,,,,,,
decision,139,502480,0.0-42.0-2.0,"""event"",""trial"",""time""
""fullscreenenter"",""1"",""3477""
","
","
","""event"",""trial"",""time""
""fullscreenenter"",""1"",""3477""
","
",,961.8999999,run_exp/static/images/task_images/land.jpg,76,,,,,,,27,,,6,,,,,,,,158383,1,5,TRUE,,,
travel,140,511524,0.0-43.0-0.0,"""event"",""trial"",""time""
""fullscreenenter"",""1"",""3477""
","
","
","""event"",""trial"",""time""
""fullscreenenter"",""1"",""3477""
","
",,,,,,,,,,,,"[{""stimulus"":""run_exp/static/images/task_images/rocket-01.jpg"",""time"":0.10000014305114746},{""stimulus"":""run_exp/static/images/task_images/rocket-02.jpg"",""time"":1010},{""stimulus"":""run_exp/static/images/task_images/rocket-03.jpg"",""time"":2010.7999999523163},{""stimulus"":""run_exp/static/images/task_images/rocket-04.jpg"",""time"":3018.4000000953674},{""stimulus"":""run_exp/static/images/task_images/rocket-05.jpg"",""time"":4018.9000000953674},{""stimulus"":""run_exp/static/images/task_images/rocket-06.jpg"",""time"":5027},{""stimulus"":""run_exp/static/images/task_images/rocket-07.jpg"",""time"":6027.299999952316},{""stimulus"":""run_exp/static/images/task_images/rocket-08.jpg"",""time"":7035.100000143051},{""stimulus"":""run_exp/static/images/task_images/rocket-09.jpg"",""time"":8033.5}]",[],6,,,,,,,,,,,,,,
alien_welcome,141,516533,0.0-43.0-1.0,"""event"",""trial"",""time""
""fullscreenenter"",""1"",""3477""
","
","
","""event"",""trial"",""time""
""fullscreenenter"",""1"",""3477""
","
",,null,run_exp/static/images/task_images/aliens/old_aliens/planet/alien_planet-18.jpg,null,,,,,,,,,,,,,18,"59,43,5,34,66,9,18,70,62,25,15,41,42,8,49,11,46,20,27,63,2,60,13,48,45,37,40,16,58,6,77,71,10,68,61,35,51,50,19,44,67,12,75,17,52,29",,,,,,,,,,
land,142,517038,0.0-43.0-2.0,"""event"",""trial"",""time""
""fullscreenenter"",""1"",""3477""
","
","
","""event"",""trial"",""time""
""fullscreenenter"",""1"",""3477""
","
",,null,run_exp/static/images/task_images/land.jpg,null,,,,,,,102,,,7,,,,,,,,,,,,,,
dig,143,519046,0.0-43.0-3.0,"""event"",""trial"",""time""
""fullscreenenter"",""1"",""3477""
","
","
","""event"",""trial"",""time""
""fullscreenenter"",""1"",""3477""
","
",,,,,,,,,,,,"[{""stimulus"":""run_exp/static/images/task_images/dig.jpg"",""time"":0.5},{""stimulus"":""run_exp/static/images/task_images/land.jpg"",""time"":670.9000000953674},{""stimulus"":""run_exp/static/images/task_images/dig.jpg"",""time"":1342}]",[],7,,,,,,,,,,,,,,
harvest,144,520053,0.0-43.0-4.0,"""event"",""trial"",""time""
""fullscreenenter"",""1"",""3477""
","
","
","""event"",""trial"",""time""
""fullscreenenter"",""1"",""3477""
","
",,null,run_exp/static/images/task_images/gems/102.jpg,null,,,,,,,78,,,7,,,,,102,0.763181115,0.764705882,,,,,,,
decision,145,520238,0.0-43.0-5.0,"""event"",""trial"",""time""
""fullscreenenter"",""1"",""3477""
","
","
","""event"",""trial"",""time""
""fullscreenenter"",""1"",""3477""
","
",,183.5,run_exp/static/images/task_images/land.jpg,65,,,,,,,78,,,7,,,,,,,,176141,1,0,FALSE,,,
dig,146,523062,0.0-44.0-0.0,"""event"",""trial"",""time""
""fullscreenenter"",""1"",""3477""
","
","
","""event"",""trial"",""time""
""fullscreenenter"",""1"",""3477""
","
",,,,,,,,,,,,"[{""stimulus"":""run_exp/static/images/task_images/dig.jpg"",""time"":0.20000004768371582},{""stimulus"":""run_exp/static/images/task_images/land.jpg"",""time"":940.5},{""stimulus"":""run_exp/static/images/task_images/dig.jpg"",""time"":1884.7999999523163}]",[],7,,,,,,,,,,,,,,
harvest,147,524070,0.0-44.0-1.0,"""event"",""trial"",""time""
""fullscreenenter"",""1"",""3477""
","
","
","""event"",""trial"",""time""
""fullscreenenter"",""1"",""3477""
","
",,null,run_exp/static/images/task_images/gems/78.jpg,null,,,,,,,68,,,7,,,,,78,0.873072245,0.871794872,,,,,,,
decision,148,525520,0.0-44.0-2.0,"""event"",""trial"",""time""
""fullscreenenter"",""1"",""3477""
","
","
","""event"",""trial"",""time""
""fullscreenenter"",""1"",""3477""
","
",,1448.3,run_exp/static/images/task_images/land.jpg,65,,,,,,,68,,,7,,,,,,,,181423,1,1,FALSE,,,
dig,149,527077,0.0-45.0-0.0,"""event"",""trial"",""time""
""fullscreenenter"",""1"",""3477""
","
","
","""event"",""trial"",""time""
""fullscreenenter"",""1"",""3477""
","
",,,,,,,,,,,,"[{""stimulus"":""run_exp/static/images/task_images/dig.jpg"",""time"":0.20000004768371582},{""stimulus"":""run_exp/static/images/task_images/land.jpg"",""time"":523.7000000476837},{""stimulus"":""run_exp/static/images/task_images/dig.jpg"",""time"":1042.5}]",[],7,,,,,,,,,,,,,,
harvest,150,528085,0.0-45.0-1.0,"""event"",""trial"",""time""
""fullscreenenter"",""1"",""3477""
","
","
","""event"",""trial"",""time""
""fullscreenenter"",""1"",""3477""
","
",,null,run_exp/static/images/task_images/gems/68.jpg,null,,,,,,,55,,,7,,,,,68,0.812757269,0.808823529,,,,,,,
decision,151,528455,0.0-45.0-2.0,"""event"",""trial"",""time""
""fullscreenenter"",""1"",""3477""
","
","
","""event"",""trial"",""time""
""fullscreenenter"",""1"",""3477""
","
",,368.1000001,run_exp/static/images/task_images/land.jpg,65,,,,,,,55,,,7,,,,,,,,184358,1,2,FALSE,,,
dig,152,531094,0.0-46.0-0.0,"""event"",""trial"",""time""
""fullscreenenter"",""1"",""3477""
","
","
","""event"",""trial"",""time""
""fullscreenenter"",""1"",""3477""
","
",,,,,,,,,,,,"[{""stimulus"":""run_exp/static/images/task_images/dig.jpg"",""time"":0.20000004768371582},{""stimulus"":""run_exp/static/images/task_images/land.jpg"",""time"":883.7999999523163},{""stimulus"":""run_exp/static/images/task_images/dig.jpg"",""time"":1756.4000000953674}]",[],7,,,,,,,,,,,,,,
harvest,153,532101,0.0-46.0-1.0,"""event"",""trial"",""time""
""fullscreenenter"",""1"",""3477""
","
","
","""event"",""trial"",""time""
""fullscreenenter"",""1"",""3477""
","
",,null,run_exp/static/images/task_images/gems/55.jpg,null,,,,,,,46,,,7,,,,,55,0.835069668,0.836363636,,,,,,,
decision,154,533260,0.0-46.0-2.0,"""event"",""trial"",""time""
""fullscreenenter"",""1"",""3477""
","
","
","""event"",""trial"",""time""
""fullscreenenter"",""1"",""3477""
","
",,1157.5,run_exp/static/images/task_images/land.jpg,65,,,,,,,46,,,7,,,,,,,,189163,1,3,FALSE,,,
dig,155,535110,0.0-47.0-0.0,"""event"",""trial"",""time""
""fullscreenenter"",""1"",""3477""
","
","
","""event"",""trial"",""time""
""fullscreenenter"",""1"",""3477""
","
",,,,,,,,,,,,"[{""stimulus"":""run_exp/static/images/task_images/dig.jpg"",""time"":0.20000004768371582},{""stimulus"":""run_exp/static/images/task_images/land.jpg"",""time"":623.8000001907349},{""stimulus"":""run_exp/static/images/task_images/dig.jpg"",""time"":1230.9000000953674}]",[],7,,,,,,,,,,,,,,
harvest,156,536118,0.0-47.0-1.0,"""event"",""trial"",""time""
""fullscreenenter"",""1"",""3477""
","
","
","""event"",""trial"",""time""
""fullscreenenter"",""1"",""3477""
","
",,null,run_exp/static/images/task_images/gems/46.jpg,null,,,,,,,37,,,7,,,,,46,0.802781001,0.804347826,,,,,,,
decision,157,536332,0.0-47.0-2.0,"""event"",""trial"",""time""
""fullscreenenter"",""1"",""3477""
","
","
","""event"",""trial"",""time""
""fullscreenenter"",""1"",""3477""
","
",,212.3999999,run_exp/static/images/task_images/land.jpg,65,,,,,,,37,,,7,,,,,,,,192236,1,4,FALSE,,,
dig,158,539126,0.0-48.0-0.0,"""event"",""trial"",""time""
""fullscreenenter"",""1"",""3477""
","
","
","""event"",""trial"",""time""
""fullscreenenter"",""1"",""3477""
","
",,,,,,,,,,,,"[{""stimulus"":""run_exp/static/images/task_images/dig.jpg"",""time"":0.09999990463256836},{""stimulus"":""run_exp/static/images/task_images/land.jpg"",""time"":935.2999999523163},{""stimulus"":""run_exp/static/images/task_images/dig.jpg"",""time"":1862.0999999046326}]",[],7,,,,,,,,,,,,,,
harvest,159,540133,0.0-48.0-1.0,"""event"",""trial"",""time""
""fullscreenenter"",""1"",""3477""
","
","
","""event"",""trial"",""time""
""fullscreenenter"",""1"",""3477""
","
",,null,run_exp/static/images/task_images/gems/37.jpg,null,,,,,,,32,,,7,,,,,37,0.857649561,0.864864865,,,,,,,
decision,160,540412,0.0-48.0-2.0,"""event"",""trial"",""time""
""fullscreenenter"",""1"",""3477""
","
","
","""event"",""trial"",""time""
""fullscreenenter"",""1"",""3477""
","
",,278.0999999,run_exp/static/images/task_images/land.jpg,65,,,,,,,32,,,7,,,,,,,,196315,1,5,FALSE,,,
dig,161,543142,0.0-49.0-0.0,"""event"",""trial"",""time""
""fullscreenenter"",""1"",""3477""
","
","
","""event"",""trial"",""time""
""fullscreenenter"",""1"",""3477""
","
",,,,,,,,,,,,"[{""stimulus"":""run_exp/static/images/task_images/dig.jpg"",""time"":0.20000004768371582},{""stimulus"":""run_exp/static/images/task_images/land.jpg"",""time"":911.8999998569489},{""stimulus"":""run_exp/static/images/task_images/dig.jpg"",""time"":1824}]",[],7,,,,,,,,,,,,,,
harvest,162,544150,0.0-49.0-1.0,"""event"",""trial"",""time""
""fullscreenenter"",""1"",""3477""
","
","
","""event"",""trial"",""time""
""fullscreenenter"",""1"",""3477""
","
",,null,run_exp/static/images/task_images/gems/32.jpg,null,,,,,,,25,,,7,,,,,32,0.78392728,0.78125,,,,,,,
decision,163,544531,0.0-49.0-2.0,"""event"",""trial"",""time""
""fullscreenenter"",""1"",""3477""
","
","
","""event"",""trial"",""time""
""fullscreenenter"",""1"",""3477""
","
",,379.3,run_exp/static/images/task_images/land.jpg,65,,,,,,,25,,,7,,,,,,,,200434,1,6,FALSE,,,
dig,164,547158,0.0-50.0-0.0,"""event"",""trial"",""time""
""fullscreenenter"",""1"",""3477""
","
","
","""event"",""trial"",""time""
""fullscreenenter"",""1"",""3477""
","
",,,,,,,,,,,,"[{""stimulus"":""run_exp/static/images/task_images/dig.jpg"",""time"":0.2999999523162842},{""stimulus"":""run_exp/static/images/task_images/land.jpg"",""time"":880.1000001430511},{""stimulus"":""run_exp/static/images/task_images/dig.jpg"",""time"":1753}]",[],7,,,,,,,,,,,,,,
harvest,165,548167,0.0-50.0-1.0,"""event"",""trial"",""time""
""fullscreenenter"",""1"",""3477""
","
","
","""event"",""trial"",""time""
""fullscreenenter"",""1"",""3477""
","
",,null,run_exp/static/images/task_images/gems/25.jpg,null,,,,,,,20,,,7,,,,,25,0.816650982,0.8,,,,,,,
decision,166,548207,0.0-50.0-2.0,"""event"",""trial"",""time""
""fullscreenenter"",""1"",""3477""
","
","
","""event"",""trial"",""time""
""fullscreenenter"",""1"",""3477""
","
",,38.79999995,run_exp/static/images/task_images/land.jpg,76,,,,,,,20,,,7,,,,,,,,204110,1,7,TRUE,,,
travel,167,558174,0.0-51.0-0.0,"""event"",""trial"",""time""
""fullscreenenter"",""1"",""3477""
","
","
","""event"",""trial"",""time""
""fullscreenenter"",""1"",""3477""
","
",,,,,,,,,,,,"[{""stimulus"":""run_exp/static/images/task_images/rocket-01.jpg"",""time"":0.09999990463256836},{""stimulus"":""run_exp/static/images/task_images/rocket-02.jpg"",""time"":1115.8999998569489},{""stimulus"":""run_exp/static/images/task_images/rocket-03.jpg"",""time"":2220.2000000476837},{""stimulus"":""run_exp/static/images/task_images/rocket-04.jpg"",""time"":3322.7999999523163},{""stimulus"":""run_exp/static/images/task_images/rocket-05.jpg"",""time"":4426.799999952316},{""stimulus"":""run_exp/static/images/task_images/rocket-06.jpg"",""time"":5539.399999856949},{""stimulus"":""run_exp/static/images/task_images/rocket-07.jpg"",""time"":6643.200000047684},{""stimulus"":""run_exp/static/images/task_images/rocket-08.jpg"",""time"":7747.200000047684},{""stimulus"":""run_exp/static/images/task_images/rocket-09.jpg"",""time"":8851.200000047684}]",[],7,,,,,,,,,,,,,,
alien_welcome,168,563183,0.0-51.0-1.0,"""event"",""trial"",""time""
""fullscreenenter"",""1"",""3477""
","
","
","""event"",""trial"",""time""
""fullscreenenter"",""1"",""3477""
","
",,null,run_exp/static/images/task_images/aliens/old_aliens/planet/alien_planet-70.jpg,null,,,,,,,,,,,,,70,"59,43,5,34,66,9,18,70,62,25,15,41,42,8,49,11,46,20,27,63,2,60,13,48,45,37,40,16,58,6,77,71,10,68,61,35,51,50,19,44,67,12,75,17,52,29",,,,,,,,,,
land,169,563686,0.0-51.0-2.0,"""event"",""trial"",""time""
""fullscreenenter"",""1"",""3477""
","
","
","""event"",""trial"",""time""
""fullscreenenter"",""1"",""3477""
","
",,null,run_exp/static/images/task_images/land.jpg,null,,,,,,,99,,,8,,,,,,,,,,,,,,
dig,170,565694,0.0-51.0-3.0,"""event"",""trial"",""time""
""fullscreenenter"",""1"",""3477""
","
","
","""event"",""trial"",""time""
""fullscreenenter"",""1"",""3477""
","
",,,,,,,,,,,,"[{""stimulus"":""run_exp/static/images/task_images/dig.jpg"",""time"":0.40000009536743164},{""stimulus"":""run_exp/static/images/task_images/land.jpg"",""time"":671.0999999046326},{""stimulus"":""run_exp/static/images/task_images/dig.jpg"",""time"":1342.7000000476837}]",[],8,,,,,,,,,,,,,,
harvest,171,566703,0.0-51.0-4.0,"""event"",""trial"",""time""
""fullscreenenter"",""1"",""3477""
","
","
","""event"",""trial"",""time""
""fullscreenenter"",""1"",""3477""
","
",,null,run_exp/static/images/task_images/gems/99.jpg,null,,,,,,,86,,,8,,,,,99,0.872178186,0.868686869,,,,,,,
decision,172,567462,0.0-51.0-5.0,"""event"",""trial"",""time""
""fullscreenenter"",""1"",""3477""
","
","
","""event"",""trial"",""time""
""fullscreenenter"",""1"",""3477""
","
",,757.4000001,run_exp/static/images/task_images/land.jpg,65,,,,,,,86,,,8,,,,,,,,223365,1,0,FALSE,,,
dig,173,569711,0.0-52.0-0.0,"""event"",""trial"",""time""
""fullscreenenter"",""1"",""3477""
","
","
","""event"",""trial"",""time""
""fullscreenenter"",""1"",""3477""
","
",,,,,,,,,,,,"[{""stimulus"":""run_exp/static/images/task_images/dig.jpg"",""time"":0.20000004768371582},{""stimulus"":""run_exp/static/images/task_images/land.jpg"",""time"":749.2000000476837},{""stimulus"":""run_exp/static/images/task_images/dig.jpg"",""time"":1501.2000000476837}]",[],8,,,,,,,,,,,,,,
harvest,174,570719,0.0-52.0-1.0,"""event"",""trial"",""time""
""fullscreenenter"",""1"",""3477""
","
","
","""event"",""trial"",""time""
""fullscreenenter"",""1"",""3477""
","
",,null,run_exp/static/images/task_images/gems/86.jpg,null,,,,,,,73,,,8,,,,,86,0.848624378,0.848837209,,,,,,,
decision,175,571130,0.0-52.0-2.0,"""event"",""trial"",""time""
""fullscreenenter"",""1"",""3477""
","
","
","""event"",""trial"",""time""
""fullscreenenter"",""1"",""3477""
","
",,409.3999999,run_exp/static/images/task_images/land.jpg,65,,,,,,,73,,,8,,,,,,,,227033,1,1,FALSE,,,
dig,176,573727,0.0-53.0-0.0,"""event"",""trial"",""time""
""fullscreenenter"",""1"",""3477""
","
","
","""event"",""trial"",""time""
""fullscreenenter"",""1"",""3477""
","
",,,,,,,,,,,,"[{""stimulus"":""run_exp/static/images/task_images/dig.jpg"",""time"":0.10000014305114746},{""stimulus"":""run_exp/static/images/task_images/land.jpg"",""time"":866.9000000953674},{""stimulus"":""run_exp/static/images/task_images/dig.jpg"",""time"":1730.1000001430511}]",[],8,,,,,,,,,,,,,,
harvest,177,574735,0.0-53.0-1.0,"""event"",""trial"",""time""
""fullscreenenter"",""1"",""3477""
","
","
","""event"",""trial"",""time""
""fullscreenenter"",""1"",""3477""
","
",,null,run_exp/static/images/task_images/gems/73.jpg,null,,,,,,,58,,,8,,,,,73,0.792766169,0.794520548,,,,,,,
decision,178,575735,0.0-53.0-2.0,"""event"",""trial"",""time""
""fullscreenenter"",""1"",""3477""
","
","
","""event"",""trial"",""time""
""fullscreenenter"",""1"",""3477""
","
",,998.3000002,run_exp/static/images/task_images/land.jpg,65,,,,,,,58,,,8,,,,,,,,231638,1,2,FALSE,,,
dig,179,577742,0.0-54.0-0.0,"""event"",""trial"",""time""
""fullscreenenter"",""1"",""3477""
","
","
","""event"",""trial"",""time""
""fullscreenenter"",""1"",""3477""
","
",,,,,,,,,,,,"[{""stimulus"":""run_exp/static/images/task_images/dig.jpg"",""time"":0.09999990463256836},{""stimulus"":""run_exp/static/images/task_images/land.jpg"",""time"":676.5999999046326},{""stimulus"":""run_exp/static/images/task_images/dig.jpg"",""time"":1340.5999999046326}]",[],8,,,,,,,,,,,,,,
harvest,180,578750,0.0-54.0-1.0,"""event"",""trial"",""time""
""fullscreenenter"",""1"",""3477""
","
","
","""event"",""trial"",""time""
""fullscreenenter"",""1"",""3477""
","
",,null,run_exp/static/images/task_images/gems/58.jpg,null,,,,,,,50,,,8,,,,,58,0.869271792,0.862068966,,,,,,,
decision,181,578963,0.0-54.0-2.0,"""event"",""trial"",""time""
""fullscreenenter"",""1"",""3477""
","
","
","""event"",""trial"",""time""
""fullscreenenter"",""1"",""3477""
","
",,211.2,run_exp/static/images/task_images/land.jpg,65,,,,,,,50,,,8,,,,,,,,234866,1,3,FALSE,,,
dig,182,581760,0.0-55.0-0.0,"""event"",""trial"",""time""
""fullscreenenter"",""1"",""3477""
","
","
","""event"",""trial"",""time""
""fullscreenenter"",""1"",""3477""
","
",,,,,,,,,,,,"[{""stimulus"":""run_exp/static/images/task_images/dig.jpg"",""time"":0.19999980926513672},{""stimulus"":""run_exp/static/images/task_images/land.jpg"",""time"":937.7999999523163},{""stimulus"":""run_exp/static/images/task_images/dig.jpg"",""time"":1866.5}]",[],8,,,,,,,,,,,,,,
harvest,183,582768,0.0-55.0-1.0,"""event"",""trial"",""time""
""fullscreenenter"",""1"",""3477""
","
","
","""event"",""trial"",""time""
""fullscreenenter"",""1"",""3477""
","
",,null,run_exp/static/images/task_images/gems/50.jpg,null,,,,,,,36,,,8,,,,,50,0.710098061,0.72,,,,,,,
decision,184,583420,0.0-55.0-2.0,"""event"",""trial"",""time""
""fullscreenenter"",""1"",""3477""
","
","
","""event"",""trial"",""time""
""fullscreenenter"",""1"",""3477""
","
",,650.1000001,run_exp/static/images/task_images/land.jpg,65,,,,,,,36,,,8,,,,,,,,239323,1,4,FALSE,,,
dig,185,585776,0.0-56.0-0.0,"""event"",""trial"",""time""
""fullscreenenter"",""1"",""3477""
","
","
","""event"",""trial"",""time""
""fullscreenenter"",""1"",""3477""
","
",,,,,,,,,,,,"[{""stimulus"":""run_exp/static/images/task_images/dig.jpg"",""time"":0.20000004768371582},{""stimulus"":""run_exp/static/images/task_images/land.jpg"",""time"":792.5},{""stimulus"":""run_exp/static/images/task_images/dig.jpg"",""time"":1575.7000000476837}]",[],8,,,,,,,,,,,,,,
harvest,186,586783,0.0-56.0-1.0,"""event"",""trial"",""time""
""fullscreenenter"",""1"",""3477""
","
","
","""event"",""trial"",""time""
""fullscreenenter"",""1"",""3477""
","
",,null,run_exp/static/images/task_images/gems/36.jpg,null,,,,,,,30,,,8,,,,,36,0.824536339,0.833333333,,,,,,,
decision,187,587082,0.0-56.0-2.0,"""event"",""trial"",""time""
""fullscreenenter"",""1"",""3477""
","
","
","""event"",""trial"",""time""
""fullscreenenter"",""1"",""3477""
","
",,298,run_exp/static/images/task_images/land.jpg,65,,,,,,,30,,,8,,,,,,,,242985,1,5,FALSE,,,
dig,188,589792,0.0-57.0-0.0,"""event"",""trial"",""time""
""fullscreenenter"",""1"",""3477""
","
","
","""event"",""trial"",""time""
""fullscreenenter"",""1"",""3477""
","
",,,,,,,,,,,,"[{""stimulus"":""run_exp/static/images/task_images/dig.jpg"",""time"":0.19999980926513672},{""stimulus"":""run_exp/static/images/task_images/land.jpg"",""time"":907.2999999523163},{""stimulus"":""run_exp/static/images/task_images/dig.jpg"",""time"":1803}]",[],8,,,,,,,,,,,,,,
harvest,189,590800,0.0-57.0-1.0,"""event"",""trial"",""time""
""fullscreenenter"",""1"",""3477""
","
","
","""event"",""trial"",""time""
""fullscreenenter"",""1"",""3477""
","
",,null,run_exp/static/images/task_images/gems/30.jpg,null,,,,,,,22,,,8,,,,,30,0.744611832,0.733333333,,,,,,,
decision,190,591618,0.0-57.0-2.0,"""event"",""trial"",""time""
""fullscreenenter"",""1"",""3477""
","
","
","""event"",""trial"",""time""
""fullscreenenter"",""1"",""3477""
","
",,817,run_exp/static/images/task_images/land.jpg,65,,,,,,,22,,,8,,,,,,,,247521,1,6,FALSE,,,
dig,191,593808,0.0-58.0-0.0,"""event"",""trial"",""time""
""fullscreenenter"",""1"",""3477""
","
","
","""event"",""trial"",""time""
""fullscreenenter"",""1"",""3477""
","
",,,,,,,,,,,,"[{""stimulus"":""run_exp/static/images/task_images/dig.jpg"",""time"":0.20000004768371582},{""stimulus"":""run_exp/static/images/task_images/land.jpg"",""time"":729.2999999523163},{""stimulus"":""run_exp/static/images/task_images/dig.jpg"",""time"":1458.7999999523163}]",[],8,,,,,,,,,,,,,,
harvest,192,594816,0.0-58.0-1.0,"""event"",""trial"",""time""
""fullscreenenter"",""1"",""3477""
","
","
","""event"",""trial"",""time""
""fullscreenenter"",""1"",""3477""
","
",,null,run_exp/static/images/task_images/gems/22.jpg,null,,,,,,,18,,,8,,,,,22,0.823290952,0.818181818,,,,,,,
decision,193,594825,0.0-58.0-2.0,"""event"",""trial"",""time""
""fullscreenenter"",""1"",""3477""
","
","
","""event"",""trial"",""time""
""fullscreenenter"",""1"",""3477""
","
",,7.200000048,run_exp/static/images/task_images/land.jpg,76,,,,,,,18,,,8,,,,,,,,250728,1,7,TRUE,,,
travel,194,604825,0.0-59.0-0.0,"""event"",""trial"",""time""
""fullscreenenter"",""1"",""3477""
","
","
","""event"",""trial"",""time""
""fullscreenenter"",""1"",""3477""
","
",,,,,,,,,,,,"[{""stimulus"":""run_exp/static/images/task_images/rocket-01.jpg"",""time"":0.19999980926513672},{""stimulus"":""run_exp/static/images/task_images/rocket-02.jpg"",""time"":1117.7999999523163},{""stimulus"":""run_exp/static/images/task_images/rocket-03.jpg"",""time"":2228.899999856949},{""stimulus"":""run_exp/static/images/task_images/rocket-04.jpg"",""time"":3332.699999809265},{""stimulus"":""run_exp/static/images/task_images/rocket-05.jpg"",""time"":4445.399999856949},{""stimulus"":""run_exp/static/images/task_images/rocket-06.jpg"",""time"":5556.299999952316},{""stimulus"":""run_exp/static/images/task_images/rocket-07.jpg"",""time"":6669.099999904633},{""stimulus"":""run_exp/static/images/task_images/rocket-08.jpg"",""time"":7771.799999952316},{""stimulus"":""run_exp/static/images/task_images/rocket-09.jpg"",""time"":8885.399999856949}]",[],8,,,,,,,,,,,,,,
alien_welcome,195,609832,0.0-59.0-1.0,"""event"",""trial"",""time""
""fullscreenenter"",""1"",""3477""
","
","
","""event"",""trial"",""time""
""fullscreenenter"",""1"",""3477""
","
",,null,run_exp/static/images/task_images/aliens/old_aliens/planet/alien_planet-62.jpg,null,,,,,,,,,,,,,62,"59,43,5,34,66,9,18,70,62,25,15,41,42,8,49,11,46,20,27,63,2,60,13,48,45,37,40,16,58,6,77,71,10,68,61,35,51,50,19,44,67,12,75,17,52,29",,,,,,,,,,
land,196,610336,0.0-59.0-2.0,"""event"",""trial"",""time""
""fullscreenenter"",""1"",""3477""
","
","
","""event"",""trial"",""time""
""fullscreenenter"",""1"",""3477""
","
",,null,run_exp/static/images/task_images/land.jpg,null,,,,,,,97,,,9,,,,,,,,,,,,,,
dig,197,612344,0.0-59.0-3.0,"""event"",""trial"",""time""
""fullscreenenter"",""1"",""3477""
","
","
","""event"",""trial"",""time""
""fullscreenenter"",""1"",""3477""
","
",,,,,,,,,,,,"[{""stimulus"":""run_exp/static/images/task_images/dig.jpg"",""time"":0.2999999523162842},{""stimulus"":""run_exp/static/images/task_images/land.jpg"",""time"":671.5},{""stimulus"":""run_exp/static/images/task_images/dig.jpg"",""time"":1335.5999999046326}]",[],9,,,,,,,,,,,,,,
harvest,198,613353,0.0-59.0-4.0,"""event"",""trial"",""time""
""fullscreenenter"",""1"",""3477""
","
","
","""event"",""trial"",""time""
""fullscreenenter"",""1"",""3477""
","
",,null,run_exp/static/images/task_images/gems/97.jpg,null,,,,,,,20,,,9,,,,,97,0.202872662,0.206185567,,,,,,,
decision,199,614880,0.0-59.0-5.0,"""event"",""trial"",""time""
""fullscreenenter"",""1"",""3477""
","
","
","""event"",""trial"",""time""
""fullscreenenter"",""1"",""3477""
","
",,1525.9,run_exp/static/images/task_images/land.jpg,65,,,,,,,20,,,9,,,,,,,,270783,1,0,FALSE,,,
dig,200,616361,0.0-60.0-0.0,"""event"",""trial"",""time""
""fullscreenenter"",""1"",""3477""
","
","
","""event"",""trial"",""time""
""fullscreenenter"",""1"",""3477""
","
",,,,,,,,,,,,"[{""stimulus"":""run_exp/static/images/task_images/dig.jpg"",""time"":0.20000004768371582},{""stimulus"":""run_exp/static/images/task_images/land.jpg"",""time"":494.39999985694885},{""stimulus"":""run_exp/static/images/task_images/dig.jpg"",""time"":990.2000000476837}]",[],9,,,,,,,,,,,,,,
harvest,201,617368,0.0-60.0-1.0,"""event"",""trial"",""time""
""fullscreenenter"",""1"",""3477""
","
","
","""event"",""trial"",""time""
""fullscreenenter"",""1"",""3477""
","
",,null,run_exp/static/images/task_images/gems/20.jpg,null,,,,,,,4,,,9,,,,,20,0.201430851,0.2,,,,,,,
decision,202,617410,0.0-60.0-2.0,"""event"",""trial"",""time""
""fullscreenenter"",""1"",""3477""
","
","
","""event"",""trial"",""time""
""fullscreenenter"",""1"",""3477""
","
",,39.79999995,run_exp/static/images/task_images/land.jpg,76,,,,,,,4,,,9,,,,,,,,273313,1,1,TRUE,,,
travel,203,627377,0.0-61.0-0.0,"""event"",""trial"",""time""
""fullscreenenter"",""1"",""3477""
","
","
","""event"",""trial"",""time""
""fullscreenenter"",""1"",""3477""
","
",,,,,,,,,,,,"[{""stimulus"":""run_exp/static/images/task_images/rocket-01.jpg"",""time"":0.20000004768371582},{""stimulus"":""run_exp/static/images/task_images/rocket-02.jpg"",""time"":1115.6000001430511},{""stimulus"":""run_exp/static/images/task_images/rocket-03.jpg"",""time"":2219.600000143051},{""stimulus"":""run_exp/static/images/task_images/rocket-04.jpg"",""time"":3323.600000143051},{""stimulus"":""run_exp/static/images/task_images/rocket-05.jpg"",""time"":4427.700000047684},{""stimulus"":""run_exp/static/images/task_images/rocket-06.jpg"",""time"":5535.600000143051},{""stimulus"":""run_exp/static/images/task_images/rocket-07.jpg"",""time"":6644.400000095367},{""stimulus"":""run_exp/static/images/task_images/rocket-08.jpg"",""time"":7747.299999952316},{""stimulus"":""run_exp/static/images/task_images/rocket-09.jpg"",""time"":8851.799999952316}]",[],9,,,,,,,,,,,,,,
alien_welcome,204,632385,0.0-61.0-1.0,"""event"",""trial"",""time""
""fullscreenenter"",""1"",""3477""
","
","
","""event"",""trial"",""time""
""fullscreenenter"",""1"",""3477""
","
",,null,run_exp/static/images/task_images/aliens/old_aliens/planet/alien_planet-25.jpg,null,,,,,,,,,,,,,25,"59,43,5,34,66,9,18,70,62,25,15,41,42,8,49,11,46,20,27,63,2,60,13,48,45,37,40,16,58,6,77,71,10,68,61,35,51,50,19,44,67,12,75,17,52,29",,,,,,,,,,
land,205,632889,0.0-61.0-2.0,"""event"",""trial"",""time""
""fullscreenenter"",""1"",""3477""
","
","
","""event"",""trial"",""time""
""fullscreenenter"",""1"",""3477""
","
",,null,run_exp/static/images/task_images/land.jpg,null,,,,,,,90,,,10,,,,,,,,,,,,,,
dig,206,634897,0.0-61.0-3.0,"""event"",""trial"",""time""
""fullscreenenter"",""1"",""3477""
","
","
","""event"",""trial"",""time""
""fullscreenenter"",""1"",""3477""
","
",,,,,,,,,,,,"[{""stimulus"":""run_exp/static/images/task_images/dig.jpg"",""time"":0.2999999523162842},{""stimulus"":""run_exp/static/images/task_images/land.jpg"",""time"":670.0999999046326},{""stimulus"":""run_exp/static/images/task_images/dig.jpg"",""time"":1342.5}]",[],10,,,,,,,,,,,,,,
harvest,207,635904,0.0-61.0-4.0,"""event"",""trial"",""time""
""fullscreenenter"",""1"",""3477""
","
","
","""event"",""trial"",""time""
""fullscreenenter"",""1"",""3477""
","
",,null,run_exp/static/images/task_images/gems/90.jpg,null,,,,,,,19,,,10,,,,,90,0.206627952,0.211111111,,,,,,,
decision,208,636411,0.0-61.0-5.0,"""event"",""trial"",""time""
""fullscreenenter"",""1"",""3477""
","
","
","""event"",""trial"",""time""
""fullscreenenter"",""1"",""3477""
","
",,505,run_exp/static/images/task_images/land.jpg,65,,,,,,,19,,,10,,,,,,,,292314,1,0,FALSE,,,
dig,209,638913,0.0-62.0-0.0,"""event"",""trial"",""time""
""fullscreenenter"",""1"",""3477""
","
","
","""event"",""trial"",""time""
""fullscreenenter"",""1"",""3477""
","
",,,,,,,,,,,,"[{""stimulus"":""run_exp/static/images/task_images/dig.jpg"",""time"":0.10000014305114746},{""stimulus"":""run_exp/static/images/task_images/land.jpg"",""time"":834.7000000476837},{""stimulus"":""run_exp/static/images/task_images/dig.jpg"",""time"":1667.9000000953674}]",[],10,,,,,,,,,,,,,,
harvest,210,639921,0.0-62.0-1.0,"""event"",""trial"",""time""
""fullscreenenter"",""1"",""3477""
","
","
","""event"",""trial"",""time""
""fullscreenenter"",""1"",""3477""
","
",,null,run_exp/static/images/task_images/gems/19.jpg,null,,,,,,,3,,,10,,,,,19,0.182116613,0.157894737,,,,,,,
decision,211,640326,0.0-62.0-2.0,"""event"",""trial"",""time""
""fullscreenenter"",""1"",""3477""
","
","
","""event"",""trial"",""time""
""fullscreenenter"",""1"",""3477""
","
",,403.8999999,run_exp/static/images/task_images/land.jpg,76,,,,,,,3,,,10,,,,,,,,296229,1,1,TRUE,,,
travel,212,649929,0.0-63.0-0.0,"""event"",""trial"",""time""
""fullscreenenter"",""1"",""3477""
","
","
","""event"",""trial"",""time""
""fullscreenenter"",""1"",""3477""
","
",,,,,,,,,,,,"[{""stimulus"":""run_exp/static/images/task_images/rocket-01.jpg"",""time"":0.20000004768371582},{""stimulus"":""run_exp/static/images/task_images/rocket-02.jpg"",""time"":1071.7999999523163},{""stimulus"":""run_exp/static/images/task_images/rocket-03.jpg"",""time"":2134.399999856949},{""stimulus"":""run_exp/static/images/task_images/rocket-04.jpg"",""time"":3206.2000000476837},{""stimulus"":""run_exp/static/images/task_images/rocket-05.jpg"",""time"":4271.099999904633},{""stimulus"":""run_exp/static/images/task_images/rocket-06.jpg"",""time"":5334.399999856949},{""stimulus"":""run_exp/static/images/task_images/rocket-07.jpg"",""time"":6399.5},{""stimulus"":""run_exp/static/images/task_images/rocket-08.jpg"",""time"":7470.700000047684},{""stimulus"":""run_exp/static/images/task_images/rocket-09.jpg"",""time"":8535.899999856949}]",[],10,,,,,,,,,,,,,,
alien_welcome,213,654938,0.0-63.0-1.0,"""event"",""trial"",""time""
""fullscreenenter"",""1"",""3477""
","
","
","""event"",""trial"",""time""
""fullscreenenter"",""1"",""3477""
","
",,null,run_exp/static/images/task_images/aliens/old_aliens/planet/alien_planet-15.jpg,null,,,,,,,,,,,,,15,"59,43,5,34,66,9,18,70,62,25,15,41,42,8,49,11,46,20,27,63,2,60,13,48,45,37,40,16,58,6,77,71,10,68,61,35,51,50,19,44,67,12,75,17,52,29",,,,,,,,,,
land,214,655442,0.0-63.0-2.0,"""event"",""trial"",""time""
""fullscreenenter"",""1"",""3477""
","
","
","""event"",""trial"",""time""
""fullscreenenter"",""1"",""3477""
","
",,null,run_exp/static/images/task_images/land.jpg,null,,,,,,,94,,,11,,,,,,,,,,,,,,
dig,215,657449,0.0-63.0-3.0,"""event"",""trial"",""time""
""fullscreenenter"",""1"",""3477""
","
","
","""event"",""trial"",""time""
""fullscreenenter"",""1"",""3477""
","
",,,,,,,,,,,,"[{""stimulus"":""run_exp/static/images/task_images/dig.jpg"",""time"":0.2999999523162842},{""stimulus"":""run_exp/static/images/task_images/land.jpg"",""time"":678.2000000476837},{""stimulus"":""run_exp/static/images/task_images/dig.jpg"",""time"":1341.4000000953674}]",[],11,,,,,,,,,,,,,,
harvest,216,658458,0.0-63.0-4.0,"""event"",""trial"",""time""
""fullscreenenter"",""1"",""3477""
","
","
","""event"",""trial"",""time""
""fullscreenenter"",""1"",""3477""
","
",,null,run_exp/static/images/task_images/gems/94.jpg,null,,,,,,,12,,,11,,,,,94,0.131004652,0.127659574,,,,,,,
decision,217,658767,0.0-63.0-5.0,"""event"",""trial"",""time""
""fullscreenenter"",""1"",""3477""
","
","
","""event"",""trial"",""time""
""fullscreenenter"",""1"",""3477""
","
",,307.2,run_exp/static/images/task_images/land.jpg,65,,,,,,,12,,,11,,,,,,,,314670,1,0,TRUE,,,
end_of_block_continue,218,667798,0.0-64.0-0.0,"""event"",""trial"",""time""
""fullscreenenter"",""1"",""3477""
","
","
","""event"",""trial"",""time""
""fullscreenenter"",""1"",""3477""
","
",,null,run_exp/static/audio/clip_32_block_end.m4a,,,,,,,null,,,,,,,,,,,,,,,,,,
alien_welcome,219,672809,0.0-65.0-0.0,"""event"",""trial"",""time""
""fullscreenenter"",""1"",""3477""
","
","
","""event"",""trial"",""time""
""fullscreenenter"",""1"",""3477""
","
",,null,run_exp/static/images/task_images/aliens/old_aliens/planet/alien_planet-41.jpg,null,,,,,,,,,,,,,41,"59,43,5,34,66,9,18,70,62,25,15,41,42,8,49,11,46,20,27,63,2,60,13,48,45,37,40,16,58,6,77,71,10,68,61,35,51,50,19,44,67,12,75,17,52,29",,,,,,,,,,
land,220,673314,0.0-65.0-1.0,"""event"",""trial"",""time""
""fullscreenenter"",""1"",""3477""
","
","
","""event"",""trial"",""time""
""fullscreenenter"",""1"",""3477""
","
",,null,run_exp/static/images/task_images/land.jpg,null,,,,,,,103,,,12,,,,,,,,,,,,,,
dig,221,675322,0.0-65.0-2.0,"""event"",""trial"",""time""
""fullscreenenter"",""1"",""3477""
","
","
","""event"",""trial"",""time""
""fullscreenenter"",""1"",""3477""
","
",,,,,,,,,,,,"[{""stimulus"":""run_exp/static/images/task_images/dig.jpg"",""time"":0.2999999523162842},{""stimulus"":""run_exp/static/images/task_images/land.jpg"",""time"":670.7999999523163},{""stimulus"":""run_exp/static/images/task_images/dig.jpg"",""time"":1341.7999999523163}]",[],12,,,,,,,,,,,,,,
harvest,222,676330,0.0-65.0-3.0,"""event"",""trial"",""time""
""fullscreenenter"",""1"",""3477""
","
","
","""event"",""trial"",""time""
""fullscreenenter"",""1"",""3477""
","
",,null,run_exp/static/images/task_images/gems/103.jpg,null,,,,,,,15,,,12,,,,,103,0.146832317,0.145631068,,,,,,,
decision,223,676604,0.0-65.0-4.0,"""event"",""trial"",""time""
""fullscreenenter"",""1"",""3477""
","
","
","""event"",""trial"",""time""
""fullscreenenter"",""1"",""3477""
","
",,273.2,run_exp/static/images/task_images/land.jpg,65,,,,,,,15,,,12,,,,,,,,8802,2,0,FALSE,,,
dig,224,679338,0.0-66.0-0.0,"""event"",""trial"",""time""
""fullscreenenter"",""1"",""3477""
","
","
","""event"",""trial"",""time""
""fullscreenenter"",""1"",""3477""
","
",,,,,,,,,,,,"[{""stimulus"":""run_exp/static/images/task_images/dig.jpg"",""time"":0.7000000476837158},{""stimulus"":""run_exp/static/images/task_images/land.jpg"",""time"":914.2999999523163},{""stimulus"":""run_exp/static/images/task_images/dig.jpg"",""time"":1826.0999999046326}]",[],12,,,,,,,,,,,,,,
harvest,225,680345,0.0-66.0-1.0,"""event"",""trial"",""time""
""fullscreenenter"",""1"",""3477""
","
","
","""event"",""trial"",""time""
""fullscreenenter"",""1"",""3477""
","
",,null,run_exp/static/images/task_images/gems/15.jpg,null,,,,,,,3,,,12,,,,,15,0.191664403,0.2,,,,,,,
decision,226,680923,0.0-66.0-2.0,"""event"",""trial"",""time""
""fullscreenenter"",""1"",""3477""
","
","
","""event"",""trial"",""time""
""fullscreenenter"",""1"",""3477""
","
",,576,run_exp/static/images/task_images/land.jpg,76,,,,,,,3,,,12,,,,,,,,13121,2,1,TRUE,,,
travel,227,690354,0.0-67.0-0.0,"""event"",""trial"",""time""
""fullscreenenter"",""1"",""3477""
","
","
","""event"",""trial"",""time""
""fullscreenenter"",""1"",""3477""
","
",,,,,,,,,,,,"[{""stimulus"":""run_exp/static/images/task_images/rocket-01.jpg"",""time"":0.09999990463256836},{""stimulus"":""run_exp/static/images/task_images/rocket-02.jpg"",""time"":1051.7999999523163},{""stimulus"":""run_exp/static/images/task_images/rocket-03.jpg"",""time"":2099.399999856949},{""stimulus"":""run_exp/static/images/task_images/rocket-04.jpg"",""time"":3146.199999809265},{""stimulus"":""run_exp/static/images/task_images/rocket-05.jpg"",""time"":4194.5},{""stimulus"":""run_exp/static/images/task_images/rocket-06.jpg"",""time"":5242.199999809265},{""stimulus"":""run_exp/static/images/task_images/rocket-07.jpg"",""time"":6290.899999856949},{""stimulus"":""run_exp/static/images/task_images/rocket-08.jpg"",""time"":7331.799999952316},{""stimulus"":""run_exp/static/images/task_images/rocket-09.jpg"",""time"":8380.299999952316}]",[],12,,,,,,,,,,,,,,
alien_welcome,228,695362,0.0-67.0-1.0,"""event"",""trial"",""time""
""fullscreenenter"",""1"",""3477""
","
","
","""event"",""trial"",""time""
""fullscreenenter"",""1"",""3477""
","
",,null,run_exp/static/images/task_images/aliens/old_aliens/planet/alien_planet-42.jpg,null,,,,,,,,,,,,,42,"59,43,5,34,66,9,18,70,62,25,15,41,42,8,49,11,46,20,27,63,2,60,13,48,45,37,40,16,58,6,77,71,10,68,61,35,51,50,19,44,67,12,75,17,52,29",,,,,,,,,,
land,229,695867,0.0-67.0-2.0,"""event"",""trial"",""time""
""fullscreenenter"",""1"",""3477""
","
","
","""event"",""trial"",""time""
""fullscreenenter"",""1"",""3477""
","
",,null,run_exp/static/images/task_images/land.jpg,null,,,,,,,102,,,13,,,,,,,,,,,,,,
dig,230,697875,0.0-67.0-3.0,"""event"",""trial"",""time""
""fullscreenenter"",""1"",""3477""
","
","
","""event"",""trial"",""time""
""fullscreenenter"",""1"",""3477""
","
",,,,,,,,,,,,"[{""stimulus"":""run_exp/static/images/task_images/dig.jpg"",""time"":0.39999985694885254},{""stimulus"":""run_exp/static/images/task_images/land.jpg"",""time"":669.7000000476837},{""stimulus"":""run_exp/static/images/task_images/dig.jpg"",""time"":1343.2999999523163}]",[],13,,,,,,,,,,,,,,
harvest,231,698883,0.0-67.0-4.0,"""event"",""trial"",""time""
""fullscreenenter"",""1"",""3477""
","
","
","""event"",""trial"",""time""
""fullscreenenter"",""1"",""3477""
","
",,null,run_exp/static/images/task_images/gems/102.jpg,null,,,,,,,21,,,13,,,,,102,0.209191334,0.205882353,,,,,,,
decision,232,699002,0.0-67.0-5.0,"""event"",""trial"",""time""
""fullscreenenter"",""1"",""3477""
","
","
","""event"",""trial"",""time""
""fullscreenenter"",""1"",""3477""
","
",,117.5,run_exp/static/images/task_images/land.jpg,65,,,,,,,21,,,13,,,,,,,,31200,2,0,FALSE,,,
dig,233,701891,0.0-68.0-0.0,"""event"",""trial"",""time""
""fullscreenenter"",""1"",""3477""
","
","
","""event"",""trial"",""time""
""fullscreenenter"",""1"",""3477""
","
",,,,,,,,,,,,"[{""stimulus"":""run_exp/static/images/task_images/dig.jpg"",""time"":0.3000001907348633},{""stimulus"":""run_exp/static/images/task_images/land.jpg"",""time"":963.6000001430511},{""stimulus"":""run_exp/static/images/task_images/dig.jpg"",""time"":1923.6000001430511}]",[],13,,,,,,,,,,,,,,
harvest,234,702899,0.0-68.0-1.0,"""event"",""trial"",""time""
""fullscreenenter"",""1"",""3477""
","
","
","""event"",""trial"",""time""
""fullscreenenter"",""1"",""3477""
","
",,null,run_exp/static/images/task_images/gems/21.jpg,null,,,,,,,6,,,13,,,,,21,0.303004677,0.285714286,,,,,,,
decision,235,703116,0.0-68.0-2.0,"""event"",""trial"",""time""
""fullscreenenter"",""1"",""3477""
","
","
","""event"",""trial"",""time""
""fullscreenenter"",""1"",""3477""
","
",,215.6000001,run_exp/static/images/task_images/land.jpg,76,,,,,,,6,,,13,,,,,,,,35314,2,1,TRUE,,,
travel,236,712908,0.0-69.0-0.0,"""event"",""trial"",""time""
""fullscreenenter"",""1"",""3477""
","
","
","""event"",""trial"",""time""
""fullscreenenter"",""1"",""3477""
","
",,,,,,,,,,,,"[{""stimulus"":""run_exp/static/images/task_images/rocket-01.jpg"",""time"":0.19999980926513672},{""stimulus"":""run_exp/static/images/task_images/rocket-02.jpg"",""time"":1089.8999998569489},{""stimulus"":""run_exp/static/images/task_images/rocket-03.jpg"",""time"":2177.699999809265},{""stimulus"":""run_exp/static/images/task_images/rocket-04.jpg"",""time"":3267.199999809265},{""stimulus"":""run_exp/static/images/task_images/rocket-05.jpg"",""time"":4355.199999809265},{""stimulus"":""run_exp/static/images/task_images/rocket-06.jpg"",""time"":5442.199999809265},{""stimulus"":""run_exp/static/images/task_images/rocket-07.jpg"",""time"":6530.299999952316},{""stimulus"":""run_exp/static/images/task_images/rocket-08.jpg"",""time"":7618.299999952316},{""stimulus"":""run_exp/static/images/task_images/rocket-09.jpg"",""time"":8698}]",[],13,,,,,,,,,,,,,,
alien_welcome,237,717915,0.0-69.0-1.0,"""event"",""trial"",""time""
""fullscreenenter"",""1"",""3477""
","
","
","""event"",""trial"",""time""
""fullscreenenter"",""1"",""3477""
","
",,null,run_exp/static/images/task_images/aliens/old_aliens/planet/alien_planet-8.jpg,null,,,,,,,,,,,,,8,"59,43,5,34,66,9,18,70,62,25,15,41,42,8,49,11,46,20,27,63,2,60,13,48,45,37,40,16,58,6,77,71,10,68,61,35,51,50,19,44,67,12,75,17,52,29",,,,,,,,,,
land,238,718419,0.0-69.0-2.0,"""event"",""trial"",""time""
""fullscreenenter"",""1"",""3477""
","
","
","""event"",""trial"",""time""
""fullscreenenter"",""1"",""3477""
","
",,null,run_exp/static/images/task_images/land.jpg,null,,,,,,,97,,,14,,,,,,,,,,,,,,
dig,239,720427,0.0-69.0-3.0,"""event"",""trial"",""time""
""fullscreenenter"",""1"",""3477""
","
","
","""event"",""trial"",""time""
""fullscreenenter"",""1"",""3477""
","
