trial_type,trial_index,time_elapsed,internal_node_id,success,rt,stimulus,key_press,prompt,subject_id,age,gender,button_pressed,next_reward,animation_sequence,responses,planet,curr_prac_trial,n_prac_rounds,alien,aliens,reward_received,decay_rate_actual,decay_rate_exp,time_in_block,block_num,prt,last_trial_on_planet,button_html,bonus,num_failures
pavlovia,0,28,0.0-0.0,,,,,,,,,,,,,,,,,,,,,,,,,,,
fullscreen,1,4247,0.0-1.0,TRUE,,,,,,,,,,,,,,,,,,,,,,,,,,
instruc_welcome,2,14129,0.0-2.0,,null,run_exp/static/audio/clip_1_welcome.m4a,null,"<p>Howdy! In this experiment, you’ll be an explorer traveling through space to collect space treasure.</p><p>Your mission is to collect as much treasure as possible.</p><br><br><p><img src='run_exp/static/images/task_images/opening_img-01.jpg' height='300' width='auto'></p>",IOEHCmmbSrn2yXF_a5Ke5UddwllDBGZ_MLRP_77n4dCGKYgLe2Ls,9.33,male,,,,,,,,,,,,,,,,,,,
audio-keyboard-response,3,31162,0.0-3.0,,null,run_exp/static/audio/clip_2_move.m4a,null,,,,,,,,,,,,,,,,,,,,,,,
welcome_dec,4,33133,0.0-4.0,,1966.39,"<p>Howdy! In this experiment, you’ll be an explorer traveling through space to collect space treasure.</p><p>Your mission is to collect as much treasure as possible.</p><br><br><p><img src='run_exp/static/images/task_images/opening_img-01.jpg' height='300' width='auto'></p>",,,,,,1,,,,,,,,,,,,,,,,,,
html-keyboard-response,5,34524,0.0-5.0,,1388.97,"<p>Howdy! In this experiment, you’ll be an explorer traveling through space to collect space treasure.</p><p>Your mission is to collect as much treasure as possible.</p><br><br><p><img src='run_exp/static/images/task_images/opening_img-01.jpg' height='300' width='auto'></p><button class=""jspsych-html-btn-unchosen""><img src=""run_exp/static/images/task_images/planet-01.jpg"" height=""50""></button><button class=""jspsych-html-btn-chosen""><img src=""run_exp/static/images/task_images/planet-02.jpg"" height=""50""></button><p><b>[press the space bar to lock in your answer]<b><br></p>",32,,,,,,,,,,,,,,,,,,,,,,,
instruc_goal,6,44993,0.0-6.0-0.0,,null,run_exp/static/audio/clip_3_goal.m4a,null,"<p> As a space explorer, you’ll visit different planets to dig for space treasure, these pink gems.</p> <p> The more treasure you dig up, the more bonus money you’ll win! </p><br><br><p><img src='run_exp/static/images/task_images/pink_gem.jpg' height='300' width='auto'></p>",,,,,,,,,,,,,,,,,,,,,,
instruc_goal,7,46686,0.0-6.0-1.0,,1690.775,"<p> As a space explorer, you’ll visit different planets to dig for space treasure, these pink gems.</p> <p> The more treasure you dig up, the more bonus money you’ll win! </p><br><br><p><img src='run_exp/static/images/task_images/pink_gem.jpg' height='300' width='auto'></p>",,,,,,1,,,,,,,,,,,,,,,,,,
html-keyboard-response,8,49185,0.0-6.0-2.0,,2496.45,"<p> As a space explorer, you’ll visit different planets to dig for space treasure, these pink gems.</p> <p> The more treasure you dig up, the more bonus money you’ll win! </p><br><br><p><img src='run_exp/static/images/task_images/pink_gem.jpg' height='300' width='auto'></p><button class=""jspsych-html-btn-unchosen""><img src=""run_exp/static/images/task_images/planet-01.jpg"" height=""50""></button><button class=""jspsych-html-btn-chosen""><img src=""run_exp/static/images/task_images/planet-02.jpg"" height=""50""></button><p><b>[press the space bar to lock in your answer]<b><br></p>",32,,,,,,,,,,,,,,,,,,,,,,,
instruc_dig,9,65482,0.0-7.0-0.0,,null,run_exp/static/audio/clip_4_dig.m4a,null,,,,,,100,,,,,,,,,,,,,,,,,
instruc_dig_try,10,66049,0.0-7.0-1.0,,565.39,"<p> When you’ve arrived at a new planet, you will dig once. </p> <p>Then, you get to decide if you want to stay on the planet and dig again or travel to a new planet and dig there.</p> <p> To stay and dig, press the letter <strong>‘A’</strong> on your keyboard. Try pressing it now! </p><p><img src='run_exp/static/images/task_images/land.jpg'  height='700' width='auto'></p>",65,"<p> When you’ve arrived at a new planet, you will dig once. </p> <p>Then, you get to decide if you want to stay on the planet and dig again or travel to a new planet and dig there.</p> <p> To stay and dig, press the letter <strong>‘A’</strong> on your keyboard. Try pressing it now! </p><p><img src='run_exp/static/images/task_images/land.jpg'  height='700' width='auto'></p>",,,,,100,,,,,,,,,,,,,,,,,
dig_prac,11,68068,0.0-7.0-2.0,,,,,,,,,,,"[{""stimulus"":""run_exp/static/images/task_images/dig.jpg"",""time"":0.5},{""stimulus"":""run_exp/static/images/task_images/land.jpg"",""time"":669.2050000000454},{""stimulus"":""run_exp/static/images/task_images/dig.jpg"",""time"":1336.0800000000454}]",[],,,,,,,,,,,,,,,
instruc_travel,12,104669,0.0-7.0-3.0,,null,run_exp/static/audio/clip_5_travel.m4a,null,"<p>Every time you dig up gems, there are less gems on the planet, so the more you dig on a planet the fewer gems you’ll get with each dig.</p><p>When gems are running low, you may want to travel to a new planet. </p> <p>  Planets are very far apart in this galaxy, so it will take some time to travel between them. </p> <br><p>There are lots and lots of planets for you to visit, so you won’t be able to return to any planets you’ve seen before. </p><br><p>To leave this planet and travel to a new one, press the letter <strong>‘L’</strong> on your keyboard. Try pressing it now! </p><p><img src='run_exp/static/images/task_images/rocket-01.jpg'  height='600' width='auto'></p>",,,,,,,,,,,,,,,,,,,,,,
instruc_travel_try,13,107290,0.0-7.0-4.0,,2618.67,"<p>Every time you dig up gems, there are less gems on the planet, so the more you dig on a planet the fewer gems you’ll get with each dig.</p><p>When gems are running low, you may want to travel to a new planet. </p> <p>  Planets are very far apart in this galaxy, so it will take some time to travel between them. </p> <br><p>There are lots and lots of planets for you to visit, so you won’t be able to return to any planets you’ve seen before. </p><br><p>To leave this planet and travel to a new one, press the letter <strong>‘L’</strong> on your keyboard. Try pressing it now! </p><p><img src='run_exp/static/images/task_images/rocket-01.jpg'  height='600' width='auto'></p>",76,"<p>Every time you dig up gems, there are less gems on the planet, so the more you dig on a planet the fewer gems you’ll get with each dig.</p><p>When gems are running low, you may want to travel to a new planet. </p> <p>  Planets are very far apart in this galaxy, so it will take some time to travel between them. </p> <br><p>There are lots and lots of planets for you to visit, so you won’t be able to return to any planets you’ve seen before. </p><br><p>To leave this planet and travel to a new one, press the letter <strong>‘L’</strong> on your keyboard. Try pressing it now! </p><p><img src='run_exp/static/images/task_images/rocket-01.jpg'  height='600' width='auto'></p>",,,,,,,,,,,,,,,,,,,,,,
travel_prac,14,117292,0.0-7.0-5.0,,,,,,,,,,,"[{""stimulus"":""run_exp/static/images/task_images/rocket-01.jpg"",""time"":0.3600000000005821},{""stimulus"":""run_exp/static/images/task_images/rocket-02.jpg"",""time"":1112.7050000000163},{""stimulus"":""run_exp/static/images/task_images/rocket-03.jpg"",""time"":2223.790000000008},{""stimulus"":""run_exp/static/images/task_images/rocket-04.jpg"",""time"":3334.6700000000856},{""stimulus"":""run_exp/static/images/task_images/rocket-05.jpg"",""time"":4446.020000000091},{""stimulus"":""run_exp/static/images/task_images/rocket-06.jpg"",""time"":5556.855000000054},{""stimulus"":""run_exp/static/images/task_images/rocket-07.jpg"",""time"":6667.910000000018},{""stimulus"":""run_exp/static/images/task_images/rocket-08.jpg"",""time"":7779.180000000124},{""stimulus"":""run_exp/static/images/task_images/rocket-09.jpg"",""time"":8889.890000000029}]",[],0,,,,,,,,,,,,,,
instruc_alien_greet,15,144801,0.0-7.0-6.0,,null,run_exp/static/audio/clip_6_alien.m4a,null,"<p>When you arrive at a new planet, the alien who owns the treasure mine on that planet will greet you!</p><p>The better an alien takes care of their mine the easier it is to dig for gems. Some aliens take better care of their mine than others. So, you won’t get exactly the same amount of gems on each planet.</p><p>What the alien looks like does not tell you anything about how many gems there are on the planet.</p><br><p><img src=""run_exp/static/images/task_images/aliens/instructions_aliens/planet/alien_planet-1.jpg""  height=""600"" width=""auto""></p>",,,,,,,,,,,,,,,,,,,,,,
instruc_alien_greet,16,147184,0.0-7.0-7.0,,2381.135,"<p>When you arrive at a new planet, the alien who owns the treasure mine on that planet will greet you!</p><p>The better an alien takes care of their mine the easier it is to dig for gems. Some aliens take better care of their mine than others. So, you won’t get exactly the same amount of gems on each planet.</p><p>What the alien looks like does not tell you anything about how many gems there are on the planet.</p><br><p><img src=""run_exp/static/images/task_images/aliens/instructions_aliens/planet/alien_planet-1.jpg""  height=""600"" width=""auto""></p>",,,,,,1,,,,,,,,,,,,,,,,,,
html-keyboard-response,17,149067,0.0-7.0-8.0,,1881.14,"<p>When you arrive at a new planet, the alien who owns the treasure mine on that planet will greet you!</p><p>The better an alien takes care of their mine the easier it is to dig for gems. Some aliens take better care of their mine than others. So, you won’t get exactly the same amount of gems on each planet.</p><p>What the alien looks like does not tell you anything about how many gems there are on the planet.</p><br><p><img src=""run_exp/static/images/task_images/aliens/instructions_aliens/planet/alien_planet-1.jpg""  height=""600"" width=""auto""></p><button class=""jspsych-html-btn-unchosen""><img src=""run_exp/static/images/task_images/planet-01.jpg"" height=""50""></button><button class=""jspsych-html-btn-chosen""><img src=""run_exp/static/images/task_images/planet-02.jpg"" height=""50""></button><p><b>[press the space bar to lock in your answer]<b><br></p>",32,,,,,,,,,,,,,,,,,,,,,,,
time_out,18,160553,0.0-8.0-0.0,,null,run_exp/static/audio/clip_7_timeout.m4a,null,"<p>If you don't make your choice fast enough, you’ll have to wait a few seconds before you can make another one.</p><p>You can’t dig for more gems or travel to new planets. You just have to sit and wait.</p><br><p><img src='run_exp/static/images/task_images/time_out.jpg'  height='600' width='auto'></p>",,,,,,,,,,,,,,,,,,,,,,
time_out,19,162858,0.0-8.0-1.0,,2302.56,"<p>If you don't make your choice fast enough, you’ll have to wait a few seconds before you can make another one.</p><p>You can’t dig for more gems or travel to new planets. You just have to sit and wait.</p><br><p><img src='run_exp/static/images/task_images/time_out.jpg'  height='600' width='auto'></p>",,,,,,1,,,,,,,,,,,,,,,,,,
html-keyboard-response,20,163023,0.0-8.0-2.0,,163.185,"<p>If you don't make your choice fast enough, you’ll have to wait a few seconds before you can make another one.</p><p>You can’t dig for more gems or travel to new planets. You just have to sit and wait.</p><br><p><img src='run_exp/static/images/task_images/time_out.jpg'  height='600' width='auto'></p><button class=""jspsych-html-btn-unchosen""><img src=""run_exp/static/images/task_images/planet-01.jpg"" height=""50""></button><button class=""jspsych-html-btn-chosen""><img src=""run_exp/static/images/task_images/planet-02.jpg"" height=""50""></button><p><b>[press the space bar to lock in your answer]<b><br></p>",32,,,,,,,,,,,,,,,,,,,,,,,
instruc_break,21,178995,0.0-9.0-0.0,,null,run_exp/static/audio/clip_8_break.m4a,null,"<p> After digging and traveling for a while, you’ll be able to take a break at home base. </p><p>The game will last 20 minutes no matter what.</p><p>You will visit home base every 5 minutes, so, you will visit home base three times during the game.</p><br><p><img src='run_exp/static/images/task_images/home_base.jpg' height='600' width='auto'></p>",,,,,,,,,,,,,,,,,,,,,,
instruc_break,22,181544,0.0-9.0-1.0,,2545.115,"<p> After digging and traveling for a while, you’ll be able to take a break at home base. </p><p>The game will last 20 minutes no matter what.</p><p>You will visit home base every 5 minutes, so, you will visit home base three times during the game.</p><br><p><img src='run_exp/static/images/task_images/home_base.jpg' height='600' width='auto'></p>",,,,,,1,,,,,,,,,,,,,,,,,,
html-keyboard-response,23,182455,0.0-9.0-2.0,,908.835,"<p> After digging and traveling for a while, you’ll be able to take a break at home base. </p><p>The game will last 20 minutes no matter what.</p><p>You will visit home base every 5 minutes, so, you will visit home base three times during the game.</p><br><p><img src='run_exp/static/images/task_images/home_base.jpg' height='600' width='auto'></p><button class=""jspsych-html-btn-unchosen""><img src=""run_exp/static/images/task_images/planet-01.jpg"" height=""50""></button><button class=""jspsych-html-btn-chosen""><img src=""run_exp/static/images/task_images/planet-02.jpg"" height=""50""></button><p><b>[press the space bar to lock in your answer]<b><br></p>",32,,,,,,,,,,,,,,,,,,,,,,,
instruc_prac_game,24,192953,0.0-10.0-0.0,,null,run_exp/static/audio/clip_9_practice.m4a,null,"<p> Are you ready to play a practice game? </p> <p>In this practice game, you'll be digging up barrels of gems. But, in the real game, you'll be digging up the gems themselves. </p>",,,,,,,,,,,,,,,,,,,,,,
html-button-response,25,194896,0.0-10.0-1.0,,1940.79,"<p> Are you ready to play a practice game? </p> <p>In this practice game, you'll be digging up barrels of gems. But, in the real game, you'll be digging up the gems themselves. </p>",,,,,,0,,,,,,,,,,,,,,,,,,
alien_welcome_prac,26,199933,0.0-11.0-0.0,,null,run_exp/static/images/task_images/aliens/practice_aliens/planet/alien_planet-5.jpg,null,,,,,,,,,,,,,,,,,,,,,,,
land_prac,27,200435,0.0-11.0-1.0,,null,run_exp/static/images/task_images/land.jpg,null,,,,,,103,,,0,,,,,,,,,,,,,,
dig_prac,28,202440,0.0-11.0-2.0,,,,,,,,,,,"[{""stimulus"":""run_exp/static/images/task_images/dig.jpg"",""time"":0.37999999994644895},{""stimulus"":""run_exp/static/images/task_images/land.jpg"",""time"":668.8249999999825},{""stimulus"":""run_exp/static/images/task_images/dig.jpg"",""time"":1335.729999999894}]",[],,,,,,,,,,,,,,,
harvest_prac,29,203442,0.0-11.0-3.0,,null,run_exp/static/images/task_images/barrel_text.jpg,null,,,,,,,,,,,,,,,,,,,,,,,
decision_prac,30,205292,0.0-11.0-4.0,,1848.72,run_exp/static/images/task_images/land.jpg,65,,,,,,,,,,1,,,,,,,,,,,,,
dig_prac,31,207299,0.0-12.0-0.0,,,,,,,,,,,"[{""stimulus"":""run_exp/static/images/task_images/dig.jpg"",""time"":0.21500000002561137},{""stimulus"":""run_exp/static/images/task_images/land.jpg"",""time"":668.5450000000128},{""stimulus"":""run_exp/static/images/task_images/dig.jpg"",""time"":1335.4400000000605}]",[],,,,,,,,,,,,,,,
harvest_prac,32,208300,0.0-12.0-1.0,,null,run_exp/static/images/task_images/barrel_text.jpg,null,,,,,,,,,,,,,,,,,,,,,,,
decision_prac,33,211041,0.0-12.0-2.0,,2739.24,run_exp/static/images/task_images/land.jpg,65,,,,,,,,,,2,,,,,,,,,,,,,
dig_prac,34,213047,0.0-13.0-0.0,,,,,,,,,,,"[{""stimulus"":""run_exp/static/images/task_images/dig.jpg"",""time"":0.23999999996158294},{""stimulus"":""run_exp/static/images/task_images/land.jpg"",""time"":668.5999999999767},{""stimulus"":""run_exp/static/images/task_images/dig.jpg"",""time"":1335.6599999999744}]",[],,,,,,,,,,,,,,,
harvest_prac,35,214049,0.0-13.0-1.0,,null,run_exp/static/images/task_images/barrel_text.jpg,null,,,,,,,,,,,,,,,,,,,,,,,
decision_prac,36,216530,0.0-13.0-2.0,,2478.8,run_exp/static/images/task_images/land.jpg,65,,,,,,,,,,3,,,,,,,,,,,,,
dig_prac,37,218537,0.0-14.0-0.0,,,,,,,,,,,"[{""stimulus"":""run_exp/static/images/task_images/dig.jpg"",""time"":0.2899999999499414},{""stimulus"":""run_exp/static/images/task_images/land.jpg"",""time"":668.4199999999837},{""stimulus"":""run_exp/static/images/task_images/dig.jpg"",""time"":1335.399999999936}]",[],,,,,,,,,,,,,,,
harvest_prac,38,219539,0.0-14.0-1.0,,null,run_exp/static/images/task_images/barrel_text.jpg,null,,,,,,,,,,,,,,,,,,,,,,,
decision_prac,39,220876,0.0-14.0-2.0,,1335.705,run_exp/static/images/task_images/land.jpg,65,,,,,,,,,,4,,,,,,,,,,,,,
dig_prac,40,222881,0.0-15.0-0.0,,,,,,,,,,,"[{""stimulus"":""run_exp/static/images/task_images/dig.jpg"",""time"":0.279999999969732},{""stimulus"":""run_exp/static/images/task_images/land.jpg"",""time"":668.7149999998801},{""stimulus"":""run_exp/static/images/task_images/dig.jpg"",""time"":1335.6549999999697}]",[],,,,,,,,,,,,,,,
harvest_prac,41,223884,0.0-15.0-1.0,,null,run_exp/static/images/task_images/barrel_text.jpg,null,,,,,,,,,,,,,,,,,,,,,,,
decision_prac,42,225046,0.0-15.0-2.0,,1160.7,run_exp/static/images/task_images/land.jpg,65,,,,,,,,,,,1,,,,,,,,,,,,
quiz_instruc,43,237407,0.0-16.0-0.0,,12357.005,run_exp/static/audio/clip_10_quiz.m4a,,,,,,0,,,,,,,,,,,,,,,,,,
instruc_repeat,44,280458,0.0-16.0-1.0,,null,"<p> Are you ready to play a practice game? </p> <p>In this practice game, you'll be digging up barrels of gems. But, in the real game, you'll be digging up the gems themselves. </p>",null,"<p>In this game, your goal is to collect as many gems as you can. That’s how you will win bonus money. </p> <p>The entire game will last 20 minutes no matter how many gems you collect or how many planets you visit. </p><p>To stay on a planet and dig again, press the letter A on your keyboard. To leave for a new planet, press the letter L.</p><p>The more you dig on a planet, the fewer gems you’ll get with each dig which is why you might consider leaving for a new planet. </p><p>When you arrive at a new planet, you’ll be greeted by an alien. What the alien looks like does not tell you anything about how much treasure is on the planet. </p>",,,,,,,,,,,,,,,,,,,,,,
instruc_repeat_continue,45,282997,0.0-16.0-2.0,,2536.815,"<p> Are you ready to play a practice game? </p> <p>In this practice game, you'll be digging up barrels of gems. But, in the real game, you'll be digging up the gems themselves. </p>",,,,,,0,,,,,,,,,,,,,,,,,,
quiz_q_1_ask,46,297571,0.0-16.0-3.0,,14571.665,run_exp/static/audio/clip_11_q1_ask.m4a,,,,,,2,,,,,,,,,,,,,,,,,,
quiz_q_1_fb_correct,47,301717,0.0-17.0-0.0,,null,run_exp/static/audio/clip_12_q1_corrrect.m4a,null,<p>That’s correct. You win extra money by collecting more gems.</p>,,,,,,,,,,,,,,,,,,,,,,
quiz_q_2_ask,48,314565,0.0-17.0-1.0,,12846.03,run_exp/static/audio/clip_14_q2_ask.m4a,,,,,,1,,,,,,,,,,,,,,,,,,
quiz_q_2_fb_correct,49,318750,0.0-18.0-0.0,,null,run_exp/static/audio/clip_15_q2_correct.m4a,null,<p>That’s correct. The experiment is 20 minutes no matter what.</p>,,,,,,,,,,,,,,,,,,,,,,
quiz_q_3_ask,50,330710,0.0-18.0-1.0,,11957.77,run_exp/static/audio/clip_17_q3_ask.m4a,,,,,,1,,,,,,,,,,,,,,,,,,
quiz_q_3_fb_correct,51,335015,0.0-19.0-0.0,,null,run_exp/static/audio/clip_18_q3_correct.m4a,null,<p> That’s correct. You press the letter L to travel to a new planet.</p>,,,,,,,,,,,,,,,,,,,,,,
quiz_q_4_ask,52,344685,0.0-19.0-1.0,,9667.69,run_exp/static/audio/clip_20_q4_ask.m4a,,,,,,0,,,,,,,,,,,,,,,,,,
quiz_q_4_fb_correct,53,350382,0.0-20.0-0.0,,null,run_exp/static/audio/clip_21_q4_correct.m4a,null,<p> That’s correct. The more you dig on a planet the fewer gems you’ll get with each dig. </p>,,,,,,,,,,,,,,,,,,,,,,
quiz_q_5_ask,54,360473,0.0-20.0-1.0,,10088.66,run_exp/static/audio/clip_23_q5_ask.m4a,,,,,,1,,,,,,,,,,,,,,,,,,
quiz_q_5_fb_correct,55,365749,0.0-21.0-0.0,,null,run_exp/static/audio/clip_24_q5_correct.m4a,null,<p> That’s correct. The alien tells you nothing about how much treasure is on the planet.</p>,,,,,,,,,,,,,,,,,,,,,,
quiz_correct,56,369595,0.0-22.0-0.0,,null,run_exp/static/audio/clip_26_correct_quiz.m4a,null,,,,,,,,,,,,,,,,,,,,,,,
quiz_correct_continue,57,371304,0.0-22.0-1.0,,1707.005,<p>Good job! You're now ready to move on to the real game!</p>,,,,,,0,,,,,,,,,,,,,,,,,,
audio-keyboard-response,58,381757,0.0-22.0-2.0,,null,run_exp/static/audio/clip_28_real_game.m4a,null,,,,,,,,,,,,,,,,,,,,,,,
instruc_begin_exp_contine,59,383899,0.0-22.0-3.0,,2140.505,"<p>Now that you know how  to dig for space treasure and travel to new planets,you can start exploring! </p><p>Do you want to go over the instructions again or get started with the real game?</p>",,,,,,1,,,,,,1,,,,,,,,,,,,
alien_welcome,60,388907,0.0-23.0-0.0,,null,run_exp/static/images/task_images/aliens/old_aliens/planet/alien_planet-35.jpg,null,,,,,,,,,,,,35,"35,14,51,30,57,72,36,33,73,54,28,20,61,2,34,12,59,17,43,40,6,24,60,79,32,31,76,5,4,46,3",,,,,,,,,,
land,61,389409,0.0-23.0-1.0,,null,run_exp/static/images/task_images/land.jpg,null,,,,,,103,,,1,,,,,,,,,,,,,,
dig,62,391413,0.0-23.0-2.0,,,,,,,,,,,"[{""stimulus"":""run_exp/static/images/task_images/dig.jpg"",""time"":0.3900000000721775},{""stimulus"":""run_exp/static/images/task_images/land.jpg"",""time"":668.7350000001024},{""stimulus"":""run_exp/static/images/task_images/dig.jpg"",""time"":1335.8600000000442}]",[],1,,,,,,,,,,,,,,
harvest,63,392416,0.0-23.0-3.0,,null,run_exp/static/images/task_images/gems/103.jpg,null,,,,,,27,,,1,,,,,103,0.260928581,0.262135922,,,,,,,
decision,64,394686,0.0-23.0-4.0,,2268.31,run_exp/static/images/task_images/land.jpg,65,,,,,,27,,,1,,,,,,,,10782,1,0,FALSE,,,
dig,65,395421,0.0-24.0-0.0,,,,,,,,,,,"[{""stimulus"":""run_exp/static/images/task_images/dig.jpg"",""time"":0.21500000002561137},{""stimulus"":""run_exp/static/images/task_images/land.jpg"",""time"":244.6050000000978},{""stimulus"":""run_exp/static/images/task_images/dig.jpg"",""time"":487.9200000000419}]",[],1,,,,,,,,,,,,,,
harvest,66,396423,0.0-24.0-1.0,,null,run_exp/static/images/task_images/gems/27.jpg,null,,,,,,6,,,1,,,,,27,0.214969841,0.222222222,,,,,,,
decision,67,397044,0.0-24.0-2.0,,618.735,run_exp/static/images/task_images/land.jpg,65,,,,,,6,,,1,,,,,,,,13139,1,1,FALSE,,,
dig,68,399429,0.0-25.0-0.0,,,,,,,,,,,"[{""stimulus"":""run_exp/static/images/task_images/dig.jpg"",""time"":0.3649999999906868},{""stimulus"":""run_exp/static/images/task_images/land.jpg"",""time"":795.1949999999488},{""stimulus"":""run_exp/static/images/task_images/dig.jpg"",""time"":1587.789999999979}]",[],1,,,,,,,,,,,,,,
harvest,69,400432,0.0-25.0-1.0,,null,run_exp/static/images/task_images/gems/6.jpg,null,,,,,,1,,,1,,,,,6,0.170768216,0.166666667,,,,,,,
decision,70,401348,0.0-25.0-2.0,,913.77,run_exp/static/images/task_images/land.jpg,65,,,,,,1,,,1,,,,,,,,17443,1,2,FALSE,,,
dig,71,403438,0.0-26.0-0.0,,,,,,,,,,,"[{""stimulus"":""run_exp/static/images/task_images/dig.jpg"",""time"":0.22000000003026798},{""stimulus"":""run_exp/static/images/task_images/land.jpg"",""time"":696.6900000001187},{""stimulus"":""run_exp/static/images/task_images/dig.jpg"",""time"":1391.6500000000233}]",[],1,,,,,,,,,,,,,,
harvest,72,404440,0.0-26.0-1.0,,null,run_exp/static/images/task_images/gems/1.jpg,null,,,,,,0,,,1,,,,,1,0.124810682,0,,,,,,,
decision,73,405687,0.0-26.0-2.0,,1245.43,run_exp/static/images/task_images/land.jpg,76,,,,,,0,,,1,,,,,,,,21782,1,3,TRUE,,,
travel,74,414440,0.0-27.0-0.0,,,,,,,,,,,"[{""stimulus"":""run_exp/static/images/task_images/rocket-01.jpg"",""time"":0.3499999999185093},{""stimulus"":""run_exp/static/images/task_images/rocket-02.jpg"",""time"":974.2949999999837},{""stimulus"":""run_exp/static/images/task_images/rocket-03.jpg"",""time"":1946.0699999999488},{""stimulus"":""run_exp/static/images/task_images/rocket-04.jpg"",""time"":2918.109999999928},{""stimulus"":""run_exp/static/images/task_images/rocket-05.jpg"",""time"":3889.774999999965},{""stimulus"":""run_exp/static/images/task_images/rocket-06.jpg"",""time"":4862.0999999999185},{""stimulus"":""run_exp/static/images/task_images/rocket-07.jpg"",""time"":5833.664999999979},{""stimulus"":""run_exp/static/images/task_images/rocket-08.jpg"",""time"":6805.714999999967},{""stimulus"":""run_exp/static/images/task_images/rocket-09.jpg"",""time"":7777.999999999884}]",[],1,,,,,,,,,,,,,,
alien_welcome,75,419443,0.0-27.0-1.0,,null,run_exp/static/images/task_images/aliens/old_aliens/planet/alien_planet-14.jpg,null,,,,,,,,,,,,14,"35,14,51,30,57,72,36,33,73,54,28,20,61,2,34,12,59,17,43,40,6,24,60,79,32,31,76,5,4,46,3",,,,,,,,,,
land,76,419946,0.0-27.0-2.0,,null,run_exp/static/images/task_images/land.jpg,null,,,,,,99,,,2,,,,,,,,,,,,,,
dig,77,421950,0.0-27.0-3.0,,,,,,,,,,,"[{""stimulus"":""run_exp/static/images/task_images/dig.jpg"",""time"":0.40999999997438863},{""stimulus"":""run_exp/static/images/task_images/land.jpg"",""time"":669.0649999998859},{""stimulus"":""run_exp/static/images/task_images/dig.jpg"",""time"":1335.679999999993}]",[],2,,,,,,,,,,,,,,
harvest,78,422952,0.0-27.0-4.0,,null,run_exp/static/images/task_images/gems/99.jpg,null,,,,,,18,,,2,,,,,99,0.185196465,0.181818182,,,,,,,
decision,79,423553,0.0-27.0-5.0,,599.555,run_exp/static/images/task_images/land.jpg,65,,,,,,18,,,2,,,,,,,,39648,1,0,FALSE,,,
dig,80,425958,0.0-28.0-0.0,,,,,,,,,,,"[{""stimulus"":""run_exp/static/images/task_images/dig.jpg"",""time"":0.25000000005820766},{""stimulus"":""run_exp/static/images/task_images/land.jpg"",""time"":801.4699999999721},{""stimulus"":""run_exp/static/images/task_images/dig.jpg"",""time"":1601.4999999999418}]",[],2,,,,,,,,,,,,,,
harvest,81,426960,0.0-28.0-1.0,,null,run_exp/static/images/task_images/gems/18.jpg,null,,,,,,4,,,2,,,,,18,0.243912625,0.222222222,,,,,,,
decision,82,427533,0.0-28.0-2.0,,571.835,run_exp/static/images/task_images/land.jpg,65,,,,,,4,,,2,,,,,,,,43629,1,1,FALSE,,,
dig,83,429966,0.0-29.0-0.0,,,,,,,,,,,"[{""stimulus"":""run_exp/static/images/task_images/dig.jpg"",""time"":0.24499999993713573},{""stimulus"":""run_exp/static/images/task_images/land.jpg"",""time"":810.570000000007},{""stimulus"":""run_exp/static/images/task_images/dig.jpg"",""time"":1619.5699999999488}]",[],2,,,,,,,,,,,,,,
harvest,84,430968,0.0-29.0-1.0,,null,run_exp/static/images/task_images/gems/4.jpg,null,,,,,,1,,,2,,,,,4,0.210415457,0.25,,,,,,,
decision,85,431285,0.0-29.0-2.0,,315.065,run_exp/static/images/task_images/land.jpg,65,,,,,,1,,,2,,,,,,,,47380,1,2,FALSE,,,
dig,86,433972,0.0-30.0-0.0,,,,,,,,,,,"[{""stimulus"":""run_exp/static/images/task_images/dig.jpg"",""time"":0.2600000000093132},{""stimulus"":""run_exp/static/images/task_images/land.jpg"",""time"":895.6799999999348},{""stimulus"":""run_exp/static/images/task_images/dig.jpg"",""time"":1789.509999999951}]",[],2,,,,,,,,,,,,,,
harvest,87,434974,0.0-30.0-1.0,,null,run_exp/static/images/task_images/gems/1.jpg,null,,,,,,0,,,2,,,,,1,0.194563238,0,,,,,,,
decision,88,436541,0.0-30.0-2.0,,1564.455,run_exp/static/images/task_images/land.jpg,76,,,,,,0,,,2,,,,,,,,52636,1,3,TRUE,,,
travel,89,444979,0.0-31.0-0.0,,,,,,,,,,,"[{""stimulus"":""run_exp/static/images/task_images/rocket-01.jpg"",""time"":0.20499999989988282},{""stimulus"":""run_exp/static/images/task_images/rocket-02.jpg"",""time"":939.8599999999278},{""stimulus"":""run_exp/static/images/task_images/rocket-03.jpg"",""time"":1875.795000000042},{""stimulus"":""run_exp/static/images/task_images/rocket-04.jpg"",""time"":2812.774999999965},{""stimulus"":""run_exp/static/images/task_images/rocket-05.jpg"",""time"":3749.9649999999674},{""stimulus"":""run_exp/static/images/task_images/rocket-06.jpg"",""time"":4686.875},{""stimulus"":""run_exp/static/images/task_images/rocket-07.jpg"",""time"":5623.6699999999255},{""stimulus"":""run_exp/static/images/task_images/rocket-08.jpg"",""time"":6560.484999999986},{""stimulus"":""run_exp/static/images/task_images/rocket-09.jpg"",""time"":7497.849999999977}]",[],2,,,,,,,,,,,,,,
alien_welcome,90,449982,0.0-31.0-1.0,,null,run_exp/static/images/task_images/aliens/old_aliens/planet/alien_planet-51.jpg,null,,,,,,,,,,,,51,"35,14,51,30,57,72,36,33,73,54,28,20,61,2,34,12,59,17,43,40,6,24,60,79,32,31,76,5,4,46,3",,,,,,,,,,
land,91,450485,0.0-31.0-2.0,,null,run_exp/static/images/task_images/land.jpg,null,,,,,,102,,,3,,,,,,,,,,,,,,
dig,92,452489,0.0-31.0-3.0,,,,,,,,,,,"[{""stimulus"":""run_exp/static/images/task_images/dig.jpg"",""time"":0.3549999998649582},{""stimulus"":""run_exp/static/images/task_images/land.jpg"",""time"":669.039999999979},{""stimulus"":""run_exp/static/images/task_images/dig.jpg"",""time"":1335.7499999999418}]",[],3,,,,,,,,,,,,,,
harvest,93,453491,0.0-31.0-4.0,,null,run_exp/static/images/task_images/gems/102.jpg,null,,,,,,52,,,3,,,,,102,0.512581935,0.509803922,,,,,,,
decision,94,454207,0.0-31.0-5.0,,714.86,run_exp/static/images/task_images/land.jpg,65,,,,,,52,,,3,,,,,,,,70303,1,0,FALSE,,,
dig,95,456497,0.0-32.0-0.0,,,,,,,,,,,"[{""stimulus"":""run_exp/static/images/task_images/dig.jpg"",""time"":0.22999999998137355},{""stimulus"":""run_exp/static/images/task_images/land.jpg"",""time"":762.390000000014},{""stimulus"":""run_exp/static/images/task_images/dig.jpg"",""time"":1523.7300000000396}]",[],3,,,,,,,,,,,,,,
harvest,96,457499,0.0-32.0-1.0,,null,run_exp/static/images/task_images/gems/52.jpg,null,,,,,,26,,,3,,,,,52,0.503907147,0.5,,,,,,,
decision,97,457566,0.0-32.0-2.0,,65.54,run_exp/static/images/task_images/land.jpg,65,,,,,,26,,,3,,,,,,,,73661,1,1,FALSE,,,
dig,98,460505,0.0-33.0-0.0,,,,,,,,,,,"[{""stimulus"":""run_exp/static/images/task_images/dig.jpg"",""time"":0.21500000002561137},{""stimulus"":""run_exp/static/images/task_images/land.jpg"",""time"":979.7799999999697},{""stimulus"":""run_exp/static/images/task_images/dig.jpg"",""time"":1957.5899999999674}]",[],3,,,,,,,,,,,,,,
harvest,99,461507,0.0-33.0-1.0,,null,run_exp/static/images/task_images/gems/26.jpg,null,,,,,,14,,,3,,,,,26,0.533481194,0.538461538,,,,,,,
decision,100,461984,0.0-33.0-2.0,,475.355,run_exp/static/images/task_images/land.jpg,65,,,,,,14,,,3,,,,,,,,78079,1,2,FALSE,,,
dig,101,464513,0.0-34.0-0.0,,,,,,,,,,,"[{""stimulus"":""run_exp/static/images/task_images/dig.jpg"",""time"":0.2099999999627471},{""stimulus"":""run_exp/static/images/task_images/land.jpg"",""time"":842.7200000000303},{""stimulus"":""run_exp/static/images/task_images/dig.jpg"",""time"":1683.585000000021}]",[],3,,,,,,,,,,,,,,
harvest,102,465514,0.0-34.0-1.0,,null,run_exp/static/images/task_images/gems/14.jpg,null,,,,,,7,,,3,,,,,14,0.473453426,0.5,,,,,,,
decision,103,466013,0.0-34.0-2.0,,497.175,run_exp/static/images/task_images/land.jpg,65,,,,,,7,,,3,,,,,,,,82108,1,3,FALSE,,,
dig,104,468522,0.0-35.0-0.0,,,,,,,,,,,"[{""stimulus"":""run_exp/static/images/task_images/dig.jpg"",""time"":0.22999999998137355},{""stimulus"":""run_exp/static/images/task_images/land.jpg"",""time"":835.640000000014},{""stimulus"":""run_exp/static/images/task_images/dig.jpg"",""time"":1669.399999999965}]",[],3,,,,,,,,,,,,,,
harvest,105,469524,0.0-35.0-1.0,,null,run_exp/static/images/task_images/gems/7.jpg,null,,,,,,4,,,3,,,,,7,0.516116577,0.571428571,,,,,,,
decision,106,470787,0.0-35.0-2.0,,1261.065,run_exp/static/images/task_images/land.jpg,65,,,,,,4,,,3,,,,,,,,86882,1,4,FALSE,,,
dig,107,472529,0.0-36.0-0.0,,,,,,,,,,,"[{""stimulus"":""run_exp/static/images/task_images/dig.jpg"",""time"":0.25000000005820766},{""stimulus"":""run_exp/static/images/task_images/land.jpg"",""time"":580.6599999999744},{""stimulus"":""run_exp/static/images/task_images/dig.jpg"",""time"":1159.3800000000629}]",[],3,,,,,,,,,,,,,,
harvest,108,473531,0.0-36.0-1.0,,null,run_exp/static/images/task_images/gems/4.jpg,null,,,,,,2,,,3,,,,,4,0.514111363,0.5,,,,,,,
decision,109,473718,0.0-36.0-2.0,,186.03,run_exp/static/images/task_images/land.jpg,65,,,,,,2,,,3,,,,,,,,89814,1,5,FALSE,,,
dig,110,476535,0.0-37.0-0.0,,,,,,,,,,,"[{""stimulus"":""run_exp/static/images/task_images/dig.jpg"",""time"":0.21499999990919605},{""stimulus"":""run_exp/static/images/task_images/land.jpg"",""time"":938.4349999998813},{""stimulus"":""run_exp/static/images/task_images/dig.jpg"",""time"":1875.4299999999348}]",[],3,,,,,,,,,,,,,,
harvest,111,477536,0.0-37.0-1.0,,null,run_exp/static/images/task_images/gems/2.jpg,null,,,,,,1,,,3,,,,,2,0.53915309,0.5,,,,,,,
decision,112,479811,0.0-37.0-2.0,,2273.4,run_exp/static/images/task_images/land.jpg,76,,,,,,1,,,3,,,,,,,,95906,1,6,TRUE,,,
travel,113,487539,0.0-38.0-0.0,,,,,,,,,,,"[{""stimulus"":""run_exp/static/images/task_images/rocket-01.jpg"",""time"":0.2300000000395812},{""stimulus"":""run_exp/static/images/task_images/rocket-02.jpg"",""time"":859.6699999999837},{""stimulus"":""run_exp/static/images/task_images/rocket-03.jpg"",""time"":1717.3900000000722},{""stimulus"":""run_exp/static/images/task_images/rocket-04.jpg"",""time"":2575.695000000007},{""stimulus"":""run_exp/static/images/task_images/rocket-05.jpg"",""time"":3433.2849999999744},{""stimulus"":""run_exp/static/images/task_images/rocket-06.jpg"",""time"":4291.555000000051},{""stimulus"":""run_exp/static/images/task_images/rocket-07.jpg"",""time"":5149.484999999928},{""stimulus"":""run_exp/static/images/task_images/rocket-08.jpg"",""time"":6007.414999999921},{""stimulus"":""run_exp/static/images/task_images/rocket-09.jpg"",""time"":6865.554999999993}]",[],3,,,,,,,,,,,,,,
alien_welcome,114,492542,0.0-38.0-1.0,,null,run_exp/static/images/task_images/aliens/old_aliens/planet/alien_planet-30.jpg,null,,,,,,,,,,,,30,"35,14,51,30,57,72,36,33,73,54,28,20,61,2,34,12,59,17,43,40,6,24,60,79,32,31,76,5,4,46,3",,,,,,,,,,
land,115,493043,0.0-38.0-2.0,,null,run_exp/static/images/task_images/land.jpg,null,,,,,,93,,,4,,,,,,,,,,,,,,
dig,116,495047,0.0-38.0-3.0,,,,,,,,,,,"[{""stimulus"":""run_exp/static/images/task_images/dig.jpg"",""time"":0.374999999825377},{""stimulus"":""run_exp/static/images/task_images/land.jpg"",""time"":668.7399999998161},{""stimulus"":""run_exp/static/images/task_images/dig.jpg"",""time"":1335.6199999998207}]",[],4,,,,,,,,,,,,,,
harvest,117,496049,0.0-38.0-4.0,,null,run_exp/static/images/task_images/gems/93.jpg,null,,,,,,53,,,4,,,,,93,0.568928556,0.569892473,,,,,,,
decision,118,496596,0.0-38.0-5.0,,545.675,run_exp/static/images/task_images/land.jpg,65,,,,,,53,,,4,,,,,,,,112691,1,0,FALSE,,,
dig,119,499055,0.0-39.0-0.0,,,,,,,,,,,"[{""stimulus"":""run_exp/static/images/task_images/dig.jpg"",""time"":0.2950000000419095},{""stimulus"":""run_exp/static/images/task_images/land.jpg"",""time"":819.4949999999953},{""stimulus"":""run_exp/static/images/task_images/dig.jpg"",""time"":1637.484999999986}]",[],4,,,,,,,,,,,,,,
harvest,120,500057,0.0-39.0-1.0,,null,run_exp/static/images/task_images/gems/53.jpg,null,,,,,,24,,,4,,,,,53,0.452521814,0.452830189,,,,,,,
decision,121,500650,0.0-39.0-2.0,,591.84,run_exp/static/images/task_images/land.jpg,65,,,,,,24,,,4,,,,,,,,116746,1,1,FALSE,,,
dig,122,503063,0.0-40.0-0.0,,,,,,,,,,,"[{""stimulus"":""run_exp/static/images/task_images/dig.jpg"",""time"":0.20000000012805685},{""stimulus"":""run_exp/static/images/task_images/land.jpg"",""time"":803.8400000000256},{""stimulus"":""run_exp/static/images/task_images/dig.jpg"",""time"":1605.4500000000116}]",[],4,,,,,,,,,,,,,,
harvest,123,504066,0.0-40.0-1.0,,null,run_exp/static/images/task_images/gems/24.jpg,null,,,,,,13,,,4,,,,,24,0.536150583,0.541666667,,,,,,,
decision,124,504719,0.0-40.0-2.0,,651.375,run_exp/static/images/task_images/land.jpg,65,,,,,,13,,,4,,,,,,,,120814,1,2,FALSE,,,
dig,125,507070,0.0-41.0-0.0,,,,,,,,,,,"[{""stimulus"":""run_exp/static/images/task_images/dig.jpg"",""time"":0.2050000000745058},{""stimulus"":""run_exp/static/images/task_images/land.jpg"",""time"":784.3000000000466},{""stimulus"":""run_exp/static/images/task_images/dig.jpg"",""time"":1565.7250000000931}]",[],4,,,,,,,,,,,,,,
harvest,126,508072,0.0-41.0-1.0,,null,run_exp/static/images/task_images/gems/13.jpg,null,,,,,,6,,,4,,,,,13,0.493809967,0.461538462,,,,,,,
decision,127,508289,0.0-41.0-2.0,,215.4,run_exp/static/images/task_images/land.jpg,65,,,,,,6,,,4,,,,,,,,124384,1,3,FALSE,,,
dig,128,511080,0.0-42.0-0.0,,,,,,,,,,,"[{""stimulus"":""run_exp/static/images/task_images/dig.jpg"",""time"":0.35999999998603016},{""stimulus"":""run_exp/static/images/task_images/land.jpg"",""time"":929.75},{""stimulus"":""run_exp/static/images/task_images/dig.jpg"",""time"":1858.7250000000931}]",[],4,,,,,,,,,,,,,,
harvest,129,512083,0.0-42.0-1.0,,null,run_exp/static/images/task_images/gems/6.jpg,null,,,,,,3,,,4,,,,,6,0.447412777,0.5,,,,,,,
decision,130,513030,0.0-42.0-2.0,,945.305,run_exp/static/images/task_images/land.jpg,65,,,,,,3,,,4,,,,,,,,129125,1,4,FALSE,,,
dig,131,515089,0.0-43.0-0.0,,,,,,,,,,,"[{""stimulus"":""run_exp/static/images/task_images/dig.jpg"",""time"":0.2999999999301508},{""stimulus"":""run_exp/static/images/task_images/land.jpg"",""time"":685.4050000000279},{""stimulus"":""run_exp/static/images/task_images/dig.jpg"",""time"":1369.6300000000047}]",[],4,,,,,,,,,,,,,,
harvest,132,516091,0.0-43.0-1.0,,null,run_exp/static/images/task_images/gems/3.jpg,null,,,,,,1,,,4,,,,,3,0.485431361,0.333333333,,,,,,,
decision,133,518078,0.0-43.0-2.0,,1986.08,run_exp/static/images/task_images/land.jpg,76,,,,,,1,,,4,,,,,,,,134173,1,5,TRUE,,,
travel,134,526094,0.0-44.0-0.0,,,,,,,,,,,"[{""stimulus"":""run_exp/static/images/task_images/rocket-01.jpg"",""time"":0.26500000013038516},{""stimulus"":""run_exp/static/images/task_images/rocket-02.jpg"",""time"":891.7900000001537},{""stimulus"":""run_exp/static/images/task_images/rocket-03.jpg"",""time"":1781.969999999972},{""stimulus"":""run_exp/static/images/task_images/rocket-04.jpg"",""time"":2671.5500000000466},{""stimulus"":""run_exp/static/images/task_images/rocket-05.jpg"",""time"":3561.9350000001723},{""stimulus"":""run_exp/static/images/task_images/rocket-06.jpg"",""time"":4451.665000000037},{""stimulus"":""run_exp/static/images/task_images/rocket-07.jpg"",""time"":5341.724999999977},{""stimulus"":""run_exp/static/images/task_images/rocket-08.jpg"",""time"":6231.860000000102},{""stimulus"":""run_exp/static/images/task_images/rocket-09.jpg"",""time"":7121.800000000163}]",[],4,,,,,,,,,,,,,,
alien_welcome,135,531097,0.0-44.0-1.0,,null,run_exp/static/images/task_images/aliens/old_aliens/planet/alien_planet-57.jpg,null,,,,,,,,,,,,57,"35,14,51,30,57,72,36,33,73,54,28,20,61,2,34,12,59,17,43,40,6,24,60,79,32,31,76,5,4,46,3",,,,,,,,,,
land,136,531599,0.0-44.0-2.0,,null,run_exp/static/images/task_images/land.jpg,null,,,,,,99,,,5,,,,,,,,,,,,,,
dig,137,533603,0.0-44.0-3.0,,,,,,,,,,,"[{""stimulus"":""run_exp/static/images/task_images/dig.jpg"",""time"":0.37499999976716936},{""stimulus"":""run_exp/static/images/task_images/land.jpg"",""time"":669.5049999997718},{""stimulus"":""run_exp/static/images/task_images/dig.jpg"",""time"":1335.7449999997625}]",[],5,,,,,,,,,,,,,,
harvest,138,534605,0.0-44.0-4.0,,null,run_exp/static/images/task_images/gems/99.jpg,null,,,,,,47,,,5,,,,,99,0.478164745,0.474747475,,,,,,,
decision,139,535329,0.0-44.0-5.0,,722.375,run_exp/static/images/task_images/land.jpg,65,,,,,,47,,,5,,,,,,,,151424,1,0,FALSE,,,
dig,140,537611,0.0-45.0-0.0,,,,,,,,,,,"[{""stimulus"":""run_exp/static/images/task_images/dig.jpg"",""time"":0.2400000001071021},{""stimulus"":""run_exp/static/images/task_images/land.jpg"",""time"":760.6499999999069},{""stimulus"":""run_exp/static/images/task_images/dig.jpg"",""time"":1519.6300000000047}]",[],5,,,,,,,,,,,,,,
harvest,141,538613,0.0-45.0-1.0,,null,run_exp/static/images/task_images/gems/47.jpg,null,,,,,,25,,,5,,,,,47,0.527887406,0.531914894,,,,,,,
decision,142,538855,0.0-45.0-2.0,,240.215,run_exp/static/images/task_images/land.jpg,76,,,,,,25,,,5,,,,,,,,154950,1,1,TRUE,,,
travel,143,548618,0.0-46.0-0.0,,,,,,,,,,,"[{""stimulus"":""run_exp/static/images/task_images/rocket-01.jpg"",""time"":0.19999999995343387},{""stimulus"":""run_exp/static/images/task_images/rocket-02.jpg"",""time"":1085.7849999999162},{""stimulus"":""run_exp/static/images/task_images/rocket-03.jpg"",""time"":2172.3849999997765},{""stimulus"":""run_exp/static/images/task_images/rocket-04.jpg"",""time"":3253.4449999998324},{""stimulus"":""run_exp/static/images/task_images/rocket-05.jpg"",""time"":4337.530000000028},{""stimulus"":""run_exp/static/images/task_images/rocket-06.jpg"",""time"":5421.329999999842},{""stimulus"":""run_exp/static/images/task_images/rocket-07.jpg"",""time"":6505.704999999725},{""stimulus"":""run_exp/static/images/task_images/rocket-08.jpg"",""time"":7589.629999999888},{""stimulus"":""run_exp/static/images/task_images/rocket-09.jpg"",""time"":8673.43499999994}]",[],5,,,,,,,,,,,,,,
alien_welcome,144,553620,0.0-46.0-1.0,,null,run_exp/static/images/task_images/aliens/old_aliens/planet/alien_planet-72.jpg,null,,,,,,,,,,,,72,"35,14,51,30,57,72,36,33,73,54,28,20,61,2,34,12,59,17,43,40,6,24,60,79,32,31,76,5,4,46,3",,,,,,,,,,
land,145,554122,0.0-46.0-2.0,,null,run_exp/static/images/task_images/land.jpg,null,,,,,,102,,,6,,,,,,,,,,,,,,
dig,146,556126,0.0-46.0-3.0,,,,,,,,,,,"[{""stimulus"":""run_exp/static/images/task_images/dig.jpg"",""time"":0.3549999998649582},{""stimulus"":""run_exp/static/images/task_images/land.jpg"",""time"":668.5100000000093},{""stimulus"":""run_exp/static/images/task_images/dig.jpg"",""time"":1335.640000000014}]",[],6,,,,,,,,,,,,,,
harvest,147,557128,0.0-46.0-4.0,,null,run_exp/static/images/task_images/gems/102.jpg,null,,,,,,86,,,6,,,,,102,0.845095598,0.843137255,,,,,,,
decision,148,557689,0.0-46.0-5.0,,559.19,run_exp/static/images/task_images/land.jpg,65,,,,,,86,,,6,,,,,,,,173784,1,0,FALSE,,,
dig,149,560134,0.0-47.0-0.0,,,,,,,,,,,"[{""stimulus"":""run_exp/static/images/task_images/dig.jpg"",""time"":0.21999999997206032},{""stimulus"":""run_exp/static/images/task_images/land.jpg"",""time"":814.4299999999348},{""stimulus"":""run_exp/static/images/task_images/dig.jpg"",""time"":1627.719999999972}]",[],6,,,,,,,,,,,,,,
harvest,150,561136,0.0-47.0-1.0,,null,run_exp/static/images/task_images/gems/86.jpg,null,,,,,,73,,,6,,,,,86,0.850410251,0.848837209,,,,,,,
decision,151,561832,0.0-47.0-2.0,,694.115,run_exp/static/images/task_images/land.jpg,65,,,,,,73,,,6,,,,,,,,177927,1,1,FALSE,,,
dig,152,564141,0.0-48.0-0.0,,,,,,,,,,,"[{""stimulus"":""run_exp/static/images/task_images/dig.jpg"",""time"":0.24499999987892807},{""stimulus"":""run_exp/static/images/task_images/land.jpg"",""time"":769.4299999998184},{""stimulus"":""run_exp/static/images/task_images/dig.jpg"",""time"":1537.3499999997439}]",[],6,,,,,,,,,,,,,,
harvest,153,565143,0.0-48.0-1.0,,null,run_exp/static/images/task_images/gems/73.jpg,null,,,,,,59,,,6,,,,,73,0.807425133,0.808219178,,,,,,,
decision,154,566661,0.0-48.0-2.0,,1516.1,run_exp/static/images/task_images/land.jpg,65,,,,,,59,,,6,,,,,,,,182756,1,2,FALSE,,,
dig,155,568148,0.0-49.0-0.0,,,,,,,,,,,"[{""stimulus"":""run_exp/static/images/task_images/dig.jpg"",""time"":0.19999999983701855},{""stimulus"":""run_exp/static/images/task_images/land.jpg"",""time"":495.45999999984633},{""stimulus"":""run_exp/static/images/task_images/dig.jpg"",""time"":989.6299999997718}]",[],6,,,,,,,,,,,,,,
harvest,156,569150,0.0-49.0-1.0,,null,run_exp/static/images/task_images/gems/59.jpg,null,,,,,,45,,,6,,,,,59,0.755335098,0.762711864,,,,,,,
decision,157,569665,0.0-49.0-2.0,,513.16,run_exp/static/images/task_images/land.jpg,65,,,,,,45,,,6,,,,,,,,185760,1,3,FALSE,,,
dig,158,572154,0.0-50.0-0.0,,,,,,,,,,,"[{""stimulus"":""run_exp/static/images/task_images/dig.jpg"",""time"":0.1950000001816079},{""stimulus"":""run_exp/static/images/task_images/land.jpg"",""time"":829.1850000000559},{""stimulus"":""run_exp/static/images/task_images/dig.jpg"",""time"":1657.4150000001537}]",[],6,,,,,,,,,,,,,,
harvest,159,573156,0.0-50.0-1.0,,null,run_exp/static/images/task_images/gems/45.jpg,null,,,,,,35,,,6,,,,,45,0.770565266,0.777777778,,,,,,,
decision,160,573347,0.0-50.0-2.0,,187.87,run_exp/static/images/task_images/land.jpg,65,,,,,,35,,,6,,,,,,,,189442,1,4,FALSE,,,
dig,161,576163,0.0-51.0-0.0,,,,,,,,,,,"[{""stimulus"":""run_exp/static/images/task_images/dig.jpg"",""time"":0.21000000019557774},{""stimulus"":""run_exp/static/images/task_images/land.jpg"",""time"":938.7000000001863},{""stimulus"":""run_exp/static/images/task_images/dig.jpg"",""time"":1875.640000000014}]",[],6,,,,,,,,,,,,,,
harvest,162,577165,0.0-51.0-1.0,,null,run_exp/static/images/task_images/gems/35.jpg,null,,,,,,30,,,6,,,,,35,0.853112406,0.857142857,,,,,,,
decision,163,577419,0.0-51.0-2.0,,251.5,run_exp/static/images/task_images/land.jpg,65,,,,,,30,,,6,,,,,,,,193515,1,5,FALSE,,,
dig,164,580177,0.0-52.0-0.0,,,,,,,,,,,"[{""stimulus"":""run_exp/static/images/task_images/dig.jpg"",""time"":0.2950000000419095},{""stimulus"":""run_exp/static/images/task_images/land.jpg"",""time"":918.0899999999674},{""stimulus"":""run_exp/static/images/task_images/dig.jpg"",""time"":1834.0849999999627}]",[],6,,,,,,,,,,,,,,
harvest,165,581179,0.0-52.0-1.0,,null,run_exp/static/images/task_images/gems/30.jpg,null,,,,,,25,,,6,,,,,30,0.833065257,0.833333333,,,,,,,
decision,166,581628,0.0-52.0-2.0,,442.825,run_exp/static/images/task_images/land.jpg,65,,,,,,25,,,6,,,,,,,,197723,1,6,FALSE,,,
dig,167,584190,0.0-53.0-0.0,,,,,,,,,,,"[{""stimulus"":""run_exp/static/images/task_images/dig.jpg"",""time"":0.23499999986961484},{""stimulus"":""run_exp/static/images/task_images/land.jpg"",""time"":853.4849999998696},{""stimulus"":""run_exp/static/images/task_images/dig.jpg"",""time"":1705.4100000000326}]",[],6,,,,,,,,,,,,,,
harvest,168,585192,0.0-53.0-1.0,,null,run_exp/static/images/task_images/gems/25.jpg,null,,,,,,21,,,6,,,,,25,0.840570126,0.84,,,,,,,
decision,169,585945,0.0-53.0-2.0,,751.985,run_exp/static/images/task_images/land.jpg,65,,,,,,21,,,6,,,,,,,,202041,1,7,FALSE,,,
dig,170,588198,0.0-54.0-0.0,,,,,,,,,,,"[{""stimulus"":""run_exp/static/images/task_images/dig.jpg"",""time"":0.27500000002328306},{""stimulus"":""run_exp/static/images/task_images/land.jpg"",""time"":750.6199999999953},{""stimulus"":""run_exp/static/images/task_images/dig.jpg"",""time"":1499.4599999999627}]",[],6,,,,,,,,,,,,,,
harvest,171,589199,0.0-54.0-1.0,,null,run_exp/static/images/task_images/gems/21.jpg,null,,,,,,18,,,6,,,,,21,0.862793393,0.857142857,,,,,,,
decision,172,591777,0.0-54.0-2.0,,2575.47,run_exp/static/images/task_images/land.jpg,65,,,,,,18,,,6,,,,,,,,207872,1,8,FALSE,,,
dig,173,592205,0.0-55.0-0.0,,,,,,,,,,,"[{""stimulus"":""run_exp/static/images/task_images/dig.jpg"",""time"":0.2099999999627471},{""stimulus"":""run_exp/static/images/task_images/land.jpg"",""time"":142.45999999984633},{""stimulus"":""run_exp/static/images/task_images/dig.jpg"",""time"":283.7949999998091}]",[],6,,,,,,,,,,,,,,
harvest,174,593208,0.0-55.0-1.0,,null,run_exp/static/images/task_images/gems/18.jpg,null,,,,,,13,,,6,,,,,18,0.701369618,0.722222222,,,,,,,
decision,175,593652,0.0-55.0-2.0,,442.13,run_exp/static/images/task_images/land.jpg,65,,,,,,13,,,6,,,,,,,,209747,1,9,FALSE,,,
dig,176,596213,0.0-56.0-0.0,,,,,,,,,,,"[{""stimulus"":""run_exp/static/images/task_images/dig.jpg"",""time"":0.19999999995343387},{""stimulus"":""run_exp/static/images/task_images/land.jpg"",""time"":853.8300000000745},{""stimulus"":""run_exp/static/images/task_images/dig.jpg"",""time"":1705.8299999998417}]",[],6,,,,,,,,,,,,,,
harvest,177,597215,0.0-56.0-1.0,,null,run_exp/static/images/task_images/gems/13.jpg,null,,,,,,11,,,6,,,,,13,0.834272684,0.846153846,,,,,,,
decision,178,598327,0.0-56.0-2.0,,1109.995,run_exp/static/images/task_images/land.jpg,65,,,,,,11,,,6,,,,,,,,214422,1,10,FALSE,,,
dig,179,600223,0.0-57.0-0.0,,,,,,,,,,,"[{""stimulus"":""run_exp/static/images/task_images/dig.jpg"",""time"":0.2900000001536682},{""stimulus"":""run_exp/static/images/task_images/land.jpg"",""time"":631.3999999999069},{""stimulus"":""run_exp/static/images/task_images/dig.jpg"",""time"":1261.4399999999441}]",[],6,,,,,,,,,,,,,,
harvest,180,601224,0.0-57.0-1.0,,null,run_exp/static/images/task_images/gems/11.jpg,null,,,,,,9,,,6,,,,,11,0.811429057,0.818181818,,,,,,,
decision,181,601260,0.0-57.0-2.0,,33.915,run_exp/static/images/task_images/land.jpg,65,,,,,,9,,,6,,,,,,,,217355,1,11,FALSE,,,
dig,182,604230,0.0-58.0-0.0,,,,,,,,,,,"[{""stimulus"":""run_exp/static/images/task_images/dig.jpg"",""time"":0.24999999976716936},{""stimulus"":""run_exp/static/images/task_images/land.jpg"",""time"":989.4199999998091},{""stimulus"":""run_exp/static/images/task_images/dig.jpg"",""time"":1977.7549999998882}]",[],6,,,,,,,,,,,,,,
harvest,183,605231,0.0-58.0-1.0,,null,run_exp/static/images/task_images/gems/9.jpg,null,,,,,,8,,,6,,,,,9,0.870323633,0.888888889,,,,,,,
decision,184,606450,0.0-58.0-2.0,,1217.32,run_exp/static/images/task_images/land.jpg,65,,,,,,8,,,6,,,,,,,,222545,1,12,FALSE,,,
dig,185,608238,0.0-59.0-0.0,,,,,,,,,,,"[{""stimulus"":""run_exp/static/images/task_images/dig.jpg"",""time"":0.2099999999627471},{""stimulus"":""run_exp/static/images/task_images/land.jpg"",""time"":595.5750000000698},{""stimulus"":""run_exp/static/images/task_images/dig.jpg"",""time"":1189.4300000001676}]",[],6,,,,,,,,,,,,,,
harvest,186,609240,0.0-59.0-1.0,,null,run_exp/static/images/task_images/gems/8.jpg,null,,,,,,6,,,6,,,,,8,0.769420586,0.75,,,,,,,
decision,187,609390,0.0-59.0-2.0,,148.535,run_exp/static/images/task_images/land.jpg,65,,,,,,6,,,6,,,,,,,,225485,1,13,FALSE,,,
dig,188,612246,0.0-60.0-0.0,,,,,,,,,,,"[{""stimulus"":""run_exp/static/images/task_images/dig.jpg"",""time"":0.26500000013038516},{""stimulus"":""run_exp/static/images/task_images/land.jpg"",""time"":951.5400000000373},{""stimulus"":""run_exp/static/images/task_images/dig.jpg"",""time"":1901.6699999999255}]",[],6,,,,,,,,,,,,,,
harvest,189,613248,0.0-60.0-1.0,,null,run_exp/static/images/task_images/gems/6.jpg,null,,,,,,4,,,6,,,,,6,0.616851408,0.666666667,,,,,,,
decision,190,614449,0.0-60.0-2.0,,1199.105,run_exp/static/images/task_images/land.jpg,76,,,,,,4,,,6,,,,,,,,230544,1,14,TRUE,,,
travel,191,623249,0.0-61.0-0.0,,,,,,,,,,,"[{""stimulus"":""run_exp/static/images/task_images/rocket-01.jpg"",""time"":0.23000000009778887},{""stimulus"":""run_exp/static/images/task_images/rocket-02.jpg"",""time"":979.4949999999953},{""stimulus"":""run_exp/static/images/task_images/rocket-03.jpg"",""time"":1955.4299999999348},{""stimulus"":""run_exp/static/images/task_images/rocket-04.jpg"",""time"":2932.7900000000373},{""stimulus"":""run_exp/static/images/task_images/rocket-05.jpg"",""time"":3909.6200000001118},{""stimulus"":""run_exp/static/images/task_images/rocket-06.jpg"",""time"":4887.589999999967},{""stimulus"":""run_exp/static/images/task_images/rocket-07.jpg"",""time"":5863.225000000093},{""stimulus"":""run_exp/static/images/task_images/rocket-08.jpg"",""time"":6840.885000000009},{""stimulus"":""run_exp/static/images/task_images/rocket-09.jpg"",""time"":7817.445000000065}]",[],6,,,,,,,,,,,,,,
alien_welcome,192,628251,0.0-61.0-1.0,,null,run_exp/static/images/task_images/aliens/old_aliens/planet/alien_planet-36.jpg,null,,,,,,,,,,,,36,"35,14,51,30,57,72,36,33,73,54,28,20,61,2,34,12,59,17,43,40,6,24,60,79,32,31,76,5,4,46,3",,,,,,,,,,
land,193,628754,0.0-61.0-2.0,,null,run_exp/static/images/task_images/land.jpg,null,,,,,,97,,,7,,,,,,,,,,,,,,
dig,194,630758,0.0-61.0-3.0,,,,,,,,,,,"[{""stimulus"":""run_exp/static/images/task_images/dig.jpg"",""time"":0.39999999990686774},{""stimulus"":""run_exp/static/images/task_images/land.jpg"",""time"":668.5949999998556},{""stimulus"":""run_exp/static/images/task_images/dig.jpg"",""time"":1335.8200000000652}]",[],7,,,,,,,,,,,,,,
harvest,195,631760,0.0-61.0-4.0,,null,run_exp/static/images/task_images/gems/97.jpg,null,,,,,,86,,,7,,,,,97,0.886990701,0.886597938,,,,,,,
decision,196,632652,0.0-61.0-5.0,,890.9,run_exp/static/images/task_images/land.jpg,65,,,,,,86,,,7,,,,,,,,248747,1,0,FALSE,,,
dig,197,634767,0.0-62.0-0.0,,,,,,,,,,,"[{""stimulus"":""run_exp/static/images/task_images/dig.jpg"",""time"":0.2050000000745058},{""stimulus"":""run_exp/static/images/task_images/land.jpg"",""time"":704.6199999999953},{""stimulus"":""run_exp/static/images/task_images/dig.jpg"",""time"":1407.5899999999674}]",[],7,,,,,,,,,,,,,,
harvest,198,635769,0.0-62.0-1.0,,null,run_exp/static/images/task_images/gems/86.jpg,null,,,,,,66,,,7,,,,,86,0.764500739,0.76744186,,,,,,,
decision,199,635885,0.0-62.0-2.0,,114.395,run_exp/static/images/task_images/land.jpg,65,,,,,,66,,,7,,,,,,,,251981,1,1,FALSE,,,
dig,200,638775,0.0-63.0-0.0,,,,,,,,,,,"[{""stimulus"":""run_exp/static/images/task_images/dig.jpg"",""time"":0.19999999995343387},{""stimulus"":""run_exp/static/images/task_images/land.jpg"",""time"":962.6750000000466},{""stimulus"":""run_exp/static/images/task_images/dig.jpg"",""time"":1923.4399999998277}]",[],7,,,,,,,,,,,,,,
harvest,201,639776,0.0-63.0-1.0,,null,run_exp/static/images/task_images/gems/66.jpg,null,,,,,,46,,,7,,,,,66,0.699798214,0.696969697,,,,,,,
decision,202,642237,0.0-63.0-2.0,,2458.735,run_exp/static/images/task_images/land.jpg,65,,,,,,46,,,7,,,,,,,,258332,1,2,FALSE,,,
dig,203,642783,0.0-64.0-0.0,,,,,,,,,,,"[{""stimulus"":""run_exp/static/images/task_images/dig.jpg"",""time"":0.26999999990221113},{""stimulus"":""run_exp/static/images/task_images/land.jpg"",""time"":181.7049999999581},{""stimulus"":""run_exp/static/images/task_images/dig.jpg"",""time"":361.62000000011176}]",[],7,,,,,,,,,,,,,,
harvest,204,643786,0.0-64.0-1.0,,null,run_exp/static/images/task_images/gems/46.jpg,null,,,,,,36,,,7,,,,,46,0.783152566,0.782608696,,,,,,,
decision,205,644433,0.0-64.0-2.0,,645.615,run_exp/static/images/task_images/land.jpg,65,,,,,,36,,,7,,,,,,,,260528,1,3,FALSE,,,
dig,206,646791,0.0-65.0-0.0,,,,,,,,,,,"[{""stimulus"":""run_exp/static/images/task_images/dig.jpg"",""time"":0.2800000000279397},{""stimulus"":""run_exp/static/images/task_images/land.jpg"",""time"":785.7749999997905},{""stimulus"":""run_exp/static/images/task_images/dig.jpg"",""time"":1569.244999999879}]",[],7,,,,,,,,,,,,,,
harvest,207,647795,0.0-65.0-1.0,,null,run_exp/static/images/task_images/gems/36.jpg,null,,,,,,29,,,7,,,,,36,0.793100856,0.805555556,,,,,,,
decision,208,648475,0.0-65.0-2.0,,678.455,run_exp/static/images/task_images/land.jpg,65,,,,,,29,,,7,,,,,,,,264571,1,4,FALSE,,,
dig,209,650800,0.0-66.0-0.0,,,,,,,,,,,"[{""stimulus"":""run_exp/static/images/task_images/dig.jpg"",""time"":0.19499999983236194},{""stimulus"":""run_exp/static/images/task_images/land.jpg"",""time"":774.6599999997998},{""stimulus"":""run_exp/static/images/task_images/dig.jpg"",""time"":1547.634999999893}]",[],7,,,,,,,,,,,,,,
harvest,210,651802,0.0-66.0-1.0,,null,run_exp/static/images/task_images/gems/29.jpg,null,,,,,,25,,,7,,,,,29,0.875610421,0.862068966,,,,,,,
decision,211,653311,0.0-66.0-2.0,,1507.455,run_exp/static/images/task_images/land.jpg,65,,,,,,25,,,7,,,,,,,,269406,1,5,FALSE,,,
dig,212,654808,0.0-67.0-0.0,,,,,,,,,,,"[{""stimulus"":""run_exp/static/images/task_images/dig.jpg"",""time"":0.2550000000046566},{""stimulus"":""run_exp/static/images/task_images/land.jpg"",""time"":498.44000000017695},{""stimulus"":""run_exp/static/images/task_images/dig.jpg"",""time"":995.5400000001537}]",[],7,,,,,,,,,,,,,,
harvest,213,655809,0.0-67.0-1.0,,null,run_exp/static/images/task_images/gems/25.jpg,null,,,,,,21,,,7,,,,,25,0.83783449,0.84,,,,,,,
decision,214,656285,0.0-67.0-2.0,,473.725,run_exp/static/images/task_images/land.jpg,65,,,,,,21,,,7,,,,,,,,272380,1,6,FALSE,,,
dig,215,658817,0.0-68.0-0.0,,,,,,,,,,,"[{""stimulus"":""run_exp/static/images/task_images/dig.jpg"",""time"":0.23000000009778887},{""stimulus"":""run_exp/static/images/task_images/land.jpg"",""time"":843.6300000000047},{""stimulus"":""run_exp/static/images/task_images/dig.jpg"",""time"":1685.4800000000978}]",[],7,,,,,,,,,,,,,,
harvest,216,659819,0.0-68.0-1.0,,null,run_exp/static/images/task_images/gems/21.jpg,null,,,,,,15,,,7,,,,,21,0.728035536,0.714285714,,,,,,,
decision,217,660324,0.0-68.0-2.0,,503.97,run_exp/static/images/task_images/land.jpg,65,,,,,,15,,,7,,,,,,,,276419,1,7,FALSE,,,
dig,218,662826,0.0-69.0-0.0,,,,,,,,,,,"[{""stimulus"":""run_exp/static/images/task_images/dig.jpg"",""time"":0.30500000005122274},{""stimulus"":""run_exp/static/images/task_images/land.jpg"",""time"":833.5999999999767},{""stimulus"":""run_exp/static/images/task_images/dig.jpg"",""time"":1665.719999999972}]",[],7,,,,,,,,,,,,,,
harvest,219,663828,0.0-69.0-1.0,,null,run_exp/static/images/task_images/gems/15.jpg,null,,,,,,11,,,7,,,,,15,0.752623153,0.733333333,,,,,,,
decision,220,664101,0.0-69.0-2.0,,271.6,run_exp/static/images/task_images/land.jpg,65,,,,,,11,,,7,,,,,,,,280196,1,8,FALSE,,,
dig,221,666834,0.0-70.0-0.0,,,,,,,,,,,"[{""stimulus"":""run_exp/static/images/task_images/dig.jpg"",""time"":0.2449999999953434},{""stimulus"":""run_exp/static/images/task_images/land.jpg"",""time"":910.7399999999907},{""stimulus"":""run_exp/static/images/task_images/dig.jpg"",""time"":1819.484999999986}]",[],7,,,,,,,,,,,,,,
harvest,222,667836,0.0-70.0-1.0,,null,run_exp/static/images/task_images/gems/11.jpg,null,,,,,,9,,,7,,,,,11,0.786524951,0.818181818,,,,,,,
decision,223,668008,0.0-70.0-2.0,,170.31,run_exp/static/images/task_images/land.jpg,65,,,,,,9,,,7,,,,,,,,284103,1,9,FALSE,,,
dig,224,670843,0.0-71.0-0.0,,,,,,,,,,,"[{""stimulus"":""run_exp/static/images/task_images/dig.jpg"",""time"":0.19999999995343387},{""stimulus"":""run_exp/static/images/task_images/land.jpg"",""time"":944.6450000000186},{""stimulus"":""run_exp/static/images/task_images/dig.jpg"",""time"":1887.4800000000978}]",[],7,,,,,,,,,,,,,,
harvest,225,671846,0.0-71.0-1.0,,null,run_exp/static/images/task_images/gems/9.jpg,null,,,,,,7,,,7,,,,,9,0.809032848,0.777777778,,,,,,,
decision,226,672951,0.0-71.0-2.0,,1102.445,run_exp/static/images/task_images/land.jpg,65,,,,,,7,,,7,,,,,,,,289046,1,10,FALSE,,,
dig,227,674852,0.0-72.0-0.0,,,,,,,,,,,"[{""stimulus"":""run_exp/static/images/task_images/dig.jpg"",""time"":0.20000000018626451},{""stimulus"":""run_exp/static/images/task_images/land.jpg"",""time"":633.4200000001583},{""stimulus"":""run_exp/static/images/task_images/dig.jpg"",""time"":1265.4600000000792}]",[],7,,,,,,,,,,,,,,
harvest,228,675854,0.0-72.0-1.0,,null,run_exp/static/images/task_images/gems/7.jpg,null,,,,,,6,,,7,,,,,7,0.79132283,0.857142857,,,,,,,
decision,229,675925,0.0-72.0-2.0,,68.56,run_exp/static/images/task_images/land.jpg,76,,,,,,6,,,7,,,,,,,,292020,1,11,TRUE,,,
travel,230,685857,0.0-73.0-0.0,,,,,,,,,,,"[{""stimulus"":""run_exp/static/images/task_images/rocket-01.jpg"",""time"":0.20999999984633178},{""stimulus"":""run_exp/static/images/task_images/rocket-02.jpg"",""time"":1104.6499999999069},{""stimulus"":""run_exp/static/images/task_images/rocket-03.jpg"",""time"":2207.625},{""stimulus"":""run_exp/static/images/task_images/rocket-04.jpg"",""time"":3310.689999999944},{""stimulus"":""run_exp/static/images/task_images/rocket-05.jpg"",""time"":4413.589999999851},{""stimulus"":""run_exp/static/images/task_images/rocket-06.jpg"",""time"":5516.594999999739},{""stimulus"":""run_exp/static/images/task_images/rocket-07.jpg"",""time"":6619.459999999846},{""stimulus"":""run_exp/static/images/task_images/rocket-08.jpg"",""time"":7722.469999999856},{""stimulus"":""run_exp/static/images/task_images/rocket-09.jpg"",""time"":8825.459999999963}]",[],7,,,,,,,,,,,,,,
alien_welcome,231,690860,0.0-73.0-1.0,,null,run_exp/static/images/task_images/aliens/old_aliens/planet/alien_planet-33.jpg,null,,,,,,,,,,,,33,"35,14,51,30,57,72,36,33,73,54,28,20,61,2,34,12,59,17,43,40,6,24,60,79,32,31,76,5,4,46,3",,,,,,,,,,
land,232,691362,0.0-73.0-2.0,,null,run_exp/static/images/task_images/land.jpg,null,,,,,,102,,,8,,,,,,,,,,,,,,
dig,233,693367,0.0-73.0-3.0,,,,,,,,,,,"[{""stimulus"":""run_exp/static/images/task_images/dig.jpg"",""time"":0.34000000008381903},{""stimulus"":""run_exp/static/images/task_images/land.jpg"",""time"":668.7000000001863},{""stimulus"":""run_exp/static/images/task_images/dig.jpg"",""time"":1335.4200000001583}]",[],8,,,,,,,,,,,,,,
harvest,234,694368,0.0-73.0-4.0,,null,run_exp/static/images/task_images/gems/102.jpg,null,,,,,,79,,,8,,,,,102,0.77823223,0.774509804,,,,,,,
decision,235,694607,0.0-73.0-5.0,,236.935,run_exp/static/images/task_images/land.jpg,65,,,,,,79,,,8,,,,,,,,310702,1,0,TRUE,,,
end_of_block_continue,236,703669,0.0-74.0-0.0,,null,run_exp/static/audio/clip_32_block_end.m4a,,,,,,null,,,,,,,,,,,,,,,,,,
alien_welcome,237,708678,0.0-75.0-0.0,,null,run_exp/static/images/task_images/aliens/old_aliens/planet/alien_planet-73.jpg,null,,,,,,,,,,,,73,"35,14,51,30,57,72,36,33,73,54,28,20,61,2,34,12,59,17,43,40,6,24,60,79,32,31,76,5,4,46,3",,,,,,,,,,
land,238,709180,0.0-75.0-1.0,,null,run_exp/static/images/task_images/land.jpg,null,,,,,,97,,,9,,,,,,,,,,,,,,
dig,239,711184,0.0-75.0-2.0,,,,,,,,,,,"[{""stimulus"":""run_exp/static/images/task_images/dig.jpg"",""time"":0.3899999998975545},{""stimulus"":""run_exp/static/images/task_images/land.jpg"",""time"":668.7249999999767},{""stimulus"":""run_exp/static/images/task_images/dig.jpg"",""time"":1335.699999999837}]",[],9,,,,,,,,,,,,,,
harvest,240,712186,0.0-75.0-3.0,,null,run_exp/static/images/task_images/gems/97.jpg,null,,,,,,10,,,9,,,,,97,0.103644047,0.103092784,,,,,,,
decision,241,712806,0.0-75.0-4.0,,617.79,run_exp/static/images/task_images/land.jpg,65,,,,,,10,,,9,,,,,,,,9130,2,0,FALSE,,,
dig,242,715194,0.0-76.0-0.0,,,,,,,,,,,"[{""stimulus"":""run_exp/static/images/task_images/dig.jpg"",""time"":0.2449999999953434},{""stimulus"":""run_exp/static/images/task_images/land.jpg"",""time"":795.7799999999115},{""stimulus"":""run_exp/static/images/task_images/dig.jpg"",""time"":1589.3200000000652}]",[],9,,,,,,,,,,,,,,
harvest,243,716196,0.0-76.0-1.0,,null,run_exp/static/images/task_images/gems/10.jpg,null,,,,,,3,,,9,,,,,10,0.339823288,0.3,,,,,,,
decision,244,719198,0.0-76.0-2.0,,null,run_exp/static/images/task_images/land.jpg,null,,,,,,3,,,9,,,,,,,,15522,2,1,FALSE,,,
time_out,245,721202,0.0-77.0-0.0,,null,run_exp/static/images/task_images/time_out.jpg,null,,,,,,3,,,,,,,,,,,,,,,,,
decision,246,721860,0.0-77.0-1.0,,655.565,run_exp/static/images/task_images/land.jpg,76,,,,,,3,,,9,,,,,,,,18184,2,1,TRUE,,,
travel,247,731210,0.0-78.0-0.0,,,,,,,,,,,"[{""stimulus"":""run_exp/static/images/task_images/rocket-01.jpg"",""time"":0.32499999995343387},{""stimulus"":""run_exp/static/images/task_images/rocket-02.jpg"",""time"":1039.5799999998417},{""stimulus"":""run_exp/static/images/task_images/rocket-03.jpg"",""time"":2077.479999999865},{""stimulus"":""run_exp/static/images/task_images/rocket-04.jpg"",""time"":3115.754999999772},{""stimulus"":""run_exp/static/images/task_images/rocket-05.jpg"",""time"":4153.469999999972},{""stimulus"":""run_exp/static/images/task_images/rocket-06.jpg"",""time"":5191.554999999935},{""stimulus"":""run_exp/static/images/task_images/rocket-07.jpg"",""time"":6229.449999999837},{""stimulus"":""run_exp/static/images/task_images/rocket-08.jpg"",""time"":7267.194999999949},{""stimulus"":""run_exp/static/images/task_images/rocket-09.jpg"",""time"":8305.75}]",[],9,,,,,,,,,,,,,,
alien_welcome,248,736212,0.0-78.0-1.0,,null,run_exp/static/images/task_images/aliens/old_aliens/planet/alien_planet-54.jpg,null,,,,,,,,,,,,54,"35,14,51,30,57,72,36,33,73,54,28,20,61,2,34,12,59,17,43,40,6,24,60,79,32,31,76,5,4,46,3",,,,,,,,,,
land,249,736714,0.0-78.0-2.0,,null,run_exp/static/images/task_images/land.jpg,null,,,,,,101,,,10,,,,,,,,,,,,,,
dig,250,738720,0.0-78.0-3.0,,,,,,,,,,,"[{""stimulus"":""run_exp/static/images/task_images/dig.jpg"",""time"":1.4249999999301508},{""stimulus"":""run_exp/static/images/task_images/land.jpg"",""time"":669.699999999837},{""stimulus"":""run_exp/static/images/task_images/dig.jpg"",""time"":1336.5349999999162}]",[],10,,,,,,,,,,,,,,
harvest,251,739722,0.0-78.0-4.0,,null,run_exp/static/images/task_images/gems/101.jpg,null,,,,,,28,,,10,,,,,101,0.277569012,0.277227723,,,,,,,
decision,252,740421,0.0-78.0-5.0,,697.37,run_exp/static/images/task_images/land.jpg,65,,,,,,28,,,10,,,,,,,,36745,2,0,FALSE,,,
dig,253,742728,0.0-79.0-0.0,,,,,,,,,,,"[{""stimulus"":""run_exp/static/images/task_images/dig.jpg"",""time"":0.19999999995343387},{""stimulus"":""run_exp/static/images/task_images/land.jpg"",""time"":768.4349999999395},{""stimulus"":""run_exp/static/images/task_images/dig.jpg"",""time"":1535.4699999997392}]",[],10,,,,,,,,,,,,,,
harvest,254,743730,0.0-79.0-1.0,,null,run_exp/static/images/task_images/gems/28.jpg,null,,,,,,6,,,10,,,,,28,0.205771931,0.214285714,,,,,,,
decision,255,743915,0.0-79.0-2.0,,183.085,run_exp/static/images/task_images/land.jpg,65,,,,,,6,,,10,,,,,,,,40239,2,1,FALSE,,,
dig,256,746735,0.0-80.0-0.0,,,,,,,,,,,"[{""stimulus"":""run_exp/static/images/task_images/dig.jpg"",""time"":0.24499999987892807},{""stimulus"":""run_exp/static/images/task_images/land.jpg"",""time"":939.7599999998929},{""stimulus"":""run_exp/static/images/task_images/dig.jpg"",""time"":1877.5849999999627}]",[],10,,,,,,,,,,,,,,
harvest,257,747737,0.0-80.0-1.0,,null,run_exp/static/images/task_images/gems/6.jpg,null,,,,,,1,,,10,,,,,6,0.248204924,0.166666667,,,,,,,
decision,258,748284,0.0-80.0-2.0,,545.16,run_exp/static/images/task_images/land.jpg,65,,,,,,1,,,10,,,,,,,,44608,2,2,FALSE,,,
dig,259,750746,0.0-81.0-0.0,,,,,,,,,,,"[{""stimulus"":""run_exp/static/images/task_images/dig.jpg"",""time"":0.23499999986961484},{""stimulus"":""run_exp/static/images/task_images/land.jpg"",""time"":819.3850000000093},{""stimulus"":""run_exp/static/images/task_images/dig.jpg"",""time"":1637.3199999999488}]",[],10,,,,,,,,,,,,,,
harvest,260,751748,0.0-81.0-1.0,,null,run_exp/static/images/task_images/gems/1.jpg,null,,,,,,0,,,10,,,,,1,0.256715785,0,,,,,,,
decision,261,752963,0.0-81.0-2.0,,1213.815,run_exp/static/images/task_images/land.jpg,76,,,,,,0,,,10,,,,,,,,49288,2,3,TRUE,,,
travel,262,761754,0.0-82.0-0.0,,,,,,,,,,,"[{""stimulus"":""run_exp/static/images/task_images/rocket-01.jpg"",""time"":0.2649999998975545},{""stimulus"":""run_exp/static/images/task_images/rocket-02.jpg"",""time"":977.5649999999441},{""stimulus"":""run_exp/static/images/task_images/rocket-03.jpg"",""time"":1953.604999999865},{""stimulus"":""run_exp/static/images/task_images/rocket-04.jpg"",""time"":2929.3599999998696},{""stimulus"":""run_exp/static/images/task_images/rocket-05.jpg"",""time"":3905.359999999986},{""stimulus"":""run_exp/static/images/task_images/rocket-06.jpg"",""time"":4881.47499999986},{""stimulus"":""run_exp/static/images/task_images/rocket-07.jpg"",""time"":5857.564999999828},{""stimulus"":""run_exp/static/images/task_images/rocket-08.jpg"",""time"":6833.719999999856},{""stimulus"":""run_exp/static/images/task_images/rocket-09.jpg"",""time"":7809.479999999865}]",[],10,,,,,,,,,,,,,,
alien_welcome,263,766756,0.0-82.0-1.0,,null,run_exp/static/images/task_images/aliens/old_aliens/planet/alien_planet-28.jpg,null,,,,,,,,,,,,28,"35,14,51,30,57,72,36,33,73,54,28,20,61,2,34,12,59,17,43,40,6,24,60,79,32,31,76,5,4,46,3",,,,,,,,,,
land,264,767259,0.0-82.0-2.0,,null,run_exp/static/images/task_images/land.jpg,null,,,,,,95,,,11,,,,,,,,,,,,,,
dig,265,769263,0.0-82.0-3.0,,,,,,,,,,,"[{""stimulus"":""run_exp/static/images/task_images/dig.jpg"",""time"":0.37499999976716936},{""stimulus"":""run_exp/static/images/task_images/land.jpg"",""time"":668.6949999998324},{""stimulus"":""run_exp/static/images/task_images/dig.jpg"",""time"":1335.339999999851}]",[],11,,,,,,,,,,,,,,
harvest,266,770265,0.0-82.0-4.0,,null,run_exp/static/images/task_images/gems/95.jpg,null,,,,,,20,,,11,,,,,95,0.214493314,0.210526316,,,,,,,
decision,267,770664,0.0-82.0-5.0,,397.265,run_exp/static/images/task_images/land.jpg,65,,,,,,20,,,11,,,,,,,,66988,2,0,FALSE,,,
dig,268,773272,0.0-83.0-0.0,,,,,,,,,,,"[{""stimulus"":""run_exp/static/images/task_images/dig.jpg"",""time"":0.2549999998882413},{""stimulus"":""run_exp/static/images/task_images/land.jpg"",""time"":868.4899999998743},{""stimulus"":""run_exp/static/images/task_images/dig.jpg"",""time"":1735.6199999999953}]",[],11,,,,,,,,,,,,,,
harvest,269,774273,0.0-83.0-1.0,,null,run_exp/static/images/task_images/gems/20.jpg,null,,,,,,4,,,11,,,,,20,0.182945999,0.2,,,,,,,
decision,270,774621,0.0-83.0-2.0,,345.825,run_exp/static/images/task_images/land.jpg,65,,,,,,4,,,11,,,,,,,,70945,2,1,FALSE,,,
dig,271,777280,0.0-84.0-0.0,,,,,,,,,,,"[{""stimulus"":""run_exp/static/images/task_images/dig.jpg"",""time"":0.35999999998603016},{""stimulus"":""run_exp/static/images/task_images/land.jpg"",""time"":885.4900000001071},{""stimulus"":""run_exp/static/images/task_images/dig.jpg"",""time"":1769.5000000001164}]",[],11,,,,,,,,,,,,,,
harvest,272,778282,0.0-84.0-1.0,,null,run_exp/static/images/task_images/gems/4.jpg,null,,,,,,1,,,11,,,,,4,0.20372212,0.25,,,,,,,
decision,273,778389,0.0-84.0-2.0,,105.045,run_exp/static/images/task_images/land.jpg,65,,,,,,1,,,11,,,,,,,,74713,2,2,FALSE,,,
dig,274,781287,0.0-85.0-0.0,,,,,,,,,,,"[{""stimulus"":""run_exp/static/images/task_images/dig.jpg"",""time"":0.32999999984167516},{""stimulus"":""run_exp/static/images/task_images/land.jpg"",""time"":965.8249999999534},{""stimulus"":""run_exp/static/images/task_images/dig.jpg"",""time"":1929.8149999999441}]",[],11,,,,,,,,,,,,,,
harvest,275,782289,0.0-85.0-1.0,,null,run_exp/static/images/task_images/gems/1.jpg,null,,,,,,0,,,11,,,,,1,0.234950351,0,,,,,,,
decision,276,785291,0.0-85.0-2.0,,null,run_exp/static/images/task_images/land.jpg,null,,,,,,0,,,11,,,,,,,,81615,2,3,FALSE,,,
time_out,277,787298,0.0-86.0-0.0,,null,run_exp/static/images/task_images/time_out.jpg,null,,,,,,0,,,,,,,,,,,,,,,,,
decision,278,787394,0.0-86.0-1.0,,94.365,run_exp/static/images/task_images/land.jpg,76,,,,,,0,,,11,,,,,,,,83718,2,3,TRUE,,,
travel,279,797301,0.0-87.0-0.0,,,,,,,,,,,"[{""stimulus"":""run_exp/static/images/task_images/rocket-01.jpg"",""time"":0.22499999997671694},{""stimulus"":""run_exp/static/images/task_images/rocket-02.jpg"",""time"":1101.3399999999674},{""stimulus"":""run_exp/static/images/task_images/rocket-03.jpg"",""time"":2201.29999999993},{""stimulus"":""run_exp/static/images/task_images/rocket-04.jpg"",""time"":3301.539999999921},{""stimulus"":""run_exp/static/images/task_images/rocket-05.jpg"",""time"":4401.479999999981},{""stimulus"":""run_exp/static/images/task_images/rocket-06.jpg"",""time"":5501.524999999907},{""stimulus"":""run_exp/static/images/task_images/rocket-07.jpg"",""time"":6601.464999999967},{""stimulus"":""run_exp/static/images/task_images/rocket-08.jpg"",""time"":7701.479999999981},{""stimulus"":""run_exp/static/images/task_images/rocket-09.jpg"",""time"":8801.564999999944}]",[],11,,,,,,,,,,,,,,
alien_welcome,280,802304,0.0-87.0-1.0,,null,run_exp/static/images/task_images/aliens/old_aliens/planet/alien_planet-20.jpg,null,,,,,,,,,,,,20,"35,14,51,30,57,72,36,33,73,54,28,20,61,2,34,12,59,17,43,40,6,24,60,79,32,31,76,5,4,46,3",,,,,,,,,,
land,281,802805,0.0-87.0-2.0,,null,run_exp/static/images/task_images/land.jpg,null,,,,,,95,,,12,,,,,,,,,,,,,,
dig,282,804810,0.0-87.0-3.0,,,,,,,,,,,"[{""stimulus"":""run_exp/static/images/task_images/dig.jpg"",""time"":0.4100000001490116},{""stimulus"":""run_exp/static/images/task_images/land.jpg"",""time"":668.910000000149},{""stimulus"":""run_exp/static/images/task_images/dig.jpg"",""time"":1335.6700000001583}]",[],12,,,,,,,,,,,,,,
harvest,283,805812,0.0-87.0-4.0,,null,run_exp/static/images/task_images/gems/95.jpg,null,,,,,,81,,,12,,,,,95,0.852082665,0.852631579,,,,,,,
decision,284,806413,0.0-87.0-5.0,,599.375,run_exp/static/images/task_images/land.jpg,65,,,,,,81,,,12,,,,,,,,102737,2,0,FALSE,,,
dig,285,808823,0.0-88.0-0.0,,,,,,,,,,,"[{""stimulus"":""run_exp/static/images/task_images/dig.jpg"",""time"":0.2850000001490116},{""stimulus"":""run_exp/static/images/task_images/land.jpg"",""time"":801.6050000002142},{""stimulus"":""run_exp/static/images/task_images/dig.jpg"",""time"":1601.734999999986}]",[],12,,,,,,,,,,,,,,
harvest,286,809825,0.0-88.0-1.0,,null,run_exp/static/images/task_images/gems/81.jpg,null,,,,,,64,,,12,,,,,81,0.789839087,0.790123457,,,,,,,
decision,287,810541,0.0-88.0-2.0,,714.08,run_exp/static/images/task_images/land.jpg,65,,,,,,64,,,12,,,,,,,,106866,2,1,FALSE,,,
dig,288,812831,0.0-89.0-0.0,,,,,,,,,,,"[{""stimulus"":""run_exp/static/images/task_images/dig.jpg"",""time"":0.27000000001862645},{""stimulus"":""run_exp/static/images/task_images/land.jpg"",""time"":762.5200000000186},{""stimulus"":""run_exp/static/images/task_images/dig.jpg"",""time"":1523.6899999999441}]",[],12,,,,,,,,,,,,,,
harvest,289,813833,0.0-89.0-1.0,,null,run_exp/static/images/task_images/gems/64.jpg,null,,,,,,57,,,12,,,,,64,0.888387458,0.890625,,,,,,,
decision,290,813977,0.0-89.0-2.0,,142.245,run_exp/static/images/task_images/land.jpg,65,,,,,,57,,,12,,,,,,,,110301,2,2,FALSE,,,
dig,291,816840,0.0-90.0-0.0,,,,,,,,,,,"[{""stimulus"":""run_exp/static/images/task_images/dig.jpg"",""time"":0.33000000019092113},{""stimulus"":""run_exp/static/images/task_images/land.jpg"",""time"":953.8250000000698},{""stimulus"":""run_exp/static/images/task_images/dig.jpg"",""time"":1905.9350000000559}]",[],12,,,,,,,,,,,,,,
harvest,292,817845,0.0-90.0-1.0,,null,run_exp/static/images/task_images/gems/57.jpg,null,,,,,,49,,,12,,,,,57,0.85867925,0.859649123,,,,,,,
decision,293,818407,0.0-90.0-2.0,,560.04,run_exp/static/images/task_images/land.jpg,65,,,,,,49,,,12,,,,,,,,114731,2,3,FALSE,,,
dig,294,820853,0.0-91.0-0.0,,,,,,,,,,,"[{""stimulus"":""run_exp/static/images/task_images/dig.jpg"",""time"":0.2050000000745058},{""stimulus"":""run_exp/static/images/task_images/land.jpg"",""time"":814.640000000014},{""stimulus"":""run_exp/static/images/task_images/dig.jpg"",""time"":1627.5999999999767}]",[],12,,,,,,,,,,,,,,
harvest,295,821855,0.0-91.0-1.0,,null,run_exp/static/images/task_images/gems/49.jpg,null,,,,,,42,,,12,,,,,49,0.856840231,0.857142857,,,,,,,
decision,296,822502,0.0-91.0-2.0,,645.02,run_exp/static/images/task_images/land.jpg,65,,,,,,42,,,12,,,,,,,,118826,2,4,FALSE,,,
dig,297,824860,0.0-92.0-0.0,,,,,,,,,,,"[{""stimulus"":""run_exp/static/images/task_images/dig.jpg"",""time"":0.21500000008381903},{""stimulus"":""run_exp/static/images/task_images/land.jpg"",""time"":785.6150000001071},{""stimulus"":""run_exp/static/images/task_images/dig.jpg"",""time"":1569.8800000000047}]",[],12,,,,,,,,,,,,,,
harvest,298,825862,0.0-92.0-1.0,,null,run_exp/static/images/task_images/gems/42.jpg,null,,,,,,33,,,12,,,,,42,0.780409364,0.785714286,,,,,,,
decision,299,826290,0.0-92.0-2.0,,426.435,run_exp/static/images/task_images/land.jpg,65,,,,,,33,,,12,,,,,,,,122614,2,5,FALSE,,,
dig,300,828867,0.0-93.0-0.0,,,,,,,,,,,"[{""stimulus"":""run_exp/static/images/task_images/dig.jpg"",""time"":0.19999999995343387},{""stimulus"":""run_exp/static/images/task_images/land.jpg"",""time"":858.8199999999488},{""stimulus"":""run_exp/static/images/task_images/dig.jpg"",""time"":1715.5399999999208}]",[],12,,,,,,,,,,,,,,
harvest,301,829869,0.0-93.0-1.0,,null,run_exp/static/images/task_images/gems/33.jpg,null,,,,,,27,,,12,,,,,33,0.807807572,0.818181818,,,,,,,
decision,302,832150,0.0-93.0-2.0,,2278.285,run_exp/static/images/task_images/land.jpg,65,,,,,,27,,,12,,,,,,,,128474,2,6,FALSE,,,
dig,303,832878,0.0-94.0-0.0,,,,,,,,,,,"[{""stimulus"":""run_exp/static/images/task_images/dig.jpg"",""time"":0.22500000009313226},{""stimulus"":""run_exp/static/images/task_images/land.jpg"",""time"":241.71000000007916},{""stimulus"":""run_exp/static/images/task_images/dig.jpg"",""time"":481.625}]",[],12,,,,,,,,,,,,,,
harvest,304,833880,0.0-94.0-1.0,,null,run_exp/static/images/task_images/gems/27.jpg,null,,,,,,22,,,12,,,,,27,0.800789272,0.814814815,,,,,,,
decision,305,834869,0.0-94.0-2.0,,986.685,run_exp/static/images/task_images/land.jpg,65,,,,,,22,,,12,,,,,,,,131193,2,7,FALSE,,,
dig,306,836888,0.0-95.0-0.0,,,,,,,,,,,"[{""stimulus"":""run_exp/static/images/task_images/dig.jpg"",""time"":0.2050000000745058},{""stimulus"":""run_exp/static/images/task_images/land.jpg"",""time"":672.589999999851},{""stimulus"":""run_exp/static/images/task_images/dig.jpg"",""time"":1343.7600000000093}]",[],12,,,,,,,,,,,,,,
harvest,307,837890,0.0-95.0-1.0,,null,run_exp/static/images/task_images/gems/22.jpg,null,,,,,,17,,,12,,,,,22,0.783449196,0.772727273,,,,,,,
decision,308,840892,0.0-95.0-2.0,,null,run_exp/static/images/task_images/land.jpg,null,,,,,,17,,,12,,,,,,,,137217,2,8,FALSE,,,
time_out,309,842897,0.0-96.0-0.0,,null,run_exp/static/images/task_images/time_out.jpg,null,,,,,,17,,,,,,,,,,,,,,,,,
decision,310,842951,0.0-96.0-1.0,,52.39,run_exp/static/images/task_images/land.jpg,76,,,,,,17,,,12,,,,,,,,139275,2,8,TRUE,,,
travel,311,852903,0.0-97.0-0.0,,,,,,,,,,,"[{""stimulus"":""run_exp/static/images/task_images/rocket-01.jpg"",""time"":0.2050000000745058},{""stimulus"":""run_exp/static/images/task_images/rocket-02.jpg"",""time"":1106.6300000000047},{""stimulus"":""run_exp/static/images/task_images/rocket-03.jpg"",""time"":2211.594999999972},{""stimulus"":""run_exp/static/images/task_images/rocket-04.jpg"",""time"":3316.57500000007},{""stimulus"":""run_exp/static/images/task_images/rocket-05.jpg"",""time"":4421.679999999935},{""stimulus"":""run_exp/static/images/task_images/rocket-06.jpg"",""time"":5526.4349999999395},{""stimulus"":""run_exp/static/images/task_images/rocket-07.jpg"",""time"":6631.255000000005},{""stimulus"":""run_exp/static/images/task_images/rocket-08.jpg"",""time"":7736.75},{""stimulus"":""run_exp/static/images/task_images/rocket-09.jpg"",""time"":8841.650000000023}]",[],12,,,,,,,,,,,,,,
alien_welcome,312,857905,0.0-97.0-1.0,,null,run_exp/static/images/task_images/aliens/old_aliens/planet/alien_planet-61.jpg,null,,,,,,,,,,,,61,"35,14,51,30,57,72,36,33,73,54,28,20,61,2,34,12,59,17,43,40,6,24,60,79,32,31,76,5,4,46,3",,,,,,,,,,
land,313,858408,0.0-97.0-2.0,,null,run_exp/static/images/task_images/land.jpg,null,,,,,,92,,,13,,,,,,,,,,,,,,
dig,314,860412,0.0-97.0-3.0,,,,,,,,,,,"[{""stimulus"":""run_exp/static/images/task_images/dig.jpg"",""time"":0.4100000000325963},{""stimulus"":""run_exp/static/images/task_images/land.jpg"",""time"":668.5950000000885},{""stimulus"":""run_exp/static/images/task_images/dig.jpg"",""time"":1335.8649999999907}]",[],13,,,,,,,,,,,,,,
harvest,315,861414,0.0-97.0-4.0,,null,run_exp/static/images/task_images/gems/92.jpg,null,,,,,,71,,,13,,,,,92,0.769318111,0.77173913,,,,,,,
decision,316,861503,0.0-97.0-5.0,,87.205,run_exp/static/images/task_images/land.jpg,65,,,,,,71,,,13,,,,,,,,157827,2,0,FALSE,,,
dig,317,864420,0.0-98.0-0.0,,,,,,,,,,,"[{""stimulus"":""run_exp/static/images/task_images/dig.jpg"",""time"":0.2600000000093132},{""stimulus"":""run_exp/static/images/task_images/land.jpg"",""time"":971.410000000149},{""stimulus"":""run_exp/static/images/task_images/dig.jpg"",""time"":1941.6750000000466}]",[],13,,,,,,,,,,,,,,
harvest,318,865422,0.0-98.0-1.0,,null,run_exp/static/images/task_images/gems/71.jpg,null,,,,,,58,,,13,,,,,71,0.818843017,0.816901408,,,,,,,
decision,319,865487,0.0-98.0-2.0,,63.735,run_exp/static/images/task_images/land.jpg,65,,,,,,58,,,13,,,,,,,,161812,2,1,FALSE,,,
dig,320,868430,0.0-99.0-0.0,,,,,,,,,,,"[{""stimulus"":""run_exp/static/images/task_images/dig.jpg"",""time"":0.21000000007916242},{""stimulus"":""run_exp/static/images/task_images/land.jpg"",""time"":979.6900000000605},{""stimulus"":""run_exp/static/images/task_images/dig.jpg"",""time"":1957.5950000000885}]",[],13,,,,,,,,,,,,,,
harvest,321,869432,0.0-99.0-1.0,,null,run_exp/static/images/task_images/gems/58.jpg,null,,,,,,47,,,13,,,,,58,0.804660609,0.810344828,,,,,,,
decision,322,870710,0.0-99.0-2.0,,1275.31,run_exp/static/images/task_images/land.jpg,65,,,,,,47,,,13,,,,,,,,167034,2,2,FALSE,,,
dig,323,872439,0.0-100.0-0.0,,,,,,,,,,,"[{""stimulus"":""run_exp/static/images/task_images/dig.jpg"",""time"":0.19999999995343387},{""stimulus"":""run_exp/static/images/task_images/land.jpg"",""time"":575.7599999998929},{""stimulus"":""run_exp/static/images/task_images/dig.jpg"",""time"":1149.5149999997811}]",[],13,,,,,,,,,,,,,,
harvest,324,873441,0.0-100.0-1.0,,null,run_exp/static/images/task_images/gems/47.jpg,null,,,,,,40,,,13,,,,,47,0.848151432,0.85106383,,,,,,,
decision,325,873696,0.0-100.0-2.0,,253.395,run_exp/static/images/task_images/land.jpg,65,,,,,,40,,,13,,,,,,,,170020,2,3,FALSE,,,
dig,326,876447,0.0-101.0-0.0,,,,,,,,,,,"[{""stimulus"":""run_exp/static/images/task_images/dig.jpg"",""time"":0.20499999995809048},{""stimulus"":""run_exp/static/images/task_images/land.jpg"",""time"":916.5999999999767},{""stimulus"":""run_exp/static/images/task_images/dig.jpg"",""time"":1831.9049999999115}]",[],13,,,,,,,,,,,,,,
harvest,327,877449,0.0-101.0-1.0,,null,run_exp/static/images/task_images/gems/40.jpg,null,,,,,,32,,,13,,,,,40,0.79265827,0.8,,,,,,,
decision,328,877602,0.0-101.0-2.0,,150.96,run_exp/static/images/task_images/land.jpg,65,,,,,,32,,,13,,,,,,,,173927,2,4,FALSE,,,
dig,329,880456,0.0-102.0-0.0,,,,,,,,,,,"[{""stimulus"":""run_exp/static/images/task_images/dig.jpg"",""time"":0.47000000020489097},{""stimulus"":""run_exp/static/images/task_images/land.jpg"",""time"":950.9000000000233},{""stimulus"":""run_exp/static/images/task_images/dig.jpg"",""time"":1899.4750000002095}]",[],13,,,,,,,,,,,,,,
harvest,330,881458,0.0-102.0-1.0,,null,run_exp/static/images/task_images/gems/32.jpg,null,,,,,,28,,,13,,,,,32,0.868544281,0.875,,,,,,,
decision,331,881934,0.0-102.0-2.0,,473.955,run_exp/static/images/task_images/land.jpg,65,,,,,,28,,,13,,,,,,,,178258,2,5,FALSE,,,
dig,332,884466,0.0-103.0-0.0,,,,,,,,,,,"[{""stimulus"":""run_exp/static/images/task_images/dig.jpg"",""time"":0.19999999995343387},{""stimulus"":""run_exp/static/images/task_images/land.jpg"",""time"":843.5449999999255},{""stimulus"":""run_exp/static/images/task_images/dig.jpg"",""time"":1685.6800000000512}]",[],13,,,,,,,,,,,,,,
harvest,333,885468,0.0-103.0-1.0,,null,run_exp/static/images/task_images/gems/28.jpg,null,,,,,,22,,,13,,,,,28,0.777540908,0.785714286,,,,,,,
decision,334,886225,0.0-103.0-2.0,,755.285,run_exp/static/images/task_images/land.jpg,65,,,,,,22,,,13,,,,,,,,182549,2,6,FALSE,,,
dig,335,888477,0.0-104.0-0.0,,,,,,,,,,,"[{""stimulus"":""run_exp/static/images/task_images/dig.jpg"",""time"":0.2549999998882413},{""stimulus"":""run_exp/static/images/task_images/land.jpg"",""time"":749.6149999999907},{""stimulus"":""run_exp/static/images/task_images/dig.jpg"",""time"":1497.6350000000093}]",[],13,,,,,,,,,,,,,,
harvest,336,889478,0.0-104.0-1.0,,null,run_exp/static/images/task_images/gems/22.jpg,null,,,,,,19,,,13,,,,,22,0.845255517,0.863636364,,,,,,,
decision,337,889879,0.0-104.0-2.0,,398.315,run_exp/static/images/task_images/land.jpg,65,,,,,,19,,,13,,,,,,,,186203,2,7,FALSE,,,
dig,338,892486,0.0-105.0-0.0,,,,,,,,,,,"[{""stimulus"":""run_exp/static/images/task_images/dig.jpg"",""time"":0.19999999995343387},{""stimulus"":""run_exp/static/images/task_images/land.jpg"",""time"":868.8949999997858},{""stimulus"":""run_exp/static/images/task_images/dig.jpg"",""time"":1735.5199999999022}]",[],13,,,,,,,,,,,,,,
harvest,339,893488,0.0-105.0-1.0,,null,run_exp/static/images/task_images/gems/19.jpg,null,,,,,,16,,,13,,,,,19,0.856084799,0.842105263,,,,,,,
decision,340,894604,0.0-105.0-2.0,,1114.31,run_exp/static/images/task_images/land.jpg,76,,,,,,16,,,13,,,,,,,,190929,2,8,TRUE,,,
travel,341,903495,0.0-106.0-0.0,,,,,,,,,,,"[{""stimulus"":""run_exp/static/images/task_images/rocket-01.jpg"",""time"":0.2400000001071021},{""stimulus"":""run_exp/static/images/task_images/rocket-02.jpg"",""time"":988.4699999999721},{""stimulus"":""run_exp/static/images/task_images/rocket-03.jpg"",""time"":1975.4800000000978},{""stimulus"":""run_exp/static/images/task_images/rocket-04.jpg"",""time"":2962.3899999998976},{""stimulus"":""run_exp/static/images/task_images/rocket-05.jpg"",""time"":3949.6500000000233},{""stimulus"":""run_exp/static/images/task_images/rocket-06.jpg"",""time"":4936.51500000013},{""stimulus"":""run_exp/static/images/task_images/rocket-07.jpg"",""time"":5923.9199999999255},{""stimulus"":""run_exp/static/images/task_images/rocket-08.jpg"",""time"":6910.859999999986},{""stimulus"":""run_exp/static/images/task_images/rocket-09.jpg"",""time"":7897.394999999902}]",[],13,,,,,,,,,,,,,,
alien_welcome,342,908498,0.0-106.0-1.0,,null,run_exp/static/images/task_images/aliens/old_aliens/planet/alien_planet-2.jpg,null,,,,,,,,,,,,2,"35,14,51,30,57,72,36,33,73,54,28,20,61,2,34,12,59,17,43,40,6,24,60,79,32,31,76,5,4,46,3",,,,,,,,,,
land,343,909003,0.0-106.0-2.0,,null,run_exp/static/images/task_images/land.jpg,null,,,,,,98,,,14,,,,,,,,,,,,,,
dig,344,911008,0.0-106.0-3.0,,,,,,,,,,,"[{""stimulus"":""run_exp/static/images/task_images/dig.jpg"",""time"":0.35500000009778887},{""stimulus"":""run_exp/static/images/task_images/land.jpg"",""time"":668.9149999999208},{""stimulus"":""run_exp/static/images/task_images/dig.jpg"",""time"":1335.704999999958}]",[],14,,,,,,,,,,,,,,
harvest,345,912011,0.0-106.0-4.0,,null,run_exp/static/images/task_images/gems/98.jpg,null,,,,,,74,,,14,,,,,98,0.751145623,0.755102041,,,,,,,
decision,346,912816,0.0-106.0-5.0,,801.94,run_exp/static/images/task_images/land.jpg,65,,,,,,74,,,14,,,,,,,,209140,2,0,FALSE,,,
dig,347,915019,0.0-107.0-0.0,,,,,,,,,,,"[{""stimulus"":""run_exp/static/images/task_images/dig.jpg"",""time"":0.20499999984167516},{""stimulus"":""run_exp/static/images/task_images/land.jpg"",""time"":734.015000000014},{""stimulus"":""run_exp/static/images/task_images/dig.jpg"",""time"":1465.484999999986}]",[],14,,,,,,,,,,,,,,
harvest,348,916021,0.0-107.0-1.0,,null,run_exp/static/images/task_images/gems/74.jpg,null,,,,,,63,,,14,,,,,74,0.8449085,0.851351351,,,,,,,
decision,349,916378,0.0-107.0-2.0,,354.685,run_exp/static/images/task_images/land.jpg,65,,,,,,63,,,14,,,,,,,,212703,2,1,FALSE,,,
dig,350,919032,0.0-108.0-0.0,,,,,,,,,,,"[{""stimulus"":""run_exp/static/images/task_images/dig.jpg"",""time"":0.27999999991152436},{""stimulus"":""run_exp/static/images/task_images/land.jpg"",""time"":882.5699999999488},{""stimulus"":""run_exp/static/images/task_images/dig.jpg"",""time"":1763.4199999999255}]",[],14,,,,,,,,,,,,,,
harvest,351,920034,0.0-108.0-1.0,,null,run_exp/static/images/task_images/gems/63.jpg,null,,,,,,48,,,14,,,,,63,0.765241775,0.761904762,,,,,,,
decision,352,920260,0.0-108.0-2.0,,224.24,run_exp/static/images/task_images/land.jpg,65,,,,,,48,,,14,,,,,,,,216584,2,2,FALSE,,,
dig,353,923043,0.0-109.0-0.0,,,,,,,,,,,"[{""stimulus"":""run_exp/static/images/task_images/dig.jpg"",""time"":0.3800000000046566},{""stimulus"":""run_exp/static/images/task_images/land.jpg"",""time"":926.7750000001397},{""stimulus"":""run_exp/static/images/task_images/dig.jpg"",""time"":1851.6650000001537}]",[],14,,,,,,,,,,,,,,
harvest,354,924045,0.0-109.0-1.0,,null,run_exp/static/images/task_images/gems/48.jpg,null,,,,,,38,,,14,,,,,48,0.798999615,0.791666667,,,,,,,
decision,355,924897,0.0-109.0-2.0,,849.92,run_exp/static/images/task_images/land.jpg,65,,,,,,38,,,14,,,,,,,,221221,2,3,FALSE,,,
dig,356,927052,0.0-110.0-0.0,,,,,,,,,,,"[{""stimulus"":""run_exp/static/images/task_images/dig.jpg"",""time"":0.19999999995343387},{""stimulus"":""run_exp/static/images/task_images/land.jpg"",""time"":717.5799999999581},{""stimulus"":""run_exp/static/images/task_images/dig.jpg"",""time"":1433.6450000000186}]",[],14,,,,,,,,,,,,,,
harvest,357,928054,0.0-110.0-1.0,,null,run_exp/static/images/task_images/gems/38.jpg,null,,,,,,31,,,14,,,,,38,0.80851546,0.815789474,,,,,,,
decision,358,928653,0.0-110.0-2.0,,596.85,run_exp/static/images/task_images/land.jpg,65,,,,,,31,,,14,,,,,,,,224977,2,4,FALSE,,,
dig,359,931063,0.0-111.0-0.0,,,,,,,,,,,"[{""stimulus"":""run_exp/static/images/task_images/dig.jpg"",""time"":0.19999999995343387},{""stimulus"":""run_exp/static/images/task_images/land.jpg"",""time"":802.5200000000186},{""stimulus"":""run_exp/static/images/task_images/dig.jpg"",""time"":1603.4299999999348}]",[],14,,,,,,,,,,,,,,
harvest,360,932065,0.0-111.0-1.0,,null,run_exp/static/images/task_images/gems/31.jpg,null,,,,,,26,,,14,,,,,31,0.851258373,0.838709677,,,,,,,
decision,361,933016,0.0-111.0-2.0,,948.91,run_exp/static/images/task_images/land.jpg,76,,,,,,26,,,14,,,,,,,,229341,2,5,TRUE,,,
travel,362,942068,0.0-112.0-0.0,,,,,,,,,,,"[{""stimulus"":""run_exp/static/images/task_images/rocket-01.jpg"",""time"":0.22500000009313226},{""stimulus"":""run_exp/static/images/task_images/rocket-02.jpg"",""time"":1006.5899999999674},{""stimulus"":""run_exp/static/images/task_images/rocket-03.jpg"",""time"":2011.3400000000838},{""stimulus"":""run_exp/static/images/task_images/rocket-04.jpg"",""time"":3016.140000000014},{""stimulus"":""run_exp/static/images/task_images/rocket-05.jpg"",""time"":4021.8050000001676},{""stimulus"":""run_exp/static/images/task_images/rocket-06.jpg"",""time"":5026.284999999916},{""stimulus"":""run_exp/static/images/task_images/rocket-07.jpg"",""time"":6031.760000000126},{""stimulus"":""run_exp/static/images/task_images/rocket-08.jpg"",""time"":7036.650000000023},{""stimulus"":""run_exp/static/images/task_images/rocket-09.jpg"",""time"":8041.170000000042}]",[],14,,,,,,,,,,,,,,
alien_welcome,363,947072,0.0-112.0-1.0,,null,run_exp/static/images/task_images/aliens/old_aliens/planet/alien_planet-34.jpg,null,,,,,,,,,,,,34,"35,14,51,30,57,72,36,33,73,54,28,20,61,2,34,12,59,17,43,40,6,24,60,79,32,31,76,5,4,46,3",,,,,,,,,,
land,364,947574,0.0-112.0-2.0,,null,run_exp/static/images/task_images/land.jpg,null,,,,,,96,,,15,,,,,,,,,,,,,,
dig,365,949579,0.0-112.0-3.0,,,,,,,,,,,"[{""stimulus"":""run_exp/static/images/task_images/dig.jpg"",""time"":0.3649999999906868},{""stimulus"":""run_exp/static/images/task_images/land.jpg"",""time"":669.0550000000512},{""stimulus"":""run_exp/static/images/task_images/dig.jpg"",""time"":1335.954999999958}]",[],15,,,,,,,,,,,,,,
harvest,366,950580,0.0-112.0-4.0,,null,run_exp/static/images/task_images/gems/96.jpg,null,,,,,,63,,,15,,,,,96,0.66131121,0.65625,,,,,,,
decision,367,950882,0.0-112.0-5.0,,300.03,run_exp/static/images/task_images/land.jpg,65,,,,,,63,,,15,,,,,,,,247206,2,0,FALSE,,,
dig,368,953587,0.0-113.0-0.0,,,,,,,,,,,"[{""stimulus"":""run_exp/static/images/task_images/dig.jpg"",""time"":0.2149999999674037},{""stimulus"":""run_exp/static/images/task_images/land.jpg"",""time"":900.625},{""stimulus"":""run_exp/static/images/task_images/dig.jpg"",""time"":1799.1850000000559}]",[],15,,,,,,,,,,,,,,
harvest,369,954589,0.0-113.0-1.0,,null,run_exp/static/images/task_images/gems/63.jpg,null,,,,,,52,,,15,,,,,63,0.823256994,0.825396825,,,,,,,
decision,370,956643,0.0-113.0-2.0,,2051.885,run_exp/static/images/task_images/land.jpg,65,,,,,,52,,,15,,,,,,,,252967,2,1,FALSE,,,
dig,371,957599,0.0-114.0-0.0,,,,,,,,,,,"[{""stimulus"":""run_exp/static/images/task_images/dig.jpg"",""time"":0.26500000013038516},{""stimulus"":""run_exp/static/images/task_images/land.jpg"",""time"":317.48500000010245},{""stimulus"":""run_exp/static/images/task_images/dig.jpg"",""time"":633.3400000000838}]",[],15,,,,,,,,,,,,,,
harvest,372,958601,0.0-114.0-1.0,,null,run_exp/static/images/task_images/gems/52.jpg,null,,,,,,39,,,15,,,,,52,0.751304227,0.75,,,,,,,
decision,373,959063,0.0-114.0-2.0,,460.625,run_exp/static/images/task_images/land.jpg,65,,,,,,39,,,15,,,,,,,,255387,2,2,FALSE,,,
dig,374,961609,0.0-115.0-0.0,,,,,,,,,,,"[{""stimulus"":""run_exp/static/images/task_images/dig.jpg"",""time"":0.3200000001816079},{""stimulus"":""run_exp/static/images/task_images/land.jpg"",""time"":847.4499999999534},{""stimulus"":""run_exp/static/images/task_images/dig.jpg"",""time"":1693.640000000014}]",[],15,,,,,,,,,,,,,,
harvest,375,962611,0.0-115.0-1.0,,null,run_exp/static/images/task_images/gems/39.jpg,null,,,,,,29,,,15,,,,,39,0.74402578,0.743589744,,,,,,,
decision,376,963874,0.0-115.0-2.0,,1260.96,run_exp/static/images/task_images/land.jpg,65,,,,,,29,,,15,,,,,,,,260198,2,3,FALSE,,,
dig,377,965618,0.0-116.0-0.0,,,,,,,,,,,"[{""stimulus"":""run_exp/static/images/task_images/dig.jpg"",""time"":0.19999999995343387},{""stimulus"":""run_exp/static/images/task_images/land.jpg"",""time"":580.2849999999162},{""stimulus"":""run_exp/static/images/task_images/dig.jpg"",""time"":1159.3199999999488}]",[],15,,,,,,,,,,,,,,
harvest,378,966620,0.0-116.0-1.0,,null,run_exp/static/images/task_images/gems/29.jpg,null,,,,,,23,,,15,,,,,29,0.796247244,0.793103448,,,,,,,
decision,379,968312,0.0-116.0-2.0,,1689.75,run_exp/static/images/task_images/land.jpg,65,,,,,,23,,,15,,,,,,,,264636,2,4,FALSE,,,
dig,380,969627,0.0-117.0-0.0,,,,,,,,,,,"[{""stimulus"":""run_exp/static/images/task_images/dig.jpg"",""time"":0.23500000010244548},{""stimulus"":""run_exp/static/images/task_images/land.jpg"",""time"":437.65500000014435},{""stimulus"":""run_exp/static/images/task_images/dig.jpg"",""time"":873.410000000149}]",[],15,,,,,,,,,,,,,,
harvest,381,970629,0.0-117.0-1.0,,null,run_exp/static/images/task_images/gems/23.jpg,null,,,,,,19,,,15,,,,,23,0.834803327,0.826086957,,,,,,,
decision,382,971235,0.0-117.0-2.0,,602.95,run_exp/static/images/task_images/land.jpg,65,,,,,,19,,,15,,,,,,,,267559,2,5,FALSE,,,
dig,383,973640,0.0-118.0-0.0,,,,,,,,,,,"[{""stimulus"":""run_exp/static/images/task_images/dig.jpg"",""time"":0.24500000022817403},{""stimulus"":""run_exp/static/images/task_images/land.jpg"",""time"":800.5100000000093},{""stimulus"":""run_exp/static/images/task_images/dig.jpg"",""time"":1599.425000000163}]",[],15,,,,,,,,,,,,,,
harvest,384,974647,0.0-118.0-1.0,,null,run_exp/static/images/task_images/gems/19.jpg,null,,,,,,16,,,15,,,,,19,0.823881027,0.842105263,,,,,,,
decision,385,974881,0.0-118.0-2.0,,231.77,run_exp/static/images/task_images/land.jpg,65,,,,,,16,,,15,,,,,,,,271205,2,6,FALSE,,,
dig,386,977656,0.0-119.0-0.0,,,,,,,,,,,"[{""stimulus"":""run_exp/static/images/task_images/dig.jpg"",""time"":0.22499999997671694},{""stimulus"":""run_exp/static/images/task_images/land.jpg"",""time"":923.5000000001164},{""stimulus"":""run_exp/static/images/task_images/dig.jpg"",""time"":1845.7000000000698}]",[],15,,,,,,,,,,,,,,
harvest,387,978658,0.0-119.0-1.0,,null,run_exp/static/images/task_images/gems/16.jpg,null,,,,,,14,,,15,,,,,16,0.847580755,0.875,,,,,,,
decision,388,979409,0.0-119.0-2.0,,749.14,run_exp/static/images/task_images/land.jpg,65,,,,,,14,,,15,,,,,,,,275733,2,7,FALSE,,,
dig,389,981666,0.0-120.0-0.0,,,,,,,,,,,"[{""stimulus"":""run_exp/static/images/task_images/dig.jpg"",""time"":0.27000000001862645},{""stimulus"":""run_exp/static/images/task_images/land.jpg"",""time"":751.7899999998044},{""stimulus"":""run_exp/static/images/task_images/dig.jpg"",""time"":1501.6449999997858}]",[],15,,,,,,,,,,,,,,
harvest,390,982669,0.0-120.0-1.0,,null,run_exp/static/images/task_images/gems/14.jpg,null,,,,,,12,,,15,,,,,14,0.86011835,0.857142857,,,,,,,
decision,391,983883,0.0-120.0-2.0,,1212.805,run_exp/static/images/task_images/land.jpg,76,,,,,,12,,,15,,,,,,,,280207,2,8,TRUE,,,
travel,392,992675,0.0-121.0-0.0,,,,,,,,,,,"[{""stimulus"":""run_exp/static/images/task_images/rocket-01.jpg"",""time"":0.21500000008381903},{""stimulus"":""run_exp/static/images/task_images/rocket-02.jpg"",""time"":977.4799999999814},{""stimulus"":""run_exp/static/images/task_images/rocket-03.jpg"",""time"":1953.7000000000698},{""stimulus"":""run_exp/static/images/task_images/rocket-04.jpg"",""time"":2929.3650000002235},{""stimulus"":""run_exp/static/images/task_images/rocket-05.jpg"",""time"":3905.8400000002002},{""stimulus"":""run_exp/static/images/task_images/rocket-06.jpg"",""time"":4881.360000000102},{""stimulus"":""run_exp/static/images/task_images/rocket-07.jpg"",""time"":5857.395000000019},{""stimulus"":""run_exp/static/images/task_images/rocket-08.jpg"",""time"":6833.75},{""stimulus"":""run_exp/static/images/task_images/rocket-09.jpg"",""time"":7809.420000000042}]",[],15,,,,,,,,,,,,,,
alien_welcome,393,997678,0.0-121.0-1.0,,null,run_exp/static/images/task_images/aliens/old_aliens/planet/alien_planet-12.jpg,null,,,,,,,,,,,,12,"35,14,51,30,57,72,36,33,73,54,28,20,61,2,34,12,59,17,43,40,6,24,60,79,32,31,76,5,4,46,3",,,,,,,,,,
land,394,998181,0.0-121.0-2.0,,null,run_exp/static/images/task_images/land.jpg,null,,,,,,103,,,16,,,,,,,,,,,,,,
dig,395,1000185,0.0-121.0-3.0,,,,,,,,,,,"[{""stimulus"":""run_exp/static/images/task_images/dig.jpg"",""time"":0.40499999991152436},{""stimulus"":""run_exp/static/images/task_images/land.jpg"",""time"":668.6749999998137},{""stimulus"":""run_exp/static/images/task_images/dig.jpg"",""time"":1335.8999999997905}]",[],16,,,,,,,,,,,,,,
harvest,396,1001187,0.0-121.0-4.0,,null,run_exp/static/images/task_images/gems/103.jpg,null,,,,,,91,,,16,,,,,103,0.878785106,0.883495146,,,,,,,
decision,397,1001964,0.0-121.0-5.0,,774.465,run_exp/static/images/task_images/land.jpg,65,,,,,,91,,,16,,,,,,,,298289,2,0,FALSE,,,
dig,398,1004195,0.0-122.0-0.0,,,,,,,,,,,"[{""stimulus"":""run_exp/static/images/task_images/dig.jpg"",""time"":0.19500000006519258},{""stimulus"":""run_exp/static/images/task_images/land.jpg"",""time"":742.3699999998789},{""stimulus"":""run_exp/static/images/task_images/dig.jpg"",""time"":1483.6300000000047}]",[],16,,,,,,,,,,,,,,
harvest,399,1005197,0.0-122.0-1.0,,null,run_exp/static/images/task_images/gems/91.jpg,null,,,,,,76,,,16,,,,,91,0.834067653,0.835164835,,,,,,,
decision,400,1005574,0.0-122.0-2.0,,374.75,run_exp/static/images/task_images/land.jpg,65,,,,,,76,,,16,,,,,,,,301898,2,1,TRUE,,,
end_of_block_continue,401,1014611,0.0-123.0-0.0,,null,run_exp/static/audio/clip_32_block_end.m4a,,,,,,null,,,,,,,,,,,,,,,,,,
alien_welcome,402,1019618,0.0-124.0-0.0,,null,run_exp/static/images/task_images/aliens/old_aliens/planet/alien_planet-59.jpg,null,,,,,,,,,,,,59,"35,14,51,30,57,72,36,33,73,54,28,20,61,2,34,12,59,17,43,40,6,24,60,79,32,31,76,5,4,46,3",,,,,,,,,,
land,403,1020120,0.0-124.0-1.0,,null,run_exp/static/images/task_images/land.jpg,null,,,,,,102,,,17,,,,,,,,,,,,,,
dig,404,1022125,0.0-124.0-2.0,,,,,,,,,,,"[{""stimulus"":""run_exp/static/images/task_images/dig.jpg"",""time"":0.4249999998137355},{""stimulus"":""run_exp/static/images/task_images/land.jpg"",""time"":668.8199999999488},{""stimulus"":""run_exp/static/images/task_images/dig.jpg"",""time"":1336.0999999999767}]",[],17,,,,,,,,,,,,,,
harvest,405,1023128,0.0-124.0-3.0,,null,run_exp/static/images/task_images/gems/102.jpg,null,,,,,,48,,,17,,,,,102,0.470342985,0.470588235,,,,,,,
decision,406,1023812,0.0-124.0-4.0,,682.53,run_exp/static/images/task_images/land.jpg,65,,,,,,48,,,17,,,,,,,,9196,3,0,FALSE,,,
dig,407,1026136,0.0-125.0-0.0,,,,,,,,,,,"[{""stimulus"":""run_exp/static/images/task_images/dig.jpg"",""time"":0.2249999997438863},{""stimulus"":""run_exp/static/images/task_images/land.jpg"",""time"":773.5349999997998},{""stimulus"":""run_exp/static/images/task_images/dig.jpg"",""time"":1545.5149999997811}]",[],17,,,,,,,,,,,,,,
harvest,408,1027138,0.0-125.0-1.0,,null,run_exp/static/images/task_images/gems/48.jpg,null,,,,,,24,,,17,,,,,48,0.496715959,0.5,,,,,,,
decision,409,1027525,0.0-125.0-2.0,,385.2,run_exp/static/images/task_images/land.jpg,65,,,,,,24,,,17,,,,,,,,12909,3,1,FALSE,,,
dig,410,1030146,0.0-126.0-0.0,,,,,,,,,,,"[{""stimulus"":""run_exp/static/images/task_images/dig.jpg"",""time"":0.25},{""stimulus"":""run_exp/static/images/task_images/land.jpg"",""time"":872.690000000177},{""stimulus"":""run_exp/static/images/task_images/dig.jpg"",""time"":1743.565000000177}]",[],17,,,,,,,,,,,,,,
harvest,411,1031148,0.0-126.0-1.0,,null,run_exp/static/images/task_images/gems/24.jpg,null,,,,,,13,,,17,,,,,24,0.53880428,0.541666667,,,,,,,
decision,412,1031587,0.0-126.0-2.0,,437.465,run_exp/static/images/task_images/land.jpg,65,,,,,,13,,,17,,,,,,,,16972,3,2,FALSE,,,
dig,413,1034157,0.0-127.0-0.0,,,,,,,,,,,"[{""stimulus"":""run_exp/static/images/task_images/dig.jpg"",""time"":0.19999999995343387},{""stimulus"":""run_exp/static/images/task_images/land.jpg"",""time"":855.5999999998603},{""stimulus"":""run_exp/static/images/task_images/dig.jpg"",""time"":1709.4299999999348}]",[],17,,,,,,,,,,,,,,
harvest,414,1035159,0.0-127.0-1.0,,null,run_exp/static/images/task_images/gems/13.jpg,null,,,,,,5,,,17,,,,,13,0.420346098,0.384615385,,,,,,,
decision,415,1036415,0.0-127.0-2.0,,1254.935,run_exp/static/images/task_images/land.jpg,65,,,,,,5,,,17,,,,,,,,21800,3,3,FALSE,,,
dig,416,1038167,0.0-128.0-0.0,,,,,,,,,,,"[{""stimulus"":""run_exp/static/images/task_images/dig.jpg"",""time"":0.20499999984167516},{""stimulus"":""run_exp/static/images/task_images/land.jpg"",""time"":582.1299999998882},{""stimulus"":""run_exp/static/images/task_images/dig.jpg"",""time"":1164.8400000000838}]",[],17,,,,,,,,,,,,,,
harvest,417,1039169,0.0-128.0-1.0,,null,run_exp/static/images/task_images/gems/5.jpg,null,,,,,,2,,,17,,,,,5,0.464580894,0.4,,,,,,,
decision,418,1039264,0.0-128.0-2.0,,93.25,run_exp/static/images/task_images/land.jpg,76,,,,,,2,,,17,,,,,,,,24648,3,4,TRUE,,,
