trial_type,trial_index,time_elapsed,internal_node_id,success,rt,stimulus,key_press,prompt,subject_id,age,gender,button_pressed,next_reward,animation_sequence,responses,planet,curr_prac_trial,n_prac_rounds,alien,aliens,reward_received,decay_rate_actual,decay_rate_exp,time_in_block,block_num,prt,last_trial_on_planet,button_html,bonus,num_failures
pavlovia,0,16,0.0-0.0,,,,,,,,,,,,,,,,,,,,,,,,,,,
fullscreen,1,8972,0.0-1.0,TRUE,,,,,,,,,,,,,,,,,,,,,,,,,,
instruc_welcome,2,18963,0.0-2.0,,null,run_exp/static/audio/clip_1_welcome.m4a,null,"<p>Howdy! In this experiment, you’ll be an explorer traveling through space to collect space treasure.</p><p>Your mission is to collect as much treasure as possible.</p><br><br><p><img src='run_exp/static/images/task_images/opening_img-01.jpg' height='300' width='auto'></p>",TWHKk5jGgmBhUct_a5Ke5UddwllDBGZ_MLRP_09hV5x8XTUNflAy,9.24,male,,,,,,,,,,,,,,,,,,,
audio-keyboard-response,3,35555,0.0-3.0,,null,run_exp/static/audio/clip_2_move.m4a,null,,,,,,,,,,,,,,,,,,,,,,,
welcome_dec,4,47868,0.0-4.0,,12308,"<p>Howdy! In this experiment, you’ll be an explorer traveling through space to collect space treasure.</p><p>Your mission is to collect as much treasure as possible.</p><br><br><p><img src='run_exp/static/images/task_images/opening_img-01.jpg' height='300' width='auto'></p>",,,,,,1,,,,,,,,,,,,,,,,,,
html-keyboard-response,5,51868,0.0-5.0,,3996,"<p>Howdy! In this experiment, you’ll be an explorer traveling through space to collect space treasure.</p><p>Your mission is to collect as much treasure as possible.</p><br><br><p><img src='run_exp/static/images/task_images/opening_img-01.jpg' height='300' width='auto'></p><button class=""jspsych-html-btn-unchosen""><img src=""run_exp/static/images/task_images/planet-01.jpg"" height=""50""></button><button class=""jspsych-html-btn-chosen""><img src=""run_exp/static/images/task_images/planet-02.jpg"" height=""50""></button><p><b>[press the space bar to lock in your answer]<b><br></p>",32,,,,,,,,,,,,,,,,,,,,,,,
instruc_goal,6,61934,0.0-6.0-0.0,,null,run_exp/static/audio/clip_3_goal.m4a,null,"<p> As a space explorer, you’ll visit different planets to dig for space treasure, these pink gems.</p> <p> The more treasure you dig up, the more bonus money you’ll win! </p><br><br><p><img src='run_exp/static/images/task_images/pink_gem.jpg' height='300' width='auto'></p>",,,,,,,,,,,,,,,,,,,,,,
instruc_goal,7,63386,0.0-6.0-1.0,,1448,"<p> As a space explorer, you’ll visit different planets to dig for space treasure, these pink gems.</p> <p> The more treasure you dig up, the more bonus money you’ll win! </p><br><br><p><img src='run_exp/static/images/task_images/pink_gem.jpg' height='300' width='auto'></p>",,,,,,1,,,,,,,,,,,,,,,,,,
html-keyboard-response,8,65384,0.0-6.0-2.0,,1996,"<p> As a space explorer, you’ll visit different planets to dig for space treasure, these pink gems.</p> <p> The more treasure you dig up, the more bonus money you’ll win! </p><br><br><p><img src='run_exp/static/images/task_images/pink_gem.jpg' height='300' width='auto'></p><button class=""jspsych-html-btn-unchosen""><img src=""run_exp/static/images/task_images/planet-01.jpg"" height=""50""></button><button class=""jspsych-html-btn-chosen""><img src=""run_exp/static/images/task_images/planet-02.jpg"" height=""50""></button><p><b>[press the space bar to lock in your answer]<b><br></p>",32,,,,,,,,,,,,,,,,,,,,,,,
instruc_dig,9,81394,0.0-7.0-0.0,,null,run_exp/static/audio/clip_4_dig.m4a,null,,,,,,100,,,,,,,,,,,,,,,,,
instruc_dig_try,10,86161,0.0-7.0-1.0,,4759,"<p> When you’ve arrived at a new planet, you will dig once. </p> <p>Then, you get to decide if you want to stay on the planet and dig again or travel to a new planet and dig there.</p> <p> To stay and dig, press the letter <strong>‘A’</strong> on your keyboard. Try pressing it now! </p><p><img src='run_exp/static/images/task_images/land.jpg'  height='700' width='auto'></p>",65,"<p> When you’ve arrived at a new planet, you will dig once. </p> <p>Then, you get to decide if you want to stay on the planet and dig again or travel to a new planet and dig there.</p> <p> To stay and dig, press the letter <strong>‘A’</strong> on your keyboard. Try pressing it now! </p><p><img src='run_exp/static/images/task_images/land.jpg'  height='700' width='auto'></p>",,,,,100,,,,,,,,,,,,,,,,,
dig_prac,11,88188,0.0-7.0-2.0,,,,,,,,,,,"[{""stimulus"":""run_exp/static/images/task_images/dig.jpg"",""time"":0.9999999892897904},{""stimulus"":""run_exp/static/images/task_images/land.jpg"",""time"":671.9999999913853},{""stimulus"":""run_exp/static/images/task_images/dig.jpg"",""time"":1345.0000000011642}]",[],,,,,,,,,,,,,,,
instruc_travel,12,124434,0.0-7.0-3.0,,null,run_exp/static/audio/clip_5_travel.m4a,null,"<p>Every time you dig up gems, there are less gems on the planet, so the more you dig on a planet the fewer gems you’ll get with each dig.</p><p>When gems are running low, you may want to travel to a new planet. </p> <p>  Planets are very far apart in this galaxy, so it will take some time to travel between them. </p> <br><p>There are lots and lots of planets for you to visit, so you won’t be able to return to any planets you’ve seen before. </p><br><p>To leave this planet and travel to a new one, press the letter <strong>‘L’</strong> on your keyboard. Try pressing it now! </p><p><img src='run_exp/static/images/task_images/rocket-01.jpg'  height='600' width='auto'></p>",,,,,,,,,,,,,,,,,,,,,,
instruc_travel_try,13,128712,0.0-7.0-4.0,,4272,"<p>Every time you dig up gems, there are less gems on the planet, so the more you dig on a planet the fewer gems you’ll get with each dig.</p><p>When gems are running low, you may want to travel to a new planet. </p> <p>  Planets are very far apart in this galaxy, so it will take some time to travel between them. </p> <br><p>There are lots and lots of planets for you to visit, so you won’t be able to return to any planets you’ve seen before. </p><br><p>To leave this planet and travel to a new one, press the letter <strong>‘L’</strong> on your keyboard. Try pressing it now! </p><p><img src='run_exp/static/images/task_images/rocket-01.jpg'  height='600' width='auto'></p>",76,"<p>Every time you dig up gems, there are less gems on the planet, so the more you dig on a planet the fewer gems you’ll get with each dig.</p><p>When gems are running low, you may want to travel to a new planet. </p> <p>  Planets are very far apart in this galaxy, so it will take some time to travel between them. </p> <br><p>There are lots and lots of planets for you to visit, so you won’t be able to return to any planets you’ve seen before. </p><br><p>To leave this planet and travel to a new one, press the letter <strong>‘L’</strong> on your keyboard. Try pressing it now! </p><p><img src='run_exp/static/images/task_images/rocket-01.jpg'  height='600' width='auto'></p>",,,,,,,,,,,,,,,,,,,,,,
travel_prac,14,138723,0.0-7.0-5.0,,,,,,,,,,,"[{""stimulus"":""run_exp/static/images/task_images/rocket-01.jpg"",""time"":0.9999999892897904},{""stimulus"":""run_exp/static/images/task_images/rocket-02.jpg"",""time"":1119.0000000060536},{""stimulus"":""run_exp/static/images/task_images/rocket-03.jpg"",""time"":2233.9999999967404},{""stimulus"":""run_exp/static/images/task_images/rocket-04.jpg"",""time"":3345.999999990454},{""stimulus"":""run_exp/static/images/task_images/rocket-05.jpg"",""time"":4459.000000002561},{""stimulus"":""run_exp/static/images/task_images/rocket-06.jpg"",""time"":5563.999999983935},{""stimulus"":""run_exp/static/images/task_images/rocket-07.jpg"",""time"":6679.000000003725},{""stimulus"":""run_exp/static/images/task_images/rocket-08.jpg"",""time"":7790.000000008149},{""stimulus"":""run_exp/static/images/task_images/rocket-09.jpg"",""time"":8899.00000000489}]",[],0,,,,,,,,,,,,,,
instruc_alien_greet,15,165926,0.0-7.0-6.0,,null,run_exp/static/audio/clip_6_alien.m4a,null,"<p>When you arrive at a new planet, the alien who owns the treasure mine on that planet will greet you!</p><p>The better an alien takes care of their mine the easier it is to dig for gems. Some aliens take better care of their mine than others. So, you won’t get exactly the same amount of gems on each planet.</p><p>What the alien looks like does not tell you anything about how many gems there are on the planet.</p><br><p><img src=""run_exp/static/images/task_images/aliens/instructions_aliens/planet/alien_planet-1.jpg""  height=""600"" width=""auto""></p>",,,,,,,,,,,,,,,,,,,,,,
instruc_alien_greet,16,202973,0.0-7.0-7.0,,37043,"<p>When you arrive at a new planet, the alien who owns the treasure mine on that planet will greet you!</p><p>The better an alien takes care of their mine the easier it is to dig for gems. Some aliens take better care of their mine than others. So, you won’t get exactly the same amount of gems on each planet.</p><p>What the alien looks like does not tell you anything about how many gems there are on the planet.</p><br><p><img src=""run_exp/static/images/task_images/aliens/instructions_aliens/planet/alien_planet-1.jpg""  height=""600"" width=""auto""></p>",,,,,,1,,,,,,,,,,,,,,,,,,
html-keyboard-response,17,204305,0.0-7.0-8.0,,1328,"<p>When you arrive at a new planet, the alien who owns the treasure mine on that planet will greet you!</p><p>The better an alien takes care of their mine the easier it is to dig for gems. Some aliens take better care of their mine than others. So, you won’t get exactly the same amount of gems on each planet.</p><p>What the alien looks like does not tell you anything about how many gems there are on the planet.</p><br><p><img src=""run_exp/static/images/task_images/aliens/instructions_aliens/planet/alien_planet-1.jpg""  height=""600"" width=""auto""></p><button class=""jspsych-html-btn-unchosen""><img src=""run_exp/static/images/task_images/planet-01.jpg"" height=""50""></button><button class=""jspsych-html-btn-chosen""><img src=""run_exp/static/images/task_images/planet-02.jpg"" height=""50""></button><p><b>[press the space bar to lock in your answer]<b><br></p>",32,,,,,,,,,,,,,,,,,,,,,,,
time_out,18,215415,0.0-8.0-0.0,,null,run_exp/static/audio/clip_7_timeout.m4a,null,"<p>If you don't make your choice fast enough, you’ll have to wait a few seconds before you can make another one.</p><p>You can’t dig for more gems or travel to new planets. You just have to sit and wait.</p><br><p><img src='run_exp/static/images/task_images/time_out.jpg'  height='600' width='auto'></p>",,,,,,,,,,,,,,,,,,,,,,
time_out,19,219067,0.0-8.0-1.0,,3650,"<p>If you don't make your choice fast enough, you’ll have to wait a few seconds before you can make another one.</p><p>You can’t dig for more gems or travel to new planets. You just have to sit and wait.</p><br><p><img src='run_exp/static/images/task_images/time_out.jpg'  height='600' width='auto'></p>",,,,,,1,,,,,,,,,,,,,,,,,,
html-keyboard-response,20,219625,0.0-8.0-2.0,,556,"<p>If you don't make your choice fast enough, you’ll have to wait a few seconds before you can make another one.</p><p>You can’t dig for more gems or travel to new planets. You just have to sit and wait.</p><br><p><img src='run_exp/static/images/task_images/time_out.jpg'  height='600' width='auto'></p><button class=""jspsych-html-btn-unchosen""><img src=""run_exp/static/images/task_images/planet-01.jpg"" height=""50""></button><button class=""jspsych-html-btn-chosen""><img src=""run_exp/static/images/task_images/planet-02.jpg"" height=""50""></button><p><b>[press the space bar to lock in your answer]<b><br></p>",32,,,,,,,,,,,,,,,,,,,,,,,
instruc_break,21,235315,0.0-9.0-0.0,,null,run_exp/static/audio/clip_8_break.m4a,null,"<p> After digging and traveling for a while, you’ll be able to take a break at home base. </p><p>The game will last 20 minutes no matter what.</p><p>You will visit home base every 5 minutes, so, you will visit home base three times during the game.</p><br><p><img src='run_exp/static/images/task_images/home_base.jpg' height='600' width='auto'></p>",,,,,,,,,,,,,,,,,,,,,,
instruc_break,22,236651,0.0-9.0-1.0,,1334,"<p> After digging and traveling for a while, you’ll be able to take a break at home base. </p><p>The game will last 20 minutes no matter what.</p><p>You will visit home base every 5 minutes, so, you will visit home base three times during the game.</p><br><p><img src='run_exp/static/images/task_images/home_base.jpg' height='600' width='auto'></p>",,,,,,1,,,,,,,,,,,,,,,,,,
html-keyboard-response,23,236865,0.0-9.0-2.0,,212,"<p> After digging and traveling for a while, you’ll be able to take a break at home base. </p><p>The game will last 20 minutes no matter what.</p><p>You will visit home base every 5 minutes, so, you will visit home base three times during the game.</p><br><p><img src='run_exp/static/images/task_images/home_base.jpg' height='600' width='auto'></p><button class=""jspsych-html-btn-unchosen""><img src=""run_exp/static/images/task_images/planet-01.jpg"" height=""50""></button><button class=""jspsych-html-btn-chosen""><img src=""run_exp/static/images/task_images/planet-02.jpg"" height=""50""></button><p><b>[press the space bar to lock in your answer]<b><br></p>",32,,,,,,,,,,,,,,,,,,,,,,,
instruc_prac_game,24,246995,0.0-10.0-0.0,,null,run_exp/static/audio/clip_9_practice.m4a,null,"<p> Are you ready to play a practice game? </p> <p>In this practice game, you'll be digging up barrels of gems. But, in the real game, you'll be digging up the gems themselves. </p>",,,,,,,,,,,,,,,,,,,,,,
html-button-response,25,253229,0.0-10.0-1.0,,6232,"<p> Are you ready to play a practice game? </p> <p>In this practice game, you'll be digging up barrels of gems. But, in the real game, you'll be digging up the gems themselves. </p>",,,,,,0,,,,,,,,,,,,,,,,,,
alien_welcome_prac,26,258239,0.0-11.0-0.0,,null,run_exp/static/images/task_images/aliens/practice_aliens/planet/alien_planet-5.jpg,null,,,,,,,,,,,,,,,,,,,,,,,
land_prac,27,258743,0.0-11.0-1.0,,null,run_exp/static/images/task_images/land.jpg,null,,,,,,105,,,0,,,,,,,,,,,,,,
dig_prac,28,260759,0.0-11.0-2.0,,,,,,,,,,,"[{""stimulus"":""run_exp/static/images/task_images/dig.jpg"",""time"":0},{""stimulus"":""run_exp/static/images/task_images/land.jpg"",""time"":673.9999999990687},{""stimulus"":""run_exp/static/images/task_images/dig.jpg"",""time"":1336.0000000102445}]",[],,,,,,,,,,,,,,,
harvest_prac,29,261764,0.0-11.0-3.0,,null,run_exp/static/images/task_images/barrel_text.jpg,null,,,,,,,,,,,,,,,,,,,,,,,
decision_prac,30,264457,0.0-11.0-4.0,,2687,run_exp/static/images/task_images/land.jpg,65,,,,,,,,,,1,,,,,,,,,,,,,
dig_prac,31,266469,0.0-12.0-0.0,,,,,,,,,,,"[{""stimulus"":""run_exp/static/images/task_images/dig.jpg"",""time"":0},{""stimulus"":""run_exp/static/images/task_images/land.jpg"",""time"":668.0000000051223},{""stimulus"":""run_exp/static/images/task_images/dig.jpg"",""time"":1343.0000000225846}]",[],,,,,,,,,,,,,,,
harvest_prac,32,267483,0.0-12.0-1.0,,null,run_exp/static/images/task_images/barrel_text.jpg,null,,,,,,,,,,,,,,,,,,,,,,,
decision_prac,33,268977,0.0-12.0-2.0,,1489,run_exp/static/images/task_images/land.jpg,76,,,,,,,,,,2,,,,,,,,,,,,,
travel,34,277499,0.0-13.0-0.0,,,,,,,,,,,"[{""stimulus"":""run_exp/static/images/task_images/rocket-01.jpg"",""time"":0},{""stimulus"":""run_exp/static/images/task_images/rocket-02.jpg"",""time"":957.9999999841675},{""stimulus"":""run_exp/static/images/task_images/rocket-03.jpg"",""time"":1897.9999999864958},{""stimulus"":""run_exp/static/images/task_images/rocket-04.jpg"",""time"":2847.9999999981374},{""stimulus"":""run_exp/static/images/task_images/rocket-05.jpg"",""time"":3788.0000000004657},{""stimulus"":""run_exp/static/images/task_images/rocket-06.jpg"",""time"":4728.000000002794},{""stimulus"":""run_exp/static/images/task_images/rocket-07.jpg"",""time"":5679.000000003725},{""stimulus"":""run_exp/static/images/task_images/rocket-08.jpg"",""time"":6616.99999999837},{""stimulus"":""run_exp/static/images/task_images/rocket-09.jpg"",""time"":7573.000000003958}]",[],0,,,,,,,,,,,,,,
alien_welcome_prac,35,282503,0.0-13.0-1.0,,null,run_exp/static/images/task_images/aliens/practice_aliens/planet/alien_planet-4.jpg,null,,,,,,,,,,,,,,,,,,,,,,,
land_prac,36,283009,0.0-13.0-2.0,,null,run_exp/static/images/task_images/land.jpg,null,,,,,,95,,,0,,,,,,,,,,,,,,
dig_prac,37,285024,0.0-13.0-3.0,,,,,,,,,,,"[{""stimulus"":""run_exp/static/images/task_images/dig.jpg"",""time"":0},{""stimulus"":""run_exp/static/images/task_images/land.jpg"",""time"":672.999999980675},{""stimulus"":""run_exp/static/images/task_images/dig.jpg"",""time"":1347.9999999981374}]",[],,,,,,,,,,,,,,,
harvest_prac,38,286036,0.0-13.0-4.0,,null,run_exp/static/images/task_images/barrel_text.jpg,null,,,,,,,,,,,,,,,,,,,,,,,
decision_prac,39,286345,0.0-13.0-5.0,,306,run_exp/static/images/task_images/land.jpg,65,,,,,,,,,,3,,,,,,,,,,,,,
dig_prac,40,288364,0.0-14.0-0.0,,,,,,,,,,,"[{""stimulus"":""run_exp/static/images/task_images/dig.jpg"",""time"":0},{""stimulus"":""run_exp/static/images/task_images/land.jpg"",""time"":667.0000000158325},{""stimulus"":""run_exp/static/images/task_images/dig.jpg"",""time"":1339.0000000072177}]",[],,,,,,,,,,,,,,,
harvest_prac,41,289374,0.0-14.0-1.0,,null,run_exp/static/images/task_images/barrel_text.jpg,null,,,,,,,,,,,,,,,,,,,,,,,
decision_prac,42,290289,0.0-14.0-2.0,,913,run_exp/static/images/task_images/land.jpg,65,,,,,,,,,,4,,,,,,,,,,,,,
dig_prac,43,292304,0.0-15.0-0.0,,,,,,,,,,,"[{""stimulus"":""run_exp/static/images/task_images/dig.jpg"",""time"":0.9999999892897904},{""stimulus"":""run_exp/static/images/task_images/land.jpg"",""time"":675.9999999776483},{""stimulus"":""run_exp/static/images/task_images/dig.jpg"",""time"":1342.9999999934807}]",[],,,,,,,,,,,,,,,
harvest_prac,44,293327,0.0-15.0-1.0,,null,run_exp/static/images/task_images/barrel_text.jpg,null,,,,,,,,,,,,,,,,,,,,,,,
decision_prac,45,293761,0.0-15.0-2.0,,431,run_exp/static/images/task_images/land.jpg,65,,,,,,,,,,,1,,,,,,,,,,,,
quiz_instruc,46,299878,0.0-16.0-0.0,,6110,run_exp/static/audio/clip_10_quiz.m4a,,,,,,0,,,,,,,,,,,,,,,,,,
instruc_repeat,47,342635,0.0-16.0-1.0,,null,"<p> Are you ready to play a practice game? </p> <p>In this practice game, you'll be digging up barrels of gems. But, in the real game, you'll be digging up the gems themselves. </p>",null,"<p>In this game, your goal is to collect as many gems as you can. That’s how you will win bonus money. </p> <p>The entire game will last 20 minutes no matter how many gems you collect or how many planets you visit. </p><p>To stay on a planet and dig again, press the letter A on your keyboard. To leave for a new planet, press the letter L.</p><p>The more you dig on a planet, the fewer gems you’ll get with each dig which is why you might consider leaving for a new planet. </p><p>When you arrive at a new planet, you’ll be greeted by an alien. What the alien looks like does not tell you anything about how much treasure is on the planet. </p>",,,,,,,,,,,,,,,,,,,,,,
instruc_repeat_continue,48,373971,0.0-16.0-2.0,,31332,"<p> Are you ready to play a practice game? </p> <p>In this practice game, you'll be digging up barrels of gems. But, in the real game, you'll be digging up the gems themselves. </p>",,,,,,0,,,,,,,,,,,,,,,,,,
quiz_q_1_ask,49,382092,0.0-16.0-3.0,,8116,run_exp/static/audio/clip_11_q1_ask.m4a,,,,,,2,,,,,,,,,,,,,,,,,,
quiz_q_1_fb_correct,50,385945,0.0-17.0-0.0,,null,run_exp/static/audio/clip_12_q1_corrrect.m4a,null,<p>That’s correct. You win extra money by collecting more gems.</p>,,,,,,,,,,,,,,,,,,,,,,
quiz_q_2_ask,51,390316,0.0-17.0-1.0,,4369,run_exp/static/audio/clip_14_q2_ask.m4a,,,,,,1,,,,,,,,,,,,,,,,,,
quiz_q_2_fb_correct,52,394324,0.0-18.0-0.0,,null,run_exp/static/audio/clip_15_q2_correct.m4a,null,<p>That’s correct. The experiment is 20 minutes no matter what.</p>,,,,,,,,,,,,,,,,,,,,,,
quiz_q_3_ask,53,398644,0.0-18.0-1.0,,4317,run_exp/static/audio/clip_17_q3_ask.m4a,,,,,,1,,,,,,,,,,,,,,,,,,
quiz_q_3_fb_correct,54,402625,0.0-19.0-0.0,,null,run_exp/static/audio/clip_18_q3_correct.m4a,null,<p> That’s correct. You press the letter L to travel to a new planet.</p>,,,,,,,,,,,,,,,,,,,,,,
quiz_q_4_ask,55,408740,0.0-19.0-1.0,,6112,run_exp/static/audio/clip_20_q4_ask.m4a,,,,,,0,,,,,,,,,,,,,,,,,,
quiz_q_4_fb_correct,56,414065,0.0-20.0-0.0,,null,run_exp/static/audio/clip_21_q4_correct.m4a,null,<p> That’s correct. The more you dig on a planet the fewer gems you’ll get with each dig. </p>,,,,,,,,,,,,,,,,,,,,,,
quiz_q_5_ask,57,418909,0.0-20.0-1.0,,4840,run_exp/static/audio/clip_23_q5_ask.m4a,,,,,,1,,,,,,,,,,,,,,,,,,
quiz_q_5_fb_correct,58,423925,0.0-21.0-0.0,,null,run_exp/static/audio/clip_24_q5_correct.m4a,null,<p> That’s correct. The alien tells you nothing about how much treasure is on the planet.</p>,,,,,,,,,,,,,,,,,,,,,,
quiz_correct,59,427385,0.0-22.0-0.0,,null,run_exp/static/audio/clip_26_correct_quiz.m4a,null,,,,,,,,,,,,,,,,,,,,,,,
quiz_correct_continue,60,447195,0.0-22.0-1.0,,19809,<p>Good job! You're now ready to move on to the real game!</p>,,,,,,0,,,,,,,,,,,,,,,,,,
audio-keyboard-response,61,457326,0.0-22.0-2.0,,null,run_exp/static/audio/clip_28_real_game.m4a,null,,,,,,,,,,,,,,,,,,,,,,,
instruc_begin_exp_contine,62,459956,0.0-22.0-3.0,,2627,"<p>Now that you know how  to dig for space treasure and travel to new planets,you can start exploring! </p><p>Do you want to go over the instructions again or get started with the real game?</p>",,,,,,1,,,,,,1,,,,,,,,,,,,
alien_welcome,63,464985,0.0-23.0-0.0,,null,run_exp/static/images/task_images/aliens/old_aliens/planet/alien_planet-19.jpg,null,,,,,,,,,,,,19,"19,17,31,11,58,63,74,44,4,50,15,36,54,62,16,45,75,69,22,70,51,5,52,59,78,37,68,21,76,30,47,49,33,61,14,55,79,2,12,32,6,64,57,77,27,43,25,53,3,20,1,39,56,9,72",,,,,,,,,,
land,64,465499,0.0-23.0-1.0,,null,run_exp/static/images/task_images/land.jpg,null,,,,,,94,,,1,,,,,,,,,,,,,,
dig,65,467509,0.0-23.0-2.0,,,,,,,,,,,"[{""stimulus"":""run_exp/static/images/task_images/dig.jpg"",""time"":0},{""stimulus"":""run_exp/static/images/task_images/land.jpg"",""time"":673.0000000097789},{""stimulus"":""run_exp/static/images/task_images/dig.jpg"",""time"":1344.0000000118744}]",[],1,,,,,,,,,,,,,,
harvest,66,468513,0.0-23.0-3.0,,null,run_exp/static/images/task_images/gems/94.jpg,null,,,,,,19,,,1,,,,,94,0.200605773,0.20212766,,,,,,,
decision,67,469921,0.0-23.0-4.0,,1405,run_exp/static/images/task_images/land.jpg,65,,,,,,19,,,1,,,,,,,,9960,1,0,FALSE,,,
dig,68,471534,0.0-24.0-0.0,,,,,,,,,,,"[{""stimulus"":""run_exp/static/images/task_images/dig.jpg"",""time"":1.0000000183936208},{""stimulus"":""run_exp/static/images/task_images/land.jpg"",""time"":539.0000000188593},{""stimulus"":""run_exp/static/images/task_images/dig.jpg"",""time"":1076.999999990221}]",[],1,,,,,,,,,,,,,,
harvest,69,472541,0.0-24.0-1.0,,null,run_exp/static/images/task_images/gems/19.jpg,null,,,,,,5,,,1,,,,,19,0.239900168,0.263157895,,,,,,,
decision,70,472737,0.0-24.0-2.0,,189,run_exp/static/images/task_images/land.jpg,65,,,,,,5,,,1,,,,,,,,12776,1,1,FALSE,,,
dig,71,475554,0.0-25.0-0.0,,,,,,,,,,,"[{""stimulus"":""run_exp/static/images/task_images/dig.jpg"",""time"":0},{""stimulus"":""run_exp/static/images/task_images/land.jpg"",""time"":941.9999999809079},{""stimulus"":""run_exp/static/images/task_images/dig.jpg"",""time"":1877.0000000076834}]",[],1,,,,,,,,,,,,,,
harvest,72,476565,0.0-25.0-1.0,,null,run_exp/static/images/task_images/gems/5.jpg,null,,,,,,1,,,1,,,,,5,0.207162754,0.2,,,,,,,
decision,73,476633,0.0-25.0-2.0,,65,run_exp/static/images/task_images/land.jpg,76,,,,,,1,,,1,,,,,,,,16672,1,2,TRUE,,,
travel,74,486571,0.0-26.0-0.0,,,,,,,,,,,"[{""stimulus"":""run_exp/static/images/task_images/rocket-01.jpg"",""time"":0},{""stimulus"":""run_exp/static/images/task_images/rocket-02.jpg"",""time"":1119.0000000060536},{""stimulus"":""run_exp/static/images/task_images/rocket-03.jpg"",""time"":2227.000000013504},{""stimulus"":""run_exp/static/images/task_images/rocket-04.jpg"",""time"":3323.999999993248},{""stimulus"":""run_exp/static/images/task_images/rocket-05.jpg"",""time"":4426.999999996042},{""stimulus"":""run_exp/static/images/task_images/rocket-06.jpg"",""time"":5521.999999997206},{""stimulus"":""run_exp/static/images/task_images/rocket-07.jpg"",""time"":6632.00000001234},{""stimulus"":""run_exp/static/images/task_images/rocket-08.jpg"",""time"":7736.999999993714},{""stimulus"":""run_exp/static/images/task_images/rocket-09.jpg"",""time"":8826.000000000931}]",[],1,,,,,,,,,,,,,,
alien_welcome,75,491584,0.0-26.0-1.0,,null,run_exp/static/images/task_images/aliens/old_aliens/planet/alien_planet-17.jpg,null,,,,,,,,,,,,17,"19,17,31,11,58,63,74,44,4,50,15,36,54,62,16,45,75,69,22,70,51,5,52,59,78,37,68,21,76,30,47,49,33,61,14,55,79,2,12,32,6,64,57,77,27,43,25,53,3,20,1,39,56,9,72",,,,,,,,,,
land,76,492098,0.0-26.0-2.0,,null,run_exp/static/images/task_images/land.jpg,null,,,,,,103,,,2,,,,,,,,,,,,,,
dig,77,494109,0.0-26.0-3.0,,,,,,,,,,,"[{""stimulus"":""run_exp/static/images/task_images/dig.jpg"",""time"":0},{""stimulus"":""run_exp/static/images/task_images/land.jpg"",""time"":668.9999999944121},{""stimulus"":""run_exp/static/images/task_images/dig.jpg"",""time"":1337.9999999888241}]",[],2,,,,,,,,,,,,,,
harvest,78,495115,0.0-26.0-4.0,,null,run_exp/static/images/task_images/gems/103.jpg,null,,,,,,17,,,2,,,,,103,0.161876002,0.165048544,,,,,,,
decision,79,495648,0.0-26.0-5.0,,532,run_exp/static/images/task_images/land.jpg,65,,,,,,17,,,2,,,,,,,,35687,1,0,FALSE,,,
dig,80,498129,0.0-27.0-0.0,,,,,,,,,,,"[{""stimulus"":""run_exp/static/images/task_images/dig.jpg"",""time"":0},{""stimulus"":""run_exp/static/images/task_images/land.jpg"",""time"":835.9999999811407},{""stimulus"":""run_exp/static/images/task_images/dig.jpg"",""time"":1646.999999997206}]",[],2,,,,,,,,,,,,,,
harvest,81,499146,0.0-27.0-1.0,,null,run_exp/static/images/task_images/gems/17.jpg,null,,,,,,4,,,2,,,,,17,0.249733732,0.235294118,,,,,,,
decision,82,499179,0.0-27.0-2.0,,31.00000002,run_exp/static/images/task_images/land.jpg,76,,,,,,4,,,2,,,,,,,,39218,1,1,TRUE,,,
travel,83,509149,0.0-28.0-0.0,,,,,,,,,,,"[{""stimulus"":""run_exp/static/images/task_images/rocket-01.jpg"",""time"":0.9999999892897904},{""stimulus"":""run_exp/static/images/task_images/rocket-02.jpg"",""time"":1121.000000013737},{""stimulus"":""run_exp/static/images/task_images/rocket-03.jpg"",""time"":2216.000000014901},{""stimulus"":""run_exp/static/images/task_images/rocket-04.jpg"",""time"":3326.0000000009313},{""stimulus"":""run_exp/static/images/task_images/rocket-05.jpg"",""time"":4440.999999991618},{""stimulus"":""run_exp/static/images/task_images/rocket-06.jpg"",""time"":5537.000000011176},{""stimulus"":""run_exp/static/images/task_images/rocket-07.jpg"",""time"":6656.0000000172295},{""stimulus"":""run_exp/static/images/task_images/rocket-08.jpg"",""time"":7766.00000000326},{""stimulus"":""run_exp/static/images/task_images/rocket-09.jpg"",""time"":8871.000000013737}]",[],2,,,,,,,,,,,,,,
alien_welcome,84,514164,0.0-28.0-1.0,,null,run_exp/static/images/task_images/aliens/old_aliens/planet/alien_planet-31.jpg,null,,,,,,,,,,,,31,"19,17,31,11,58,63,74,44,4,50,15,36,54,62,16,45,75,69,22,70,51,5,52,59,78,37,68,21,76,30,47,49,33,61,14,55,79,2,12,32,6,64,57,77,27,43,25,53,3,20,1,39,56,9,72",,,,,,,,,,
land,85,514669,0.0-28.0-2.0,,null,run_exp/static/images/task_images/land.jpg,null,,,,,,96,,,3,,,,,,,,,,,,,,
dig,86,516678,0.0-28.0-3.0,,,,,,,,,,,"[{""stimulus"":""run_exp/static/images/task_images/dig.jpg"",""time"":0.9999999892897904},{""stimulus"":""run_exp/static/images/task_images/land.jpg"",""time"":677.9999999853317},{""stimulus"":""run_exp/static/images/task_images/dig.jpg"",""time"":1337.9999999888241}]",[],3,,,,,,,,,,,,,,
harvest,87,517689,0.0-28.0-4.0,,null,run_exp/static/images/task_images/gems/96.jpg,null,,,,,,58,,,3,,,,,96,0.603101845,0.604166667,,,,,,,
decision,88,517696,0.0-28.0-5.0,,5.999999994,run_exp/static/images/task_images/land.jpg,76,,,,,,58,,,3,,,,,,,,57735,1,0,TRUE,,,
travel,89,527703,0.0-29.0-0.0,,,,,,,,,,,"[{""stimulus"":""run_exp/static/images/task_images/rocket-01.jpg"",""time"":0},{""stimulus"":""run_exp/static/images/task_images/rocket-02.jpg"",""time"":1117.99999998766},{""stimulus"":""run_exp/static/images/task_images/rocket-03.jpg"",""time"":2232.9999999783468},{""stimulus"":""run_exp/static/images/task_images/rocket-04.jpg"",""time"":3342.000000004191},{""stimulus"":""run_exp/static/images/task_images/rocket-05.jpg"",""time"":4448.000000003958},{""stimulus"":""run_exp/static/images/task_images/rocket-06.jpg"",""time"":5563.999999983935},{""stimulus"":""run_exp/static/images/task_images/rocket-07.jpg"",""time"":6671.999999991385},{""stimulus"":""run_exp/static/images/task_images/rocket-08.jpg"",""time"":7777.000000001863},{""stimulus"":""run_exp/static/images/task_images/rocket-09.jpg"",""time"":8888.000000006286}]",[],3,,,,,,,,,,,,,,
alien_welcome,90,532713,0.0-29.0-1.0,,null,run_exp/static/images/task_images/aliens/old_aliens/planet/alien_planet-11.jpg,null,,,,,,,,,,,,11,"19,17,31,11,58,63,74,44,4,50,15,36,54,62,16,45,75,69,22,70,51,5,52,59,78,37,68,21,76,30,47,49,33,61,14,55,79,2,12,32,6,64,57,77,27,43,25,53,3,20,1,39,56,9,72",,,,,,,,,,
land,91,533217,0.0-29.0-2.0,,null,run_exp/static/images/task_images/land.jpg,null,,,,,,109,,,4,,,,,,,,,,,,,,
dig,92,535223,0.0-29.0-3.0,,,,,,,,,,,"[{""stimulus"":""run_exp/static/images/task_images/dig.jpg"",""time"":0},{""stimulus"":""run_exp/static/images/task_images/land.jpg"",""time"":673.9999999990687},{""stimulus"":""run_exp/static/images/task_images/dig.jpg"",""time"":1350.0000000058208}]",[],4,,,,,,,,,,,,,,
harvest,93,536239,0.0-29.0-4.0,,null,run_exp/static/images/task_images/gems/109.jpg,null,,,,,,57,,,4,,,,,109,0.526670165,0.52293578,,,,,,,
decision,94,536977,0.0-29.0-5.0,,735,run_exp/static/images/task_images/land.jpg,65,,,,,,57,,,4,,,,,,,,77016,1,0,FALSE,,,
dig,95,539248,0.0-30.0-0.0,,,,,,,,,,,"[{""stimulus"":""run_exp/static/images/task_images/dig.jpg"",""time"":0},{""stimulus"":""run_exp/static/images/task_images/land.jpg"",""time"":758.0000000016298},{""stimulus"":""run_exp/static/images/task_images/dig.jpg"",""time"":1519.9999999895226}]",[],4,,,,,,,,,,,,,,
harvest,96,540262,0.0-30.0-1.0,,null,run_exp/static/images/task_images/gems/57.jpg,null,,,,,,29,,,4,,,,,57,0.512404691,0.50877193,,,,,,,
decision,97,543268,0.0-30.0-2.0,,null,run_exp/static/images/task_images/land.jpg,null,,,,,,29,,,4,,,,,,,,83307,1,1,FALSE,,,
time_out,98,545284,0.0-31.0-0.0,,null,run_exp/static/images/task_images/time_out.jpg,null,,,,,,29,,,,,,,,,,,,,,,,,
decision,99,546318,0.0-31.0-1.0,,1028,run_exp/static/images/task_images/land.jpg,76,,,,,,29,,,4,,,,,,,,86357,1,1,TRUE,,,
travel,100,555304,0.0-32.0-0.0,,,,,,,,,,,"[{""stimulus"":""run_exp/static/images/task_images/rocket-01.jpg"",""time"":0},{""stimulus"":""run_exp/static/images/task_images/rocket-02.jpg"",""time"":1002.0000000076834},{""stimulus"":""run_exp/static/images/task_images/rocket-03.jpg"",""time"":1997.9999999923166},{""stimulus"":""run_exp/static/images/task_images/rocket-04.jpg"",""time"":2991.99999999837},{""stimulus"":""run_exp/static/images/task_images/rocket-05.jpg"",""time"":4002.999999996973},{""stimulus"":""run_exp/static/images/task_images/rocket-06.jpg"",""time"":4991.00000000908},{""stimulus"":""run_exp/static/images/task_images/rocket-07.jpg"",""time"":5991.00000000908},{""stimulus"":""run_exp/static/images/task_images/rocket-08.jpg"",""time"":6986.999999993714},{""stimulus"":""run_exp/static/images/task_images/rocket-09.jpg"",""time"":7981.999999989057}]",[],4,,,,,,,,,,,,,,
alien_welcome,101,560308,0.0-32.0-1.0,,null,run_exp/static/images/task_images/aliens/old_aliens/planet/alien_planet-58.jpg,null,,,,,,,,,,,,58,"19,17,31,11,58,63,74,44,4,50,15,36,54,62,16,45,75,69,22,70,51,5,52,59,78,37,68,21,76,30,47,49,33,61,14,55,79,2,12,32,6,64,57,77,27,43,25,53,3,20,1,39,56,9,72",,,,,,,,,,
land,102,560813,0.0-32.0-2.0,,null,run_exp/static/images/task_images/land.jpg,null,,,,,,97,,,5,,,,,,,,,,,,,,
dig,103,562819,0.0-32.0-3.0,,,,,,,,,,,"[{""stimulus"":""run_exp/static/images/task_images/dig.jpg"",""time"":0},{""stimulus"":""run_exp/static/images/task_images/land.jpg"",""time"":679.9999999930151},{""stimulus"":""run_exp/static/images/task_images/dig.jpg"",""time"":1334.999999991851}]",[],5,,,,,,,,,,,,,,
harvest,104,563823,0.0-32.0-4.0,,null,run_exp/static/images/task_images/gems/97.jpg,null,,,,,,49,,,5,,,,,97,0.507862228,0.505154639,,,,,,,
decision,105,565752,0.0-32.0-5.0,,1924,run_exp/static/images/task_images/land.jpg,65,,,,,,49,,,5,,,,,,,,105791,1,0,FALSE,,,
dig,106,566839,0.0-33.0-0.0,,,,,,,,,,,"[{""stimulus"":""run_exp/static/images/task_images/dig.jpg"",""time"":0},{""stimulus"":""run_exp/static/images/task_images/land.jpg"",""time"":365.99999997997656},{""stimulus"":""run_exp/static/images/task_images/dig.jpg"",""time"":720.0000000011642}]",[],5,,,,,,,,,,,,,,
harvest,107,567841,0.0-33.0-1.0,,null,run_exp/static/images/task_images/gems/49.jpg,null,,,,,,26,,,5,,,,,49,0.530144648,0.530612245,,,,,,,
decision,108,568209,0.0-33.0-2.0,,365,run_exp/static/images/task_images/land.jpg,76,,,,,,26,,,5,,,,,,,,108248,1,1,TRUE,,,
travel,109,577858,0.0-34.0-0.0,,,,,,,,,,,"[{""stimulus"":""run_exp/static/images/task_images/rocket-01.jpg"",""time"":1.0000000183936208},{""stimulus"":""run_exp/static/images/task_images/rocket-02.jpg"",""time"":1086.0000000102445},{""stimulus"":""run_exp/static/images/task_images/rocket-03.jpg"",""time"":2157.0000000065193},{""stimulus"":""run_exp/static/images/task_images/rocket-04.jpg"",""time"":3225.9999999951106},{""stimulus"":""run_exp/static/images/task_images/rocket-05.jpg"",""time"":4295.000000012806},{""stimulus"":""run_exp/static/images/task_images/rocket-06.jpg"",""time"":5366.00000000908},{""stimulus"":""run_exp/static/images/task_images/rocket-07.jpg"",""time"":6436.000000016065},{""stimulus"":""run_exp/static/images/task_images/rocket-08.jpg"",""time"":7501.000000018394},{""stimulus"":""run_exp/static/images/task_images/rocket-09.jpg"",""time"":8570.999999996275}]",[],5,,,,,,,,,,,,,,
alien_welcome,110,582873,0.0-34.0-1.0,,null,run_exp/static/images/task_images/aliens/old_aliens/planet/alien_planet-63.jpg,null,,,,,,,,,,,,63,"19,17,31,11,58,63,74,44,4,50,15,36,54,62,16,45,75,69,22,70,51,5,52,59,78,37,68,21,76,30,47,49,33,61,14,55,79,2,12,32,6,64,57,77,27,43,25,53,3,20,1,39,56,9,72",,,,,,,,,,
land,111,583379,0.0-34.0-2.0,,null,run_exp/static/images/task_images/land.jpg,null,,,,,,106,,,6,,,,,,,,,,,,,,
dig,112,585399,0.0-34.0-3.0,,,,,,,,,,,"[{""stimulus"":""run_exp/static/images/task_images/dig.jpg"",""time"":0.9999999892897904},{""stimulus"":""run_exp/static/images/task_images/land.jpg"",""time"":684.9999999976717},{""stimulus"":""run_exp/static/images/task_images/dig.jpg"",""time"":1339.9999999965075}]",[],6,,,,,,,,,,,,,,
harvest,113,586415,0.0-34.0-4.0,,null,run_exp/static/images/task_images/gems/106.jpg,null,,,,,,94,,,6,,,,,106,0.886730617,0.886792453,,,,,,,
decision,114,588393,0.0-34.0-5.0,,1971,run_exp/static/images/task_images/land.jpg,65,,,,,,94,,,6,,,,,,,,128434,1,0,FALSE,,,
dig,115,589438,0.0-35.0-0.0,,,,,,,,,,,"[{""stimulus"":""run_exp/static/images/task_images/dig.jpg"",""time"":0},{""stimulus"":""run_exp/static/images/task_images/land.jpg"",""time"":342.99999999348074},{""stimulus"":""run_exp/static/images/task_images/dig.jpg"",""time"":693.9999999885913}]",[],6,,,,,,,,,,,,,,
harvest,116,590455,0.0-35.0-1.0,,null,run_exp/static/images/task_images/gems/94.jpg,null,,,,,,77,,,6,,,,,94,0.814873756,0.819148936,,,,,,,
decision,117,590665,0.0-35.0-2.0,,205,run_exp/static/images/task_images/land.jpg,65,,,,,,77,,,6,,,,,,,,130704,1,1,FALSE,,,
dig,118,593464,0.0-36.0-0.0,,,,,,,,,,,"[{""stimulus"":""run_exp/static/images/task_images/dig.jpg"",""time"":0},{""stimulus"":""run_exp/static/images/task_images/land.jpg"",""time"":942.9999999993015},{""stimulus"":""run_exp/static/images/task_images/dig.jpg"",""time"":1868.0000000167638}]",[],6,,,,,,,,,,,,,,
harvest,119,594474,0.0-36.0-1.0,,null,run_exp/static/images/task_images/gems/77.jpg,null,,,,,,54,,,6,,,,,77,0.705078773,0.701298701,,,,,,,
decision,120,597489,0.0-36.0-2.0,,null,run_exp/static/images/task_images/land.jpg,null,,,,,,54,,,6,,,,,,,,137528,1,2,FALSE,,,
time_out,121,599499,0.0-37.0-0.0,,null,run_exp/static/images/task_images/time_out.jpg,null,,,,,,54,,,,,,,,,,,,,,,,,
decision,122,599552,0.0-37.0-1.0,,51.00000001,run_exp/static/images/task_images/land.jpg,76,,,,,,54,,,6,,,,,,,,139591,1,2,TRUE,,,
travel,123,609513,0.0-38.0-0.0,,,,,,,,,,,"[{""stimulus"":""run_exp/static/images/task_images/rocket-01.jpg"",""time"":0},{""stimulus"":""run_exp/static/images/task_images/rocket-02.jpg"",""time"":1111.9999999937136},{""stimulus"":""run_exp/static/images/task_images/rocket-03.jpg"",""time"":2217.000000004191},{""stimulus"":""run_exp/static/images/task_images/rocket-04.jpg"",""time"":3326.0000000009313},{""stimulus"":""run_exp/static/images/task_images/rocket-05.jpg"",""time"":4421.0000000020955},{""stimulus"":""run_exp/static/images/task_images/rocket-06.jpg"",""time"":5536.999999982072},{""stimulus"":""run_exp/static/images/task_images/rocket-07.jpg"",""time"":6641.999999992549},{""stimulus"":""run_exp/static/images/task_images/rocket-08.jpg"",""time"":7747.000000003027},{""stimulus"":""run_exp/static/images/task_images/rocket-09.jpg"",""time"":8846.999999979744}]",[],6,,,,,,,,,,,,,,
alien_welcome,124,614531,0.0-38.0-1.0,,null,run_exp/static/images/task_images/aliens/old_aliens/planet/alien_planet-74.jpg,null,,,,,,,,,,,,74,"19,17,31,11,58,63,74,44,4,50,15,36,54,62,16,45,75,69,22,70,51,5,52,59,78,37,68,21,76,30,47,49,33,61,14,55,79,2,12,32,6,64,57,77,27,43,25,53,3,20,1,39,56,9,72",,,,,,,,,,
land,125,615043,0.0-38.0-2.0,,null,run_exp/static/images/task_images/land.jpg,null,,,,,,109,,,7,,,,,,,,,,,,,,
dig,126,617049,0.0-38.0-3.0,,,,,,,,,,,"[{""stimulus"":""run_exp/static/images/task_images/dig.jpg"",""time"":1.0000000183936208},{""stimulus"":""run_exp/static/images/task_images/land.jpg"",""time"":673.9999999990687},{""stimulus"":""run_exp/static/images/task_images/dig.jpg"",""time"":1343.0000000225846}]",[],7,,,,,,,,,,,,,,
harvest,127,618064,0.0-38.0-4.0,,null,run_exp/static/images/task_images/gems/109.jpg,null,,,,,,94,,,7,,,,,109,0.862496759,0.862385321,,,,,,,
decision,128,618480,0.0-38.0-5.0,,413,run_exp/static/images/task_images/land.jpg,65,,,,,,94,,,7,,,,,,,,158519,1,0,FALSE,,,
dig,129,621083,0.0-39.0-0.0,,,,,,,,,,,"[{""stimulus"":""run_exp/static/images/task_images/dig.jpg"",""time"":0},{""stimulus"":""run_exp/static/images/task_images/land.jpg"",""time"":872.0000000030268},{""stimulus"":""run_exp/static/images/task_images/dig.jpg"",""time"":1735.000000015134}]",[],7,,,,,,,,,,,,,,
harvest,130,622090,0.0-39.0-1.0,,null,run_exp/static/images/task_images/gems/94.jpg,null,,,,,,74,,,7,,,,,94,0.78805202,0.787234043,,,,,,,
decision,131,623352,0.0-39.0-2.0,,1256,run_exp/static/images/task_images/land.jpg,65,,,,,,74,,,7,,,,,,,,163391,1,1,FALSE,,,
dig,132,625111,0.0-40.0-0.0,,,,,,,,,,,"[{""stimulus"":""run_exp/static/images/task_images/dig.jpg"",""time"":0},{""stimulus"":""run_exp/static/images/task_images/land.jpg"",""time"":581.0000000055879},{""stimulus"":""run_exp/static/images/task_images/dig.jpg"",""time"":1175.0000000174623}]",[],7,,,,,,,,,,,,,,
harvest,133,626125,0.0-40.0-1.0,,null,run_exp/static/images/task_images/gems/74.jpg,null,,,,,,63,,,7,,,,,74,0.845409729,0.851351351,,,,,,,
decision,134,626225,0.0-40.0-2.0,,92.99999999,run_exp/static/images/task_images/land.jpg,65,,,,,,63,,,7,,,,,,,,166264,1,2,FALSE,,,
dig,135,629143,0.0-41.0-0.0,,,,,,,,,,,"[{""stimulus"":""run_exp/static/images/task_images/dig.jpg"",""time"":0},{""stimulus"":""run_exp/static/images/task_images/land.jpg"",""time"":980.9999999997672},{""stimulus"":""run_exp/static/images/task_images/dig.jpg"",""time"":1942.9999999993015}]",[],7,,,,,,,,,,,,,,
harvest,136,630150,0.0-41.0-1.0,,null,run_exp/static/images/task_images/gems/63.jpg,null,,,,,,51,,,7,,,,,63,0.811529432,0.80952381,,,,,,,
decision,137,630153,0.0-41.0-2.0,,0,run_exp/static/images/task_images/land.jpg,76,,,,,,51,,,7,,,,,,,,170192,1,3,TRUE,,,
travel,138,640164,0.0-42.0-0.0,,,,,,,,,,,"[{""stimulus"":""run_exp/static/images/task_images/rocket-01.jpg"",""time"":0},{""stimulus"":""run_exp/static/images/task_images/rocket-02.jpg"",""time"":1122.9999999923166},{""stimulus"":""run_exp/static/images/task_images/rocket-03.jpg"",""time"":2238.000000012107},{""stimulus"":""run_exp/static/images/task_images/rocket-04.jpg"",""time"":3344.0000000118744},{""stimulus"":""run_exp/static/images/task_images/rocket-05.jpg"",""time"":4448.000000003958},{""stimulus"":""run_exp/static/images/task_images/rocket-06.jpg"",""time"":5562.000000005355},{""stimulus"":""run_exp/static/images/task_images/rocket-07.jpg"",""time"":6673.000000009779},{""stimulus"":""run_exp/static/images/task_images/rocket-08.jpg"",""time"":7793.000000005122},{""stimulus"":""run_exp/static/images/task_images/rocket-09.jpg"",""time"":8896.999999997206}]",[],7,,,,,,,,,,,,,,
alien_welcome,139,645179,0.0-42.0-1.0,,null,run_exp/static/images/task_images/aliens/old_aliens/planet/alien_planet-44.jpg,null,,,,,,,,,,,,44,"19,17,31,11,58,63,74,44,4,50,15,36,54,62,16,45,75,69,22,70,51,5,52,59,78,37,68,21,76,30,47,49,33,61,14,55,79,2,12,32,6,64,57,77,27,43,25,53,3,20,1,39,56,9,72",,,,,,,,,,
land,140,645688,0.0-42.0-2.0,,null,run_exp/static/images/task_images/land.jpg,null,,,,,,102,,,8,,,,,,,,,,,,,,
dig,141,647698,0.0-42.0-3.0,,,,,,,,,,,"[{""stimulus"":""run_exp/static/images/task_images/dig.jpg"",""time"":1.0000000183936208},{""stimulus"":""run_exp/static/images/task_images/land.jpg"",""time"":679.0000000037253},{""stimulus"":""run_exp/static/images/task_images/dig.jpg"",""time"":1346.0000000195578}]",[],8,,,,,,,,,,,,,,
harvest,142,648715,0.0-42.0-4.0,,null,run_exp/static/images/task_images/gems/102.jpg,null,,,,,,72,,,8,,,,,102,0.7090141,0.705882353,,,,,,,
decision,143,649744,0.0-42.0-5.0,,1026,run_exp/static/images/task_images/land.jpg,65,,,,,,72,,,8,,,,,,,,189783,1,0,FALSE,,,
dig,144,651728,0.0-43.0-0.0,,,,,,,,,,,"[{""stimulus"":""run_exp/static/images/task_images/dig.jpg"",""time"":0.9999999892897904},{""stimulus"":""run_exp/static/images/task_images/land.jpg"",""time"":671.0000000020955},{""stimulus"":""run_exp/static/images/task_images/dig.jpg"",""time"":1320.9999999962747}]",[],8,,,,,,,,,,,,,,
harvest,145,652733,0.0-43.0-1.0,,null,run_exp/static/images/task_images/gems/72.jpg,null,,,,,,63,,,8,,,,,72,0.870529968,0.875,,,,,,,
decision,146,653323,0.0-43.0-2.0,,588,run_exp/static/images/task_images/land.jpg,65,,,,,,63,,,8,,,,,,,,193362,1,1,FALSE,,,
dig,147,655749,0.0-44.0-0.0,,,,,,,,,,,"[{""stimulus"":""run_exp/static/images/task_images/dig.jpg"",""time"":1.0000000183936208},{""stimulus"":""run_exp/static/images/task_images/land.jpg"",""time"":810.0000000267755},{""stimulus"":""run_exp/static/images/task_images/dig.jpg"",""time"":1620.0000000244472}]",[],8,,,,,,,,,,,,,,
harvest,148,656764,0.0-44.0-1.0,,null,run_exp/static/images/task_images/gems/63.jpg,null,,,,,,55,,,8,,,,,63,0.874738761,0.873015873,,,,,,,
decision,149,657929,0.0-44.0-2.0,,1160,run_exp/static/images/task_images/land.jpg,76,,,,,,55,,,8,,,,,,,,197968,1,2,TRUE,,,
travel,150,666779,0.0-45.0-0.0,,,,,,,,,,,"[{""stimulus"":""run_exp/static/images/task_images/rocket-01.jpg"",""time"":0},{""stimulus"":""run_exp/static/images/task_images/rocket-02.jpg"",""time"":990.0000000197906},{""stimulus"":""run_exp/static/images/task_images/rocket-03.jpg"",""time"":1979.0000000211876},{""stimulus"":""run_exp/static/images/task_images/rocket-04.jpg"",""time"":2955.000000016298},{""stimulus"":""run_exp/static/images/task_images/rocket-05.jpg"",""time"":3935.0000000267755},{""stimulus"":""run_exp/static/images/task_images/rocket-06.jpg"",""time"":4923.999999999069},{""stimulus"":""run_exp/static/images/task_images/rocket-07.jpg"",""time"":5906.0000000172295},{""stimulus"":""run_exp/static/images/task_images/rocket-08.jpg"",""time"":6880.000000004657},{""stimulus"":""run_exp/static/images/task_images/rocket-09.jpg"",""time"":7865.000000019791}]",[],8,,,,,,,,,,,,,,
alien_welcome,151,671788,0.0-45.0-1.0,,null,run_exp/static/images/task_images/aliens/old_aliens/planet/alien_planet-4.jpg,null,,,,,,,,,,,,4,"19,17,31,11,58,63,74,44,4,50,15,36,54,62,16,45,75,69,22,70,51,5,52,59,78,37,68,21,76,30,47,49,33,61,14,55,79,2,12,32,6,64,57,77,27,43,25,53,3,20,1,39,56,9,72",,,,,,,,,,
land,152,672294,0.0-45.0-2.0,,null,run_exp/static/images/task_images/land.jpg,null,,,,,,100,,,9,,,,,,,,,,,,,,
dig,153,674308,0.0-45.0-3.0,,,,,,,,,,,"[{""stimulus"":""run_exp/static/images/task_images/dig.jpg"",""time"":0},{""stimulus"":""run_exp/static/images/task_images/land.jpg"",""time"":676.9999999960419},{""stimulus"":""run_exp/static/images/task_images/dig.jpg"",""time"":1336.9999999995343}]",[],9,,,,,,,,,,,,,,
harvest,154,675325,0.0-45.0-4.0,,null,run_exp/static/images/task_images/gems/100.jpg,null,,,,,,16,,,9,,,,,100,0.160701434,0.16,,,,,,,
decision,155,675600,0.0-45.0-5.0,,272,run_exp/static/images/task_images/land.jpg,65,,,,,,16,,,9,,,,,,,,215639,1,0,FALSE,,,
dig,156,678345,0.0-46.0-0.0,,,,,,,,,,,"[{""stimulus"":""run_exp/static/images/task_images/dig.jpg"",""time"":0},{""stimulus"":""run_exp/static/images/task_images/land.jpg"",""time"":922.0000000204891},{""stimulus"":""run_exp/static/images/task_images/dig.jpg"",""time"":1834.0000000025611}]",[],9,,,,,,,,,,,,,,
harvest,157,679356,0.0-46.0-1.0,,null,run_exp/static/images/task_images/gems/16.jpg,null,,,,,,4,,,9,,,,,16,0.226124451,0.25,,,,,,,
decision,158,681537,0.0-46.0-2.0,,2176,run_exp/static/images/task_images/land.jpg,76,,,,,,4,,,9,,,,,,,,221576,1,1,TRUE,,,
travel,159,689368,0.0-47.0-0.0,,,,,,,,,,,"[{""stimulus"":""run_exp/static/images/task_images/rocket-01.jpg"",""time"":0},{""stimulus"":""run_exp/static/images/task_images/rocket-02.jpg"",""time"":883.0000000016298},{""stimulus"":""run_exp/static/images/task_images/rocket-03.jpg"",""time"":1752.9999999969732},{""stimulus"":""run_exp/static/images/task_images/rocket-04.jpg"",""time"":2622.000000003027},{""stimulus"":""run_exp/static/images/task_images/rocket-05.jpg"",""time"":3476.9999999844003},{""stimulus"":""run_exp/static/images/task_images/rocket-06.jpg"",""time"":4347.999999998137},{""stimulus"":""run_exp/static/images/task_images/rocket-07.jpg"",""time"":5226.9999999844},{""stimulus"":""run_exp/static/images/task_images/rocket-08.jpg"",""time"":6086.999999999534},{""stimulus"":""run_exp/static/images/task_images/rocket-09.jpg"",""time"":6956.999999994878}]",[],9,,,,,,,,,,,,,,
alien_welcome,160,694379,0.0-47.0-1.0,,null,run_exp/static/images/task_images/aliens/old_aliens/planet/alien_planet-50.jpg,null,,,,,,,,,,,,50,"19,17,31,11,58,63,74,44,4,50,15,36,54,62,16,45,75,69,22,70,51,5,52,59,78,37,68,21,76,30,47,49,33,61,14,55,79,2,12,32,6,64,57,77,27,43,25,53,3,20,1,39,56,9,72",,,,,,,,,,
land,161,694895,0.0-47.0-2.0,,null,run_exp/static/images/task_images/land.jpg,null,,,,,,104,,,10,,,,,,,,,,,,,,
dig,162,696904,0.0-47.0-3.0,,,,,,,,,,,"[{""stimulus"":""run_exp/static/images/task_images/dig.jpg"",""time"":0.9999999892897904},{""stimulus"":""run_exp/static/images/task_images/land.jpg"",""time"":678.9999999746215},{""stimulus"":""run_exp/static/images/task_images/dig.jpg"",""time"":1338.999999978114}]",[],10,,,,,,,,,,,,,,
harvest,163,697908,0.0-47.0-4.0,,null,run_exp/static/images/task_images/gems/104.jpg,null,,,,,,27,,,10,,,,,104,0.2558108,0.259615385,,,,,,,
decision,164,699705,0.0-47.0-5.0,,1794,run_exp/static/images/task_images/land.jpg,65,,,,,,27,,,10,,,,,,,,239744,1,0,FALSE,,,
dig,165,700926,0.0-48.0-0.0,,,,,,,,,,,"[{""stimulus"":""run_exp/static/images/task_images/dig.jpg"",""time"":0.9999999892897904},{""stimulus"":""run_exp/static/images/task_images/land.jpg"",""time"":413.99999998975545},{""stimulus"":""run_exp/static/images/task_images/dig.jpg"",""time"":809.9999999976717}]",[],10,,,,,,,,,,,,,,
harvest,166,701935,0.0-48.0-1.0,,null,run_exp/static/images/task_images/gems/27.jpg,null,,,,,,9,,,10,,,,,27,0.331589632,0.333333333,,,,,,,
decision,167,702856,0.0-48.0-2.0,,916,run_exp/static/images/task_images/land.jpg,65,,,,,,9,,,10,,,,,,,,242895,1,1,FALSE,,,
dig,168,704958,0.0-49.0-0.0,,,,,,,,,,,"[{""stimulus"":""run_exp/static/images/task_images/dig.jpg"",""time"":0},{""stimulus"":""run_exp/static/images/task_images/land.jpg"",""time"":703.9999999979045},{""stimulus"":""run_exp/static/images/task_images/dig.jpg"",""time"":1394.9999999895226}]",[],10,,,,,,,,,,,,,,
harvest,169,705964,0.0-49.0-1.0,,null,run_exp/static/images/task_images/gems/9.jpg,null,,,,,,2,,,10,,,,,9,0.17976226,0.222222222,,,,,,,
decision,170,706153,0.0-49.0-2.0,,183,run_exp/static/images/task_images/land.jpg,76,,,,,,2,,,10,,,,,,,,246192,1,2,TRUE,,,
travel,171,715979,0.0-50.0-0.0,,,,,,,,,,,"[{""stimulus"":""run_exp/static/images/task_images/rocket-01.jpg"",""time"":1.0000000183936208},{""stimulus"":""run_exp/static/images/task_images/rocket-02.jpg"",""time"":1105.9999999997672},{""stimulus"":""run_exp/static/images/task_images/rocket-03.jpg"",""time"":2183.000000019092},{""stimulus"":""run_exp/static/images/task_images/rocket-04.jpg"",""time"":3276.000000012573},{""stimulus"":""run_exp/static/images/task_images/rocket-05.jpg"",""time"":4371.000000013737},{""stimulus"":""run_exp/static/images/task_images/rocket-06.jpg"",""time"":5453.000000008615},{""stimulus"":""run_exp/static/images/task_images/rocket-07.jpg"",""time"":6553.0000000144355},{""stimulus"":""run_exp/static/images/task_images/rocket-08.jpg"",""time"":7646.000000007916},{""stimulus"":""run_exp/static/images/task_images/rocket-09.jpg"",""time"":8730.999999999767}]",[],10,,,,,,,,,,,,,,
alien_welcome,172,720996,0.0-50.0-1.0,,null,run_exp/static/images/task_images/aliens/old_aliens/planet/alien_planet-15.jpg,null,,,,,,,,,,,,15,"19,17,31,11,58,63,74,44,4,50,15,36,54,62,16,45,75,69,22,70,51,5,52,59,78,37,68,21,76,30,47,49,33,61,14,55,79,2,12,32,6,64,57,77,27,43,25,53,3,20,1,39,56,9,72",,,,,,,,,,
land,173,721513,0.0-50.0-2.0,,null,run_exp/static/images/task_images/land.jpg,null,,,,,,96,,,11,,,,,,,,,,,,,,
dig,174,723518,0.0-50.0-3.0,,,,,,,,,,,"[{""stimulus"":""run_exp/static/images/task_images/dig.jpg"",""time"":0},{""stimulus"":""run_exp/static/images/task_images/land.jpg"",""time"":678.0000000144355},{""stimulus"":""run_exp/static/images/task_images/dig.jpg"",""time"":1342.000000004191}]",[],11,,,,,,,,,,,,,,
harvest,175,724534,0.0-50.0-4.0,,null,run_exp/static/images/task_images/gems/96.jpg,null,,,,,,15,,,11,,,,,96,0.151211091,0.15625,,,,,,,
decision,176,725136,0.0-50.0-5.0,,600,run_exp/static/images/task_images/land.jpg,65,,,,,,15,,,11,,,,,,,,265175,1,0,FALSE,,,
dig,177,727549,0.0-51.0-0.0,,,,,,,,,,,"[{""stimulus"":""run_exp/static/images/task_images/dig.jpg"",""time"":0},{""stimulus"":""run_exp/static/images/task_images/land.jpg"",""time"":814.0000000130385},{""stimulus"":""run_exp/static/images/task_images/dig.jpg"",""time"":1603.000000002794}]",[],11,,,,,,,,,,,,,,
harvest,178,728555,0.0-51.0-1.0,,null,run_exp/static/images/task_images/gems/15.jpg,null,,,,,,2,,,11,,,,,15,0.163919915,0.133333333,,,,,,,
decision,179,729777,0.0-51.0-2.0,,1216,run_exp/static/images/task_images/land.jpg,65,,,,,,2,,,11,,,,,,,,269816,1,1,FALSE,,,
dig,180,731578,0.0-52.0-0.0,,,,,,,,,,,"[{""stimulus"":""run_exp/static/images/task_images/dig.jpg"",""time"":0},{""stimulus"":""run_exp/static/images/task_images/land.jpg"",""time"":600.0000000058208},{""stimulus"":""run_exp/static/images/task_images/dig.jpg"",""time"":1198.0000000039581}]",[],11,,,,,,,,,,,,,,
harvest,181,732585,0.0-52.0-1.0,,null,run_exp/static/images/task_images/gems/2.jpg,null,,,,,,0,,,11,,,,,2,0.115611842,0,,,,,,,
decision,182,735009,0.0-52.0-2.0,,2421,run_exp/static/images/task_images/land.jpg,76,,,,,,0,,,11,,,,,,,,275048,1,2,TRUE,,,
travel,183,742593,0.0-53.0-0.0,,,,,,,,,,,"[{""stimulus"":""run_exp/static/images/task_images/rocket-01.jpg"",""time"":0.9999999892897904},{""stimulus"":""run_exp/static/images/task_images/rocket-02.jpg"",""time"":854.9999999813735},{""stimulus"":""run_exp/static/images/task_images/rocket-03.jpg"",""time"":1696.9999999855645},{""stimulus"":""run_exp/static/images/task_images/rocket-04.jpg"",""time"":2534.9999999743886},{""stimulus"":""run_exp/static/images/task_images/rocket-05.jpg"",""time"":3379.999999975553},{""stimulus"":""run_exp/static/images/task_images/rocket-06.jpg"",""time"":4215.999999985797},{""stimulus"":""run_exp/static/images/task_images/rocket-07.jpg"",""time"":5065.999999991618},{""stimulus"":""run_exp/static/images/task_images/rocket-08.jpg"",""time"":5894.999999989523},{""stimulus"":""run_exp/static/images/task_images/rocket-09.jpg"",""time"":6750}]",[],11,,,,,,,,,,,,,,
alien_welcome,184,747610,0.0-53.0-1.0,,null,run_exp/static/images/task_images/aliens/old_aliens/planet/alien_planet-36.jpg,null,,,,,,,,,,,,36,"19,17,31,11,58,63,74,44,4,50,15,36,54,62,16,45,75,69,22,70,51,5,52,59,78,37,68,21,76,30,47,49,33,61,14,55,79,2,12,32,6,64,57,77,27,43,25,53,3,20,1,39,56,9,72",,,,,,,,,,
land,185,748116,0.0-53.0-2.0,,null,run_exp/static/images/task_images/land.jpg,null,,,,,,98,,,12,,,,,,,,,,,,,,
dig,186,750124,0.0-53.0-3.0,,,,,,,,,,,"[{""stimulus"":""run_exp/static/images/task_images/dig.jpg"",""time"":0.9999999892897904},{""stimulus"":""run_exp/static/images/task_images/land.jpg"",""time"":668.9999999944121},{""stimulus"":""run_exp/static/images/task_images/dig.jpg"",""time"":1340.9999999857973}]",[],12,,,,,,,,,,,,,,
harvest,187,751128,0.0-53.0-4.0,,null,run_exp/static/images/task_images/gems/98.jpg,null,,,,,,13,,,12,,,,,98,0.128358393,0.132653061,,,,,,,
decision,188,751544,0.0-53.0-5.0,,415,run_exp/static/images/task_images/land.jpg,76,,,,,,13,,,12,,,,,,,,291583,1,0,TRUE,,,
travel,189,761138,0.0-54.0-0.0,,,,,,,,,,,"[{""stimulus"":""run_exp/static/images/task_images/rocket-01.jpg"",""time"":0},{""stimulus"":""run_exp/static/images/task_images/rocket-02.jpg"",""time"":1068.9999999885913},{""stimulus"":""run_exp/static/images/task_images/rocket-03.jpg"",""time"":2134.9999999802094},{""stimulus"":""run_exp/static/images/task_images/rocket-04.jpg"",""time"":3193.9999999885913},{""stimulus"":""run_exp/static/images/task_images/rocket-05.jpg"",""time"":4258.99999999092},{""stimulus"":""run_exp/static/images/task_images/rocket-06.jpg"",""time"":5328.9999999979045},{""stimulus"":""run_exp/static/images/task_images/rocket-07.jpg"",""time"":6383.99999999092},{""stimulus"":""run_exp/static/images/task_images/rocket-08.jpg"",""time"":7459.000000002561},{""stimulus"":""run_exp/static/images/task_images/rocket-09.jpg"",""time"":8513.999999995576}]",[],12,,,,,,,,,,,,,,
alien_welcome,190,766153,0.0-54.0-1.0,,null,run_exp/static/images/task_images/aliens/old_aliens/planet/alien_planet-54.jpg,null,,,,,,,,,,,,54,"19,17,31,11,58,63,74,44,4,50,15,36,54,62,16,45,75,69,22,70,51,5,52,59,78,37,68,21,76,30,47,49,33,61,14,55,79,2,12,32,6,64,57,77,27,43,25,53,3,20,1,39,56,9,72",,,,,,,,,,
land,191,766658,0.0-54.0-2.0,,null,run_exp/static/images/task_images/land.jpg,null,,,,,,94,,,13,,,,,,,,,,,,,,
dig,192,768674,0.0-54.0-3.0,,,,,,,,,,,"[{""stimulus"":""run_exp/static/images/task_images/dig.jpg"",""time"":1.0000000183936208},{""stimulus"":""run_exp/static/images/task_images/land.jpg"",""time"":670.0000000128057},{""stimulus"":""run_exp/static/images/task_images/dig.jpg"",""time"":1345.0000000011642}]",[],13,,,,,,,,,,,,,,
harvest,193,769678,0.0-54.0-4.0,,null,run_exp/static/images/task_images/gems/94.jpg,null,,,,,,23,,,13,,,,,94,0.248628641,0.244680851,,,,,,,
decision,194,770216,0.0-54.0-5.0,,536,run_exp/static/images/task_images/land.jpg,65,,,,,,23,,,13,,,,,,,,310255,1,0,TRUE,,,
end_of_block_continue,195,779085,0.0-55.0-0.0,,null,run_exp/static/audio/clip_32_block_end.m4a,,,,,,null,,,,,,,,,,,,,,,,,,
alien_welcome,196,784106,0.0-56.0-0.0,,null,run_exp/static/images/task_images/aliens/old_aliens/planet/alien_planet-62.jpg,null,,,,,,,,,,,,62,"19,17,31,11,58,63,74,44,4,50,15,36,54,62,16,45,75,69,22,70,51,5,52,59,78,37,68,21,76,30,47,49,33,61,14,55,79,2,12,32,6,64,57,77,27,43,25,53,3,20,1,39,56,9,72",,,,,,,,,,
land,197,784621,0.0-56.0-1.0,,null,run_exp/static/images/task_images/land.jpg,null,,,,,,94,,,14,,,,,,,,,,,,,,
dig,198,786639,0.0-56.0-2.0,,,,,,,,,,,"[{""stimulus"":""run_exp/static/images/task_images/dig.jpg"",""time"":1.0000000183936208},{""stimulus"":""run_exp/static/images/task_images/land.jpg"",""time"":675.0000000174623},{""stimulus"":""run_exp/static/images/task_images/dig.jpg"",""time"":1343.0000000225846}]",[],14,,,,,,,,,,,,,,
harvest,199,787653,0.0-56.0-3.0,,null,run_exp/static/images/task_images/gems/94.jpg,null,,,,,,13,,,14,,,,,94,0.136199886,0.138297872,,,,,,,
decision,200,789936,0.0-56.0-4.0,,2278,run_exp/static/images/task_images/land.jpg,76,,,,,,13,,,14,,,,,,,,10843,2,0,TRUE,,,
travel,201,797678,0.0-57.0-0.0,,,,,,,,,,,"[{""stimulus"":""run_exp/static/images/task_images/rocket-01.jpg"",""time"":0},{""stimulus"":""run_exp/static/images/task_images/rocket-02.jpg"",""time"":872.0000000030268},{""stimulus"":""run_exp/static/images/task_images/rocket-03.jpg"",""time"":1730.0000000104774},{""stimulus"":""run_exp/static/images/task_images/rocket-04.jpg"",""time"":2584.000000002561},{""stimulus"":""run_exp/static/images/task_images/rocket-05.jpg"",""time"":3442.0000000100117},{""stimulus"":""run_exp/static/images/task_images/rocket-06.jpg"",""time"":4301.999999996042},{""stimulus"":""run_exp/static/images/task_images/rocket-07.jpg"",""time"":5152.999999991152},{""stimulus"":""run_exp/static/images/task_images/rocket-08.jpg"",""time"":6011.999999987893},{""stimulus"":""run_exp/static/images/task_images/rocket-09.jpg"",""time"":6877.000000007683}]",[],14,,,,,,,,,,,,,,
alien_welcome,202,802684,0.0-57.0-1.0,,null,run_exp/static/images/task_images/aliens/old_aliens/planet/alien_planet-16.jpg,null,,,,,,,,,,,,16,"19,17,31,11,58,63,74,44,4,50,15,36,54,62,16,45,75,69,22,70,51,5,52,59,78,37,68,21,76,30,47,49,33,61,14,55,79,2,12,32,6,64,57,77,27,43,25,53,3,20,1,39,56,9,72",,,,,,,,,,
land,203,803190,0.0-57.0-2.0,,null,run_exp/static/images/task_images/land.jpg,null,,,,,,100,,,15,,,,,,,,,,,,,,
dig,204,805204,0.0-57.0-3.0,,,,,,,,,,,"[{""stimulus"":""run_exp/static/images/task_images/dig.jpg"",""time"":0.9999999892897904},{""stimulus"":""run_exp/static/images/task_images/land.jpg"",""time"":674.9999999883585},{""stimulus"":""run_exp/static/images/task_images/dig.jpg"",""time"":1347.9999999981374}]",[],15,,,,,,,,,,,,,,
harvest,205,806208,0.0-57.0-4.0,,null,run_exp/static/images/task_images/gems/100.jpg,null,,,,,,28,,,15,,,,,100,0.275500335,0.28,,,,,,,
decision,206,806848,0.0-57.0-5.0,,638,run_exp/static/images/task_images/land.jpg,65,,,,,,28,,,15,,,,,,,,27756,2,0,FALSE,,,
dig,207,809218,0.0-58.0-0.0,,,,,,,,,,,"[{""stimulus"":""run_exp/static/images/task_images/dig.jpg"",""time"":0.9999999892897904},{""stimulus"":""run_exp/static/images/task_images/land.jpg"",""time"":789.9999999790452},{""stimulus"":""run_exp/static/images/task_images/dig.jpg"",""time"":1579.9999999871943}]",[],15,,,,,,,,,,,,,,
harvest,208,810233,0.0-58.0-1.0,,null,run_exp/static/images/task_images/gems/28.jpg,null,,,,,,4,,,15,,,,,28,0.15297478,0.142857143,,,,,,,
decision,209,810584,0.0-58.0-2.0,,349,run_exp/static/images/task_images/land.jpg,76,,,,,,4,,,15,,,,,,,,31491,2,1,TRUE,,,
travel,210,820248,0.0-59.0-0.0,,,,,,,,,,,"[{""stimulus"":""run_exp/static/images/task_images/rocket-01.jpg"",""time"":0},{""stimulus"":""run_exp/static/images/task_images/rocket-02.jpg"",""time"":1078.9999999979045},{""stimulus"":""run_exp/static/images/task_images/rocket-03.jpg"",""time"":2148.9999999757856},{""stimulus"":""run_exp/static/images/task_images/rocket-04.jpg"",""time"":3223.999999987427},{""stimulus"":""run_exp/static/images/task_images/rocket-05.jpg"",""time"":4289.999999979045},{""stimulus"":""run_exp/static/images/task_images/rocket-06.jpg"",""time"":5373.999999981606},{""stimulus"":""run_exp/static/images/task_images/rocket-07.jpg"",""time"":6438.999999983935},{""stimulus"":""run_exp/static/images/task_images/rocket-08.jpg"",""time"":7513.999999995576},{""stimulus"":""run_exp/static/images/task_images/rocket-09.jpg"",""time"":8586.999999999534}]",[],15,,,,,,,,,,,,,,
alien_welcome,211,825259,0.0-59.0-1.0,,null,run_exp/static/images/task_images/aliens/old_aliens/planet/alien_planet-45.jpg,null,,,,,,,,,,,,45,"19,17,31,11,58,63,74,44,4,50,15,36,54,62,16,45,75,69,22,70,51,5,52,59,78,37,68,21,76,30,47,49,33,61,14,55,79,2,12,32,6,64,57,77,27,43,25,53,3,20,1,39,56,9,72",,,,,,,,,,
land,212,825765,0.0-59.0-2.0,,null,run_exp/static/images/task_images/land.jpg,null,,,,,,102,,,16,,,,,,,,,,,,,,
dig,213,827778,0.0-59.0-3.0,,,,,,,,,,,"[{""stimulus"":""run_exp/static/images/task_images/dig.jpg"",""time"":1.0000000183936208},{""stimulus"":""run_exp/static/images/task_images/land.jpg"",""time"":680.0000000221189},{""stimulus"":""run_exp/static/images/task_images/dig.jpg"",""time"":1347.0000000088476}]",[],16,,,,,,,,,,,,,,
harvest,214,828794,0.0-59.0-4.0,,null,run_exp/static/images/task_images/gems/102.jpg,null,,,,,,24,,,16,,,,,102,0.231443068,0.235294118,,,,,,,
decision,215,829552,0.0-59.0-5.0,,755,run_exp/static/images/task_images/land.jpg,65,,,,,,24,,,16,,,,,,,,50459,2,0,FALSE,,,
dig,216,831808,0.0-60.0-0.0,,,,,,,,,,,"[{""stimulus"":""run_exp/static/images/task_images/dig.jpg"",""time"":0},{""stimulus"":""run_exp/static/images/task_images/land.jpg"",""time"":751.9999999785796},{""stimulus"":""run_exp/static/images/task_images/dig.jpg"",""time"":1511.9999999878928}]",[],16,,,,,,,,,,,,,,
harvest,217,832824,0.0-60.0-1.0,,null,run_exp/static/images/task_images/gems/24.jpg,null,,,,,,3,,,16,,,,,24,0.144951555,0.125,,,,,,,
decision,218,833202,0.0-60.0-2.0,,374,run_exp/static/images/task_images/land.jpg,76,,,,,,3,,,16,,,,,,,,54109,2,1,TRUE,,,
travel,219,842844,0.0-61.0-0.0,,,,,,,,,,,"[{""stimulus"":""run_exp/static/images/task_images/rocket-01.jpg"",""time"":0},{""stimulus"":""run_exp/static/images/task_images/rocket-02.jpg"",""time"":1073.999999993248},{""stimulus"":""run_exp/static/images/task_images/rocket-03.jpg"",""time"":2147.999999986496},{""stimulus"":""run_exp/static/images/task_images/rocket-04.jpg"",""time"":3220.000000001164},{""stimulus"":""run_exp/static/images/task_images/rocket-05.jpg"",""time"":4288.999999989755},{""stimulus"":""run_exp/static/images/task_images/rocket-06.jpg"",""time"":5358.000000007451},{""stimulus"":""run_exp/static/images/task_images/rocket-07.jpg"",""time"":6418.000000005122},{""stimulus"":""run_exp/static/images/task_images/rocket-08.jpg"",""time"":7497.999999992317},{""stimulus"":""run_exp/static/images/task_images/rocket-09.jpg"",""time"":8562.999999994645}]",[],16,,,,,,,,,,,,,,
alien_welcome,220,847858,0.0-61.0-1.0,,null,run_exp/static/images/task_images/aliens/old_aliens/planet/alien_planet-75.jpg,null,,,,,,,,,,,,75,"19,17,31,11,58,63,74,44,4,50,15,36,54,62,16,45,75,69,22,70,51,5,52,59,78,37,68,21,76,30,47,49,33,61,14,55,79,2,12,32,6,64,57,77,27,43,25,53,3,20,1,39,56,9,72",,,,,,,,,,
land,221,848363,0.0-61.0-2.0,,null,run_exp/static/images/task_images/land.jpg,null,,,,,,108,,,17,,,,,,,,,,,,,,
dig,222,850370,0.0-61.0-3.0,,,,,,,,,,,"[{""stimulus"":""run_exp/static/images/task_images/dig.jpg"",""time"":0},{""stimulus"":""run_exp/static/images/task_images/land.jpg"",""time"":673.0000000097789},{""stimulus"":""run_exp/static/images/task_images/dig.jpg"",""time"":1337.9999999888241}]",[],17,,,,,,,,,,,,,,
harvest,223,851374,0.0-61.0-4.0,,null,run_exp/static/images/task_images/gems/108.jpg,null,,,,,,83,,,17,,,,,108,0.764302503,0.768518519,,,,,,,
decision,224,852585,0.0-61.0-5.0,,1209,run_exp/static/images/task_images/land.jpg,65,,,,,,83,,,17,,,,,,,,73492,2,0,FALSE,,,
dig,225,854388,0.0-62.0-0.0,,,,,,,,,,,"[{""stimulus"":""run_exp/static/images/task_images/dig.jpg"",""time"":0},{""stimulus"":""run_exp/static/images/task_images/land.jpg"",""time"":608.0000000074506},{""stimulus"":""run_exp/static/images/task_images/dig.jpg"",""time"":1204.9999999871943}]",[],17,,,,,,,,,,,,,,
harvest,226,855394,0.0-62.0-1.0,,null,run_exp/static/images/task_images/gems/83.jpg,null,,,,,,68,,,17,,,,,83,0.816948505,0.819277108,,,,,,,
decision,227,857072,0.0-62.0-2.0,,1676,run_exp/static/images/task_images/land.jpg,76,,,,,,68,,,17,,,,,,,,77979,2,1,TRUE,,,
travel,228,865401,0.0-63.0-0.0,,,,,,,,,,,"[{""stimulus"":""run_exp/static/images/task_images/rocket-01.jpg"",""time"":0},{""stimulus"":""run_exp/static/images/task_images/rocket-02.jpg"",""time"":936.0000000160653},{""stimulus"":""run_exp/static/images/task_images/rocket-03.jpg"",""time"":1850.9999999951106},{""stimulus"":""run_exp/static/images/task_images/rocket-04.jpg"",""time"":2780.9999999881256},{""stimulus"":""run_exp/static/images/task_images/rocket-05.jpg"",""time"":3695.9999999962747},{""stimulus"":""run_exp/static/images/task_images/rocket-06.jpg"",""time"":4622.000000003027},{""stimulus"":""run_exp/static/images/task_images/rocket-07.jpg"",""time"":5556.000000011409},{""stimulus"":""run_exp/static/images/task_images/rocket-08.jpg"",""time"":6481.999999989057},{""stimulus"":""run_exp/static/images/task_images/rocket-09.jpg"",""time"":7396.000000007916}]",[],17,,,,,,,,,,,,,,
alien_welcome,229,870419,0.0-63.0-1.0,,null,run_exp/static/images/task_images/aliens/old_aliens/planet/alien_planet-69.jpg,null,,,,,,,,,,,,69,"19,17,31,11,58,63,74,44,4,50,15,36,54,62,16,45,75,69,22,70,51,5,52,59,78,37,68,21,76,30,47,49,33,61,14,55,79,2,12,32,6,64,57,77,27,43,25,53,3,20,1,39,56,9,72",,,,,,,,,,
land,230,870928,0.0-63.0-2.0,,null,run_exp/static/images/task_images/land.jpg,null,,,,,,108,,,18,,,,,,,,,,,,,,
dig,231,872943,0.0-63.0-3.0,,,,,,,,,,,"[{""stimulus"":""run_exp/static/images/task_images/dig.jpg"",""time"":0},{""stimulus"":""run_exp/static/images/task_images/land.jpg"",""time"":680.9999999823049},{""stimulus"":""run_exp/static/images/task_images/dig.jpg"",""time"":1347.9999999981374}]",[],18,,,,,,,,,,,,,,
harvest,232,873947,0.0-63.0-4.0,,null,run_exp/static/images/task_images/gems/108.jpg,null,,,,,,86,,,18,,,,,108,0.79558085,0.796296296,,,,,,,
decision,233,875655,0.0-63.0-5.0,,1703,run_exp/static/images/task_images/land.jpg,65,,,,,,86,,,18,,,,,,,,96562,2,0,FALSE,,,
dig,234,876966,0.0-64.0-0.0,,,,,,,,,,,"[{""stimulus"":""run_exp/static/images/task_images/dig.jpg"",""time"":0},{""stimulus"":""run_exp/static/images/task_images/land.jpg"",""time"":442.9999999993015},{""stimulus"":""run_exp/static/images/task_images/dig.jpg"",""time"":872.0000000030268}]",[],18,,,,,,,,,,,,,,
harvest,235,877973,0.0-64.0-1.0,,null,run_exp/static/images/task_images/gems/86.jpg,null,,,,,,70,,,18,,,,,86,0.818912894,0.813953488,,,,,,,
decision,236,877976,0.0-64.0-2.0,,0.999999989,run_exp/static/images/task_images/land.jpg,76,,,,,,70,,,18,,,,,,,,98883,2,1,TRUE,,,
travel,237,887997,0.0-65.0-0.0,,,,,,,,,,,"[{""stimulus"":""run_exp/static/images/task_images/rocket-01.jpg"",""time"":1.0000000183936208},{""stimulus"":""run_exp/static/images/task_images/rocket-02.jpg"",""time"":1122.9999999923166},{""stimulus"":""run_exp/static/images/task_images/rocket-03.jpg"",""time"":2238.000000012107},{""stimulus"":""run_exp/static/images/task_images/rocket-04.jpg"",""time"":3344.0000000118744},{""stimulus"":""run_exp/static/images/task_images/rocket-05.jpg"",""time"":4448.000000003958},{""stimulus"":""run_exp/static/images/task_images/rocket-06.jpg"",""time"":5559.999999997672},{""stimulus"":""run_exp/static/images/task_images/rocket-07.jpg"",""time"":6673.000000009779},{""stimulus"":""run_exp/static/images/task_images/rocket-08.jpg"",""time"":7779.000000009546},{""stimulus"":""run_exp/static/images/task_images/rocket-09.jpg"",""time"":8904.000000009546}]",[],18,,,,,,,,,,,,,,
alien_welcome,238,893008,0.0-65.0-1.0,,null,run_exp/static/images/task_images/aliens/old_aliens/planet/alien_planet-22.jpg,null,,,,,,,,,,,,22,"19,17,31,11,58,63,74,44,4,50,15,36,54,62,16,45,75,69,22,70,51,5,52,59,78,37,68,21,76,30,47,49,33,61,14,55,79,2,12,32,6,64,57,77,27,43,25,53,3,20,1,39,56,9,72",,,,,,,,,,
land,239,893532,0.0-65.0-2.0,,null,run_exp/static/images/task_images/land.jpg,null,,,,,,99,,,19,,,,,,,,,,,,,,
dig,240,895552,0.0-65.0-3.0,,,,,,,,,,,"[{""stimulus"":""run_exp/static/images/task_images/dig.jpg"",""time"":0},{""stimulus"":""run_exp/static/images/task_images/land.jpg"",""time"":675.9999999776483},{""stimulus"":""run_exp/static/images/task_images/dig.jpg"",""time"":1336.9999999995343}]",[],19,,,,,,,,,,,,,,
harvest,241,896554,0.0-65.0-4.0,,null,run_exp/static/images/task_images/gems/99.jpg,null,,,,,,79,,,19,,,,,99,0.799991778,0.797979798,,,,,,,
decision,242,899128,0.0-65.0-5.0,,2572,run_exp/static/images/task_images/land.jpg,65,,,,,,79,,,19,,,,,,,,120035,2,0,FALSE,,,
dig,243,899562,0.0-66.0-0.0,,,,,,,,,,,"[{""stimulus"":""run_exp/static/images/task_images/dig.jpg"",""time"":0.9999999892897904},{""stimulus"":""run_exp/static/images/task_images/land.jpg"",""time"":144.00000000023283},{""stimulus"":""run_exp/static/images/task_images/dig.jpg"",""time"":298.9999999990687}]",[],19,,,,,,,,,,,,,,
harvest,244,900572,0.0-66.0-1.0,,null,run_exp/static/images/task_images/gems/79.jpg,null,,,,,,62,,,19,,,,,79,0.788804072,0.784810127,,,,,,,
decision,245,902272,0.0-66.0-2.0,,1693,run_exp/static/images/task_images/land.jpg,76,,,,,,62,,,19,,,,,,,,123179,2,1,TRUE,,,
travel,246,910587,0.0-67.0-0.0,,,,,,,,,,,"[{""stimulus"":""run_exp/static/images/task_images/rocket-01.jpg"",""time"":0},{""stimulus"":""run_exp/static/images/task_images/rocket-02.jpg"",""time"":934.0000000083819},{""stimulus"":""run_exp/static/images/task_images/rocket-03.jpg"",""time"":1859.0000000258442},{""stimulus"":""run_exp/static/images/task_images/rocket-04.jpg"",""time"":2776.000000012573},{""stimulus"":""run_exp/static/images/task_images/rocket-05.jpg"",""time"":3694.000000017695},{""stimulus"":""run_exp/static/images/task_images/rocket-06.jpg"",""time"":4629.000000015367},{""stimulus"":""run_exp/static/images/task_images/rocket-07.jpg"",""time"":5548.999999999069},{""stimulus"":""run_exp/static/images/task_images/rocket-08.jpg"",""time"":6474.000000016531},{""stimulus"":""run_exp/static/images/task_images/rocket-09.jpg"",""time"":7394.000000000233}]",[],19,,,,,,,,,,,,,,
alien_welcome,247,915600,0.0-67.0-1.0,,null,run_exp/static/images/task_images/aliens/old_aliens/planet/alien_planet-70.jpg,null,,,,,,,,,,,,70,"19,17,31,11,58,63,74,44,4,50,15,36,54,62,16,45,75,69,22,70,51,5,52,59,78,37,68,21,76,30,47,49,33,61,14,55,79,2,12,32,6,64,57,77,27,43,25,53,3,20,1,39,56,9,72",,,,,,,,,,
land,248,916107,0.0-67.0-2.0,,null,run_exp/static/images/task_images/land.jpg,null,,,,,,102,,,20,,,,,,,,,,,,,,
dig,249,918117,0.0-67.0-3.0,,,,,,,,,,,"[{""stimulus"":""run_exp/static/images/task_images/dig.jpg"",""time"":0},{""stimulus"":""run_exp/static/images/task_images/land.jpg"",""time"":668.0000000051223},{""stimulus"":""run_exp/static/images/task_images/dig.jpg"",""time"":1349.000000016531}]",[],20,,,,,,,,,,,,,,
harvest,250,919119,0.0-67.0-4.0,,null,run_exp/static/images/task_images/gems/102.jpg,null,,,,,,87,,,20,,,,,102,0.857690479,0.852941176,,,,,,,
decision,251,919256,0.0-67.0-5.0,,131,run_exp/static/images/task_images/land.jpg,65,,,,,,87,,,20,,,,,,,,140163,2,0,FALSE,,,
dig,252,922132,0.0-68.0-0.0,,,,,,,,,,,"[{""stimulus"":""run_exp/static/images/task_images/dig.jpg"",""time"":0},{""stimulus"":""run_exp/static/images/task_images/land.jpg"",""time"":962.9999999888241},{""stimulus"":""run_exp/static/images/task_images/dig.jpg"",""time"":1919.9999999837019}]",[],20,,,,,,,,,,,,,,
harvest,253,923135,0.0-68.0-1.0,,null,run_exp/static/images/task_images/gems/87.jpg,null,,,,,,74,,,20,,,,,87,0.852477922,0.850574713,,,,,,,
decision,254,923287,0.0-68.0-2.0,,150,run_exp/static/images/task_images/land.jpg,65,,,,,,74,,,20,,,,,,,,144194,2,1,FALSE,,,
dig,255,926147,0.0-69.0-0.0,,,,,,,,,,,"[{""stimulus"":""run_exp/static/images/task_images/dig.jpg"",""time"":0},{""stimulus"":""run_exp/static/images/task_images/land.jpg"",""time"":963.000000017928},{""stimulus"":""run_exp/static/images/task_images/dig.jpg"",""time"":1913.0000000004657}]",[],20,,,,,,,,,,,,,,
harvest,256,927155,0.0-69.0-1.0,,null,run_exp/static/images/task_images/gems/74.jpg,null,,,,,,60,,,20,,,,,74,0.806051151,0.810810811,,,,,,,
decision,257,928111,0.0-69.0-2.0,,950,run_exp/static/images/task_images/land.jpg,76,,,,,,60,,,20,,,,,,,,149018,2,2,TRUE,,,
travel,258,937173,0.0-70.0-0.0,,,,,,,,,,,"[{""stimulus"":""run_exp/static/images/task_images/rocket-01.jpg"",""time"":1.0000000183936208},{""stimulus"":""run_exp/static/images/task_images/rocket-02.jpg"",""time"":1020.0000000186265},{""stimulus"":""run_exp/static/images/task_images/rocket-03.jpg"",""time"":2015.0000000139698},{""stimulus"":""run_exp/static/images/task_images/rocket-04.jpg"",""time"":3020.0000000186265},{""stimulus"":""run_exp/static/images/task_images/rocket-05.jpg"",""time"":4035.0000000034925},{""stimulus"":""run_exp/static/images/task_images/rocket-06.jpg"",""time"":5040.000000008149},{""stimulus"":""run_exp/static/images/task_images/rocket-07.jpg"",""time"":6040.000000008149},{""stimulus"":""run_exp/static/images/task_images/rocket-08.jpg"",""time"":7040.000000008149},{""stimulus"":""run_exp/static/images/task_images/rocket-09.jpg"",""time"":8045.000000012806}]",[],20,,,,,,,,,,,,,,
alien_welcome,259,942178,0.0-70.0-1.0,,null,run_exp/static/images/task_images/aliens/old_aliens/planet/alien_planet-51.jpg,null,,,,,,,,,,,,51,"19,17,31,11,58,63,74,44,4,50,15,36,54,62,16,45,75,69,22,70,51,5,52,59,78,37,68,21,76,30,47,49,33,61,14,55,79,2,12,32,6,64,57,77,27,43,25,53,3,20,1,39,56,9,72",,,,,,,,,,
land,260,942683,0.0-70.0-2.0,,null,run_exp/static/images/task_images/land.jpg,null,,,,,,105,,,21,,,,,,,,,,,,,,
dig,261,944698,0.0-70.0-3.0,,,,,,,,,,,"[{""stimulus"":""run_exp/static/images/task_images/dig.jpg"",""time"":0.9999999892897904},{""stimulus"":""run_exp/static/images/task_images/land.jpg"",""time"":672.999999980675},{""stimulus"":""run_exp/static/images/task_images/dig.jpg"",""time"":1345.999999990454}]",[],21,,,,,,,,,,,,,,
harvest,262,945701,0.0-70.0-4.0,,null,run_exp/static/images/task_images/gems/105.jpg,null,,,,,,81,,,21,,,,,105,0.77611893,0.771428571,,,,,,,
decision,263,947168,0.0-70.0-5.0,,1466,run_exp/static/images/task_images/land.jpg,65,,,,,,81,,,21,,,,,,,,168075,2,0,FALSE,,,
dig,264,948723,0.0-71.0-0.0,,,,,,,,,,,"[{""stimulus"":""run_exp/static/images/task_images/dig.jpg"",""time"":0},{""stimulus"":""run_exp/static/images/task_images/land.jpg"",""time"":520.0000000186265},{""stimulus"":""run_exp/static/images/task_images/dig.jpg"",""time"":1024.9999999941792}]",[],21,,,,,,,,,,,,,,
harvest,265,949738,0.0-71.0-1.0,,null,run_exp/static/images/task_images/gems/81.jpg,null,,,,,,57,,,21,,,,,81,0.702300941,0.703703704,,,,,,,
decision,266,952432,0.0-71.0-2.0,,2689,run_exp/static/images/task_images/land.jpg,76,,,,,,57,,,21,,,,,,,,173339,2,1,TRUE,,,
travel,267,959748,0.0-72.0-0.0,,,,,,,,,,,"[{""stimulus"":""run_exp/static/images/task_images/rocket-01.jpg"",""time"":0},{""stimulus"":""run_exp/static/images/task_images/rocket-02.jpg"",""time"":820.9999999962747},{""stimulus"":""run_exp/static/images/task_images/rocket-03.jpg"",""time"":1635.999999998603},{""stimulus"":""run_exp/static/images/task_images/rocket-04.jpg"",""time"":2445.000000006985},{""stimulus"":""run_exp/static/images/task_images/rocket-05.jpg"",""time"":3260.000000009313},{""stimulus"":""run_exp/static/images/task_images/rocket-06.jpg"",""time"":4065.0000000023283},{""stimulus"":""run_exp/static/images/task_images/rocket-07.jpg"",""time"":4880.000000004657},{""stimulus"":""run_exp/static/images/task_images/rocket-08.jpg"",""time"":5696.9999999855645},{""stimulus"":""run_exp/static/images/task_images/rocket-09.jpg"",""time"":6500}]",[],21,,,,,,,,,,,,,,
alien_welcome,268,964766,0.0-72.0-1.0,,null,run_exp/static/images/task_images/aliens/old_aliens/planet/alien_planet-5.jpg,null,,,,,,,,,,,,5,"19,17,31,11,58,63,74,44,4,50,15,36,54,62,16,45,75,69,22,70,51,5,52,59,78,37,68,21,76,30,47,49,33,61,14,55,79,2,12,32,6,64,57,77,27,43,25,53,3,20,1,39,56,9,72",,,,,,,,,,
land,269,965273,0.0-72.0-2.0,,null,run_exp/static/images/task_images/land.jpg,null,,,,,,103,,,22,,,,,,,,,,,,,,
dig,270,967288,0.0-72.0-3.0,,,,,,,,,,,"[{""stimulus"":""run_exp/static/images/task_images/dig.jpg"",""time"":0},{""stimulus"":""run_exp/static/images/task_images/land.jpg"",""time"":677.9999999853317},{""stimulus"":""run_exp/static/images/task_images/dig.jpg"",""time"":1340.9999999857973}]",[],22,,,,,,,,,,,,,,
harvest,271,968305,0.0-72.0-4.0,,null,run_exp/static/images/task_images/gems/103.jpg,null,,,,,,51,,,22,,,,,103,0.490628091,0.495145631,,,,,,,
decision,272,968339,0.0-72.0-5.0,,30.99999999,run_exp/static/images/task_images/land.jpg,65,,,,,,51,,,22,,,,,,,,189246,2,0,FALSE,,,
dig,273,971318,0.0-73.0-0.0,,,,,,,,,,,"[{""stimulus"":""run_exp/static/images/task_images/dig.jpg"",""time"":0},{""stimulus"":""run_exp/static/images/task_images/land.jpg"",""time"":1002.0000000076834},{""stimulus"":""run_exp/static/images/task_images/dig.jpg"",""time"":1983.9999999967404}]",[],22,,,,,,,,,,,,,,
harvest,274,972327,0.0-73.0-1.0,,null,run_exp/static/images/task_images/gems/51.jpg,null,,,,,,21,,,22,,,,,51,0.41892588,0.411764706,,,,,,,
decision,275,973336,0.0-73.0-2.0,,1004,run_exp/static/images/task_images/land.jpg,76,,,,,,21,,,22,,,,,,,,194243,2,1,TRUE,,,
travel,276,982338,0.0-74.0-0.0,,,,,,,,,,,"[{""stimulus"":""run_exp/static/images/task_images/rocket-01.jpg"",""time"":0},{""stimulus"":""run_exp/static/images/task_images/rocket-02.jpg"",""time"":1010.0000000093132},{""stimulus"":""run_exp/static/images/task_images/rocket-03.jpg"",""time"":2005.0000000046566},{""stimulus"":""run_exp/static/images/task_images/rocket-04.jpg"",""time"":3007.00000001234},{""stimulus"":""run_exp/static/images/task_images/rocket-05.jpg"",""time"":4005.0000000046566},{""stimulus"":""run_exp/static/images/task_images/rocket-06.jpg"",""time"":5002.000000007683},{""stimulus"":""run_exp/static/images/task_images/rocket-07.jpg"",""time"":6005.999999993946},{""stimulus"":""run_exp/static/images/task_images/rocket-08.jpg"",""time"":6994.999999995343},{""stimulus"":""run_exp/static/images/task_images/rocket-09.jpg"",""time"":7994.999999995343}]",[],22,,,,,,,,,,,,,,
alien_welcome,277,987348,0.0-74.0-1.0,,null,run_exp/static/images/task_images/aliens/old_aliens/planet/alien_planet-52.jpg,null,,,,,,,,,,,,52,"19,17,31,11,58,63,74,44,4,50,15,36,54,62,16,45,75,69,22,70,51,5,52,59,78,37,68,21,76,30,47,49,33,61,14,55,79,2,12,32,6,64,57,77,27,43,25,53,3,20,1,39,56,9,72",,,,,,,,,,
land,278,987855,0.0-74.0-2.0,,null,run_exp/static/images/task_images/land.jpg,null,,,,,,98,,,23,,,,,,,,,,,,,,
dig,279,989865,0.0-74.0-3.0,,,,,,,,,,,"[{""stimulus"":""run_exp/static/images/task_images/dig.jpg"",""time"":3.000000026077032},{""stimulus"":""run_exp/static/images/task_images/land.jpg"",""time"":675.0000000174623},{""stimulus"":""run_exp/static/images/task_images/dig.jpg"",""time"":1353.000000002794}]",[],23,,,,,,,,,,,,,,
harvest,280,990878,0.0-74.0-4.0,,null,run_exp/static/images/task_images/gems/98.jpg,null,,,,,,76,,,23,,,,,98,0.777403465,0.775510204,,,,,,,
decision,281,991568,0.0-74.0-5.0,,688,run_exp/static/images/task_images/land.jpg,65,,,,,,76,,,23,,,,,,,,212475,2,0,FALSE,,,
dig,282,993892,0.0-75.0-0.0,,,,,,,,,,,"[{""stimulus"":""run_exp/static/images/task_images/dig.jpg"",""time"":0},{""stimulus"":""run_exp/static/images/task_images/land.jpg"",""time"":776.0000000125729},{""stimulus"":""run_exp/static/images/task_images/dig.jpg"",""time"":1554.0000000037253}]",[],23,,,,,,,,,,,,,,
harvest,283,994899,0.0-75.0-1.0,,null,run_exp/static/images/task_images/gems/76.jpg,null,,,,,,63,,,23,,,,,76,0.824269286,0.828947368,,,,,,,
decision,284,996295,0.0-75.0-2.0,,1391,run_exp/static/images/task_images/land.jpg,76,,,,,,63,,,23,,,,,,,,217202,2,1,TRUE,,,
travel,285,1004917,0.0-76.0-0.0,,,,,,,,,,,"[{""stimulus"":""run_exp/static/images/task_images/rocket-01.jpg"",""time"":0.9999999892897904},{""stimulus"":""run_exp/static/images/task_images/rocket-02.jpg"",""time"":971.9999999797437},{""stimulus"":""run_exp/static/images/task_images/rocket-03.jpg"",""time"":1921.9999999913853},{""stimulus"":""run_exp/static/images/task_images/rocket-04.jpg"",""time"":2871.999999973923},{""stimulus"":""run_exp/static/images/task_images/rocket-05.jpg"",""time"":3832.9999999841675},{""stimulus"":""run_exp/static/images/task_images/rocket-06.jpg"",""time"":4781.999999977415},{""stimulus"":""run_exp/static/images/task_images/rocket-07.jpg"",""time"":5738.999999972293},{""stimulus"":""run_exp/static/images/task_images/rocket-08.jpg"",""time"":6696.9999999855645},{""stimulus"":""run_exp/static/images/task_images/rocket-09.jpg"",""time"":7651.999999972759}]",[],23,,,,,,,,,,,,,,
alien_welcome,286,1009927,0.0-76.0-1.0,,null,run_exp/static/images/task_images/aliens/old_aliens/planet/alien_planet-59.jpg,null,,,,,,,,,,,,59,"19,17,31,11,58,63,74,44,4,50,15,36,54,62,16,45,75,69,22,70,51,5,52,59,78,37,68,21,76,30,47,49,33,61,14,55,79,2,12,32,6,64,57,77,27,43,25,53,3,20,1,39,56,9,72",,,,,,,,,,
land,287,1010433,0.0-76.0-2.0,,null,run_exp/static/images/task_images/land.jpg,null,,,,,,112,,,24,,,,,,,,,,,,,,
dig,288,1012442,0.0-76.0-3.0,,,,,,,,,,,"[{""stimulus"":""run_exp/static/images/task_images/dig.jpg"",""time"":0},{""stimulus"":""run_exp/static/images/task_images/land.jpg"",""time"":671.9999999913853},{""stimulus"":""run_exp/static/images/task_images/dig.jpg"",""time"":1339.9999999965075}]",[],24,,,,,,,,,,,,,,
harvest,289,1013458,0.0-76.0-4.0,,null,run_exp/static/images/task_images/gems/112.jpg,null,,,,,,90,,,24,,,,,112,0.80059132,0.803571429,,,,,,,
decision,290,1014352,0.0-76.0-5.0,,892,run_exp/static/images/task_images/land.jpg,65,,,,,,90,,,24,,,,,,,,235259,2,0,FALSE,,,
dig,291,1016472,0.0-77.0-0.0,,,,,,,,,,,"[{""stimulus"":""run_exp/static/images/task_images/dig.jpg"",""time"":1.0000000183936208},{""stimulus"":""run_exp/static/images/task_images/land.jpg"",""time"":710.0000000209548},{""stimulus"":""run_exp/static/images/task_images/dig.jpg"",""time"":1415.000000008149}]",[],24,,,,,,,,,,,,,,
harvest,292,1017478,0.0-77.0-1.0,,null,run_exp/static/images/task_images/gems/90.jpg,null,,,,,,75,,,24,,,,,90,0.833701279,0.833333333,,,,,,,
decision,293,1017639,0.0-77.0-2.0,,158,run_exp/static/images/task_images/land.jpg,65,,,,,,75,,,24,,,,,,,,238546,2,1,FALSE,,,
dig,294,1020492,0.0-78.0-0.0,,,,,,,,,,,"[{""stimulus"":""run_exp/static/images/task_images/dig.jpg"",""time"":0},{""stimulus"":""run_exp/static/images/task_images/land.jpg"",""time"":950.0000000116415},{""stimulus"":""run_exp/static/images/task_images/dig.jpg"",""time"":1907.0000000065193}]",[],24,,,,,,,,,,,,,,
harvest,295,1021494,0.0-78.0-1.0,,null,run_exp/static/images/task_images/gems/75.jpg,null,,,,,,59,,,24,,,,,75,0.780654968,0.786666667,,,,,,,
decision,296,1024502,0.0-78.0-2.0,,null,run_exp/static/images/task_images/land.jpg,null,,,,,,59,,,24,,,,,,,,245409,2,2,FALSE,,,
time_out,297,1026519,0.0-79.0-0.0,,null,run_exp/static/images/task_images/time_out.jpg,null,,,,,,59,,,,,,,,,,,,,,,,,
decision,298,1026703,0.0-79.0-1.0,,181,run_exp/static/images/task_images/land.jpg,76,,,,,,59,,,24,,,,,,,,247610,2,2,TRUE,,,
travel,299,1036532,0.0-80.0-0.0,,,,,,,,,,,"[{""stimulus"":""run_exp/static/images/task_images/rocket-01.jpg"",""time"":0},{""stimulus"":""run_exp/static/images/task_images/rocket-02.jpg"",""time"":1097.9999999981374},{""stimulus"":""run_exp/static/images/task_images/rocket-03.jpg"",""time"":2192.9999999993015},{""stimulus"":""run_exp/static/images/task_images/rocket-04.jpg"",""time"":3282.999999995809},{""stimulus"":""run_exp/static/images/task_images/rocket-05.jpg"",""time"":4377.999999996973},{""stimulus"":""run_exp/static/images/task_images/rocket-06.jpg"",""time"":5467.999999993481},{""stimulus"":""run_exp/static/images/task_images/rocket-07.jpg"",""time"":6548.000000009779},{""stimulus"":""run_exp/static/images/task_images/rocket-08.jpg"",""time"":7647.999999986496},{""stimulus"":""run_exp/static/images/task_images/rocket-09.jpg"",""time"":8738.000000012107}]",[],24,,,,,,,,,,,,,,
alien_welcome,300,1041538,0.0-80.0-1.0,,null,run_exp/static/images/task_images/aliens/old_aliens/planet/alien_planet-78.jpg,null,,,,,,,,,,,,78,"19,17,31,11,58,63,74,44,4,50,15,36,54,62,16,45,75,69,22,70,51,5,52,59,78,37,68,21,76,30,47,49,33,61,14,55,79,2,12,32,6,64,57,77,27,43,25,53,3,20,1,39,56,9,72",,,,,,,,,,
land,301,1042044,0.0-80.0-2.0,,null,run_exp/static/images/task_images/land.jpg,null,,,,,,93,,,25,,,,,,,,,,,,,,
dig,302,1044052,0.0-80.0-3.0,,,,,,,,,,,"[{""stimulus"":""run_exp/static/images/task_images/dig.jpg"",""time"":0.9999999892897904},{""stimulus"":""run_exp/static/images/task_images/land.jpg"",""time"":679.0000000037253},{""stimulus"":""run_exp/static/images/task_images/dig.jpg"",""time"":1336.9999999995343}]",[],25,,,,,,,,,,,,,,
harvest,303,1045067,0.0-80.0-4.0,,null,run_exp/static/images/task_images/gems/93.jpg,null,,,,,,10,,,25,,,,,93,0.106931452,0.107526882,,,,,,,
decision,304,1045407,0.0-80.0-5.0,,338,run_exp/static/images/task_images/land.jpg,65,,,,,,10,,,25,,,,,,,,266314,2,0,FALSE,,,
dig,305,1048077,0.0-81.0-0.0,,,,,,,,,,,"[{""stimulus"":""run_exp/static/images/task_images/dig.jpg"",""time"":0},{""stimulus"":""run_exp/static/images/task_images/land.jpg"",""time"":898.0000000155997},{""stimulus"":""run_exp/static/images/task_images/dig.jpg"",""time"":1779.000000009546}]",[],25,,,,,,,,,,,,,,
harvest,306,1049087,0.0-81.0-1.0,,null,run_exp/static/images/task_images/gems/10.jpg,null,,,,,,3,,,25,,,,,10,0.250511294,0.3,,,,,,,
decision,307,1050055,0.0-81.0-2.0,,963,run_exp/static/images/task_images/land.jpg,76,,,,,,3,,,25,,,,,,,,270962,2,1,TRUE,,,
travel,308,1059103,0.0-82.0-0.0,,,,,,,,,,,"[{""stimulus"":""run_exp/static/images/task_images/rocket-01.jpg"",""time"":0},{""stimulus"":""run_exp/static/images/task_images/rocket-02.jpg"",""time"":1010.999999998603},{""stimulus"":""run_exp/static/images/task_images/rocket-03.jpg"",""time"":2015.9999999741558},{""stimulus"":""run_exp/static/images/task_images/rocket-04.jpg"",""time"":3021.999999997206},{""stimulus"":""run_exp/static/images/task_images/rocket-05.jpg"",""time"":4027.0000000018626},{""stimulus"":""run_exp/static/images/task_images/rocket-06.jpg"",""time"":5021.999999997206},{""stimulus"":""run_exp/static/images/task_images/rocket-07.jpg"",""time"":6035.999999992782},{""stimulus"":""run_exp/static/images/task_images/rocket-08.jpg"",""time"":7041.999999986729},{""stimulus"":""run_exp/static/images/task_images/rocket-09.jpg"",""time"":8040.999999997439}]",[],25,,,,,,,,,,,,,,
alien_welcome,309,1064108,0.0-82.0-1.0,,null,run_exp/static/images/task_images/aliens/old_aliens/planet/alien_planet-37.jpg,null,,,,,,,,,,,,37,"19,17,31,11,58,63,74,44,4,50,15,36,54,62,16,45,75,69,22,70,51,5,52,59,78,37,68,21,76,30,47,49,33,61,14,55,79,2,12,32,6,64,57,77,27,43,25,53,3,20,1,39,56,9,72",,,,,,,,,,
land,310,1064613,0.0-82.0-2.0,,null,run_exp/static/images/task_images/land.jpg,null,,,,,,101,,,26,,,,,,,,,,,,,,
dig,311,1066623,0.0-82.0-3.0,,,,,,,,,,,"[{""stimulus"":""run_exp/static/images/task_images/dig.jpg"",""time"":0},{""stimulus"":""run_exp/static/images/task_images/land.jpg"",""time"":678.0000000144355},{""stimulus"":""run_exp/static/images/task_images/dig.jpg"",""time"":1342.9999999934807}]",[],26,,,,,,,,,,,,,,
harvest,312,1067640,0.0-82.0-4.0,,null,run_exp/static/images/task_images/gems/101.jpg,null,,,,,,29,,,26,,,,,101,0.288747411,0.287128713,,,,,,,
decision,313,1068473,0.0-82.0-5.0,,830,run_exp/static/images/task_images/land.jpg,65,,,,,,29,,,26,,,,,,,,289380,2,0,FALSE,,,
dig,314,1070653,0.0-83.0-0.0,,,,,,,,,,,"[{""stimulus"":""run_exp/static/images/task_images/dig.jpg"",""time"":0.9999999892897904},{""stimulus"":""run_exp/static/images/task_images/land.jpg"",""time"":729.9999999813735},{""stimulus"":""run_exp/static/images/task_images/dig.jpg"",""time"":1449.9999999825377}]",[],26,,,,,,,,,,,,,,
harvest,315,1071673,0.0-83.0-1.0,,null,run_exp/static/images/task_images/gems/29.jpg,null,,,,,,6,,,26,,,,,29,0.202084783,0.206896552,,,,,,,
decision,316,1071678,0.0-83.0-2.0,,1.999999979,run_exp/static/images/task_images/land.jpg,76,,,,,,6,,,26,,,,,,,,292585,2,1,TRUE,,,
travel,317,1081689,0.0-84.0-0.0,,,,,,,,,,,"[{""stimulus"":""run_exp/static/images/task_images/rocket-01.jpg"",""time"":0},{""stimulus"":""run_exp/static/images/task_images/rocket-02.jpg"",""time"":1114.000000001397},{""stimulus"":""run_exp/static/images/task_images/rocket-03.jpg"",""time"":2227.000000013504},{""stimulus"":""run_exp/static/images/task_images/rocket-04.jpg"",""time"":3334.000000002561},{""stimulus"":""run_exp/static/images/task_images/rocket-05.jpg"",""time"":4454.000000027008},{""stimulus"":""run_exp/static/images/task_images/rocket-06.jpg"",""time"":5556.000000011409},{""stimulus"":""run_exp/static/images/task_images/rocket-07.jpg"",""time"":6664.000000018859},{""stimulus"":""run_exp/static/images/task_images/rocket-08.jpg"",""time"":7779.000000009546},{""stimulus"":""run_exp/static/images/task_images/rocket-09.jpg"",""time"":8894.000000000233}]",[],26,,,,,,,,,,,,,,
alien_welcome,318,1086710,0.0-84.0-1.0,,null,run_exp/static/images/task_images/aliens/old_aliens/planet/alien_planet-68.jpg,null,,,,,,,,,,,,68,"19,17,31,11,58,63,74,44,4,50,15,36,54,62,16,45,75,69,22,70,51,5,52,59,78,37,68,21,76,30,47,49,33,61,14,55,79,2,12,32,6,64,57,77,27,43,25,53,3,20,1,39,56,9,72",,,,,,,,,,
land,319,1087213,0.0-84.0-2.0,,null,run_exp/static/images/task_images/land.jpg,null,,,,,,100,,,27,,,,,,,,,,,,,,
dig,320,1089228,0.0-84.0-3.0,,,,,,,,,,,"[{""stimulus"":""run_exp/static/images/task_images/dig.jpg"",""time"":1.0000000183936208},{""stimulus"":""run_exp/static/images/task_images/land.jpg"",""time"":682.0000000006985},{""stimulus"":""run_exp/static/images/task_images/dig.jpg"",""time"":1346.0000000195578}]",[],27,,,,,,,,,,,,,,
harvest,321,1090233,0.0-84.0-4.0,,null,run_exp/static/images/task_images/gems/100.jpg,null,,,,,,17,,,27,,,,,100,0.172528819,0.17,,,,,,,
decision,322,1090288,0.0-84.0-5.0,,52,run_exp/static/images/task_images/land.jpg,65,,,,,,17,,,27,,,,,,,,311195,2,0,TRUE,,,
end_of_block_continue,323,1099159,0.0-85.0-0.0,,null,run_exp/static/audio/clip_32_block_end.m4a,,,,,,null,,,,,,,,,,,,,,,,,,
alien_welcome,324,1104178,0.0-86.0-0.0,,null,run_exp/static/images/task_images/aliens/old_aliens/planet/alien_planet-21.jpg,null,,,,,,,,,,,,21,"19,17,31,11,58,63,74,44,4,50,15,36,54,62,16,45,75,69,22,70,51,5,52,59,78,37,68,21,76,30,47,49,33,61,14,55,79,2,12,32,6,64,57,77,27,43,25,53,3,20,1,39,56,9,72",,,,,,,,,,
land,325,1104684,0.0-86.0-1.0,,null,run_exp/static/images/task_images/land.jpg,null,,,,,,105,,,28,,,,,,,,,,,,,,
dig,326,1106693,0.0-86.0-2.0,,,,,,,,,,,"[{""stimulus"":""run_exp/static/images/task_images/dig.jpg"",""time"":0},{""stimulus"":""run_exp/static/images/task_images/land.jpg"",""time"":680.9999999823049},{""stimulus"":""run_exp/static/images/task_images/dig.jpg"",""time"":1343.9999999827705}]",[],28,,,,,,,,,,,,,,
harvest,327,1107699,0.0-86.0-3.0,,null,run_exp/static/images/task_images/gems/105.jpg,null,,,,,,51,,,28,,,,,105,0.481245028,0.485714286,,,,,,,
decision,328,1109216,0.0-86.0-4.0,,1511,run_exp/static/images/task_images/land.jpg,65,,,,,,51,,,28,,,,,,,,10051,3,0,FALSE,,,
dig,329,1110723,0.0-87.0-0.0,,,,,,,,,,,"[{""stimulus"":""run_exp/static/images/task_images/dig.jpg"",""time"":0.9999999892897904},{""stimulus"":""run_exp/static/images/task_images/land.jpg"",""time"":505.0000000046566},{""stimulus"":""run_exp/static/images/task_images/dig.jpg"",""time"":996.000000013737}]",[],28,,,,,,,,,,,,,,
harvest,330,1111733,0.0-87.0-1.0,,null,run_exp/static/images/task_images/gems/51.jpg,null,,,,,,24,,,28,,,,,51,0.473137952,0.470588235,,,,,,,
decision,331,1112008,0.0-87.0-2.0,,274,run_exp/static/images/task_images/land.jpg,76,,,,,,24,,,28,,,,,,,,12843,3,1,TRUE,,,
travel,332,1121743,0.0-88.0-0.0,,,,,,,,,,,"[{""stimulus"":""run_exp/static/images/task_images/rocket-01.jpg"",""time"":0.9999999892897904},{""stimulus"":""run_exp/static/images/task_images/rocket-02.jpg"",""time"":1093.9999999827705},{""stimulus"":""run_exp/static/images/task_images/rocket-03.jpg"",""time"":2168.999999994412},{""stimulus"":""run_exp/static/images/task_images/rocket-04.jpg"",""time"":3253.999999986263},{""stimulus"":""run_exp/static/images/task_images/rocket-05.jpg"",""time"":4334.000000002561},{""stimulus"":""run_exp/static/images/task_images/rocket-06.jpg"",""time"":5413.999999989755},{""stimulus"":""run_exp/static/images/task_images/rocket-07.jpg"",""time"":6489.000000001397},{""stimulus"":""run_exp/static/images/task_images/rocket-08.jpg"",""time"":7568.999999988591},{""stimulus"":""run_exp/static/images/task_images/rocket-09.jpg"",""time"":8654.000000009546}]",[],28,,,,,,,,,,,,,,
alien_welcome,333,1126753,0.0-88.0-1.0,,null,run_exp/static/images/task_images/aliens/old_aliens/planet/alien_planet-76.jpg,null,,,,,,,,,,,,76,"19,17,31,11,58,63,74,44,4,50,15,36,54,62,16,45,75,69,22,70,51,5,52,59,78,37,68,21,76,30,47,49,33,61,14,55,79,2,12,32,6,64,57,77,27,43,25,53,3,20,1,39,56,9,72",,,,,,,,,,
land,334,1127268,0.0-88.0-2.0,,null,run_exp/static/images/task_images/land.jpg,null,,,,,,109,,,29,,,,,,,,,,,,,,
dig,335,1129283,0.0-88.0-3.0,,,,,,,,,,,"[{""stimulus"":""run_exp/static/images/task_images/dig.jpg"",""time"":0},{""stimulus"":""run_exp/static/images/task_images/land.jpg"",""time"":668.0000000051223},{""stimulus"":""run_exp/static/images/task_images/dig.jpg"",""time"":1347.9999999981374}]",[],29,,,,,,,,,,,,,,
harvest,336,1130298,0.0-88.0-4.0,,null,run_exp/static/images/task_images/gems/109.jpg,null,,,,,,71,,,29,,,,,109,0.647651801,0.651376147,,,,,,,
decision,337,1130369,0.0-88.0-5.0,,67.00000001,run_exp/static/images/task_images/land.jpg,65,,,,,,71,,,29,,,,,,,,31204,3,0,FALSE,,,
dig,338,1133313,0.0-89.0-0.0,,,,,,,,,,,"[{""stimulus"":""run_exp/static/images/task_images/dig.jpg"",""time"":0},{""stimulus"":""run_exp/static/images/task_images/land.jpg"",""time"":988.0000000121072},{""stimulus"":""run_exp/static/images/task_images/dig.jpg"",""time"":1961.9999999995343}]",[],29,,,,,,,,,,,,,,
harvest,339,1134324,0.0-89.0-1.0,,null,run_exp/static/images/task_images/gems/71.jpg,null,,,,,,60,,,29,,,,,71,0.849445447,0.845070423,,,,,,,
decision,340,1135480,0.0-89.0-2.0,,1150,run_exp/static/images/task_images/land.jpg,76,,,,,,60,,,29,,,,,,,,36315,3,1,TRUE,,,
travel,341,1144338,0.0-90.0-0.0,,,,,,,,,,,"[{""stimulus"":""run_exp/static/images/task_images/rocket-01.jpg"",""time"":0},{""stimulus"":""run_exp/static/images/task_images/rocket-02.jpg"",""time"":997.9999999923166},{""stimulus"":""run_exp/static/images/task_images/rocket-03.jpg"",""time"":1973.9999999874271},{""stimulus"":""run_exp/static/images/task_images/rocket-04.jpg"",""time"":2961.9999999995343},{""stimulus"":""run_exp/static/images/task_images/rocket-05.jpg"",""time"":3932.0000000006985},{""stimulus"":""run_exp/static/images/task_images/rocket-06.jpg"",""time"":4916.999999986729},{""stimulus"":""run_exp/static/images/task_images/rocket-07.jpg"",""time"":5911.999999982072},{""stimulus"":""run_exp/static/images/task_images/rocket-08.jpg"",""time"":6892.999999981839},{""stimulus"":""run_exp/static/images/task_images/rocket-09.jpg"",""time"":7873.999999981606}]",[],29,,,,,,,,,,,,,,
alien_welcome,342,1149353,0.0-90.0-1.0,,null,run_exp/static/images/task_images/aliens/old_aliens/planet/alien_planet-30.jpg,null,,,,,,,,,,,,30,"19,17,31,11,58,63,74,44,4,50,15,36,54,62,16,45,75,69,22,70,51,5,52,59,78,37,68,21,76,30,47,49,33,61,14,55,79,2,12,32,6,64,57,77,27,43,25,53,3,20,1,39,56,9,72",,,,,,,,,,
land,343,1149858,0.0-90.0-2.0,,null,run_exp/static/images/task_images/land.jpg,null,,,,,,100,,,30,,,,,,,,,,,,,,
dig,344,1151873,0.0-90.0-3.0,,,,,,,,,,,"[{""stimulus"":""run_exp/static/images/task_images/dig.jpg"",""time"":0},{""stimulus"":""run_exp/static/images/task_images/land.jpg"",""time"":679.0000000037253},{""stimulus"":""run_exp/static/images/task_images/dig.jpg"",""time"":1335.0000000209548}]",[],30,,,,,,,,,,,,,,
harvest,345,1152875,0.0-90.0-4.0,,null,run_exp/static/images/task_images/gems/100.jpg,null,,,,,,43,,,30,,,,,100,0.434934759,0.43,,,,,,,
decision,346,1153184,0.0-90.0-5.0,,304,run_exp/static/images/task_images/land.jpg,65,,,,,,43,,,30,,,,,,,,54019,3,0,FALSE,,,
dig,347,1155897,0.0-91.0-0.0,,,,,,,,,,,"[{""stimulus"":""run_exp/static/images/task_images/dig.jpg"",""time"":0},{""stimulus"":""run_exp/static/images/task_images/land.jpg"",""time"":904.9999999988358},{""stimulus"":""run_exp/static/images/task_images/dig.jpg"",""time"":1812.999999994645}]",[],30,,,,,,,,,,,,,,
harvest,348,1156903,0.0-91.0-1.0,,null,run_exp/static/images/task_images/gems/43.jpg,null,,,,,,22,,,30,,,,,43,0.511717383,0.511627907,,,,,,,
decision,349,1157816,0.0-91.0-2.0,,908,run_exp/static/images/task_images/land.jpg,76,,,,,,22,,,30,,,,,,,,58651,3,1,TRUE,,,
travel,350,1166918,0.0-92.0-0.0,,,,,,,,,,,"[{""stimulus"":""run_exp/static/images/task_images/rocket-01.jpg"",""time"":0},{""stimulus"":""run_exp/static/images/task_images/rocket-02.jpg"",""time"":1018.000000010943},{""stimulus"":""run_exp/static/images/task_images/rocket-03.jpg"",""time"":2032.999999995809},{""stimulus"":""run_exp/static/images/task_images/rocket-04.jpg"",""time"":3043.0000000051223},{""stimulus"":""run_exp/static/images/task_images/rocket-05.jpg"",""time"":4053.0000000144355},{""stimulus"":""run_exp/static/images/task_images/rocket-06.jpg"",""time"":5053.0000000144355},{""stimulus"":""run_exp/static/images/task_images/rocket-07.jpg"",""time"":6063.000000023749},{""stimulus"":""run_exp/static/images/task_images/rocket-08.jpg"",""time"":7073.000000003958},{""stimulus"":""run_exp/static/images/task_images/rocket-09.jpg"",""time"":8088.000000017928}]",[],30,,,,,,,,,,,,,,
alien_welcome,351,1171932,0.0-92.0-1.0,,null,run_exp/static/images/task_images/aliens/old_aliens/planet/alien_planet-47.jpg,null,,,,,,,,,,,,47,"19,17,31,11,58,63,74,44,4,50,15,36,54,62,16,45,75,69,22,70,51,5,52,59,78,37,68,21,76,30,47,49,33,61,14,55,79,2,12,32,6,64,57,77,27,43,25,53,3,20,1,39,56,9,72",,,,,,,,,,
land,352,1172440,0.0-92.0-2.0,,null,run_exp/static/images/task_images/land.jpg,null,,,,,,101,,,31,,,,,,,,,,,,,,
dig,353,1174463,0.0-92.0-3.0,,,,,,,,,,,"[{""stimulus"":""run_exp/static/images/task_images/dig.jpg"",""time"":0.9999999892897904},{""stimulus"":""run_exp/static/images/task_images/land.jpg"",""time"":677.9999999853317},{""stimulus"":""run_exp/static/images/task_images/dig.jpg"",""time"":1338.999999978114}]",[],31,,,,,,,,,,,,,,
harvest,354,1175480,0.0-92.0-4.0,,null,run_exp/static/images/task_images/gems/101.jpg,null,,,,,,43,,,31,,,,,101,0.428481911,0.425742574,,,,,,,
decision,355,1176513,0.0-92.0-5.0,,1030,run_exp/static/images/task_images/land.jpg,65,,,,,,43,,,31,,,,,,,,77348,3,0,FALSE,,,
dig,356,1178493,0.0-93.0-0.0,,,,,,,,,,,"[{""stimulus"":""run_exp/static/images/task_images/dig.jpg"",""time"":0},{""stimulus"":""run_exp/static/images/task_images/land.jpg"",""time"":668.0000000051223},{""stimulus"":""run_exp/static/images/task_images/dig.jpg"",""time"":1328.0000000086147}]",[],31,,,,,,,,,,,,,,
harvest,357,1179508,0.0-93.0-1.0,,null,run_exp/static/images/task_images/gems/43.jpg,null,,,,,,19,,,31,,,,,43,0.447635004,0.441860465,,,,,,,
decision,358,1179632,0.0-93.0-2.0,,117,run_exp/static/images/task_images/land.jpg,76,,,,,,19,,,31,,,,,,,,80467,3,1,TRUE,,,
travel,359,1189533,0.0-94.0-0.0,,,,,,,,,,,"[{""stimulus"":""run_exp/static/images/task_images/rocket-01.jpg"",""time"":0},{""stimulus"":""run_exp/static/images/task_images/rocket-02.jpg"",""time"":1108.9999999967404},{""stimulus"":""run_exp/static/images/task_images/rocket-03.jpg"",""time"":2198.999999993248},{""stimulus"":""run_exp/static/images/task_images/rocket-04.jpg"",""time"":3296.0000000020955},{""stimulus"":""run_exp/static/images/task_images/rocket-05.jpg"",""time"":4404.000000009546},{""stimulus"":""run_exp/static/images/task_images/rocket-06.jpg"",""time"":5503.999999986263},{""stimulus"":""run_exp/static/images/task_images/rocket-07.jpg"",""time"":6598.999999987427},{""stimulus"":""run_exp/static/images/task_images/rocket-08.jpg"",""time"":7698.999999993248},{""stimulus"":""run_exp/static/images/task_images/rocket-09.jpg"",""time"":8785.000000003492}]",[],31,,,,,,,,,,,,,,
