trial_type,trial_index,time_elapsed,internal_node_id,interactions,blur_events,focus_events,fullscreenenter_events,fullscreenexit_events,success,rt,stimulus,key_press,prompt,subject_id,participant_id,age,gender,button_pressed,next_reward,animation_sequence,responses,planet,curr_prac_trial,n_prac_rounds,alien,aliens,reward_received,decay_rate_actual,decay_rate_exp,time_in_block,block_num,prt,last_trial_on_planet,button_html,bonus,num_failures
pavlovia,0,3,0.0-0.0,"""event"",""trial"",""time""
""fullscreenenter"",""1"",""2370""
","
","
","""event"",""trial"",""time""
""fullscreenenter"",""1"",""2370""
","
",,,,,,,,,,,,,,,,,,,,,,,,,,,,
fullscreen,1,3367,0.0-1.0,"""event"",""trial"",""time""
""fullscreenenter"",""1"",""2370""
","
","
","""event"",""trial"",""time""
""fullscreenenter"",""1"",""2370""
","
",TRUE,,,,,,,,,,,,,,,,,,,,,,,,,,,
instruc_welcome,2,13117,0.0-2.0,"""event"",""trial"",""time""
""fullscreenenter"",""1"",""2370""
","
","
","""event"",""trial"",""time""
""fullscreenenter"",""1"",""2370""
","
",,null,run_exp/static/audio/clip_1_welcome.m4a,null,"<p>Howdy! In this experiment, you’ll be an explorer traveling through space to collect space treasure.</p><p>Your mission is to collect as much treasure as possible.</p><br><br><p><img src='run_exp/static/images/task_images/opening_img-01.jpg' height='300' width='auto'></p>",10257,4674,25.5,Male,,,,,,,,,,,,,,,,,,,
audio-keyboard-response,3,29697,0.0-3.0,"""event"",""trial"",""time""
""fullscreenenter"",""1"",""2370""
","
","
","""event"",""trial"",""time""
""fullscreenenter"",""1"",""2370""
","
",,null,run_exp/static/audio/clip_2_move.m4a,null,,,,,,,,,,,,,,,,,,,,,,,,
welcome_dec,4,30761,0.0-4.0,"""event"",""trial"",""time""
""fullscreenenter"",""1"",""2370""
","
","
","""event"",""trial"",""time""
""fullscreenenter"",""1"",""2370""
","
",,1062.4,"<p>Howdy! In this experiment, you’ll be an explorer traveling through space to collect space treasure.</p><p>Your mission is to collect as much treasure as possible.</p><br><br><p><img src='run_exp/static/images/task_images/opening_img-01.jpg' height='300' width='auto'></p>",,,,,,,1,,,,,,,,,,,,,,,,,,
html-keyboard-response,5,31562,0.0-5.0,"""event"",""trial"",""time""
""fullscreenenter"",""1"",""2370""
","
","
","""event"",""trial"",""time""
""fullscreenenter"",""1"",""2370""
","
",,800.1,"<p>Howdy! In this experiment, you’ll be an explorer traveling through space to collect space treasure.</p><p>Your mission is to collect as much treasure as possible.</p><br><br><p><img src='run_exp/static/images/task_images/opening_img-01.jpg' height='300' width='auto'></p><button class=""jspsych-html-btn-unchosen""><img src=""run_exp/static/images/task_images/planet-01.jpg"" height=""50""></button><button class=""jspsych-html-btn-chosen""><img src=""run_exp/static/images/task_images/planet-02.jpg"" height=""50""></button><p><b>[press the space bar to lock in your answer]<b><br></p>",32,,,,,,,,,,,,,,,,,,,,,,,,
instruc_goal,6,41618,0.0-6.0-0.0,"""event"",""trial"",""time""
""fullscreenenter"",""1"",""2370""
","
","
","""event"",""trial"",""time""
""fullscreenenter"",""1"",""2370""
","
",,null,run_exp/static/audio/clip_3_goal.m4a,null,"<p> As a space explorer, you’ll visit different planets to dig for space treasure, these pink gems.</p> <p> The more treasure you dig up, the more bonus money you’ll win! </p><br><br><p><img src='run_exp/static/images/task_images/pink_gem.jpg' height='300' width='auto'></p>",,,,,,,,,,,,,,,,,,,,,,,
instruc_goal,7,43794,0.0-6.0-1.0,"""event"",""trial"",""time""
""fullscreenenter"",""1"",""2370""
","
","
","""event"",""trial"",""time""
""fullscreenenter"",""1"",""2370""
","
",,2174,"<p> As a space explorer, you’ll visit different planets to dig for space treasure, these pink gems.</p> <p> The more treasure you dig up, the more bonus money you’ll win! </p><br><br><p><img src='run_exp/static/images/task_images/pink_gem.jpg' height='300' width='auto'></p>",,,,,,,1,,,,,,,,,,,,,,,,,,
html-keyboard-response,8,44402,0.0-6.0-2.0,"""event"",""trial"",""time""
""fullscreenenter"",""1"",""2370""
","
","
","""event"",""trial"",""time""
""fullscreenenter"",""1"",""2370""
","
",,607.5,"<p> As a space explorer, you’ll visit different planets to dig for space treasure, these pink gems.</p> <p> The more treasure you dig up, the more bonus money you’ll win! </p><br><br><p><img src='run_exp/static/images/task_images/pink_gem.jpg' height='300' width='auto'></p><button class=""jspsych-html-btn-unchosen""><img src=""run_exp/static/images/task_images/planet-01.jpg"" height=""50""></button><button class=""jspsych-html-btn-chosen""><img src=""run_exp/static/images/task_images/planet-02.jpg"" height=""50""></button><p><b>[press the space bar to lock in your answer]<b><br></p>",32,,,,,,,,,,,,,,,,,,,,,,,,
instruc_dig,9,60398,0.0-7.0-0.0,"""event"",""trial"",""time""
""fullscreenenter"",""1"",""2370""
","
","
","""event"",""trial"",""time""
""fullscreenenter"",""1"",""2370""
","
",,null,run_exp/static/audio/clip_4_dig.m4a,null,,,,,,,100,,,,,,,,,,,,,,,,,
instruc_dig_try,10,61027,0.0-7.0-1.0,"""event"",""trial"",""time""
""fullscreenenter"",""1"",""2370""
","
","
","""event"",""trial"",""time""
""fullscreenenter"",""1"",""2370""
","
",,624,"<p> When you’ve arrived at a new planet, you will dig once. </p> <p>Then, you get to decide if you want to stay on the planet and dig again or travel to a new planet and dig there.</p> <p> To stay and dig, press the letter <strong>‘A’</strong> on your keyboard. Try pressing it now! </p><p><img src='run_exp/static/images/task_images/land.jpg'  height='700' width='auto'></p>",65,"<p> When you’ve arrived at a new planet, you will dig once. </p> <p>Then, you get to decide if you want to stay on the planet and dig again or travel to a new planet and dig there.</p> <p> To stay and dig, press the letter <strong>‘A’</strong> on your keyboard. Try pressing it now! </p><p><img src='run_exp/static/images/task_images/land.jpg'  height='700' width='auto'></p>",,,,,,100,,,,,,,,,,,,,,,,,
dig_prac,11,63045,0.0-7.0-2.0,"""event"",""trial"",""time""
""fullscreenenter"",""1"",""2370""
","
","
","""event"",""trial"",""time""
""fullscreenenter"",""1"",""2370""
","
",,,,,,,,,,,,"[{""stimulus"":""run_exp/static/images/task_images/dig.jpg"",""time"":0.30000007152557373},{""stimulus"":""run_exp/static/images/task_images/land.jpg"",""time"":668.7000000476837},{""stimulus"":""run_exp/static/images/task_images/dig.jpg"",""time"":1335.8999999761581}]",[],,,,,,,,,,,,,,,
instruc_travel,12,99298,0.0-7.0-3.0,"""event"",""trial"",""time""
""fullscreenenter"",""1"",""2370""
","
","
","""event"",""trial"",""time""
""fullscreenenter"",""1"",""2370""
","
",,null,run_exp/static/audio/clip_5_travel.m4a,null,"<p>Every time you dig up gems, there are less gems on the planet, so the more you dig on a planet the fewer gems you’ll get with each dig.</p><p>When gems are running low, you may want to travel to a new planet. </p> <p>  Planets are very far apart in this galaxy, so it will take some time to travel between them. </p> <br><p>There are lots and lots of planets for you to visit, so you won’t be able to return to any planets you’ve seen before. </p><br><p>To leave this planet and travel to a new one, press the letter <strong>‘L’</strong> on your keyboard. Try pressing it now! </p><p><img src='run_exp/static/images/task_images/rocket-01.jpg'  height='600' width='auto'></p>",,,,,,,,,,,,,,,,,,,,,,,
instruc_travel_try,13,99828,0.0-7.0-4.0,"""event"",""trial"",""time""
""fullscreenenter"",""1"",""2370""
","
","
","""event"",""trial"",""time""
""fullscreenenter"",""1"",""2370""
","
",,526.6999999,"<p>Every time you dig up gems, there are less gems on the planet, so the more you dig on a planet the fewer gems you’ll get with each dig.</p><p>When gems are running low, you may want to travel to a new planet. </p> <p>  Planets are very far apart in this galaxy, so it will take some time to travel between them. </p> <br><p>There are lots and lots of planets for you to visit, so you won’t be able to return to any planets you’ve seen before. </p><br><p>To leave this planet and travel to a new one, press the letter <strong>‘L’</strong> on your keyboard. Try pressing it now! </p><p><img src='run_exp/static/images/task_images/rocket-01.jpg'  height='600' width='auto'></p>",76,"<p>Every time you dig up gems, there are less gems on the planet, so the more you dig on a planet the fewer gems you’ll get with each dig.</p><p>When gems are running low, you may want to travel to a new planet. </p> <p>  Planets are very far apart in this galaxy, so it will take some time to travel between them. </p> <br><p>There are lots and lots of planets for you to visit, so you won’t be able to return to any planets you’ve seen before. </p><br><p>To leave this planet and travel to a new one, press the letter <strong>‘L’</strong> on your keyboard. Try pressing it now! </p><p><img src='run_exp/static/images/task_images/rocket-01.jpg'  height='600' width='auto'></p>",,,,,,,,,,,,,,,,,,,,,,,
travel_prac,14,109831,0.0-7.0-5.0,"""event"",""trial"",""time""
""fullscreenenter"",""1"",""2370""
","
","
","""event"",""trial"",""time""
""fullscreenenter"",""1"",""2370""
","
",,,,,,,,,,,,"[{""stimulus"":""run_exp/static/images/task_images/rocket-01.jpg"",""time"":0.3999999761581421},{""stimulus"":""run_exp/static/images/task_images/rocket-02.jpg"",""time"":1113.5},{""stimulus"":""run_exp/static/images/task_images/rocket-03.jpg"",""time"":2224},{""stimulus"":""run_exp/static/images/task_images/rocket-04.jpg"",""time"":3336.399999976158},{""stimulus"":""run_exp/static/images/task_images/rocket-05.jpg"",""time"":4446.799999952316},{""stimulus"":""run_exp/static/images/task_images/rocket-06.jpg"",""time"":5557.600000023842},{""stimulus"":""run_exp/static/images/task_images/rocket-07.jpg"",""time"":6668},{""stimulus"":""run_exp/static/images/task_images/rocket-08.jpg"",""time"":7779},{""stimulus"":""run_exp/static/images/task_images/rocket-09.jpg"",""time"":8890.299999952316}]",[],0,,,,,,,,,,,,,,
instruc_alien_greet,15,137009,0.0-7.0-6.0,"""event"",""trial"",""time""
""fullscreenenter"",""1"",""2370""
","
","
","""event"",""trial"",""time""
""fullscreenenter"",""1"",""2370""
","
",,null,run_exp/static/audio/clip_6_alien.m4a,null,"<p>When you arrive at a new planet, the alien who owns the treasure mine on that planet will greet you!</p><p>The better an alien takes care of their mine the easier it is to dig for gems. Some aliens take better care of their mine than others. So, you won’t get exactly the same amount of gems on each planet.</p><p>What the alien looks like does not tell you anything about how many gems there are on the planet.</p><br><p><img src=""run_exp/static/images/task_images/aliens/instructions_aliens/planet/alien_planet-1.jpg""  height=""600"" width=""auto""></p>",,,,,,,,,,,,,,,,,,,,,,,
instruc_alien_greet,16,139130,0.0-7.0-7.0,"""event"",""trial"",""time""
""fullscreenenter"",""1"",""2370""
","
","
","""event"",""trial"",""time""
""fullscreenenter"",""1"",""2370""
","
",,2119.9,"<p>When you arrive at a new planet, the alien who owns the treasure mine on that planet will greet you!</p><p>The better an alien takes care of their mine the easier it is to dig for gems. Some aliens take better care of their mine than others. So, you won’t get exactly the same amount of gems on each planet.</p><p>What the alien looks like does not tell you anything about how many gems there are on the planet.</p><br><p><img src=""run_exp/static/images/task_images/aliens/instructions_aliens/planet/alien_planet-1.jpg""  height=""600"" width=""auto""></p>",,,,,,,1,,,,,,,,,,,,,,,,,,
html-keyboard-response,17,139756,0.0-7.0-8.0,"""event"",""trial"",""time""
""fullscreenenter"",""1"",""2370""
","
","
","""event"",""trial"",""time""
""fullscreenenter"",""1"",""2370""
","
",,625.1999999,"<p>When you arrive at a new planet, the alien who owns the treasure mine on that planet will greet you!</p><p>The better an alien takes care of their mine the easier it is to dig for gems. Some aliens take better care of their mine than others. So, you won’t get exactly the same amount of gems on each planet.</p><p>What the alien looks like does not tell you anything about how many gems there are on the planet.</p><br><p><img src=""run_exp/static/images/task_images/aliens/instructions_aliens/planet/alien_planet-1.jpg""  height=""600"" width=""auto""></p><button class=""jspsych-html-btn-unchosen""><img src=""run_exp/static/images/task_images/planet-01.jpg"" height=""50""></button><button class=""jspsych-html-btn-chosen""><img src=""run_exp/static/images/task_images/planet-02.jpg"" height=""50""></button><p><b>[press the space bar to lock in your answer]<b><br></p>",32,,,,,,,,,,,,,,,,,,,,,,,,
time_out,18,150848,0.0-8.0-0.0,"""event"",""trial"",""time""
""fullscreenenter"",""1"",""2370""
","
","
","""event"",""trial"",""time""
""fullscreenenter"",""1"",""2370""
","
",,null,run_exp/static/audio/clip_7_timeout.m4a,null,"<p>If you don't make your choice fast enough, you’ll have to wait a few seconds before you can make another one.</p><p>You can’t dig for more gems or travel to new planets. You just have to sit and wait.</p><br><p><img src='run_exp/static/images/task_images/time_out.jpg'  height='600' width='auto'></p>",,,,,,,,,,,,,,,,,,,,,,,
time_out,19,152626,0.0-8.0-1.0,"""event"",""trial"",""time""
""fullscreenenter"",""1"",""2370""
","
","
","""event"",""trial"",""time""
""fullscreenenter"",""1"",""2370""
","
",,1771.1,"<p>If you don't make your choice fast enough, you’ll have to wait a few seconds before you can make another one.</p><p>You can’t dig for more gems or travel to new planets. You just have to sit and wait.</p><br><p><img src='run_exp/static/images/task_images/time_out.jpg'  height='600' width='auto'></p>",,,,,,,1,,,,,,,,,,,,,,,,,,
html-keyboard-response,20,153116,0.0-8.0-2.0,"""event"",""trial"",""time""
""fullscreenenter"",""1"",""2370""
","
","
","""event"",""trial"",""time""
""fullscreenenter"",""1"",""2370""
","
",,489.7,"<p>If you don't make your choice fast enough, you’ll have to wait a few seconds before you can make another one.</p><p>You can’t dig for more gems or travel to new planets. You just have to sit and wait.</p><br><p><img src='run_exp/static/images/task_images/time_out.jpg'  height='600' width='auto'></p><button class=""jspsych-html-btn-unchosen""><img src=""run_exp/static/images/task_images/planet-01.jpg"" height=""50""></button><button class=""jspsych-html-btn-chosen""><img src=""run_exp/static/images/task_images/planet-02.jpg"" height=""50""></button><p><b>[press the space bar to lock in your answer]<b><br></p>",32,,,,,,,,,,,,,,,,,,,,,,,,
instruc_break,21,168787,0.0-9.0-0.0,"""event"",""trial"",""time""
""fullscreenenter"",""1"",""2370""
","
","
","""event"",""trial"",""time""
""fullscreenenter"",""1"",""2370""
","
",,null,run_exp/static/audio/clip_8_break.m4a,null,"<p> After digging and traveling for a while, you’ll be able to take a break at home base. </p><p>The game will last 20 minutes no matter what.</p><p>You will visit home base every 5 minutes, so, you will visit home base three times during the game.</p><br><p><img src='run_exp/static/images/task_images/home_base.jpg' height='600' width='auto'></p>",,,,,,,,,,,,,,,,,,,,,,,
instruc_break,22,170146,0.0-9.0-1.0,"""event"",""trial"",""time""
""fullscreenenter"",""1"",""2370""
","
","
","""event"",""trial"",""time""
""fullscreenenter"",""1"",""2370""
","
",,1356,"<p> After digging and traveling for a while, you’ll be able to take a break at home base. </p><p>The game will last 20 minutes no matter what.</p><p>You will visit home base every 5 minutes, so, you will visit home base three times during the game.</p><br><p><img src='run_exp/static/images/task_images/home_base.jpg' height='600' width='auto'></p>",,,,,,,1,,,,,,,,,,,,,,,,,,
html-keyboard-response,23,170602,0.0-9.0-2.0,"""event"",""trial"",""time""
""fullscreenenter"",""1"",""2370""
","
","
","""event"",""trial"",""time""
""fullscreenenter"",""1"",""2370""
","
",,455.3,"<p> After digging and traveling for a while, you’ll be able to take a break at home base. </p><p>The game will last 20 minutes no matter what.</p><p>You will visit home base every 5 minutes, so, you will visit home base three times during the game.</p><br><p><img src='run_exp/static/images/task_images/home_base.jpg' height='600' width='auto'></p><button class=""jspsych-html-btn-unchosen""><img src=""run_exp/static/images/task_images/planet-01.jpg"" height=""50""></button><button class=""jspsych-html-btn-chosen""><img src=""run_exp/static/images/task_images/planet-02.jpg"" height=""50""></button><p><b>[press the space bar to lock in your answer]<b><br></p>",32,,,,,,,,,,,,,,,,,,,,,,,,
instruc_prac_game,24,180728,0.0-10.0-0.0,"""event"",""trial"",""time""
""fullscreenenter"",""1"",""2370""
","
","
","""event"",""trial"",""time""
""fullscreenenter"",""1"",""2370""
","
",,null,run_exp/static/audio/clip_9_practice.m4a,null,"<p> Are you ready to play a practice game? </p> <p>In this practice game, you'll be digging up barrels of gems. But, in the real game, you'll be digging up the gems themselves. </p>",,,,,,,,,,,,,,,,,,,,,,,
html-button-response,25,182226,0.0-10.0-1.0,"""event"",""trial"",""time""
""fullscreenenter"",""1"",""2370""
","
","
","""event"",""trial"",""time""
""fullscreenenter"",""1"",""2370""
","
",,1489.1,"<p> Are you ready to play a practice game? </p> <p>In this practice game, you'll be digging up barrels of gems. But, in the real game, you'll be digging up the gems themselves. </p>",,,,,,,0,,,,,,,,,,,,,,,,,,
alien_welcome_prac,26,187229,0.0-11.0-0.0,"""event"",""trial"",""time""
""fullscreenenter"",""1"",""2370""
","
","
","""event"",""trial"",""time""
""fullscreenenter"",""1"",""2370""
","
",,null,run_exp/static/images/task_images/aliens/practice_aliens/planet/alien_planet-5.jpg,null,,,,,,,,,,,,,,,,,,,,,,,,
land_prac,27,187731,0.0-11.0-1.0,"""event"",""trial"",""time""
""fullscreenenter"",""1"",""2370""
","
","
","""event"",""trial"",""time""
""fullscreenenter"",""1"",""2370""
","
",,null,run_exp/static/images/task_images/land.jpg,null,,,,,,,94,,,0,,,,,,,,,,,,,,
dig_prac,28,189734,0.0-11.0-2.0,"""event"",""trial"",""time""
""fullscreenenter"",""1"",""2370""
","
","
","""event"",""trial"",""time""
""fullscreenenter"",""1"",""2370""
","
",,,,,,,,,,,,"[{""stimulus"":""run_exp/static/images/task_images/dig.jpg"",""time"":0.09999990463256836},{""stimulus"":""run_exp/static/images/task_images/land.jpg"",""time"":668.3999999761581},{""stimulus"":""run_exp/static/images/task_images/dig.jpg"",""time"":1335.8999999761581}]",[],,,,,,,,,,,,,,,
harvest_prac,29,190736,0.0-11.0-3.0,"""event"",""trial"",""time""
""fullscreenenter"",""1"",""2370""
","
","
","""event"",""trial"",""time""
""fullscreenenter"",""1"",""2370""
","
",,null,run_exp/static/images/task_images/barrel_text.jpg,null,,,,,,,,,,,,,,,,,,,,,,,,
decision_prac,30,191140,0.0-11.0-4.0,"""event"",""trial"",""time""
""fullscreenenter"",""1"",""2370""
","
","
","""event"",""trial"",""time""
""fullscreenenter"",""1"",""2370""
","
",,401.4,run_exp/static/images/task_images/land.jpg,65,,,,,,,,,,,1,,,,,,,,,,,,,
dig_prac,31,193148,0.0-12.0-0.0,"""event"",""trial"",""time""
""fullscreenenter"",""1"",""2370""
","
","
","""event"",""trial"",""time""
""fullscreenenter"",""1"",""2370""
","
",,,,,,,,,,,,"[{""stimulus"":""run_exp/static/images/task_images/dig.jpg"",""time"":0.20000004768371582},{""stimulus"":""run_exp/static/images/task_images/land.jpg"",""time"":669.2999999523163},{""stimulus"":""run_exp/static/images/task_images/dig.jpg"",""time"":1335.1000000238419}]",[],,,,,,,,,,,,,,,
harvest_prac,32,194151,0.0-12.0-1.0,"""event"",""trial"",""time""
""fullscreenenter"",""1"",""2370""
","
","
","""event"",""trial"",""time""
""fullscreenenter"",""1"",""2370""
","
",,null,run_exp/static/images/task_images/barrel_text.jpg,null,,,,,,,,,,,,,,,,,,,,,,,,
decision_prac,33,194578,0.0-12.0-2.0,"""event"",""trial"",""time""
""fullscreenenter"",""1"",""2370""
","
","
","""event"",""trial"",""time""
""fullscreenenter"",""1"",""2370""
","
",,426.4,run_exp/static/images/task_images/land.jpg,65,,,,,,,,,,,2,,,,,,,,,,,,,
dig_prac,34,196580,0.0-13.0-0.0,"""event"",""trial"",""time""
""fullscreenenter"",""1"",""2370""
","
","
","""event"",""trial"",""time""
""fullscreenenter"",""1"",""2370""
","
",,,,,,,,,,,,"[{""stimulus"":""run_exp/static/images/task_images/dig.jpg"",""time"":0},{""stimulus"":""run_exp/static/images/task_images/land.jpg"",""time"":668.6999999284744},{""stimulus"":""run_exp/static/images/task_images/dig.jpg"",""time"":1335.1999999284744}]",[],,,,,,,,,,,,,,,
harvest_prac,35,197582,0.0-13.0-1.0,"""event"",""trial"",""time""
""fullscreenenter"",""1"",""2370""
","
","
","""event"",""trial"",""time""
""fullscreenenter"",""1"",""2370""
","
",,null,run_exp/static/images/task_images/barrel_text.jpg,null,,,,,,,,,,,,,,,,,,,,,,,,
decision_prac,36,198412,0.0-13.0-2.0,"""event"",""trial"",""time""
""fullscreenenter"",""1"",""2370""
","
","
","""event"",""trial"",""time""
""fullscreenenter"",""1"",""2370""
","
",,828.5,run_exp/static/images/task_images/land.jpg,65,,,,,,,,,,,3,,,,,,,,,,,,,
dig_prac,37,200418,0.0-14.0-0.0,"""event"",""trial"",""time""
""fullscreenenter"",""1"",""2370""
","
","
","""event"",""trial"",""time""
""fullscreenenter"",""1"",""2370""
","
",,,,,,,,,,,,"[{""stimulus"":""run_exp/static/images/task_images/dig.jpg"",""time"":0.19999992847442627},{""stimulus"":""run_exp/static/images/task_images/land.jpg"",""time"":669},{""stimulus"":""run_exp/static/images/task_images/dig.jpg"",""time"":1335.2999999523163}]",[],,,,,,,,,,,,,,,
harvest_prac,38,201421,0.0-14.0-1.0,"""event"",""trial"",""time""
""fullscreenenter"",""1"",""2370""
","
","
","""event"",""trial"",""time""
""fullscreenenter"",""1"",""2370""
","
",,null,run_exp/static/images/task_images/barrel_text.jpg,null,,,,,,,,,,,,,,,,,,,,,,,,
decision_prac,39,201594,0.0-14.0-2.0,"""event"",""trial"",""time""
""fullscreenenter"",""1"",""2370""
","
","
","""event"",""trial"",""time""
""fullscreenenter"",""1"",""2370""
","
",,173.1,run_exp/static/images/task_images/land.jpg,65,,,,,,,,,,,4,,,,,,,,,,,,,
dig_prac,40,203597,0.0-15.0-0.0,"""event"",""trial"",""time""
""fullscreenenter"",""1"",""2370""
","
","
","""event"",""trial"",""time""
""fullscreenenter"",""1"",""2370""
","
",,,,,,,,,,,,"[{""stimulus"":""run_exp/static/images/task_images/dig.jpg"",""time"":0},{""stimulus"":""run_exp/static/images/task_images/land.jpg"",""time"":667.6000000238419},{""stimulus"":""run_exp/static/images/task_images/dig.jpg"",""time"":1348.7000000476837}]",[],,,,,,,,,,,,,,,
harvest_prac,41,204599,0.0-15.0-1.0,"""event"",""trial"",""time""
""fullscreenenter"",""1"",""2370""
","
","
","""event"",""trial"",""time""
""fullscreenenter"",""1"",""2370""
","
",,null,run_exp/static/images/task_images/barrel_text.jpg,null,,,,,,,,,,,,,,,,,,,,,,,,
decision_prac,42,205524,0.0-15.0-2.0,"""event"",""trial"",""time""
""fullscreenenter"",""1"",""2370""
","
","
","""event"",""trial"",""time""
""fullscreenenter"",""1"",""2370""
","
",,924.6,run_exp/static/images/task_images/land.jpg,65,,,,,,,,,,,,1,,,,,,,,,,,,
quiz_instruc,43,216434,0.0-16.0-0.0,"""event"",""trial"",""time""
""fullscreenenter"",""1"",""2370""
","
","
","""event"",""trial"",""time""
""fullscreenenter"",""1"",""2370""
","
",,10906.4,run_exp/static/audio/clip_10_quiz.m4a,,,,,,,0,,,,,,,,,,,,,,,,,,
instruc_repeat,44,259197,0.0-16.0-1.0,"""event"",""trial"",""time""
""fullscreenenter"",""1"",""2370""
","
","
","""event"",""trial"",""time""
""fullscreenenter"",""1"",""2370""
","
",,null,"<p> Are you ready to play a practice game? </p> <p>In this practice game, you'll be digging up barrels of gems. But, in the real game, you'll be digging up the gems themselves. </p>",null,"<p>In this game, your goal is to collect as many gems as you can. That’s how you will win bonus money. </p> <p>The entire game will last 20 minutes no matter how many gems you collect or how many planets you visit. </p><p>To stay on a planet and dig again, press the letter A on your keyboard. To leave for a new planet, press the letter L.</p><p>The more you dig on a planet, the fewer gems you’ll get with each dig which is why you might consider leaving for a new planet. </p><p>When you arrive at a new planet, you’ll be greeted by an alien. What the alien looks like does not tell you anything about how much treasure is on the planet. </p>",,,,,,,,,,,,,,,,,,,,,,,
instruc_repeat_continue,45,260402,0.0-16.0-2.0,"""event"",""trial"",""time""
""fullscreenenter"",""1"",""2370""
","
","
","""event"",""trial"",""time""
""fullscreenenter"",""1"",""2370""
","
",,1201.6,"<p> Are you ready to play a practice game? </p> <p>In this practice game, you'll be digging up barrels of gems. But, in the real game, you'll be digging up the gems themselves. </p>",,,,,,,0,,,,,,,,,,,,,,,,,,
quiz_q_1_ask,46,262874,0.0-16.0-3.0,"""event"",""trial"",""time""
""fullscreenenter"",""1"",""2370""
","
","
","""event"",""trial"",""time""
""fullscreenenter"",""1"",""2370""
","
",,2470.8,run_exp/static/audio/clip_11_q1_ask.m4a,,,,,,,2,,,,,,,,,,,,,,,,,,
quiz_q_1_fb_correct,47,266718,0.0-17.0-0.0,"""event"",""trial"",""time""
""fullscreenenter"",""1"",""2370""
","
","
","""event"",""trial"",""time""
""fullscreenenter"",""1"",""2370""
","
",,null,run_exp/static/audio/clip_12_q1_correct.m4a,null,<p>That’s correct. You win extra money by collecting more gems.</p>,,,,,,,,,,,,,,,,,,,,,,,
quiz_q_2_ask,48,269946,0.0-17.0-1.0,"""event"",""trial"",""time""
""fullscreenenter"",""1"",""2370""
","
","
","""event"",""trial"",""time""
""fullscreenenter"",""1"",""2370""
","
",,3226.1,run_exp/static/audio/clip_14_q2_ask.m4a,,,,,,,1,,,,,,,,,,,,,,,,,,
quiz_q_2_fb_correct,49,273937,0.0-18.0-0.0,"""event"",""trial"",""time""
""fullscreenenter"",""1"",""2370""
","
","
","""event"",""trial"",""time""
""fullscreenenter"",""1"",""2370""
","
",,null,run_exp/static/audio/clip_15_q2_correct.m4a,null,<p>That’s correct. The experiment is 20 minutes no matter what.</p>,,,,,,,,,,,,,,,,,,,,,,,
quiz_q_3_ask,50,279586,0.0-18.0-1.0,"""event"",""trial"",""time""
""fullscreenenter"",""1"",""2370""
","
","
","""event"",""trial"",""time""
""fullscreenenter"",""1"",""2370""
","
",,5647.6,run_exp/static/audio/clip_17_q3_ask.m4a,,,,,,,1,,,,,,,,,,,,,,,,,,
quiz_q_3_fb_correct,51,283578,0.0-19.0-0.0,"""event"",""trial"",""time""
""fullscreenenter"",""1"",""2370""
","
","
","""event"",""trial"",""time""
""fullscreenenter"",""1"",""2370""
","
",,null,run_exp/static/audio/clip_18_q3_correct.m4a,null,<p> That’s correct. You press the letter L to travel to a new planet.</p>,,,,,,,,,,,,,,,,,,,,,,,
quiz_q_4_ask,52,287394,0.0-19.0-1.0,"""event"",""trial"",""time""
""fullscreenenter"",""1"",""2370""
","
","
","""event"",""trial"",""time""
""fullscreenenter"",""1"",""2370""
","
",,3812.9,run_exp/static/audio/clip_20_q4_ask.m4a,,,,,,,0,,,,,,,,,,,,,,,,,,
quiz_q_4_fb_correct,53,292717,0.0-20.0-0.0,"""event"",""trial"",""time""
""fullscreenenter"",""1"",""2370""
","
","
","""event"",""trial"",""time""
""fullscreenenter"",""1"",""2370""
","
",,null,run_exp/static/audio/clip_21_q4_correct.m4a,null,<p> That’s correct. The more you dig on a planet the fewer gems you’ll get with each dig. </p>,,,,,,,,,,,,,,,,,,,,,,,
quiz_q_5_ask,54,295850,0.0-20.0-1.0,"""event"",""trial"",""time""
""fullscreenenter"",""1"",""2370""
","
","
","""event"",""trial"",""time""
""fullscreenenter"",""1"",""2370""
","
",,3130.1,run_exp/static/audio/clip_23_q5_ask.m4a,,,,,,,1,,,,,,,,,,,,,,,,,,
quiz_q_5_fb_correct,55,300858,0.0-21.0-0.0,"""event"",""trial"",""time""
""fullscreenenter"",""1"",""2370""
","
","
","""event"",""trial"",""time""
""fullscreenenter"",""1"",""2370""
","
",,null,run_exp/static/audio/clip_24_q5_correct.m4a,null,<p> That’s correct. The alien tells you nothing about how much treasure is on the planet.</p>,,,,,,,,,,,,,,,,,,,,,,,
quiz_correct,56,304319,0.0-22.0-0.0,"""event"",""trial"",""time""
""fullscreenenter"",""1"",""2370""
","
","
","""event"",""trial"",""time""
""fullscreenenter"",""1"",""2370""
","
",,null,run_exp/static/audio/clip_26_correct_quiz.m4a,null,,,,,,,,,,,,,,,,,,,,,,,,
quiz_correct_continue,57,393882,0.0-22.0-1.0,"""event"",""trial"",""time""
""fullscreenenter"",""1"",""2370""
","
","
","""event"",""trial"",""time""
""fullscreenenter"",""1"",""2370""
","
",,89562,<p>Good job! You're now ready to move on to the real game!</p>,,,,,,,0,,,,,,,,,,,,,,,,,,
audio-keyboard-response,58,404188,0.0-22.0-2.0,"""event"",""trial"",""time""
""fullscreenenter"",""1"",""2370""
","
","
","""event"",""trial"",""time""
""fullscreenenter"",""1"",""2370""
","
",,null,run_exp/static/audio/clip_28_real_game.m4a,null,,,,,,,,,,,,,,,,,,,,,,,,
instruc_begin_exp_contine,59,404762,0.0-22.0-3.0,"""event"",""trial"",""time""
""fullscreenenter"",""1"",""2370""
","
","
","""event"",""trial"",""time""
""fullscreenenter"",""1"",""2370""
","
",,573.1,"<p>Now that you know how  to dig for space treasure and travel to new planets,you can start exploring! </p><p>Do you want to go over the instructions again or get started with the real game?</p>",,,,,,,1,,,,,,1,,,,,,,,,,,,
alien_welcome,60,409764,0.0-23.0-0.0,"""event"",""trial"",""time""
""fullscreenenter"",""1"",""2370""
","
","
","""event"",""trial"",""time""
""fullscreenenter"",""1"",""2370""
","
",,null,run_exp/static/images/task_images/aliens/old_aliens/planet/alien_planet-73.jpg,null,,,,,,,,,,,,,73,"73,70,35,8,74,78,9,42,43,7,75,30,41,21,11,22,57,17,39,61,34,52,3,15,32,13,48,29,49,64,55,26,1,50,38,40,62,36,16,33,31,77,23,5,46,67",,,,,,,,,,
land,61,410267,0.0-23.0-1.0,"""event"",""trial"",""time""
""fullscreenenter"",""1"",""2370""
","
","
","""event"",""trial"",""time""
""fullscreenenter"",""1"",""2370""
","
",,null,run_exp/static/images/task_images/land.jpg,null,,,,,,,107,,,1,,,,,,,,,,,,,,
dig,62,412274,0.0-23.0-2.0,"""event"",""trial"",""time""
""fullscreenenter"",""1"",""2370""
","
","
","""event"",""trial"",""time""
""fullscreenenter"",""1"",""2370""
","
",,,,,,,,,,,,"[{""stimulus"":""run_exp/static/images/task_images/dig.jpg"",""time"":0.5},{""stimulus"":""run_exp/static/images/task_images/land.jpg"",""time"":671.0999999046326},{""stimulus"":""run_exp/static/images/task_images/dig.jpg"",""time"":1337.0999999046326}]",[],1,,,,,,,,,,,,,,
harvest,63,413277,0.0-23.0-3.0,"""event"",""trial"",""time""
""fullscreenenter"",""1"",""2370""
","
","
","""event"",""trial"",""time""
""fullscreenenter"",""1"",""2370""
","
",,null,run_exp/static/images/task_images/gems/107.jpg,null,,,,,,,22,,,1,,,,,107,0.201980804,0.205607477,,,,,,,
decision,64,413586,0.0-23.0-4.0,"""event"",""trial"",""time""
""fullscreenenter"",""1"",""2370""
","
","
","""event"",""trial"",""time""
""fullscreenenter"",""1"",""2370""
","
",,308.5,run_exp/static/images/task_images/land.jpg,65,,,,,,,22,,,1,,,,,,,,8824,1,0,FALSE,,,
dig,65,416280,0.0-24.0-0.0,"""event"",""trial"",""time""
""fullscreenenter"",""1"",""2370""
","
","
","""event"",""trial"",""time""
""fullscreenenter"",""1"",""2370""
","
",,,,,,,,,,,,"[{""stimulus"":""run_exp/static/images/task_images/dig.jpg"",""time"":0.10000002384185791},{""stimulus"":""run_exp/static/images/task_images/land.jpg"",""time"":897.8999999761581},{""stimulus"":""run_exp/static/images/task_images/dig.jpg"",""time"":1795.2999999523163}]",[],1,,,,,,,,,,,,,,
harvest,66,417281,0.0-24.0-1.0,"""event"",""trial"",""time""
""fullscreenenter"",""1"",""2370""
","
","
","""event"",""trial"",""time""
""fullscreenenter"",""1"",""2370""
","
",,null,run_exp/static/images/task_images/gems/22.jpg,null,,,,,,,4,,,1,,,,,22,0.191914256,0.181818182,,,,,,,
decision,67,417514,0.0-24.0-2.0,"""event"",""trial"",""time""
""fullscreenenter"",""1"",""2370""
","
","
","""event"",""trial"",""time""
""fullscreenenter"",""1"",""2370""
","
",,232.2,run_exp/static/images/task_images/land.jpg,76,,,,,,,4,,,1,,,,,,,,12751,1,1,TRUE,,,
travel,68,427282,0.0-25.0-0.0,"""event"",""trial"",""time""
""fullscreenenter"",""1"",""2370""
","
","
","""event"",""trial"",""time""
""fullscreenenter"",""1"",""2370""
","
",,,,,,,,,,,,"[{""stimulus"":""run_exp/static/images/task_images/rocket-01.jpg"",""time"":0},{""stimulus"":""run_exp/static/images/task_images/rocket-02.jpg"",""time"":1086.2999999523163},{""stimulus"":""run_exp/static/images/task_images/rocket-03.jpg"",""time"":2173.7999999523163},{""stimulus"":""run_exp/static/images/task_images/rocket-04.jpg"",""time"":3256.1999999284744},{""stimulus"":""run_exp/static/images/task_images/rocket-05.jpg"",""time"":4341.699999928474},{""stimulus"":""run_exp/static/images/task_images/rocket-06.jpg"",""time"":5426.299999952316},{""stimulus"":""run_exp/static/images/task_images/rocket-07.jpg"",""time"":6511.099999904633},{""stimulus"":""run_exp/static/images/task_images/rocket-08.jpg"",""time"":7596.599999904633},{""stimulus"":""run_exp/static/images/task_images/rocket-09.jpg"",""time"":8683}]",[],1,,,,,,,,,,,,,,
alien_welcome,69,432284,0.0-25.0-1.0,"""event"",""trial"",""time""
""fullscreenenter"",""1"",""2370""
","
","
","""event"",""trial"",""time""
""fullscreenenter"",""1"",""2370""
","
",,null,run_exp/static/images/task_images/aliens/old_aliens/planet/alien_planet-70.jpg,null,,,,,,,,,,,,,70,"73,70,35,8,74,78,9,42,43,7,75,30,41,21,11,22,57,17,39,61,34,52,3,15,32,13,48,29,49,64,55,26,1,50,38,40,62,36,16,33,31,77,23,5,46,67",,,,,,,,,,
land,70,432787,0.0-25.0-2.0,"""event"",""trial"",""time""
""fullscreenenter"",""1"",""2370""
","
","
","""event"",""trial"",""time""
""fullscreenenter"",""1"",""2370""
","
",,null,run_exp/static/images/task_images/land.jpg,null,,,,,,,94,,,2,,,,,,,,,,,,,,
dig,71,434791,0.0-25.0-3.0,"""event"",""trial"",""time""
""fullscreenenter"",""1"",""2370""
","
","
","""event"",""trial"",""time""
""fullscreenenter"",""1"",""2370""
","
",,,,,,,,,,,,"[{""stimulus"":""run_exp/static/images/task_images/dig.jpg"",""time"":0.10000002384185791},{""stimulus"":""run_exp/static/images/task_images/land.jpg"",""time"":668.1000000238419},{""stimulus"":""run_exp/static/images/task_images/dig.jpg"",""time"":1335.6000000238419}]",[],2,,,,,,,,,,,,,,
harvest,72,435793,0.0-25.0-4.0,"""event"",""trial"",""time""
""fullscreenenter"",""1"",""2370""
","
","
","""event"",""trial"",""time""
""fullscreenenter"",""1"",""2370""
","
",,null,run_exp/static/images/task_images/gems/94.jpg,null,,,,,,,14,,,2,,,,,94,0.145253229,0.14893617,,,,,,,
decision,73,436275,0.0-25.0-5.0,"""event"",""trial"",""time""
""fullscreenenter"",""1"",""2370""
","
","
","""event"",""trial"",""time""
""fullscreenenter"",""1"",""2370""
","
",,477.3,run_exp/static/images/task_images/land.jpg,65,,,,,,,14,,,2,,,,,,,,31512,1,0,FALSE,,,
dig,74,438797,0.0-26.0-0.0,"""event"",""trial"",""time""
""fullscreenenter"",""1"",""2370""
","
","
","""event"",""trial"",""time""
""fullscreenenter"",""1"",""2370""
","
",,,,,,,,,,,,"[{""stimulus"":""run_exp/static/images/task_images/dig.jpg"",""time"":0.10000002384185791},{""stimulus"":""run_exp/static/images/task_images/land.jpg"",""time"":842.3000000715256},{""stimulus"":""run_exp/static/images/task_images/dig.jpg"",""time"":1680.8999999761581}]",[],2,,,,,,,,,,,,,,
harvest,75,439800,0.0-26.0-1.0,"""event"",""trial"",""time""
""fullscreenenter"",""1"",""2370""
","
","
","""event"",""trial"",""time""
""fullscreenenter"",""1"",""2370""
","
",,null,run_exp/static/images/task_images/gems/14.jpg,null,,,,,,,3,,,2,,,,,14,0.189736015,0.214285714,,,,,,,
decision,76,439900,0.0-26.0-2.0,"""event"",""trial"",""time""
""fullscreenenter"",""1"",""2370""
","
","
","""event"",""trial"",""time""
""fullscreenenter"",""1"",""2370""
","
",,97.70000005,run_exp/static/images/task_images/land.jpg,76,,,,,,,3,,,2,,,,,,,,35137,1,1,TRUE,,,
travel,77,449806,0.0-27.0-0.0,"""event"",""trial"",""time""
""fullscreenenter"",""1"",""2370""
","
","
","""event"",""trial"",""time""
""fullscreenenter"",""1"",""2370""
","
",,,,,,,,,,,,"[{""stimulus"":""run_exp/static/images/task_images/rocket-01.jpg"",""time"":0.2999999523162842},{""stimulus"":""run_exp/static/images/task_images/rocket-02.jpg"",""time"":1101.8999999761581},{""stimulus"":""run_exp/static/images/task_images/rocket-03.jpg"",""time"":2201.899999976158},{""stimulus"":""run_exp/static/images/task_images/rocket-04.jpg"",""time"":3302},{""stimulus"":""run_exp/static/images/task_images/rocket-05.jpg"",""time"":4401},{""stimulus"":""run_exp/static/images/task_images/rocket-06.jpg"",""time"":5501.799999952316},{""stimulus"":""run_exp/static/images/task_images/rocket-07.jpg"",""time"":6601.600000023842},{""stimulus"":""run_exp/static/images/task_images/rocket-08.jpg"",""time"":7701.199999928474},{""stimulus"":""run_exp/static/images/task_images/rocket-09.jpg"",""time"":8802}]",[],2,,,,,,,,,,,,,,
alien_welcome,78,454808,0.0-27.0-1.0,"""event"",""trial"",""time""
""fullscreenenter"",""1"",""2370""
","
","
","""event"",""trial"",""time""
""fullscreenenter"",""1"",""2370""
","
",,null,run_exp/static/images/task_images/aliens/old_aliens/planet/alien_planet-35.jpg,null,,,,,,,,,,,,,35,"73,70,35,8,74,78,9,42,43,7,75,30,41,21,11,22,57,17,39,61,34,52,3,15,32,13,48,29,49,64,55,26,1,50,38,40,62,36,16,33,31,77,23,5,46,67",,,,,,,,,,
land,79,455310,0.0-27.0-2.0,"""event"",""trial"",""time""
""fullscreenenter"",""1"",""2370""
","
","
","""event"",""trial"",""time""
""fullscreenenter"",""1"",""2370""
","
",,null,run_exp/static/images/task_images/land.jpg,null,,,,,,,103,,,3,,,,,,,,,,,,,,
dig,80,457314,0.0-27.0-3.0,"""event"",""trial"",""time""
""fullscreenenter"",""1"",""2370""
","
","
","""event"",""trial"",""time""
""fullscreenenter"",""1"",""2370""
","
",,,,,,,,,,,,"[{""stimulus"":""run_exp/static/images/task_images/dig.jpg"",""time"":0.09999990463256836},{""stimulus"":""run_exp/static/images/task_images/land.jpg"",""time"":669.3999999761581},{""stimulus"":""run_exp/static/images/task_images/dig.jpg"",""time"":1336.5}]",[],3,,,,,,,,,,,,,,
harvest,81,458315,0.0-27.0-4.0,"""event"",""trial"",""time""
""fullscreenenter"",""1"",""2370""
","
","
","""event"",""trial"",""time""
""fullscreenenter"",""1"",""2370""
","
",,null,run_exp/static/images/task_images/gems/103.jpg,null,,,,,,,52,,,3,,,,,103,0.500541056,0.504854369,,,,,,,
decision,82,458691,0.0-27.0-5.0,"""event"",""trial"",""time""
""fullscreenenter"",""1"",""2370""
","
","
","""event"",""trial"",""time""
""fullscreenenter"",""1"",""2370""
","
",,374.1999999,run_exp/static/images/task_images/land.jpg,65,,,,,,,52,,,3,,,,,,,,53928,1,0,FALSE,,,
dig,83,461323,0.0-28.0-0.0,"""event"",""trial"",""time""
""fullscreenenter"",""1"",""2370""
","
","
","""event"",""trial"",""time""
""fullscreenenter"",""1"",""2370""
","
",,,,,,,,,,,,"[{""stimulus"":""run_exp/static/images/task_images/dig.jpg"",""time"":0.20000004768371582},{""stimulus"":""run_exp/static/images/task_images/land.jpg"",""time"":876.3000000715256},{""stimulus"":""run_exp/static/images/task_images/dig.jpg"",""time"":1751.8999999761581}]",[],3,,,,,,,,,,,,,,
harvest,84,462324,0.0-28.0-1.0,"""event"",""trial"",""time""
""fullscreenenter"",""1"",""2370""
","
","
","""event"",""trial"",""time""
""fullscreenenter"",""1"",""2370""
","
",,null,run_exp/static/images/task_images/gems/52.jpg,null,,,,,,,27,,,3,,,,,52,0.514992753,0.519230769,,,,,,,
decision,85,462810,0.0-28.0-2.0,"""event"",""trial"",""time""
""fullscreenenter"",""1"",""2370""
","
","
","""event"",""trial"",""time""
""fullscreenenter"",""1"",""2370""
","
",,485.3000001,run_exp/static/images/task_images/land.jpg,76,,,,,,,27,,,3,,,,,,,,58047,1,1,TRUE,,,
travel,86,472326,0.0-29.0-0.0,"""event"",""trial"",""time""
""fullscreenenter"",""1"",""2370""
","
","
","""event"",""trial"",""time""
""fullscreenenter"",""1"",""2370""
","
",,,,,,,,,,,,"[{""stimulus"":""run_exp/static/images/task_images/rocket-01.jpg"",""time"":0.09999990463256836},{""stimulus"":""run_exp/static/images/task_images/rocket-02.jpg"",""time"":1058.5999999046326},{""stimulus"":""run_exp/static/images/task_images/rocket-03.jpg"",""time"":2115.0999999046326},{""stimulus"":""run_exp/static/images/task_images/rocket-04.jpg"",""time"":3172.0999999046326},{""stimulus"":""run_exp/static/images/task_images/rocket-05.jpg"",""time"":4229.199999928474},{""stimulus"":""run_exp/static/images/task_images/rocket-06.jpg"",""time"":5286.099999904633},{""stimulus"":""run_exp/static/images/task_images/rocket-07.jpg"",""time"":6343.599999904633},{""stimulus"":""run_exp/static/images/task_images/rocket-08.jpg"",""time"":7401.099999904633},{""stimulus"":""run_exp/static/images/task_images/rocket-09.jpg"",""time"":8458.199999928474}]",[],3,,,,,,,,,,,,,,
alien_welcome,87,477328,0.0-29.0-1.0,"""event"",""trial"",""time""
""fullscreenenter"",""1"",""2370""
","
","
","""event"",""trial"",""time""
""fullscreenenter"",""1"",""2370""
","
",,null,run_exp/static/images/task_images/aliens/old_aliens/planet/alien_planet-8.jpg,null,,,,,,,,,,,,,8,"73,70,35,8,74,78,9,42,43,7,75,30,41,21,11,22,57,17,39,61,34,52,3,15,32,13,48,29,49,64,55,26,1,50,38,40,62,36,16,33,31,77,23,5,46,67",,,,,,,,,,
land,88,477831,0.0-29.0-2.0,"""event"",""trial"",""time""
""fullscreenenter"",""1"",""2370""
","
","
","""event"",""trial"",""time""
""fullscreenenter"",""1"",""2370""
","
",,null,run_exp/static/images/task_images/land.jpg,null,,,,,,,93,,,4,,,,,,,,,,,,,,
dig,89,479838,0.0-29.0-3.0,"""event"",""trial"",""time""
""fullscreenenter"",""1"",""2370""
","
","
","""event"",""trial"",""time""
""fullscreenenter"",""1"",""2370""
","
",,,,,,,,,,,,"[{""stimulus"":""run_exp/static/images/task_images/dig.jpg"",""time"":0.3999999761581421},{""stimulus"":""run_exp/static/images/task_images/land.jpg"",""time"":669.2000000476837},{""stimulus"":""run_exp/static/images/task_images/dig.jpg"",""time"":1341.7000000476837}]",[],4,,,,,,,,,,,,,,
harvest,90,480840,0.0-29.0-4.0,"""event"",""trial"",""time""
""fullscreenenter"",""1"",""2370""
","
","
","""event"",""trial"",""time""
""fullscreenenter"",""1"",""2370""
","
",,null,run_exp/static/images/task_images/gems/93.jpg,null,,,,,,,49,,,4,,,,,93,0.53175102,0.52688172,,,,,,,
decision,91,481138,0.0-29.0-5.0,"""event"",""trial"",""time""
""fullscreenenter"",""1"",""2370""
","
","
","""event"",""trial"",""time""
""fullscreenenter"",""1"",""2370""
","
",,296.9000001,run_exp/static/images/task_images/land.jpg,65,,,,,,,49,,,4,,,,,,,,76375,1,0,FALSE,,,
dig,92,483844,0.0-30.0-0.0,"""event"",""trial"",""time""
""fullscreenenter"",""1"",""2370""
","
","
","""event"",""trial"",""time""
""fullscreenenter"",""1"",""2370""
","
",,,,,,,,,,,,"[{""stimulus"":""run_exp/static/images/task_images/dig.jpg"",""time"":0.10000002384185791},{""stimulus"":""run_exp/static/images/task_images/land.jpg"",""time"":901.6999999284744},{""stimulus"":""run_exp/static/images/task_images/dig.jpg"",""time"":1803.6999999284744}]",[],4,,,,,,,,,,,,,,
harvest,93,484845,0.0-30.0-1.0,"""event"",""trial"",""time""
""fullscreenenter"",""1"",""2370""
","
","
","""event"",""trial"",""time""
""fullscreenenter"",""1"",""2370""
","
",,null,run_exp/static/images/task_images/gems/49.jpg,null,,,,,,,27,,,4,,,,,49,0.555142364,0.551020408,,,,,,,
decision,94,485274,0.0-30.0-2.0,"""event"",""trial"",""time""
""fullscreenenter"",""1"",""2370""
","
","
","""event"",""trial"",""time""
""fullscreenenter"",""1"",""2370""
","
",,427.9,run_exp/static/images/task_images/land.jpg,76,,,,,,,27,,,4,,,,,,,,80511,1,1,TRUE,,,
travel,95,494844,0.0-31.0-0.0,"""event"",""trial"",""time""
""fullscreenenter"",""1"",""2370""
","
","
","""event"",""trial"",""time""
""fullscreenenter"",""1"",""2370""
","
",,,,,,,,,,,,"[{""stimulus"":""run_exp/static/images/task_images/rocket-01.jpg"",""time"":0.10000002384185791},{""stimulus"":""run_exp/static/images/task_images/rocket-02.jpg"",""time"":1063.4000000953674},{""stimulus"":""run_exp/static/images/task_images/rocket-03.jpg"",""time"":2127.600000023842},{""stimulus"":""run_exp/static/images/task_images/rocket-04.jpg"",""time"":3191.600000023842},{""stimulus"":""run_exp/static/images/task_images/rocket-05.jpg"",""time"":4254.400000095367},{""stimulus"":""run_exp/static/images/task_images/rocket-06.jpg"",""time"":5316.200000047684},{""stimulus"":""run_exp/static/images/task_images/rocket-07.jpg"",""time"":6380},{""stimulus"":""run_exp/static/images/task_images/rocket-08.jpg"",""time"":7443.5},{""stimulus"":""run_exp/static/images/task_images/rocket-09.jpg"",""time"":8505.400000095367}]",[],4,,,,,,,,,,,,,,
alien_welcome,96,499845,0.0-31.0-1.0,"""event"",""trial"",""time""
""fullscreenenter"",""1"",""2370""
","
","
","""event"",""trial"",""time""
""fullscreenenter"",""1"",""2370""
","
",,null,run_exp/static/images/task_images/aliens/old_aliens/planet/alien_planet-74.jpg,null,,,,,,,,,,,,,74,"73,70,35,8,74,78,9,42,43,7,75,30,41,21,11,22,57,17,39,61,34,52,3,15,32,13,48,29,49,64,55,26,1,50,38,40,62,36,16,33,31,77,23,5,46,67",,,,,,,,,,
land,97,500347,0.0-31.0-2.0,"""event"",""trial"",""time""
""fullscreenenter"",""1"",""2370""
","
","
","""event"",""trial"",""time""
""fullscreenenter"",""1"",""2370""
","
",,null,run_exp/static/images/task_images/land.jpg,null,,,,,,,100,,,5,,,,,,,,,,,,,,
dig,98,502354,0.0-31.0-3.0,"""event"",""trial"",""time""
""fullscreenenter"",""1"",""2370""
","
","
","""event"",""trial"",""time""
""fullscreenenter"",""1"",""2370""
","
",,,,,,,,,,,,"[{""stimulus"":""run_exp/static/images/task_images/dig.jpg"",""time"":0.5},{""stimulus"":""run_exp/static/images/task_images/land.jpg"",""time"":669.3999999761581},{""stimulus"":""run_exp/static/images/task_images/dig.jpg"",""time"":1337.2000000476837}]",[],5,,,,,,,,,,,,,,
harvest,99,503356,0.0-31.0-4.0,"""event"",""trial"",""time""
""fullscreenenter"",""1"",""2370""
","
","
","""event"",""trial"",""time""
""fullscreenenter"",""1"",""2370""
","
",,null,run_exp/static/images/task_images/gems/100.jpg,null,,,,,,,49,,,5,,,,,100,0.49162785,0.49,,,,,,,
decision,100,504708,0.0-31.0-5.0,"""event"",""trial"",""time""
""fullscreenenter"",""1"",""2370""
","
","
","""event"",""trial"",""time""
""fullscreenenter"",""1"",""2370""
","
",,1351.9,run_exp/static/images/task_images/land.jpg,65,,,,,,,49,,,5,,,,,,,,99946,1,0,FALSE,,,
dig,101,506363,0.0-32.0-0.0,"""event"",""trial"",""time""
""fullscreenenter"",""1"",""2370""
","
","
","""event"",""trial"",""time""
""fullscreenenter"",""1"",""2370""
","
",,,,,,,,,,,,"[{""stimulus"":""run_exp/static/images/task_images/dig.jpg"",""time"":0.3999999761581421},{""stimulus"":""run_exp/static/images/task_images/land.jpg"",""time"":552.1000000238419},{""stimulus"":""run_exp/static/images/task_images/dig.jpg"",""time"":1100.6000000238419}]",[],5,,,,,,,,,,,,,,
harvest,102,507365,0.0-32.0-1.0,"""event"",""trial"",""time""
""fullscreenenter"",""1"",""2370""
","
","
","""event"",""trial"",""time""
""fullscreenenter"",""1"",""2370""
","
",,null,run_exp/static/images/task_images/gems/49.jpg,null,,,,,,,28,,,5,,,,,49,0.575843347,0.571428571,,,,,,,
decision,103,507932,0.0-32.0-2.0,"""event"",""trial"",""time""
""fullscreenenter"",""1"",""2370""
","
","
","""event"",""trial"",""time""
""fullscreenenter"",""1"",""2370""
","
",,563.1999999,run_exp/static/images/task_images/land.jpg,65,,,,,,,28,,,5,,,,,,,,103169,1,1,FALSE,,,
dig,104,510374,0.0-33.0-0.0,"""event"",""trial"",""time""
""fullscreenenter"",""1"",""2370""
","
","
","""event"",""trial"",""time""
""fullscreenenter"",""1"",""2370""
","
",,,,,,,,,,,,"[{""stimulus"":""run_exp/static/images/task_images/dig.jpg"",""time"":0.30000007152557373},{""stimulus"":""run_exp/static/images/task_images/land.jpg"",""time"":813.8999999761581},{""stimulus"":""run_exp/static/images/task_images/dig.jpg"",""time"":1626.5}]",[],5,,,,,,,,,,,,,,
harvest,105,511378,0.0-33.0-1.0,"""event"",""trial"",""time""
""fullscreenenter"",""1"",""2370""
","
","
","""event"",""trial"",""time""
""fullscreenenter"",""1"",""2370""
","
",,null,run_exp/static/images/task_images/gems/28.jpg,null,,,,,,,14,,,5,,,,,28,0.497561566,0.5,,,,,,,
decision,106,512610,0.0-33.0-2.0,"""event"",""trial"",""time""
""fullscreenenter"",""1"",""2370""
","
","
","""event"",""trial"",""time""
""fullscreenenter"",""1"",""2370""
","
",,1230.6,run_exp/static/images/task_images/land.jpg,76,,,,,,,14,,,5,,,,,,,,107847,1,2,TRUE,,,
travel,107,521380,0.0-34.0-0.0,"""event"",""trial"",""time""
""fullscreenenter"",""1"",""2370""
","
","
","""event"",""trial"",""time""
""fullscreenenter"",""1"",""2370""
","
",,,,,,,,,,,,"[{""stimulus"":""run_exp/static/images/task_images/rocket-01.jpg"",""time"":0.19999992847442627},{""stimulus"":""run_exp/static/images/task_images/rocket-02.jpg"",""time"":976.1999999284744},{""stimulus"":""run_exp/static/images/task_images/rocket-03.jpg"",""time"":1949.3999999761581},{""stimulus"":""run_exp/static/images/task_images/rocket-04.jpg"",""time"":2923.5},{""stimulus"":""run_exp/static/images/task_images/rocket-05.jpg"",""time"":3898},{""stimulus"":""run_exp/static/images/task_images/rocket-06.jpg"",""time"":4872.399999976158},{""stimulus"":""run_exp/static/images/task_images/rocket-07.jpg"",""time"":5846.399999976158},{""stimulus"":""run_exp/static/images/task_images/rocket-08.jpg"",""time"":6819.600000023842},{""stimulus"":""run_exp/static/images/task_images/rocket-09.jpg"",""time"":7793.399999976158}]",[],5,,,,,,,,,,,,,,
alien_welcome,108,526384,0.0-34.0-1.0,"""event"",""trial"",""time""
""fullscreenenter"",""1"",""2370""
","
","
","""event"",""trial"",""time""
""fullscreenenter"",""1"",""2370""
","
",,null,run_exp/static/images/task_images/aliens/old_aliens/planet/alien_planet-78.jpg,null,,,,,,,,,,,,,78,"73,70,35,8,74,78,9,42,43,7,75,30,41,21,11,22,57,17,39,61,34,52,3,15,32,13,48,29,49,64,55,26,1,50,38,40,62,36,16,33,31,77,23,5,46,67",,,,,,,,,,
land,109,526887,0.0-34.0-2.0,"""event"",""trial"",""time""
""fullscreenenter"",""1"",""2370""
","
","
","""event"",""trial"",""time""
""fullscreenenter"",""1"",""2370""
","
",,null,run_exp/static/images/task_images/land.jpg,null,,,,,,,104,,,6,,,,,,,,,,,,,,
dig,110,528893,0.0-34.0-3.0,"""event"",""trial"",""time""
""fullscreenenter"",""1"",""2370""
","
","
","""event"",""trial"",""time""
""fullscreenenter"",""1"",""2370""
","
",,,,,,,,,,,,"[{""stimulus"":""run_exp/static/images/task_images/dig.jpg"",""time"":0.3999999761581421},{""stimulus"":""run_exp/static/images/task_images/land.jpg"",""time"":668.6999999284744},{""stimulus"":""run_exp/static/images/task_images/dig.jpg"",""time"":1335}]",[],6,,,,,,,,,,,,,,
harvest,111,529894,0.0-34.0-4.0,"""event"",""trial"",""time""
""fullscreenenter"",""1"",""2370""
","
","
","""event"",""trial"",""time""
""fullscreenenter"",""1"",""2370""
","
",,null,run_exp/static/images/task_images/gems/104.jpg,null,,,,,,,90,,,6,,,,,104,0.865826297,0.865384615,,,,,,,
decision,112,530050,0.0-34.0-5.0,"""event"",""trial"",""time""
""fullscreenenter"",""1"",""2370""
","
","
","""event"",""trial"",""time""
""fullscreenenter"",""1"",""2370""
","
",,155.2,run_exp/static/images/task_images/land.jpg,65,,,,,,,90,,,6,,,,,,,,125287,1,0,FALSE,,,
dig,113,532896,0.0-35.0-0.0,"""event"",""trial"",""time""
""fullscreenenter"",""1"",""2370""
","
","
","""event"",""trial"",""time""
""fullscreenenter"",""1"",""2370""
","
",,,,,,,,,,,,"[{""stimulus"":""run_exp/static/images/task_images/dig.jpg"",""time"":0.10000002384185791},{""stimulus"":""run_exp/static/images/task_images/land.jpg"",""time"":948.9000000953674},{""stimulus"":""run_exp/static/images/task_images/dig.jpg"",""time"":1898.9000000953674}]",[],6,,,,,,,,,,,,,,
harvest,114,533904,0.0-35.0-1.0,"""event"",""trial"",""time""
""fullscreenenter"",""1"",""2370""
","
","
","""event"",""trial"",""time""
""fullscreenenter"",""1"",""2370""
","
",,null,run_exp/static/images/task_images/gems/90.jpg,null,,,,,,,73,,,6,,,,,90,0.815428385,0.811111111,,,,,,,
decision,115,533986,0.0-35.0-2.0,"""event"",""trial"",""time""
""fullscreenenter"",""1"",""2370""
","
","
","""event"",""trial"",""time""
""fullscreenenter"",""1"",""2370""
","
",,81.89999998,run_exp/static/images/task_images/land.jpg,65,,,,,,,73,,,6,,,,,,,,129223,1,1,FALSE,,,
dig,116,536906,0.0-36.0-0.0,"""event"",""trial"",""time""
""fullscreenenter"",""1"",""2370""
","
","
","""event"",""trial"",""time""
""fullscreenenter"",""1"",""2370""
","
",,,,,,,,,,,,"[{""stimulus"":""run_exp/static/images/task_images/dig.jpg"",""time"":0.19999992847442627},{""stimulus"":""run_exp/static/images/task_images/land.jpg"",""time"":985.6000000238419},{""stimulus"":""run_exp/static/images/task_images/dig.jpg"",""time"":1950.5}]",[],6,,,,,,,,,,,,,,
harvest,117,537907,0.0-36.0-1.0,"""event"",""trial"",""time""
""fullscreenenter"",""1"",""2370""
","
","
","""event"",""trial"",""time""
""fullscreenenter"",""1"",""2370""
","
",,null,run_exp/static/images/task_images/gems/73.jpg,null,,,,,,,60,,,6,,,,,73,0.822637701,0.821917808,,,,,,,
decision,118,538049,0.0-36.0-2.0,"""event"",""trial"",""time""
""fullscreenenter"",""1"",""2370""
","
","
","""event"",""trial"",""time""
""fullscreenenter"",""1"",""2370""
","
",,141.7,run_exp/static/images/task_images/land.jpg,65,,,,,,,60,,,6,,,,,,,,133287,1,2,FALSE,,,
dig,119,540908,0.0-37.0-0.0,"""event"",""trial"",""time""
""fullscreenenter"",""1"",""2370""
","
","
","""event"",""trial"",""time""
""fullscreenenter"",""1"",""2370""
","
",,,,,,,,,,,,"[{""stimulus"":""run_exp/static/images/task_images/dig.jpg"",""time"":0},{""stimulus"":""run_exp/static/images/task_images/land.jpg"",""time"":953},{""stimulus"":""run_exp/static/images/task_images/dig.jpg"",""time"":1905}]",[],6,,,,,,,,,,,,,,
harvest,120,541911,0.0-37.0-1.0,"""event"",""trial"",""time""
""fullscreenenter"",""1"",""2370""
","
","
","""event"",""trial"",""time""
""fullscreenenter"",""1"",""2370""
","
",,null,run_exp/static/images/task_images/gems/60.jpg,null,,,,,,,49,,,6,,,,,60,0.814688321,0.816666667,,,,,,,
decision,121,541918,0.0-37.0-2.0,"""event"",""trial"",""time""
""fullscreenenter"",""1"",""2370""
","
","
","""event"",""trial"",""time""
""fullscreenenter"",""1"",""2370""
","
",,3.900000095,run_exp/static/images/task_images/land.jpg,65,,,,,,,49,,,6,,,,,,,,137155,1,3,FALSE,,,
dig,122,544918,0.0-38.0-0.0,"""event"",""trial"",""time""
""fullscreenenter"",""1"",""2370""
","
","
","""event"",""trial"",""time""
""fullscreenenter"",""1"",""2370""
","
",,,,,,,,,,,,"[{""stimulus"":""run_exp/static/images/task_images/dig.jpg"",""time"":0},{""stimulus"":""run_exp/static/images/task_images/land.jpg"",""time"":1000.8999999761581},{""stimulus"":""run_exp/static/images/task_images/dig.jpg"",""time"":1997.8000000715256}]",[],6,,,,,,,,,,,,,,
harvest,123,545920,0.0-38.0-1.0,"""event"",""trial"",""time""
""fullscreenenter"",""1"",""2370""
","
","
","""event"",""trial"",""time""
""fullscreenenter"",""1"",""2370""
","
",,null,run_exp/static/images/task_images/gems/49.jpg,null,,,,,,,38,,,6,,,,,49,0.768778762,0.775510204,,,,,,,
decision,124,546025,0.0-38.0-2.0,"""event"",""trial"",""time""
""fullscreenenter"",""1"",""2370""
","
","
","""event"",""trial"",""time""
""fullscreenenter"",""1"",""2370""
","
",,104.9,run_exp/static/images/task_images/land.jpg,76,,,,,,,38,,,6,,,,,,,,141262,1,4,TRUE,,,
travel,125,555919,0.0-39.0-0.0,"""event"",""trial"",""time""
""fullscreenenter"",""1"",""2370""
","
","
","""event"",""trial"",""time""
""fullscreenenter"",""1"",""2370""
","
",,,,,,,,,,,,"[{""stimulus"":""run_exp/static/images/task_images/rocket-01.jpg"",""time"":0.10000002384185791},{""stimulus"":""run_exp/static/images/task_images/rocket-02.jpg"",""time"":1100.6999999284744},{""stimulus"":""run_exp/static/images/task_images/rocket-03.jpg"",""time"":2198.6999999284744},{""stimulus"":""run_exp/static/images/task_images/rocket-04.jpg"",""time"":3297.7999999523163},{""stimulus"":""run_exp/static/images/task_images/rocket-05.jpg"",""time"":4398.399999976158},{""stimulus"":""run_exp/static/images/task_images/rocket-06.jpg"",""time"":5496.299999952316},{""stimulus"":""run_exp/static/images/task_images/rocket-07.jpg"",""time"":6595.100000023842},{""stimulus"":""run_exp/static/images/task_images/rocket-08.jpg"",""time"":7694.600000023842},{""stimulus"":""run_exp/static/images/task_images/rocket-09.jpg"",""time"":8794}]",[],6,,,,,,,,,,,,,,
alien_welcome,126,560922,0.0-39.0-1.0,"""event"",""trial"",""time""
""fullscreenenter"",""1"",""2370""
","
","
","""event"",""trial"",""time""
""fullscreenenter"",""1"",""2370""
","
",,null,run_exp/static/images/task_images/aliens/old_aliens/planet/alien_planet-9.jpg,null,,,,,,,,,,,,,9,"73,70,35,8,74,78,9,42,43,7,75,30,41,21,11,22,57,17,39,61,34,52,3,15,32,13,48,29,49,64,55,26,1,50,38,40,62,36,16,33,31,77,23,5,46,67",,,,,,,,,,
land,127,561424,0.0-39.0-2.0,"""event"",""trial"",""time""
""fullscreenenter"",""1"",""2370""
","
","
","""event"",""trial"",""time""
""fullscreenenter"",""1"",""2370""
","
",,null,run_exp/static/images/task_images/land.jpg,null,,,,,,,99,,,7,,,,,,,,,,,,,,
dig,128,563427,0.0-39.0-3.0,"""event"",""trial"",""time""
""fullscreenenter"",""1"",""2370""
","
","
","""event"",""trial"",""time""
""fullscreenenter"",""1"",""2370""
","
",,,,,,,,,,,,"[{""stimulus"":""run_exp/static/images/task_images/dig.jpg"",""time"":0.10000002384185791},{""stimulus"":""run_exp/static/images/task_images/land.jpg"",""time"":668.6000000238419},{""stimulus"":""run_exp/static/images/task_images/dig.jpg"",""time"":1335.5}]",[],7,,,,,,,,,,,,,,
harvest,129,564430,0.0-39.0-4.0,"""event"",""trial"",""time""
""fullscreenenter"",""1"",""2370""
","
","
","""event"",""trial"",""time""
""fullscreenenter"",""1"",""2370""
","
",,null,run_exp/static/images/task_images/gems/99.jpg,null,,,,,,,80,,,7,,,,,99,0.810464703,0.808080808,,,,,,,
decision,130,564578,0.0-39.0-5.0,"""event"",""trial"",""time""
""fullscreenenter"",""1"",""2370""
","
","
","""event"",""trial"",""time""
""fullscreenenter"",""1"",""2370""
","
",,145.6999999,run_exp/static/images/task_images/land.jpg,65,,,,,,,80,,,7,,,,,,,,159815,1,0,FALSE,,,
dig,131,567435,0.0-40.0-0.0,"""event"",""trial"",""time""
""fullscreenenter"",""1"",""2370""
","
","
","""event"",""trial"",""time""
""fullscreenenter"",""1"",""2370""
","
",,,,,,,,,,,,"[{""stimulus"":""run_exp/static/images/task_images/dig.jpg"",""time"":0.10000002384185791},{""stimulus"":""run_exp/static/images/task_images/land.jpg"",""time"":953.3999999761581},{""stimulus"":""run_exp/static/images/task_images/dig.jpg"",""time"":1903.3000000715256}]",[],7,,,,,,,,,,,,,,
harvest,132,568437,0.0-40.0-1.0,"""event"",""trial"",""time""
""fullscreenenter"",""1"",""2370""
","
","
","""event"",""trial"",""time""
""fullscreenenter"",""1"",""2370""
","
",,null,run_exp/static/images/task_images/gems/80.jpg,null,,,,,,,66,,,7,,,,,80,0.827311318,0.825,,,,,,,
decision,133,568441,0.0-40.0-2.0,"""event"",""trial"",""time""
""fullscreenenter"",""1"",""2370""
","
","
","""event"",""trial"",""time""
""fullscreenenter"",""1"",""2370""
","
",,3.399999976,run_exp/static/images/task_images/land.jpg,65,,,,,,,66,,,7,,,,,,,,163678,1,1,FALSE,,,
dig,134,571439,0.0-41.0-0.0,"""event"",""trial"",""time""
""fullscreenenter"",""1"",""2370""
","
","
","""event"",""trial"",""time""
""fullscreenenter"",""1"",""2370""
","
",,,,,,,,,,,,"[{""stimulus"":""run_exp/static/images/task_images/dig.jpg"",""time"":0},{""stimulus"":""run_exp/static/images/task_images/land.jpg"",""time"":999.8999999761581},{""stimulus"":""run_exp/static/images/task_images/dig.jpg"",""time"":1997.1999999284744}]",[],7,,,,,,,,,,,,,,
harvest,135,572440,0.0-41.0-1.0,"""event"",""trial"",""time""
""fullscreenenter"",""1"",""2370""
","
","
","""event"",""trial"",""time""
""fullscreenenter"",""1"",""2370""
","
",,null,run_exp/static/images/task_images/gems/66.jpg,null,,,,,,,56,,,7,,,,,66,0.843031181,0.848484848,,,,,,,
decision,136,572467,0.0-41.0-2.0,"""event"",""trial"",""time""
""fullscreenenter"",""1"",""2370""
","
","
","""event"",""trial"",""time""
""fullscreenenter"",""1"",""2370""
","
",,25.19999993,run_exp/static/images/task_images/land.jpg,65,,,,,,,56,,,7,,,,,,,,167704,1,2,FALSE,,,
dig,137,575445,0.0-42.0-0.0,"""event"",""trial"",""time""
""fullscreenenter"",""1"",""2370""
","
","
","""event"",""trial"",""time""
""fullscreenenter"",""1"",""2370""
","
",,,,,,,,,,,,"[{""stimulus"":""run_exp/static/images/task_images/dig.jpg"",""time"":0.19999992847442627},{""stimulus"":""run_exp/static/images/task_images/land.jpg"",""time"":994.1000000238419},{""stimulus"":""run_exp/static/images/task_images/dig.jpg"",""time"":1983.6999999284744}]",[],7,,,,,,,,,,,,,,
harvest,138,576447,0.0-42.0-1.0,"""event"",""trial"",""time""
""fullscreenenter"",""1"",""2370""
","
","
","""event"",""trial"",""time""
""fullscreenenter"",""1"",""2370""
","
",,null,run_exp/static/images/task_images/gems/56.jpg,null,,,,,,,47,,,7,,,,,56,0.842373201,0.839285714,,,,,,,
decision,139,576501,0.0-42.0-2.0,"""event"",""trial"",""time""
""fullscreenenter"",""1"",""2370""
","
","
","""event"",""trial"",""time""
""fullscreenenter"",""1"",""2370""
","
",,53.10000002,run_exp/static/images/task_images/land.jpg,65,,,,,,,47,,,7,,,,,,,,171738,1,3,FALSE,,,
dig,140,579451,0.0-43.0-0.0,"""event"",""trial"",""time""
""fullscreenenter"",""1"",""2370""
","
","
","""event"",""trial"",""time""
""fullscreenenter"",""1"",""2370""
","
",,,,,,,,,,,,"[{""stimulus"":""run_exp/static/images/task_images/dig.jpg"",""time"":0.10000002384185791},{""stimulus"":""run_exp/static/images/task_images/land.jpg"",""time"":983.6000000238419},{""stimulus"":""run_exp/static/images/task_images/dig.jpg"",""time"":1964.7999999523163}]",[],7,,,,,,,,,,,,,,
harvest,141,580452,0.0-43.0-1.0,"""event"",""trial"",""time""
""fullscreenenter"",""1"",""2370""
","
","
","""event"",""trial"",""time""
""fullscreenenter"",""1"",""2370""
","
",,null,run_exp/static/images/task_images/gems/47.jpg,null,,,,,,,38,,,7,,,,,47,0.800043484,0.808510638,,,,,,,
decision,142,580459,0.0-43.0-2.0,"""event"",""trial"",""time""
""fullscreenenter"",""1"",""2370""
","
","
","""event"",""trial"",""time""
""fullscreenenter"",""1"",""2370""
","
",,4.900000095,run_exp/static/images/task_images/land.jpg,76,,,,,,,38,,,7,,,,,,,,175696,1,4,TRUE,,,
travel,143,590456,0.0-44.0-0.0,"""event"",""trial"",""time""
""fullscreenenter"",""1"",""2370""
","
","
","""event"",""trial"",""time""
""fullscreenenter"",""1"",""2370""
","
",,,,,,,,,,,,"[{""stimulus"":""run_exp/static/images/task_images/rocket-01.jpg"",""time"":0.10000002384185791},{""stimulus"":""run_exp/static/images/task_images/rocket-02.jpg"",""time"":1111.2000000476837},{""stimulus"":""run_exp/static/images/task_images/rocket-03.jpg"",""time"":2221.600000023842},{""stimulus"":""run_exp/static/images/task_images/rocket-04.jpg"",""time"":3331.8000000715256},{""stimulus"":""run_exp/static/images/task_images/rocket-05.jpg"",""time"":4441.100000023842},{""stimulus"":""run_exp/static/images/task_images/rocket-06.jpg"",""time"":5551.399999976158},{""stimulus"":""run_exp/static/images/task_images/rocket-07.jpg"",""time"":6661.300000071526},{""stimulus"":""run_exp/static/images/task_images/rocket-08.jpg"",""time"":7771.399999976158},{""stimulus"":""run_exp/static/images/task_images/rocket-09.jpg"",""time"":8881.700000047684}]",[],7,,,,,,,,,,,,,,
alien_welcome,144,595459,0.0-44.0-1.0,"""event"",""trial"",""time""
""fullscreenenter"",""1"",""2370""
","
","
","""event"",""trial"",""time""
""fullscreenenter"",""1"",""2370""
","
",,null,run_exp/static/images/task_images/aliens/old_aliens/planet/alien_planet-42.jpg,null,,,,,,,,,,,,,42,"73,70,35,8,74,78,9,42,43,7,75,30,41,21,11,22,57,17,39,61,34,52,3,15,32,13,48,29,49,64,55,26,1,50,38,40,62,36,16,33,31,77,23,5,46,67",,,,,,,,,,
land,145,595960,0.0-44.0-2.0,"""event"",""trial"",""time""
""fullscreenenter"",""1"",""2370""
","
","
","""event"",""trial"",""time""
""fullscreenenter"",""1"",""2370""
","
",,null,run_exp/static/images/task_images/land.jpg,null,,,,,,,100,,,8,,,,,,,,,,,,,,
dig,146,597969,0.0-44.0-3.0,"""event"",""trial"",""time""
""fullscreenenter"",""1"",""2370""
","
","
","""event"",""trial"",""time""
""fullscreenenter"",""1"",""2370""
","
",,,,,,,,,,,,"[{""stimulus"":""run_exp/static/images/task_images/dig.jpg"",""time"":0.19999992847442627},{""stimulus"":""run_exp/static/images/task_images/land.jpg"",""time"":671.5999999046326},{""stimulus"":""run_exp/static/images/task_images/dig.jpg"",""time"":1336.5999999046326}]",[],8,,,,,,,,,,,,,,
harvest,147,598970,0.0-44.0-4.0,"""event"",""trial"",""time""
""fullscreenenter"",""1"",""2370""
","
","
","""event"",""trial"",""time""
""fullscreenenter"",""1"",""2370""
","
",,null,run_exp/static/images/task_images/gems/100.jpg,null,,,,,,,84,,,8,,,,,100,0.843573295,0.84,,,,,,,
decision,148,599034,0.0-44.0-5.0,"""event"",""trial"",""time""
""fullscreenenter"",""1"",""2370""
","
","
","""event"",""trial"",""time""
""fullscreenenter"",""1"",""2370""
","
",,62.70000005,run_exp/static/images/task_images/land.jpg,65,,,,,,,84,,,8,,,,,,,,194271,1,0,FALSE,,,
dig,149,601973,0.0-45.0-0.0,"""event"",""trial"",""time""
""fullscreenenter"",""1"",""2370""
","
","
","""event"",""trial"",""time""
""fullscreenenter"",""1"",""2370""
","
",,,,,,,,,,,,"[{""stimulus"":""run_exp/static/images/task_images/dig.jpg"",""time"":0.10000002384185791},{""stimulus"":""run_exp/static/images/task_images/land.jpg"",""time"":980.6000000238419},{""stimulus"":""run_exp/static/images/task_images/dig.jpg"",""time"":1959.7999999523163}]",[],8,,,,,,,,,,,,,,
harvest,150,602976,0.0-45.0-1.0,"""event"",""trial"",""time""
""fullscreenenter"",""1"",""2370""
","
","
","""event"",""trial"",""time""
""fullscreenenter"",""1"",""2370""
","
",,null,run_exp/static/images/task_images/gems/84.jpg,null,,,,,,,72,,,8,,,,,84,0.855231347,0.857142857,,,,,,,
decision,151,603066,0.0-45.0-2.0,"""event"",""trial"",""time""
""fullscreenenter"",""1"",""2370""
","
","
","""event"",""trial"",""time""
""fullscreenenter"",""1"",""2370""
","
",,88.79999995,run_exp/static/images/task_images/land.jpg,65,,,,,,,72,,,8,,,,,,,,198303,1,1,FALSE,,,
dig,152,605981,0.0-46.0-0.0,"""event"",""trial"",""time""
""fullscreenenter"",""1"",""2370""
","
","
","""event"",""trial"",""time""
""fullscreenenter"",""1"",""2370""
","
",,,,,,,,,,,,"[{""stimulus"":""run_exp/static/images/task_images/dig.jpg"",""time"":0.30000007152557373},{""stimulus"":""run_exp/static/images/task_images/land.jpg"",""time"":971},{""stimulus"":""run_exp/static/images/task_images/dig.jpg"",""time"":1941}]",[],8,,,,,,,,,,,,,,
harvest,153,606983,0.0-46.0-1.0,"""event"",""trial"",""time""
""fullscreenenter"",""1"",""2370""
","
","
","""event"",""trial"",""time""
""fullscreenenter"",""1"",""2370""
","
",,null,run_exp/static/images/task_images/gems/72.jpg,null,,,,,,,62,,,8,,,,,72,0.85945961,0.861111111,,,,,,,
decision,154,607156,0.0-46.0-2.0,"""event"",""trial"",""time""
""fullscreenenter"",""1"",""2370""
","
","
","""event"",""trial"",""time""
""fullscreenenter"",""1"",""2370""
","
",,170.4,run_exp/static/images/task_images/land.jpg,65,,,,,,,62,,,8,,,,,,,,202393,1,2,FALSE,,,
dig,155,609993,0.0-47.0-0.0,"""event"",""trial"",""time""
""fullscreenenter"",""1"",""2370""
","
","
","""event"",""trial"",""time""
""fullscreenenter"",""1"",""2370""
","
",,,,,,,,,,,,"[{""stimulus"":""run_exp/static/images/task_images/dig.jpg"",""time"":0.2999999523162842},{""stimulus"":""run_exp/static/images/task_images/land.jpg"",""time"":945},{""stimulus"":""run_exp/static/images/task_images/dig.jpg"",""time"":1888.0999999046326}]",[],8,,,,,,,,,,,,,,
harvest,156,610995,0.0-47.0-1.0,"""event"",""trial"",""time""
""fullscreenenter"",""1"",""2370""
","
","
","""event"",""trial"",""time""
""fullscreenenter"",""1"",""2370""
","
",,null,run_exp/static/images/task_images/gems/62.jpg,null,,,,,,,44,,,8,,,,,62,0.708820535,0.709677419,,,,,,,
decision,157,611116,0.0-47.0-2.0,"""event"",""trial"",""time""
""fullscreenenter"",""1"",""2370""
","
","
","""event"",""trial"",""time""
""fullscreenenter"",""1"",""2370""
","
",,119.1,run_exp/static/images/task_images/land.jpg,65,,,,,,,44,,,8,,,,,,,,206353,1,3,FALSE,,,
dig,158,614003,0.0-48.0-0.0,"""event"",""trial"",""time""
""fullscreenenter"",""1"",""2370""
","
","
","""event"",""trial"",""time""
""fullscreenenter"",""1"",""2370""
","
",,,,,,,,,,,,"[{""stimulus"":""run_exp/static/images/task_images/dig.jpg"",""time"":0.2999999523162842},{""stimulus"":""run_exp/static/images/task_images/land.jpg"",""time"":961.5},{""stimulus"":""run_exp/static/images/task_images/dig.jpg"",""time"":1921.2999999523163}]",[],8,,,,,,,,,,,,,,
harvest,159,615003,0.0-48.0-1.0,"""event"",""trial"",""time""
""fullscreenenter"",""1"",""2370""
","
","
","""event"",""trial"",""time""
""fullscreenenter"",""1"",""2370""
","
",,null,run_exp/static/images/task_images/gems/44.jpg,null,,,,,,,32,,,8,,,,,44,0.728974207,0.727272727,,,,,,,
decision,160,615089,0.0-48.0-2.0,"""event"",""trial"",""time""
""fullscreenenter"",""1"",""2370""
","
","
","""event"",""trial"",""time""
""fullscreenenter"",""1"",""2370""
","
",,85.70000005,run_exp/static/images/task_images/land.jpg,76,,,,,,,32,,,8,,,,,,,,210327,1,4,TRUE,,,
travel,161,625001,0.0-49.0-0.0,"""event"",""trial"",""time""
""fullscreenenter"",""1"",""2370""
","
","
","""event"",""trial"",""time""
""fullscreenenter"",""1"",""2370""
","
",,,,,,,,,,,,"[{""stimulus"":""run_exp/static/images/task_images/rocket-01.jpg"",""time"":0.10000002384185791},{""stimulus"":""run_exp/static/images/task_images/rocket-02.jpg"",""time"":1101.6000000238419},{""stimulus"":""run_exp/static/images/task_images/rocket-03.jpg"",""time"":2202.600000023842},{""stimulus"":""run_exp/static/images/task_images/rocket-04.jpg"",""time"":3304.3000000715256},{""stimulus"":""run_exp/static/images/task_images/rocket-05.jpg"",""time"":4405},{""stimulus"":""run_exp/static/images/task_images/rocket-06.jpg"",""time"":5506},{""stimulus"":""run_exp/static/images/task_images/rocket-07.jpg"",""time"":6614.300000071526},{""stimulus"":""run_exp/static/images/task_images/rocket-08.jpg"",""time"":7708.5},{""stimulus"":""run_exp/static/images/task_images/rocket-09.jpg"",""time"":8809.900000095367}]",[],8,,,,,,,,,,,,,,
alien_welcome,162,630003,0.0-49.0-1.0,"""event"",""trial"",""time""
""fullscreenenter"",""1"",""2370""
","
","
","""event"",""trial"",""time""
""fullscreenenter"",""1"",""2370""
","
",,null,run_exp/static/images/task_images/aliens/old_aliens/planet/alien_planet-43.jpg,null,,,,,,,,,,,,,43,"73,70,35,8,74,78,9,42,43,7,75,30,41,21,11,22,57,17,39,61,34,52,3,15,32,13,48,29,49,64,55,26,1,50,38,40,62,36,16,33,31,77,23,5,46,67",,,,,,,,,,
land,163,630504,0.0-49.0-2.0,"""event"",""trial"",""time""
""fullscreenenter"",""1"",""2370""
","
","
","""event"",""trial"",""time""
""fullscreenenter"",""1"",""2370""
","
",,null,run_exp/static/images/task_images/land.jpg,null,,,,,,,88,,,9,,,,,,,,,,,,,,
dig,164,632507,0.0-49.0-3.0,"""event"",""trial"",""time""
""fullscreenenter"",""1"",""2370""
","
","
","""event"",""trial"",""time""
""fullscreenenter"",""1"",""2370""
","
",,,,,,,,,,,,"[{""stimulus"":""run_exp/static/images/task_images/dig.jpg"",""time"":0},{""stimulus"":""run_exp/static/images/task_images/land.jpg"",""time"":668.3000000715256},{""stimulus"":""run_exp/static/images/task_images/dig.jpg"",""time"":1336.5}]",[],9,,,,,,,,,,,,,,
harvest,165,633508,0.0-49.0-4.0,"""event"",""trial"",""time""
""fullscreenenter"",""1"",""2370""
","
","
","""event"",""trial"",""time""
""fullscreenenter"",""1"",""2370""
","
",,null,run_exp/static/images/task_images/gems/88.jpg,null,,,,,,,23,,,9,,,,,88,0.266275613,0.261363636,,,,,,,
decision,166,633740,0.0-49.0-5.0,"""event"",""trial"",""time""
""fullscreenenter"",""1"",""2370""
","
","
","""event"",""trial"",""time""
""fullscreenenter"",""1"",""2370""
","
",,230.9,run_exp/static/images/task_images/land.jpg,65,,,,,,,23,,,9,,,,,,,,228977,1,0,FALSE,,,
dig,167,636517,0.0-50.0-0.0,"""event"",""trial"",""time""
""fullscreenenter"",""1"",""2370""
","
","
","""event"",""trial"",""time""
""fullscreenenter"",""1"",""2370""
","
",,,,,,,,,,,,"[{""stimulus"":""run_exp/static/images/task_images/dig.jpg"",""time"":0.2999999523162842},{""stimulus"":""run_exp/static/images/task_images/land.jpg"",""time"":925},{""stimulus"":""run_exp/static/images/task_images/dig.jpg"",""time"":1848.2999999523163}]",[],9,,,,,,,,,,,,,,
harvest,168,637520,0.0-50.0-1.0,"""event"",""trial"",""time""
""fullscreenenter"",""1"",""2370""
","
","
","""event"",""trial"",""time""
""fullscreenenter"",""1"",""2370""
","
",,null,run_exp/static/images/task_images/gems/23.jpg,null,,,,,,,4,,,9,,,,,23,0.183417989,0.173913043,,,,,,,
decision,169,638107,0.0-50.0-2.0,"""event"",""trial"",""time""
""fullscreenenter"",""1"",""2370""
","
","
","""event"",""trial"",""time""
""fullscreenenter"",""1"",""2370""
","
",,585.4,run_exp/static/images/task_images/land.jpg,76,,,,,,,4,,,9,,,,,,,,233345,1,1,TRUE,,,
travel,170,647529,0.0-51.0-0.0,"""event"",""trial"",""time""
""fullscreenenter"",""1"",""2370""
","
","
","""event"",""trial"",""time""
""fullscreenenter"",""1"",""2370""
","
",,,,,,,,,,,,"[{""stimulus"":""run_exp/static/images/task_images/rocket-01.jpg"",""time"":0.2999999523162842},{""stimulus"":""run_exp/static/images/task_images/rocket-02.jpg"",""time"":1048.1000000238419},{""stimulus"":""run_exp/static/images/task_images/rocket-03.jpg"",""time"":2094},{""stimulus"":""run_exp/static/images/task_images/rocket-04.jpg"",""time"":3145.600000023842},{""stimulus"":""run_exp/static/images/task_images/rocket-05.jpg"",""time"":4185.5},{""stimulus"":""run_exp/static/images/task_images/rocket-06.jpg"",""time"":5246.100000023842},{""stimulus"":""run_exp/static/images/task_images/rocket-07.jpg"",""time"":6277.5},{""stimulus"":""run_exp/static/images/task_images/rocket-08.jpg"",""time"":7324.600000023842},{""stimulus"":""run_exp/static/images/task_images/rocket-09.jpg"",""time"":8369.799999952316}]",[],9,,,,,,,,,,,,,,
alien_welcome,171,652531,0.0-51.0-1.0,"""event"",""trial"",""time""
""fullscreenenter"",""1"",""2370""
","
","
","""event"",""trial"",""time""
""fullscreenenter"",""1"",""2370""
","
",,null,run_exp/static/images/task_images/aliens/old_aliens/planet/alien_planet-7.jpg,null,,,,,,,,,,,,,7,"73,70,35,8,74,78,9,42,43,7,75,30,41,21,11,22,57,17,39,61,34,52,3,15,32,13,48,29,49,64,55,26,1,50,38,40,62,36,16,33,31,77,23,5,46,67",,,,,,,,,,
land,172,653034,0.0-51.0-2.0,"""event"",""trial"",""time""
""fullscreenenter"",""1"",""2370""
","
","
","""event"",""trial"",""time""
""fullscreenenter"",""1"",""2370""
","
",,null,run_exp/static/images/task_images/land.jpg,null,,,,,,,98,,,10,,,,,,,,,,,,,,
dig,173,655041,0.0-51.0-3.0,"""event"",""trial"",""time""
""fullscreenenter"",""1"",""2370""
","
","
","""event"",""trial"",""time""
""fullscreenenter"",""1"",""2370""
","
",,,,,,,,,,,,"[{""stimulus"":""run_exp/static/images/task_images/dig.jpg"",""time"":1},{""stimulus"":""run_exp/static/images/task_images/land.jpg"",""time"":670.8000000715256},{""stimulus"":""run_exp/static/images/task_images/dig.jpg"",""time"":1337.6000000238419}]",[],10,,,,,,,,,,,,,,
harvest,174,656043,0.0-51.0-4.0,"""event"",""trial"",""time""
""fullscreenenter"",""1"",""2370""
","
","
","""event"",""trial"",""time""
""fullscreenenter"",""1"",""2370""
","
",,null,run_exp/static/images/task_images/gems/98.jpg,null,,,,,,,14,,,10,,,,,98,0.13881238,0.142857143,,,,,,,
decision,175,656122,0.0-51.0-5.0,"""event"",""trial"",""time""
""fullscreenenter"",""1"",""2370""
","
","
","""event"",""trial"",""time""
""fullscreenenter"",""1"",""2370""
","
",,78.10000002,run_exp/static/images/task_images/land.jpg,65,,,,,,,14,,,10,,,,,,,,251359,1,0,FALSE,,,
dig,176,659044,0.0-52.0-0.0,"""event"",""trial"",""time""
""fullscreenenter"",""1"",""2370""
","
","
","""event"",""trial"",""time""
""fullscreenenter"",""1"",""2370""
","
",,,,,,,,,,,,"[{""stimulus"":""run_exp/static/images/task_images/dig.jpg"",""time"":0.10000002384185791},{""stimulus"":""run_exp/static/images/task_images/land.jpg"",""time"":974.6000000238419},{""stimulus"":""run_exp/static/images/task_images/dig.jpg"",""time"":1947.7000000476837}]",[],10,,,,,,,,,,,,,,
harvest,177,660047,0.0-52.0-1.0,"""event"",""trial"",""time""
""fullscreenenter"",""1"",""2370""
","
","
","""event"",""trial"",""time""
""fullscreenenter"",""1"",""2370""
","
",,null,run_exp/static/images/task_images/gems/14.jpg,null,,,,,,,3,,,10,,,,,14,0.201688392,0.214285714,,,,,,,
decision,178,660378,0.0-52.0-2.0,"""event"",""trial"",""time""
""fullscreenenter"",""1"",""2370""
","
","
","""event"",""trial"",""time""
""fullscreenenter"",""1"",""2370""
","
",,329.9,run_exp/static/images/task_images/land.jpg,76,,,,,,,3,,,10,,,,,,,,255615,1,1,TRUE,,,
travel,179,670046,0.0-53.0-0.0,"""event"",""trial"",""time""
""fullscreenenter"",""1"",""2370""
","
","
","""event"",""trial"",""time""
""fullscreenenter"",""1"",""2370""
","
",,,,,,,,,,,,"[{""stimulus"":""run_exp/static/images/task_images/rocket-01.jpg"",""time"":0.20000004768371582},{""stimulus"":""run_exp/static/images/task_images/rocket-02.jpg"",""time"":1075.5},{""stimulus"":""run_exp/static/images/task_images/rocket-03.jpg"",""time"":2149.600000023842},{""stimulus"":""run_exp/static/images/task_images/rocket-04.jpg"",""time"":3223.3000000715256},{""stimulus"":""run_exp/static/images/task_images/rocket-05.jpg"",""time"":4297.600000023842},{""stimulus"":""run_exp/static/images/task_images/rocket-06.jpg"",""time"":5371.5},{""stimulus"":""run_exp/static/images/task_images/rocket-07.jpg"",""time"":6446.200000047684},{""stimulus"":""run_exp/static/images/task_images/rocket-08.jpg"",""time"":7520.300000071526},{""stimulus"":""run_exp/static/images/task_images/rocket-09.jpg"",""time"":8593.300000071526}]",[],10,,,,,,,,,,,,,,
alien_welcome,180,675048,0.0-53.0-1.0,"""event"",""trial"",""time""
""fullscreenenter"",""1"",""2370""
","
","
","""event"",""trial"",""time""
""fullscreenenter"",""1"",""2370""
","
",,null,run_exp/static/images/task_images/aliens/old_aliens/planet/alien_planet-75.jpg,null,,,,,,,,,,,,,75,"73,70,35,8,74,78,9,42,43,7,75,30,41,21,11,22,57,17,39,61,34,52,3,15,32,13,48,29,49,64,55,26,1,50,38,40,62,36,16,33,31,77,23,5,46,67",,,,,,,,,,
land,181,675550,0.0-53.0-2.0,"""event"",""trial"",""time""
""fullscreenenter"",""1"",""2370""
","
","
","""event"",""trial"",""time""
""fullscreenenter"",""1"",""2370""
","
",,null,run_exp/static/images/task_images/land.jpg,null,,,,,,,94,,,11,,,,,,,,,,,,,,
dig,182,677552,0.0-53.0-3.0,"""event"",""trial"",""time""
""fullscreenenter"",""1"",""2370""
","
","
","""event"",""trial"",""time""
""fullscreenenter"",""1"",""2370""
","
",,,,,,,,,,,,"[{""stimulus"":""run_exp/static/images/task_images/dig.jpg"",""time"":0.10000002384185791},{""stimulus"":""run_exp/static/images/task_images/land.jpg"",""time"":669.4000000953674},{""stimulus"":""run_exp/static/images/task_images/dig.jpg"",""time"":1335.3000000715256}]",[],11,,,,,,,,,,,,,,
harvest,183,678554,0.0-53.0-4.0,"""event"",""trial"",""time""
""fullscreenenter"",""1"",""2370""
","
","
","""event"",""trial"",""time""
""fullscreenenter"",""1"",""2370""
","
",,null,run_exp/static/images/task_images/gems/94.jpg,null,,,,,,,20,,,11,,,,,94,0.208189472,0.212765957,,,,,,,
decision,184,678675,0.0-53.0-5.0,"""event"",""trial"",""time""
""fullscreenenter"",""1"",""2370""
","
","
","""event"",""trial"",""time""
""fullscreenenter"",""1"",""2370""
","
",,119,run_exp/static/images/task_images/land.jpg,65,,,,,,,20,,,11,,,,,,,,273912,1,0,FALSE,,,
dig,185,681564,0.0-54.0-0.0,"""event"",""trial"",""time""
""fullscreenenter"",""1"",""2370""
","
","
","""event"",""trial"",""time""
""fullscreenenter"",""1"",""2370""
","
",,,,,,,,,,,,"[{""stimulus"":""run_exp/static/images/task_images/dig.jpg"",""time"":0.3999999761581421},{""stimulus"":""run_exp/static/images/task_images/land.jpg"",""time"":962.6000000238419},{""stimulus"":""run_exp/static/images/task_images/dig.jpg"",""time"":1921.6000000238419}]",[],11,,,,,,,,,,,,,,
harvest,186,682567,0.0-54.0-1.0,"""event"",""trial"",""time""
""fullscreenenter"",""1"",""2370""
","
","
","""event"",""trial"",""time""
""fullscreenenter"",""1"",""2370""
","
",,null,run_exp/static/images/task_images/gems/20.jpg,null,,,,,,,4,,,11,,,,,20,0.224246321,0.2,,,,,,,
decision,187,682612,0.0-54.0-2.0,"""event"",""trial"",""time""
""fullscreenenter"",""1"",""2370""
","
","
","""event"",""trial"",""time""
""fullscreenenter"",""1"",""2370""
","
",,43.30000007,run_exp/static/images/task_images/land.jpg,76,,,,,,,4,,,11,,,,,,,,277849,1,1,TRUE,,,
travel,188,692573,0.0-55.0-0.0,"""event"",""trial"",""time""
""fullscreenenter"",""1"",""2370""
","
","
","""event"",""trial"",""time""
""fullscreenenter"",""1"",""2370""
","
",,,,,,,,,,,,"[{""stimulus"":""run_exp/static/images/task_images/rocket-01.jpg"",""time"":0.19999992847442627},{""stimulus"":""run_exp/static/images/task_images/rocket-02.jpg"",""time"":1108.2999999523163},{""stimulus"":""run_exp/static/images/task_images/rocket-03.jpg"",""time"":2213.1999999284744},{""stimulus"":""run_exp/static/images/task_images/rocket-04.jpg"",""time"":3319.2999999523163},{""stimulus"":""run_exp/static/images/task_images/rocket-05.jpg"",""time"":4426.299999952316},{""stimulus"":""run_exp/static/images/task_images/rocket-06.jpg"",""time"":5532.5},{""stimulus"":""run_exp/static/images/task_images/rocket-07.jpg"",""time"":6637.799999952316},{""stimulus"":""run_exp/static/images/task_images/rocket-08.jpg"",""time"":7743.799999952316},{""stimulus"":""run_exp/static/images/task_images/rocket-09.jpg"",""time"":8850.5}]",[],11,,,,,,,,,,,,,,
alien_welcome,189,697578,0.0-55.0-1.0,"""event"",""trial"",""time""
""fullscreenenter"",""1"",""2370""
","
","
","""event"",""trial"",""time""
""fullscreenenter"",""1"",""2370""
","
",,null,run_exp/static/images/task_images/aliens/old_aliens/planet/alien_planet-30.jpg,null,,,,,,,,,,,,,30,"73,70,35,8,74,78,9,42,43,7,75,30,41,21,11,22,57,17,39,61,34,52,3,15,32,13,48,29,49,64,55,26,1,50,38,40,62,36,16,33,31,77,23,5,46,67",,,,,,,,,,
land,190,698081,0.0-55.0-2.0,"""event"",""trial"",""time""
""fullscreenenter"",""1"",""2370""
","
","
","""event"",""trial"",""time""
""fullscreenenter"",""1"",""2370""
","
",,null,run_exp/static/images/task_images/land.jpg,null,,,,,,,92,,,12,,,,,,,,,,,,,,
dig,191,700084,0.0-55.0-3.0,"""event"",""trial"",""time""
""fullscreenenter"",""1"",""2370""
","
","
","""event"",""trial"",""time""
""fullscreenenter"",""1"",""2370""
","
",,,,,,,,,,,,"[{""stimulus"":""run_exp/static/images/task_images/dig.jpg"",""time"":0.10000002384185791},{""stimulus"":""run_exp/static/images/task_images/land.jpg"",""time"":669.7000000476837},{""stimulus"":""run_exp/static/images/task_images/dig.jpg"",""time"":1335.5}]",[],12,,,,,,,,,,,,,,
harvest,192,701086,0.0-55.0-4.0,"""event"",""trial"",""time""
""fullscreenenter"",""1"",""2370""
","
","
","""event"",""trial"",""time""
""fullscreenenter"",""1"",""2370""
","
",,null,run_exp/static/images/task_images/gems/92.jpg,null,,,,,,,17,,,12,,,,,92,0.182136731,0.184782609,,,,,,,
decision,193,701210,0.0-55.0-5.0,"""event"",""trial"",""time""
""fullscreenenter"",""1"",""2370""
","
","
","""event"",""trial"",""time""
""fullscreenenter"",""1"",""2370""
","
",,122.8,run_exp/static/images/task_images/land.jpg,65,,,,,,,17,,,12,,,,,,,,296447,1,0,FALSE,,,
dig,194,704089,0.0-56.0-0.0,"""event"",""trial"",""time""
""fullscreenenter"",""1"",""2370""
","
","
","""event"",""trial"",""time""
""fullscreenenter"",""1"",""2370""
","
",,,,,,,,,,,,"[{""stimulus"":""run_exp/static/images/task_images/dig.jpg"",""time"":0.10000002384185791},{""stimulus"":""run_exp/static/images/task_images/land.jpg"",""time"":960.6000000238419},{""stimulus"":""run_exp/static/images/task_images/dig.jpg"",""time"":1920.5}]",[],12,,,,,,,,,,,,,,
harvest,195,705092,0.0-56.0-1.0,"""event"",""trial"",""time""
""fullscreenenter"",""1"",""2370""
","
","
","""event"",""trial"",""time""
""fullscreenenter"",""1"",""2370""
","
",,null,run_exp/static/images/task_images/gems/17.jpg,null,,,,,,,3,,,12,,,,,17,0.163253246,0.176470588,,,,,,,
decision,196,705258,0.0-56.0-2.0,"""event"",""trial"",""time""
""fullscreenenter"",""1"",""2370""
","
","
","""event"",""trial"",""time""
""fullscreenenter"",""1"",""2370""
","
",,165.1,run_exp/static/images/task_images/land.jpg,76,,,,,,,3,,,12,,,,,,,,300495,1,1,TRUE,,,
end_of_block_continue,197,711658,0.0-57.0-0.0,"""event"",""trial"",""time""
""fullscreenenter"",""1"",""2370""
","
","
","""event"",""trial"",""time""
""fullscreenenter"",""1"",""2370""
","
",,6398.5,run_exp/static/audio/clip_32_block_end.m4a,,,,,,,0,,,,,,,,,,,,,,,,,,
alien_welcome,198,716662,0.0-58.0-0.0,"""event"",""trial"",""time""
""fullscreenenter"",""1"",""2370""
","
","
","""event"",""trial"",""time""
""fullscreenenter"",""1"",""2370""
","
",,null,run_exp/static/images/task_images/aliens/old_aliens/planet/alien_planet-41.jpg,null,,,,,,,,,,,,,41,"73,70,35,8,74,78,9,42,43,7,75,30,41,21,11,22,57,17,39,61,34,52,3,15,32,13,48,29,49,64,55,26,1,50,38,40,62,36,16,33,31,77,23,5,46,67",,,,,,,,,,
land,199,717165,0.0-58.0-1.0,"""event"",""trial"",""time""
""fullscreenenter"",""1"",""2370""
","
","
","""event"",""trial"",""time""
""fullscreenenter"",""1"",""2370""
","
",,null,run_exp/static/images/task_images/land.jpg,null,,,,,,,92,,,13,,,,,,,,,,,,,,
dig,200,719170,0.0-58.0-2.0,"""event"",""trial"",""time""
""fullscreenenter"",""1"",""2370""
","
","
","""event"",""trial"",""time""
""fullscreenenter"",""1"",""2370""
","
",,,,,,,,,,,,"[{""stimulus"":""run_exp/static/images/task_images/dig.jpg"",""time"":0.30000007152557373},{""stimulus"":""run_exp/static/images/task_images/land.jpg"",""time"":669.3000000715256},{""stimulus"":""run_exp/static/images/task_images/dig.jpg"",""time"":1335.3999999761581}]",[],13,,,,,,,,,,,,,,
harvest,201,720171,0.0-58.0-3.0,"""event"",""trial"",""time""
""fullscreenenter"",""1"",""2370""
","
","
","""event"",""trial"",""time""
""fullscreenenter"",""1"",""2370""
","
",,null,run_exp/static/images/task_images/gems/92.jpg,null,,,,,,,20,,,13,,,,,92,0.221806614,0.217391304,,,,,,,
decision,202,720506,0.0-58.0-4.0,"""event"",""trial"",""time""
""fullscreenenter"",""1"",""2370""
","
","
","""event"",""trial"",""time""
""fullscreenenter"",""1"",""2370""
","
",,334.1,run_exp/static/images/task_images/land.jpg,65,,,,,,,20,,,13,,,,,,,,8847,2,0,FALSE,,,
dig,203,723173,0.0-59.0-0.0,"""event"",""trial"",""time""
""fullscreenenter"",""1"",""2370""
","
","
","""event"",""trial"",""time""
""fullscreenenter"",""1"",""2370""
","
",,,,,,,,,,,,"[{""stimulus"":""run_exp/static/images/task_images/dig.jpg"",""time"":0.10000002384185791},{""stimulus"":""run_exp/static/images/task_images/land.jpg"",""time"":889.6000000238419},{""stimulus"":""run_exp/static/images/task_images/dig.jpg"",""time"":1778.1000000238419}]",[],13,,,,,,,,,,,,,,
harvest,204,724174,0.0-59.0-1.0,"""event"",""trial"",""time""
""fullscreenenter"",""1"",""2370""
","
","
","""event"",""trial"",""time""
""fullscreenenter"",""1"",""2370""
","
",,null,run_exp/static/images/task_images/gems/20.jpg,null,,,,,,,4,,,13,,,,,20,0.219474567,0.2,,,,,,,
decision,205,724585,0.0-59.0-2.0,"""event"",""trial"",""time""
""fullscreenenter"",""1"",""2370""
","
","
","""event"",""trial"",""time""
""fullscreenenter"",""1"",""2370""
","
",,410.7,run_exp/static/images/task_images/land.jpg,76,,,,,,,4,,,13,,,,,,,,12927,2,1,TRUE,,,
travel,206,734175,0.0-60.0-0.0,"""event"",""trial"",""time""
""fullscreenenter"",""1"",""2370""
","
","
","""event"",""trial"",""time""
""fullscreenenter"",""1"",""2370""
","
",,,,,,,,,,,,"[{""stimulus"":""run_exp/static/images/task_images/rocket-01.jpg"",""time"":0.6000000238418579},{""stimulus"":""run_exp/static/images/task_images/rocket-02.jpg"",""time"":1066.5},{""stimulus"":""run_exp/static/images/task_images/rocket-03.jpg"",""time"":2132.2000000476837},{""stimulus"":""run_exp/static/images/task_images/rocket-04.jpg"",""time"":3196.2000000476837},{""stimulus"":""run_exp/static/images/task_images/rocket-05.jpg"",""time"":4263.100000023842},{""stimulus"":""run_exp/static/images/task_images/rocket-06.jpg"",""time"":5327.5},{""stimulus"":""run_exp/static/images/task_images/rocket-07.jpg"",""time"":6393.5},{""stimulus"":""run_exp/static/images/task_images/rocket-08.jpg"",""time"":7456.700000047684},{""stimulus"":""run_exp/static/images/task_images/rocket-09.jpg"",""time"":8521.600000023842}]",[],13,,,,,,,,,,,,,,
alien_welcome,207,739179,0.0-60.0-1.0,"""event"",""trial"",""time""
""fullscreenenter"",""1"",""2370""
","
","
","""event"",""trial"",""time""
""fullscreenenter"",""1"",""2370""
","
",,null,run_exp/static/images/task_images/aliens/old_aliens/planet/alien_planet-21.jpg,null,,,,,,,,,,,,,21,"73,70,35,8,74,78,9,42,43,7,75,30,41,21,11,22,57,17,39,61,34,52,3,15,32,13,48,29,49,64,55,26,1,50,38,40,62,36,16,33,31,77,23,5,46,67",,,,,,,,,,
land,208,739680,0.0-60.0-2.0,"""event"",""trial"",""time""
""fullscreenenter"",""1"",""2370""
","
","
","""event"",""trial"",""time""
""fullscreenenter"",""1"",""2370""
","
",,null,run_exp/static/images/task_images/land.jpg,null,,,,,,,104,,,14,,,,,,,,,,,,,,
dig,209,741684,0.0-60.0-3.0,"""event"",""trial"",""time""
""fullscreenenter"",""1"",""2370""
","
","
","""event"",""trial"",""time""
""fullscreenenter"",""1"",""2370""
","
",,,,,,,,,,,,"[{""stimulus"":""run_exp/static/images/task_images/dig.jpg"",""time"":0.2999999523162842},{""stimulus"":""run_exp/static/images/task_images/land.jpg"",""time"":669.7000000476837},{""stimulus"":""run_exp/static/images/task_images/dig.jpg"",""time"":1335.3999999761581}]",[],14,,,,,,,,,,,,,,
harvest,210,742685,0.0-60.0-4.0,"""event"",""trial"",""time""
""fullscreenenter"",""1"",""2370""
","
","
","""event"",""trial"",""time""
""fullscreenenter"",""1"",""2370""
","
",,null,run_exp/static/images/task_images/gems/104.jpg,null,,,,,,,21,,,14,,,,,104,0.205459197,0.201923077,,,,,,,
decision,211,743154,0.0-60.0-5.0,"""event"",""trial"",""time""
""fullscreenenter"",""1"",""2370""
","
","
","""event"",""trial"",""time""
""fullscreenenter"",""1"",""2370""
","
",,467.9,run_exp/static/images/task_images/land.jpg,65,,,,,,,21,,,14,,,,,,,,31495,2,0,FALSE,,,
dig,212,745688,0.0-61.0-0.0,"""event"",""trial"",""time""
""fullscreenenter"",""1"",""2370""
","
","
","""event"",""trial"",""time""
""fullscreenenter"",""1"",""2370""
","
",,,,,,,,,,,,"[{""stimulus"":""run_exp/static/images/task_images/dig.jpg"",""time"":0},{""stimulus"":""run_exp/static/images/task_images/land.jpg"",""time"":845.3999999761581},{""stimulus"":""run_exp/static/images/task_images/dig.jpg"",""time"":1688.7000000476837}]",[],14,,,,,,,,,,,,,,
harvest,213,746689,0.0-61.0-1.0,"""event"",""trial"",""time""
""fullscreenenter"",""1"",""2370""
","
","
","""event"",""trial"",""time""
""fullscreenenter"",""1"",""2370""
","
",,null,run_exp/static/images/task_images/gems/21.jpg,null,,,,,,,5,,,14,,,,,21,0.217225328,0.238095238,,,,,,,
decision,214,746874,0.0-61.0-2.0,"""event"",""trial"",""time""
""fullscreenenter"",""1"",""2370""
","
","
","""event"",""trial"",""time""
""fullscreenenter"",""1"",""2370""
","
",,184.1,run_exp/static/images/task_images/land.jpg,76,,,,,,,5,,,14,,,,,,,,35215,2,1,TRUE,,,
travel,215,756687,0.0-62.0-0.0,"""event"",""trial"",""time""
""fullscreenenter"",""1"",""2370""
","
","
","""event"",""trial"",""time""
""fullscreenenter"",""1"",""2370""
","
",,,,,,,,,,,,"[{""stimulus"":""run_exp/static/images/task_images/rocket-01.jpg"",""time"":0.10000002384185791},{""stimulus"":""run_exp/static/images/task_images/rocket-02.jpg"",""time"":1091},{""stimulus"":""run_exp/static/images/task_images/rocket-03.jpg"",""time"":2181.1999999284744},{""stimulus"":""run_exp/static/images/task_images/rocket-04.jpg"",""time"":3271.5},{""stimulus"":""run_exp/static/images/task_images/rocket-05.jpg"",""time"":4361.799999952316},{""stimulus"":""run_exp/static/images/task_images/rocket-06.jpg"",""time"":5452.299999952316},{""stimulus"":""run_exp/static/images/task_images/rocket-07.jpg"",""time"":6541.699999928474},{""stimulus"":""run_exp/static/images/task_images/rocket-08.jpg"",""time"":7631},{""stimulus"":""run_exp/static/images/task_images/rocket-09.jpg"",""time"":8721.5}]",[],14,,,,,,,,,,,,,,
alien_welcome,216,761691,0.0-62.0-1.0,"""event"",""trial"",""time""
""fullscreenenter"",""1"",""2370""
","
","
","""event"",""trial"",""time""
""fullscreenenter"",""1"",""2370""
","
",,null,run_exp/static/images/task_images/aliens/old_aliens/planet/alien_planet-11.jpg,null,,,,,,,,,,,,,11,"73,70,35,8,74,78,9,42,43,7,75,30,41,21,11,22,57,17,39,61,34,52,3,15,32,13,48,29,49,64,55,26,1,50,38,40,62,36,16,33,31,77,23,5,46,67",,,,,,,,,,
land,217,762202,0.0-62.0-2.0,"""event"",""trial"",""time""
""fullscreenenter"",""1"",""2370""
","
","
","""event"",""trial"",""time""
""fullscreenenter"",""1"",""2370""
","
",,null,run_exp/static/images/task_images/land.jpg,null,,,,,,,104,,,15,,,,,,,,,,,,,,
dig,218,764207,0.0-62.0-3.0,"""event"",""trial"",""time""
""fullscreenenter"",""1"",""2370""
","
","
","""event"",""trial"",""time""
""fullscreenenter"",""1"",""2370""
","
",,,,,,,,,,,,"[{""stimulus"":""run_exp/static/images/task_images/dig.jpg"",""time"":0.5},{""stimulus"":""run_exp/static/images/task_images/land.jpg"",""time"":669.7999999523163},{""stimulus"":""run_exp/static/images/task_images/dig.jpg"",""time"":1335.7999999523163}]",[],15,,,,,,,,,,,,,,
harvest,219,765210,0.0-62.0-4.0,"""event"",""trial"",""time""
""fullscreenenter"",""1"",""2370""
","
","
","""event"",""trial"",""time""
""fullscreenenter"",""1"",""2370""
","
",,null,run_exp/static/images/task_images/gems/104.jpg,null,,,,,,,19,,,15,,,,,104,0.178486799,0.182692308,,,,,,,
decision,220,765322,0.0-62.0-5.0,"""event"",""trial"",""time""
""fullscreenenter"",""1"",""2370""
","
","
","""event"",""trial"",""time""
""fullscreenenter"",""1"",""2370""
","
",,111,run_exp/static/images/task_images/land.jpg,65,,,,,,,19,,,15,,,,,,,,53663,2,0,FALSE,,,
dig,221,768213,0.0-63.0-0.0,"""event"",""trial"",""time""
""fullscreenenter"",""1"",""2370""
","
","
","""event"",""trial"",""time""
""fullscreenenter"",""1"",""2370""
","
",,,,,,,,,,,,"[{""stimulus"":""run_exp/static/images/task_images/dig.jpg"",""time"":0.20000004768371582},{""stimulus"":""run_exp/static/images/task_images/land.jpg"",""time"":964.3999999761581},{""stimulus"":""run_exp/static/images/task_images/dig.jpg"",""time"":1927.3000000715256}]",[],15,,,,,,,,,,,,,,
harvest,222,769214,0.0-63.0-1.0,"""event"",""trial"",""time""
""fullscreenenter"",""1"",""2370""
","
","
","""event"",""trial"",""time""
""fullscreenenter"",""1"",""2370""
","
",,null,run_exp/static/images/task_images/gems/19.jpg,null,,,,,,,5,,,15,,,,,19,0.24446429,0.263157895,,,,,,,
decision,223,769314,0.0-63.0-2.0,"""event"",""trial"",""time""
""fullscreenenter"",""1"",""2370""
","
","
","""event"",""trial"",""time""
""fullscreenenter"",""1"",""2370""
","
",,98.79999995,run_exp/static/images/task_images/land.jpg,76,,,,,,,5,,,15,,,,,,,,57655,2,1,TRUE,,,
travel,224,779218,0.0-64.0-0.0,"""event"",""trial"",""time""
""fullscreenenter"",""1"",""2370""
","
","
","""event"",""trial"",""time""
""fullscreenenter"",""1"",""2370""
","
",,,,,,,,,,,,"[{""stimulus"":""run_exp/static/images/task_images/rocket-01.jpg"",""time"":0},{""stimulus"":""run_exp/static/images/task_images/rocket-02.jpg"",""time"":1101.5999999046326},{""stimulus"":""run_exp/static/images/task_images/rocket-03.jpg"",""time"":2201.5999999046326},{""stimulus"":""run_exp/static/images/task_images/rocket-04.jpg"",""time"":3301.1999999284744},{""stimulus"":""run_exp/static/images/task_images/rocket-05.jpg"",""time"":4401.5},{""stimulus"":""run_exp/static/images/task_images/rocket-06.jpg"",""time"":5501.099999904633},{""stimulus"":""run_exp/static/images/task_images/rocket-07.jpg"",""time"":6600.799999952316},{""stimulus"":""run_exp/static/images/task_images/rocket-08.jpg"",""time"":7706.399999976158},{""stimulus"":""run_exp/static/images/task_images/rocket-09.jpg"",""time"":8801.799999952316}]",[],15,,,,,,,,,,,,,,
alien_welcome,225,784222,0.0-64.0-1.0,"""event"",""trial"",""time""
""fullscreenenter"",""1"",""2370""
","
","
","""event"",""trial"",""time""
""fullscreenenter"",""1"",""2370""
","
",,null,run_exp/static/images/task_images/aliens/old_aliens/planet/alien_planet-22.jpg,null,,,,,,,,,,,,,22,"73,70,35,8,74,78,9,42,43,7,75,30,41,21,11,22,57,17,39,61,34,52,3,15,32,13,48,29,49,64,55,26,1,50,38,40,62,36,16,33,31,77,23,5,46,67",,,,,,,,,,
land,226,784723,0.0-64.0-2.0,"""event"",""trial"",""time""
""fullscreenenter"",""1"",""2370""
","
","
","""event"",""trial"",""time""
""fullscreenenter"",""1"",""2370""
","
",,null,run_exp/static/images/task_images/land.jpg,null,,,,,,,105,,,16,,,,,,,,,,,,,,
dig,227,786726,0.0-64.0-3.0,"""event"",""trial"",""time""
""fullscreenenter"",""1"",""2370""
","
","
","""event"",""trial"",""time""
""fullscreenenter"",""1"",""2370""
","
",,,,,,,,,,,,"[{""stimulus"":""run_exp/static/images/task_images/dig.jpg"",""time"":0.10000002384185791},{""stimulus"":""run_exp/static/images/task_images/land.jpg"",""time"":668.3000000715256},{""stimulus"":""run_exp/static/images/task_images/dig.jpg"",""time"":1335.7000000476837}]",[],16,,,,,,,,,,,,,,
harvest,228,787731,0.0-64.0-4.0,"""event"",""trial"",""time""
""fullscreenenter"",""1"",""2370""
","
","
","""event"",""trial"",""time""
""fullscreenenter"",""1"",""2370""
","
",,null,run_exp/static/images/task_images/gems/105.jpg,null,,,,,,,87,,,16,,,,,105,0.831911693,0.828571429,,,,,,,
decision,229,787829,0.0-64.0-5.0,"""event"",""trial"",""time""
""fullscreenenter"",""1"",""2370""
","
","
","""event"",""trial"",""time""
""fullscreenenter"",""1"",""2370""
","
",,95.60000002,run_exp/static/images/task_images/land.jpg,65,,,,,,,87,,,16,,,,,,,,76170,2,0,FALSE,,,
dig,230,790741,0.0-65.0-0.0,"""event"",""trial"",""time""
""fullscreenenter"",""1"",""2370""
","
","
","""event"",""trial"",""time""
""fullscreenenter"",""1"",""2370""
","
",,,,,,,,,,,,"[{""stimulus"":""run_exp/static/images/task_images/dig.jpg"",""time"":0.2999999523162842},{""stimulus"":""run_exp/static/images/task_images/land.jpg"",""time"":970.3999999761581},{""stimulus"":""run_exp/static/images/task_images/dig.jpg"",""time"":1939.1000000238419}]",[],16,,,,,,,,,,,,,,
harvest,231,791743,0.0-65.0-1.0,"""event"",""trial"",""time""
""fullscreenenter"",""1"",""2370""
","
","
","""event"",""trial"",""time""
""fullscreenenter"",""1"",""2370""
","
",,null,run_exp/static/images/task_images/gems/87.jpg,null,,,,,,,75,,,16,,,,,87,0.857019343,0.862068966,,,,,,,
decision,232,792132,0.0-65.0-2.0,"""event"",""trial"",""time""
""fullscreenenter"",""1"",""2370""
","
","
","""event"",""trial"",""time""
""fullscreenenter"",""1"",""2370""
","
",,387.5,run_exp/static/images/task_images/land.jpg,65,,,,,,,75,,,16,,,,,,,,80473,2,1,FALSE,,,
dig,233,794750,0.0-66.0-0.0,"""event"",""trial"",""time""
""fullscreenenter"",""1"",""2370""
","
","
","""event"",""trial"",""time""
""fullscreenenter"",""1"",""2370""
","
",,,,,,,,,,,,"[{""stimulus"":""run_exp/static/images/task_images/dig.jpg"",""time"":0.3999999761581421},{""stimulus"":""run_exp/static/images/task_images/land.jpg"",""time"":872.2000000476837},{""stimulus"":""run_exp/static/images/task_images/dig.jpg"",""time"":1743.1000000238419}]",[],16,,,,,,,,,,,,,,
harvest,234,795752,0.0-66.0-1.0,"""event"",""trial"",""time""
""fullscreenenter"",""1"",""2370""
","
","
","""event"",""trial"",""time""
""fullscreenenter"",""1"",""2370""
","
",,null,run_exp/static/images/task_images/gems/75.jpg,null,,,,,,,55,,,16,,,,,75,0.739676196,0.733333333,,,,,,,
decision,235,796459,0.0-66.0-2.0,"""event"",""trial"",""time""
""fullscreenenter"",""1"",""2370""
","
","
","""event"",""trial"",""time""
""fullscreenenter"",""1"",""2370""
","
",,705,run_exp/static/images/task_images/land.jpg,65,,,,,,,55,,,16,,,,,,,,84800,2,2,FALSE,,,
dig,236,798758,0.0-67.0-0.0,"""event"",""trial"",""time""
""fullscreenenter"",""1"",""2370""
","
","
","""event"",""trial"",""time""
""fullscreenenter"",""1"",""2370""
","
",,,,,,,,,,,,"[{""stimulus"":""run_exp/static/images/task_images/dig.jpg"",""time"":0.19999992847442627},{""stimulus"":""run_exp/static/images/task_images/land.jpg"",""time"":767.6000000238419},{""stimulus"":""run_exp/static/images/task_images/dig.jpg"",""time"":1533.6999999284744}]",[],16,,,,,,,,,,,,,,
harvest,237,799761,0.0-67.0-1.0,"""event"",""trial"",""time""
""fullscreenenter"",""1"",""2370""
","
","
","""event"",""trial"",""time""
""fullscreenenter"",""1"",""2370""
","
",,null,run_exp/static/images/task_images/gems/55.jpg,null,,,,,,,43,,,16,,,,,55,0.778836674,0.781818182,,,,,,,
decision,238,800148,0.0-67.0-2.0,"""event"",""trial"",""time""
""fullscreenenter"",""1"",""2370""
","
","
","""event"",""trial"",""time""
""fullscreenenter"",""1"",""2370""
","
