trial_type,trial_index,time_elapsed,internal_node_id,interactions,blur_events,focus_events,fullscreenenter_events,fullscreenexit_events,success,rt,stimulus,key_press,prompt,subject_id,participant_id,age,gender,button_pressed,next_reward,animation_sequence,responses,planet,curr_prac_trial,n_prac_rounds,alien,aliens,reward_received,decay_rate_actual,decay_rate_exp,time_in_block,block_num,prt,last_trial_on_planet,button_html,bonus,num_failures
pavlovia,0,2,0.0-0.0,"""event"",""trial"",""time""
""fullscreenenter"",""1"",""2404""
","
","
","""event"",""trial"",""time""
""fullscreenenter"",""1"",""2404""
","
",,,,,,,,,,,,,,,,,,,,,,,,,,,,
fullscreen,1,3379,0.0-1.0,"""event"",""trial"",""time""
""fullscreenenter"",""1"",""2404""
","
","
","""event"",""trial"",""time""
""fullscreenenter"",""1"",""2404""
","
",TRUE,,,,,,,,,,,,,,,,,,,,,,,,,,,
instruc_welcome,2,13094,0.0-2.0,"""event"",""trial"",""time""
""fullscreenenter"",""1"",""2404""
","
","
","""event"",""trial"",""time""
""fullscreenenter"",""1"",""2404""
","
",,null,run_exp/static/audio/clip_1_welcome.m4a,null,"<p>Howdy! In this experiment, you’ll be an explorer traveling through space to collect space treasure.</p><p>Your mission is to collect as much treasure as possible.</p><br><br><p><img src='run_exp/static/images/task_images/opening_img-01.jpg' height='300' width='auto'></p>",9491,780,8.08,Female,,,,,,,,,,,,,,,,,,,
audio-keyboard-response,3,29674,0.0-3.0,"""event"",""trial"",""time""
""fullscreenenter"",""1"",""2404""
","
","
","""event"",""trial"",""time""
""fullscreenenter"",""1"",""2404""
","
",,null,run_exp/static/audio/clip_2_move.m4a,null,,,,,,,,,,,,,,,,,,,,,,,,
welcome_dec,4,30464,0.0-4.0,"""event"",""trial"",""time""
""fullscreenenter"",""1"",""2404""
","
","
","""event"",""trial"",""time""
""fullscreenenter"",""1"",""2404""
","
",,788.6,"<p>Howdy! In this experiment, you’ll be an explorer traveling through space to collect space treasure.</p><p>Your mission is to collect as much treasure as possible.</p><br><br><p><img src='run_exp/static/images/task_images/opening_img-01.jpg' height='300' width='auto'></p>",,,,,,,1,,,,,,,,,,,,,,,,,,
html-keyboard-response,5,32161,0.0-5.0,"""event"",""trial"",""time""
""fullscreenenter"",""1"",""2404""
","
","
","""event"",""trial"",""time""
""fullscreenenter"",""1"",""2404""
","
",,1696.1,"<p>Howdy! In this experiment, you’ll be an explorer traveling through space to collect space treasure.</p><p>Your mission is to collect as much treasure as possible.</p><br><br><p><img src='run_exp/static/images/task_images/opening_img-01.jpg' height='300' width='auto'></p><button class=""jspsych-html-btn-unchosen""><img src=""run_exp/static/images/task_images/planet-01.jpg"" height=""50""></button><button class=""jspsych-html-btn-chosen""><img src=""run_exp/static/images/task_images/planet-02.jpg"" height=""50""></button><p><b>[press the space bar to lock in your answer]<b><br></p>",32,,,,,,,,,,,,,,,,,,,,,,,,
instruc_goal,6,42214,0.0-6.0-0.0,"""event"",""trial"",""time""
""fullscreenenter"",""1"",""2404""
","
","
","""event"",""trial"",""time""
""fullscreenenter"",""1"",""2404""
","
",,null,run_exp/static/audio/clip_3_goal.m4a,null,"<p> As a space explorer, you’ll visit different planets to dig for space treasure, these pink gems.</p> <p> The more treasure you dig up, the more bonus money you’ll win! </p><br><br><p><img src='run_exp/static/images/task_images/pink_gem.jpg' height='300' width='auto'></p>",,,,,,,,,,,,,,,,,,,,,,,
instruc_goal,7,51619,0.0-6.0-1.0,"""event"",""trial"",""time""
""fullscreenenter"",""1"",""2404""
","
","
","""event"",""trial"",""time""
""fullscreenenter"",""1"",""2404""
","
",,9404.9,"<p> As a space explorer, you’ll visit different planets to dig for space treasure, these pink gems.</p> <p> The more treasure you dig up, the more bonus money you’ll win! </p><br><br><p><img src='run_exp/static/images/task_images/pink_gem.jpg' height='300' width='auto'></p>",,,,,,,1,,,,,,,,,,,,,,,,,,
html-keyboard-response,8,52433,0.0-6.0-2.0,"""event"",""trial"",""time""
""fullscreenenter"",""1"",""2404""
","
","
","""event"",""trial"",""time""
""fullscreenenter"",""1"",""2404""
","
",,813,"<p> As a space explorer, you’ll visit different planets to dig for space treasure, these pink gems.</p> <p> The more treasure you dig up, the more bonus money you’ll win! </p><br><br><p><img src='run_exp/static/images/task_images/pink_gem.jpg' height='300' width='auto'></p><button class=""jspsych-html-btn-unchosen""><img src=""run_exp/static/images/task_images/planet-01.jpg"" height=""50""></button><button class=""jspsych-html-btn-chosen""><img src=""run_exp/static/images/task_images/planet-02.jpg"" height=""50""></button><p><b>[press the space bar to lock in your answer]<b><br></p>",32,,,,,,,,,,,,,,,,,,,,,,,,
instruc_dig,9,68404,0.0-7.0-0.0,"""event"",""trial"",""time""
""fullscreenenter"",""1"",""2404""
","
","
","""event"",""trial"",""time""
""fullscreenenter"",""1"",""2404""
","
",,null,run_exp/static/audio/clip_4_dig.m4a,null,,,,,,,100,,,,,,,,,,,,,,,,,
instruc_dig_try,10,69810,0.0-7.0-1.0,"""event"",""trial"",""time""
""fullscreenenter"",""1"",""2404""
","
","
","""event"",""trial"",""time""
""fullscreenenter"",""1"",""2404""
","
",,1405.4,"<p> When you’ve arrived at a new planet, you will dig once. </p> <p>Then, you get to decide if you want to stay on the planet and dig again or travel to a new planet and dig there.</p> <p> To stay and dig, press the letter <strong>‘A’</strong> on your keyboard. Try pressing it now! </p><p><img src='run_exp/static/images/task_images/land.jpg'  height='700' width='auto'></p>",65,"<p> When you’ve arrived at a new planet, you will dig once. </p> <p>Then, you get to decide if you want to stay on the planet and dig again or travel to a new planet and dig there.</p> <p> To stay and dig, press the letter <strong>‘A’</strong> on your keyboard. Try pressing it now! </p><p><img src='run_exp/static/images/task_images/land.jpg'  height='700' width='auto'></p>",,,,,,100,,,,,,,,,,,,,,,,,
dig_prac,11,71830,0.0-7.0-2.0,"""event"",""trial"",""time""
""fullscreenenter"",""1"",""2404""
","
","
","""event"",""trial"",""time""
""fullscreenenter"",""1"",""2404""
","
",,,,,,,,,,,,"[{""stimulus"":""run_exp/static/images/task_images/dig.jpg"",""time"":0.20000004768371582},{""stimulus"":""run_exp/static/images/task_images/land.jpg"",""time"":680},{""stimulus"":""run_exp/static/images/task_images/dig.jpg"",""time"":1335.3999999761581}]",[],,,,,,,,,,,,,,,
instruc_travel,12,108066,0.0-7.0-3.0,"""event"",""trial"",""time""
""fullscreenenter"",""1"",""2404""
","
","
","""event"",""trial"",""time""
""fullscreenenter"",""1"",""2404""
","
",,null,run_exp/static/audio/clip_5_travel.m4a,null,"<p>Every time you dig up gems, there are less gems on the planet, so the more you dig on a planet the fewer gems you’ll get with each dig.</p><p>When gems are running low, you may want to travel to a new planet. </p> <p>  Planets are very far apart in this galaxy, so it will take some time to travel between them. </p> <br><p>There are lots and lots of planets for you to visit, so you won’t be able to return to any planets you’ve seen before. </p><br><p>To leave this planet and travel to a new one, press the letter <strong>‘L’</strong> on your keyboard. Try pressing it now! </p><p><img src='run_exp/static/images/task_images/rocket-01.jpg'  height='600' width='auto'></p>",,,,,,,,,,,,,,,,,,,,,,,
instruc_travel_try,13,108484,0.0-7.0-4.0,"""event"",""trial"",""time""
""fullscreenenter"",""1"",""2404""
","
","
","""event"",""trial"",""time""
""fullscreenenter"",""1"",""2404""
","
",,417.1,"<p>Every time you dig up gems, there are less gems on the planet, so the more you dig on a planet the fewer gems you’ll get with each dig.</p><p>When gems are running low, you may want to travel to a new planet. </p> <p>  Planets are very far apart in this galaxy, so it will take some time to travel between them. </p> <br><p>There are lots and lots of planets for you to visit, so you won’t be able to return to any planets you’ve seen before. </p><br><p>To leave this planet and travel to a new one, press the letter <strong>‘L’</strong> on your keyboard. Try pressing it now! </p><p><img src='run_exp/static/images/task_images/rocket-01.jpg'  height='600' width='auto'></p>",76,"<p>Every time you dig up gems, there are less gems on the planet, so the more you dig on a planet the fewer gems you’ll get with each dig.</p><p>When gems are running low, you may want to travel to a new planet. </p> <p>  Planets are very far apart in this galaxy, so it will take some time to travel between them. </p> <br><p>There are lots and lots of planets for you to visit, so you won’t be able to return to any planets you’ve seen before. </p><br><p>To leave this planet and travel to a new one, press the letter <strong>‘L’</strong> on your keyboard. Try pressing it now! </p><p><img src='run_exp/static/images/task_images/rocket-01.jpg'  height='600' width='auto'></p>",,,,,,,,,,,,,,,,,,,,,,,
travel_prac,14,118487,0.0-7.0-5.0,"""event"",""trial"",""time""
""fullscreenenter"",""1"",""2404""
","
","
","""event"",""trial"",""time""
""fullscreenenter"",""1"",""2404""
","
",,,,,,,,,,,,"[{""stimulus"":""run_exp/static/images/task_images/rocket-01.jpg"",""time"":0.10000002384185791},{""stimulus"":""run_exp/static/images/task_images/rocket-02.jpg"",""time"":1112.7000000476837},{""stimulus"":""run_exp/static/images/task_images/rocket-03.jpg"",""time"":2222.600000023842},{""stimulus"":""run_exp/static/images/task_images/rocket-04.jpg"",""time"":3335.5},{""stimulus"":""run_exp/static/images/task_images/rocket-05.jpg"",""time"":4451.899999976158},{""stimulus"":""run_exp/static/images/task_images/rocket-06.jpg"",""time"":5567.399999976158},{""stimulus"":""run_exp/static/images/task_images/rocket-07.jpg"",""time"":6678},{""stimulus"":""run_exp/static/images/task_images/rocket-08.jpg"",""time"":7779.299999952316},{""stimulus"":""run_exp/static/images/task_images/rocket-09.jpg"",""time"":8889.5}]",[],0,,,,,,,,,,,,,,
instruc_alien_greet,15,145658,0.0-7.0-6.0,"""event"",""trial"",""time""
""fullscreenenter"",""1"",""2404""
","
","
","""event"",""trial"",""time""
""fullscreenenter"",""1"",""2404""
","
",,null,run_exp/static/audio/clip_6_alien.m4a,null,"<p>When you arrive at a new planet, the alien who owns the treasure mine on that planet will greet you!</p><p>The better an alien takes care of their mine the easier it is to dig for gems. Some aliens take better care of their mine than others. So, you won’t get exactly the same amount of gems on each planet.</p><p>What the alien looks like does not tell you anything about how many gems there are on the planet.</p><br><p><img src=""run_exp/static/images/task_images/aliens/instructions_aliens/planet/alien_planet-1.jpg""  height=""600"" width=""auto""></p>",,,,,,,,,,,,,,,,,,,,,,,
instruc_alien_greet,16,149209,0.0-7.0-7.0,"""event"",""trial"",""time""
""fullscreenenter"",""1"",""2404""
","
","
","""event"",""trial"",""time""
""fullscreenenter"",""1"",""2404""
","
",,3549.4,"<p>When you arrive at a new planet, the alien who owns the treasure mine on that planet will greet you!</p><p>The better an alien takes care of their mine the easier it is to dig for gems. Some aliens take better care of their mine than others. So, you won’t get exactly the same amount of gems on each planet.</p><p>What the alien looks like does not tell you anything about how many gems there are on the planet.</p><br><p><img src=""run_exp/static/images/task_images/aliens/instructions_aliens/planet/alien_planet-1.jpg""  height=""600"" width=""auto""></p>",,,,,,,1,,,,,,,,,,,,,,,,,,
html-keyboard-response,17,150368,0.0-7.0-8.0,"""event"",""trial"",""time""
""fullscreenenter"",""1"",""2404""
","
","
","""event"",""trial"",""time""
""fullscreenenter"",""1"",""2404""
","
",,1158.3,"<p>When you arrive at a new planet, the alien who owns the treasure mine on that planet will greet you!</p><p>The better an alien takes care of their mine the easier it is to dig for gems. Some aliens take better care of their mine than others. So, you won’t get exactly the same amount of gems on each planet.</p><p>What the alien looks like does not tell you anything about how many gems there are on the planet.</p><br><p><img src=""run_exp/static/images/task_images/aliens/instructions_aliens/planet/alien_planet-1.jpg""  height=""600"" width=""auto""></p><button class=""jspsych-html-btn-unchosen""><img src=""run_exp/static/images/task_images/planet-01.jpg"" height=""50""></button><button class=""jspsych-html-btn-chosen""><img src=""run_exp/static/images/task_images/planet-02.jpg"" height=""50""></button><p><b>[press the space bar to lock in your answer]<b><br></p>",32,,,,,,,,,,,,,,,,,,,,,,,,
time_out,18,161438,0.0-8.0-0.0,"""event"",""trial"",""time""
""fullscreenenter"",""1"",""2404""
","
","
","""event"",""trial"",""time""
""fullscreenenter"",""1"",""2404""
","
",,null,run_exp/static/audio/clip_7_timeout.m4a,null,"<p>If you don't make your choice fast enough, you’ll have to wait a few seconds before you can make another one.</p><p>You can’t dig for more gems or travel to new planets. You just have to sit and wait.</p><br><p><img src='run_exp/static/images/task_images/time_out.jpg'  height='600' width='auto'></p>",,,,,,,,,,,,,,,,,,,,,,,
time_out,19,167840,0.0-8.0-1.0,"""event"",""trial"",""time""
""fullscreenenter"",""1"",""2404""
","
","
","""event"",""trial"",""time""
""fullscreenenter"",""1"",""2404""
","
",,6400.5,"<p>If you don't make your choice fast enough, you’ll have to wait a few seconds before you can make another one.</p><p>You can’t dig for more gems or travel to new planets. You just have to sit and wait.</p><br><p><img src='run_exp/static/images/task_images/time_out.jpg'  height='600' width='auto'></p>",,,,,,,1,,,,,,,,,,,,,,,,,,
html-keyboard-response,20,169387,0.0-8.0-2.0,"""event"",""trial"",""time""
""fullscreenenter"",""1"",""2404""
","
","
","""event"",""trial"",""time""
""fullscreenenter"",""1"",""2404""
","
",,1547.3,"<p>If you don't make your choice fast enough, you’ll have to wait a few seconds before you can make another one.</p><p>You can’t dig for more gems or travel to new planets. You just have to sit and wait.</p><br><p><img src='run_exp/static/images/task_images/time_out.jpg'  height='600' width='auto'></p><button class=""jspsych-html-btn-unchosen""><img src=""run_exp/static/images/task_images/planet-01.jpg"" height=""50""></button><button class=""jspsych-html-btn-chosen""><img src=""run_exp/static/images/task_images/planet-02.jpg"" height=""50""></button><p><b>[press the space bar to lock in your answer]<b><br></p>",32,,,,,,,,,,,,,,,,,,,,,,,,
instruc_break,21,185038,0.0-9.0-0.0,"""event"",""trial"",""time""
""fullscreenenter"",""1"",""2404""
","
","
","""event"",""trial"",""time""
""fullscreenenter"",""1"",""2404""
","
",,null,run_exp/static/audio/clip_8_break.m4a,null,"<p> After digging and traveling for a while, you’ll be able to take a break at home base. </p><p>The game will last 20 minutes no matter what.</p><p>You will visit home base every 5 minutes, so, you will visit home base three times during the game.</p><br><p><img src='run_exp/static/images/task_images/home_base.jpg' height='600' width='auto'></p>",,,,,,,,,,,,,,,,,,,,,,,
instruc_break,22,189802,0.0-9.0-1.0,"""event"",""trial"",""time""
""fullscreenenter"",""1"",""2404""
","
","
","""event"",""trial"",""time""
""fullscreenenter"",""1"",""2404""
","
",,4762.1,"<p> After digging and traveling for a while, you’ll be able to take a break at home base. </p><p>The game will last 20 minutes no matter what.</p><p>You will visit home base every 5 minutes, so, you will visit home base three times during the game.</p><br><p><img src='run_exp/static/images/task_images/home_base.jpg' height='600' width='auto'></p>",,,,,,,1,,,,,,,,,,,,,,,,,,
html-keyboard-response,23,190369,0.0-9.0-2.0,"""event"",""trial"",""time""
""fullscreenenter"",""1"",""2404""
","
","
","""event"",""trial"",""time""
""fullscreenenter"",""1"",""2404""
","
",,566.1,"<p> After digging and traveling for a while, you’ll be able to take a break at home base. </p><p>The game will last 20 minutes no matter what.</p><p>You will visit home base every 5 minutes, so, you will visit home base three times during the game.</p><br><p><img src='run_exp/static/images/task_images/home_base.jpg' height='600' width='auto'></p><button class=""jspsych-html-btn-unchosen""><img src=""run_exp/static/images/task_images/planet-01.jpg"" height=""50""></button><button class=""jspsych-html-btn-chosen""><img src=""run_exp/static/images/task_images/planet-02.jpg"" height=""50""></button><p><b>[press the space bar to lock in your answer]<b><br></p>",32,,,,,,,,,,,,,,,,,,,,,,,,
instruc_prac_game,24,200479,0.0-10.0-0.0,"""event"",""trial"",""time""
""fullscreenenter"",""1"",""2404""
","
","
","""event"",""trial"",""time""
""fullscreenenter"",""1"",""2404""
","
",,null,run_exp/static/audio/clip_9_practice.m4a,null,"<p> Are you ready to play a practice game? </p> <p>In this practice game, you'll be digging up barrels of gems. But, in the real game, you'll be digging up the gems themselves. </p>",,,,,,,,,,,,,,,,,,,,,,,
html-button-response,25,202754,0.0-10.0-1.0,"""event"",""trial"",""time""
""fullscreenenter"",""1"",""2404""
","
","
","""event"",""trial"",""time""
""fullscreenenter"",""1"",""2404""
","
",,2274.2,"<p> Are you ready to play a practice game? </p> <p>In this practice game, you'll be digging up barrels of gems. But, in the real game, you'll be digging up the gems themselves. </p>",,,,,,,0,,,,,,,,,,,,,,,,,,
alien_welcome_prac,26,207758,0.0-11.0-0.0,"""event"",""trial"",""time""
""fullscreenenter"",""1"",""2404""
","
","
","""event"",""trial"",""time""
""fullscreenenter"",""1"",""2404""
","
",,null,run_exp/static/images/task_images/aliens/practice_aliens/planet/alien_planet-5.jpg,null,,,,,,,,,,,,,,,,,,,,,,,,
land_prac,27,208260,0.0-11.0-1.0,"""event"",""trial"",""time""
""fullscreenenter"",""1"",""2404""
","
","
","""event"",""trial"",""time""
""fullscreenenter"",""1"",""2404""
","
",,null,run_exp/static/images/task_images/land.jpg,null,,,,,,,102,,,0,,,,,,,,,,,,,,
dig_prac,28,210270,0.0-11.0-2.0,"""event"",""trial"",""time""
""fullscreenenter"",""1"",""2404""
","
","
","""event"",""trial"",""time""
""fullscreenenter"",""1"",""2404""
","
",,,,,,,,,,,,"[{""stimulus"":""run_exp/static/images/task_images/dig.jpg"",""time"":0.10000002384185791},{""stimulus"":""run_exp/static/images/task_images/land.jpg"",""time"":680.3000000715256},{""stimulus"":""run_exp/static/images/task_images/dig.jpg"",""time"":1347.9000000953674}]",[],,,,,,,,,,,,,,,
harvest_prac,29,211281,0.0-11.0-3.0,"""event"",""trial"",""time""
""fullscreenenter"",""1"",""2404""
","
","
","""event"",""trial"",""time""
""fullscreenenter"",""1"",""2404""
","
",,null,run_exp/static/images/task_images/barrel_text.jpg,null,,,,,,,,,,,,,,,,,,,,,,,,
decision_prac,30,214283,0.0-11.0-4.0,"""event"",""trial"",""time""
""fullscreenenter"",""1"",""2404""
","
","
","""event"",""trial"",""time""
""fullscreenenter"",""1"",""2404""
","
",,null,run_exp/static/images/task_images/land.jpg,null,,,,,,,,,,,1,,,,,,,,,,,,,
time_out,31,216288,0.0-12.0-0.0,"""event"",""trial"",""time""
""fullscreenenter"",""1"",""2404""
","
","
","""event"",""trial"",""time""
""fullscreenenter"",""1"",""2404""
","
",,null,run_exp/static/images/task_images/time_out.jpg,null,,,,,,,,,,,,,,,,,,,,,,,,
decision_prac,32,217797,0.0-12.0-1.0,"""event"",""trial"",""time""
""fullscreenenter"",""1"",""2404""
","
","
","""event"",""trial"",""time""
""fullscreenenter"",""1"",""2404""
","
",,1508,run_exp/static/images/task_images/land.jpg,65,,,,,,,,,,,2,,,,,,,,,,,,,
dig_prac,33,219808,0.0-13.0-0.0,"""event"",""trial"",""time""
""fullscreenenter"",""1"",""2404""
","
","
","""event"",""trial"",""time""
""fullscreenenter"",""1"",""2404""
","
",,,,,,,,,,,,"[{""stimulus"":""run_exp/static/images/task_images/dig.jpg"",""time"":0.10000002384185791},{""stimulus"":""run_exp/static/images/task_images/land.jpg"",""time"":672.5},{""stimulus"":""run_exp/static/images/task_images/dig.jpg"",""time"":1342.2999999523163}]",[],,,,,,,,,,,,,,,
harvest_prac,34,220825,0.0-13.0-1.0,"""event"",""trial"",""time""
""fullscreenenter"",""1"",""2404""
","
","
","""event"",""trial"",""time""
""fullscreenenter"",""1"",""2404""
","
",,null,run_exp/static/images/task_images/barrel_text.jpg,null,,,,,,,,,,,,,,,,,,,,,,,,
decision_prac,35,223840,0.0-13.0-2.0,"""event"",""trial"",""time""
""fullscreenenter"",""1"",""2404""
","
","
","""event"",""trial"",""time""
""fullscreenenter"",""1"",""2404""
","
",,null,run_exp/static/images/task_images/land.jpg,null,,,,,,,,,,,3,,,,,,,,,,,,,
time_out,36,225847,0.0-14.0-0.0,"""event"",""trial"",""time""
""fullscreenenter"",""1"",""2404""
","
","
","""event"",""trial"",""time""
""fullscreenenter"",""1"",""2404""
","
",,null,run_exp/static/images/task_images/time_out.jpg,null,,,,,,,,,,,,,,,,,,,,,,,,
decision_prac,37,225852,0.0-14.0-1.0,"""event"",""trial"",""time""
""fullscreenenter"",""1"",""2404""
","
","
","""event"",""trial"",""time""
""fullscreenenter"",""1"",""2404""
","
",,5.100000024,run_exp/static/images/task_images/land.jpg,76,,,,,,,,,,,4,,,,,,,,,,,,,
travel,38,235850,0.0-15.0-0.0,"""event"",""trial"",""time""
""fullscreenenter"",""1"",""2404""
","
","
","""event"",""trial"",""time""
""fullscreenenter"",""1"",""2404""
","
",,,,,,,,,,,,"[{""stimulus"":""run_exp/static/images/task_images/rocket-01.jpg"",""time"":0.10000002384185791},{""stimulus"":""run_exp/static/images/task_images/rocket-02.jpg"",""time"":1123.3999999761581},{""stimulus"":""run_exp/static/images/task_images/rocket-03.jpg"",""time"":2230},{""stimulus"":""run_exp/static/images/task_images/rocket-04.jpg"",""time"":3343.7999999523163},{""stimulus"":""run_exp/static/images/task_images/rocket-05.jpg"",""time"":4447},{""stimulus"":""run_exp/static/images/task_images/rocket-06.jpg"",""time"":5564.200000047684},{""stimulus"":""run_exp/static/images/task_images/rocket-07.jpg"",""time"":6663.100000023842},{""stimulus"":""run_exp/static/images/task_images/rocket-08.jpg"",""time"":7774.200000047684},{""stimulus"":""run_exp/static/images/task_images/rocket-09.jpg"",""time"":8890.5}]",[],0,,,,,,,,,,,,,,
alien_welcome_prac,39,240866,0.0-15.0-1.0,"""event"",""trial"",""time""
""fullscreenenter"",""1"",""2404""
","
","
","""event"",""trial"",""time""
""fullscreenenter"",""1"",""2404""
","
",,null,run_exp/static/images/task_images/aliens/practice_aliens/planet/alien_planet-4.jpg,null,,,,,,,,,,,,,,,,,,,,,,,,
land_prac,40,241376,0.0-15.0-2.0,"""event"",""trial"",""time""
""fullscreenenter"",""1"",""2404""
","
","
","""event"",""trial"",""time""
""fullscreenenter"",""1"",""2404""
","
",,null,run_exp/static/images/task_images/land.jpg,null,,,,,,,106,,,0,,,,,,,,,,,,,,
dig_prac,41,243395,0.0-15.0-3.0,"""event"",""trial"",""time""
""fullscreenenter"",""1"",""2404""
","
","
","""event"",""trial"",""time""
""fullscreenenter"",""1"",""2404""
","
",,,,,,,,,,,,"[{""stimulus"":""run_exp/static/images/task_images/dig.jpg"",""time"":0.10000002384185791},{""stimulus"":""run_exp/static/images/task_images/land.jpg"",""time"":679.5},{""stimulus"":""run_exp/static/images/task_images/dig.jpg"",""time"":1335.8999999761581}]",[],,,,,,,,,,,,,,,
harvest_prac,42,244400,0.0-15.0-4.0,"""event"",""trial"",""time""
""fullscreenenter"",""1"",""2404""
","
","
","""event"",""trial"",""time""
""fullscreenenter"",""1"",""2404""
","
",,null,run_exp/static/images/task_images/barrel_text.jpg,null,,,,,,,,,,,,,,,,,,,,,,,,
decision_prac,43,244802,0.0-15.0-5.0,"""event"",""trial"",""time""
""fullscreenenter"",""1"",""2404""
","
","
","""event"",""trial"",""time""
""fullscreenenter"",""1"",""2404""
","
",,401.2,run_exp/static/images/task_images/land.jpg,65,,,,,,,,,,,,1,,,,,,,,,,,,
quiz_instruc,44,255857,0.0-16.0-0.0,"""event"",""trial"",""time""
""fullscreenenter"",""1"",""2404""
","
","
","""event"",""trial"",""time""
""fullscreenenter"",""1"",""2404""
","
",,11053.7,run_exp/static/audio/clip_10_quiz.m4a,,,,,,,0,,,,,,,,,,,,,,,,,,
instruc_repeat,45,298611,0.0-16.0-1.0,"""event"",""trial"",""time""
""fullscreenenter"",""1"",""2404""
","
","
","""event"",""trial"",""time""
""fullscreenenter"",""1"",""2404""
","
",,null,"<p> Are you ready to play a practice game? </p> <p>In this practice game, you'll be digging up barrels of gems. But, in the real game, you'll be digging up the gems themselves. </p>",null,"<p>In this game, your goal is to collect as many gems as you can. That’s how you will win bonus money. </p> <p>The entire game will last 20 minutes no matter how many gems you collect or how many planets you visit. </p><p>To stay on a planet and dig again, press the letter A on your keyboard. To leave for a new planet, press the letter L.</p><p>The more you dig on a planet, the fewer gems you’ll get with each dig which is why you might consider leaving for a new planet. </p><p>When you arrive at a new planet, you’ll be greeted by an alien. What the alien looks like does not tell you anything about how much treasure is on the planet. </p>",,,,,,,,,,,,,,,,,,,,,,,
instruc_repeat_continue,46,301708,0.0-16.0-2.0,"""event"",""trial"",""time""
""fullscreenenter"",""1"",""2404""
","
","
","""event"",""trial"",""time""
""fullscreenenter"",""1"",""2404""
","
",,3096.3,"<p> Are you ready to play a practice game? </p> <p>In this practice game, you'll be digging up barrels of gems. But, in the real game, you'll be digging up the gems themselves. </p>",,,,,,,0,,,,,,,,,,,,,,,,,,
quiz_q_1_ask,47,312235,0.0-16.0-3.0,"""event"",""trial"",""time""
""fullscreenenter"",""1"",""2404""
","
","
","""event"",""trial"",""time""
""fullscreenenter"",""1"",""2404""
","
",,10526.2,run_exp/static/audio/clip_11_q1_ask.m4a,,,,,,,0,,,,,,,,,,,,,,,,,,
quiz_q_1_fb_incorrect,48,315693,0.0-17.0-0.0,"""event"",""trial"",""time""
""fullscreenenter"",""1"",""2404""
","
","
","""event"",""trial"",""time""
""fullscreenenter"",""1"",""2404""
","
",,null,run_exp/static/audio/clip_13_q1_incorrect.m4a,null,<p>That’s incorrect. You win extra money by collecting more gems.</p>,,,,,,,,,,,,,,,,,,,,,,,
quiz_q_2_ask,49,323912,0.0-17.0-1.0,"""event"",""trial"",""time""
""fullscreenenter"",""1"",""2404""
","
","
","""event"",""trial"",""time""
""fullscreenenter"",""1"",""2404""
","
",,8218.7,run_exp/static/audio/clip_14_q2_ask.m4a,,,,,,,1,,,,,,,,,,,,,,,,,,
quiz_q_2_fb_correct,50,327913,0.0-18.0-0.0,"""event"",""trial"",""time""
""fullscreenenter"",""1"",""2404""
","
","
","""event"",""trial"",""time""
""fullscreenenter"",""1"",""2404""
","
",,null,run_exp/static/audio/clip_15_q2_correct.m4a,null,<p>That’s correct. The experiment is 20 minutes no matter what.</p>,,,,,,,,,,,,,,,,,,,,,,,
quiz_q_3_ask,51,332481,0.0-18.0-1.0,"""event"",""trial"",""time""
""fullscreenenter"",""1"",""2404""
","
","
","""event"",""trial"",""time""
""fullscreenenter"",""1"",""2404""
","
",,4567.6,run_exp/static/audio/clip_17_q3_ask.m4a,,,,,,,1,,,,,,,,,,,,,,,,,,
quiz_q_3_fb_correct,52,336452,0.0-19.0-0.0,"""event"",""trial"",""time""
""fullscreenenter"",""1"",""2404""
","
","
","""event"",""trial"",""time""
""fullscreenenter"",""1"",""2404""
","
",,null,run_exp/static/audio/clip_18_q3_correct.m4a,null,<p> That’s correct. You press the letter L to travel to a new planet.</p>,,,,,,,,,,,,,,,,,,,,,,,
quiz_q_4_ask,53,340841,0.0-19.0-1.0,"""event"",""trial"",""time""
""fullscreenenter"",""1"",""2404""
","
","
","""event"",""trial"",""time""
""fullscreenenter"",""1"",""2404""
","
",,4388,run_exp/static/audio/clip_20_q4_ask.m4a,,,,,,,0,,,,,,,,,,,,,,,,,,
quiz_q_4_fb_correct,54,346153,0.0-20.0-0.0,"""event"",""trial"",""time""
""fullscreenenter"",""1"",""2404""
","
","
","""event"",""trial"",""time""
""fullscreenenter"",""1"",""2404""
","
",,null,run_exp/static/audio/clip_21_q4_correct.m4a,null,<p> That’s correct. The more you dig on a planet the fewer gems you’ll get with each dig. </p>,,,,,,,,,,,,,,,,,,,,,,,
quiz_q_5_ask,55,350289,0.0-20.0-1.0,"""event"",""trial"",""time""
""fullscreenenter"",""1"",""2404""
","
","
","""event"",""trial"",""time""
""fullscreenenter"",""1"",""2404""
","
",,4134.4,run_exp/static/audio/clip_23_q5_ask.m4a,,,,,,,1,,,,,,,,,,,,,,,,,,
quiz_q_5_fb_correct,56,355294,0.0-21.0-0.0,"""event"",""trial"",""time""
""fullscreenenter"",""1"",""2404""
","
","
","""event"",""trial"",""time""
""fullscreenenter"",""1"",""2404""
","
",,null,run_exp/static/audio/clip_24_q5_correct.m4a,null,<p> That’s correct. The alien tells you nothing about how much treasure is on the planet.</p>,,,,,,,,,,,,,,,,,,,,,,,
quiz_incorrect,57,360834,0.0-22.0-0.0,"""event"",""trial"",""time""
""fullscreenenter"",""1"",""2404""
","
","
","""event"",""trial"",""time""
""fullscreenenter"",""1"",""2404""
","
",,null,run_exp/static/audio/clip_27_incorrect_quiz.m4a,null,,,,,,,,,,,,,,,,,,,,,,,,
quiz_incorrect_continue,58,363225,0.0-22.0-1.0,"""event"",""trial"",""time""
""fullscreenenter"",""1"",""2404""
","
","
","""event"",""trial"",""time""
""fullscreenenter"",""1"",""2404""
","
",,2390.5,"<p>Oops, you missed some questions.</p><p>Now that you’ve heard the correct answers. Try the quiz again!</p>",,,,,,,0,,,,,,,,,,,,,,,,,,
quiz_q_1_ask,59,365021,0.0-22.0-2.0,"""event"",""trial"",""time""
""fullscreenenter"",""1"",""2404""
","
","
","""event"",""trial"",""time""
""fullscreenenter"",""1"",""2404""
","
",,1794.2,run_exp/static/audio/clip_11_q1_ask.m4a,,,,,,,2,,,,,,,,,,,,,,,,,,
quiz_q_1_fb_correct,60,368854,0.0-23.0-0.0,"""event"",""trial"",""time""
""fullscreenenter"",""1"",""2404""
","
","
","""event"",""trial"",""time""
""fullscreenenter"",""1"",""2404""
","
",,null,run_exp/static/audio/clip_12_q1_correct.m4a,null,<p>That’s correct. You win extra money by collecting more gems.</p>,,,,,,,,,,,,,,,,,,,,,,,
quiz_q_2_ask,61,371300,0.0-23.0-1.0,"""event"",""trial"",""time""
""fullscreenenter"",""1"",""2404""
","
","
","""event"",""trial"",""time""
""fullscreenenter"",""1"",""2404""
","
",,2445.6,run_exp/static/audio/clip_14_q2_ask.m4a,,,,,,,1,,,,,,,,,,,,,,,,,,
quiz_q_2_fb_correct,62,375294,0.0-24.0-0.0,"""event"",""trial"",""time""
""fullscreenenter"",""1"",""2404""
","
","
","""event"",""trial"",""time""
""fullscreenenter"",""1"",""2404""
","
",,null,run_exp/static/audio/clip_15_q2_correct.m4a,null,<p>That’s correct. The experiment is 20 minutes no matter what.</p>,,,,,,,,,,,,,,,,,,,,,,,
quiz_q_3_ask,63,378567,0.0-24.0-1.0,"""event"",""trial"",""time""
""fullscreenenter"",""1"",""2404""
","
","
","""event"",""trial"",""time""
""fullscreenenter"",""1"",""2404""
","
",,3272.4,run_exp/static/audio/clip_17_q3_ask.m4a,,,,,,,1,,,,,,,,,,,,,,,,,,
quiz_q_3_fb_correct,64,382554,0.0-25.0-0.0,"""event"",""trial"",""time""
""fullscreenenter"",""1"",""2404""
","
","
","""event"",""trial"",""time""
""fullscreenenter"",""1"",""2404""
","
",,null,run_exp/static/audio/clip_18_q3_correct.m4a,null,<p> That’s correct. You press the letter L to travel to a new planet.</p>,,,,,,,,,,,,,,,,,,,,,,,
quiz_q_4_ask,65,386643,0.0-25.0-1.0,"""event"",""trial"",""time""
""fullscreenenter"",""1"",""2404""
","
","
","""event"",""trial"",""time""
""fullscreenenter"",""1"",""2404""
","
",,4088.2,run_exp/static/audio/clip_20_q4_ask.m4a,,,,,,,0,,,,,,,,,,,,,,,,,,
quiz_q_4_fb_correct,66,391956,0.0-26.0-0.0,"""event"",""trial"",""time""
""fullscreenenter"",""1"",""2404""
","
","
","""event"",""trial"",""time""
""fullscreenenter"",""1"",""2404""
","
",,null,run_exp/static/audio/clip_21_q4_correct.m4a,null,<p> That’s correct. The more you dig on a planet the fewer gems you’ll get with each dig. </p>,,,,,,,,,,,,,,,,,,,,,,,
quiz_q_5_ask,67,395163,0.0-26.0-1.0,"""event"",""trial"",""time""
""fullscreenenter"",""1"",""2404""
","
","
","""event"",""trial"",""time""
""fullscreenenter"",""1"",""2404""
","
",,3206.8,run_exp/static/audio/clip_23_q5_ask.m4a,,,,,,,1,,,,,,,,,,,,,,,,,,
quiz_q_5_fb_correct,68,400155,0.0-27.0-0.0,"""event"",""trial"",""time""
""fullscreenenter"",""1"",""2404""
","
","
","""event"",""trial"",""time""
""fullscreenenter"",""1"",""2404""
","
",,null,run_exp/static/audio/clip_24_q5_correct.m4a,null,<p> That’s correct. The alien tells you nothing about how much treasure is on the planet.</p>,,,,,,,,,,,,,,,,,,,,,,,
quiz_correct,69,403615,0.0-28.0-0.0,"""event"",""trial"",""time""
""fullscreenenter"",""1"",""2404""
","
","
","""event"",""trial"",""time""
""fullscreenenter"",""1"",""2404""
","
",,null,run_exp/static/audio/clip_26_correct_quiz.m4a,null,,,,,,,,,,,,,,,,,,,,,,,,
quiz_correct_continue,70,407201,0.0-28.0-1.0,"""event"",""trial"",""time""
""fullscreenenter"",""1"",""2404""
","
","
","""event"",""trial"",""time""
""fullscreenenter"",""1"",""2404""
","
",,3585.3,<p>Good job! You're now ready to move on to the real game!</p>,,,,,,,0,,,,,,,,,,,,,,,,,,
audio-keyboard-response,71,417317,0.0-28.0-2.0,"""event"",""trial"",""time""
""fullscreenenter"",""1"",""2404""
","
","
","""event"",""trial"",""time""
""fullscreenenter"",""1"",""2404""
","
",,null,run_exp/static/audio/clip_28_real_game.m4a,null,,,,,,,,,,,,,,,,,,,,,,,,
instruc_begin_exp_contine,72,419326,0.0-28.0-3.0,"""event"",""trial"",""time""
""fullscreenenter"",""1"",""2404""
","
","
","""event"",""trial"",""time""
""fullscreenenter"",""1"",""2404""
","
",,2009,"<p>Now that you know how  to dig for space treasure and travel to new planets,you can start exploring! </p><p>Do you want to go over the instructions again or get started with the real game?</p>",,,,,,,1,,,,,,1,,,,,,,,,,,,
alien_welcome,73,424332,0.0-29.0-0.0,"""event"",""trial"",""time""
""fullscreenenter"",""1"",""2404""
","
","
","""event"",""trial"",""time""
""fullscreenenter"",""1"",""2404""
","
",,null,run_exp/static/images/task_images/aliens/old_aliens/planet/alien_planet-60.jpg,null,,,,,,,,,,,,,60,"60,4,77,55,7,67,56,66,36,14,46,49,17,5,31,39,71,28,48,15,16,20,78,40,69,30,44,35,70,74,63,68,12,13,75,10,65,26,25,21,54,45,32,29,51,3,52,23,9,2,8,42,41,64,80,43,57,59,62",,,,,,,,,,
land,74,424848,0.0-29.0-1.0,"""event"",""trial"",""time""
""fullscreenenter"",""1"",""2404""
","
","
","""event"",""trial"",""time""
""fullscreenenter"",""1"",""2404""
","
",,null,run_exp/static/images/task_images/land.jpg,null,,,,,,,90,,,1,,,,,,,,,,,,,,
dig,75,426866,0.0-29.0-2.0,"""event"",""trial"",""time""
""fullscreenenter"",""1"",""2404""
","
","
","""event"",""trial"",""time""
""fullscreenenter"",""1"",""2404""
","
",,,,,,,,,,,,"[{""stimulus"":""run_exp/static/images/task_images/dig.jpg"",""time"":0.20000004768371582},{""stimulus"":""run_exp/static/images/task_images/land.jpg"",""time"":667.7000000476837},{""stimulus"":""run_exp/static/images/task_images/dig.jpg"",""time"":1346.5}]",[],1,,,,,,,,,,,,,,
harvest,76,427868,0.0-29.0-3.0,"""event"",""trial"",""time""
""fullscreenenter"",""1"",""2404""
","
","
","""event"",""trial"",""time""
""fullscreenenter"",""1"",""2404""
","
",,null,run_exp/static/images/task_images/gems/90.jpg,null,,,,,,,17,,,1,,,,,90,0.1845095,0.188888889,,,,,,,
decision,77,428831,0.0-29.0-4.0,"""event"",""trial"",""time""
""fullscreenenter"",""1"",""2404""
","
","
","""event"",""trial"",""time""
""fullscreenenter"",""1"",""2404""
","
",,961.7,run_exp/static/images/task_images/land.jpg,65,,,,,,,17,,,1,,,,,,,,9504,1,0,FALSE,,,
dig,78,430880,0.0-30.0-0.0,"""event"",""trial"",""time""
""fullscreenenter"",""1"",""2404""
","
","
","""event"",""trial"",""time""
""fullscreenenter"",""1"",""2404""
","
",,,,,,,,,,,,"[{""stimulus"":""run_exp/static/images/task_images/dig.jpg"",""time"":0.20000004768371582},{""stimulus"":""run_exp/static/images/task_images/land.jpg"",""time"":692.9000000953674},{""stimulus"":""run_exp/static/images/task_images/dig.jpg"",""time"":1364}]",[],1,,,,,,,,,,,,,,
harvest,79,431881,0.0-30.0-1.0,"""event"",""trial"",""time""
""fullscreenenter"",""1"",""2404""
","
","
","""event"",""trial"",""time""
""fullscreenenter"",""1"",""2404""
","
",,null,run_exp/static/images/task_images/gems/17.jpg,null,,,,,,,5,,,1,,,,,17,0.305567954,0.294117647,,,,,,,
decision,80,432449,0.0-30.0-2.0,"""event"",""trial"",""time""
""fullscreenenter"",""1"",""2404""
","
","
","""event"",""trial"",""time""
""fullscreenenter"",""1"",""2404""
","
",,567.1,run_exp/static/images/task_images/land.jpg,76,,,,,,,5,,,1,,,,,,,,13122,1,1,TRUE,,,
travel,81,441894,0.0-31.0-0.0,"""event"",""trial"",""time""
""fullscreenenter"",""1"",""2404""
","
","
","""event"",""trial"",""time""
""fullscreenenter"",""1"",""2404""
","
",,,,,,,,,,,,"[{""stimulus"":""run_exp/static/images/task_images/rocket-01.jpg"",""time"":0.20000004768371582},{""stimulus"":""run_exp/static/images/task_images/rocket-02.jpg"",""time"":1051.6000000238419},{""stimulus"":""run_exp/static/images/task_images/rocket-03.jpg"",""time"":2101.7000000476837},{""stimulus"":""run_exp/static/images/task_images/rocket-04.jpg"",""time"":3160.8000000715256},{""stimulus"":""run_exp/static/images/task_images/rocket-05.jpg"",""time"":4200.399999976158},{""stimulus"":""run_exp/static/images/task_images/rocket-06.jpg"",""time"":5247.399999976158},{""stimulus"":""run_exp/static/images/task_images/rocket-07.jpg"",""time"":6298.700000047684},{""stimulus"":""run_exp/static/images/task_images/rocket-08.jpg"",""time"":7338.700000047684},{""stimulus"":""run_exp/static/images/task_images/rocket-09.jpg"",""time"":8387.5}]",[],1,,,,,,,,,,,,,,
alien_welcome,82,446906,0.0-31.0-1.0,"""event"",""trial"",""time""
""fullscreenenter"",""1"",""2404""
","
","
","""event"",""trial"",""time""
""fullscreenenter"",""1"",""2404""
","
",,null,run_exp/static/images/task_images/aliens/old_aliens/planet/alien_planet-4.jpg,null,,,,,,,,,,,,,4,"60,4,77,55,7,67,56,66,36,14,46,49,17,5,31,39,71,28,48,15,16,20,78,40,69,30,44,35,70,74,63,68,12,13,75,10,65,26,25,21,54,45,32,29,51,3,52,23,9,2,8,42,41,64,80,43,57,59,62",,,,,,,,,,
land,83,447408,0.0-31.0-2.0,"""event"",""trial"",""time""
""fullscreenenter"",""1"",""2404""
","
","
","""event"",""trial"",""time""
""fullscreenenter"",""1"",""2404""
","
",,null,run_exp/static/images/task_images/land.jpg,null,,,,,,,99,,,2,,,,,,,,,,,,,,
dig,84,449416,0.0-31.0-3.0,"""event"",""trial"",""time""
""fullscreenenter"",""1"",""2404""
","
","
","""event"",""trial"",""time""
""fullscreenenter"",""1"",""2404""
","
",,,,,,,,,,,,"[{""stimulus"":""run_exp/static/images/task_images/dig.jpg"",""time"":0.10000002384185791},{""stimulus"":""run_exp/static/images/task_images/land.jpg"",""time"":669.7000000476837},{""stimulus"":""run_exp/static/images/task_images/dig.jpg"",""time"":1340}]",[],2,,,,,,,,,,,,,,
harvest,85,450433,0.0-31.0-4.0,"""event"",""trial"",""time""
""fullscreenenter"",""1"",""2404""
","
","
","""event"",""trial"",""time""
""fullscreenenter"",""1"",""2404""
","
",,null,run_exp/static/images/task_images/gems/99.jpg,null,,,,,,,16,,,2,,,,,99,0.157252408,0.161616162,,,,,,,
decision,86,450898,0.0-31.0-5.0,"""event"",""trial"",""time""
""fullscreenenter"",""1"",""2404""
","
","
","""event"",""trial"",""time""
""fullscreenenter"",""1"",""2404""
","
",,463.7,run_exp/static/images/task_images/land.jpg,65,,,,,,,16,,,2,,,,,,,,31571,1,0,FALSE,,,
dig,87,453447,0.0-32.0-0.0,"""event"",""trial"",""time""
""fullscreenenter"",""1"",""2404""
","
","
","""event"",""trial"",""time""
""fullscreenenter"",""1"",""2404""
","
",,,,,,,,,,,,"[{""stimulus"":""run_exp/static/images/task_images/dig.jpg"",""time"":0.10000002384185791},{""stimulus"":""run_exp/static/images/task_images/land.jpg"",""time"":848.1000000238419},{""stimulus"":""run_exp/static/images/task_images/dig.jpg"",""time"":1706}]",[],2,,,,,,,,,,,,,,
harvest,88,454449,0.0-32.0-1.0,"""event"",""trial"",""time""
""fullscreenenter"",""1"",""2404""
","
","
","""event"",""trial"",""time""
""fullscreenenter"",""1"",""2404""
","
",,null,run_exp/static/images/task_images/gems/16.jpg,null,,,,,,,4,,,2,,,,,16,0.241996614,0.25,,,,,,,
decision,89,457452,0.0-32.0-2.0,"""event"",""trial"",""time""
""fullscreenenter"",""1"",""2404""
","
","
","""event"",""trial"",""time""
""fullscreenenter"",""1"",""2404""
","
",,null,run_exp/static/images/task_images/land.jpg,null,,,,,,,4,,,2,,,,,,,,38125,1,1,FALSE,,,
time_out,90,459458,0.0-33.0-0.0,"""event"",""trial"",""time""
""fullscreenenter"",""1"",""2404""
","
","
","""event"",""trial"",""time""
""fullscreenenter"",""1"",""2404""
","
",,null,run_exp/static/images/task_images/time_out.jpg,null,,,,,,,4,,,,,,,,,,,,,,,,,
decision,91,459597,0.0-33.0-1.0,"""event"",""trial"",""time""
""fullscreenenter"",""1"",""2404""
","
","
","""event"",""trial"",""time""
""fullscreenenter"",""1"",""2404""
","
",,138.8,run_exp/static/images/task_images/land.jpg,65,,,,,,,4,,,2,,,,,,,,40270,1,1,FALSE,,,
dig,92,462462,0.0-34.0-0.0,"""event"",""trial"",""time""
""fullscreenenter"",""1"",""2404""
","
","
","""event"",""trial"",""time""
""fullscreenenter"",""1"",""2404""
","
",,,,,,,,,,,,"[{""stimulus"":""run_exp/static/images/task_images/dig.jpg"",""time"":0.10000002384185791},{""stimulus"":""run_exp/static/images/task_images/land.jpg"",""time"":964.5},{""stimulus"":""run_exp/static/images/task_images/dig.jpg"",""time"":1922.2000000476837}]",[],2,,,,,,,,,,,,,,
harvest,93,463478,0.0-34.0-1.0,"""event"",""trial"",""time""
""fullscreenenter"",""1"",""2404""
","
","
","""event"",""trial"",""time""
""fullscreenenter"",""1"",""2404""
","
",,null,run_exp/static/images/task_images/gems/4.jpg,null,,,,,,,1,,,2,,,,,4,0.187065275,0.25,,,,,,,
decision,94,463974,0.0-34.0-2.0,"""event"",""trial"",""time""
""fullscreenenter"",""1"",""2404""
","
","
","""event"",""trial"",""time""
""fullscreenenter"",""1"",""2404""
","
",,494.7,run_exp/static/images/task_images/land.jpg,76,,,,,,,1,,,2,,,,,,,,44647,1,2,TRUE,,,
travel,95,473487,0.0-35.0-0.0,"""event"",""trial"",""time""
""fullscreenenter"",""1"",""2404""
","
","
","""event"",""trial"",""time""
""fullscreenenter"",""1"",""2404""
","
",,,,,,,,,,,,"[{""stimulus"":""run_exp/static/images/task_images/rocket-01.jpg"",""time"":0.10000002384185791},{""stimulus"":""run_exp/static/images/task_images/rocket-02.jpg"",""time"":1057.7000000476837},{""stimulus"":""run_exp/static/images/task_images/rocket-03.jpg"",""time"":2127.2999999523163},{""stimulus"":""run_exp/static/images/task_images/rocket-04.jpg"",""time"":3177.2000000476837},{""stimulus"":""run_exp/static/images/task_images/rocket-05.jpg"",""time"":4238.600000023842},{""stimulus"":""run_exp/static/images/task_images/rocket-06.jpg"",""time"":5292.5},{""stimulus"":""run_exp/static/images/task_images/rocket-07.jpg"",""time"":6347.600000023842},{""stimulus"":""run_exp/static/images/task_images/rocket-08.jpg"",""time"":7396.899999976158},{""stimulus"":""run_exp/static/images/task_images/rocket-09.jpg"",""time"":8451.399999976158}]",[],2,,,,,,,,,,,,,,
alien_welcome,96,478505,0.0-35.0-1.0,"""event"",""trial"",""time""
""fullscreenenter"",""1"",""2404""
","
","
","""event"",""trial"",""time""
""fullscreenenter"",""1"",""2404""
","
",,null,run_exp/static/images/task_images/aliens/old_aliens/planet/alien_planet-77.jpg,null,,,,,,,,,,,,,77,"60,4,77,55,7,67,56,66,36,14,46,49,17,5,31,39,71,28,48,15,16,20,78,40,69,30,44,35,70,74,63,68,12,13,75,10,65,26,25,21,54,45,32,29,51,3,52,23,9,2,8,42,41,64,80,43,57,59,62",,,,,,,,,,
land,97,479018,0.0-35.0-2.0,"""event"",""trial"",""time""
""fullscreenenter"",""1"",""2404""
","
","
","""event"",""trial"",""time""
""fullscreenenter"",""1"",""2404""
","
",,null,run_exp/static/images/task_images/land.jpg,null,,,,,,,104,,,3,,,,,,,,,,,,,,
dig,98,481028,0.0-35.0-3.0,"""event"",""trial"",""time""
""fullscreenenter"",""1"",""2404""
","
","
","""event"",""trial"",""time""
""fullscreenenter"",""1"",""2404""
","
",,,,,,,,,,,,"[{""stimulus"":""run_exp/static/images/task_images/dig.jpg"",""time"":0.09999990463256836},{""stimulus"":""run_exp/static/images/task_images/land.jpg"",""time"":673.1999999284744},{""stimulus"":""run_exp/static/images/task_images/dig.jpg"",""time"":1334.7999999523163}]",[],3,,,,,,,,,,,,,,
harvest,99,482040,0.0-35.0-4.0,"""event"",""trial"",""time""
""fullscreenenter"",""1"",""2404""
","
","
","""event"",""trial"",""time""
""fullscreenenter"",""1"",""2404""
","
",,null,run_exp/static/images/task_images/gems/104.jpg,null,,,,,,,57,,,3,,,,,104,0.549520947,0.548076923,,,,,,,
decision,100,483624,0.0-35.0-5.0,"""event"",""trial"",""time""
""fullscreenenter"",""1"",""2404""
","
","
","""event"",""trial"",""time""
""fullscreenenter"",""1"",""2404""
","
",,1583.6,run_exp/static/images/task_images/land.jpg,65,,,,,,,57,,,3,,,,,,,,64297,1,0,FALSE,,,
dig,101,485050,0.0-36.0-0.0,"""event"",""trial"",""time""
""fullscreenenter"",""1"",""2404""
","
","
","""event"",""trial"",""time""
""fullscreenenter"",""1"",""2404""
","
",,,,,,,,,,,,"[{""stimulus"":""run_exp/static/images/task_images/dig.jpg"",""time"":0.10000002384185791},{""stimulus"":""run_exp/static/images/task_images/land.jpg"",""time"":477.90000009536743},{""stimulus"":""run_exp/static/images/task_images/dig.jpg"",""time"":959.3000000715256}]",[],3,,,,,,,,,,,,,,
harvest,102,486051,0.0-36.0-1.0,"""event"",""trial"",""time""
""fullscreenenter"",""1"",""2404""
","
","
","""event"",""trial"",""time""
""fullscreenenter"",""1"",""2404""
","
",,null,run_exp/static/images/task_images/gems/57.jpg,null,,,,,,,34,,,3,,,,,57,0.603079475,0.596491228,,,,,,,
decision,103,486692,0.0-36.0-2.0,"""event"",""trial"",""time""
""fullscreenenter"",""1"",""2404""
","
","
","""event"",""trial"",""time""
""fullscreenenter"",""1"",""2404""
","
",,640.5999999,run_exp/static/images/task_images/land.jpg,76,,,,,,,34,,,3,,,,,,,,67365,1,1,TRUE,,,
travel,104,496056,0.0-37.0-0.0,"""event"",""trial"",""time""
""fullscreenenter"",""1"",""2404""
","
","
","""event"",""trial"",""time""
""fullscreenenter"",""1"",""2404""
","
",,,,,,,,,,,,"[{""stimulus"":""run_exp/static/images/task_images/rocket-01.jpg"",""time"":0.10000002384185791},{""stimulus"":""run_exp/static/images/task_images/rocket-02.jpg"",""time"":1050.8999999761581},{""stimulus"":""run_exp/static/images/task_images/rocket-03.jpg"",""time"":2094.2000000476837},{""stimulus"":""run_exp/static/images/task_images/rocket-04.jpg"",""time"":3124.8000000715256},{""stimulus"":""run_exp/static/images/task_images/rocket-05.jpg"",""time"":4158.800000071526},{""stimulus"":""run_exp/static/images/task_images/rocket-06.jpg"",""time"":5197.800000071526},{""stimulus"":""run_exp/static/images/task_images/rocket-07.jpg"",""time"":6242.300000071526},{""stimulus"":""run_exp/static/images/task_images/rocket-08.jpg"",""time"":7286.800000071526},{""stimulus"":""run_exp/static/images/task_images/rocket-09.jpg"",""time"":8325}]",[],3,,,,,,,,,,,,,,
alien_welcome,105,501064,0.0-37.0-1.0,"""event"",""trial"",""time""
""fullscreenenter"",""1"",""2404""
","
","
","""event"",""trial"",""time""
""fullscreenenter"",""1"",""2404""
","
",,null,run_exp/static/images/task_images/aliens/old_aliens/planet/alien_planet-55.jpg,null,,,,,,,,,,,,,55,"60,4,77,55,7,67,56,66,36,14,46,49,17,5,31,39,71,28,48,15,16,20,78,40,69,30,44,35,70,74,63,68,12,13,75,10,65,26,25,21,54,45,32,29,51,3,52,23,9,2,8,42,41,64,80,43,57,59,62",,,,,,,,,,
land,106,501574,0.0-37.0-2.0,"""event"",""trial"",""time""
""fullscreenenter"",""1"",""2404""
","
","
","""event"",""trial"",""time""
""fullscreenenter"",""1"",""2404""
","
",,null,run_exp/static/images/task_images/land.jpg,null,,,,,,,111,,,4,,,,,,,,,,,,,,
dig,107,503588,0.0-37.0-3.0,"""event"",""trial"",""time""
""fullscreenenter"",""1"",""2404""
","
","
","""event"",""trial"",""time""
""fullscreenenter"",""1"",""2404""
","
",,,,,,,,,,,,"[{""stimulus"":""run_exp/static/images/task_images/dig.jpg"",""time"":0.19999992847442627},{""stimulus"":""run_exp/static/images/task_images/land.jpg"",""time"":668.5999999046326},{""stimulus"":""run_exp/static/images/task_images/dig.jpg"",""time"":1341.7999999523163}]",[],4,,,,,,,,,,,,,,
harvest,108,504604,0.0-37.0-4.0,"""event"",""trial"",""time""
""fullscreenenter"",""1"",""2404""
","
","
","""event"",""trial"",""time""
""fullscreenenter"",""1"",""2404""
","
",,null,run_exp/static/images/task_images/gems/111.jpg,null,,,,,,,55,,,4,,,,,111,0.495135844,0.495495495,,,,,,,
decision,109,505030,0.0-37.0-5.0,"""event"",""trial"",""time""
""fullscreenenter"",""1"",""2404""
","
","
","""event"",""trial"",""time""
""fullscreenenter"",""1"",""2404""
","
",,425.1999999,run_exp/static/images/task_images/land.jpg,65,,,,,,,55,,,4,,,,,,,,85704,1,0,FALSE,,,
dig,110,507612,0.0-38.0-0.0,"""event"",""trial"",""time""
""fullscreenenter"",""1"",""2404""
","
","
","""event"",""trial"",""time""
""fullscreenenter"",""1"",""2404""
","
",,,,,,,,,,,,"[{""stimulus"":""run_exp/static/images/task_images/dig.jpg"",""time"":0.10000002384185791},{""stimulus"":""run_exp/static/images/task_images/land.jpg"",""time"":867.7999999523163},{""stimulus"":""run_exp/static/images/task_images/dig.jpg"",""time"":1726.7000000476837}]",[],4,,,,,,,,,,,,,,
harvest,111,508624,0.0-38.0-1.0,"""event"",""trial"",""time""
""fullscreenenter"",""1"",""2404""
","
","
","""event"",""trial"",""time""
""fullscreenenter"",""1"",""2404""
","
",,null,run_exp/static/images/task_images/gems/55.jpg,null,,,,,,,27,,,4,,,,,55,0.489332025,0.490909091,,,,,,,
decision,112,510244,0.0-38.0-2.0,"""event"",""trial"",""time""
""fullscreenenter"",""1"",""2404""
","
","
","""event"",""trial"",""time""
""fullscreenenter"",""1"",""2404""
","
",,1619.4,run_exp/static/images/task_images/land.jpg,76,,,,,,,27,,,4,,,,,,,,90917,1,1,TRUE,,,
travel,113,518639,0.0-39.0-0.0,"""event"",""trial"",""time""
""fullscreenenter"",""1"",""2404""
","
","
","""event"",""trial"",""time""
""fullscreenenter"",""1"",""2404""
","
",,,,,,,,,,,,"[{""stimulus"":""run_exp/static/images/task_images/rocket-01.jpg"",""time"":0.10000002384185791},{""stimulus"":""run_exp/static/images/task_images/rocket-02.jpg"",""time"":940.2000000476837},{""stimulus"":""run_exp/static/images/task_images/rocket-03.jpg"",""time"":1878.1000000238419},{""stimulus"":""run_exp/static/images/task_images/rocket-04.jpg"",""time"":2795.7000000476837},{""stimulus"":""run_exp/static/images/task_images/rocket-05.jpg"",""time"":3732.7000000476837},{""stimulus"":""run_exp/static/images/task_images/rocket-06.jpg"",""time"":4666.200000047684},{""stimulus"":""run_exp/static/images/task_images/rocket-07.jpg"",""time"":5592.200000047684},{""stimulus"":""run_exp/static/images/task_images/rocket-08.jpg"",""time"":6518.800000071526},{""stimulus"":""run_exp/static/images/task_images/rocket-09.jpg"",""time"":7451.200000047684}]",[],4,,,,,,,,,,,,,,
alien_welcome,114,523648,0.0-39.0-1.0,"""event"",""trial"",""time""
""fullscreenenter"",""1"",""2404""
","
","
","""event"",""trial"",""time""
""fullscreenenter"",""1"",""2404""
","
",,null,run_exp/static/images/task_images/aliens/old_aliens/planet/alien_planet-7.jpg,null,,,,,,,,,,,,,7,"60,4,77,55,7,67,56,66,36,14,46,49,17,5,31,39,71,28,48,15,16,20,78,40,69,30,44,35,70,74,63,68,12,13,75,10,65,26,25,21,54,45,32,29,51,3,52,23,9,2,8,42,41,64,80,43,57,59,62",,,,,,,,,,
land,115,524158,0.0-39.0-2.0,"""event"",""trial"",""time""
""fullscreenenter"",""1"",""2404""
","
","
","""event"",""trial"",""time""
""fullscreenenter"",""1"",""2404""
","
",,null,run_exp/static/images/task_images/land.jpg,null,,,,,,,97,,,5,,,,,,,,,,,,,,
dig,116,526168,0.0-39.0-3.0,"""event"",""trial"",""time""
""fullscreenenter"",""1"",""2404""
","
","
","""event"",""trial"",""time""
""fullscreenenter"",""1"",""2404""
","
",,,,,,,,,,,,"[{""stimulus"":""run_exp/static/images/task_images/dig.jpg"",""time"":0.20000004768371582},{""stimulus"":""run_exp/static/images/task_images/land.jpg"",""time"":675.4000000953674},{""stimulus"":""run_exp/static/images/task_images/dig.jpg"",""time"":1338.6000000238419}]",[],5,,,,,,,,,,,,,,
harvest,117,527170,0.0-39.0-4.0,"""event"",""trial"",""time""
""fullscreenenter"",""1"",""2404""
","
","
","""event"",""trial"",""time""
""fullscreenenter"",""1"",""2404""
","
",,null,run_exp/static/images/task_images/gems/97.jpg,null,,,,,,,46,,,5,,,,,97,0.476995198,0.474226804,,,,,,,
decision,118,527600,0.0-39.0-5.0,"""event"",""trial"",""time""
""fullscreenenter"",""1"",""2404""
","
","
","""event"",""trial"",""time""
""fullscreenenter"",""1"",""2404""
","
",,429.6,run_exp/static/images/task_images/land.jpg,65,,,,,,,46,,,5,,,,,,,,108273,1,0,FALSE,,,
dig,119,530184,0.0-40.0-0.0,"""event"",""trial"",""time""
""fullscreenenter"",""1"",""2404""
","
","
","""event"",""trial"",""time""
""fullscreenenter"",""1"",""2404""
","
",,,,,,,,,,,,"[{""stimulus"":""run_exp/static/images/task_images/dig.jpg"",""time"":0.19999992847442627},{""stimulus"":""run_exp/static/images/task_images/land.jpg"",""time"":864.7999999523163},{""stimulus"":""run_exp/static/images/task_images/dig.jpg"",""time"":1724}]",[],5,,,,,,,,,,,,,,
harvest,120,531189,0.0-40.0-1.0,"""event"",""trial"",""time""
""fullscreenenter"",""1"",""2404""
","
","
","""event"",""trial"",""time""
""fullscreenenter"",""1"",""2404""
","
",,null,run_exp/static/images/task_images/gems/46.jpg,null,,,,,,,25,,,5,,,,,46,0.547619505,0.543478261,,,,,,,
decision,121,531480,0.0-40.0-2.0,"""event"",""trial"",""time""
""fullscreenenter"",""1"",""2404""
","
","
","""event"",""trial"",""time""
""fullscreenenter"",""1"",""2404""
","
",,290.3,run_exp/static/images/task_images/land.jpg,76,,,,,,,25,,,5,,,,,,,,112153,1,1,TRUE,,,
travel,122,541190,0.0-41.0-0.0,"""event"",""trial"",""time""
""fullscreenenter"",""1"",""2404""
","
","
","""event"",""trial"",""time""
""fullscreenenter"",""1"",""2404""
","
",,,,,,,,,,,,"[{""stimulus"":""run_exp/static/images/task_images/rocket-01.jpg"",""time"":0.10000002384185791},{""stimulus"":""run_exp/static/images/task_images/rocket-02.jpg"",""time"":1086.7000000476837},{""stimulus"":""run_exp/static/images/task_images/rocket-03.jpg"",""time"":2162.7000000476837},{""stimulus"":""run_exp/static/images/task_images/rocket-04.jpg"",""time"":3249.600000023842},{""stimulus"":""run_exp/static/images/task_images/rocket-05.jpg"",""time"":4321.200000047684},{""stimulus"":""run_exp/static/images/task_images/rocket-06.jpg"",""time"":5400.799999952316},{""stimulus"":""run_exp/static/images/task_images/rocket-07.jpg"",""time"":6470.200000047684},{""stimulus"":""run_exp/static/images/task_images/rocket-08.jpg"",""time"":7563.200000047684},{""stimulus"":""run_exp/static/images/task_images/rocket-09.jpg"",""time"":8625}]",[],5,,,,,,,,,,,,,,
alien_welcome,123,546202,0.0-41.0-1.0,"""event"",""trial"",""time""
""fullscreenenter"",""1"",""2404""
","
","
","""event"",""trial"",""time""
""fullscreenenter"",""1"",""2404""
","
",,null,run_exp/static/images/task_images/aliens/old_aliens/planet/alien_planet-67.jpg,null,,,,,,,,,,,,,67,"60,4,77,55,7,67,56,66,36,14,46,49,17,5,31,39,71,28,48,15,16,20,78,40,69,30,44,35,70,74,63,68,12,13,75,10,65,26,25,21,54,45,32,29,51,3,52,23,9,2,8,42,41,64,80,43,57,59,62",,,,,,,,,,
land,124,546718,0.0-41.0-2.0,"""event"",""trial"",""time""
""fullscreenenter"",""1"",""2404""
","
","
","""event"",""trial"",""time""
""fullscreenenter"",""1"",""2404""
","
",,null,run_exp/static/images/task_images/land.jpg,null,,,,,,,98,,,6,,,,,,,,,,,,,,
dig,125,548722,0.0-41.0-3.0,"""event"",""trial"",""time""
""fullscreenenter"",""1"",""2404""
","
","
","""event"",""trial"",""time""
""fullscreenenter"",""1"",""2404""
","
",,,,,,,,,,,,"[{""stimulus"":""run_exp/static/images/task_images/dig.jpg"",""time"":0.19999992847442627},{""stimulus"":""run_exp/static/images/task_images/land.jpg"",""time"":677.7999999523163},{""stimulus"":""run_exp/static/images/task_images/dig.jpg"",""time"":1349.1999999284744}]",[],6,,,,,,,,,,,,,,
harvest,126,549725,0.0-41.0-4.0,"""event"",""trial"",""time""
""fullscreenenter"",""1"",""2404""
","
","
","""event"",""trial"",""time""
""fullscreenenter"",""1"",""2404""
","
",,null,run_exp/static/images/task_images/gems/98.jpg,null,,,,,,,76,,,6,,,,,98,0.776954501,0.775510204,,,,,,,
decision,127,550227,0.0-41.0-5.0,"""event"",""trial"",""time""
""fullscreenenter"",""1"",""2404""
","
","
","""event"",""trial"",""time""
""fullscreenenter"",""1"",""2404""
","
",,502.3,run_exp/static/images/task_images/land.jpg,65,,,,,,,76,,,6,,,,,,,,130900,1,0,FALSE,,,
dig,128,552730,0.0-42.0-0.0,"""event"",""trial"",""time""
""fullscreenenter"",""1"",""2404""
","
","
","""event"",""trial"",""time""
""fullscreenenter"",""1"",""2404""
","
",,,,,,,,,,,,"[{""stimulus"":""run_exp/static/images/task_images/dig.jpg"",""time"":0.10000002384185791},{""stimulus"":""run_exp/static/images/task_images/land.jpg"",""time"":841.2999999523163},{""stimulus"":""run_exp/static/images/task_images/dig.jpg"",""time"":1665.2000000476837}]",[],6,,,,,,,,,,,,,,
harvest,129,553743,0.0-42.0-1.0,"""event"",""trial"",""time""
""fullscreenenter"",""1"",""2404""
","
","
","""event"",""trial"",""time""
""fullscreenenter"",""1"",""2404""
","
",,null,run_exp/static/images/task_images/gems/76.jpg,null,,,,,,,66,,,6,,,,,76,0.864590207,0.868421053,,,,,,,
decision,130,554183,0.0-42.0-2.0,"""event"",""trial"",""time""
""fullscreenenter"",""1"",""2404""
","
","
","""event"",""trial"",""time""
""fullscreenenter"",""1"",""2404""
","
",,439.8,run_exp/static/images/task_images/land.jpg,76,,,,,,,66,,,6,,,,,,,,134856,1,1,TRUE,,,
travel,131,563744,0.0-43.0-0.0,"""event"",""trial"",""time""
""fullscreenenter"",""1"",""2404""
","
","
","""event"",""trial"",""time""
""fullscreenenter"",""1"",""2404""
","
",,,,,,,,,,,,"[{""stimulus"":""run_exp/static/images/task_images/rocket-01.jpg"",""time"":0.19999992847442627},{""stimulus"":""run_exp/static/images/task_images/rocket-02.jpg"",""time"":1067},{""stimulus"":""run_exp/static/images/task_images/rocket-03.jpg"",""time"":2131.6999999284744},{""stimulus"":""run_exp/static/images/task_images/rocket-04.jpg"",""time"":3199.100000023842},{""stimulus"":""run_exp/static/images/task_images/rocket-05.jpg"",""time"":4256.699999928474},{""stimulus"":""run_exp/static/images/task_images/rocket-06.jpg"",""time"":5321},{""stimulus"":""run_exp/static/images/task_images/rocket-07.jpg"",""time"":6373.799999952316},{""stimulus"":""run_exp/static/images/task_images/rocket-08.jpg"",""time"":7440.799999952316},{""stimulus"":""run_exp/static/images/task_images/rocket-09.jpg"",""time"":8507.399999976158}]",[],6,,,,,,,,,,,,,,
alien_welcome,132,568758,0.0-43.0-1.0,"""event"",""trial"",""time""
""fullscreenenter"",""1"",""2404""
","
","
","""event"",""trial"",""time""
""fullscreenenter"",""1"",""2404""
","
",,null,run_exp/static/images/task_images/aliens/old_aliens/planet/alien_planet-56.jpg,null,,,,,,,,,,,,,56,"60,4,77,55,7,67,56,66,36,14,46,49,17,5,31,39,71,28,48,15,16,20,78,40,69,30,44,35,70,74,63,68,12,13,75,10,65,26,25,21,54,45,32,29,51,3,52,23,9,2,8,42,41,64,80,43,57,59,62",,,,,,,,,,
land,133,569275,0.0-43.0-2.0,"""event"",""trial"",""time""
""fullscreenenter"",""1"",""2404""
","
","
","""event"",""trial"",""time""
""fullscreenenter"",""1"",""2404""
","
",,null,run_exp/static/images/task_images/land.jpg,null,,,,,,,102,,,7,,,,,,,,,,,,,,
dig,134,571288,0.0-43.0-3.0,"""event"",""trial"",""time""
""fullscreenenter"",""1"",""2404""
","
","
","""event"",""trial"",""time""
""fullscreenenter"",""1"",""2404""
","
",,,,,,,,,,,,"[{""stimulus"":""run_exp/static/images/task_images/dig.jpg"",""time"":0.20000004768371582},{""stimulus"":""run_exp/static/images/task_images/land.jpg"",""time"":678.5},{""stimulus"":""run_exp/static/images/task_images/dig.jpg"",""time"":1346.4000000953674}]",[],7,,,,,,,,,,,,,,
harvest,135,572292,0.0-43.0-4.0,"""event"",""trial"",""time""
""fullscreenenter"",""1"",""2404""
","
","
","""event"",""trial"",""time""
""fullscreenenter"",""1"",""2404""
","
",,null,run_exp/static/images/task_images/gems/102.jpg,null,,,,,,,73,,,7,,,,,102,0.716557724,0.715686275,,,,,,,
decision,136,573655,0.0-43.0-5.0,"""event"",""trial"",""time""
""fullscreenenter"",""1"",""2404""
","
","
","""event"",""trial"",""time""
""fullscreenenter"",""1"",""2404""
","
",,1362.6,run_exp/static/images/task_images/land.jpg,65,,,,,,,73,,,7,,,,,,,,154328,1,0,FALSE,,,
dig,137,575293,0.0-44.0-0.0,"""event"",""trial"",""time""
""fullscreenenter"",""1"",""2404""
","
","
","""event"",""trial"",""time""
""fullscreenenter"",""1"",""2404""
","
",,,,,,,,,,,,"[{""stimulus"":""run_exp/static/images/task_images/dig.jpg"",""time"":0},{""stimulus"":""run_exp/static/images/task_images/land.jpg"",""time"":547.3000000715256},{""stimulus"":""run_exp/static/images/task_images/dig.jpg"",""time"":1095.9000000953674}]",[],7,,,,,,,,,,,,,,
harvest,138,576304,0.0-44.0-1.0,"""event"",""trial"",""time""
""fullscreenenter"",""1"",""2404""
","
","
","""event"",""trial"",""time""
""fullscreenenter"",""1"",""2404""
","
",,null,run_exp/static/images/task_images/gems/73.jpg,null,,,,,,,62,,,7,,,,,73,0.84332556,0.849315068,,,,,,,
decision,139,576828,0.0-44.0-2.0,"""event"",""trial"",""time""
""fullscreenenter"",""1"",""2404""
","
","
","""event"",""trial"",""time""
""fullscreenenter"",""1"",""2404""
","
",,523.1,run_exp/static/images/task_images/land.jpg,76,,,,,,,62,,,7,,,,,,,,157501,1,1,TRUE,,,
travel,140,586310,0.0-45.0-0.0,"""event"",""trial"",""time""
""fullscreenenter"",""1"",""2404""
","
","
","""event"",""trial"",""time""
""fullscreenenter"",""1"",""2404""
","
",,,,,,,,,,,,"[{""stimulus"":""run_exp/static/images/task_images/rocket-01.jpg"",""time"":0.19999992847442627},{""stimulus"":""run_exp/static/images/task_images/rocket-02.jpg"",""time"":1060.7999999523163},{""stimulus"":""run_exp/static/images/task_images/rocket-03.jpg"",""time"":2117.0999999046326},{""stimulus"":""run_exp/static/images/task_images/rocket-04.jpg"",""time"":3163.5},{""stimulus"":""run_exp/static/images/task_images/rocket-05.jpg"",""time"":4222.399999976158},{""stimulus"":""run_exp/static/images/task_images/rocket-06.jpg"",""time"":5270.299999952316},{""stimulus"":""run_exp/static/images/task_images/rocket-07.jpg"",""time"":6313.799999952316},{""stimulus"":""run_exp/static/images/task_images/rocket-08.jpg"",""time"":7377.699999928474},{""stimulus"":""run_exp/static/images/task_images/rocket-09.jpg"",""time"":8432}]",[],7,,,,,,,,,,,,,,
alien_welcome,141,591317,0.0-45.0-1.0,"""event"",""trial"",""time""
""fullscreenenter"",""1"",""2404""
","
","
","""event"",""trial"",""time""
""fullscreenenter"",""1"",""2404""
","
",,null,run_exp/static/images/task_images/aliens/old_aliens/planet/alien_planet-66.jpg,null,,,,,,,,,,,,,66,"60,4,77,55,7,67,56,66,36,14,46,49,17,5,31,39,71,28,48,15,16,20,78,40,69,30,44,35,70,74,63,68,12,13,75,10,65,26,25,21,54,45,32,29,51,3,52,23,9,2,8,42,41,64,80,43,57,59,62",,,,,,,,,,
land,142,591828,0.0-45.0-2.0,"""event"",""trial"",""time""
""fullscreenenter"",""1"",""2404""
","
","
","""event"",""trial"",""time""
""fullscreenenter"",""1"",""2404""
","
",,null,run_exp/static/images/task_images/land.jpg,null,,,,,,,100,,,8,,,,,,,,,,,,,,
dig,143,593838,0.0-45.0-3.0,"""event"",""trial"",""time""
""fullscreenenter"",""1"",""2404""
","
","
","""event"",""trial"",""time""
""fullscreenenter"",""1"",""2404""
","
",,,,,,,,,,,,"[{""stimulus"":""run_exp/static/images/task_images/dig.jpg"",""time"":0.10000002384185791},{""stimulus"":""run_exp/static/images/task_images/land.jpg"",""time"":670},{""stimulus"":""run_exp/static/images/task_images/dig.jpg"",""time"":1342.5}]",[],8,,,,,,,,,,,,,,
harvest,144,594854,0.0-45.0-4.0,"""event"",""trial"",""time""
""fullscreenenter"",""1"",""2404""
","
","
","""event"",""trial"",""time""
""fullscreenenter"",""1"",""2404""
","
",,null,run_exp/static/images/task_images/gems/100.jpg,null,,,,,,,81,,,8,,,,,100,0.80935536,0.81,,,,,,,
decision,145,595339,0.0-45.0-5.0,"""event"",""trial"",""time""
""fullscreenenter"",""1"",""2404""
","
","
","""event"",""trial"",""time""
""fullscreenenter"",""1"",""2404""
","
",,483.5,run_exp/static/images/task_images/land.jpg,65,,,,,,,81,,,8,,,,,,,,176012,1,0,FALSE,,,
dig,146,597864,0.0-46.0-0.0,"""event"",""trial"",""time""
""fullscreenenter"",""1"",""2404""
","
","
","""event"",""trial"",""time""
""fullscreenenter"",""1"",""2404""
","
",,,,,,,,,,,,"[{""stimulus"":""run_exp/static/images/task_images/dig.jpg"",""time"":0},{""stimulus"":""run_exp/static/images/task_images/land.jpg"",""time"":847.5},{""stimulus"":""run_exp/static/images/task_images/dig.jpg"",""time"":1688.5}]",[],8,,,,,,,,,,,,,,
harvest,147,598873,0.0-46.0-1.0,"""event"",""trial"",""time""
""fullscreenenter"",""1"",""2404""
","
","
","""event"",""trial"",""time""
""fullscreenenter"",""1"",""2404""
","
",,null,run_exp/static/images/task_images/gems/81.jpg,null,,,,,,,66,,,8,,,,,81,0.820984325,0.814814815,,,,,,,
decision,148,599720,0.0-46.0-2.0,"""event"",""trial"",""time""
""fullscreenenter"",""1"",""2404""
","
","
","""event"",""trial"",""time""
""fullscreenenter"",""1"",""2404""
","
",,846.3000001,run_exp/static/images/task_images/land.jpg,76,,,,,,,66,,,8,,,,,,,,180393,1,1,TRUE,,,
travel,149,608877,0.0-47.0-0.0,"""event"",""trial"",""time""
""fullscreenenter"",""1"",""2404""
","
","
","""event"",""trial"",""time""
""fullscreenenter"",""1"",""2404""
","
",,,,,,,,,,,,"[{""stimulus"":""run_exp/static/images/task_images/rocket-01.jpg"",""time"":0},{""stimulus"":""run_exp/static/images/task_images/rocket-02.jpg"",""time"":1019.8999999761581},{""stimulus"":""run_exp/static/images/task_images/rocket-03.jpg"",""time"":2049.3000000715256},{""stimulus"":""run_exp/static/images/task_images/rocket-04.jpg"",""time"":3057},{""stimulus"":""run_exp/static/images/task_images/rocket-05.jpg"",""time"":4071.899999976158},{""stimulus"":""run_exp/static/images/task_images/rocket-06.jpg"",""time"":5100.700000047684},{""stimulus"":""run_exp/static/images/task_images/rocket-07.jpg"",""time"":6112.399999976158},{""stimulus"":""run_exp/static/images/task_images/rocket-08.jpg"",""time"":7126.5},{""stimulus"":""run_exp/static/images/task_images/rocket-09.jpg"",""time"":8153.200000047684}]",[],8,,,,,,,,,,,,,,
alien_welcome,150,613879,0.0-47.0-1.0,"""event"",""trial"",""time""
""fullscreenenter"",""1"",""2404""
","
","
","""event"",""trial"",""time""
""fullscreenenter"",""1"",""2404""
","
",,null,run_exp/static/images/task_images/aliens/old_aliens/planet/alien_planet-36.jpg,null,,,,,,,,,,,,,36,"60,4,77,55,7,67,56,66,36,14,46,49,17,5,31,39,71,28,48,15,16,20,78,40,69,30,44,35,70,74,63,68,12,13,75,10,65,26,25,21,54,45,32,29,51,3,52,23,9,2,8,42,41,64,80,43,57,59,62",,,,,,,,,,
land,151,614382,0.0-47.0-2.0,"""event"",""trial"",""time""
""fullscreenenter"",""1"",""2404""
","
","
","""event"",""trial"",""time""
""fullscreenenter"",""1"",""2404""
","
",,null,run_exp/static/images/task_images/land.jpg,null,,,,,,,99,,,9,,,,,,,,,,,,,,
dig,152,616385,0.0-47.0-3.0,"""event"",""trial"",""time""
""fullscreenenter"",""1"",""2404""
","
","
","""event"",""trial"",""time""
""fullscreenenter"",""1"",""2404""
","
",,,,,,,,,,,,"[{""stimulus"":""run_exp/static/images/task_images/dig.jpg"",""time"":0.10000002384185791},{""stimulus"":""run_exp/static/images/task_images/land.jpg"",""time"":683.3999999761581},{""stimulus"":""run_exp/static/images/task_images/dig.jpg"",""time"":1340.8999999761581}]",[],9,,,,,,,,,,,,,,
harvest,153,617390,0.0-47.0-4.0,"""event"",""trial"",""time""
""fullscreenenter"",""1"",""2404""
","
","
","""event"",""trial"",""time""
""fullscreenenter"",""1"",""2404""
","
",,null,run_exp/static/images/task_images/gems/99.jpg,null,,,,,,,16,,,9,,,,,99,0.159884696,0.161616162,,,,,,,
decision,154,617822,0.0-47.0-5.0,"""event"",""trial"",""time""
""fullscreenenter"",""1"",""2404""
","
","
","""event"",""trial"",""time""
""fullscreenenter"",""1"",""2404""
","
",,431.5,run_exp/static/images/task_images/land.jpg,65,,,,,,,16,,,9,,,,,,,,198495,1,0,FALSE,,,
dig,155,620395,0.0-48.0-0.0,"""event"",""trial"",""time""
""fullscreenenter"",""1"",""2404""
","
","
","""event"",""trial"",""time""
""fullscreenenter"",""1"",""2404""
","
",,,,,,,,,,,,"[{""stimulus"":""run_exp/static/images/task_images/dig.jpg"",""time"":0.10000002384185791},{""stimulus"":""run_exp/static/images/task_images/land.jpg"",""time"":865.7999999523163},{""stimulus"":""run_exp/static/images/task_images/dig.jpg"",""time"":1720.2999999523163}]",[],9,,,,,,,,,,,,,,
harvest,156,621397,0.0-48.0-1.0,"""event"",""trial"",""time""
""fullscreenenter"",""1"",""2404""
","
","
","""event"",""trial"",""time""
""fullscreenenter"",""1"",""2404""
","
",,null,run_exp/static/images/task_images/gems/16.jpg,null,,,,,,,3,,,9,,,,,16,0.190980945,0.1875,,,,,,,
decision,157,621580,0.0-48.0-2.0,"""event"",""trial"",""time""
""fullscreenenter"",""1"",""2404""
","
","
","""event"",""trial"",""time""
""fullscreenenter"",""1"",""2404""
","
",,181.6,run_exp/static/images/task_images/land.jpg,76,,,,,,,3,,,9,,,,,,,,202253,1,1,TRUE,,,
travel,158,631404,0.0-49.0-0.0,"""event"",""trial"",""time""
""fullscreenenter"",""1"",""2404""
","
","
","""event"",""trial"",""time""
""fullscreenenter"",""1"",""2404""
","
",,,,,,,,,,,,"[{""stimulus"":""run_exp/static/images/task_images/rocket-01.jpg"",""time"":0.19999992847442627},{""stimulus"":""run_exp/static/images/task_images/rocket-02.jpg"",""time"":1106.3999999761581},{""stimulus"":""run_exp/static/images/task_images/rocket-03.jpg"",""time"":2190.0999999046326},{""stimulus"":""run_exp/static/images/task_images/rocket-04.jpg"",""time"":3271.399999976158},{""stimulus"":""run_exp/static/images/task_images/rocket-05.jpg"",""time"":4361.5},{""stimulus"":""run_exp/static/images/task_images/rocket-06.jpg"",""time"":5453.399999976158},{""stimulus"":""run_exp/static/images/task_images/rocket-07.jpg"",""time"":6552.799999952316},{""stimulus"":""run_exp/static/images/task_images/rocket-08.jpg"",""time"":7631.699999928474},{""stimulus"":""run_exp/static/images/task_images/rocket-09.jpg"",""time"":8732.399999976158}]",[],9,,,,,,,,,,,,,,
alien_welcome,159,636406,0.0-49.0-1.0,"""event"",""trial"",""time""
""fullscreenenter"",""1"",""2404""
","
","
","""event"",""trial"",""time""
""fullscreenenter"",""1"",""2404""
","
",,null,run_exp/static/images/task_images/aliens/old_aliens/planet/alien_planet-14.jpg,null,,,,,,,,,,,,,14,"60,4,77,55,7,67,56,66,36,14,46,49,17,5,31,39,71,28,48,15,16,20,78,40,69,30,44,35,70,74,63,68,12,13,75,10,65,26,25,21,54,45,32,29,51,3,52,23,9,2,8,42,41,64,80,43,57,59,62",,,,,,,,,,
land,160,636924,0.0-49.0-2.0,"""event"",""trial"",""time""
""fullscreenenter"",""1"",""2404""
","
","
","""event"",""trial"",""time""
""fullscreenenter"",""1"",""2404""
","
",,null,run_exp/static/images/task_images/land.jpg,null,,,,,,,99,,,10,,,,,,,,,,,,,,
dig,161,638935,0.0-49.0-3.0,"""event"",""trial"",""time""
""fullscreenenter"",""1"",""2404""
","
","
","""event"",""trial"",""time""
""fullscreenenter"",""1"",""2404""
","
",,,,,,,,,,,,"[{""stimulus"":""run_exp/static/images/task_images/dig.jpg"",""time"":0.10000002384185791},{""stimulus"":""run_exp/static/images/task_images/land.jpg"",""time"":678.3999999761581},{""stimulus"":""run_exp/static/images/task_images/dig.jpg"",""time"":1347.3999999761581}]",[],10,,,,,,,,,,,,,,
harvest,162,639943,0.0-49.0-4.0,"""event"",""trial"",""time""
""fullscreenenter"",""1"",""2404""
","
","
","""event"",""trial"",""time""
""fullscreenenter"",""1"",""2404""
","
",,null,run_exp/static/images/task_images/gems/99.jpg,null,,,,,,,18,,,10,,,,,99,0.177308514,0.181818182,,,,,,,
decision,163,640360,0.0-49.0-5.0,"""event"",""trial"",""time""
""fullscreenenter"",""1"",""2404""
","
","
","""event"",""trial"",""time""
""fullscreenenter"",""1"",""2404""
","
",,415.5,run_exp/static/images/task_images/land.jpg,65,,,,,,,18,,,10,,,,,,,,221033,1,0,FALSE,,,
dig,164,642948,0.0-50.0-0.0,"""event"",""trial"",""time""
""fullscreenenter"",""1"",""2404""
","
","
","""event"",""trial"",""time""
""fullscreenenter"",""1"",""2404""
","
",,,,,,,,,,,,"[{""stimulus"":""run_exp/static/images/task_images/dig.jpg"",""time"":0.10000002384185791},{""stimulus"":""run_exp/static/images/task_images/land.jpg"",""time"":868.3000000715256},{""stimulus"":""run_exp/static/images/task_images/dig.jpg"",""time"":1736.7000000476837}]",[],10,,,,,,,,,,,,,,
harvest,165,643958,0.0-50.0-1.0,"""event"",""trial"",""time""
""fullscreenenter"",""1"",""2404""
","
","
","""event"",""trial"",""time""
""fullscreenenter"",""1"",""2404""
","
",,null,run_exp/static/images/task_images/gems/18.jpg,null,,,,,,,3,,,10,,,,,18,0.186117217,0.166666667,,,,,,,
decision,166,644312,0.0-50.0-2.0,"""event"",""trial"",""time""
""fullscreenenter"",""1"",""2404""
","
","
","""event"",""trial"",""time""
""fullscreenenter"",""1"",""2404""
","
",,352.7,run_exp/static/images/task_images/land.jpg,76,,,,,,,3,,,10,,,,,,,,224985,1,1,TRUE,,,
travel,167,653961,0.0-51.0-0.0,"""event"",""trial"",""time""
""fullscreenenter"",""1"",""2404""
","
","
","""event"",""trial"",""time""
""fullscreenenter"",""1"",""2404""
","
",,,,,,,,,,,,"[{""stimulus"":""run_exp/static/images/task_images/rocket-01.jpg"",""time"":0.09999990463256836},{""stimulus"":""run_exp/static/images/task_images/rocket-02.jpg"",""time"":1078.6999999284744},{""stimulus"":""run_exp/static/images/task_images/rocket-03.jpg"",""time"":2148.7999999523163},{""stimulus"":""run_exp/static/images/task_images/rocket-04.jpg"",""time"":3215.1999999284744},{""stimulus"":""run_exp/static/images/task_images/rocket-05.jpg"",""time"":4292.599999904633},{""stimulus"":""run_exp/static/images/task_images/rocket-06.jpg"",""time"":5364.899999976158},{""stimulus"":""run_exp/static/images/task_images/rocket-07.jpg"",""time"":6432.099999904633},{""stimulus"":""run_exp/static/images/task_images/rocket-08.jpg"",""time"":7501.899999976158},{""stimulus"":""run_exp/static/images/task_images/rocket-09.jpg"",""time"":8580.299999952316}]",[],10,,,,,,,,,,,,,,
alien_welcome,168,658967,0.0-51.0-1.0,"""event"",""trial"",""time""
""fullscreenenter"",""1"",""2404""
","
","
","""event"",""trial"",""time""
""fullscreenenter"",""1"",""2404""
","
",,null,run_exp/static/images/task_images/aliens/old_aliens/planet/alien_planet-46.jpg,null,,,,,,,,,,,,,46,"60,4,77,55,7,67,56,66,36,14,46,49,17,5,31,39,71,28,48,15,16,20,78,40,69,30,44,35,70,74,63,68,12,13,75,10,65,26,25,21,54,45,32,29,51,3,52,23,9,2,8,42,41,64,80,43,57,59,62",,,,,,,,,,
land,169,659478,0.0-51.0-2.0,"""event"",""trial"",""time""
""fullscreenenter"",""1"",""2404""
","
","
","""event"",""trial"",""time""
""fullscreenenter"",""1"",""2404""
","
",,null,run_exp/static/images/task_images/land.jpg,null,,,,,,,102,,,11,,,,,,,,,,,,,,
dig,170,661485,0.0-51.0-3.0,"""event"",""trial"",""time""
""fullscreenenter"",""1"",""2404""
","
","
","""event"",""trial"",""time""
""fullscreenenter"",""1"",""2404""
","
",,,,,,,,,,,,"[{""stimulus"":""run_exp/static/images/task_images/dig.jpg"",""time"":0.19999992847442627},{""stimulus"":""run_exp/static/images/task_images/land.jpg"",""time"":672},{""stimulus"":""run_exp/static/images/task_images/dig.jpg"",""time"":1344.2999999523163}]",[],11,,,,,,,,,,,,,,
harvest,171,662496,0.0-51.0-4.0,"""event"",""trial"",""time""
""fullscreenenter"",""1"",""2404""
","
","
","""event"",""trial"",""time""
""fullscreenenter"",""1"",""2404""
","
",,null,run_exp/static/images/task_images/gems/102.jpg,null,,,,,,,21,,,11,,,,,102,0.207031958,0.205882353,,,,,,,
decision,172,662916,0.0-51.0-5.0,"""event"",""trial"",""time""
""fullscreenenter"",""1"",""2404""
","
","
","""event"",""trial"",""time""
""fullscreenenter"",""1"",""2404""
","
",,419.7,run_exp/static/images/task_images/land.jpg,65,,,,,,,21,,,11,,,,,,,,243589,1,0,FALSE,,,
dig,173,665512,0.0-52.0-0.0,"""event"",""trial"",""time""
""fullscreenenter"",""1"",""2404""
","
","
","""event"",""trial"",""time""
""fullscreenenter"",""1"",""2404""
","
",,,,,,,,,,,,"[{""stimulus"":""run_exp/static/images/task_images/dig.jpg"",""time"":0},{""stimulus"":""run_exp/static/images/task_images/land.jpg"",""time"":871.7000000476837},{""stimulus"":""run_exp/static/images/task_images/dig.jpg"",""time"":1724.2000000476837}]",[],11,,,,,,,,,,,,,,
harvest,174,666524,0.0-52.0-1.0,"""event"",""trial"",""time""
""fullscreenenter"",""1"",""2404""
","
","
","""event"",""trial"",""time""
""fullscreenenter"",""1"",""2404""
","
",,null,run_exp/static/images/task_images/gems/21.jpg,null,,,,,,,6,,,11,,,,,21,0.264265888,0.285714286,,,,,,,
decision,175,666784,0.0-52.0-2.0,"""event"",""trial"",""time""
""fullscreenenter"",""1"",""2404""
","
","
","""event"",""trial"",""time""
""fullscreenenter"",""1"",""2404""
","
",,259.1999999,run_exp/static/images/task_images/land.jpg,76,,,,,,,6,,,11,,,,,,,,247457,1,1,TRUE,,,
travel,176,676529,0.0-53.0-0.0,"""event"",""trial"",""time""
""fullscreenenter"",""1"",""2404""
","
","
","""event"",""trial"",""time""
""fullscreenenter"",""1"",""2404""
","
",,,,,,,,,,,,"[{""stimulus"":""run_exp/static/images/task_images/rocket-01.jpg"",""time"":0.10000002384185791},{""stimulus"":""run_exp/static/images/task_images/rocket-02.jpg"",""time"":1084.2000000476837},{""stimulus"":""run_exp/static/images/task_images/rocket-03.jpg"",""time"":2173.5},{""stimulus"":""run_exp/static/images/task_images/rocket-04.jpg"",""time"":3250.600000023842},{""stimulus"":""run_exp/static/images/task_images/rocket-05.jpg"",""time"":4331.200000047684},{""stimulus"":""run_exp/static/images/task_images/rocket-06.jpg"",""time"":5418.200000047684},{""stimulus"":""run_exp/static/images/task_images/rocket-07.jpg"",""time"":6493.100000023842},{""stimulus"":""run_exp/static/images/task_images/rocket-08.jpg"",""time"":7575.299999952316},{""stimulus"":""run_exp/static/images/task_images/rocket-09.jpg"",""time"":8668.600000023842}]",[],11,,,,,,,,,,,,,,
alien_welcome,177,681534,0.0-53.0-1.0,"""event"",""trial"",""time""
""fullscreenenter"",""1"",""2404""
","
","
","""event"",""trial"",""time""
""fullscreenenter"",""1"",""2404""
","
",,null,run_exp/static/images/task_images/aliens/old_aliens/planet/alien_planet-49.jpg,null,,,,,,,,,,,,,49,"60,4,77,55,7,67,56,66,36,14,46,49,17,5,31,39,71,28,48,15,16,20,78,40,69,30,44,35,70,74,63,68,12,13,75,10,65,26,25,21,54,45,32,29,51,3,52,23,9,2,8,42,41,64,80,43,57,59,62",,,,,,,,,,
land,178,682046,0.0-53.0-2.0,"""event"",""trial"",""time""
""fullscreenenter"",""1"",""2404""
","
","
","""event"",""trial"",""time""
""fullscreenenter"",""1"",""2404""
","
",,null,run_exp/static/images/task_images/land.jpg,null,,,,,,,96,,,12,,,,,,,,,,,,,,
dig,179,684051,0.0-53.0-3.0,"""event"",""trial"",""time""
""fullscreenenter"",""1"",""2404""
","
","
","""event"",""trial"",""time""
""fullscreenenter"",""1"",""2404""
","
",,,,,,,,,,,,"[{""stimulus"":""run_exp/static/images/task_images/dig.jpg"",""time"":0.20000004768371582},{""stimulus"":""run_exp/static/images/task_images/land.jpg"",""time"":675.3000000715256},{""stimulus"":""run_exp/static/images/task_images/dig.jpg"",""time"":1342.2000000476837}]",[],12,,,,,,,,,,,,,,
harvest,180,685062,0.0-53.0-4.0,"""event"",""trial"",""time""
""fullscreenenter"",""1"",""2404""
","
","
","""event"",""trial"",""time""
""fullscreenenter"",""1"",""2404""
","
",,null,run_exp/static/images/task_images/gems/96.jpg,null,,,,,,,11,,,12,,,,,96,0.119246951,0.114583333,,,,,,,
decision,181,686235,0.0-53.0-5.0,"""event"",""trial"",""time""
""fullscreenenter"",""1"",""2404""
","
","
","""event"",""trial"",""time""
""fullscreenenter"",""1"",""2404""
","
",,1171.5,run_exp/static/images/task_images/land.jpg,65,,,,,,,11,,,12,,,,,,,,266908,1,0,FALSE,,,
dig,182,688076,0.0-54.0-0.0,"""event"",""trial"",""time""
""fullscreenenter"",""1"",""2404""
","
","
","""event"",""trial"",""time""
""fullscreenenter"",""1"",""2404""
","
",,,,,,,,,,,,"[{""stimulus"":""run_exp/static/images/task_images/dig.jpg"",""time"":0.10000002384185791},{""stimulus"":""run_exp/static/images/task_images/land.jpg"",""time"":625.2999999523163},{""stimulus"":""run_exp/static/images/task_images/dig.jpg"",""time"":1233.3999999761581}]",[],12,,,,,,,,,,,,,,
harvest,183,689090,0.0-54.0-1.0,"""event"",""trial"",""time""
""fullscreenenter"",""1"",""2404""
","
","
","""event"",""trial"",""time""
""fullscreenenter"",""1"",""2404""
","
",,null,run_exp/static/images/task_images/gems/11.jpg,null,,,,,,,2,,,12,,,,,11,0.166793513,0.181818182,,,,,,,
decision,184,689292,0.0-54.0-2.0,"""event"",""trial"",""time""
""fullscreenenter"",""1"",""2404""
","
","
","""event"",""trial"",""time""
""fullscreenenter"",""1"",""2404""
","
",,201.6,run_exp/static/images/task_images/land.jpg,76,,,,,,,2,,,12,,,,,,,,269966,1,1,TRUE,,,
travel,185,699094,0.0-55.0-0.0,"""event"",""trial"",""time""
""fullscreenenter"",""1"",""2404""
","
","
","""event"",""trial"",""time""
""fullscreenenter"",""1"",""2404""
","
",,,,,,,,,,,,"[{""stimulus"":""run_exp/static/images/task_images/rocket-01.jpg"",""time"":0},{""stimulus"":""run_exp/static/images/task_images/rocket-02.jpg"",""time"":1095},{""stimulus"":""run_exp/static/images/task_images/rocket-03.jpg"",""time"":2182.5},{""stimulus"":""run_exp/static/images/task_images/rocket-04.jpg"",""time"":3276.100000023842},{""stimulus"":""run_exp/static/images/task_images/rocket-05.jpg"",""time"":4353.199999928474},{""stimulus"":""run_exp/static/images/task_images/rocket-06.jpg"",""time"":5445.600000023842},{""stimulus"":""run_exp/static/images/task_images/rocket-07.jpg"",""time"":6532.100000023842},{""stimulus"":""run_exp/static/images/task_images/rocket-08.jpg"",""time"":7620.100000023842},{""stimulus"":""run_exp/static/images/task_images/rocket-09.jpg"",""time"":8718.799999952316}]",[],12,,,,,,,,,,,,,,
alien_welcome,186,704109,0.0-55.0-1.0,"""event"",""trial"",""time""
""fullscreenenter"",""1"",""2404""
","
","
","""event"",""trial"",""time""
""fullscreenenter"",""1"",""2404""
","
",,null,run_exp/static/images/task_images/aliens/old_aliens/planet/alien_planet-17.jpg,null,,,,,,,,,,,,,17,"60,4,77,55,7,67,56,66,36,14,46,49,17,5,31,39,71,28,48,15,16,20,78,40,69,30,44,35,70,74,63,68,12,13,75,10,65,26,25,21,54,45,32,29,51,3,52,23,9,2,8,42,41,64,80,43,57,59,62",,,,,,,,,,
land,187,704614,0.0-55.0-2.0,"""event"",""trial"",""time""
""fullscreenenter"",""1"",""2404""
","
","
","""event"",""trial"",""time""
""fullscreenenter"",""1"",""2404""
","
",,null,run_exp/static/images/task_images/land.jpg,null,,,,,,,98,,,13,,,,,,,,,,,,,,
dig,188,706621,0.0-55.0-3.0,"""event"",""trial"",""time""
""fullscreenenter"",""1"",""2404""
","
","
","""event"",""trial"",""time""
""fullscreenenter"",""1"",""2404""
","
",,,,,,,,,,,,"[{""stimulus"":""run_exp/static/images/task_images/dig.jpg"",""time"":0.10000002384185791},{""stimulus"":""run_exp/static/images/task_images/land.jpg"",""time"":674.3999999761581},{""stimulus"":""run_exp/static/images/task_images/dig.jpg"",""time"":1343.6999999284744}]",[],13,,,,,,,,,,,,,,
harvest,189,707629,0.0-55.0-4.0,"""event"",""trial"",""time""
""fullscreenenter"",""1"",""2404""
","
","
","""event"",""trial"",""time""
""fullscreenenter"",""1"",""2404""
","
",,null,run_exp/static/images/task_images/gems/98.jpg,null,,,,,,,27,,,13,,,,,98,0.276481055,0.275510204,,,,,,,
decision,190,708645,0.0-55.0-5.0,"""event"",""trial"",""time""
""fullscreenenter"",""1"",""2404""
","
","
","""event"",""trial"",""time""
""fullscreenenter"",""1"",""2404""
","
",,1015.5,run_exp/static/images/task_images/land.jpg,65,,,,,,,27,,,13,,,,,,,,289318,1,0,FALSE,,,
dig,191,710636,0.0-56.0-0.0,"""event"",""trial"",""time""
""fullscreenenter"",""1"",""2404""
","
","
","""event"",""trial"",""time""
""fullscreenenter"",""1"",""2404""
","
",,,,,,,,,,,,"[{""stimulus"":""run_exp/static/images/task_images/dig.jpg"",""time"":0.10000002384185791},{""stimulus"":""run_exp/static/images/task_images/land.jpg"",""time"":671.7999999523163},{""stimulus"":""run_exp/static/images/task_images/dig.jpg"",""time"":1324.2000000476837}]",[],13,,,,,,,,,,,,,,
harvest,192,711648,0.0-56.0-1.0,"""event"",""trial"",""time""
""fullscreenenter"",""1"",""2404""
","
","
","""event"",""trial"",""time""
""fullscreenenter"",""1"",""2404""
","
",,null,run_exp/static/images/task_images/gems/27.jpg,null,,,,,,,7,,,13,,,,,27,0.250657541,0.259259259,,,,,,,
decision,193,712014,0.0-56.0-2.0,"""event"",""trial"",""time""
""fullscreenenter"",""1"",""2404""
","
","
","""event"",""trial"",""time""
""fullscreenenter"",""1"",""2404""
","
",,365.7,run_exp/static/images/task_images/land.jpg,76,,,,,,,7,,,13,,,,,,,,292687,1,1,TRUE,,,
travel,194,721662,0.0-57.0-0.0,"""event"",""trial"",""time""
""fullscreenenter"",""1"",""2404""
","
","
","""event"",""trial"",""time""
""fullscreenenter"",""1"",""2404""
","
",,,,,,,,,,,,"[{""stimulus"":""run_exp/static/images/task_images/rocket-01.jpg"",""time"":0},{""stimulus"":""run_exp/static/images/task_images/rocket-02.jpg"",""time"":1073.3999999761581},{""stimulus"":""run_exp/static/images/task_images/rocket-03.jpg"",""time"":2143.600000023842},{""stimulus"":""run_exp/static/images/task_images/rocket-04.jpg"",""time"":3212.6999999284744},{""stimulus"":""run_exp/static/images/task_images/rocket-05.jpg"",""time"":4292.699999928474},{""stimulus"":""run_exp/static/images/task_images/rocket-06.jpg"",""time"":5365.899999976158},{""stimulus"":""run_exp/static/images/task_images/rocket-07.jpg"",""time"":6427.5},{""stimulus"":""run_exp/static/images/task_images/rocket-08.jpg"",""time"":7499.799999952316},{""stimulus"":""run_exp/static/images/task_images/rocket-09.jpg"",""time"":8565}]",[],13,,,,,,,,,,,,,,
alien_welcome,195,726663,0.0-57.0-1.0,"""event"",""trial"",""time""
""fullscreenenter"",""1"",""2404""
","
","
","""event"",""trial"",""time""
""fullscreenenter"",""1"",""2404""
","
",,null,run_exp/static/images/task_images/aliens/old_aliens/planet/alien_planet-5.jpg,null,,,,,,,,,,,,,5,"60,4,77,55,7,67,56,66,36,14,46,49,17,5,31,39,71,28,48,15,16,20,78,40,69,30,44,35,70,74,63,68,12,13,75,10,65,26,25,21,54,45,32,29,51,3,52,23,9,2,8,42,41,64,80,43,57,59,62",,,,,,,,,,
land,196,727164,0.0-57.0-2.0,"""event"",""trial"",""time""
""fullscreenenter"",""1"",""2404""
","
","
","""event"",""trial"",""time""
""fullscreenenter"",""1"",""2404""
","
",,null,run_exp/static/images/task_images/land.jpg,null,,,,,,,95,,,14,,,,,,,,,,,,,,
dig,197,729169,0.0-57.0-3.0,"""event"",""trial"",""time""
""fullscreenenter"",""1"",""2404""
","
","
","""event"",""trial"",""time""
""fullscreenenter"",""1"",""2404""
","
",,,,,,,,,,,,"[{""stimulus"":""run_exp/static/images/task_images/dig.jpg"",""time"":0.19999992847442627},{""stimulus"":""run_exp/static/images/task_images/land.jpg"",""time"":670.2999999523163},{""stimulus"":""run_exp/static/images/task_images/dig.jpg"",""time"":1344.6000000238419}]",[],14,,,,,,,,,,,,,,
harvest,198,730181,0.0-57.0-4.0,"""event"",""trial"",""time""
""fullscreenenter"",""1"",""2404""
","
","
","""event"",""trial"",""time""
""fullscreenenter"",""1"",""2404""
","
",,null,run_exp/static/images/task_images/gems/95.jpg,null,,,,,,,74,,,14,,,,,95,0.776763801,0.778947368,,,,,,,
decision,199,732752,0.0-57.0-5.0,"""event"",""trial"",""time""
""fullscreenenter"",""1"",""2404""
","
","
","""event"",""trial"",""time""
""fullscreenenter"",""1"",""2404""
","
",,2570.3,run_exp/static/images/task_images/land.jpg,65,,,,,,,74,,,14,,,,,,,,313425,1,0,TRUE,,,
end_of_block_continue,200,741576,0.0-58.0-0.0,"""event"",""trial"",""time""
""fullscreenenter"",""1"",""2404""
","
","
","""event"",""trial"",""time""
""fullscreenenter"",""1"",""2404""
","
",,null,run_exp/static/audio/clip_32_block_end.m4a,,,,,,,null,,,,,,,,,,,,,,,,,,
alien_welcome,201,746593,0.0-59.0-0.0,"""event"",""trial"",""time""
""fullscreenenter"",""1"",""2404""
","
","
","""event"",""trial"",""time""
""fullscreenenter"",""1"",""2404""
","
",,null,run_exp/static/images/task_images/aliens/old_aliens/planet/alien_planet-31.jpg,null,,,,,,,,,,,,,31,"60,4,77,55,7,67,56,66,36,14,46,49,17,5,31,39,71,28,48,15,16,20,78,40,69,30,44,35,70,74,63,68,12,13,75,10,65,26,25,21,54,45,32,29,51,3,52,23,9,2,8,42,41,64,80,43,57,59,62",,,,,,,,,,
land,202,747094,0.0-59.0-1.0,"""event"",""trial"",""time""
""fullscreenenter"",""1"",""2404""
","
","
","""event"",""trial"",""time""
""fullscreenenter"",""1"",""2404""
","
",,null,run_exp/static/images/task_images/land.jpg,null,,,,,,,100,,,15,,,,,,,,,,,,,,
dig,203,749113,0.0-59.0-2.0,"""event"",""trial"",""time""
""fullscreenenter"",""1"",""2404""
","
","
","""event"",""trial"",""time""
""fullscreenenter"",""1"",""2404""
","
",,,,,,,,,,,,"[{""stimulus"":""run_exp/static/images/task_images/dig.jpg"",""time"":0.20000004768371582},{""stimulus"":""run_exp/static/images/task_images/land.jpg"",""time"":679.8000000715256},{""stimulus"":""run_exp/static/images/task_images/dig.jpg"",""time"":1349.5}]",[],15,,,,,,,,,,,,,,
harvest,204,750123,0.0-59.0-3.0,"""event"",""trial"",""time""
""fullscreenenter"",""1"",""2404""
","
","
","""event"",""trial"",""time""
""fullscreenenter"",""1"",""2404""
","
",,null,run_exp/static/images/task_images/gems/100.jpg,null,,,,,,,16,,,15,,,,,100,0.157729048,0.16,,,,,,,
decision,205,750617,0.0-59.0-4.0,"""event"",""trial"",""time""
""fullscreenenter"",""1"",""2404""
","
","
","""event"",""trial"",""time""
""fullscreenenter"",""1"",""2404""
","
",,493.0999999,run_exp/static/images/task_images/land.jpg,65,,,,,,,16,,,15,,,,,,,,9039,2,0,FALSE,,,
dig,206,753137,0.0-60.0-0.0,"""event"",""trial"",""time""
""fullscreenenter"",""1"",""2404""
","
","
","""event"",""trial"",""time""
""fullscreenenter"",""1"",""2404""
","
",,,,,,,,,,,,"[{""stimulus"":""run_exp/static/images/task_images/dig.jpg"",""time"":0.10000002384185791},{""stimulus"":""run_exp/static/images/task_images/land.jpg"",""time"":842.2999999523163},{""stimulus"":""run_exp/static/images/task_images/dig.jpg"",""time"":1680.2000000476837}]",[],15,,,,,,,,,,,,,,
harvest,207,754143,0.0-60.0-1.0,"""event"",""trial"",""time""
""fullscreenenter"",""1"",""2404""
","
","
","""event"",""trial"",""time""
""fullscreenenter"",""1"",""2404""
","
",,null,run_exp/static/images/task_images/gems/16.jpg,null,,,,,,,3,,,15,,,,,16,0.173249487,0.1875,,,,,,,
decision,208,754764,0.0-60.0-2.0,"""event"",""trial"",""time""
""fullscreenenter"",""1"",""2404""
","
","
","""event"",""trial"",""time""
""fullscreenenter"",""1"",""2404""
","
",,620.3,run_exp/static/images/task_images/land.jpg,76,,,,,,,3,,,15,,,,,,,,13187,2,1,TRUE,,,
travel,209,764151,0.0-61.0-0.0,"""event"",""trial"",""time""
""fullscreenenter"",""1"",""2404""
","
","
","""event"",""trial"",""time""
""fullscreenenter"",""1"",""2404""
","
",,,,,,,,,,,,"[{""stimulus"":""run_exp/static/images/task_images/rocket-01.jpg"",""time"":0.10000002384185791},{""stimulus"":""run_exp/static/images/task_images/rocket-02.jpg"",""time"":1046.6000000238419},{""stimulus"":""run_exp/static/images/task_images/rocket-03.jpg"",""time"":2085.899999976158},{""stimulus"":""run_exp/static/images/task_images/rocket-04.jpg"",""time"":3130.600000023842},{""stimulus"":""run_exp/static/images/task_images/rocket-05.jpg"",""time"":4178.799999952316},{""stimulus"":""run_exp/static/images/task_images/rocket-06.jpg"",""time"":5221.299999952316},{""stimulus"":""run_exp/static/images/task_images/rocket-07.jpg"",""time"":6253.299999952316},{""stimulus"":""run_exp/static/images/task_images/rocket-08.jpg"",""time"":7296.5},{""stimulus"":""run_exp/static/images/task_images/rocket-09.jpg"",""time"":8346.600000023842}]",[],15,,,,,,,,,,,,,,
alien_welcome,210,769155,0.0-61.0-1.0,"""event"",""trial"",""time""
""fullscreenenter"",""1"",""2404""
","
","
","""event"",""trial"",""time""
""fullscreenenter"",""1"",""2404""
","
",,null,run_exp/static/images/task_images/aliens/old_aliens/planet/alien_planet-39.jpg,null,,,,,,,,,,,,,39,"60,4,77,55,7,67,56,66,36,14,46,49,17,5,31,39,71,28,48,15,16,20,78,40,69,30,44,35,70,74,63,68,12,13,75,10,65,26,25,21,54,45,32,29,51,3,52,23,9,2,8,42,41,64,80,43,57,59,62",,,,,,,,,,
land,211,769666,0.0-61.0-2.0,"""event"",""trial"",""time""
""fullscreenenter"",""1"",""2404""
","
","
","""event"",""trial"",""time""
""fullscreenenter"",""1"",""2404""
","
",,null,run_exp/static/images/task_images/land.jpg,null,,,,,,,94,,,16,,,,,,,,,,,,,,
dig,212,771679,0.0-61.0-3.0,"""event"",""trial"",""time""
""fullscreenenter"",""1"",""2404""
","
","
","""event"",""trial"",""time""
""fullscreenenter"",""1"",""2404""
","
",,,,,,,,,,,,"[{""stimulus"":""run_exp/static/images/task_images/dig.jpg"",""time"":0.10000002384185791},{""stimulus"":""run_exp/static/images/task_images/land.jpg"",""time"":675.1000000238419},{""stimulus"":""run_exp/static/images/task_images/dig.jpg"",""time"":1345}]",[],16,,,,,,,,,,,,,,
harvest,213,772694,0.0-61.0-4.0,"""event"",""trial"",""time""
""fullscreenenter"",""1"",""2404""
","
","
","""event"",""trial"",""time""
""fullscreenenter"",""1"",""2404""
","
",,null,run_exp/static/images/task_images/gems/94.jpg,null,,,,,,,24,,,16,,,,,94,0.253872786,0.255319149,,,,,,,
decision,214,775709,0.0-61.0-5.0,"""event"",""trial"",""time""
""fullscreenenter"",""1"",""2404""
","
","
","""event"",""trial"",""time""
""fullscreenenter"",""1"",""2404""
","
",,null,run_exp/static/images/task_images/land.jpg,null,,,,,,,24,,,16,,,,,,,,34131,2,0,FALSE,,,
time_out,215,777713,0.0-62.0-0.0,"""event"",""trial"",""time""
""fullscreenenter"",""1"",""2404""
","
","
","""event"",""trial"",""time""
""fullscreenenter"",""1"",""2404""
","
",,null,run_exp/static/images/task_images/time_out.jpg,null,,,,,,,24,,,,,,,,,,,,,,,,,
decision,216,777821,0.0-62.0-1.0,"""event"",""trial"",""time""
""fullscreenenter"",""1"",""2404""
","
","
","""event"",""trial"",""time""
""fullscreenenter"",""1"",""2404""
","
",,107.5,run_exp/static/images/task_images/land.jpg,65,,,,,,,24,,,16,,,,,,,,36243,2,0,FALSE,,,
dig,217,780715,0.0-63.0-0.0,"""event"",""trial"",""time""
""fullscreenenter"",""1"",""2404""
","
","
","""event"",""trial"",""time""
""fullscreenenter"",""1"",""2404""
","
",,,,,,,,,,,,"[{""stimulus"":""run_exp/static/images/task_images/dig.jpg"",""time"":0.10000002384185791},{""stimulus"":""run_exp/static/images/task_images/land.jpg"",""time"":975.1999999284744},{""stimulus"":""run_exp/static/images/task_images/dig.jpg"",""time"":1940.1000000238419}]",[],16,,,,,,,,,,,,,,
harvest,218,781726,0.0-63.0-1.0,"""event"",""trial"",""time""
""fullscreenenter"",""1"",""2404""
","
","
","""event"",""trial"",""time""
""fullscreenenter"",""1"",""2404""
","
",,null,run_exp/static/images/task_images/gems/24.jpg,null,,,,,,,5,,,16,,,,,24,0.228319538,0.208333333,,,,,,,
decision,219,782118,0.0-63.0-2.0,"""event"",""trial"",""time""
""fullscreenenter"",""1"",""2404""
","
","
","""event"",""trial"",""time""
""fullscreenenter"",""1"",""2404""
","
",,391.1999999,run_exp/static/images/task_images/land.jpg,76,,,,,,,5,,,16,,,,,,,,40540,2,1,TRUE,,,
travel,220,791732,0.0-64.0-0.0,"""event"",""trial"",""time""
""fullscreenenter"",""1"",""2404""
","
","
","""event"",""trial"",""time""
""fullscreenenter"",""1"",""2404""
","
",,,,,,,,,,,,"[{""stimulus"":""run_exp/static/images/task_images/rocket-01.jpg"",""time"":0.09999990463256836},{""stimulus"":""run_exp/static/images/task_images/rocket-02.jpg"",""time"":1076.5999999046326},{""stimulus"":""run_exp/static/images/task_images/rocket-03.jpg"",""time"":2148.399999976158},{""stimulus"":""run_exp/static/images/task_images/rocket-04.jpg"",""time"":3216.6999999284744},{""stimulus"":""run_exp/static/images/task_images/rocket-05.jpg"",""time"":4281.199999928474},{""stimulus"":""run_exp/static/images/task_images/rocket-06.jpg"",""time"":5336.699999928474},{""stimulus"":""run_exp/static/images/task_images/rocket-07.jpg"",""time"":6410.5},{""stimulus"":""run_exp/static/images/task_images/rocket-08.jpg"",""time"":7479.299999952316},{""stimulus"":""run_exp/static/images/task_images/rocket-09.jpg"",""time"":8540.299999952316}]",[],16,,,,,,,,,,,,,,
alien_welcome,221,796739,0.0-64.0-1.0,"""event"",""trial"",""time""
""fullscreenenter"",""1"",""2404""
","
","
","""event"",""trial"",""time""
""fullscreenenter"",""1"",""2404""
","
",,null,run_exp/static/images/task_images/aliens/old_aliens/planet/alien_planet-71.jpg,null,,,,,,,,,,,,,71,"60,4,77,55,7,67,56,66,36,14,46,49,17,5,31,39,71,28,48,15,16,20,78,40,69,30,44,35,70,74,63,68,12,13,75,10,65,26,25,21,54,45,32,29,51,3,52,23,9,2,8,42,41,64,80,43,57,59,62",,,,,,,,,,
land,222,797248,0.0-64.0-2.0,"""event"",""trial"",""time""
""fullscreenenter"",""1"",""2404""
","
","
","""event"",""trial"",""time""
""fullscreenenter"",""1"",""2404""
","
",,null,run_exp/static/images/task_images/land.jpg,null,,,,,,,100,,,17,,,,,,,,,,,,,,
dig,223,799260,0.0-64.0-3.0,"""event"",""trial"",""time""
""fullscreenenter"",""1"",""2404""
","
","
","""event"",""trial"",""time""
""fullscreenenter"",""1"",""2404""
","
",,,,,,,,,,,,"[{""stimulus"":""run_exp/static/images/task_images/dig.jpg"",""time"":0.20000004768371582},{""stimulus"":""run_exp/static/images/task_images/land.jpg"",""time"":676.2999999523163},{""stimulus"":""run_exp/static/images/task_images/dig.jpg"",""time"":1344.7000000476837}]",[],17,,,,,,,,,,,,,,
harvest,224,800264,0.0-64.0-4.0,"""event"",""trial"",""time""
""fullscreenenter"",""1"",""2404""
","
","
","""event"",""trial"",""time""
""fullscreenenter"",""1"",""2404""
","
",,null,run_exp/static/images/task_images/gems/100.jpg,null,,,,,,,24,,,17,,,,,100,0.235459438,0.24,,,,,,,
decision,225,800677,0.0-64.0-5.0,"""event"",""trial"",""time""
""fullscreenenter"",""1"",""2404""
","
","
","""event"",""trial"",""time""
""fullscreenenter"",""1"",""2404""
","
",,411.7,run_exp/static/images/task_images/land.jpg,65,,,,,,,24,,,17,,,,,,,,59099,2,0,FALSE,,,
dig,226,803271,0.0-65.0-0.0,"""event"",""trial"",""time""
""fullscreenenter"",""1"",""2404""
","
","
","""event"",""trial"",""time""
""fullscreenenter"",""1"",""2404""
","
",,,,,,,,,,,,"[{""stimulus"":""run_exp/static/images/task_images/dig.jpg"",""time"":0.10000002384185791},{""stimulus"":""run_exp/static/images/task_images/land.jpg"",""time"":867},{""stimulus"":""run_exp/static/images/task_images/dig.jpg"",""time"":1736.7999999523163}]",[],17,,,,,,,,,,,,,,
harvest,227,804285,0.0-65.0-1.0,"""event"",""trial"",""time""
""fullscreenenter"",""1"",""2404""
","
","
","""event"",""trial"",""time""
""fullscreenenter"",""1"",""2404""
","
",,null,run_exp/static/images/task_images/gems/24.jpg,null,,,,,,,6,,,17,,,,,24,0.247716028,0.25,,,,,,,
decision,228,805108,0.0-65.0-2.0,"""event"",""trial"",""time""
""fullscreenenter"",""1"",""2404""
","
","
","""event"",""trial"",""time""
""fullscreenenter"",""1"",""2404""
","
",,822.9,run_exp/static/images/task_images/land.jpg,76,,,,,,,6,,,17,,,,,,,,63531,2,1,TRUE,,,
travel,229,814285,0.0-66.0-0.0,"""event"",""trial"",""time""
""fullscreenenter"",""1"",""2404""
","
","
","""event"",""trial"",""time""
""fullscreenenter"",""1"",""2404""
","
",,,,,,,,,,,,"[{""stimulus"":""run_exp/static/images/task_images/rocket-01.jpg"",""time"":0.19999992847442627},{""stimulus"":""run_exp/static/images/task_images/rocket-02.jpg"",""time"":1020.6999999284744},{""stimulus"":""run_exp/static/images/task_images/rocket-03.jpg"",""time"":2041},{""stimulus"":""run_exp/static/images/task_images/rocket-04.jpg"",""time"":3063.1999999284744},{""stimulus"":""run_exp/static/images/task_images/rocket-05.jpg"",""time"":4090.2999999523163},{""stimulus"":""run_exp/static/images/task_images/rocket-06.jpg"",""time"":5096.199999928474},{""stimulus"":""run_exp/static/images/task_images/rocket-07.jpg"",""time"":6119.399999976158},{""stimulus"":""run_exp/static/images/task_images/rocket-08.jpg"",""time"":7137.899999976158},{""stimulus"":""run_exp/static/images/task_images/rocket-09.jpg"",""time"":8158.799999952316}]",[],17,,,,,,,,,,,,,,
alien_welcome,230,819287,0.0-66.0-1.0,"""event"",""trial"",""time""
""fullscreenenter"",""1"",""2404""
","
","
","""event"",""trial"",""time""
""fullscreenenter"",""1"",""2404""
","
",,null,run_exp/static/images/task_images/aliens/old_aliens/planet/alien_planet-28.jpg,null,,,,,,,,,,,,,28,"60,4,77,55,7,67,56,66,36,14,46,49,17,5,31,39,71,28,48,15,16,20,78,40,69,30,44,35,70,74,63,68,12,13,75,10,65,26,25,21,54,45,32,29,51,3,52,23,9,2,8,42,41,64,80,43,57,59,62",,,,,,,,,,
land,231,819798,0.0-66.0-2.0,"""event"",""trial"",""time""
""fullscreenenter"",""1"",""2404""
","
","
","""event"",""trial"",""time""
""fullscreenenter"",""1"",""2404""
","
",,null,run_exp/static/images/task_images/land.jpg,null,,,,,,,107,,,18,,,,,,,,,,,,,,
dig,232,821808,0.0-66.0-3.0,"""event"",""trial"",""time""
""fullscreenenter"",""1"",""2404""
","
","
","""event"",""trial"",""time""
""fullscreenenter"",""1"",""2404""
","
",,,,,,,,,,,,"[{""stimulus"":""run_exp/static/images/task_images/dig.jpg"",""time"":0.10000002384185791},{""stimulus"":""run_exp/static/images/task_images/land.jpg"",""time"":674.6999999284744},{""stimulus"":""run_exp/static/images/task_images/dig.jpg"",""time"":1339.1000000238419}]",[],18,,,,,,,,,,,,,,
harvest,233,822812,0.0-66.0-4.0,"""event"",""trial"",""time""
""fullscreenenter"",""1"",""2404""
","
","
","""event"",""trial"",""time""
