trial_type,trial_index,time_elapsed,internal_node_id,success,rt,stimulus,key_press,prompt,subject_id,age,gender,button_pressed,next_reward,animation_sequence,responses,planet,curr_prac_trial,n_prac_rounds,alien,aliens,reward_received,decay_rate_actual,decay_rate_exp,time_in_block,block_num,prt,last_trial_on_planet,button_html,bonus,num_failures
pavlovia,0,6,0.0-0.0,,,,,,,,,,,,,,,,,,,,,,,,,,,
fullscreen,1,18604,0.0-1.0,TRUE,,,,,,,,,,,,,,,,,,,,,,,,,,
instruc_welcome,2,28453,0.0-2.0,,null,run_exp/static/audio/clip_1_welcome.m4a,null,"<p>Howdy! In this experiment, you’ll be an explorer traveling through space to collect space treasure.</p><p>Your mission is to collect as much treasure as possible.</p><br><br><p><img src='run_exp/static/images/task_images/opening_img-01.jpg' height='300' width='auto'></p>",p79bmmg6Ma0DxiA_1Y3uCvx5VSxv8Zo_MLRP_1HPVpgtC4IwRAvI,15.17,male,,,,,,,,,,,,,,,,,,,
audio-keyboard-response,3,45032,0.0-3.0,,null,run_exp/static/audio/clip_2_move.m4a,null,,,,,,,,,,,,,,,,,,,,,,,
welcome_dec,4,48052,0.0-4.0,,3017.6,"<p>Howdy! In this experiment, you’ll be an explorer traveling through space to collect space treasure.</p><p>Your mission is to collect as much treasure as possible.</p><br><br><p><img src='run_exp/static/images/task_images/opening_img-01.jpg' height='300' width='auto'></p>",,,,,,1,,,,,,,,,,,,,,,,,,
html-keyboard-response,5,49477,0.0-5.0,,1423.5,"<p>Howdy! In this experiment, you’ll be an explorer traveling through space to collect space treasure.</p><p>Your mission is to collect as much treasure as possible.</p><br><br><p><img src='run_exp/static/images/task_images/opening_img-01.jpg' height='300' width='auto'></p><button class=""jspsych-html-btn-unchosen""><img src=""run_exp/static/images/task_images/planet-01.jpg"" height=""50""></button><button class=""jspsych-html-btn-chosen""><img src=""run_exp/static/images/task_images/planet-02.jpg"" height=""50""></button><p><b>[press the space bar to lock in your answer]<b><br></p>",32,,,,,,,,,,,,,,,,,,,,,,,
instruc_goal,6,59532,0.0-6.0-0.0,,null,run_exp/static/audio/clip_3_goal.m4a,null,"<p> As a space explorer, you’ll visit different planets to dig for space treasure, these pink gems.</p> <p> The more treasure you dig up, the more bonus money you’ll win! </p><br><br><p><img src='run_exp/static/images/task_images/pink_gem.jpg' height='300' width='auto'></p>",,,,,,,,,,,,,,,,,,,,,,
instruc_goal,7,61913,0.0-6.0-1.0,,2379.5,"<p> As a space explorer, you’ll visit different planets to dig for space treasure, these pink gems.</p> <p> The more treasure you dig up, the more bonus money you’ll win! </p><br><br><p><img src='run_exp/static/images/task_images/pink_gem.jpg' height='300' width='auto'></p>",,,,,,1,,,,,,,,,,,,,,,,,,
html-keyboard-response,8,62899,0.0-6.0-2.0,,985.0999999,"<p> As a space explorer, you’ll visit different planets to dig for space treasure, these pink gems.</p> <p> The more treasure you dig up, the more bonus money you’ll win! </p><br><br><p><img src='run_exp/static/images/task_images/pink_gem.jpg' height='300' width='auto'></p><button class=""jspsych-html-btn-unchosen""><img src=""run_exp/static/images/task_images/planet-01.jpg"" height=""50""></button><button class=""jspsych-html-btn-chosen""><img src=""run_exp/static/images/task_images/planet-02.jpg"" height=""50""></button><p><b>[press the space bar to lock in your answer]<b><br></p>",32,,,,,,,,,,,,,,,,,,,,,,,
instruc_dig,9,78891,0.0-7.0-0.0,,null,run_exp/static/audio/clip_4_dig.m4a,null,,,,,,100,,,,,,,,,,,,,,,,,
instruc_dig_try,10,80254,0.0-7.0-1.0,,1360.9,"<p> When you’ve arrived at a new planet, you will dig once. </p> <p>Then, you get to decide if you want to stay on the planet and dig again or travel to a new planet and dig there.</p> <p> To stay and dig, press the letter <strong>‘A’</strong> on your keyboard. Try pressing it now! </p><p><img src='run_exp/static/images/task_images/land.jpg'  height='700' width='auto'></p>",65,"<p> When you’ve arrived at a new planet, you will dig once. </p> <p>Then, you get to decide if you want to stay on the planet and dig again or travel to a new planet and dig there.</p> <p> To stay and dig, press the letter <strong>‘A’</strong> on your keyboard. Try pressing it now! </p><p><img src='run_exp/static/images/task_images/land.jpg'  height='700' width='auto'></p>",,,,,100,,,,,,,,,,,,,,,,,
dig_prac,11,82268,0.0-7.0-2.0,,,,,,,,,,,"[{""stimulus"":""run_exp/static/images/task_images/dig.jpg"",""time"":0.09999990463256836},{""stimulus"":""run_exp/static/images/task_images/land.jpg"",""time"":680.0999999046326},{""stimulus"":""run_exp/static/images/task_images/dig.jpg"",""time"":1347.5}]",[],,,,,,,,,,,,,,,
instruc_travel,12,118511,0.0-7.0-3.0,,null,run_exp/static/audio/clip_5_travel.m4a,null,"<p>Every time you dig up gems, there are less gems on the planet, so the more you dig on a planet the fewer gems you’ll get with each dig.</p><p>When gems are running low, you may want to travel to a new planet. </p> <p>  Planets are very far apart in this galaxy, so it will take some time to travel between them. </p> <br><p>There are lots and lots of planets for you to visit, so you won’t be able to return to any planets you’ve seen before. </p><br><p>To leave this planet and travel to a new one, press the letter <strong>‘L’</strong> on your keyboard. Try pressing it now! </p><p><img src='run_exp/static/images/task_images/rocket-01.jpg'  height='600' width='auto'></p>",,,,,,,,,,,,,,,,,,,,,,
instruc_travel_try,13,124649,0.0-7.0-4.0,,6136.4,"<p>Every time you dig up gems, there are less gems on the planet, so the more you dig on a planet the fewer gems you’ll get with each dig.</p><p>When gems are running low, you may want to travel to a new planet. </p> <p>  Planets are very far apart in this galaxy, so it will take some time to travel between them. </p> <br><p>There are lots and lots of planets for you to visit, so you won’t be able to return to any planets you’ve seen before. </p><br><p>To leave this planet and travel to a new one, press the letter <strong>‘L’</strong> on your keyboard. Try pressing it now! </p><p><img src='run_exp/static/images/task_images/rocket-01.jpg'  height='600' width='auto'></p>",76,"<p>Every time you dig up gems, there are less gems on the planet, so the more you dig on a planet the fewer gems you’ll get with each dig.</p><p>When gems are running low, you may want to travel to a new planet. </p> <p>  Planets are very far apart in this galaxy, so it will take some time to travel between them. </p> <br><p>There are lots and lots of planets for you to visit, so you won’t be able to return to any planets you’ve seen before. </p><br><p>To leave this planet and travel to a new one, press the letter <strong>‘L’</strong> on your keyboard. Try pressing it now! </p><p><img src='run_exp/static/images/task_images/rocket-01.jpg'  height='600' width='auto'></p>",,,,,,,,,,,,,,,,,,,,,,
travel_prac,14,134656,0.0-7.0-5.0,,,,,,,,,,,"[{""stimulus"":""run_exp/static/images/task_images/rocket-01.jpg"",""time"":0.2999997138977051},{""stimulus"":""run_exp/static/images/task_images/rocket-02.jpg"",""time"":1120.7999997138977},{""stimulus"":""run_exp/static/images/task_images/rocket-03.jpg"",""time"":2235},{""stimulus"":""run_exp/static/images/task_images/rocket-04.jpg"",""time"":3347.5},{""stimulus"":""run_exp/static/images/task_images/rocket-05.jpg"",""time"":4457.599999904633},{""stimulus"":""run_exp/static/images/task_images/rocket-06.jpg"",""time"":5558.099999904633},{""stimulus"":""run_exp/static/images/task_images/rocket-07.jpg"",""time"":6672.799999713898},{""stimulus"":""run_exp/static/images/task_images/rocket-08.jpg"",""time"":7782},{""stimulus"":""run_exp/static/images/task_images/rocket-09.jpg"",""time"":8896.699999809265}]",[],0,,,,,,,,,,,,,,
instruc_alien_greet,15,161972,0.0-7.0-6.0,,null,run_exp/static/audio/clip_6_alien.m4a,null,"<p>When you arrive at a new planet, the alien who owns the treasure mine on that planet will greet you!</p><p>The better an alien takes care of their mine the easier it is to dig for gems. Some aliens take better care of their mine than others. So, you won’t get exactly the same amount of gems on each planet.</p><p>What the alien looks like does not tell you anything about how many gems there are on the planet.</p><br><p><img src=""run_exp/static/images/task_images/aliens/instructions_aliens/planet/alien_planet-1.jpg""  height=""600"" width=""auto""></p>",,,,,,,,,,,,,,,,,,,,,,
instruc_alien_greet,16,165931,0.0-7.0-7.0,,3955.8,"<p>When you arrive at a new planet, the alien who owns the treasure mine on that planet will greet you!</p><p>The better an alien takes care of their mine the easier it is to dig for gems. Some aliens take better care of their mine than others. So, you won’t get exactly the same amount of gems on each planet.</p><p>What the alien looks like does not tell you anything about how many gems there are on the planet.</p><br><p><img src=""run_exp/static/images/task_images/aliens/instructions_aliens/planet/alien_planet-1.jpg""  height=""600"" width=""auto""></p>",,,,,,1,,,,,,,,,,,,,,,,,,
html-keyboard-response,17,167177,0.0-7.0-8.0,,1244.7,"<p>When you arrive at a new planet, the alien who owns the treasure mine on that planet will greet you!</p><p>The better an alien takes care of their mine the easier it is to dig for gems. Some aliens take better care of their mine than others. So, you won’t get exactly the same amount of gems on each planet.</p><p>What the alien looks like does not tell you anything about how many gems there are on the planet.</p><br><p><img src=""run_exp/static/images/task_images/aliens/instructions_aliens/planet/alien_planet-1.jpg""  height=""600"" width=""auto""></p><button class=""jspsych-html-btn-unchosen""><img src=""run_exp/static/images/task_images/planet-01.jpg"" height=""50""></button><button class=""jspsych-html-btn-chosen""><img src=""run_exp/static/images/task_images/planet-02.jpg"" height=""50""></button><p><b>[press the space bar to lock in your answer]<b><br></p>",32,,,,,,,,,,,,,,,,,,,,,,,
time_out,18,178272,0.0-8.0-0.0,,null,run_exp/static/audio/clip_7_timeout.m4a,null,"<p>If you don't make your choice fast enough, you’ll have to wait a few seconds before you can make another one.</p><p>You can’t dig for more gems or travel to new planets. You just have to sit and wait.</p><br><p><img src='run_exp/static/images/task_images/time_out.jpg'  height='600' width='auto'></p>",,,,,,,,,,,,,,,,,,,,,,
time_out,19,180150,0.0-8.0-1.0,,1876.4,"<p>If you don't make your choice fast enough, you’ll have to wait a few seconds before you can make another one.</p><p>You can’t dig for more gems or travel to new planets. You just have to sit and wait.</p><br><p><img src='run_exp/static/images/task_images/time_out.jpg'  height='600' width='auto'></p>",,,,,,1,,,,,,,,,,,,,,,,,,
html-keyboard-response,20,180471,0.0-8.0-2.0,,318.9000001,"<p>If you don't make your choice fast enough, you’ll have to wait a few seconds before you can make another one.</p><p>You can’t dig for more gems or travel to new planets. You just have to sit and wait.</p><br><p><img src='run_exp/static/images/task_images/time_out.jpg'  height='600' width='auto'></p><button class=""jspsych-html-btn-unchosen""><img src=""run_exp/static/images/task_images/planet-01.jpg"" height=""50""></button><button class=""jspsych-html-btn-chosen""><img src=""run_exp/static/images/task_images/planet-02.jpg"" height=""50""></button><p><b>[press the space bar to lock in your answer]<b><br></p>",32,,,,,,,,,,,,,,,,,,,,,,,
instruc_break,21,196128,0.0-9.0-0.0,,null,run_exp/static/audio/clip_8_break.m4a,null,"<p> After digging and traveling for a while, you’ll be able to take a break at home base. </p><p>The game will last 20 minutes no matter what.</p><p>You will visit home base every 5 minutes, so, you will visit home base three times during the game.</p><br><p><img src='run_exp/static/images/task_images/home_base.jpg' height='600' width='auto'></p>",,,,,,,,,,,,,,,,,,,,,,
instruc_break,22,197361,0.0-9.0-1.0,,1230.2,"<p> After digging and traveling for a while, you’ll be able to take a break at home base. </p><p>The game will last 20 minutes no matter what.</p><p>You will visit home base every 5 minutes, so, you will visit home base three times during the game.</p><br><p><img src='run_exp/static/images/task_images/home_base.jpg' height='600' width='auto'></p>",,,,,,1,,,,,,,,,,,,,,,,,,
html-keyboard-response,23,197898,0.0-9.0-2.0,,535.4000001,"<p> After digging and traveling for a while, you’ll be able to take a break at home base. </p><p>The game will last 20 minutes no matter what.</p><p>You will visit home base every 5 minutes, so, you will visit home base three times during the game.</p><br><p><img src='run_exp/static/images/task_images/home_base.jpg' height='600' width='auto'></p><button class=""jspsych-html-btn-unchosen""><img src=""run_exp/static/images/task_images/planet-01.jpg"" height=""50""></button><button class=""jspsych-html-btn-chosen""><img src=""run_exp/static/images/task_images/planet-02.jpg"" height=""50""></button><p><b>[press the space bar to lock in your answer]<b><br></p>",32,,,,,,,,,,,,,,,,,,,,,,,
instruc_prac_game,24,208028,0.0-10.0-0.0,,null,run_exp/static/audio/clip_9_practice.m4a,null,"<p> Are you ready to play a practice game? </p> <p>In this practice game, you'll be digging up barrels of gems. But, in the real game, you'll be digging up the gems themselves. </p>",,,,,,,,,,,,,,,,,,,,,,
html-button-response,25,209498,0.0-10.0-1.0,,1469.4,"<p> Are you ready to play a practice game? </p> <p>In this practice game, you'll be digging up barrels of gems. But, in the real game, you'll be digging up the gems themselves. </p>",,,,,,0,,,,,,,,,,,,,,,,,,
alien_welcome_prac,26,214503,0.0-11.0-0.0,,null,run_exp/static/images/task_images/aliens/practice_aliens/planet/alien_planet-5.jpg,null,,,,,,,,,,,,,,,,,,,,,,,
land_prac,27,215018,0.0-11.0-1.0,,null,run_exp/static/images/task_images/land.jpg,null,,,,,,103,,,0,,,,,,,,,,,,,,
dig_prac,28,217027,0.0-11.0-2.0,,,,,,,,,,,"[{""stimulus"":""run_exp/static/images/task_images/dig.jpg"",""time"":0.3000001907348633},{""stimulus"":""run_exp/static/images/task_images/land.jpg"",""time"":679.9000000953674},{""stimulus"":""run_exp/static/images/task_images/dig.jpg"",""time"":1344.5999999046326}]",[],,,,,,,,,,,,,,,
harvest_prac,29,218032,0.0-11.0-3.0,,null,run_exp/static/images/task_images/barrel_text.jpg,null,,,,,,,,,,,,,,,,,,,,,,,
decision_prac,30,219029,0.0-11.0-4.0,,995.5999999,run_exp/static/images/task_images/land.jpg,65,,,,,,,,,,1,,,,,,,,,,,,,
dig_prac,31,221036,0.0-12.0-0.0,,,,,,,,,,,"[{""stimulus"":""run_exp/static/images/task_images/dig.jpg"",""time"":0.20000028610229492},{""stimulus"":""run_exp/static/images/task_images/land.jpg"",""time"":672.9000000953674},{""stimulus"":""run_exp/static/images/task_images/dig.jpg"",""time"":1337.8000001907349}]",[],,,,,,,,,,,,,,,
harvest_prac,32,222045,0.0-12.0-1.0,,null,run_exp/static/images/task_images/barrel_text.jpg,null,,,,,,,,,,,,,,,,,,,,,,,
decision_prac,33,222770,0.0-12.0-2.0,,724.7999997,run_exp/static/images/task_images/land.jpg,65,,,,,,,,,,2,,,,,,,,,,,,,
dig_prac,34,224780,0.0-13.0-0.0,,,,,,,,,,,"[{""stimulus"":""run_exp/static/images/task_images/dig.jpg"",""time"":0.09999990463256836},{""stimulus"":""run_exp/static/images/task_images/land.jpg"",""time"":681.6999998092651},{""stimulus"":""run_exp/static/images/task_images/dig.jpg"",""time"":1343.6999998092651}]",[],,,,,,,,,,,,,,,
harvest_prac,35,225787,0.0-13.0-1.0,,null,run_exp/static/images/task_images/barrel_text.jpg,null,,,,,,,,,,,,,,,,,,,,,,,
decision_prac,36,225973,0.0-13.0-2.0,,185.5,run_exp/static/images/task_images/land.jpg,65,,,,,,,,,,3,,,,,,,,,,,,,
dig_prac,37,227983,0.0-14.0-0.0,,,,,,,,,,,"[{""stimulus"":""run_exp/static/images/task_images/dig.jpg"",""time"":0.2999997138977051},{""stimulus"":""run_exp/static/images/task_images/land.jpg"",""time"":674},{""stimulus"":""run_exp/static/images/task_images/dig.jpg"",""time"":1339.0999999046326}]",[],,,,,,,,,,,,,,,
harvest_prac,38,228988,0.0-14.0-1.0,,null,run_exp/static/images/task_images/barrel_text.jpg,null,,,,,,,,,,,,,,,,,,,,,,,
decision_prac,39,229383,0.0-14.0-2.0,,393.1999998,run_exp/static/images/task_images/land.jpg,65,,,,,,,,,,4,,,,,,,,,,,,,
dig_prac,40,231402,0.0-15.0-0.0,,,,,,,,,,,"[{""stimulus"":""run_exp/static/images/task_images/dig.jpg"",""time"":0.40000009536743164},{""stimulus"":""run_exp/static/images/task_images/land.jpg"",""time"":683.5},{""stimulus"":""run_exp/static/images/task_images/dig.jpg"",""time"":1347.3000001907349}]",[],,,,,,,,,,,,,,,
harvest_prac,41,232405,0.0-15.0-1.0,,null,run_exp/static/images/task_images/barrel_text.jpg,null,,,,,,,,,,,,,,,,,,,,,,,
decision_prac,42,232583,0.0-15.0-2.0,,177.5,run_exp/static/images/task_images/land.jpg,65,,,,,,,,,,,1,,,,,,,,,,,,
quiz_instruc,43,235768,0.0-16.0-0.0,,3179.9,run_exp/static/audio/clip_10_quiz.m4a,,,,,,0,,,,,,,,,,,,,,,,,,
instruc_repeat,44,278549,0.0-16.0-1.0,,null,"<p> Are you ready to play a practice game? </p> <p>In this practice game, you'll be digging up barrels of gems. But, in the real game, you'll be digging up the gems themselves. </p>",null,"<p>In this game, your goal is to collect as many gems as you can. That’s how you will win bonus money. </p> <p>The entire game will last 20 minutes no matter how many gems you collect or how many planets you visit. </p><p>To stay on a planet and dig again, press the letter A on your keyboard. To leave for a new planet, press the letter L.</p><p>The more you dig on a planet, the fewer gems you’ll get with each dig which is why you might consider leaving for a new planet. </p><p>When you arrive at a new planet, you’ll be greeted by an alien. What the alien looks like does not tell you anything about how much treasure is on the planet. </p>",,,,,,,,,,,,,,,,,,,,,,
instruc_repeat_continue,45,280885,0.0-16.0-2.0,,2334.3,"<p> Are you ready to play a practice game? </p> <p>In this practice game, you'll be digging up barrels of gems. But, in the real game, you'll be digging up the gems themselves. </p>",,,,,,0,,,,,,,,,,,,,,,,,,
quiz_q_1_ask,46,284564,0.0-16.0-3.0,,3677.4,run_exp/static/audio/clip_11_q1_ask.m4a,,,,,,2,,,,,,,,,,,,,,,,,,
quiz_q_1_fb_correct,47,288407,0.0-17.0-0.0,,null,run_exp/static/audio/clip_12_q1_corrrect.m4a,null,<p>That’s correct. You win extra money by collecting more gems.</p>,,,,,,,,,,,,,,,,,,,,,,
quiz_q_2_ask,48,293546,0.0-17.0-1.0,,5137,run_exp/static/audio/clip_14_q2_ask.m4a,,,,,,1,,,,,,,,,,,,,,,,,,
quiz_q_2_fb_correct,49,297545,0.0-18.0-0.0,,null,run_exp/static/audio/clip_15_q2_correct.m4a,null,<p>That’s correct. The experiment is 20 minutes no matter what.</p>,,,,,,,,,,,,,,,,,,,,,,
quiz_q_3_ask,50,300592,0.0-18.0-1.0,,3045.7,run_exp/static/audio/clip_17_q3_ask.m4a,,,,,,1,,,,,,,,,,,,,,,,,,
quiz_q_3_fb_correct,51,304586,0.0-19.0-0.0,,null,run_exp/static/audio/clip_18_q3_correct.m4a,null,<p> That’s correct. You press the letter L to travel to a new planet.</p>,,,,,,,,,,,,,,,,,,,,,,
quiz_q_4_ask,52,309217,0.0-19.0-1.0,,4629.9,run_exp/static/audio/clip_20_q4_ask.m4a,,,,,,0,,,,,,,,,,,,,,,,,,
quiz_q_4_fb_correct,53,314545,0.0-20.0-0.0,,null,run_exp/static/audio/clip_21_q4_correct.m4a,null,<p> That’s correct. The more you dig on a planet the fewer gems you’ll get with each dig. </p>,,,,,,,,,,,,,,,,,,,,,,
quiz_q_5_ask,54,317642,0.0-20.0-1.0,,3093.9,run_exp/static/audio/clip_23_q5_ask.m4a,,,,,,1,,,,,,,,,,,,,,,,,,
quiz_q_5_fb_correct,55,322665,0.0-21.0-0.0,,null,run_exp/static/audio/clip_24_q5_correct.m4a,null,<p> That’s correct. The alien tells you nothing about how much treasure is on the planet.</p>,,,,,,,,,,,,,,,,,,,,,,
quiz_correct,56,326125,0.0-22.0-0.0,,null,run_exp/static/audio/clip_26_correct_quiz.m4a,null,,,,,,,,,,,,,,,,,,,,,,,
quiz_correct_continue,57,342619,0.0-22.0-1.0,,16490.9,<p>Good job! You're now ready to move on to the real game!</p>,,,,,,0,,,,,,,,,,,,,,,,,,
audio-keyboard-response,58,353829,0.0-22.0-2.0,,null,run_exp/static/audio/clip_28_real_game.m4a,null,,,,,,,,,,,,,,,,,,,,,,,
instruc_begin_exp_contine,59,354857,0.0-22.0-3.0,,1026.6,"<p>Now that you know how  to dig for space treasure and travel to new planets,you can start exploring! </p><p>Do you want to go over the instructions again or get started with the real game?</p>",,,,,,1,,,,,,1,,,,,,,,,,,,
alien_welcome,60,359871,0.0-23.0-0.0,,null,run_exp/static/images/task_images/aliens/old_aliens/planet/alien_planet-63.jpg,null,,,,,,,,,,,,63,"63,16,38,62,59,23,43,49,76,80,52,37,27,25,29,32,6,13,7,36,5,55,72,39,4,21,68,78,1,12,67,60,70,11,44,15,61,40,9,14,41,8",,,,,,,,,,
land,61,360383,0.0-23.0-1.0,,null,run_exp/static/images/task_images/land.jpg,null,,,,,,98,,,1,,,,,,,,,,,,,,
dig,62,362394,0.0-23.0-2.0,,,,,,,,,,,"[{""stimulus"":""run_exp/static/images/task_images/dig.jpg"",""time"":0.40000009536743164},{""stimulus"":""run_exp/static/images/task_images/land.jpg"",""time"":675.4000000953674},{""stimulus"":""run_exp/static/images/task_images/dig.jpg"",""time"":1341.7000002861023}]",[],1,,,,,,,,,,,,,,
harvest,63,363401,0.0-23.0-3.0,,null,run_exp/static/images/task_images/gems/98.jpg,null,,,,,,21,,,1,,,,,98,0.214614915,0.214285714,,,,,,,
decision,64,364126,0.0-23.0-4.0,,722.4000001,run_exp/static/images/task_images/land.jpg,65,,,,,,21,,,1,,,,,,,,9268,1,0,FALSE,,,
dig,65,366417,0.0-24.0-0.0,,,,,,,,,,,"[{""stimulus"":""run_exp/static/images/task_images/dig.jpg"",""time"":0.3000001907348633},{""stimulus"":""run_exp/static/images/task_images/land.jpg"",""time"":770.5},{""stimulus"":""run_exp/static/images/task_images/dig.jpg"",""time"":1527.8000001907349}]",[],1,,,,,,,,,,,,,,
harvest,66,367424,0.0-24.0-1.0,,null,run_exp/static/images/task_images/gems/21.jpg,null,,,,,,4,,,1,,,,,21,0.212019104,0.19047619,,,,,,,
decision,67,367570,0.0-24.0-2.0,,145.9000001,run_exp/static/images/task_images/land.jpg,65,,,,,,4,,,1,,,,,,,,12711,1,1,FALSE,,,
dig,68,370433,0.0-25.0-0.0,,,,,,,,,,,"[{""stimulus"":""run_exp/static/images/task_images/dig.jpg"",""time"":0.09999990463256836},{""stimulus"":""run_exp/static/images/task_images/land.jpg"",""time"":966.5999999046326},{""stimulus"":""run_exp/static/images/task_images/dig.jpg"",""time"":1914.4000000953674}]",[],1,,,,,,,,,,,,,,
harvest,69,371441,0.0-25.0-1.0,,null,run_exp/static/images/task_images/gems/4.jpg,null,,,,,,1,,,1,,,,,4,0.332674247,0.25,,,,,,,
decision,70,371991,0.0-25.0-2.0,,549.0999999,run_exp/static/images/task_images/land.jpg,76,,,,,,1,,,1,,,,,,,,17133,1,2,TRUE,,,
travel,71,381450,0.0-26.0-0.0,,,,,,,,,,,"[{""stimulus"":""run_exp/static/images/task_images/rocket-01.jpg"",""time"":0.3000001907348633},{""stimulus"":""run_exp/static/images/task_images/rocket-02.jpg"",""time"":1054.5},{""stimulus"":""run_exp/static/images/task_images/rocket-03.jpg"",""time"":2107.4000000953674},{""stimulus"":""run_exp/static/images/task_images/rocket-04.jpg"",""time"":3156.6000003814697},{""stimulus"":""run_exp/static/images/task_images/rocket-05.jpg"",""time"":4209.60000038147},{""stimulus"":""run_exp/static/images/task_images/rocket-06.jpg"",""time"":5259.200000286102},{""stimulus"":""run_exp/static/images/task_images/rocket-07.jpg"",""time"":6312},{""stimulus"":""run_exp/static/images/task_images/rocket-08.jpg"",""time"":7364.700000286102},{""stimulus"":""run_exp/static/images/task_images/rocket-09.jpg"",""time"":8402.5}]",[],1,,,,,,,,,,,,,,
alien_welcome,72,386466,0.0-26.0-1.0,,null,run_exp/static/images/task_images/aliens/old_aliens/planet/alien_planet-16.jpg,null,,,,,,,,,,,,16,"63,16,38,62,59,23,43,49,76,80,52,37,27,25,29,32,6,13,7,36,5,55,72,39,4,21,68,78,1,12,67,60,70,11,44,15,61,40,9,14,41,8",,,,,,,,,,
land,73,386977,0.0-26.0-2.0,,null,run_exp/static/images/task_images/land.jpg,null,,,,,,95,,,2,,,,,,,,,,,,,,
dig,74,388989,0.0-26.0-3.0,,,,,,,,,,,"[{""stimulus"":""run_exp/static/images/task_images/dig.jpg"",""time"":0.40000009536743164},{""stimulus"":""run_exp/static/images/task_images/land.jpg"",""time"":680.7000002861023},{""stimulus"":""run_exp/static/images/task_images/dig.jpg"",""time"":1347.2000002861023}]",[],2,,,,,,,,,,,,,,
harvest,75,389999,0.0-26.0-4.0,,null,run_exp/static/images/task_images/gems/95.jpg,null,,,,,,16,,,2,,,,,95,0.171827017,0.168421053,,,,,,,
decision,76,390040,0.0-26.0-5.0,,39.4000001,run_exp/static/images/task_images/land.jpg,65,,,,,,16,,,2,,,,,,,,35181,1,0,FALSE,,,
dig,77,393006,0.0-27.0-0.0,,,,,,,,,,,"[{""stimulus"":""run_exp/static/images/task_images/dig.jpg"",""time"":0},{""stimulus"":""run_exp/static/images/task_images/land.jpg"",""time"":997.5},{""stimulus"":""run_exp/static/images/task_images/dig.jpg"",""time"":1975}]",[],2,,,,,,,,,,,,,,
harvest,78,394011,0.0-27.0-1.0,,null,run_exp/static/images/task_images/gems/16.jpg,null,,,,,,2,,,2,,,,,16,0.124713449,0.125,,,,,,,
decision,79,394834,0.0-27.0-2.0,,821.3000002,run_exp/static/images/task_images/land.jpg,76,,,,,,2,,,2,,,,,,,,39975,1,1,TRUE,,,
travel,80,404027,0.0-28.0-0.0,,,,,,,,,,,"[{""stimulus"":""run_exp/static/images/task_images/rocket-01.jpg"",""time"":0.3000001907348633},{""stimulus"":""run_exp/static/images/task_images/rocket-02.jpg"",""time"":1027.3000001907349},{""stimulus"":""run_exp/static/images/task_images/rocket-03.jpg"",""time"":2052.7000002861023},{""stimulus"":""run_exp/static/images/task_images/rocket-04.jpg"",""time"":3059.800000190735},{""stimulus"":""run_exp/static/images/task_images/rocket-05.jpg"",""time"":4084.5},{""stimulus"":""run_exp/static/images/task_images/rocket-06.jpg"",""time"":5105.5},{""stimulus"":""run_exp/static/images/task_images/rocket-07.jpg"",""time"":6128.300000190735},{""stimulus"":""run_exp/static/images/task_images/rocket-08.jpg"",""time"":7148.5},{""stimulus"":""run_exp/static/images/task_images/rocket-09.jpg"",""time"":8168.599999904633}]",[],2,,,,,,,,,,,,,,
alien_welcome,81,409032,0.0-28.0-1.0,,null,run_exp/static/images/task_images/aliens/old_aliens/planet/alien_planet-38.jpg,null,,,,,,,,,,,,38,"63,16,38,62,59,23,43,49,76,80,52,37,27,25,29,32,6,13,7,36,5,55,72,39,4,21,68,78,1,12,67,60,70,11,44,15,61,40,9,14,41,8",,,,,,,,,,
land,82,409545,0.0-28.0-2.0,,null,run_exp/static/images/task_images/land.jpg,null,,,,,,99,,,3,,,,,,,,,,,,,,
dig,83,411561,0.0-28.0-3.0,,,,,,,,,,,"[{""stimulus"":""run_exp/static/images/task_images/dig.jpg"",""time"":0.5},{""stimulus"":""run_exp/static/images/task_images/land.jpg"",""time"":683.6999998092651},{""stimulus"":""run_exp/static/images/task_images/dig.jpg"",""time"":1349.5999999046326}]",[],3,,,,,,,,,,,,,,
harvest,84,412568,0.0-28.0-4.0,,null,run_exp/static/images/task_images/gems/99.jpg,null,,,,,,49,,,3,,,,,99,0.495630858,0.494949495,,,,,,,
decision,85,412637,0.0-28.0-5.0,,67.69999981,run_exp/static/images/task_images/land.jpg,65,,,,,,49,,,3,,,,,,,,57778,1,0,FALSE,,,
dig,86,415577,0.0-29.0-0.0,,,,,,,,,,,"[{""stimulus"":""run_exp/static/images/task_images/dig.jpg"",""time"":0.40000009536743164},{""stimulus"":""run_exp/static/images/task_images/land.jpg"",""time"":981.5},{""stimulus"":""run_exp/static/images/task_images/dig.jpg"",""time"":1958.3000001907349}]",[],3,,,,,,,,,,,,,,
harvest,87,416583,0.0-29.0-1.0,,null,run_exp/static/images/task_images/gems/49.jpg,null,,,,,,24,,,3,,,,,49,0.492466412,0.489795918,,,,,,,
decision,88,416838,0.0-29.0-2.0,,253.2000003,run_exp/static/images/task_images/land.jpg,65,,,,,,24,,,3,,,,,,,,61979,1,1,FALSE,,,
dig,89,419596,0.0-30.0-0.0,,,,,,,,,,,"[{""stimulus"":""run_exp/static/images/task_images/dig.jpg"",""time"":0.3000001907348633},{""stimulus"":""run_exp/static/images/task_images/land.jpg"",""time"":931.1000003814697},{""stimulus"":""run_exp/static/images/task_images/dig.jpg"",""time"":1840}]",[],3,,,,,,,,,,,,,,
harvest,90,420601,0.0-30.0-1.0,,null,run_exp/static/images/task_images/gems/24.jpg,null,,,,,,13,,,3,,,,,24,0.524731525,0.541666667,,,,,,,
decision,91,420737,0.0-30.0-2.0,,134.9000001,run_exp/static/images/task_images/land.jpg,76,,,,,,13,,,3,,,,,,,,65878,1,2,TRUE,,,
travel,92,430616,0.0-31.0-0.0,,,,,,,,,,,"[{""stimulus"":""run_exp/static/images/task_images/rocket-01.jpg"",""time"":0.09999990463256836},{""stimulus"":""run_exp/static/images/task_images/rocket-02.jpg"",""time"":1102.4000000953674},{""stimulus"":""run_exp/static/images/task_images/rocket-03.jpg"",""time"":2198.800000190735},{""stimulus"":""run_exp/static/images/task_images/rocket-04.jpg"",""time"":3301.9000000953674},{""stimulus"":""run_exp/static/images/task_images/rocket-05.jpg"",""time"":4398.700000286102},{""stimulus"":""run_exp/static/images/task_images/rocket-06.jpg"",""time"":5482.900000095367},{""stimulus"":""run_exp/static/images/task_images/rocket-07.jpg"",""time"":6583.700000286102},{""stimulus"":""run_exp/static/images/task_images/rocket-08.jpg"",""time"":7678.900000095367},{""stimulus"":""run_exp/static/images/task_images/rocket-09.jpg"",""time"":8777.900000095367}]",[],3,,,,,,,,,,,,,,
alien_welcome,93,435625,0.0-31.0-1.0,,null,run_exp/static/images/task_images/aliens/old_aliens/planet/alien_planet-62.jpg,null,,,,,,,,,,,,62,"63,16,38,62,59,23,43,49,76,80,52,37,27,25,29,32,6,13,7,36,5,55,72,39,4,21,68,78,1,12,67,60,70,11,44,15,61,40,9,14,41,8",,,,,,,,,,
land,94,436135,0.0-31.0-2.0,,null,run_exp/static/images/task_images/land.jpg,null,,,,,,98,,,4,,,,,,,,,,,,,,
dig,95,438150,0.0-31.0-3.0,,,,,,,,,,,"[{""stimulus"":""run_exp/static/images/task_images/dig.jpg"",""time"":0.40000009536743164},{""stimulus"":""run_exp/static/images/task_images/land.jpg"",""time"":679.8000001907349},{""stimulus"":""run_exp/static/images/task_images/dig.jpg"",""time"":1348.5999999046326}]",[],4,,,,,,,,,,,,,,
harvest,96,439155,0.0-31.0-4.0,,null,run_exp/static/images/task_images/gems/98.jpg,null,,,,,,57,,,4,,,,,98,0.578017631,0.581632653,,,,,,,
decision,97,439452,0.0-31.0-5.0,,295.4000001,run_exp/static/images/task_images/land.jpg,65,,,,,,57,,,4,,,,,,,,84593,1,0,FALSE,,,
dig,98,442167,0.0-32.0-0.0,,,,,,,,,,,"[{""stimulus"":""run_exp/static/images/task_images/dig.jpg"",""time"":0.09999990463256836},{""stimulus"":""run_exp/static/images/task_images/land.jpg"",""time"":909.4000000953674},{""stimulus"":""run_exp/static/images/task_images/dig.jpg"",""time"":1803.7000002861023}]",[],4,,,,,,,,,,,,,,
harvest,99,443172,0.0-32.0-1.0,,null,run_exp/static/images/task_images/gems/57.jpg,null,,,,,,29,,,4,,,,,57,0.500832481,0.50877193,,,,,,,
decision,100,443682,0.0-32.0-2.0,,509,run_exp/static/images/task_images/land.jpg,65,,,,,,29,,,4,,,,,,,,88823,1,1,FALSE,,,
dig,101,446178,0.0-33.0-0.0,,,,,,,,,,,"[{""stimulus"":""run_exp/static/images/task_images/dig.jpg"",""time"":0.40000009536743164},{""stimulus"":""run_exp/static/images/task_images/land.jpg"",""time"":834.4000000953674},{""stimulus"":""run_exp/static/images/task_images/dig.jpg"",""time"":1669.9000000953674}]",[],4,,,,,,,,,,,,,,
harvest,102,447186,0.0-33.0-1.0,,null,run_exp/static/images/task_images/gems/29.jpg,null,,,,,,14,,,4,,,,,29,0.490186923,0.482758621,,,,,,,
decision,103,447208,0.0-33.0-2.0,,21,run_exp/static/images/task_images/land.jpg,76,,,,,,14,,,4,,,,,,,,92349,1,2,TRUE,,,
travel,104,457193,0.0-34.0-0.0,,,,,,,,,,,"[{""stimulus"":""run_exp/static/images/task_images/rocket-01.jpg"",""time"":0.09999990463256836},{""stimulus"":""run_exp/static/images/task_images/rocket-02.jpg"",""time"":1109.6999998092651},{""stimulus"":""run_exp/static/images/task_images/rocket-03.jpg"",""time"":2223.7999997138977},{""stimulus"":""run_exp/static/images/task_images/rocket-04.jpg"",""time"":3339.699999809265},{""stimulus"":""run_exp/static/images/task_images/rocket-05.jpg"",""time"":4438.099999904633},{""stimulus"":""run_exp/static/images/task_images/rocket-06.jpg"",""time"":5551.900000095367},{""stimulus"":""run_exp/static/images/task_images/rocket-07.jpg"",""time"":6650.699999809265},{""stimulus"":""run_exp/static/images/task_images/rocket-08.jpg"",""time"":7766.400000095367},{""stimulus"":""run_exp/static/images/task_images/rocket-09.jpg"",""time"":8866.400000095367}]",[],4,,,,,,,,,,,,,,
alien_welcome,105,462195,0.0-34.0-1.0,,null,run_exp/static/images/task_images/aliens/old_aliens/planet/alien_planet-59.jpg,null,,,,,,,,,,,,59,"63,16,38,62,59,23,43,49,76,80,52,37,27,25,29,32,6,13,7,36,5,55,72,39,4,21,68,78,1,12,67,60,70,11,44,15,61,40,9,14,41,8",,,,,,,,,,
land,106,462704,0.0-34.0-2.0,,null,run_exp/static/images/task_images/land.jpg,null,,,,,,96,,,5,,,,,,,,,,,,,,
dig,107,464712,0.0-34.0-3.0,,,,,,,,,,,"[{""stimulus"":""run_exp/static/images/task_images/dig.jpg"",""time"":0.2999997138977051},{""stimulus"":""run_exp/static/images/task_images/land.jpg"",""time"":675.4000000953674},{""stimulus"":""run_exp/static/images/task_images/dig.jpg"",""time"":1340.6999998092651}]",[],5,,,,,,,,,,,,,,
harvest,108,465718,0.0-34.0-4.0,,null,run_exp/static/images/task_images/gems/96.jpg,null,,,,,,41,,,5,,,,,96,0.427546771,0.427083333,,,,,,,
decision,109,465782,0.0-34.0-5.0,,62.70000029,run_exp/static/images/task_images/land.jpg,65,,,,,,41,,,5,,,,,,,,110924,1,0,FALSE,,,
dig,110,468724,0.0-35.0-0.0,,,,,,,,,,,"[{""stimulus"":""run_exp/static/images/task_images/dig.jpg"",""time"":0.10000038146972656},{""stimulus"":""run_exp/static/images/task_images/land.jpg"",""time"":989.2000002861023},{""stimulus"":""run_exp/static/images/task_images/dig.jpg"",""time"":1964.1000003814697}]",[],5,,,,,,,,,,,,,,
harvest,111,469730,0.0-35.0-1.0,,null,run_exp/static/images/task_images/gems/41.jpg,null,,,,,,20,,,5,,,,,41,0.493139259,0.487804878,,,,,,,
decision,112,470325,0.0-35.0-2.0,,592.5999999,run_exp/static/images/task_images/land.jpg,65,,,,,,20,,,5,,,,,,,,115466,1,1,FALSE,,,
dig,113,472737,0.0-36.0-0.0,,,,,,,,,,,"[{""stimulus"":""run_exp/static/images/task_images/dig.jpg"",""time"":0.20000028610229492},{""stimulus"":""run_exp/static/images/task_images/land.jpg"",""time"":811.0999999046326},{""stimulus"":""run_exp/static/images/task_images/dig.jpg"",""time"":1616.8000001907349}]",[],5,,,,,,,,,,,,,,
harvest,114,473741,0.0-36.0-1.0,,null,run_exp/static/images/task_images/gems/20.jpg,null,,,,,,10,,,5,,,,,20,0.513955941,0.5,,,,,,,
decision,115,474186,0.0-36.0-2.0,,443.7999997,run_exp/static/images/task_images/land.jpg,76,,,,,,10,,,5,,,,,,,,119327,1,2,TRUE,,,
travel,116,483751,0.0-37.0-0.0,,,,,,,,,,,"[{""stimulus"":""run_exp/static/images/task_images/rocket-01.jpg"",""time"":0.3000001907348633},{""stimulus"":""run_exp/static/images/task_images/rocket-02.jpg"",""time"":1073.8000001907349},{""stimulus"":""run_exp/static/images/task_images/rocket-03.jpg"",""time"":2124.699999809265},{""stimulus"":""run_exp/static/images/task_images/rocket-04.jpg"",""time"":3191.699999809265},{""stimulus"":""run_exp/static/images/task_images/rocket-05.jpg"",""time"":4259.5},{""stimulus"":""run_exp/static/images/task_images/rocket-06.jpg"",""time"":5313.800000190735},{""stimulus"":""run_exp/static/images/task_images/rocket-07.jpg"",""time"":6370.099999904633},{""stimulus"":""run_exp/static/images/task_images/rocket-08.jpg"",""time"":7439.699999809265},{""stimulus"":""run_exp/static/images/task_images/rocket-09.jpg"",""time"":8492.599999904633}]",[],5,,,,,,,,,,,,,,
alien_welcome,117,488759,0.0-37.0-1.0,,null,run_exp/static/images/task_images/aliens/old_aliens/planet/alien_planet-23.jpg,null,,,,,,,,,,,,23,"63,16,38,62,59,23,43,49,76,80,52,37,27,25,29,32,6,13,7,36,5,55,72,39,4,21,68,78,1,12,67,60,70,11,44,15,61,40,9,14,41,8",,,,,,,,,,
land,118,489270,0.0-37.0-2.0,,null,run_exp/static/images/task_images/land.jpg,null,,,,,,99,,,6,,,,,,,,,,,,,,
dig,119,491285,0.0-37.0-3.0,,,,,,,,,,,"[{""stimulus"":""run_exp/static/images/task_images/dig.jpg"",""time"":0.40000009536743164},{""stimulus"":""run_exp/static/images/task_images/land.jpg"",""time"":682.1999998092651},{""stimulus"":""run_exp/static/images/task_images/dig.jpg"",""time"":1348.9000000953674}]",[],6,,,,,,,,,,,,,,
harvest,120,492291,0.0-37.0-4.0,,null,run_exp/static/images/task_images/gems/99.jpg,null,,,,,,86,,,6,,,,,99,0.864458112,0.868686869,,,,,,,
decision,121,492588,0.0-37.0-5.0,,295.7999997,run_exp/static/images/task_images/land.jpg,65,,,,,,86,,,6,,,,,,,,137730,1,0,FALSE,,,
dig,122,495303,0.0-38.0-0.0,,,,,,,,,,,"[{""stimulus"":""run_exp/static/images/task_images/dig.jpg"",""time"":0.19999980926513672},{""stimulus"":""run_exp/static/images/task_images/land.jpg"",""time"":914.8999996185303},{""stimulus"":""run_exp/static/images/task_images/dig.jpg"",""time"":1813.5999999046326}]",[],6,,,,,,,,,,,,,,
harvest,123,496310,0.0-38.0-1.0,,null,run_exp/static/images/task_images/gems/86.jpg,null,,,,,,64,,,6,,,,,86,0.740325583,0.744186047,,,,,,,
decision,124,496781,0.0-38.0-2.0,,469.2999997,run_exp/static/images/task_images/land.jpg,65,,,,,,64,,,6,,,,,,,,141922,1,1,FALSE,,,
dig,125,499327,0.0-39.0-0.0,,,,,,,,,,,"[{""stimulus"":""run_exp/static/images/task_images/dig.jpg"",""time"":0.3000001907348633},{""stimulus"":""run_exp/static/images/task_images/land.jpg"",""time"":853.9000000953674},{""stimulus"":""run_exp/static/images/task_images/dig.jpg"",""time"":1693.4000000953674}]",[],6,,,,,,,,,,,,,,
harvest,126,500334,0.0-39.0-1.0,,null,run_exp/static/images/task_images/gems/64.jpg,null,,,,,,52,,,6,,,,,64,0.809104489,0.8125,,,,,,,
decision,127,500836,0.0-39.0-2.0,,499.9000001,run_exp/static/images/task_images/land.jpg,65,,,,,,52,,,6,,,,,,,,145977,1,2,FALSE,,,
dig,128,503352,0.0-40.0-0.0,,,,,,,,,,,"[{""stimulus"":""run_exp/static/images/task_images/dig.jpg"",""time"":0.09999990463256836},{""stimulus"":""run_exp/static/images/task_images/land.jpg"",""time"":834.6999998092651},{""stimulus"":""run_exp/static/images/task_images/dig.jpg"",""time"":1673.9000000953674}]",[],6,,,,,,,,,,,,,,
harvest,129,504356,0.0-40.0-1.0,,null,run_exp/static/images/task_images/gems/52.jpg,null,,,,,,39,,,6,,,,,52,0.759137173,0.75,,,,,,,
decision,130,504429,0.0-40.0-2.0,,71.9000001,run_exp/static/images/task_images/land.jpg,65,,,,,,39,,,6,,,,,,,,149570,1,3,FALSE,,,
dig,131,507365,0.0-41.0-0.0,,,,,,,,,,,"[{""stimulus"":""run_exp/static/images/task_images/dig.jpg"",""time"":0.19999980926513672},{""stimulus"":""run_exp/static/images/task_images/land.jpg"",""time"":989.5999999046326},{""stimulus"":""run_exp/static/images/task_images/dig.jpg"",""time"":1961.9000000953674}]",[],6,,,,,,,,,,,,,,
harvest,132,508370,0.0-41.0-1.0,,null,run_exp/static/images/task_images/gems/39.jpg,null,,,,,,33,,,6,,,,,39,0.841848007,0.846153846,,,,,,,
decision,133,508758,0.0-41.0-2.0,,387.0999999,run_exp/static/images/task_images/land.jpg,65,,,,,,33,,,6,,,,,,,,153900,1,4,FALSE,,,
dig,134,511390,0.0-42.0-0.0,,,,,,,,,,,"[{""stimulus"":""run_exp/static/images/task_images/dig.jpg"",""time"":0.19999980926513672},{""stimulus"":""run_exp/static/images/task_images/land.jpg"",""time"":873.6999998092651},{""stimulus"":""run_exp/static/images/task_images/dig.jpg"",""time"":1757.0999999046326}]",[],6,,,,,,,,,,,,,,
harvest,135,512395,0.0-42.0-1.0,,null,run_exp/static/images/task_images/gems/33.jpg,null,,,,,,28,,,6,,,,,33,0.837541328,0.848484848,,,,,,,
decision,136,513579,0.0-42.0-2.0,,1182.1,run_exp/static/images/task_images/land.jpg,76,,,,,,28,,,6,,,,,,,,158720,1,5,TRUE,,,
travel,137,522413,0.0-43.0-0.0,,,,,,,,,,,"[{""stimulus"":""run_exp/static/images/task_images/rocket-01.jpg"",""time"":0.40000009536743164},{""stimulus"":""run_exp/static/images/task_images/rocket-02.jpg"",""time"":995.2999997138977},{""stimulus"":""run_exp/static/images/task_images/rocket-03.jpg"",""time"":1970.2999997138977},{""stimulus"":""run_exp/static/images/task_images/rocket-04.jpg"",""time"":2948.199999809265},{""stimulus"":""run_exp/static/images/task_images/rocket-05.jpg"",""time"":3924.199999809265},{""stimulus"":""run_exp/static/images/task_images/rocket-06.jpg"",""time"":4898.5},{""stimulus"":""run_exp/static/images/task_images/rocket-07.jpg"",""time"":5884.699999809265},{""stimulus"":""run_exp/static/images/task_images/rocket-08.jpg"",""time"":6863.900000095367},{""stimulus"":""run_exp/static/images/task_images/rocket-09.jpg"",""time"":7839.599999904633}]",[],6,,,,,,,,,,,,,,
alien_welcome,138,527428,0.0-43.0-1.0,,null,run_exp/static/images/task_images/aliens/old_aliens/planet/alien_planet-43.jpg,null,,,,,,,,,,,,43,"63,16,38,62,59,23,43,49,76,80,52,37,27,25,29,32,6,13,7,36,5,55,72,39,4,21,68,78,1,12,67,60,70,11,44,15,61,40,9,14,41,8",,,,,,,,,,
land,139,527940,0.0-43.0-2.0,,null,run_exp/static/images/task_images/land.jpg,null,,,,,,96,,,7,,,,,,,,,,,,,,
dig,140,529956,0.0-43.0-3.0,,,,,,,,,,,"[{""stimulus"":""run_exp/static/images/task_images/dig.jpg"",""time"":0.40000009536743164},{""stimulus"":""run_exp/static/images/task_images/land.jpg"",""time"":679.4000000953674},{""stimulus"":""run_exp/static/images/task_images/dig.jpg"",""time"":1349.4000000953674}]",[],7,,,,,,,,,,,,,,
harvest,141,530965,0.0-43.0-4.0,,null,run_exp/static/images/task_images/gems/96.jpg,null,,,,,,83,,,7,,,,,96,0.863621918,0.864583333,,,,,,,
decision,142,531013,0.0-43.0-5.0,,46.69999981,run_exp/static/images/task_images/land.jpg,65,,,,,,83,,,7,,,,,,,,176154,1,0,FALSE,,,
dig,143,533978,0.0-44.0-0.0,,,,,,,,,,,"[{""stimulus"":""run_exp/static/images/task_images/dig.jpg"",""time"":0.09999990463256836},{""stimulus"":""run_exp/static/images/task_images/land.jpg"",""time"":985.8000001907349},{""stimulus"":""run_exp/static/images/task_images/dig.jpg"",""time"":1974.3000001907349}]",[],7,,,,,,,,,,,,,,
harvest,144,534984,0.0-44.0-1.0,,null,run_exp/static/images/task_images/gems/83.jpg,null,,,,,,65,,,7,,,,,83,0.784556776,0.78313253,,,,,,,
decision,145,535007,0.0-44.0-2.0,,21.0999999,run_exp/static/images/task_images/land.jpg,65,,,,,,65,,,7,,,,,,,,180148,1,1,FALSE,,,
dig,146,538004,0.0-45.0-0.0,,,,,,,,,,,"[{""stimulus"":""run_exp/static/images/task_images/dig.jpg"",""time"":0.3000001907348633},{""stimulus"":""run_exp/static/images/task_images/land.jpg"",""time"":994.6999998092651},{""stimulus"":""run_exp/static/images/task_images/dig.jpg"",""time"":1986.5}]",[],7,,,,,,,,,,,,,,
harvest,147,539006,0.0-45.0-1.0,,null,run_exp/static/images/task_images/gems/65.jpg,null,,,,,,48,,,7,,,,,65,0.744691461,0.738461538,,,,,,,
decision,148,539102,0.0-45.0-2.0,,94.5,run_exp/static/images/task_images/land.jpg,65,,,,,,48,,,7,,,,,,,,184243,1,2,FALSE,,,
dig,149,542024,0.0-46.0-0.0,,,,,,,,,,,"[{""stimulus"":""run_exp/static/images/task_images/dig.jpg"",""time"":0.19999980926513672},{""stimulus"":""run_exp/static/images/task_images/land.jpg"",""time"":983},{""stimulus"":""run_exp/static/images/task_images/dig.jpg"",""time"":1941.0999999046326}]",[],7,,,,,,,,,,,,,,
harvest,150,543030,0.0-46.0-1.0,,null,run_exp/static/images/task_images/gems/48.jpg,null,,,,,,41,,,7,,,,,48,0.851247097,0.854166667,,,,,,,
decision,151,543172,0.0-46.0-2.0,,140.4000001,run_exp/static/images/task_images/land.jpg,65,,,,,,41,,,7,,,,,,,,188313,1,3,FALSE,,,
dig,152,546043,0.0-47.0-0.0,,,,,,,,,,,"[{""stimulus"":""run_exp/static/images/task_images/dig.jpg"",""time"":0.19999980926513672},{""stimulus"":""run_exp/static/images/task_images/land.jpg"",""time"":954.1999998092651},{""stimulus"":""run_exp/static/images/task_images/dig.jpg"",""time"":1911.9000000953674}]",[],7,,,,,,,,,,,,,,
harvest,153,547048,0.0-47.0-1.0,,null,run_exp/static/images/task_images/gems/41.jpg,null,,,,,,32,,,7,,,,,41,0.769925384,0.780487805,,,,,,,
decision,154,547439,0.0-47.0-2.0,,390.1999998,run_exp/static/images/task_images/land.jpg,65,,,,,,32,,,7,,,,,,,,192581,1,4,FALSE,,,
dig,155,550053,0.0-48.0-0.0,,,,,,,,,,,"[{""stimulus"":""run_exp/static/images/task_images/dig.jpg"",""time"":0.20000028610229492},{""stimulus"":""run_exp/static/images/task_images/land.jpg"",""time"":873.0999999046326},{""stimulus"":""run_exp/static/images/task_images/dig.jpg"",""time"":1739.3000001907349}]",[],7,,,,,,,,,,,,,,
harvest,156,551058,0.0-48.0-1.0,,null,run_exp/static/images/task_images/gems/32.jpg,null,,,,,,27,,,7,,,,,32,0.837967656,0.84375,,,,,,,
decision,157,551376,0.0-48.0-2.0,,316.4000001,run_exp/static/images/task_images/land.jpg,76,,,,,,27,,,7,,,,,,,,196517,1,5,TRUE,,,
travel,158,561063,0.0-49.0-0.0,,,,,,,,,,,"[{""stimulus"":""run_exp/static/images/task_images/rocket-01.jpg"",""time"":0.3000001907348633},{""stimulus"":""run_exp/static/images/task_images/rocket-02.jpg"",""time"":1089.9000000953674},{""stimulus"":""run_exp/static/images/task_images/rocket-03.jpg"",""time"":2153.4000000953674},{""stimulus"":""run_exp/static/images/task_images/rocket-04.jpg"",""time"":3237.4000000953674},{""stimulus"":""run_exp/static/images/task_images/rocket-05.jpg"",""time"":4303.800000190735},{""stimulus"":""run_exp/static/images/task_images/rocket-06.jpg"",""time"":5384.400000095367},{""stimulus"":""run_exp/static/images/task_images/rocket-07.jpg"",""time"":6455.200000286102},{""stimulus"":""run_exp/static/images/task_images/rocket-08.jpg"",""time"":7538.60000038147},{""stimulus"":""run_exp/static/images/task_images/rocket-09.jpg"",""time"":8609.700000286102}]",[],7,,,,,,,,,,,,,,
alien_welcome,159,566067,0.0-49.0-1.0,,null,run_exp/static/images/task_images/aliens/old_aliens/planet/alien_planet-49.jpg,null,,,,,,,,,,,,49,"63,16,38,62,59,23,43,49,76,80,52,37,27,25,29,32,6,13,7,36,5,55,72,39,4,21,68,78,1,12,67,60,70,11,44,15,61,40,9,14,41,8",,,,,,,,,,
land,160,566578,0.0-49.0-2.0,,null,run_exp/static/images/task_images/land.jpg,null,,,,,,104,,,8,,,,,,,,,,,,,,
dig,161,568593,0.0-49.0-3.0,,,,,,,,,,,"[{""stimulus"":""run_exp/static/images/task_images/dig.jpg"",""time"":0.3000001907348633},{""stimulus"":""run_exp/static/images/task_images/land.jpg"",""time"":680.4000000953674},{""stimulus"":""run_exp/static/images/task_images/dig.jpg"",""time"":1346.9000000953674}]",[],8,,,,,,,,,,,,,,
harvest,162,569599,0.0-49.0-4.0,,null,run_exp/static/images/task_images/gems/104.jpg,null,,,,,,82,,,8,,,,,104,0.786492906,0.788461538,,,,,,,
decision,163,569712,0.0-49.0-5.0,,110.6999998,run_exp/static/images/task_images/land.jpg,65,,,,,,82,,,8,,,,,,,,214853,1,0,FALSE,,,
dig,164,572613,0.0-50.0-0.0,,,,,,,,,,,"[{""stimulus"":""run_exp/static/images/task_images/dig.jpg"",""time"":0.3000001907348633},{""stimulus"":""run_exp/static/images/task_images/land.jpg"",""time"":965.6999998092651},{""stimulus"":""run_exp/static/images/task_images/dig.jpg"",""time"":1936.6999998092651}]",[],8,,,,,,,,,,,,,,
harvest,165,573615,0.0-50.0-1.0,,null,run_exp/static/images/task_images/gems/82.jpg,null,,,,,,67,,,8,,,,,82,0.81184452,0.817073171,,,,,,,
decision,166,573674,0.0-50.0-2.0,,56.89999962,run_exp/static/images/task_images/land.jpg,65,,,,,,67,,,8,,,,,,,,218815,1,1,FALSE,,,
dig,167,576623,0.0-51.0-0.0,,,,,,,,,,,"[{""stimulus"":""run_exp/static/images/task_images/dig.jpg"",""time"":0.19999980926513672},{""stimulus"":""run_exp/static/images/task_images/land.jpg"",""time"":990.0999999046326},{""stimulus"":""run_exp/static/images/task_images/dig.jpg"",""time"":1967.9000000953674}]",[],8,,,,,,,,,,,,,,
harvest,168,577631,0.0-51.0-1.0,,null,run_exp/static/images/task_images/gems/67.jpg,null,,,,,,56,,,8,,,,,67,0.829135467,0.835820896,,,,,,,
decision,169,577651,0.0-51.0-2.0,,18,run_exp/static/images/task_images/land.jpg,65,,,,,,56,,,8,,,,,,,,222792,1,2,FALSE,,,
dig,170,580650,0.0-52.0-0.0,,,,,,,,,,,"[{""stimulus"":""run_exp/static/images/task_images/dig.jpg"",""time"":0.20000028610229492},{""stimulus"":""run_exp/static/images/task_images/land.jpg"",""time"":1008.1000003814697},{""stimulus"":""run_exp/static/images/task_images/dig.jpg"",""time"":2000.1000003814697}]",[],8,,,,,,,,,,,,,,
harvest,171,581658,0.0-52.0-1.0,,null,run_exp/static/images/task_images/gems/56.jpg,null,,,,,,44,,,8,,,,,56,0.792527376,0.785714286,,,,,,,
decision,172,581727,0.0-52.0-2.0,,66.5999999,run_exp/static/images/task_images/land.jpg,65,,,,,,44,,,8,,,,,,,,226868,1,3,FALSE,,,
dig,173,584675,0.0-53.0-0.0,,,,,,,,,,,"[{""stimulus"":""run_exp/static/images/task_images/dig.jpg"",""time"":0.3000001907348633},{""stimulus"":""run_exp/static/images/task_images/land.jpg"",""time"":991.8000001907349},{""stimulus"":""run_exp/static/images/task_images/dig.jpg"",""time"":1966.3000001907349}]",[],8,,,,,,,,,,,,,,
harvest,174,585679,0.0-53.0-1.0,,null,run_exp/static/images/task_images/gems/44.jpg,null,,,,,,34,,,8,,,,,44,0.77691326,0.772727273,,,,,,,
decision,175,585681,0.0-53.0-2.0,,1.400000095,run_exp/static/images/task_images/land.jpg,65,,,,,,34,,,8,,,,,,,,230822,1,4,FALSE,,,
dig,176,588688,0.0-54.0-0.0,,,,,,,,,,,"[{""stimulus"":""run_exp/static/images/task_images/dig.jpg"",""time"":0.19999980926513672},{""stimulus"":""run_exp/static/images/task_images/land.jpg"",""time"":1004.3000001907349},{""stimulus"":""run_exp/static/images/task_images/dig.jpg"",""time"":2009.9000000953674}]",[],8,,,,,,,,,,,,,,
harvest,177,589693,0.0-54.0-1.0,,null,run_exp/static/images/task_images/gems/34.jpg,null,,,,,,26,,,8,,,,,34,0.754220691,0.764705882,,,,,,,
decision,178,590145,0.0-54.0-2.0,,450.4000001,run_exp/static/images/task_images/land.jpg,76,,,,,,26,,,8,,,,,,,,235286,1,5,TRUE,,,
travel,179,599703,0.0-55.0-0.0,,,,,,,,,,,"[{""stimulus"":""run_exp/static/images/task_images/rocket-01.jpg"",""time"":0.10000038146972656},{""stimulus"":""run_exp/static/images/task_images/rocket-02.jpg"",""time"":1066.2000002861023},{""stimulus"":""run_exp/static/images/task_images/rocket-03.jpg"",""time"":2133.4000000953674},{""stimulus"":""run_exp/static/images/task_images/rocket-04.jpg"",""time"":3185.9000000953674},{""stimulus"":""run_exp/static/images/task_images/rocket-05.jpg"",""time"":4254.10000038147},{""stimulus"":""run_exp/static/images/task_images/rocket-06.jpg"",""time"":5320.800000190735},{""stimulus"":""run_exp/static/images/task_images/rocket-07.jpg"",""time"":6371.900000095367},{""stimulus"":""run_exp/static/images/task_images/rocket-08.jpg"",""time"":7437.800000190735},{""stimulus"":""run_exp/static/images/task_images/rocket-09.jpg"",""time"":8504.300000190735}]",[],8,,,,,,,,,,,,,,
alien_welcome,180,604712,0.0-55.0-1.0,,null,run_exp/static/images/task_images/aliens/old_aliens/planet/alien_planet-76.jpg,null,,,,,,,,,,,,76,"63,16,38,62,59,23,43,49,76,80,52,37,27,25,29,32,6,13,7,36,5,55,72,39,4,21,68,78,1,12,67,60,70,11,44,15,61,40,9,14,41,8",,,,,,,,,,
land,181,605223,0.0-55.0-2.0,,null,run_exp/static/images/task_images/land.jpg,null,,,,,,102,,,9,,,,,,,,,,,,,,
dig,182,607241,0.0-55.0-3.0,,,,,,,,,,,"[{""stimulus"":""run_exp/static/images/task_images/dig.jpg"",""time"":0.3000001907348633},{""stimulus"":""run_exp/static/images/task_images/land.jpg"",""time"":681},{""stimulus"":""run_exp/static/images/task_images/dig.jpg"",""time"":1347.4000000953674}]",[],9,,,,,,,,,,,,,,
harvest,183,608246,0.0-55.0-4.0,,null,run_exp/static/images/task_images/gems/102.jpg,null,,,,,,24,,,9,,,,,102,0.231162514,0.235294118,,,,,,,
decision,184,608340,0.0-55.0-5.0,,92.30000019,run_exp/static/images/task_images/land.jpg,65,,,,,,24,,,9,,,,,,,,253482,1,0,FALSE,,,
dig,185,611262,0.0-56.0-0.0,,,,,,,,,,,"[{""stimulus"":""run_exp/static/images/task_images/dig.jpg"",""time"":0.2999997138977051},{""stimulus"":""run_exp/static/images/task_images/land.jpg"",""time"":971.5},{""stimulus"":""run_exp/static/images/task_images/dig.jpg"",""time"":1944.7999997138977}]",[],9,,,,,,,,,,,,,,
harvest,186,612270,0.0-56.0-1.0,,null,run_exp/static/images/task_images/gems/24.jpg,null,,,,,,5,,,9,,,,,24,0.207101442,0.208333333,,,,,,,
decision,187,612569,0.0-56.0-2.0,,297.4000001,run_exp/static/images/task_images/land.jpg,76,,,,,,5,,,9,,,,,,,,257710,1,1,TRUE,,,
travel,188,622276,0.0-57.0-0.0,,,,,,,,,,,"[{""stimulus"":""run_exp/static/images/task_images/rocket-01.jpg"",""time"":0.10000038146972656},{""stimulus"":""run_exp/static/images/task_images/rocket-02.jpg"",""time"":1092.1000003814697},{""stimulus"":""run_exp/static/images/task_images/rocket-03.jpg"",""time"":2158.1000003814697},{""stimulus"":""run_exp/static/images/task_images/rocket-04.jpg"",""time"":3241.1000003814697},{""stimulus"":""run_exp/static/images/task_images/rocket-05.jpg"",""time"":4325.200000286102},{""stimulus"":""run_exp/static/images/task_images/rocket-06.jpg"",""time"":5405.800000190735},{""stimulus"":""run_exp/static/images/task_images/rocket-07.jpg"",""time"":6473},{""stimulus"":""run_exp/static/images/task_images/rocket-08.jpg"",""time"":7559.300000190735},{""stimulus"":""run_exp/static/images/task_images/rocket-09.jpg"",""time"":8639}]",[],9,,,,,,,,,,,,,,
alien_welcome,189,627289,0.0-57.0-1.0,,null,run_exp/static/images/task_images/aliens/old_aliens/planet/alien_planet-80.jpg,null,,,,,,,,,,,,80,"63,16,38,62,59,23,43,49,76,80,52,37,27,25,29,32,6,13,7,36,5,55,72,39,4,21,68,78,1,12,67,60,70,11,44,15,61,40,9,14,41,8",,,,,,,,,,
land,190,627803,0.0-57.0-2.0,,null,run_exp/static/images/task_images/land.jpg,null,,,,,,102,,,10,,,,,,,,,,,,,,
dig,191,629815,0.0-57.0-3.0,,,,,,,,,,,"[{""stimulus"":""run_exp/static/images/task_images/dig.jpg"",""time"":0.3000001907348633},{""stimulus"":""run_exp/static/images/task_images/land.jpg"",""time"":681.8000001907349},{""stimulus"":""run_exp/static/images/task_images/dig.jpg"",""time"":1347}]",[],10,,,,,,,,,,,,,,
harvest,192,630821,0.0-57.0-4.0,,null,run_exp/static/images/task_images/gems/102.jpg,null,,,,,,23,,,10,,,,,102,0.226333718,0.225490196,,,,,,,
decision,193,630856,0.0-57.0-5.0,,33.29999971,run_exp/static/images/task_images/land.jpg,65,,,,,,23,,,10,,,,,,,,275997,1,0,FALSE,,,
dig,194,633835,0.0-58.0-0.0,,,,,,,,,,,"[{""stimulus"":""run_exp/static/images/task_images/dig.jpg"",""time"":0.09999990463256836},{""stimulus"":""run_exp/static/images/task_images/land.jpg"",""time"":999.8000001907349},{""stimulus"":""run_exp/static/images/task_images/dig.jpg"",""time"":1991.1999998092651}]",[],10,,,,,,,,,,,,,,
harvest,195,634838,0.0-58.0-1.0,,null,run_exp/static/images/task_images/gems/23.jpg,null,,,,,,3,,,10,,,,,23,0.144658097,0.130434783,,,,,,,
decision,196,634879,0.0-58.0-2.0,,39.10000038,run_exp/static/images/task_images/land.jpg,76,,,,,,3,,,10,,,,,,,,280020,1,1,TRUE,,,
travel,197,644853,0.0-59.0-0.0,,,,,,,,,,,"[{""stimulus"":""run_exp/static/images/task_images/rocket-01.jpg"",""time"":0.20000028610229492},{""stimulus"":""run_exp/static/images/task_images/rocket-02.jpg"",""time"":1113.6000003814697},{""stimulus"":""run_exp/static/images/task_images/rocket-03.jpg"",""time"":2215.7000002861023},{""stimulus"":""run_exp/static/images/task_images/rocket-04.jpg"",""time"":3328.2000002861023},{""stimulus"":""run_exp/static/images/task_images/rocket-05.jpg"",""time"":4429.200000286102},{""stimulus"":""run_exp/static/images/task_images/rocket-06.jpg"",""time"":5544.10000038147},{""stimulus"":""run_exp/static/images/task_images/rocket-07.jpg"",""time"":6645.60000038147},{""stimulus"":""run_exp/static/images/task_images/rocket-08.jpg"",""time"":7757},{""stimulus"":""run_exp/static/images/task_images/rocket-09.jpg"",""time"":8852.300000190735}]",[],10,,,,,,,,,,,,,,
alien_welcome,198,649869,0.0-59.0-1.0,,null,run_exp/static/images/task_images/aliens/old_aliens/planet/alien_planet-52.jpg,null,,,,,,,,,,,,52,"63,16,38,62,59,23,43,49,76,80,52,37,27,25,29,32,6,13,7,36,5,55,72,39,4,21,68,78,1,12,67,60,70,11,44,15,61,40,9,14,41,8",,,,,,,,,,
land,199,650380,0.0-59.0-2.0,,null,run_exp/static/images/task_images/land.jpg,null,,,,,,90,,,11,,,,,,,,,,,,,,
dig,200,652391,0.0-59.0-3.0,,,,,,,,,,,"[{""stimulus"":""run_exp/static/images/task_images/dig.jpg"",""time"":0.40000009536743164},{""stimulus"":""run_exp/static/images/task_images/land.jpg"",""time"":679.5},{""stimulus"":""run_exp/static/images/task_images/dig.jpg"",""time"":1345.0999999046326}]",[],11,,,,,,,,,,,,,,
harvest,201,653393,0.0-59.0-4.0,,null,run_exp/static/images/task_images/gems/90.jpg,null,,,,,,17,,,11,,,,,90,0.191408057,0.188888889,,,,,,,
decision,202,653454,0.0-59.0-5.0,,59.5999999,run_exp/static/images/task_images/land.jpg,65,,,,,,17,,,11,,,,,,,,298595,1,0,FALSE,,,
dig,203,656397,0.0-60.0-0.0,,,,,,,,,,,"[{""stimulus"":""run_exp/static/images/task_images/dig.jpg"",""time"":0.09999990463256836},{""stimulus"":""run_exp/static/images/task_images/land.jpg"",""time"":994.5},{""stimulus"":""run_exp/static/images/task_images/dig.jpg"",""time"":1969.0999999046326}]",[],11,,,,,,,,,,,,,,
harvest,204,657406,0.0-60.0-1.0,,null,run_exp/static/images/task_images/gems/17.jpg,null,,,,,,3,,,11,,,,,17,0.181396906,0.176470588,,,,,,,
decision,205,657661,0.0-60.0-2.0,,253.5,run_exp/static/images/task_images/land.jpg,76,,,,,,3,,,11,,,,,,,,302802,1,1,TRUE,,,
end_of_block_continue,206,665886,0.0-61.0-0.0,,8217.7,run_exp/static/audio/clip_32_block_end.m4a,,,,,,0,,,,,,,,,,,,,,,,,,
alien_welcome,207,670896,0.0-62.0-0.0,,null,run_exp/static/images/task_images/aliens/old_aliens/planet/alien_planet-37.jpg,null,,,,,,,,,,,,37,"63,16,38,62,59,23,43,49,76,80,52,37,27,25,29,32,6,13,7,36,5,55,72,39,4,21,68,78,1,12,67,60,70,11,44,15,61,40,9,14,41,8",,,,,,,,,,
land,208,671403,0.0-62.0-1.0,,null,run_exp/static/images/task_images/land.jpg,null,,,,,,93,,,12,,,,,,,,,,,,,,
dig,209,673410,0.0-62.0-2.0,,,,,,,,,,,"[{""stimulus"":""run_exp/static/images/task_images/dig.jpg"",""time"":0.3000001907348633},{""stimulus"":""run_exp/static/images/task_images/land.jpg"",""time"":678.0999999046326},{""stimulus"":""run_exp/static/images/task_images/dig.jpg"",""time"":1342}]",[],12,,,,,,,,,,,,,,
harvest,210,674415,0.0-62.0-3.0,,null,run_exp/static/images/task_images/gems/93.jpg,null,,,,,,13,,,12,,,,,93,0.14511313,0.139784946,,,,,,,
decision,211,674563,0.0-62.0-4.0,,146.3000002,run_exp/static/images/task_images/land.jpg,65,,,,,,13,,,12,,,,,,,,8673,2,0,FALSE,,,
dig,212,677433,0.0-63.0-0.0,,,,,,,,,,,"[{""stimulus"":""run_exp/static/images/task_images/dig.jpg"",""time"":0.40000009536743164},{""stimulus"":""run_exp/static/images/task_images/land.jpg"",""time"":960.8000001907349},{""stimulus"":""run_exp/static/images/task_images/dig.jpg"",""time"":1919.4000000953674}]",[],12,,,,,,,,,,,,,,
harvest,213,678437,0.0-63.0-1.0,,null,run_exp/static/images/task_images/gems/13.jpg,null,,,,,,3,,,12,,,,,13,0.223157486,0.230769231,,,,,,,
decision,214,678488,0.0-63.0-2.0,,50.20000029,run_exp/static/images/task_images/land.jpg,76,,,,,,3,,,12,,,,,,,,12598,2,1,TRUE,,,
travel,215,688450,0.0-64.0-0.0,,,,,,,,,,,"[{""stimulus"":""run_exp/static/images/task_images/rocket-01.jpg"",""time"":0.20000028610229492},{""stimulus"":""run_exp/static/images/task_images/rocket-02.jpg"",""time"":1109},{""stimulus"":""run_exp/static/images/task_images/rocket-03.jpg"",""time"":2222.800000190735},{""stimulus"":""run_exp/static/images/task_images/rocket-04.jpg"",""time"":3318.5999999046326},{""stimulus"":""run_exp/static/images/task_images/rocket-05.jpg"",""time"":4428.599999904633},{""stimulus"":""run_exp/static/images/task_images/rocket-06.jpg"",""time"":5526},{""stimulus"":""run_exp/static/images/task_images/rocket-07.jpg"",""time"":6640.200000286102},{""stimulus"":""run_exp/static/images/task_images/rocket-08.jpg"",""time"":7741.5},{""stimulus"":""run_exp/static/images/task_images/rocket-09.jpg"",""time"":8845.5}]",[],12,,,,,,,,,,,,,,
alien_welcome,216,693459,0.0-64.0-1.0,,null,run_exp/static/images/task_images/aliens/old_aliens/planet/alien_planet-27.jpg,null,,,,,,,,,,,,27,"63,16,38,62,59,23,43,49,76,80,52,37,27,25,29,32,6,13,7,36,5,55,72,39,4,21,68,78,1,12,67,60,70,11,44,15,61,40,9,14,41,8",,,,,,,,,,
land,217,693970,0.0-64.0-2.0,,null,run_exp/static/images/task_images/land.jpg,null,,,,,,100,,,13,,,,,,,,,,,,,,
dig,218,695981,0.0-64.0-3.0,,,,,,,,,,,"[{""stimulus"":""run_exp/static/images/task_images/dig.jpg"",""time"":0.09999990463256836},{""stimulus"":""run_exp/static/images/task_images/land.jpg"",""time"":680.9000000953674},{""stimulus"":""run_exp/static/images/task_images/dig.jpg"",""time"":1345.4000000953674}]",[],13,,,,,,,,,,,,,,
harvest,219,696984,0.0-64.0-4.0,,null,run_exp/static/images/task_images/gems/100.jpg,null,,,,,,18,,,13,,,,,100,0.181117626,0.18,,,,,,,
decision,220,697174,0.0-64.0-5.0,,188.5999999,run_exp/static/images/task_images/land.jpg,65,,,,,,18,,,13,,,,,,,,31283,2,0,FALSE,,,
dig,221,700006,0.0-65.0-0.0,,,,,,,,,,,"[{""stimulus"":""run_exp/static/images/task_images/dig.jpg"",""time"":0.09999990463256836},{""stimulus"":""run_exp/static/images/task_images/land.jpg"",""time"":952.5999999046326},{""stimulus"":""run_exp/static/images/task_images/dig.jpg"",""time"":1881.7999997138977}]",[],13,,,,,,,,,,,,,,
harvest,222,701009,0.0-65.0-1.0,,null,run_exp/static/images/task_images/gems/18.jpg,null,,,,,,5,,,13,,,,,18,0.259168978,0.277777778,,,,,,,
decision,223,701076,0.0-65.0-2.0,,66.0999999,run_exp/static/images/task_images/land.jpg,76,,,,,,5,,,13,,,,,,,,35185,2,1,TRUE,,,
travel,224,711026,0.0-66.0-0.0,,,,,,,,,,,"[{""stimulus"":""run_exp/static/images/task_images/rocket-01.jpg"",""time"":0.2999997138977051},{""stimulus"":""run_exp/static/images/task_images/rocket-02.jpg"",""time"":1114.2999997138977},{""stimulus"":""run_exp/static/images/task_images/rocket-03.jpg"",""time"":2212.4000000953674},{""stimulus"":""run_exp/static/images/task_images/rocket-04.jpg"",""time"":3312.199999809265},{""stimulus"":""run_exp/static/images/task_images/rocket-05.jpg"",""time"":4426.5},{""stimulus"":""run_exp/static/images/task_images/rocket-06.jpg"",""time"":5520.699999809265},{""stimulus"":""run_exp/static/images/task_images/rocket-07.jpg"",""time"":6633.299999713898},{""stimulus"":""run_exp/static/images/task_images/rocket-08.jpg"",""time"":7729.400000095367},{""stimulus"":""run_exp/static/images/task_images/rocket-09.jpg"",""time"":8828.400000095367}]",[],13,,,,,,,,,,,,,,
alien_welcome,225,716035,0.0-66.0-1.0,,null,run_exp/static/images/task_images/aliens/old_aliens/planet/alien_planet-25.jpg,null,,,,,,,,,,,,25,"63,16,38,62,59,23,43,49,76,80,52,37,27,25,29,32,6,13,7,36,5,55,72,39,4,21,68,78,1,12,67,60,70,11,44,15,61,40,9,14,41,8",,,,,,,,,,
land,226,716547,0.0-66.0-2.0,,null,run_exp/static/images/task_images/land.jpg,null,,,,,,97,,,14,,,,,,,,,,,,,,
dig,227,718562,0.0-66.0-3.0,,,,,,,,,,,"[{""stimulus"":""run_exp/static/images/task_images/dig.jpg"",""time"":0.09999990463256836},{""stimulus"":""run_exp/static/images/task_images/land.jpg"",""time"":668.5999999046326},{""stimulus"":""run_exp/static/images/task_images/dig.jpg"",""time"":1350}]",[],14,,,,,,,,,,,,,,
harvest,228,719567,0.0-66.0-4.0,,null,run_exp/static/images/task_images/gems/97.jpg,null,,,,,,11,,,14,,,,,97,0.115232487,0.113402062,,,,,,,
decision,229,719696,0.0-66.0-5.0,,127.7000003,run_exp/static/images/task_images/land.jpg,65,,,,,,11,,,14,,,,,,,,53805,2,0,FALSE,,,
dig,230,722579,0.0-67.0-0.0,,,,,,,,,,,"[{""stimulus"":""run_exp/static/images/task_images/dig.jpg"",""time"":0.40000009536743164},{""stimulus"":""run_exp/static/images/task_images/land.jpg"",""time"":959.3000001907349},{""stimulus"":""run_exp/static/images/task_images/dig.jpg"",""time"":1916.4000000953674}]",[],14,,,,,,,,,,,,,,
harvest,231,723587,0.0-67.0-1.0,,null,run_exp/static/images/task_images/gems/11.jpg,null,,,,,,2,,,14,,,,,11,0.213610954,0.181818182,,,,,,,
decision,232,723717,0.0-67.0-2.0,,128.9000001,run_exp/static/images/task_images/land.jpg,76,,,,,,2,,,14,,,,,,,,57826,2,1,TRUE,,,
travel,233,733602,0.0-68.0-0.0,,,,,,,,,,,"[{""stimulus"":""run_exp/static/images/task_images/rocket-01.jpg"",""time"":0.3000001907348633},{""stimulus"":""run_exp/static/images/task_images/rocket-02.jpg"",""time"":1103.9000000953674},{""stimulus"":""run_exp/static/images/task_images/rocket-03.jpg"",""time"":2207.6000003814697},{""stimulus"":""run_exp/static/images/task_images/rocket-04.jpg"",""time"":3293.4000000953674},{""stimulus"":""run_exp/static/images/task_images/rocket-05.jpg"",""time"":4392.700000286102},{""stimulus"":""run_exp/static/images/task_images/rocket-06.jpg"",""time"":5487.800000190735},{""stimulus"":""run_exp/static/images/task_images/rocket-07.jpg"",""time"":6590.60000038147},{""stimulus"":""run_exp/static/images/task_images/rocket-08.jpg"",""time"":7687.300000190735},{""stimulus"":""run_exp/static/images/task_images/rocket-09.jpg"",""time"":8781.800000190735}]",[],14,,,,,,,,,,,,,,
alien_welcome,234,738618,0.0-68.0-1.0,,null,run_exp/static/images/task_images/aliens/old_aliens/planet/alien_planet-29.jpg,null,,,,,,,,,,,,29,"63,16,38,62,59,23,43,49,76,80,52,37,27,25,29,32,6,13,7,36,5,55,72,39,4,21,68,78,1,12,67,60,70,11,44,15,61,40,9,14,41,8",,,,,,,,,,
land,235,739129,0.0-68.0-2.0,,null,run_exp/static/images/task_images/land.jpg,null,,,,,,99,,,15,,,,,,,,,,,,,,
dig,236,741143,0.0-68.0-3.0,,,,,,,,,,,"[{""stimulus"":""run_exp/static/images/task_images/dig.jpg"",""time"":0.39999961853027344},{""stimulus"":""run_exp/static/images/task_images/land.jpg"",""time"":679.0999999046326},{""stimulus"":""run_exp/static/images/task_images/dig.jpg"",""time"":1344}]",[],15,,,,,,,,,,,,,,
harvest,237,742150,0.0-68.0-4.0,,null,run_exp/static/images/task_images/gems/99.jpg,null,,,,,,81,,,15,,,,,99,0.816271483,0.818181818,,,,,,,
decision,238,742173,0.0-68.0-5.0,,21.0999999,run_exp/static/images/task_images/land.jpg,65,,,,,,81,,,15,,,,,,,,76282,2,0,FALSE,,,
dig,239,745169,0.0-69.0-0.0,,,,,,,,,,,"[{""stimulus"":""run_exp/static/images/task_images/dig.jpg"",""time"":0.19999980926513672},{""stimulus"":""run_exp/static/images/task_images/land.jpg"",""time"":1006},{""stimulus"":""run_exp/static/images/task_images/dig.jpg"",""time"":1999.7999997138977}]",[],15,,,,,,,,,,,,,,
harvest,240,746176,0.0-69.0-1.0,,null,run_exp/static/images/task_images/gems/81.jpg,null,,,,,,62,,,15,,,,,81,0.76843325,0.765432099,,,,,,,
decision,241,746230,0.0-69.0-2.0,,52.30000019,run_exp/static/images/task_images/land.jpg,65,,,,,,62,,,15,,,,,,,,80339,2,1,FALSE,,,
dig,242,749191,0.0-70.0-0.0,,,,,,,,,,,"[{""stimulus"":""run_exp/static/images/task_images/dig.jpg"",""time"":0.09999990463256836},{""stimulus"":""run_exp/static/images/task_images/land.jpg"",""time"":997.5},{""stimulus"":""run_exp/static/images/task_images/dig.jpg"",""time"":1969.5}]",[],15,,,,,,,,,,,,,,
harvest,243,750194,0.0-70.0-1.0,,null,run_exp/static/images/task_images/gems/62.jpg,null,,,,,,50,,,15,,,,,62,0.813427708,0.806451613,,,,,,,
decision,244,750242,0.0-70.0-2.0,,46.80000019,run_exp/static/images/task_images/land.jpg,65,,,,,,50,,,15,,,,,,,,84351,2,2,FALSE,,,
dig,245,753202,0.0-71.0-0.0,,,,,,,,,,,"[{""stimulus"":""run_exp/static/images/task_images/dig.jpg"",""time"":0.10000038146972656},{""stimulus"":""run_exp/static/images/task_images/land.jpg"",""time"":990},{""stimulus"":""run_exp/static/images/task_images/dig.jpg"",""time"":1979.3000001907349}]",[],15,,,,,,,,,,,,,,
harvest,246,754206,0.0-71.0-1.0,,null,run_exp/static/images/task_images/gems/50.jpg,null,,,,,,41,,,15,,,,,50,0.825723455,0.82,,,,,,,
decision,247,754331,0.0-71.0-2.0,,123.9000001,run_exp/static/images/task_images/land.jpg,65,,,,,,41,,,15,,,,,,,,88440,2,3,FALSE,,,
dig,248,757214,0.0-72.0-0.0,,,,,,,,,,,"[{""stimulus"":""run_exp/static/images/task_images/dig.jpg"",""time"":0.40000009536743164},{""stimulus"":""run_exp/static/images/task_images/land.jpg"",""time"":970.5},{""stimulus"":""run_exp/static/images/task_images/dig.jpg"",""time"":1930.5}]",[],15,,,,,,,,,,,,,,
harvest,249,758223,0.0-72.0-1.0,,null,run_exp/static/images/task_images/gems/41.jpg,null,,,,,,30,,,15,,,,,41,0.742343633,0.731707317,,,,,,,
decision,250,758260,0.0-72.0-2.0,,35.39999962,run_exp/static/images/task_images/land.jpg,65,,,,,,30,,,15,,,,,,,,92369,2,4,FALSE,,,
dig,251,761243,0.0-73.0-0.0,,,,,,,,,,,"[{""stimulus"":""run_exp/static/images/task_images/dig.jpg"",""time"":0.5},{""stimulus"":""run_exp/static/images/task_images/land.jpg"",""time"":996.0999999046326},{""stimulus"":""run_exp/static/images/task_images/dig.jpg"",""time"":1986.0999999046326}]",[],15,,,,,,,,,,,,,,
harvest,252,762246,0.0-73.0-1.0,,null,run_exp/static/images/task_images/gems/30.jpg,null,,,,,,24,,,15,,,,,30,0.801582897,0.8,,,,,,,
decision,253,762363,0.0-73.0-2.0,,116.0999999,run_exp/static/images/task_images/land.jpg,76,,,,,,24,,,15,,,,,,,,96472,2,5,TRUE,,,
travel,254,772260,0.0-74.0-0.0,,,,,,,,,,,"[{""stimulus"":""run_exp/static/images/task_images/rocket-01.jpg"",""time"":0.09999990463256836},{""stimulus"":""run_exp/static/images/task_images/rocket-02.jpg"",""time"":1100.5},{""stimulus"":""run_exp/static/images/task_images/rocket-03.jpg"",""time"":2200.3999996185303},{""stimulus"":""run_exp/static/images/task_images/rocket-04.jpg"",""time"":3300.3999996185303},{""stimulus"":""run_exp/static/images/task_images/rocket-05.jpg"",""time"":4403.699999809265},{""stimulus"":""run_exp/static/images/task_images/rocket-06.jpg"",""time"":5503.799999713898},{""stimulus"":""run_exp/static/images/task_images/rocket-07.jpg"",""time"":6601},{""stimulus"":""run_exp/static/images/task_images/rocket-08.jpg"",""time"":7698.5},{""stimulus"":""run_exp/static/images/task_images/rocket-09.jpg"",""time"":8795.5}]",[],15,,,,,,,,,,,,,,
alien_welcome,255,777275,0.0-74.0-1.0,,null,run_exp/static/images/task_images/aliens/old_aliens/planet/alien_planet-32.jpg,null,,,,,,,,,,,,32,"63,16,38,62,59,23,43,49,76,80,52,37,27,25,29,32,6,13,7,36,5,55,72,39,4,21,68,78,1,12,67,60,70,11,44,15,61,40,9,14,41,8",,,,,,,,,,
land,256,777788,0.0-74.0-2.0,,null,run_exp/static/images/task_images/land.jpg,null,,,,,,106,,,16,,,,,,,,,,,,,,
dig,257,779801,0.0-74.0-3.0,,,,,,,,,,,"[{""stimulus"":""run_exp/static/images/task_images/dig.jpg"",""time"":0.40000009536743164},{""stimulus"":""run_exp/static/images/task_images/land.jpg"",""time"":679.9000000953674},{""stimulus"":""run_exp/static/images/task_images/dig.jpg"",""time"":1347}]",[],16,,,,,,,,,,,,,,
harvest,258,780807,0.0-74.0-4.0,,null,run_exp/static/images/task_images/gems/106.jpg,null,,,,,,87,,,16,,,,,106,0.82259352,0.820754717,,,,,,,
decision,259,780828,0.0-74.0-5.0,,19.4000001,run_exp/static/images/task_images/land.jpg,65,,,,,,87,,,16,,,,,,,,114937,2,0,FALSE,,,
dig,260,783829,0.0-75.0-0.0,,,,,,,,,,,"[{""stimulus"":""run_exp/static/images/task_images/dig.jpg"",""time"":0.3000001907348633},{""stimulus"":""run_exp/static/images/task_images/land.jpg"",""time"":1009},{""stimulus"":""run_exp/static/images/task_images/dig.jpg"",""time"":2001.8000001907349}]",[],16,,,,,,,,,,,,,,
harvest,261,784840,0.0-75.0-1.0,,null,run_exp/static/images/task_images/gems/87.jpg,null,,,,,,73,,,16,,,,,87,0.833472007,0.83908046,,,,,,,
decision,262,784871,0.0-75.0-2.0,,29.5,run_exp/static/images/task_images/land.jpg,65,,,,,,73,,,16,,,,,,,,118980,2,1,FALSE,,,
dig,263,787847,0.0-76.0-0.0,,,,,,,,,,,"[{""stimulus"":""run_exp/static/images/task_images/dig.jpg"",""time"":0.09999990463256836},{""stimulus"":""run_exp/static/images/task_images/land.jpg"",""time"":1003.9000000953674},{""stimulus"":""run_exp/static/images/task_images/dig.jpg"",""time"":1995.8000001907349}]",[],16,,,,,,,,,,,,,,
harvest,264,788851,0.0-76.0-1.0,,null,run_exp/static/images/task_images/gems/73.jpg,null,,,,,,59,,,16,,,,,73,0.803570562,0.808219178,,,,,,,
decision,265,788882,0.0-76.0-2.0,,30.0999999,run_exp/static/images/task_images/land.jpg,65,,,,,,59,,,16,,,,,,,,122991,2,2,FALSE,,,
dig,266,791857,0.0-77.0-0.0,,,,,,,,,,,"[{""stimulus"":""run_exp/static/images/task_images/dig.jpg"",""time"":0.09999990463256836},{""stimulus"":""run_exp/static/images/task_images/land.jpg"",""time"":1004.5999999046326},{""stimulus"":""run_exp/static/images/task_images/dig.jpg"",""time"":1980.2000002861023}]",[],16,,,,,,,,,,,,,,
harvest,267,792861,0.0-77.0-1.0,,null,run_exp/static/images/task_images/gems/59.jpg,null,,,,,,48,,,16,,,,,59,0.806956734,0.813559322,,,,,,,
decision,268,792895,0.0-77.0-2.0,,34.20000029,run_exp/static/images/task_images/land.jpg,65,,,,,,48,,,16,,,,,,,,127005,2,3,FALSE,,,
dig,269,795865,0.0-78.0-0.0,,,,,,,,,,,"[{""stimulus"":""run_exp/static/images/task_images/dig.jpg"",""time"":0.20000028610229492},{""stimulus"":""run_exp/static/images/task_images/land.jpg"",""time"":997.4000000953674},{""stimulus"":""run_exp/static/images/task_images/dig.jpg"",""time"":1990}]",[],16,,,,,,,,,,,,,,
harvest,270,796872,0.0-78.0-1.0,,null,run_exp/static/images/task_images/gems/48.jpg,null,,,,,,38,,,16,,,,,48,0.791352226,0.791666667,,,,,,,
decision,271,796885,0.0-78.0-2.0,,12.0999999,run_exp/static/images/task_images/land.jpg,65,,,,,,38,,,16,,,,,,,,130994,2,4,FALSE,,,
dig,272,799876,0.0-79.0-0.0,,,,,,,,,,,"[{""stimulus"":""run_exp/static/images/task_images/dig.jpg"",""time"":0.19999980926513672},{""stimulus"":""run_exp/static/images/task_images/land.jpg"",""time"":1007},{""stimulus"":""run_exp/static/images/task_images/dig.jpg"",""time"":1999.4000000953674}]",[],16,,,,,,,,,,,,,,
harvest,273,800883,0.0-79.0-1.0,,null,run_exp/static/images/task_images/gems/38.jpg,null,,,,,,31,,,16,,,,,38,0.810640467,0.815789474,,,,,,,
decision,274,801066,0.0-79.0-2.0,,182.2999997,run_exp/static/images/task_images/land.jpg,65,,,,,,31,,,16,,,,,,,,135176,2,5,FALSE,,,
dig,275,803899,0.0-80.0-0.0,,,,,,,,,,,"[{""stimulus"":""run_exp/static/images/task_images/dig.jpg"",""time"":0.09999990463256836},{""stimulus"":""run_exp/static/images/task_images/land.jpg"",""time"":954.9000000953674},{""stimulus"":""run_exp/static/images/task_images/dig.jpg"",""time"":1883.9000000953674}]",[],16,,,,,,,,,,,,,,
harvest,276,804906,0.0-80.0-1.0,,null,run_exp/static/images/task_images/gems/31.jpg,null,,,,,,27,,,16,,,,,31,0.862586918,0.870967742,,,,,,,
decision,277,805033,0.0-80.0-2.0,,124.8000002,run_exp/static/images/task_images/land.jpg,76,,,,,,27,,,16,,,,,,,,139142,2,6,TRUE,,,
travel,278,814924,0.0-81.0-0.0,,,,,,,,,,,"[{""stimulus"":""run_exp/static/images/task_images/rocket-01.jpg"",""time"":0.40000009536743164},{""stimulus"":""run_exp/static/images/task_images/rocket-02.jpg"",""time"":1105.1999998092651},{""stimulus"":""run_exp/static/images/task_images/rocket-03.jpg"",""time"":2201.2999997138977},{""stimulus"":""run_exp/static/images/task_images/rocket-04.jpg"",""time"":3295.7999997138977},{""stimulus"":""run_exp/static/images/task_images/rocket-05.jpg"",""time"":4395.199999809265},{""stimulus"":""run_exp/static/images/task_images/rocket-06.jpg"",""time"":5497.699999809265},{""stimulus"":""run_exp/static/images/task_images/rocket-07.jpg"",""time"":6597.299999713898},{""stimulus"":""run_exp/static/images/task_images/rocket-08.jpg"",""time"":7687.699999809265},{""stimulus"":""run_exp/static/images/task_images/rocket-09.jpg"",""time"":8787.099999904633}]",[],16,,,,,,,,,,,,,,
alien_welcome,279,819929,0.0-81.0-1.0,,null,run_exp/static/images/task_images/aliens/old_aliens/planet/alien_planet-6.jpg,null,,,,,,,,,,,,6,"63,16,38,62,59,23,43,49,76,80,52,37,27,25,29,32,6,13,7,36,5,55,72,39,4,21,68,78,1,12,67,60,70,11,44,15,61,40,9,14,41,8",,,,,,,,,,
land,280,820440,0.0-81.0-2.0,,null,run_exp/static/images/task_images/land.jpg,null,,,,,,97,,,17,,,,,,,,,,,,,,
dig,281,822448,0.0-81.0-3.0,,,,,,,,,,,"[{""stimulus"":""run_exp/static/images/task_images/dig.jpg"",""time"":0.39999961853027344},{""stimulus"":""run_exp/static/images/task_images/land.jpg"",""time"":675.0999999046326},{""stimulus"":""run_exp/static/images/task_images/dig.jpg"",""time"":1343.5}]",[],17,,,,,,,,,,,,,,
harvest,282,823457,0.0-81.0-4.0,,null,run_exp/static/images/task_images/gems/97.jpg,null,,,,,,86,,,17,,,,,97,0.891080685,0.886597938,,,,,,,
decision,283,823567,0.0-81.0-5.0,,109.1999998,run_exp/static/images/task_images/land.jpg,65,,,,,,86,,,17,,,,,,,,157676,2,0,FALSE,,,
dig,284,826473,0.0-82.0-0.0,,,,,,,,,,,"[{""stimulus"":""run_exp/static/images/task_images/dig.jpg"",""time"":0.2999997138977051},{""stimulus"":""run_exp/static/images/task_images/land.jpg"",""time"":965.3999996185303},{""stimulus"":""run_exp/static/images/task_images/dig.jpg"",""time"":1938.5999999046326}]",[],17,,,,,,,,,,,,,,
harvest,285,827480,0.0-82.0-1.0,,null,run_exp/static/images/task_images/gems/86.jpg,null,,,,,,65,,,17,,,,,86,0.752999202,0.755813953,,,,,,,
decision,286,827528,0.0-82.0-2.0,,47.79999971,run_exp/static/images/task_images/land.jpg,65,,,,,,65,,,17,,,,,,,,161638,2,1,FALSE,,,
dig,287,830489,0.0-83.0-0.0,,,,,,,,,,,"[{""stimulus"":""run_exp/static/images/task_images/dig.jpg"",""time"":0.10000038146972656},{""stimulus"":""run_exp/static/images/task_images/land.jpg"",""time"":988.6000003814697},{""stimulus"":""run_exp/static/images/task_images/dig.jpg"",""time"":1969.7000002861023}]",[],17,,,,,,,,,,,,,,
harvest,288,831495,0.0-83.0-1.0,,null,run_exp/static/images/task_images/gems/65.jpg,null,,,,,,54,,,17,,,,,65,0.827132039,0.830769231,,,,,,,
decision,289,831620,0.0-83.0-2.0,,123.5999999,run_exp/static/images/task_images/land.jpg,65,,,,,,54,,,17,,,,,,,,165729,2,2,FALSE,,,
dig,290,834506,0.0-84.0-0.0,,,,,,,,,,,"[{""stimulus"":""run_exp/static/images/task_images/dig.jpg"",""time"":0.09999990463256836},{""stimulus"":""run_exp/static/images/task_images/land.jpg"",""time"":967.0999999046326},{""stimulus"":""run_exp/static/images/task_images/dig.jpg"",""time"":1926}]",[],17,,,,,,,,,,,,,,
harvest,291,835510,0.0-84.0-1.0,,null,run_exp/static/images/task_images/gems/54.jpg,null,,,,,,45,,,17,,,,,54,0.829180701,0.833333333,,,,,,,
decision,292,835579,0.0-84.0-2.0,,67.89999962,run_exp/static/images/task_images/land.jpg,65,,,,,,45,,,17,,,,,,,,169688,2,3,FALSE,,,
dig,293,838517,0.0-85.0-0.0,,,,,,,,,,,"[{""stimulus"":""run_exp/static/images/task_images/dig.jpg"",""time"":0.09999990463256836},{""stimulus"":""run_exp/static/images/task_images/land.jpg"",""time"":981.3999996185303},{""stimulus"":""run_exp/static/images/task_images/dig.jpg"",""time"":1956.7999997138977}]",[],17,,,,,,,,,,,,,,
harvest,294,839523,0.0-85.0-1.0,,null,run_exp/static/images/task_images/gems/45.jpg,null,,,,,,40,,,17,,,,,45,0.895544765,0.888888889,,,,,,,
decision,295,839641,0.0-85.0-2.0,,117.2999997,run_exp/static/images/task_images/land.jpg,65,,,,,,40,,,17,,,,,,,,173750,2,4,FALSE,,,
dig,296,842531,0.0-86.0-0.0,,,,,,,,,,,"[{""stimulus"":""run_exp/static/images/task_images/dig.jpg"",""time"":0.09999990463256836},{""stimulus"":""run_exp/static/images/task_images/land.jpg"",""time"":966.1999998092651},{""stimulus"":""run_exp/static/images/task_images/dig.jpg"",""time"":1926.5999999046326}]",[],17,,,,,,,,,,,,,,
harvest,297,843534,0.0-86.0-1.0,,null,run_exp/static/images/task_images/gems/40.jpg,null,,,,,,32,,,17,,,,,40,0.791312857,0.8,,,,,,,
decision,298,843646,0.0-86.0-2.0,,111.5999999,run_exp/static/images/task_images/land.jpg,76,,,,,,32,,,17,,,,,,,,177756,2,5,TRUE,,,
travel,299,853544,0.0-87.0-0.0,,,,,,,,,,,"[{""stimulus"":""run_exp/static/images/task_images/rocket-01.jpg"",""time"":0.40000009536743164},{""stimulus"":""run_exp/static/images/task_images/rocket-02.jpg"",""time"":1101.3000001907349},{""stimulus"":""run_exp/static/images/task_images/rocket-03.jpg"",""time"":2200.5},{""stimulus"":""run_exp/static/images/task_images/rocket-04.jpg"",""time"":3298},{""stimulus"":""run_exp/static/images/task_images/rocket-05.jpg"",""time"":4396.400000095367},{""stimulus"":""run_exp/static/images/task_images/rocket-06.jpg"",""time"":5495.5},{""stimulus"":""run_exp/static/images/task_images/rocket-07.jpg"",""time"":6598.599999904633},{""stimulus"":""run_exp/static/images/task_images/rocket-08.jpg"",""time"":7701.800000190735},{""stimulus"":""run_exp/static/images/task_images/rocket-09.jpg"",""time"":8789.099999904633}]",[],17,,,,,,,,,,,,,,
alien_welcome,300,858555,0.0-87.0-1.0,,null,run_exp/static/images/task_images/aliens/old_aliens/planet/alien_planet-13.jpg,null,,,,,,,,,,,,13,"63,16,38,62,59,23,43,49,76,80,52,37,27,25,29,32,6,13,7,36,5,55,72,39,4,21,68,78,1,12,67,60,70,11,44,15,61,40,9,14,41,8",,,,,,,,,,
land,301,859058,0.0-87.0-2.0,,null,run_exp/static/images/task_images/land.jpg,null,,,,,,100,,,18,,,,,,,,,,,,,,
dig,302,861067,0.0-87.0-3.0,,,,,,,,,,,"[{""stimulus"":""run_exp/static/images/task_images/dig.jpg"",""time"":0.3000001907348633},{""stimulus"":""run_exp/static/images/task_images/land.jpg"",""time"":678.9000000953674},{""stimulus"":""run_exp/static/images/task_images/dig.jpg"",""time"":1344.2000002861023}]",[],18,,,,,,,,,,,,,,
harvest,303,862073,0.0-87.0-4.0,,null,run_exp/static/images/task_images/gems/100.jpg,null,,,,,,83,,,18,,,,,100,0.828573901,0.83,,,,,,,
decision,304,862176,0.0-87.0-5.0,,101.4000001,run_exp/static/images/task_images/land.jpg,65,,,,,,83,,,18,,,,,,,,196285,2,0,FALSE,,,
dig,305,865080,0.0-88.0-0.0,,,,,,,,,,,"[{""stimulus"":""run_exp/static/images/task_images/dig.jpg"",""time"":0},{""stimulus"":""run_exp/static/images/task_images/land.jpg"",""time"":980.8000001907349},{""stimulus"":""run_exp/static/images/task_images/dig.jpg"",""time"":1941}]",[],18,,,,,,,,,,,,,,
harvest,306,866090,0.0-88.0-1.0,,null,run_exp/static/images/task_images/gems/83.jpg,null,,,,,,72,,,18,,,,,83,0.869340856,0.86746988,,,,,,,
decision,307,866228,0.0-88.0-2.0,,136.9000001,run_exp/static/images/task_images/land.jpg,65,,,,,,72,,,18,,,,,,,,200337,2,1,FALSE,,,
dig,308,869111,0.0-89.0-0.0,,,,,,,,,,,"[{""stimulus"":""run_exp/static/images/task_images/dig.jpg"",""time"":0.2999997138977051},{""stimulus"":""run_exp/static/images/task_images/land.jpg"",""time"":959.5},{""stimulus"":""run_exp/static/images/task_images/dig.jpg"",""time"":1919.0999999046326}]",[],18,,,,,,,,,,,,,,
harvest,309,870116,0.0-89.0-1.0,,null,run_exp/static/images/task_images/gems/72.jpg,null,,,,,,63,,,18,,,,,72,0.877050824,0.875,,,,,,,
decision,310,870251,0.0-89.0-2.0,,133.3000002,run_exp/static/images/task_images/land.jpg,65,,,,,,63,,,18,,,,,,,,204360,2,2,FALSE,,,
dig,311,873134,0.0-90.0-0.0,,,,,,,,,,,"[{""stimulus"":""run_exp/static/images/task_images/dig.jpg"",""time"":0.3000001907348633},{""stimulus"":""run_exp/static/images/task_images/land.jpg"",""time"":957.9000000953674},{""stimulus"":""run_exp/static/images/task_images/dig.jpg"",""time"":1918.0999999046326}]",[],18,,,,,,,,,,,,,,
harvest,312,874139,0.0-90.0-1.0,,null,run_exp/static/images/task_images/gems/63.jpg,null,,,,,,49,,,18,,,,,63,0.781572719,0.777777778,,,,,,,
decision,313,874218,0.0-90.0-2.0,,77.5,run_exp/static/images/task_images/land.jpg,65,,,,,,49,,,18,,,,,,,,208327,2,3,FALSE,,,
dig,314,877155,0.0-91.0-0.0,,,,,,,,,,,"[{""stimulus"":""run_exp/static/images/task_images/dig.jpg"",""time"":0.09999990463256836},{""stimulus"":""run_exp/static/images/task_images/land.jpg"",""time"":985.5999999046326},{""stimulus"":""run_exp/static/images/task_images/dig.jpg"",""time"":1962.4000000953674}]",[],18,,,,,,,,,,,,,,
harvest,315,878161,0.0-91.0-1.0,,null,run_exp/static/images/task_images/gems/49.jpg,null,,,,,,37,,,18,,,,,49,0.750130426,0.755102041,,,,,,,
decision,316,878202,0.0-91.0-2.0,,39,run_exp/static/images/task_images/land.jpg,65,,,,,,37,,,18,,,,,,,,212311,2,4,FALSE,,,
dig,317,881172,0.0-92.0-0.0,,,,,,,,,,,"[{""stimulus"":""run_exp/static/images/task_images/dig.jpg"",""time"":0.20000028610229492},{""stimulus"":""run_exp/static/images/task_images/land.jpg"",""time"":998.3000001907349},{""stimulus"":""run_exp/static/images/task_images/dig.jpg"",""time"":1989.9000000953674}]",[],18,,,,,,,,,,,,,,
harvest,318,882175,0.0-92.0-1.0,,null,run_exp/static/images/task_images/gems/37.jpg,null,,,,,,29,,,18,,,,,37,0.77784881,0.783783784,,,,,,,
decision,319,882295,0.0-92.0-2.0,,118.0999999,run_exp/static/images/task_images/land.jpg,65,,,,,,29,,,18,,,,,,,,216404,2,5,FALSE,,,
dig,320,885182,0.0-93.0-0.0,,,,,,,,,,,"[{""stimulus"":""run_exp/static/images/task_images/dig.jpg"",""time"":0.09999990463256836},{""stimulus"":""run_exp/static/images/task_images/land.jpg"",""time"":976.5},{""stimulus"":""run_exp/static/images/task_images/dig.jpg"",""time"":1936.4000000953674}]",[],18,,,,,,,,,,,,,,
harvest,321,886188,0.0-93.0-1.0,,null,run_exp/static/images/task_images/gems/29.jpg,null,,,,,,23,,,18,,,,,29,0.80199612,0.793103448,,,,,,,
decision,322,886191,0.0-93.0-2.0,,0.599999905,run_exp/static/images/task_images/land.jpg,76,,,,,,23,,,18,,,,,,,,220300,2,6,TRUE,,,
travel,323,896200,0.0-94.0-0.0,,,,,,,,,,,"[{""stimulus"":""run_exp/static/images/task_images/rocket-01.jpg"",""time"":0.19999980926513672},{""stimulus"":""run_exp/static/images/task_images/rocket-02.jpg"",""time"":1117.5999999046326},{""stimulus"":""run_exp/static/images/task_images/rocket-03.jpg"",""time"":2233.699999809265},{""stimulus"":""run_exp/static/images/task_images/rocket-04.jpg"",""time"":3346.300000190735},{""stimulus"":""run_exp/static/images/task_images/rocket-05.jpg"",""time"":4447},{""stimulus"":""run_exp/static/images/task_images/rocket-06.jpg"",""time"":5563.5},{""stimulus"":""run_exp/static/images/task_images/rocket-07.jpg"",""time"":6682.800000190735},{""stimulus"":""run_exp/static/images/task_images/rocket-08.jpg"",""time"":7782.900000095367},{""stimulus"":""run_exp/static/images/task_images/rocket-09.jpg"",""time"":8900.599999904633}]",[],18,,,,,,,,,,,,,,
alien_welcome,324,901204,0.0-94.0-1.0,,null,run_exp/static/images/task_images/aliens/old_aliens/planet/alien_planet-7.jpg,null,,,,,,,,,,,,7,"63,16,38,62,59,23,43,49,76,80,52,37,27,25,29,32,6,13,7,36,5,55,72,39,4,21,68,78,1,12,67,60,70,11,44,15,61,40,9,14,41,8",,,,,,,,,,
land,325,901713,0.0-94.0-2.0,,null,run_exp/static/images/task_images/land.jpg,null,,,,,,99,,,19,,,,,,,,,,,,,,
dig,326,903726,0.0-94.0-3.0,,,,,,,,,,,"[{""stimulus"":""run_exp/static/images/task_images/dig.jpg"",""time"":0.10000038146972656},{""stimulus"":""run_exp/static/images/task_images/land.jpg"",""time"":675.9000000953674},{""stimulus"":""run_exp/static/images/task_images/dig.jpg"",""time"":1346.8000001907349}]",[],19,,,,,,,,,,,,,,
harvest,327,904733,0.0-94.0-4.0,,null,run_exp/static/images/task_images/gems/99.jpg,null,,,,,,80,,,19,,,,,99,0.806413977,0.808080808,,,,,,,
decision,328,904823,0.0-94.0-5.0,,88.5,run_exp/static/images/task_images/land.jpg,65,,,,,,80,,,19,,,,,,,,238932,2,0,FALSE,,,
dig,329,907749,0.0-95.0-0.0,,,,,,,,,,,"[{""stimulus"":""run_exp/static/images/task_images/dig.jpg"",""time"":0.3000001907348633},{""stimulus"":""run_exp/static/images/task_images/land.jpg"",""time"":982.9000000953674},{""stimulus"":""run_exp/static/images/task_images/dig.jpg"",""time"":1956.9000000953674}]",[],19,,,,,,,,,,,,,,
harvest,330,908752,0.0-95.0-1.0,,null,run_exp/static/images/task_images/gems/80.jpg,null,,,,,,65,,,19,,,,,80,0.81216669,0.8125,,,,,,,
decision,331,908783,0.0-95.0-2.0,,29.9000001,run_exp/static/images/task_images/land.jpg,65,,,,,,65,,,19,,,,,,,,242892,2,1,FALSE,,,
dig,332,911772,0.0-96.0-0.0,,,,,,,,,,,"[{""stimulus"":""run_exp/static/images/task_images/dig.jpg"",""time"":0.10000038146972656},{""stimulus"":""run_exp/static/images/task_images/land.jpg"",""time"":1005.5},{""stimulus"":""run_exp/static/images/task_images/dig.jpg"",""time"":1996}]",[],19,,,,,,,,,,,,,,
harvest,333,912777,0.0-96.0-1.0,,null,run_exp/static/images/task_images/gems/65.jpg,null,,,,,,53,,,19,,,,,65,0.818341711,0.815384615,,,,,,,
decision,334,912851,0.0-96.0-2.0,,71.5999999,run_exp/static/images/task_images/land.jpg,65,,,,,,53,,,19,,,,,,,,246960,2,2,FALSE,,,
dig,335,915792,0.0-97.0-0.0,,,,,,,,,,,"[{""stimulus"":""run_exp/static/images/task_images/dig.jpg"",""time"":0.2999997138977051},{""stimulus"":""run_exp/static/images/task_images/land.jpg"",""time"":983.7999997138977},{""stimulus"":""run_exp/static/images/task_images/dig.jpg"",""time"":1956.6999998092651}]",[],19,,,,,,,,,,,,,,
harvest,336,916800,0.0-97.0-1.0,,null,run_exp/static/images/task_images/gems/53.jpg,null,,,,,,44,,,19,,,,,53,0.825030062,0.830188679,,,,,,,
decision,337,916909,0.0-97.0-2.0,,106.3999996,run_exp/static/images/task_images/land.jpg,65,,,,,,44,,,19,,,,,,,,251018,2,3,FALSE,,,
dig,338,919820,0.0-98.0-0.0,,,,,,,,,,,"[{""stimulus"":""run_exp/static/images/task_images/dig.jpg"",""time"":0.2999997138977051},{""stimulus"":""run_exp/static/images/task_images/land.jpg"",""time"":972.0999999046326},{""stimulus"":""run_exp/static/images/task_images/dig.jpg"",""time"":1933.2999997138977}]",[],19,,,,,,,,,,,,,,
harvest,339,920827,0.0-98.0-1.0,,null,run_exp/static/images/task_images/gems/44.jpg,null,,,,,,32,,,19,,,,,44,0.734455247,0.727272727,,,,,,,
decision,340,920971,0.0-98.0-2.0,,142.4000001,run_exp/static/images/task_images/land.jpg,65,,,,,,32,,,19,,,,,,,,255080,2,4,FALSE,,,
dig,341,923846,0.0-99.0-0.0,,,,,,,,,,,"[{""stimulus"":""run_exp/static/images/task_images/dig.jpg"",""time"":0.19999980926513672},{""stimulus"":""run_exp/static/images/task_images/land.jpg"",""time"":966.1999998092651},{""stimulus"":""run_exp/static/images/task_images/dig.jpg"",""time"":1906.9000000953674}]",[],19,,,,,,,,,,,,,,
harvest,342,924852,0.0-99.0-1.0,,null,run_exp/static/images/task_images/gems/32.jpg,null,,,,,,28,,,19,,,,,32,0.869923561,0.875,,,,,,,
decision,343,924909,0.0-99.0-2.0,,55.5,run_exp/static/images/task_images/land.jpg,76,,,,,,28,,,19,,,,,,,,259018,2,5,TRUE,,,
travel,344,934858,0.0-100.0-0.0,,,,,,,,,,,"[{""stimulus"":""run_exp/static/images/task_images/rocket-01.jpg"",""time"":0.3000001907348633},{""stimulus"":""run_exp/static/images/task_images/rocket-02.jpg"",""time"":1110.1999998092651},{""stimulus"":""run_exp/static/images/task_images/rocket-03.jpg"",""time"":2211},{""stimulus"":""run_exp/static/images/task_images/rocket-04.jpg"",""time"":3315.5999999046326},{""stimulus"":""run_exp/static/images/task_images/rocket-05.jpg"",""time"":4430.699999809265},{""stimulus"":""run_exp/static/images/task_images/rocket-06.jpg"",""time"":5532.300000190735},{""stimulus"":""run_exp/static/images/task_images/rocket-07.jpg"",""time"":6635.599999904633},{""stimulus"":""run_exp/static/images/task_images/rocket-08.jpg"",""time"":7735.099999904633},{""stimulus"":""run_exp/static/images/task_images/rocket-09.jpg"",""time"":8847.199999809265}]",[],19,,,,,,,,,,,,,,
alien_welcome,345,939863,0.0-100.0-1.0,,null,run_exp/static/images/task_images/aliens/old_aliens/planet/alien_planet-36.jpg,null,,,,,,,,,,,,36,"63,16,38,62,59,23,43,49,76,80,52,37,27,25,29,32,6,13,7,36,5,55,72,39,4,21,68,78,1,12,67,60,70,11,44,15,61,40,9,14,41,8",,,,,,,,,,
land,346,940372,0.0-100.0-2.0,,null,run_exp/static/images/task_images/land.jpg,null,,,,,,101,,,20,,,,,,,,,,,,,,
dig,347,942386,0.0-100.0-3.0,,,,,,,,,,,"[{""stimulus"":""run_exp/static/images/task_images/dig.jpg"",""time"":0.20000028610229492},{""stimulus"":""run_exp/static/images/task_images/land.jpg"",""time"":681.9000000953674},{""stimulus"":""run_exp/static/images/task_images/dig.jpg"",""time"":1348.5999999046326}]",[],20,,,,,,,,,,,,,,
harvest,348,943389,0.0-100.0-4.0,,null,run_exp/static/images/task_images/gems/101.jpg,null,,,,,,55,,,20,,,,,101,0.540345698,0.544554455,,,,,,,
decision,349,943471,0.0-100.0-5.0,,79.79999971,run_exp/static/images/task_images/land.jpg,65,,,,,,55,,,20,,,,,,,,277580,2,0,FALSE,,,
dig,350,946403,0.0-101.0-0.0,,,,,,,,,,,"[{""stimulus"":""run_exp/static/images/task_images/dig.jpg"",""time"":0.19999980926513672},{""stimulus"":""run_exp/static/images/task_images/land.jpg"",""time"":982.1999998092651},{""stimulus"":""run_exp/static/images/task_images/dig.jpg"",""time"":1959.5999999046326}]",[],20,,,,,,,,,,,,,,
harvest,351,947406,0.0-101.0-1.0,,null,run_exp/static/images/task_images/gems/55.jpg,null,,,,,,29,,,20,,,,,55,0.535076729,0.527272727,,,,,,,
decision,352,947491,0.0-101.0-2.0,,83.9000001,run_exp/static/images/task_images/land.jpg,65,,,,,,29,,,20,,,,,,,,281601,2,1,FALSE,,,
dig,353,950423,0.0-102.0-0.0,,,,,,,,,,,"[{""stimulus"":""run_exp/static/images/task_images/dig.jpg"",""time"":0.3000001907348633},{""stimulus"":""run_exp/static/images/task_images/land.jpg"",""time"":987.5999999046326},{""stimulus"":""run_exp/static/images/task_images/dig.jpg"",""time"":1950.5999999046326}]",[],20,,,,,,,,,,,,,,
harvest,354,951430,0.0-102.0-1.0,,null,run_exp/static/images/task_images/gems/29.jpg,null,,,,,,14,,,20,,,,,29,0.490714694,0.482758621,,,,,,,
decision,355,951448,0.0-102.0-2.0,,16.30000019,run_exp/static/images/task_images/land.jpg,76,,,,,,14,,,20,,,,,,,,285557,2,2,TRUE,,,
travel,356,961443,0.0-103.0-0.0,,,,,,,,,,,"[{""stimulus"":""run_exp/static/images/task_images/rocket-01.jpg"",""time"":0.3000001907348633},{""stimulus"":""run_exp/static/images/task_images/rocket-02.jpg"",""time"":1122.2000002861023},{""stimulus"":""run_exp/static/images/task_images/rocket-03.jpg"",""time"":2219.7000002861023},{""stimulus"":""run_exp/static/images/task_images/rocket-04.jpg"",""time"":3331.5},{""stimulus"":""run_exp/static/images/task_images/rocket-05.jpg"",""time"":4447.5},{""stimulus"":""run_exp/static/images/task_images/rocket-06.jpg"",""time"":5549},{""stimulus"":""run_exp/static/images/task_images/rocket-07.jpg"",""time"":6661.400000095367},{""stimulus"":""run_exp/static/images/task_images/rocket-08.jpg"",""time"":7776},{""stimulus"":""run_exp/static/images/task_images/rocket-09.jpg"",""time"":8875.800000190735}]",[],20,,,,,,,,,,,,,,
alien_welcome,357,966458,0.0-103.0-1.0,,null,run_exp/static/images/task_images/aliens/old_aliens/planet/alien_planet-5.jpg,null,,,,,,,,,,,,5,"63,16,38,62,59,23,43,49,76,80,52,37,27,25,29,32,6,13,7,36,5,55,72,39,4,21,68,78,1,12,67,60,70,11,44,15,61,40,9,14,41,8",,,,,,,,,,
land,358,966971,0.0-103.0-2.0,,null,run_exp/static/images/task_images/land.jpg,null,,,,,,97,,,21,,,,,,,,,,,,,,
dig,359,968983,0.0-103.0-3.0,,,,,,,,,,,"[{""stimulus"":""run_exp/static/images/task_images/dig.jpg"",""time"":0.3000001907348633},{""stimulus"":""run_exp/static/images/task_images/land.jpg"",""time"":678.5},{""stimulus"":""run_exp/static/images/task_images/dig.jpg"",""time"":1342.5}]",[],21,,,,,,,,,,,,,,
harvest,360,969990,0.0-103.0-4.0,,null,run_exp/static/images/task_images/gems/97.jpg,null,,,,,,80,,,21,,,,,97,0.828275118,0.824742268,,,,,,,
decision,361,970160,0.0-103.0-5.0,,169.2000003,run_exp/static/images/task_images/land.jpg,65,,,,,,80,,,21,,,,,,,,304270,2,0,TRUE,,,
end_of_block_continue,362,979103,0.0-104.0-0.0,,null,run_exp/static/audio/clip_32_block_end.m4a,,,,,,null,,,,,,,,,,,,,,,,,,
alien_welcome,363,984112,0.0-105.0-0.0,,null,run_exp/static/images/task_images/aliens/old_aliens/planet/alien_planet-55.jpg,null,,,,,,,,,,,,55,"63,16,38,62,59,23,43,49,76,80,52,37,27,25,29,32,6,13,7,36,5,55,72,39,4,21,68,78,1,12,67,60,70,11,44,15,61,40,9,14,41,8",,,,,,,,,,
land,364,984622,0.0-105.0-1.0,,null,run_exp/static/images/task_images/land.jpg,null,,,,,,96,,,22,,,,,,,,,,,,,,
dig,365,986630,0.0-105.0-2.0,,,,,,,,,,,"[{""stimulus"":""run_exp/static/images/task_images/dig.jpg"",""time"":0.10000038146972656},{""stimulus"":""run_exp/static/images/task_images/land.jpg"",""time"":678.8000001907349},{""stimulus"":""run_exp/static/images/task_images/dig.jpg"",""time"":1341.7000002861023}]",[],22,,,,,,,,,,,,,,
harvest,366,987636,0.0-105.0-3.0,,null,run_exp/static/images/task_images/gems/96.jpg,null,,,,,,42,,,22,,,,,96,0.438797733,0.4375,,,,,,,
decision,367,987768,0.0-105.0-4.0,,129.8000002,run_exp/static/images/task_images/land.jpg,65,,,,,,42,,,22,,,,,,,,8661,3,0,FALSE,,,
dig,368,990641,0.0-106.0-0.0,,,,,,,,,,,"[{""stimulus"":""run_exp/static/images/task_images/dig.jpg"",""time"":0},{""stimulus"":""run_exp/static/images/task_images/land.jpg"",""time"":964.9000000953674},{""stimulus"":""run_exp/static/images/task_images/dig.jpg"",""time"":1923.1999998092651}]",[],22,,,,,,,,,,,,,,
harvest,369,991645,0.0-106.0-1.0,,null,run_exp/static/images/task_images/gems/42.jpg,null,,,,,,18,,,22,,,,,42,0.435100773,0.428571429,,,,,,,
decision,370,991874,0.0-106.0-2.0,,228.2000003,run_exp/static/images/task_images/land.jpg,76,,,,,,18,,,22,,,,,,,,12767,3,1,TRUE,,,
travel,371,1001642,0.0-107.0-0.0,,,,,,,,,,,"[{""stimulus"":""run_exp/static/images/task_images/rocket-01.jpg"",""time"":0.20000028610229492},{""stimulus"":""run_exp/static/images/task_images/rocket-02.jpg"",""time"":1100.6000003814697},{""stimulus"":""run_exp/static/images/task_images/rocket-03.jpg"",""time"":2184.2000002861023},{""stimulus"":""run_exp/static/images/task_images/rocket-04.jpg"",""time"":3267.800000190735},{""stimulus"":""run_exp/static/images/task_images/rocket-05.jpg"",""time"":4351.200000286102},{""stimulus"":""run_exp/static/images/task_images/rocket-06.jpg"",""time"":5435.5},{""stimulus"":""run_exp/static/images/task_images/rocket-07.jpg"",""time"":6517.10000038147},{""stimulus"":""run_exp/static/images/task_images/rocket-08.jpg"",""time"":7598.200000286102},{""stimulus"":""run_exp/static/images/task_images/rocket-09.jpg"",""time"":8681.200000286102}]",[],22,,,,,,,,,,,,,,
alien_welcome,372,1006649,0.0-107.0-1.0,,null,run_exp/static/images/task_images/aliens/old_aliens/planet/alien_planet-72.jpg,null,,,,,,,,,,,,72,"63,16,38,62,59,23,43,49,76,80,52,37,27,25,29,32,6,13,7,36,5,55,72,39,4,21,68,78,1,12,67,60,70,11,44,15,61,40,9,14,41,8",,,,,,,,,,
land,373,1007158,0.0-107.0-2.0,,null,run_exp/static/images/task_images/land.jpg,null,,,,,,112,,,23,,,,,,,,,,,,,,
dig,374,1009165,0.0-107.0-3.0,,,,,,,,,,,"[{""stimulus"":""run_exp/static/images/task_images/dig.jpg"",""time"":0.20000028610229492},{""stimulus"":""run_exp/static/images/task_images/land.jpg"",""time"":678.3000001907349},{""stimulus"":""run_exp/static/images/task_images/dig.jpg"",""time"":1341.1000003814697}]",[],23,,,,,,,,,,,,,,
harvest,375,1010171,0.0-107.0-4.0,,null,run_exp/static/images/task_images/gems/112.jpg,null,,,,,,89,,,23,,,,,112,0.791503403,0.794642857,,,,,,,
decision,376,1010234,0.0-107.0-5.0,,60.5,run_exp/static/images/task_images/land.jpg,65,,,,,,89,,,23,,,,,,,,31127,3,0,FALSE,,,
dig,377,1013175,0.0-108.0-0.0,,,,,,,,,,,"[{""stimulus"":""run_exp/static/images/task_images/dig.jpg"",""time"":0.10000038146972656},{""stimulus"":""run_exp/static/images/task_images/land.jpg"",""time"":984.8000001907349},{""stimulus"":""run_exp/static/images/task_images/dig.jpg"",""time"":1971}]",[],23,,,,,,,,,,,,,,
harvest,378,1014180,0.0-108.0-1.0,,null,run_exp/static/images/task_images/gems/89.jpg,null,,,,,,77,,,23,,,,,89,0.868053001,0.865168539,,,,,,,
decision,379,1014191,0.0-108.0-2.0,,9.700000286,run_exp/static/images/task_images/land.jpg,65,,,,,,77,,,23,,,,,,,,35084,3,1,FALSE,,,
dig,380,1017197,0.0-109.0-0.0,,,,,,,,,,,"[{""stimulus"":""run_exp/static/images/task_images/dig.jpg"",""time"":0},{""stimulus"":""run_exp/static/images/task_images/land.jpg"",""time"":1008.5},{""stimulus"":""run_exp/static/images/task_images/dig.jpg"",""time"":2000.2000002861023}]",[],23,,,,,,,,,,,,,,
harvest,381,1018203,0.0-109.0-1.0,,null,run_exp/static/images/task_images/gems/77.jpg,null,,,,,,58,,,23,,,,,77,0.74850848,0.753246753,,,,,,,
decision,382,1018226,0.0-109.0-2.0,,21.80000019,run_exp/static/images/task_images/land.jpg,65,,,,,,58,,,23,,,,,,,,39120,3,2,FALSE,,,
dig,383,1021220,0.0-110.0-0.0,,,,,,,,,,,"[{""stimulus"":""run_exp/static/images/task_images/dig.jpg"",""time"":0.09999990463256836},{""stimulus"":""run_exp/static/images/task_images/land.jpg"",""time"":993.7999997138977},{""stimulus"":""run_exp/static/images/task_images/dig.jpg"",""time"":1985.3999996185303}]",[],23,,,,,,,,,,,,,,
harvest,384,1022231,0.0-110.0-1.0,,null,run_exp/static/images/task_images/gems/58.jpg,null,,,,,,44,,,23,,,,,58,0.766085425,0.75862069,,,,,,,
decision,385,1022653,0.0-110.0-2.0,,419.7999997,run_exp/static/images/task_images/land.jpg,65,,,,,,44,,,23,,,,,,,,43546,3,3,FALSE,,,
dig,386,1025256,0.0-111.0-0.0,,,,,,,,,,,"[{""stimulus"":""run_exp/static/images/task_images/dig.jpg"",""time"":0.2999997138977051},{""stimulus"":""run_exp/static/images/task_images/land.jpg"",""time"":871.8999996185303},{""stimulus"":""run_exp/static/images/task_images/dig.jpg"",""time"":1726.5}]",[],23,,,,,,,,,,,,,,
harvest,387,1026263,0.0-111.0-1.0,,null,run_exp/static/images/task_images/gems/44.jpg,null,,,,,,34,,,23,,,,,44,0.781910243,0.772727273,,,,,,,
decision,388,1026270,0.0-111.0-2.0,,5.599999905,run_exp/static/images/task_images/land.jpg,65,,,,,,34,,,23,,,,,,,,47163,3,4,FALSE,,,
dig,389,1029277,0.0-112.0-0.0,,,,,,,,,,,"[{""stimulus"":""run_exp/static/images/task_images/dig.jpg"",""time"":0},{""stimulus"":""run_exp/static/images/task_images/land.jpg"",""time"":1011.5},{""stimulus"":""run_exp/static/images/task_images/dig.jpg"",""time"":2002.1000003814697}]",[],23,,,,,,,,,,,,,,
harvest,390,1030283,0.0-112.0-1.0,,null,run_exp/static/images/task_images/gems/34.jpg,null,,,,,,25,,,23,,,,,34,0.743449732,0.735294118,,,,,,,
decision,391,1030357,0.0-112.0-2.0,,71.69999981,run_exp/static/images/task_images/land.jpg,76,,,,,,25,,,23,,,,,,,,51250,3,5,TRUE,,,
