trial_type,trial_index,time_elapsed,internal_node_id,interactions,blur_events,focus_events,fullscreenenter_events,fullscreenexit_events,success,rt,stimulus,key_press,prompt,subject_id,participant_id,age,gender,button_pressed,next_reward,animation_sequence,responses,planet,curr_prac_trial,n_prac_rounds,alien,aliens,reward_received,decay_rate_actual,decay_rate_exp,time_in_block,block_num,prt,last_trial_on_planet,button_html,bonus,num_failures
pavlovia,0,7,0.0-0.0,"""event"",""trial"",""time""
""fullscreenenter"",""1"",""2052""
","
","
","""event"",""trial"",""time""
""fullscreenenter"",""1"",""2052""
","
",,,,,,,,,,,,,,,,,,,,,,,,,,,,
fullscreen,1,2899,0.0-1.0,"""event"",""trial"",""time""
""fullscreenenter"",""1"",""2052""
","
","
","""event"",""trial"",""time""
""fullscreenenter"",""1"",""2052""
","
",TRUE,,,,,,,,,,,,,,,,,,,,,,,,,,,
instruc_welcome,2,12713,0.0-2.0,"""event"",""trial"",""time""
""fullscreenenter"",""1"",""2052""
","
","
","""event"",""trial"",""time""
""fullscreenenter"",""1"",""2052""
","
",,null,run_exp/static/audio/clip_1_welcome.m4a,null,"<p>Howdy! In this experiment, you’ll be an explorer traveling through space to collect space treasure.</p><p>Your mission is to collect as much treasure as possible.</p><br><br><p><img src='run_exp/static/images/task_images/opening_img-01.jpg' height='300' width='auto'></p>",12512,2506,15.72,Male,,,,,,,,,,,,,,,,,,,
audio-keyboard-response,3,29292,0.0-3.0,"""event"",""trial"",""time""
""fullscreenenter"",""1"",""2052""
","
","
","""event"",""trial"",""time""
""fullscreenenter"",""1"",""2052""
","
",,null,run_exp/static/audio/clip_2_move.m4a,null,,,,,,,,,,,,,,,,,,,,,,,,
welcome_dec,4,38491,0.0-4.0,"""event"",""trial"",""time""
""fullscreenenter"",""1"",""2052""
","
","
","""event"",""trial"",""time""
""fullscreenenter"",""1"",""2052""
","
",,9197.5,"<p>Howdy! In this experiment, you’ll be an explorer traveling through space to collect space treasure.</p><p>Your mission is to collect as much treasure as possible.</p><br><br><p><img src='run_exp/static/images/task_images/opening_img-01.jpg' height='300' width='auto'></p>",,,,,,,1,,,,,,,,,,,,,,,,,,
html-keyboard-response,5,40863,0.0-5.0,"""event"",""trial"",""time""
""fullscreenenter"",""1"",""2052""
","
","
","""event"",""trial"",""time""
""fullscreenenter"",""1"",""2052""
","
",,2370,"<p>Howdy! In this experiment, you’ll be an explorer traveling through space to collect space treasure.</p><p>Your mission is to collect as much treasure as possible.</p><br><br><p><img src='run_exp/static/images/task_images/opening_img-01.jpg' height='300' width='auto'></p><button class=""jspsych-html-btn-unchosen""><img src=""run_exp/static/images/task_images/planet-01.jpg"" height=""50""></button><button class=""jspsych-html-btn-chosen""><img src=""run_exp/static/images/task_images/planet-02.jpg"" height=""50""></button><p><b>[press the space bar to lock in your answer]<b><br></p>",32,,,,,,,,,,,,,,,,,,,,,,,,
instruc_goal,6,50900,0.0-6.0-0.0,"""event"",""trial"",""time""
""fullscreenenter"",""1"",""2052""
","
","
","""event"",""trial"",""time""
""fullscreenenter"",""1"",""2052""
","
",,null,run_exp/static/audio/clip_3_goal.m4a,null,"<p> As a space explorer, you’ll visit different planets to dig for space treasure, these pink gems.</p> <p> The more treasure you dig up, the more bonus money you’ll win! </p><br><br><p><img src='run_exp/static/images/task_images/pink_gem.jpg' height='300' width='auto'></p>",,,,,,,,,,,,,,,,,,,,,,,
instruc_goal,7,52633,0.0-6.0-1.0,"""event"",""trial"",""time""
""fullscreenenter"",""1"",""2052""
","
","
","""event"",""trial"",""time""
""fullscreenenter"",""1"",""2052""
","
",,1732,"<p> As a space explorer, you’ll visit different planets to dig for space treasure, these pink gems.</p> <p> The more treasure you dig up, the more bonus money you’ll win! </p><br><br><p><img src='run_exp/static/images/task_images/pink_gem.jpg' height='300' width='auto'></p>",,,,,,,1,,,,,,,,,,,,,,,,,,
html-keyboard-response,8,53686,0.0-6.0-2.0,"""event"",""trial"",""time""
""fullscreenenter"",""1"",""2052""
","
","
","""event"",""trial"",""time""
""fullscreenenter"",""1"",""2052""
","
",,1052.2,"<p> As a space explorer, you’ll visit different planets to dig for space treasure, these pink gems.</p> <p> The more treasure you dig up, the more bonus money you’ll win! </p><br><br><p><img src='run_exp/static/images/task_images/pink_gem.jpg' height='300' width='auto'></p><button class=""jspsych-html-btn-unchosen""><img src=""run_exp/static/images/task_images/planet-01.jpg"" height=""50""></button><button class=""jspsych-html-btn-chosen""><img src=""run_exp/static/images/task_images/planet-02.jpg"" height=""50""></button><p><b>[press the space bar to lock in your answer]<b><br></p>",32,,,,,,,,,,,,,,,,,,,,,,,,
instruc_dig,9,69685,0.0-7.0-0.0,"""event"",""trial"",""time""
""fullscreenenter"",""1"",""2052""
","
","
","""event"",""trial"",""time""
""fullscreenenter"",""1"",""2052""
","
",,null,run_exp/static/audio/clip_4_dig.m4a,null,,,,,,,100,,,,,,,,,,,,,,,,,
instruc_dig_try,10,73182,0.0-7.0-1.0,"""event"",""trial"",""time""
""fullscreenenter"",""1"",""2052""
","
","
","""event"",""trial"",""time""
""fullscreenenter"",""1"",""2052""
","
",,3496.4,"<p> When you’ve arrived at a new planet, you will dig once. </p> <p>Then, you get to decide if you want to stay on the planet and dig again or travel to a new planet and dig there.</p> <p> To stay and dig, press the letter <strong>‘A’</strong> on your keyboard. Try pressing it now! </p><p><img src='run_exp/static/images/task_images/land.jpg'  height='700' width='auto'></p>",65,"<p> When you’ve arrived at a new planet, you will dig once. </p> <p>Then, you get to decide if you want to stay on the planet and dig again or travel to a new planet and dig there.</p> <p> To stay and dig, press the letter <strong>‘A’</strong> on your keyboard. Try pressing it now! </p><p><img src='run_exp/static/images/task_images/land.jpg'  height='700' width='auto'></p>",,,,,,100,,,,,,,,,,,,,,,,,
dig_prac,11,75280,0.0-7.0-2.0,"""event"",""trial"",""time""
""fullscreenenter"",""1"",""2052""
","
","
","""event"",""trial"",""time""
""fullscreenenter"",""1"",""2052""
","
",,,,,,,,,,,,"[{""stimulus"":""run_exp/static/images/task_images/dig.jpg"",""time"":0.30000001192092896},{""stimulus"":""run_exp/static/images/task_images/land.jpg"",""time"":669.5},{""stimulus"":""run_exp/static/images/task_images/dig.jpg"",""time"":1336.5}]",[],,,,,,,,,,,,,,,
instruc_travel,12,111504,0.0-7.0-3.0,"""event"",""trial"",""time""
""fullscreenenter"",""1"",""2052""
","
","
","""event"",""trial"",""time""
""fullscreenenter"",""1"",""2052""
","
",,null,run_exp/static/audio/clip_5_travel.m4a,null,"<p>Every time you dig up gems, there are less gems on the planet, so the more you dig on a planet the fewer gems you’ll get with each dig.</p><p>When gems are running low, you may want to travel to a new planet. </p> <p>  Planets are very far apart in this galaxy, so it will take some time to travel between them. </p> <br><p>There are lots and lots of planets for you to visit, so you won’t be able to return to any planets you’ve seen before. </p><br><p>To leave this planet and travel to a new one, press the letter <strong>‘L’</strong> on your keyboard. Try pressing it now! </p><p><img src='run_exp/static/images/task_images/rocket-01.jpg'  height='600' width='auto'></p>",,,,,,,,,,,,,,,,,,,,,,,
instruc_travel_try,13,112950,0.0-7.0-4.0,"""event"",""trial"",""time""
""fullscreenenter"",""1"",""2052""
","
","
","""event"",""trial"",""time""
""fullscreenenter"",""1"",""2052""
","
",,1445.4,"<p>Every time you dig up gems, there are less gems on the planet, so the more you dig on a planet the fewer gems you’ll get with each dig.</p><p>When gems are running low, you may want to travel to a new planet. </p> <p>  Planets are very far apart in this galaxy, so it will take some time to travel between them. </p> <br><p>There are lots and lots of planets for you to visit, so you won’t be able to return to any planets you’ve seen before. </p><br><p>To leave this planet and travel to a new one, press the letter <strong>‘L’</strong> on your keyboard. Try pressing it now! </p><p><img src='run_exp/static/images/task_images/rocket-01.jpg'  height='600' width='auto'></p>",76,"<p>Every time you dig up gems, there are less gems on the planet, so the more you dig on a planet the fewer gems you’ll get with each dig.</p><p>When gems are running low, you may want to travel to a new planet. </p> <p>  Planets are very far apart in this galaxy, so it will take some time to travel between them. </p> <br><p>There are lots and lots of planets for you to visit, so you won’t be able to return to any planets you’ve seen before. </p><br><p>To leave this planet and travel to a new one, press the letter <strong>‘L’</strong> on your keyboard. Try pressing it now! </p><p><img src='run_exp/static/images/task_images/rocket-01.jpg'  height='600' width='auto'></p>",,,,,,,,,,,,,,,,,,,,,,,
travel_prac,14,122952,0.0-7.0-5.0,"""event"",""trial"",""time""
""fullscreenenter"",""1"",""2052""
","
","
","""event"",""trial"",""time""
""fullscreenenter"",""1"",""2052""
","
",,,,,,,,,,,,"[{""stimulus"":""run_exp/static/images/task_images/rocket-01.jpg"",""time"":0.09999999403953552},{""stimulus"":""run_exp/static/images/task_images/rocket-02.jpg"",""time"":1113.0999999940395},{""stimulus"":""run_exp/static/images/task_images/rocket-03.jpg"",""time"":2223.699999988079},{""stimulus"":""run_exp/static/images/task_images/rocket-04.jpg"",""time"":3335},{""stimulus"":""run_exp/static/images/task_images/rocket-05.jpg"",""time"":4446.299999982119},{""stimulus"":""run_exp/static/images/task_images/rocket-06.jpg"",""time"":5556.799999982119},{""stimulus"":""run_exp/static/images/task_images/rocket-07.jpg"",""time"":6667.0999999940395},{""stimulus"":""run_exp/static/images/task_images/rocket-08.jpg"",""time"":7779.199999988079},{""stimulus"":""run_exp/static/images/task_images/rocket-09.jpg"",""time"":8888.899999976158}]",[],0,,,,,,,,,,,,,,
instruc_alien_greet,15,150142,0.0-7.0-6.0,"""event"",""trial"",""time""
""fullscreenenter"",""1"",""2052""
","
","
","""event"",""trial"",""time""
""fullscreenenter"",""1"",""2052""
","
",,null,run_exp/static/audio/clip_6_alien.m4a,null,"<p>When you arrive at a new planet, the alien who owns the treasure mine on that planet will greet you!</p><p>The better an alien takes care of their mine the easier it is to dig for gems. Some aliens take better care of their mine than others. So, you won’t get exactly the same amount of gems on each planet.</p><p>What the alien looks like does not tell you anything about how many gems there are on the planet.</p><br><p><img src=""run_exp/static/images/task_images/aliens/instructions_aliens/planet/alien_planet-1.jpg""  height=""600"" width=""auto""></p>",,,,,,,,,,,,,,,,,,,,,,,
instruc_alien_greet,16,154495,0.0-7.0-7.0,"""event"",""trial"",""time""
""fullscreenenter"",""1"",""2052""
","
","
","""event"",""trial"",""time""
""fullscreenenter"",""1"",""2052""
","
",,4352.1,"<p>When you arrive at a new planet, the alien who owns the treasure mine on that planet will greet you!</p><p>The better an alien takes care of their mine the easier it is to dig for gems. Some aliens take better care of their mine than others. So, you won’t get exactly the same amount of gems on each planet.</p><p>What the alien looks like does not tell you anything about how many gems there are on the planet.</p><br><p><img src=""run_exp/static/images/task_images/aliens/instructions_aliens/planet/alien_planet-1.jpg""  height=""600"" width=""auto""></p>",,,,,,,1,,,,,,,,,,,,,,,,,,
html-keyboard-response,17,155526,0.0-7.0-8.0,"""event"",""trial"",""time""
""fullscreenenter"",""1"",""2052""
","
","
","""event"",""trial"",""time""
""fullscreenenter"",""1"",""2052""
","
",,1030.2,"<p>When you arrive at a new planet, the alien who owns the treasure mine on that planet will greet you!</p><p>The better an alien takes care of their mine the easier it is to dig for gems. Some aliens take better care of their mine than others. So, you won’t get exactly the same amount of gems on each planet.</p><p>What the alien looks like does not tell you anything about how many gems there are on the planet.</p><br><p><img src=""run_exp/static/images/task_images/aliens/instructions_aliens/planet/alien_planet-1.jpg""  height=""600"" width=""auto""></p><button class=""jspsych-html-btn-unchosen""><img src=""run_exp/static/images/task_images/planet-01.jpg"" height=""50""></button><button class=""jspsych-html-btn-chosen""><img src=""run_exp/static/images/task_images/planet-02.jpg"" height=""50""></button><p><b>[press the space bar to lock in your answer]<b><br></p>",32,,,,,,,,,,,,,,,,,,,,,,,,
time_out,18,166605,0.0-8.0-0.0,"""event"",""trial"",""time""
""fullscreenenter"",""1"",""2052""
","
","
","""event"",""trial"",""time""
""fullscreenenter"",""1"",""2052""
","
",,null,run_exp/static/audio/clip_7_timeout.m4a,null,"<p>If you don't make your choice fast enough, you’ll have to wait a few seconds before you can make another one.</p><p>You can’t dig for more gems or travel to new planets. You just have to sit and wait.</p><br><p><img src='run_exp/static/images/task_images/time_out.jpg'  height='600' width='auto'></p>",,,,,,,,,,,,,,,,,,,,,,,
time_out,19,169377,0.0-8.0-1.0,"""event"",""trial"",""time""
""fullscreenenter"",""1"",""2052""
","
","
","""event"",""trial"",""time""
""fullscreenenter"",""1"",""2052""
","
",,2771.3,"<p>If you don't make your choice fast enough, you’ll have to wait a few seconds before you can make another one.</p><p>You can’t dig for more gems or travel to new planets. You just have to sit and wait.</p><br><p><img src='run_exp/static/images/task_images/time_out.jpg'  height='600' width='auto'></p>",,,,,,,1,,,,,,,,,,,,,,,,,,
html-keyboard-response,20,171110,0.0-8.0-2.0,"""event"",""trial"",""time""
""fullscreenenter"",""1"",""2052""
","
","
","""event"",""trial"",""time""
""fullscreenenter"",""1"",""2052""
","
",,1732.4,"<p>If you don't make your choice fast enough, you’ll have to wait a few seconds before you can make another one.</p><p>You can’t dig for more gems or travel to new planets. You just have to sit and wait.</p><br><p><img src='run_exp/static/images/task_images/time_out.jpg'  height='600' width='auto'></p><button class=""jspsych-html-btn-unchosen""><img src=""run_exp/static/images/task_images/planet-01.jpg"" height=""50""></button><button class=""jspsych-html-btn-chosen""><img src=""run_exp/static/images/task_images/planet-02.jpg"" height=""50""></button><p><b>[press the space bar to lock in your answer]<b><br></p>",32,,,,,,,,,,,,,,,,,,,,,,,,
instruc_break,21,186760,0.0-9.0-0.0,"""event"",""trial"",""time""
""fullscreenenter"",""1"",""2052""
","
","
","""event"",""trial"",""time""
""fullscreenenter"",""1"",""2052""
","
",,null,run_exp/static/audio/clip_8_break.m4a,null,"<p> After digging and traveling for a while, you’ll be able to take a break at home base. </p><p>The game will last 20 minutes no matter what.</p><p>You will visit home base every 5 minutes, so, you will visit home base three times during the game.</p><br><p><img src='run_exp/static/images/task_images/home_base.jpg' height='600' width='auto'></p>",,,,,,,,,,,,,,,,,,,,,,,
instruc_break,22,189291,0.0-9.0-1.0,"""event"",""trial"",""time""
""fullscreenenter"",""1"",""2052""
","
","
","""event"",""trial"",""time""
""fullscreenenter"",""1"",""2052""
","
",,2530.4,"<p> After digging and traveling for a while, you’ll be able to take a break at home base. </p><p>The game will last 20 minutes no matter what.</p><p>You will visit home base every 5 minutes, so, you will visit home base three times during the game.</p><br><p><img src='run_exp/static/images/task_images/home_base.jpg' height='600' width='auto'></p>",,,,,,,1,,,,,,,,,,,,,,,,,,
html-keyboard-response,23,190318,0.0-9.0-2.0,"""event"",""trial"",""time""
""fullscreenenter"",""1"",""2052""
","
","
","""event"",""trial"",""time""
""fullscreenenter"",""1"",""2052""
","
",,1025.9,"<p> After digging and traveling for a while, you’ll be able to take a break at home base. </p><p>The game will last 20 minutes no matter what.</p><p>You will visit home base every 5 minutes, so, you will visit home base three times during the game.</p><br><p><img src='run_exp/static/images/task_images/home_base.jpg' height='600' width='auto'></p><button class=""jspsych-html-btn-unchosen""><img src=""run_exp/static/images/task_images/planet-01.jpg"" height=""50""></button><button class=""jspsych-html-btn-chosen""><img src=""run_exp/static/images/task_images/planet-02.jpg"" height=""50""></button><p><b>[press the space bar to lock in your answer]<b><br></p>",32,,,,,,,,,,,,,,,,,,,,,,,,
instruc_prac_game,24,200436,0.0-10.0-0.0,"""event"",""trial"",""time""
""fullscreenenter"",""1"",""2052""
","
","
","""event"",""trial"",""time""
""fullscreenenter"",""1"",""2052""
","
",,null,run_exp/static/audio/clip_9_practice.m4a,null,"<p> Are you ready to play a practice game? </p> <p>In this practice game, you'll be digging up barrels of gems. But, in the real game, you'll be digging up the gems themselves. </p>",,,,,,,,,,,,,,,,,,,,,,,
html-button-response,25,258155,0.0-10.0-1.0,"""event"",""trial"",""time""
""fullscreenenter"",""1"",""2052""
","
","
","""event"",""trial"",""time""
""fullscreenenter"",""1"",""2052""
","
",,57717.8,"<p> Are you ready to play a practice game? </p> <p>In this practice game, you'll be digging up barrels of gems. But, in the real game, you'll be digging up the gems themselves. </p>",,,,,,,0,,,,,,,,,,,,,,,,,,
alien_welcome_prac,26,263158,0.0-11.0-0.0,"""event"",""trial"",""time""
""fullscreenenter"",""1"",""2052""
","
","
","""event"",""trial"",""time""
""fullscreenenter"",""1"",""2052""
","
",,null,run_exp/static/images/task_images/aliens/practice_aliens/planet/alien_planet-5.jpg,null,,,,,,,,,,,,,,,,,,,,,,,,
land_prac,27,263661,0.0-11.0-1.0,"""event"",""trial"",""time""
""fullscreenenter"",""1"",""2052""
","
","
","""event"",""trial"",""time""
""fullscreenenter"",""1"",""2052""
","
",,null,run_exp/static/images/task_images/land.jpg,null,,,,,,,103,,,0,,,,,,,,,,,,,,
dig_prac,28,265664,0.0-11.0-2.0,"""event"",""trial"",""time""
""fullscreenenter"",""1"",""2052""
","
","
","""event"",""trial"",""time""
""fullscreenenter"",""1"",""2052""
","
",,,,,,,,,,,,"[{""stimulus"":""run_exp/static/images/task_images/dig.jpg"",""time"":0.09999999403953552},{""stimulus"":""run_exp/static/images/task_images/land.jpg"",""time"":668.6999999880791},{""stimulus"":""run_exp/static/images/task_images/dig.jpg"",""time"":1335.5999999940395}]",[],,,,,,,,,,,,,,,
harvest_prac,29,266667,0.0-11.0-3.0,"""event"",""trial"",""time""
""fullscreenenter"",""1"",""2052""
","
","
","""event"",""trial"",""time""
""fullscreenenter"",""1"",""2052""
","
",,null,run_exp/static/images/task_images/barrel_text.jpg,null,,,,,,,,,,,,,,,,,,,,,,,,
decision_prac,30,268006,0.0-11.0-4.0,"""event"",""trial"",""time""
""fullscreenenter"",""1"",""2052""
","
","
","""event"",""trial"",""time""
""fullscreenenter"",""1"",""2052""
","
",,1338.3,run_exp/static/images/task_images/land.jpg,65,,,,,,,,,,,1,,,,,,,,,,,,,
dig_prac,31,270010,0.0-12.0-0.0,"""event"",""trial"",""time""
""fullscreenenter"",""1"",""2052""
","
","
","""event"",""trial"",""time""
""fullscreenenter"",""1"",""2052""
","
",,,,,,,,,,,,"[{""stimulus"":""run_exp/static/images/task_images/dig.jpg"",""time"":0},{""stimulus"":""run_exp/static/images/task_images/land.jpg"",""time"":669.2000000178814},{""stimulus"":""run_exp/static/images/task_images/dig.jpg"",""time"":1335.4000000059605}]",[],,,,,,,,,,,,,,,
harvest_prac,32,271012,0.0-12.0-1.0,"""event"",""trial"",""time""
""fullscreenenter"",""1"",""2052""
","
","
","""event"",""trial"",""time""
""fullscreenenter"",""1"",""2052""
","
",,null,run_exp/static/images/task_images/barrel_text.jpg,null,,,,,,,,,,,,,,,,,,,,,,,,
decision_prac,33,271110,0.0-12.0-2.0,"""event"",""trial"",""time""
""fullscreenenter"",""1"",""2052""
","
","
","""event"",""trial"",""time""
""fullscreenenter"",""1"",""2052""
","
",,98,run_exp/static/images/task_images/land.jpg,65,,,,,,,,,,,2,,,,,,,,,,,,,
dig_prac,34,273113,0.0-13.0-0.0,"""event"",""trial"",""time""
""fullscreenenter"",""1"",""2052""
","
","
","""event"",""trial"",""time""
""fullscreenenter"",""1"",""2052""
","
",,,,,,,,,,,,"[{""stimulus"":""run_exp/static/images/task_images/dig.jpg"",""time"":0.10000002384185791},{""stimulus"":""run_exp/static/images/task_images/land.jpg"",""time"":668},{""stimulus"":""run_exp/static/images/task_images/dig.jpg"",""time"":1336.2000000178814}]",[],,,,,,,,,,,,,,,
harvest_prac,35,274116,0.0-13.0-1.0,"""event"",""trial"",""time""
""fullscreenenter"",""1"",""2052""
","
","
","""event"",""trial"",""time""
""fullscreenenter"",""1"",""2052""
","
",,null,run_exp/static/images/task_images/barrel_text.jpg,null,,,,,,,,,,,,,,,,,,,,,,,,
decision_prac,36,274406,0.0-13.0-2.0,"""event"",""trial"",""time""
""fullscreenenter"",""1"",""2052""
","
","
","""event"",""trial"",""time""
""fullscreenenter"",""1"",""2052""
","
",,289.9,run_exp/static/images/task_images/land.jpg,65,,,,,,,,,,,3,,,,,,,,,,,,,
dig_prac,37,276410,0.0-14.0-0.0,"""event"",""trial"",""time""
""fullscreenenter"",""1"",""2052""
","
","
","""event"",""trial"",""time""
""fullscreenenter"",""1"",""2052""
","
",,,,,,,,,,,,"[{""stimulus"":""run_exp/static/images/task_images/dig.jpg"",""time"":0.09999999403953552},{""stimulus"":""run_exp/static/images/task_images/land.jpg"",""time"":667.7999999821186},{""stimulus"":""run_exp/static/images/task_images/dig.jpg"",""time"":1336.2999999821186}]",[],,,,,,,,,,,,,,,
harvest_prac,38,277412,0.0-14.0-1.0,"""event"",""trial"",""time""
""fullscreenenter"",""1"",""2052""
","
","
","""event"",""trial"",""time""
""fullscreenenter"",""1"",""2052""
","
",,null,run_exp/static/images/task_images/barrel_text.jpg,null,,,,,,,,,,,,,,,,,,,,,,,,
decision_prac,39,277718,0.0-14.0-2.0,"""event"",""trial"",""time""
""fullscreenenter"",""1"",""2052""
","
","
","""event"",""trial"",""time""
""fullscreenenter"",""1"",""2052""
","
",,305.2,run_exp/static/images/task_images/land.jpg,65,,,,,,,,,,,4,,,,,,,,,,,,,
dig_prac,40,279722,0.0-15.0-0.0,"""event"",""trial"",""time""
""fullscreenenter"",""1"",""2052""
","
","
","""event"",""trial"",""time""
""fullscreenenter"",""1"",""2052""
","
",,,,,,,,,,,,"[{""stimulus"":""run_exp/static/images/task_images/dig.jpg"",""time"":0.20000001788139343},{""stimulus"":""run_exp/static/images/task_images/land.jpg"",""time"":667.7000000178814},{""stimulus"":""run_exp/static/images/task_images/dig.jpg"",""time"":1335.9000000059605}]",[],,,,,,,,,,,,,,,
harvest_prac,41,280724,0.0-15.0-1.0,"""event"",""trial"",""time""
""fullscreenenter"",""1"",""2052""
","
","
","""event"",""trial"",""time""
""fullscreenenter"",""1"",""2052""
","
",,null,run_exp/static/images/task_images/barrel_text.jpg,null,,,,,,,,,,,,,,,,,,,,,,,,
decision_prac,42,280990,0.0-15.0-2.0,"""event"",""trial"",""time""
""fullscreenenter"",""1"",""2052""
","
","
","""event"",""trial"",""time""
""fullscreenenter"",""1"",""2052""
","
",,265.3,run_exp/static/images/task_images/land.jpg,65,,,,,,,,,,,,1,,,,,,,,,,,,
quiz_instruc,43,288607,0.0-16.0-0.0,"""event"",""trial"",""time""
""fullscreenenter"",""1"",""2052""
","
","
","""event"",""trial"",""time""
""fullscreenenter"",""1"",""2052""
","
",,7615.2,run_exp/static/audio/clip_10_quiz.m4a,,,,,,,0,,,,,,,,,,,,,,,,,,
instruc_repeat,44,331384,0.0-16.0-1.0,"""event"",""trial"",""time""
""fullscreenenter"",""1"",""2052""
","
","
","""event"",""trial"",""time""
""fullscreenenter"",""1"",""2052""
","
",,null,"<p> Are you ready to play a practice game? </p> <p>In this practice game, you'll be digging up barrels of gems. But, in the real game, you'll be digging up the gems themselves. </p>",null,"<p>In this game, your goal is to collect as many gems as you can. That’s how you will win bonus money. </p> <p>The entire game will last 20 minutes no matter how many gems you collect or how many planets you visit. </p><p>To stay on a planet and dig again, press the letter A on your keyboard. To leave for a new planet, press the letter L.</p><p>The more you dig on a planet, the fewer gems you’ll get with each dig which is why you might consider leaving for a new planet. </p><p>When you arrive at a new planet, you’ll be greeted by an alien. What the alien looks like does not tell you anything about how much treasure is on the planet. </p>",,,,,,,,,,,,,,,,,,,,,,,
instruc_repeat_continue,45,334045,0.0-16.0-2.0,"""event"",""trial"",""time""
""fullscreenenter"",""1"",""2052""
","
","
","""event"",""trial"",""time""
""fullscreenenter"",""1"",""2052""
","
",,2660.6,"<p> Are you ready to play a practice game? </p> <p>In this practice game, you'll be digging up barrels of gems. But, in the real game, you'll be digging up the gems themselves. </p>",,,,,,,0,,,,,,,,,,,,,,,,,,
quiz_q_1_ask,46,338557,0.0-16.0-3.0,"""event"",""trial"",""time""
""fullscreenenter"",""1"",""2052""
","
","
","""event"",""trial"",""time""
""fullscreenenter"",""1"",""2052""
","
",,4511.1,run_exp/static/audio/clip_11_q1_ask.m4a,,,,,,,2,,,,,,,,,,,,,,,,,,
quiz_q_1_fb_correct,47,342413,0.0-17.0-0.0,"""event"",""trial"",""time""
""fullscreenenter"",""1"",""2052""
","
","
","""event"",""trial"",""time""
""fullscreenenter"",""1"",""2052""
","
",,null,run_exp/static/audio/clip_12_q1_correct.m4a,null,<p>That’s correct. You win extra money by collecting more gems.</p>,,,,,,,,,,,,,,,,,,,,,,,
quiz_q_2_ask,48,345163,0.0-17.0-1.0,"""event"",""trial"",""time""
""fullscreenenter"",""1"",""2052""
","
","
","""event"",""trial"",""time""
""fullscreenenter"",""1"",""2052""
","
",,2749,run_exp/static/audio/clip_14_q2_ask.m4a,,,,,,,1,,,,,,,,,,,,,,,,,,
quiz_q_2_fb_correct,49,349124,0.0-18.0-0.0,"""event"",""trial"",""time""
""fullscreenenter"",""1"",""2052""
","
","
","""event"",""trial"",""time""
""fullscreenenter"",""1"",""2052""
","
",,null,run_exp/static/audio/clip_15_q2_correct.m4a,null,<p>That’s correct. The experiment is 20 minutes no matter what.</p>,,,,,,,,,,,,,,,,,,,,,,,
quiz_q_3_ask,50,354497,0.0-18.0-1.0,"""event"",""trial"",""time""
""fullscreenenter"",""1"",""2052""
","
","
","""event"",""trial"",""time""
""fullscreenenter"",""1"",""2052""
","
",,5372.4,run_exp/static/audio/clip_17_q3_ask.m4a,,,,,,,1,,,,,,,,,,,,,,,,,,
quiz_q_3_fb_correct,51,358458,0.0-19.0-0.0,"""event"",""trial"",""time""
""fullscreenenter"",""1"",""2052""
","
","
","""event"",""trial"",""time""
""fullscreenenter"",""1"",""2052""
","
",,null,run_exp/static/audio/clip_18_q3_correct.m4a,null,<p> That’s correct. You press the letter L to travel to a new planet.</p>,,,,,,,,,,,,,,,,,,,,,,,
quiz_q_4_ask,52,363533,0.0-19.0-1.0,"""event"",""trial"",""time""
""fullscreenenter"",""1"",""2052""
","
","
","""event"",""trial"",""time""
""fullscreenenter"",""1"",""2052""
","
",,5073.7,run_exp/static/audio/clip_20_q4_ask.m4a,,,,,,,0,,,,,,,,,,,,,,,,,,
quiz_q_4_fb_correct,53,368837,0.0-20.0-0.0,"""event"",""trial"",""time""
""fullscreenenter"",""1"",""2052""
","
","
","""event"",""trial"",""time""
""fullscreenenter"",""1"",""2052""
","
",,null,run_exp/static/audio/clip_21_q4_correct.m4a,null,<p> That’s correct. The more you dig on a planet the fewer gems you’ll get with each dig. </p>,,,,,,,,,,,,,,,,,,,,,,,
quiz_q_5_ask,54,378405,0.0-20.0-1.0,"""event"",""trial"",""time""
""fullscreenenter"",""1"",""2052""
","
","
","""event"",""trial"",""time""
""fullscreenenter"",""1"",""2052""
","
",,9566.7,run_exp/static/audio/clip_23_q5_ask.m4a,,,,,,,1,,,,,,,,,,,,,,,,,,
quiz_q_5_fb_correct,55,383396,0.0-21.0-0.0,"""event"",""trial"",""time""
""fullscreenenter"",""1"",""2052""
","
","
","""event"",""trial"",""time""
""fullscreenenter"",""1"",""2052""
","
",,null,run_exp/static/audio/clip_24_q5_correct.m4a,null,<p> That’s correct. The alien tells you nothing about how much treasure is on the planet.</p>,,,,,,,,,,,,,,,,,,,,,,,
quiz_correct,56,386856,0.0-22.0-0.0,"""event"",""trial"",""time""
""fullscreenenter"",""1"",""2052""
","
","
","""event"",""trial"",""time""
""fullscreenenter"",""1"",""2052""
","
",,null,run_exp/static/audio/clip_26_correct_quiz.m4a,null,,,,,,,,,,,,,,,,,,,,,,,,
quiz_correct_continue,57,412229,0.0-22.0-1.0,"""event"",""trial"",""time""
""fullscreenenter"",""1"",""2052""
","
","
","""event"",""trial"",""time""
""fullscreenenter"",""1"",""2052""
","
",,25372.2,<p>Good job! You're now ready to move on to the real game!</p>,,,,,,,0,,,,,,,,,,,,,,,,,,
audio-keyboard-response,58,422341,0.0-22.0-2.0,"""event"",""trial"",""time""
""fullscreenenter"",""1"",""2052""
","
","
","""event"",""trial"",""time""
""fullscreenenter"",""1"",""2052""
","
",,null,run_exp/static/audio/clip_28_real_game.m4a,null,,,,,,,,,,,,,,,,,,,,,,,,
instruc_begin_exp_contine,59,423721,0.0-22.0-3.0,"""event"",""trial"",""time""
""fullscreenenter"",""1"",""2052""
","
","
","""event"",""trial"",""time""
""fullscreenenter"",""1"",""2052""
","
",,1379.1,"<p>Now that you know how  to dig for space treasure and travel to new planets,you can start exploring! </p><p>Do you want to go over the instructions again or get started with the real game?</p>",,,,,,,1,,,,,,1,,,,,,,,,,,,
alien_welcome,60,428724,0.0-23.0-0.0,"""event"",""trial"",""time""
""fullscreenenter"",""1"",""2052""
","
","
","""event"",""trial"",""time""
""fullscreenenter"",""1"",""2052""
","
",,null,run_exp/static/images/task_images/aliens/old_aliens/planet/alien_planet-1.jpg,null,,,,,,,,,,,,,1,"1,48,24,72,12,55,43,70,11,32,61,74,13,69,2,50,14,40,6,64,59,67,38,79",,,,,,,,,,
land,61,429226,0.0-23.0-1.0,"""event"",""trial"",""time""
""fullscreenenter"",""1"",""2052""
","
","
","""event"",""trial"",""time""
""fullscreenenter"",""1"",""2052""
","
",,null,run_exp/static/images/task_images/land.jpg,null,,,,,,,105,,,1,,,,,,,,,,,,,,
dig,62,431231,0.0-23.0-2.0,"""event"",""trial"",""time""
""fullscreenenter"",""1"",""2052""
","
","
","""event"",""trial"",""time""
""fullscreenenter"",""1"",""2052""
","
",,,,,,,,,,,,"[{""stimulus"":""run_exp/static/images/task_images/dig.jpg"",""time"":0.30000001192092896},{""stimulus"":""run_exp/static/images/task_images/land.jpg"",""time"":669.8000000119209},{""stimulus"":""run_exp/static/images/task_images/dig.jpg"",""time"":1336.7000000178814}]",[],1,,,,,,,,,,,,,,
harvest,63,432233,0.0-23.0-3.0,"""event"",""trial"",""time""
""fullscreenenter"",""1"",""2052""
","
","
","""event"",""trial"",""time""
""fullscreenenter"",""1"",""2052""
","
",,null,run_exp/static/images/task_images/gems/105.jpg,null,,,,,,,20,,,1,,,,,105,0.193887487,0.19047619,,,,,,,
decision,64,432606,0.0-23.0-4.0,"""event"",""trial"",""time""
""fullscreenenter"",""1"",""2052""
","
","
","""event"",""trial"",""time""
""fullscreenenter"",""1"",""2052""
","
",,372.8,run_exp/static/images/task_images/land.jpg,65,,,,,,,20,,,1,,,,,,,,8885,1,0,FALSE,,,
dig,65,435235,0.0-24.0-0.0,"""event"",""trial"",""time""
""fullscreenenter"",""1"",""2052""
","
","
","""event"",""trial"",""time""
""fullscreenenter"",""1"",""2052""
","
",,,,,,,,,,,,"[{""stimulus"":""run_exp/static/images/task_images/dig.jpg"",""time"":0.19999998807907104},{""stimulus"":""run_exp/static/images/task_images/land.jpg"",""time"":877.1999999880791},{""stimulus"":""run_exp/static/images/task_images/dig.jpg"",""time"":1751.9000000059605}]",[],1,,,,,,,,,,,,,,
harvest,66,436238,0.0-24.0-1.0,"""event"",""trial"",""time""
""fullscreenenter"",""1"",""2052""
","
","
","""event"",""trial"",""time""
""fullscreenenter"",""1"",""2052""
","
",,null,run_exp/static/images/task_images/gems/20.jpg,null,,,,,,,3,,,1,,,,,20,0.168993411,0.15,,,,,,,
decision,67,436539,0.0-24.0-2.0,"""event"",""trial"",""time""
""fullscreenenter"",""1"",""2052""
","
","
","""event"",""trial"",""time""
""fullscreenenter"",""1"",""2052""
","
",,300.1,run_exp/static/images/task_images/land.jpg,65,,,,,,,3,,,1,,,,,,,,12817,1,1,FALSE,,,
dig,68,439239,0.0-25.0-0.0,"""event"",""trial"",""time""
""fullscreenenter"",""1"",""2052""
","
","
","""event"",""trial"",""time""
""fullscreenenter"",""1"",""2052""
","
",,,,,,,,,,,,"[{""stimulus"":""run_exp/static/images/task_images/dig.jpg"",""time"":0.20000001788139343},{""stimulus"":""run_exp/static/images/task_images/land.jpg"",""time"":901.4000000059605},{""stimulus"":""run_exp/static/images/task_images/dig.jpg"",""time"":1799.4000000059605}]",[],1,,,,,,,,,,,,,,
harvest,69,440242,0.0-25.0-1.0,"""event"",""trial"",""time""
""fullscreenenter"",""1"",""2052""
","
","
","""event"",""trial"",""time""
""fullscreenenter"",""1"",""2052""
","
",,null,run_exp/static/images/task_images/gems/3.jpg,null,,,,,,,1,,,1,,,,,3,0.175774487,0.333333333,,,,,,,
decision,70,440567,0.0-25.0-2.0,"""event"",""trial"",""time""
""fullscreenenter"",""1"",""2052""
","
","
","""event"",""trial"",""time""
""fullscreenenter"",""1"",""2052""
","
",,324.4,run_exp/static/images/task_images/land.jpg,65,,,,,,,1,,,1,,,,,,,,16845,1,2,FALSE,,,
dig,71,443244,0.0-26.0-0.0,"""event"",""trial"",""time""
""fullscreenenter"",""1"",""2052""
","
","
","""event"",""trial"",""time""
""fullscreenenter"",""1"",""2052""
","
",,,,,,,,,,,,"[{""stimulus"":""run_exp/static/images/task_images/dig.jpg"",""time"":0.09999999403953552},{""stimulus"":""run_exp/static/images/task_images/land.jpg"",""time"":893},{""stimulus"":""run_exp/static/images/task_images/dig.jpg"",""time"":1784}]",[],1,,,,,,,,,,,,,,
harvest,72,444245,0.0-26.0-1.0,"""event"",""trial"",""time""
""fullscreenenter"",""1"",""2052""
","
","
","""event"",""trial"",""time""
""fullscreenenter"",""1"",""2052""
","
",,null,run_exp/static/images/task_images/gems/1.jpg,null,,,,,,,0,,,1,,,,,1,0.184595544,0,,,,,,,
decision,73,444559,0.0-26.0-2.0,"""event"",""trial"",""time""
""fullscreenenter"",""1"",""2052""
","
","
","""event"",""trial"",""time""
""fullscreenenter"",""1"",""2052""
","
",,313.3,run_exp/static/images/task_images/land.jpg,65,,,,,,,0,,,1,,,,,,,,20837,1,3,FALSE,,,
dig,74,447247,0.0-27.0-0.0,"""event"",""trial"",""time""
""fullscreenenter"",""1"",""2052""
","
","
","""event"",""trial"",""time""
""fullscreenenter"",""1"",""2052""
","
",,,,,,,,,,,,"[{""stimulus"":""run_exp/static/images/task_images/dig.jpg"",""time"":0.09999999403953552},{""stimulus"":""run_exp/static/images/task_images/land.jpg"",""time"":896.4000000059605},{""stimulus"":""run_exp/static/images/task_images/dig.jpg"",""time"":1790.9000000059605}]",[],1,,,,,,,,,,,,,,
harvest,75,448250,0.0-27.0-1.0,"""event"",""trial"",""time""
""fullscreenenter"",""1"",""2052""
","
","
","""event"",""trial"",""time""
""fullscreenenter"",""1"",""2052""
","
",,null,run_exp/static/images/task_images/gems/0.jpg,null,,,,,,,0,,,1,,,,,0,0.293454167,NaN,,,,,,,
decision,76,449071,0.0-27.0-2.0,"""event"",""trial"",""time""
""fullscreenenter"",""1"",""2052""
","
","
","""event"",""trial"",""time""
""fullscreenenter"",""1"",""2052""
","
",,821.3,run_exp/static/images/task_images/land.jpg,65,,,,,,,0,,,1,,,,,,,,25350,1,4,FALSE,,,
dig,77,451253,0.0-28.0-0.0,"""event"",""trial"",""time""
""fullscreenenter"",""1"",""2052""
","
","
","""event"",""trial"",""time""
""fullscreenenter"",""1"",""2052""
","
",,,,,,,,,,,,"[{""stimulus"":""run_exp/static/images/task_images/dig.jpg"",""time"":0.19999998807907104},{""stimulus"":""run_exp/static/images/task_images/land.jpg"",""time"":728.3000000119209},{""stimulus"":""run_exp/static/images/task_images/dig.jpg"",""time"":1454.199999988079}]",[],1,,,,,,,,,,,,,,
harvest,78,452255,0.0-28.0-1.0,"""event"",""trial"",""time""
""fullscreenenter"",""1"",""2052""
","
","
","""event"",""trial"",""time""
""fullscreenenter"",""1"",""2052""
","
",,null,run_exp/static/images/task_images/gems/0.jpg,null,,,,,,,0,,,1,,,,,0,0.258018976,NaN,,,,,,,
decision,79,452560,0.0-28.0-2.0,"""event"",""trial"",""time""
""fullscreenenter"",""1"",""2052""
","
","
","""event"",""trial"",""time""
""fullscreenenter"",""1"",""2052""
","
",,304.1,run_exp/static/images/task_images/land.jpg,65,,,,,,,0,,,1,,,,,,,,28838,1,5,FALSE,,,
dig,80,455256,0.0-29.0-0.0,"""event"",""trial"",""time""
""fullscreenenter"",""1"",""2052""
","
","
","""event"",""trial"",""time""
""fullscreenenter"",""1"",""2052""
","
",,,,,,,,,,,,"[{""stimulus"":""run_exp/static/images/task_images/dig.jpg"",""time"":0.20000001788139343},{""stimulus"":""run_exp/static/images/task_images/land.jpg"",""time"":900.4000000059605},{""stimulus"":""run_exp/static/images/task_images/dig.jpg"",""time"":1798}]",[],1,,,,,,,,,,,,,,
harvest,81,456259,0.0-29.0-1.0,"""event"",""trial"",""time""
""fullscreenenter"",""1"",""2052""
","
","
","""event"",""trial"",""time""
""fullscreenenter"",""1"",""2052""
","
",,null,run_exp/static/images/task_images/gems/0.jpg,null,,,,,,,0,,,1,,,,,0,0.203880963,NaN,,,,,,,
decision,82,456616,0.0-29.0-2.0,"""event"",""trial"",""time""
""fullscreenenter"",""1"",""2052""
","
","
","""event"",""trial"",""time""
""fullscreenenter"",""1"",""2052""
","
",,356.5,run_exp/static/images/task_images/land.jpg,76,,,,,,,0,,,1,,,,,,,,32894,1,6,TRUE,,,
travel,83,466259,0.0-30.0-0.0,"""event"",""trial"",""time""
""fullscreenenter"",""1"",""2052""
","
","
","""event"",""trial"",""time""
""fullscreenenter"",""1"",""2052""
","
",,,,,,,,,,,,"[{""stimulus"":""run_exp/static/images/task_images/rocket-01.jpg"",""time"":0.09999999403953552},{""stimulus"":""run_exp/static/images/task_images/rocket-02.jpg"",""time"":1073.199999988079},{""stimulus"":""run_exp/static/images/task_images/rocket-03.jpg"",""time"":2143.5999999940395},{""stimulus"":""run_exp/static/images/task_images/rocket-04.jpg"",""time"":3214.699999988079},{""stimulus"":""run_exp/static/images/task_images/rocket-05.jpg"",""time"":4286.5999999940395},{""stimulus"":""run_exp/static/images/task_images/rocket-06.jpg"",""time"":5357.5999999940395},{""stimulus"":""run_exp/static/images/task_images/rocket-07.jpg"",""time"":6427.199999988079},{""stimulus"":""run_exp/static/images/task_images/rocket-08.jpg"",""time"":7499.5},{""stimulus"":""run_exp/static/images/task_images/rocket-09.jpg"",""time"":8570.299999982119}]",[],1,,,,,,,,,,,,,,
alien_welcome,84,471261,0.0-30.0-1.0,"""event"",""trial"",""time""
""fullscreenenter"",""1"",""2052""
","
","
","""event"",""trial"",""time""
""fullscreenenter"",""1"",""2052""
","
",,null,run_exp/static/images/task_images/aliens/old_aliens/planet/alien_planet-48.jpg,null,,,,,,,,,,,,,48,"1,48,24,72,12,55,43,70,11,32,61,74,13,69,2,50,14,40,6,64,59,67,38,79",,,,,,,,,,
land,85,471764,0.0-30.0-2.0,"""event"",""trial"",""time""
""fullscreenenter"",""1"",""2052""
","
","
","""event"",""trial"",""time""
""fullscreenenter"",""1"",""2052""
","
",,null,run_exp/static/images/task_images/land.jpg,null,,,,,,,92,,,2,,,,,,,,,,,,,,
dig,86,473767,0.0-30.0-3.0,"""event"",""trial"",""time""
""fullscreenenter"",""1"",""2052""
","
","
","""event"",""trial"",""time""
""fullscreenenter"",""1"",""2052""
","
",,,,,,,,,,,,"[{""stimulus"":""run_exp/static/images/task_images/dig.jpg"",""time"":0.09999999403953552},{""stimulus"":""run_exp/static/images/task_images/land.jpg"",""time"":668},{""stimulus"":""run_exp/static/images/task_images/dig.jpg"",""time"":1336}]",[],2,,,,,,,,,,,,,,
harvest,87,474770,0.0-30.0-4.0,"""event"",""trial"",""time""
""fullscreenenter"",""1"",""2052""
","
","
","""event"",""trial"",""time""
""fullscreenenter"",""1"",""2052""
","
",,null,run_exp/static/images/task_images/gems/92.jpg,null,,,,,,,18,,,2,,,,,92,0.198924088,0.195652174,,,,,,,
decision,88,475200,0.0-30.0-5.0,"""event"",""trial"",""time""
""fullscreenenter"",""1"",""2052""
","
","
","""event"",""trial"",""time""
""fullscreenenter"",""1"",""2052""
","
",,429.2,run_exp/static/images/task_images/land.jpg,65,,,,,,,18,,,2,,,,,,,,51478,1,0,FALSE,,,
dig,89,477771,0.0-31.0-0.0,"""event"",""trial"",""time""
""fullscreenenter"",""1"",""2052""
","
","
","""event"",""trial"",""time""
""fullscreenenter"",""1"",""2052""
","
",,,,,,,,,,,,"[{""stimulus"":""run_exp/static/images/task_images/dig.jpg"",""time"":0},{""stimulus"":""run_exp/static/images/task_images/land.jpg"",""time"":857.9000000059605},{""stimulus"":""run_exp/static/images/task_images/dig.jpg"",""time"":1714.300000011921}]",[],2,,,,,,,,,,,,,,
harvest,90,478773,0.0-31.0-1.0,"""event"",""trial"",""time""
""fullscreenenter"",""1"",""2052""
","
","
","""event"",""trial"",""time""
""fullscreenenter"",""1"",""2052""
","
",,null,run_exp/static/images/task_images/gems/18.jpg,null,,,,,,,3,,,2,,,,,18,0.177044273,0.166666667,,,,,,,
decision,91,479128,0.0-31.0-2.0,"""event"",""trial"",""time""
""fullscreenenter"",""1"",""2052""
","
","
","""event"",""trial"",""time""
""fullscreenenter"",""1"",""2052""
","
",,354.1,run_exp/static/images/task_images/land.jpg,65,,,,,,,3,,,2,,,,,,,,55406,1,1,FALSE,,,
dig,92,481774,0.0-32.0-0.0,"""event"",""trial"",""time""
""fullscreenenter"",""1"",""2052""
","
","
","""event"",""trial"",""time""
""fullscreenenter"",""1"",""2052""
","
",,,,,,,,,,,,"[{""stimulus"":""run_exp/static/images/task_images/dig.jpg"",""time"":0.09999999403953552},{""stimulus"":""run_exp/static/images/task_images/land.jpg"",""time"":882.8999999761581},{""stimulus"":""run_exp/static/images/task_images/dig.jpg"",""time"":1763.699999988079}]",[],2,,,,,,,,,,,,,,
harvest,93,482776,0.0-32.0-1.0,"""event"",""trial"",""time""
""fullscreenenter"",""1"",""2052""
","
","
","""event"",""trial"",""time""
""fullscreenenter"",""1"",""2052""
","
",,null,run_exp/static/images/task_images/gems/3.jpg,null,,,,,,,1,,,2,,,,,3,0.225569684,0.333333333,,,,,,,
decision,94,482864,0.0-32.0-2.0,"""event"",""trial"",""time""
""fullscreenenter"",""1"",""2052""
","
","
","""event"",""trial"",""time""
""fullscreenenter"",""1"",""2052""
","
",,86.70000002,run_exp/static/images/task_images/land.jpg,65,,,,,,,1,,,2,,,,,,,,59142,1,2,FALSE,,,
dig,95,485779,0.0-33.0-0.0,"""event"",""trial"",""time""
""fullscreenenter"",""1"",""2052""
","
","
","""event"",""trial"",""time""
""fullscreenenter"",""1"",""2052""
","
",,,,,,,,,,,,"[{""stimulus"":""run_exp/static/images/task_images/dig.jpg"",""time"":0.10000002384185791},{""stimulus"":""run_exp/static/images/task_images/land.jpg"",""time"":972.8000000119209},{""stimulus"":""run_exp/static/images/task_images/dig.jpg"",""time"":1944}]",[],2,,,,,,,,,,,,,,
harvest,96,486781,0.0-33.0-1.0,"""event"",""trial"",""time""
""fullscreenenter"",""1"",""2052""
","
","
","""event"",""trial"",""time""
""fullscreenenter"",""1"",""2052""
","
",,null,run_exp/static/images/task_images/gems/1.jpg,null,,,,,,,0,,,2,,,,,1,0.30067282,0,,,,,,,
decision,97,487088,0.0-33.0-2.0,"""event"",""trial"",""time""
""fullscreenenter"",""1"",""2052""
","
","
","""event"",""trial"",""time""
""fullscreenenter"",""1"",""2052""
","
",,306.6,run_exp/static/images/task_images/land.jpg,65,,,,,,,0,,,2,,,,,,,,63366,1,3,FALSE,,,
dig,98,489783,0.0-34.0-0.0,"""event"",""trial"",""time""
""fullscreenenter"",""1"",""2052""
","
","
","""event"",""trial"",""time""
""fullscreenenter"",""1"",""2052""
","
",,,,,,,,,,,,"[{""stimulus"":""run_exp/static/images/task_images/dig.jpg"",""time"":0.09999999403953552},{""stimulus"":""run_exp/static/images/task_images/land.jpg"",""time"":898.8000000119209},{""stimulus"":""run_exp/static/images/task_images/dig.jpg"",""time"":1795.300000011921}]",[],2,,,,,,,,,,,,,,
harvest,99,490785,0.0-34.0-1.0,"""event"",""trial"",""time""
""fullscreenenter"",""1"",""2052""
","
","
","""event"",""trial"",""time""
""fullscreenenter"",""1"",""2052""
","
",,null,run_exp/static/images/task_images/gems/0.jpg,null,,,,,,,0,,,2,,,,,0,0.231735456,NaN,,,,,,,
decision,100,491152,0.0-34.0-2.0,"""event"",""trial"",""time""
""fullscreenenter"",""1"",""2052""
","
","
","""event"",""trial"",""time""
""fullscreenenter"",""1"",""2052""
","
",,365.8,run_exp/static/images/task_images/land.jpg,65,,,,,,,0,,,2,,,,,,,,67430,1,4,FALSE,,,
dig,101,493789,0.0-35.0-0.0,"""event"",""trial"",""time""
""fullscreenenter"",""1"",""2052""
","
","
","""event"",""trial"",""time""
""fullscreenenter"",""1"",""2052""
","
",,,,,,,,,,,,"[{""stimulus"":""run_exp/static/images/task_images/dig.jpg"",""time"":0.09999999403953552},{""stimulus"":""run_exp/static/images/task_images/land.jpg"",""time"":879.5999999940395},{""stimulus"":""run_exp/static/images/task_images/dig.jpg"",""time"":1757.699999988079}]",[],2,,,,,,,,,,,,,,
harvest,102,494792,0.0-35.0-1.0,"""event"",""trial"",""time""
""fullscreenenter"",""1"",""2052""
","
","
","""event"",""trial"",""time""
""fullscreenenter"",""1"",""2052""
","
",,null,run_exp/static/images/task_images/gems/0.jpg,null,,,,,,,0,,,2,,,,,0,0.269855282,NaN,,,,,,,
decision,103,495072,0.0-35.0-2.0,"""event"",""trial"",""time""
""fullscreenenter"",""1"",""2052""
","
","
","""event"",""trial"",""time""
""fullscreenenter"",""1"",""2052""
","
",,279.5,run_exp/static/images/task_images/land.jpg,76,,,,,,,0,,,2,,,,,,,,71350,1,5,TRUE,,,
travel,104,504795,0.0-36.0-0.0,"""event"",""trial"",""time""
""fullscreenenter"",""1"",""2052""
","
","
","""event"",""trial"",""time""
""fullscreenenter"",""1"",""2052""
","
",,,,,,,,,,,,"[{""stimulus"":""run_exp/static/images/task_images/rocket-01.jpg"",""time"":0.09999999403953552},{""stimulus"":""run_exp/static/images/task_images/rocket-02.jpg"",""time"":1081.7999999821186},{""stimulus"":""run_exp/static/images/task_images/rocket-03.jpg"",""time"":2161.4000000059605},{""stimulus"":""run_exp/static/images/task_images/rocket-04.jpg"",""time"":3241.4000000059605},{""stimulus"":""run_exp/static/images/task_images/rocket-05.jpg"",""time"":4321.799999982119},{""stimulus"":""run_exp/static/images/task_images/rocket-06.jpg"",""time"":5401.5},{""stimulus"":""run_exp/static/images/task_images/rocket-07.jpg"",""time"":6481.4000000059605},{""stimulus"":""run_exp/static/images/task_images/rocket-08.jpg"",""time"":7561.0999999940395},{""stimulus"":""run_exp/static/images/task_images/rocket-09.jpg"",""time"":8641.699999988079}]",[],2,,,,,,,,,,,,,,
alien_welcome,105,509798,0.0-36.0-1.0,"""event"",""trial"",""time""
""fullscreenenter"",""1"",""2052""
","
","
","""event"",""trial"",""time""
""fullscreenenter"",""1"",""2052""
","
",,null,run_exp/static/images/task_images/aliens/old_aliens/planet/alien_planet-24.jpg,null,,,,,,,,,,,,,24,"1,48,24,72,12,55,43,70,11,32,61,74,13,69,2,50,14,40,6,64,59,67,38,79",,,,,,,,,,
land,106,510299,0.0-36.0-2.0,"""event"",""trial"",""time""
""fullscreenenter"",""1"",""2052""
","
","
","""event"",""trial"",""time""
""fullscreenenter"",""1"",""2052""
","
",,null,run_exp/static/images/task_images/land.jpg,null,,,,,,,94,,,3,,,,,,,,,,,,,,
dig,107,512304,0.0-36.0-3.0,"""event"",""trial"",""time""
""fullscreenenter"",""1"",""2052""
","
","
","""event"",""trial"",""time""
""fullscreenenter"",""1"",""2052""
","
",,,,,,,,,,,,"[{""stimulus"":""run_exp/static/images/task_images/dig.jpg"",""time"":0.19999998807907104},{""stimulus"":""run_exp/static/images/task_images/land.jpg"",""time"":668.7999999821186},{""stimulus"":""run_exp/static/images/task_images/dig.jpg"",""time"":1336.3999999761581}]",[],3,,,,,,,,,,,,,,
harvest,108,513305,0.0-36.0-4.0,"""event"",""trial"",""time""
""fullscreenenter"",""1"",""2052""
","
","
","""event"",""trial"",""time""
""fullscreenenter"",""1"",""2052""
","
",,null,run_exp/static/images/task_images/gems/94.jpg,null,,,,,,,49,,,3,,,,,94,0.523165104,0.521276596,,,,,,,
decision,109,513680,0.0-36.0-5.0,"""event"",""trial"",""time""
""fullscreenenter"",""1"",""2052""
","
","
","""event"",""trial"",""time""
""fullscreenenter"",""1"",""2052""
","
",,373.9,run_exp/static/images/task_images/land.jpg,65,,,,,,,49,,,3,,,,,,,,89958,1,0,FALSE,,,
dig,110,516308,0.0-37.0-0.0,"""event"",""trial"",""time""
""fullscreenenter"",""1"",""2052""
","
","
","""event"",""trial"",""time""
""fullscreenenter"",""1"",""2052""
","
",,,,,,,,,,,,"[{""stimulus"":""run_exp/static/images/task_images/dig.jpg"",""time"":0.09999999403953552},{""stimulus"":""run_exp/static/images/task_images/land.jpg"",""time"":876.2000000178814},{""stimulus"":""run_exp/static/images/task_images/dig.jpg"",""time"":1752.300000011921}]",[],3,,,,,,,,,,,,,,
harvest,111,517309,0.0-37.0-1.0,"""event"",""trial"",""time""
""fullscreenenter"",""1"",""2052""
","
","
","""event"",""trial"",""time""
""fullscreenenter"",""1"",""2052""
","
",,null,run_exp/static/images/task_images/gems/49.jpg,null,,,,,,,25,,,3,,,,,49,0.503466809,0.510204082,,,,,,,
decision,112,517328,0.0-37.0-2.0,"""event"",""trial"",""time""
""fullscreenenter"",""1"",""2052""
","
","
","""event"",""trial"",""time""
""fullscreenenter"",""1"",""2052""
","
",,18.30000001,run_exp/static/images/task_images/land.jpg,65,,,,,,,25,,,3,,,,,,,,93606,1,1,FALSE,,,
dig,113,520311,0.0-38.0-0.0,"""event"",""trial"",""time""
""fullscreenenter"",""1"",""2052""
","
","
","""event"",""trial"",""time""
""fullscreenenter"",""1"",""2052""
","
",,,,,,,,,,,,"[{""stimulus"":""run_exp/static/images/task_images/dig.jpg"",""time"":0.30000001192092896},{""stimulus"":""run_exp/static/images/task_images/land.jpg"",""time"":995.5},{""stimulus"":""run_exp/static/images/task_images/dig.jpg"",""time"":1988.300000011921}]",[],3,,,,,,,,,,,,,,
harvest,114,521312,0.0-38.0-1.0,"""event"",""trial"",""time""
""fullscreenenter"",""1"",""2052""
","
","
","""event"",""trial"",""time""
""fullscreenenter"",""1"",""2052""
","
",,null,run_exp/static/images/task_images/gems/25.jpg,null,,,,,,,14,,,3,,,,,25,0.564032349,0.56,,,,,,,
decision,115,521600,0.0-38.0-2.0,"""event"",""trial"",""time""
""fullscreenenter"",""1"",""2052""
","
","
","""event"",""trial"",""time""
""fullscreenenter"",""1"",""2052""
","
",,286.7,run_exp/static/images/task_images/land.jpg,65,,,,,,,14,,,3,,,,,,,,97878,1,2,FALSE,,,
dig,116,524315,0.0-39.0-0.0,"""event"",""trial"",""time""
""fullscreenenter"",""1"",""2052""
","
","
","""event"",""trial"",""time""
""fullscreenenter"",""1"",""2052""
","
",,,,,,,,,,,,"[{""stimulus"":""run_exp/static/images/task_images/dig.jpg"",""time"":0.09999999403953552},{""stimulus"":""run_exp/static/images/task_images/land.jpg"",""time"":905.8999999761581},{""stimulus"":""run_exp/static/images/task_images/dig.jpg"",""time"":1810.5999999940395}]",[],3,,,,,,,,,,,,,,
harvest,117,525317,0.0-39.0-1.0,"""event"",""trial"",""time""
""fullscreenenter"",""1"",""2052""
","
","
","""event"",""trial"",""time""
""fullscreenenter"",""1"",""2052""
","
",,null,run_exp/static/images/task_images/gems/14.jpg,null,,,,,,,6,,,3,,,,,14,0.402692199,0.428571429,,,,,,,
decision,118,525632,0.0-39.0-2.0,"""event"",""trial"",""time""
""fullscreenenter"",""1"",""2052""
","
","
","""event"",""trial"",""time""
""fullscreenenter"",""1"",""2052""
","
",,314.5,run_exp/static/images/task_images/land.jpg,65,,,,,,,6,,,3,,,,,,,,101910,1,3,FALSE,,,
dig,119,528320,0.0-40.0-0.0,"""event"",""trial"",""time""
""fullscreenenter"",""1"",""2052""
","
","
","""event"",""trial"",""time""
""fullscreenenter"",""1"",""2052""
","
",,,,,,,,,,,,"[{""stimulus"":""run_exp/static/images/task_images/dig.jpg"",""time"":0.19999998807907104},{""stimulus"":""run_exp/static/images/task_images/land.jpg"",""time"":896.9000000059605},{""stimulus"":""run_exp/static/images/task_images/dig.jpg"",""time"":1792.4000000059605}]",[],3,,,,,,,,,,,,,,
harvest,120,529322,0.0-40.0-1.0,"""event"",""trial"",""time""
""fullscreenenter"",""1"",""2052""
","
","
","""event"",""trial"",""time""
""fullscreenenter"",""1"",""2052""
","
",,null,run_exp/static/images/task_images/gems/6.jpg,null,,,,,,,3,,,3,,,,,6,0.513862193,0.5,,,,,,,
decision,121,529559,0.0-40.0-2.0,"""event"",""trial"",""time""
""fullscreenenter"",""1"",""2052""
","
","
","""event"",""trial"",""time""
""fullscreenenter"",""1"",""2052""
","
",,236.9,run_exp/static/images/task_images/land.jpg,65,,,,,,,3,,,3,,,,,,,,105838,1,4,FALSE,,,
dig,122,532326,0.0-41.0-0.0,"""event"",""trial"",""time""
""fullscreenenter"",""1"",""2052""
","
","
","""event"",""trial"",""time""
""fullscreenenter"",""1"",""2052""
","
",,,,,,,,,,,,"[{""stimulus"":""run_exp/static/images/task_images/dig.jpg"",""time"":0.10000002384185791},{""stimulus"":""run_exp/static/images/task_images/land.jpg"",""time"":923},{""stimulus"":""run_exp/static/images/task_images/dig.jpg"",""time"":1844}]",[],3,,,,,,,,,,,,,,
harvest,123,533327,0.0-41.0-1.0,"""event"",""trial"",""time""
""fullscreenenter"",""1"",""2052""
","
","
","""event"",""trial"",""time""
""fullscreenenter"",""1"",""2052""
","
",,null,run_exp/static/images/task_images/gems/3.jpg,null,,,,,,,2,,,3,,,,,3,0.523741078,0.666666667,,,,,,,
decision,124,533328,0.0-41.0-2.0,"""event"",""trial"",""time""
""fullscreenenter"",""1"",""2052""
","
","
","""event"",""trial"",""time""
""fullscreenenter"",""1"",""2052""
","
",,0.799999982,run_exp/static/images/task_images/land.jpg,65,,,,,,,2,,,3,,,,,,,,109606,1,5,FALSE,,,
dig,125,536329,0.0-42.0-0.0,"""event"",""trial"",""time""
""fullscreenenter"",""1"",""2052""
","
","
","""event"",""trial"",""time""
""fullscreenenter"",""1"",""2052""
","
",,,,,,,,,,,,"[{""stimulus"":""run_exp/static/images/task_images/dig.jpg"",""time"":0.09999999403953552},{""stimulus"":""run_exp/static/images/task_images/land.jpg"",""time"":1000.4000000059605},{""stimulus"":""run_exp/static/images/task_images/dig.jpg"",""time"":2000.199999988079}]",[],3,,,,,,,,,,,,,,
harvest,126,537331,0.0-42.0-1.0,"""event"",""trial"",""time""
""fullscreenenter"",""1"",""2052""
","
","
","""event"",""trial"",""time""
""fullscreenenter"",""1"",""2052""
","
",,null,run_exp/static/images/task_images/gems/2.jpg,null,,,,,,,1,,,3,,,,,2,0.533500693,0.5,,,,,,,
decision,127,537704,0.0-42.0-2.0,"""event"",""trial"",""time""
""fullscreenenter"",""1"",""2052""
","
","
","""event"",""trial"",""time""
""fullscreenenter"",""1"",""2052""
","
",,372.5,run_exp/static/images/task_images/land.jpg,65,,,,,,,1,,,3,,,,,,,,113982,1,6,FALSE,,,
dig,128,540333,0.0-43.0-0.0,"""event"",""trial"",""time""
""fullscreenenter"",""1"",""2052""
","
","
","""event"",""trial"",""time""
""fullscreenenter"",""1"",""2052""
","
",,,,,,,,,,,,"[{""stimulus"":""run_exp/static/images/task_images/dig.jpg"",""time"":0.19999998807907104},{""stimulus"":""run_exp/static/images/task_images/land.jpg"",""time"":876.8000000119209},{""stimulus"":""run_exp/static/images/task_images/dig.jpg"",""time"":1752.199999988079}]",[],3,,,,,,,,,,,,,,
harvest,129,541333,0.0-43.0-1.0,"""event"",""trial"",""time""
""fullscreenenter"",""1"",""2052""
","
","
","""event"",""trial"",""time""
""fullscreenenter"",""1"",""2052""
","
",,null,run_exp/static/images/task_images/gems/1.jpg,null,,,,,,,1,,,3,,,,,1,0.549508586,1,,,,,,,
decision,130,541552,0.0-43.0-2.0,"""event"",""trial"",""time""
""fullscreenenter"",""1"",""2052""
","
","
","""event"",""trial"",""time""
""fullscreenenter"",""1"",""2052""
","
",,218.1,run_exp/static/images/task_images/land.jpg,65,,,,,,,1,,,3,,,,,,,,117830,1,7,FALSE,,,
dig,131,544336,0.0-44.0-0.0,"""event"",""trial"",""time""
""fullscreenenter"",""1"",""2052""
","
","
","""event"",""trial"",""time""
""fullscreenenter"",""1"",""2052""
","
",,,,,,,,,,,,"[{""stimulus"":""run_exp/static/images/task_images/dig.jpg"",""time"":0.09999999403953552},{""stimulus"":""run_exp/static/images/task_images/land.jpg"",""time"":929.2000000178814},{""stimulus"":""run_exp/static/images/task_images/dig.jpg"",""time"":1855.7000000178814}]",[],3,,,,,,,,,,,,,,
harvest,132,545338,0.0-44.0-1.0,"""event"",""trial"",""time""
""fullscreenenter"",""1"",""2052""
","
","
","""event"",""trial"",""time""
""fullscreenenter"",""1"",""2052""
","
",,null,run_exp/static/images/task_images/gems/1.jpg,null,,,,,,,1,,,3,,,,,1,0.507823033,1,,,,,,,
decision,133,545344,0.0-44.0-2.0,"""event"",""trial"",""time""
""fullscreenenter"",""1"",""2052""
","
","
","""event"",""trial"",""time""
""fullscreenenter"",""1"",""2052""
","
",,5.099999994,run_exp/static/images/task_images/land.jpg,65,,,,,,,0,,,3,,,,,,,,121622,1,8,FALSE,,,
dig,134,548341,0.0-45.0-0.0,"""event"",""trial"",""time""
""fullscreenenter"",""1"",""2052""
","
","
","""event"",""trial"",""time""
""fullscreenenter"",""1"",""2052""
","
",,,,,,,,,,,,"[{""stimulus"":""run_exp/static/images/task_images/dig.jpg"",""time"":0.09999999403953552},{""stimulus"":""run_exp/static/images/task_images/land.jpg"",""time"":1000.1999999880791},{""stimulus"":""run_exp/static/images/task_images/dig.jpg"",""time"":1998}]",[],3,,,,,,,,,,,,,,
harvest,135,549343,0.0-45.0-1.0,"""event"",""trial"",""time""
""fullscreenenter"",""1"",""2052""
","
","
","""event"",""trial"",""time""
""fullscreenenter"",""1"",""2052""
","
",,null,run_exp/static/images/task_images/gems/0.jpg,null,,,,,,,0,,,3,,,,,0,0.603243022,NaN,,,,,,,
decision,136,549776,0.0-45.0-2.0,"""event"",""trial"",""time""
""fullscreenenter"",""1"",""2052""
","
","
","""event"",""trial"",""time""
""fullscreenenter"",""1"",""2052""
","
",,432.5,run_exp/static/images/task_images/land.jpg,76,,,,,,,0,,,3,,,,,,,,126054,1,9,TRUE,,,
travel,137,559346,0.0-46.0-0.0,"""event"",""trial"",""time""
""fullscreenenter"",""1"",""2052""
","
","
","""event"",""trial"",""time""
""fullscreenenter"",""1"",""2052""
","
",,,,,,,,,,,,"[{""stimulus"":""run_exp/static/images/task_images/rocket-01.jpg"",""time"":0.09999999403953552},{""stimulus"":""run_exp/static/images/task_images/rocket-02.jpg"",""time"":1064.199999988079},{""stimulus"":""run_exp/static/images/task_images/rocket-03.jpg"",""time"":2127.7999999821186},{""stimulus"":""run_exp/static/images/task_images/rocket-04.jpg"",""time"":3190.0999999940395},{""stimulus"":""run_exp/static/images/task_images/rocket-05.jpg"",""time"":4253.899999976158},{""stimulus"":""run_exp/static/images/task_images/rocket-06.jpg"",""time"":5316.299999982119},{""stimulus"":""run_exp/static/images/task_images/rocket-07.jpg"",""time"":6380.0999999940395},{""stimulus"":""run_exp/static/images/task_images/rocket-08.jpg"",""time"":7442.5},{""stimulus"":""run_exp/static/images/task_images/rocket-09.jpg"",""time"":8506.09999999404}]",[],3,,,,,,,,,,,,,,
alien_welcome,138,564348,0.0-46.0-1.0,"""event"",""trial"",""time""
""fullscreenenter"",""1"",""2052""
","
","
","""event"",""trial"",""time""
""fullscreenenter"",""1"",""2052""
","
",,null,run_exp/static/images/task_images/aliens/old_aliens/planet/alien_planet-72.jpg,null,,,,,,,,,,,,,72,"1,48,24,72,12,55,43,70,11,32,61,74,13,69,2,50,14,40,6,64,59,67,38,79",,,,,,,,,,
land,139,564850,0.0-46.0-2.0,"""event"",""trial"",""time""
""fullscreenenter"",""1"",""2052""
","
","
","""event"",""trial"",""time""
""fullscreenenter"",""1"",""2052""
","
",,null,run_exp/static/images/task_images/land.jpg,null,,,,,,,106,,,4,,,,,,,,,,,,,,
dig,140,566854,0.0-46.0-3.0,"""event"",""trial"",""time""
""fullscreenenter"",""1"",""2052""
","
","
","""event"",""trial"",""time""
""fullscreenenter"",""1"",""2052""
","
",,,,,,,,,,,,"[{""stimulus"":""run_exp/static/images/task_images/dig.jpg"",""time"":0.09999999403953552},{""stimulus"":""run_exp/static/images/task_images/land.jpg"",""time"":669.1999999880791},{""stimulus"":""run_exp/static/images/task_images/dig.jpg"",""time"":1335.199999988079}]",[],4,,,,,,,,,,,,,,
harvest,141,567855,0.0-46.0-4.0,"""event"",""trial"",""time""
""fullscreenenter"",""1"",""2052""
","
","
","""event"",""trial"",""time""
""fullscreenenter"",""1"",""2052""
","
",,null,run_exp/static/images/task_images/gems/106.jpg,null,,,,,,,61,,,4,,,,,106,0.572523849,0.575471698,,,,,,,
decision,142,567976,0.0-46.0-5.0,"""event"",""trial"",""time""
""fullscreenenter"",""1"",""2052""
","
","
","""event"",""trial"",""time""
""fullscreenenter"",""1"",""2052""
","
",,119.9,run_exp/static/images/task_images/land.jpg,65,,,,,,,61,,,4,,,,,,,,144254,1,0,FALSE,,,
dig,143,570860,0.0-47.0-0.0,"""event"",""trial"",""time""
""fullscreenenter"",""1"",""2052""
","
","
","""event"",""trial"",""time""
""fullscreenenter"",""1"",""2052""
","
",,,,,,,,,,,,"[{""stimulus"":""run_exp/static/images/task_images/dig.jpg"",""time"":0.09999999403953552},{""stimulus"":""run_exp/static/images/task_images/land.jpg"",""time"":962.4000000059605},{""stimulus"":""run_exp/static/images/task_images/dig.jpg"",""time"":1922}]",[],4,,,,,,,,,,,,,,
harvest,144,571862,0.0-47.0-1.0,"""event"",""trial"",""time""
""fullscreenenter"",""1"",""2052""
","
","
","""event"",""trial"",""time""
""fullscreenenter"",""1"",""2052""
","
",,null,run_exp/static/images/task_images/gems/61.jpg,null,,,,,,,33,,,4,,,,,61,0.545032371,0.540983607,,,,,,,
decision,145,571888,0.0-47.0-2.0,"""event"",""trial"",""time""
""fullscreenenter"",""1"",""2052""
","
","
","""event"",""trial"",""time""
""fullscreenenter"",""1"",""2052""
","
",,26,run_exp/static/images/task_images/land.jpg,65,,,,,,,33,,,4,,,,,,,,148166,1,1,FALSE,,,
dig,146,574865,0.0-48.0-0.0,"""event"",""trial"",""time""
""fullscreenenter"",""1"",""2052""
","
","
","""event"",""trial"",""time""
""fullscreenenter"",""1"",""2052""
","
",,,,,,,,,,,,"[{""stimulus"":""run_exp/static/images/task_images/dig.jpg"",""time"":0.20000001788139343},{""stimulus"":""run_exp/static/images/task_images/land.jpg"",""time"":992.7000000178814},{""stimulus"":""run_exp/static/images/task_images/dig.jpg"",""time"":1983.300000011921}]",[],4,,,,,,,,,,,,,,
harvest,147,575867,0.0-48.0-1.0,"""event"",""trial"",""time""
""fullscreenenter"",""1"",""2052""
","
","
","""event"",""trial"",""time""
""fullscreenenter"",""1"",""2052""
","
",,null,run_exp/static/images/task_images/gems/33.jpg,null,,,,,,,16,,,4,,,,,33,0.49181423,0.484848485,,,,,,,
decision,148,576024,0.0-48.0-2.0,"""event"",""trial"",""time""
""fullscreenenter"",""1"",""2052""
","
","
","""event"",""trial"",""time""
""fullscreenenter"",""1"",""2052""
","
",,156.2,run_exp/static/images/task_images/land.jpg,65,,,,,,,16,,,4,,,,,,,,152302,1,2,FALSE,,,
dig,149,578868,0.0-49.0-0.0,"""event"",""trial"",""time""
""fullscreenenter"",""1"",""2052""
","
","
","""event"",""trial"",""time""
""fullscreenenter"",""1"",""2052""
","
",,,,,,,,,,,,"[{""stimulus"":""run_exp/static/images/task_images/dig.jpg"",""time"":0},{""stimulus"":""run_exp/static/images/task_images/land.jpg"",""time"":948.5},{""stimulus"":""run_exp/static/images/task_images/dig.jpg"",""time"":1895.4000000059605}]",[],4,,,,,,,,,,,,,,
harvest,150,579869,0.0-49.0-1.0,"""event"",""trial"",""time""
""fullscreenenter"",""1"",""2052""
","
","
","""event"",""trial"",""time""
""fullscreenenter"",""1"",""2052""
","
",,null,run_exp/static/images/task_images/gems/16.jpg,null,,,,,,,8,,,4,,,,,16,0.475515582,0.5,,,,,,,
decision,151,580048,0.0-49.0-2.0,"""event"",""trial"",""time""
""fullscreenenter"",""1"",""2052""
","
","
","""event"",""trial"",""time""
""fullscreenenter"",""1"",""2052""
","
",,177.8,run_exp/static/images/task_images/land.jpg,65,,,,,,,8,,,4,,,,,,,,156326,1,3,FALSE,,,
dig,152,582872,0.0-50.0-0.0,"""event"",""trial"",""time""
""fullscreenenter"",""1"",""2052""
","
","
","""event"",""trial"",""time""
""fullscreenenter"",""1"",""2052""
","
",,,,,,,,,,,,"[{""stimulus"":""run_exp/static/images/task_images/dig.jpg"",""time"":0.09999999403953552},{""stimulus"":""run_exp/static/images/task_images/land.jpg"",""time"":941.9000000059605},{""stimulus"":""run_exp/static/images/task_images/dig.jpg"",""time"":1882}]",[],4,,,,,,,,,,,,,,
harvest,153,583874,0.0-50.0-1.0,"""event"",""trial"",""time""
""fullscreenenter"",""1"",""2052""
","
","
","""event"",""trial"",""time""
""fullscreenenter"",""1"",""2052""
","
",,null,run_exp/static/images/task_images/gems/8.jpg,null,,,,,,,4,,,4,,,,,8,0.450169104,0.5,,,,,,,
decision,154,584224,0.0-50.0-2.0,"""event"",""trial"",""time""
""fullscreenenter"",""1"",""2052""
","
","
","""event"",""trial"",""time""
""fullscreenenter"",""1"",""2052""
","
",,349.3,run_exp/static/images/task_images/land.jpg,65,,,,,,,4,,,4,,,,,,,,160502,1,4,FALSE,,,
dig,155,586877,0.0-51.0-0.0,"""event"",""trial"",""time""
""fullscreenenter"",""1"",""2052""
","
","
","""event"",""trial"",""time""
""fullscreenenter"",""1"",""2052""
","
",,,,,,,,,,,,"[{""stimulus"":""run_exp/static/images/task_images/dig.jpg"",""time"":0.09999999403953552},{""stimulus"":""run_exp/static/images/task_images/land.jpg"",""time"":884},{""stimulus"":""run_exp/static/images/task_images/dig.jpg"",""time"":1767.5999999940395}]",[],4,,,,,,,,,,,,,,
harvest,156,587879,0.0-51.0-1.0,"""event"",""trial"",""time""
""fullscreenenter"",""1"",""2052""
","
","
","""event"",""trial"",""time""
""fullscreenenter"",""1"",""2052""
","
",,null,run_exp/static/images/task_images/gems/4.jpg,null,,,,,,,2,,,4,,,,,4,0.477759542,0.5,,,,,,,
decision,157,588016,0.0-51.0-2.0,"""event"",""trial"",""time""
""fullscreenenter"",""1"",""2052""
","
","
","""event"",""trial"",""time""
""fullscreenenter"",""1"",""2052""
","
",,135.9,run_exp/static/images/task_images/land.jpg,65,,,,,,,2,,,4,,,,,,,,164294,1,5,FALSE,,,
dig,158,590881,0.0-52.0-0.0,"""event"",""trial"",""time""
""fullscreenenter"",""1"",""2052""
","
","
","""event"",""trial"",""time""
""fullscreenenter"",""1"",""2052""
","
",,,,,,,,,,,,"[{""stimulus"":""run_exp/static/images/task_images/dig.jpg"",""time"":0},{""stimulus"":""run_exp/static/images/task_images/land.jpg"",""time"":955.0999999940395},{""stimulus"":""run_exp/static/images/task_images/dig.jpg"",""time"":1909.4000000059605}]",[],4,,,,,,,,,,,,,,
harvest,159,591883,0.0-52.0-1.0,"""event"",""trial"",""time""
""fullscreenenter"",""1"",""2052""
","
","
","""event"",""trial"",""time""
""fullscreenenter"",""1"",""2052""
","
",,null,run_exp/static/images/task_images/gems/2.jpg,null,,,,,,,1,,,4,,,,,2,0.545690953,0.5,,,,,,,
decision,160,592120,0.0-52.0-2.0,"""event"",""trial"",""time""
""fullscreenenter"",""1"",""2052""
","
","
","""event"",""trial"",""time""
""fullscreenenter"",""1"",""2052""
","
",,236.5,run_exp/static/images/task_images/land.jpg,65,,,,,,,1,,,4,,,,,,,,168398,1,6,FALSE,,,
dig,161,594887,0.0-53.0-0.0,"""event"",""trial"",""time""
""fullscreenenter"",""1"",""2052""
","
","
","""event"",""trial"",""time""
""fullscreenenter"",""1"",""2052""
","
",,,,,,,,,,,,"[{""stimulus"":""run_exp/static/images/task_images/dig.jpg"",""time"":0.10000002384185791},{""stimulus"":""run_exp/static/images/task_images/land.jpg"",""time"":922.6000000238419},{""stimulus"":""run_exp/static/images/task_images/dig.jpg"",""time"":1843.800000011921}]",[],4,,,,,,,,,,,,,,
harvest,162,595889,0.0-53.0-1.0,"""event"",""trial"",""time""
""fullscreenenter"",""1"",""2052""
","
","
","""event"",""trial"",""time""
""fullscreenenter"",""1"",""2052""
","
",,null,run_exp/static/images/task_images/gems/1.jpg,null,,,,,,,0,,,4,,,,,1,0.471332721,0,,,,,,,
decision,163,596080,0.0-53.0-2.0,"""event"",""trial"",""time""
""fullscreenenter"",""1"",""2052""
","
","
","""event"",""trial"",""time""
""fullscreenenter"",""1"",""2052""
","
",,190.7,run_exp/static/images/task_images/land.jpg,65,,,,,,,0,,,4,,,,,,,,172358,1,7,FALSE,,,
dig,164,598892,0.0-54.0-0.0,"""event"",""trial"",""time""
""fullscreenenter"",""1"",""2052""
","
","
","""event"",""trial"",""time""
""fullscreenenter"",""1"",""2052""
","
",,,,,,,,,,,,"[{""stimulus"":""run_exp/static/images/task_images/dig.jpg"",""time"":0.09999999403953552},{""stimulus"":""run_exp/static/images/task_images/land.jpg"",""time"":936.9000000059605},{""stimulus"":""run_exp/static/images/task_images/dig.jpg"",""time"":1873.800000011921}]",[],4,,,,,,,,,,,,,,
harvest,165,599894,0.0-54.0-1.0,"""event"",""trial"",""time""
""fullscreenenter"",""1"",""2052""
","
","
","""event"",""trial"",""time""
""fullscreenenter"",""1"",""2052""
","
",,null,run_exp/static/images/task_images/gems/0.jpg,null,,,,,,,0,,,4,,,,,0,0.61359311,NaN,,,,,,,
decision,166,599992,0.0-54.0-2.0,"""event"",""trial"",""time""
""fullscreenenter"",""1"",""2052""
","
","
","""event"",""trial"",""time""
""fullscreenenter"",""1"",""2052""
","
",,97.90000001,run_exp/static/images/task_images/land.jpg,76,,,,,,,0,,,4,,,,,,,,176270,1,8,TRUE,,,
travel,167,609896,0.0-55.0-0.0,"""event"",""trial"",""time""
""fullscreenenter"",""1"",""2052""
","
","
","""event"",""trial"",""time""
""fullscreenenter"",""1"",""2052""
","
",,,,,,,,,,,,"[{""stimulus"":""run_exp/static/images/task_images/rocket-01.jpg"",""time"":0},{""stimulus"":""run_exp/static/images/task_images/rocket-02.jpg"",""time"":1101.1000000238419},{""stimulus"":""run_exp/static/images/task_images/rocket-03.jpg"",""time"":2201.9000000059605},{""stimulus"":""run_exp/static/images/task_images/rocket-04.jpg"",""time"":3302.100000023842},{""stimulus"":""run_exp/static/images/task_images/rocket-05.jpg"",""time"":4401.700000017881},{""stimulus"":""run_exp/static/images/task_images/rocket-06.jpg"",""time"":5501.800000011921},{""stimulus"":""run_exp/static/images/task_images/rocket-07.jpg"",""time"":6601.700000017881},{""stimulus"":""run_exp/static/images/task_images/rocket-08.jpg"",""time"":7701.700000017881},{""stimulus"":""run_exp/static/images/task_images/rocket-09.jpg"",""time"":8802}]",[],4,,,,,,,,,,,,,,
alien_welcome,168,614897,0.0-55.0-1.0,"""event"",""trial"",""time""
""fullscreenenter"",""1"",""2052""
","
","
","""event"",""trial"",""time""
""fullscreenenter"",""1"",""2052""
","
",,null,run_exp/static/images/task_images/aliens/old_aliens/planet/alien_planet-12.jpg,null,,,,,,,,,,,,,12,"1,48,24,72,12,55,43,70,11,32,61,74,13,69,2,50,14,40,6,64,59,67,38,79",,,,,,,,,,
land,169,615399,0.0-55.0-2.0,"""event"",""trial"",""time""
""fullscreenenter"",""1"",""2052""
","
","
","""event"",""trial"",""time""
""fullscreenenter"",""1"",""2052""
","
",,null,run_exp/static/images/task_images/land.jpg,null,,,,,,,107,,,5,,,,,,,,,,,,,,
dig,170,617402,0.0-55.0-3.0,"""event"",""trial"",""time""
""fullscreenenter"",""1"",""2052""
","
","
","""event"",""trial"",""time""
""fullscreenenter"",""1"",""2052""
","
",,,,,,,,,,,,"[{""stimulus"":""run_exp/static/images/task_images/dig.jpg"",""time"":0.09999999403953552},{""stimulus"":""run_exp/static/images/task_images/land.jpg"",""time"":669.5999999940395},{""stimulus"":""run_exp/static/images/task_images/dig.jpg"",""time"":1335.4000000059605}]",[],5,,,,,,,,,,,,,,
harvest,171,618403,0.0-55.0-4.0,"""event"",""trial"",""time""
""fullscreenenter"",""1"",""2052""
","
","
","""event"",""trial"",""time""
""fullscreenenter"",""1"",""2052""
","
",,null,run_exp/static/images/task_images/gems/107.jpg,null,,,,,,,46,,,5,,,,,107,0.430569357,0.429906542,,,,,,,
decision,172,618632,0.0-55.0-5.0,"""event"",""trial"",""time""
""fullscreenenter"",""1"",""2052""
","
","
","""event"",""trial"",""time""
""fullscreenenter"",""1"",""2052""
","
",,228.5,run_exp/static/images/task_images/land.jpg,65,,,,,,,46,,,5,,,,,,,,194910,1,0,FALSE,,,
dig,173,621405,0.0-56.0-0.0,"""event"",""trial"",""time""
""fullscreenenter"",""1"",""2052""
","
","
","""event"",""trial"",""time""
""fullscreenenter"",""1"",""2052""
","
",,,,,,,,,,,,"[{""stimulus"":""run_exp/static/images/task_images/dig.jpg"",""time"":0.09999999403953552},{""stimulus"":""run_exp/static/images/task_images/land.jpg"",""time"":925.1999999880791},{""stimulus"":""run_exp/static/images/task_images/dig.jpg"",""time"":1848.5999999940395}]",[],5,,,,,,,,,,,,,,
harvest,174,622406,0.0-56.0-1.0,"""event"",""trial"",""time""
""fullscreenenter"",""1"",""2052""
","
","
","""event"",""trial"",""time""
""fullscreenenter"",""1"",""2052""
","
",,null,run_exp/static/images/task_images/gems/46.jpg,null,,,,,,,17,,,5,,,,,46,0.369022378,0.369565217,,,,,,,
decision,175,622576,0.0-56.0-2.0,"""event"",""trial"",""time""
""fullscreenenter"",""1"",""2052""
","
","
","""event"",""trial"",""time""
""fullscreenenter"",""1"",""2052""
","
",,169.3,run_exp/static/images/task_images/land.jpg,65,,,,,,,17,,,5,,,,,,,,198854,1,1,FALSE,,,
dig,176,625409,0.0-57.0-0.0,"""event"",""trial"",""time""
""fullscreenenter"",""1"",""2052""
","
","
","""event"",""trial"",""time""
""fullscreenenter"",""1"",""2052""
","
",,,,,,,,,,,,"[{""stimulus"":""run_exp/static/images/task_images/dig.jpg"",""time"":0.19999998807907104},{""stimulus"":""run_exp/static/images/task_images/land.jpg"",""time"":945.2999999821186},{""stimulus"":""run_exp/static/images/task_images/dig.jpg"",""time"":1888.199999988079}]",[],5,,,,,,,,,,,,,,
harvest,177,626411,0.0-57.0-1.0,"""event"",""trial"",""time""
""fullscreenenter"",""1"",""2052""
","
","
","""event"",""trial"",""time""
""fullscreenenter"",""1"",""2052""
","
",,null,run_exp/static/images/task_images/gems/17.jpg,null,,,,,,,8,,,5,,,,,17,0.483199971,0.470588235,,,,,,,
decision,178,627328,0.0-57.0-2.0,"""event"",""trial"",""time""
""fullscreenenter"",""1"",""2052""
","
","
","""event"",""trial"",""time""
""fullscreenenter"",""1"",""2052""
","
",,916.9,run_exp/static/images/task_images/land.jpg,65,,,,,,,8,,,5,,,,,,,,203606,1,2,FALSE,,,
dig,179,629414,0.0-58.0-0.0,"""event"",""trial"",""time""
""fullscreenenter"",""1"",""2052""
","
","
","""event"",""trial"",""time""
""fullscreenenter"",""1"",""2052""
","
",,,,,,,,,,,,"[{""stimulus"":""run_exp/static/images/task_images/dig.jpg"",""time"":0.09999999403953552},{""stimulus"":""run_exp/static/images/task_images/land.jpg"",""time"":695.7999999821186},{""stimulus"":""run_exp/static/images/task_images/dig.jpg"",""time"":1390.0999999940395}]",[],5,,,,,,,,,,,,,,
harvest,180,630415,0.0-58.0-1.0,"""event"",""trial"",""time""
""fullscreenenter"",""1"",""2052""
","
","
","""event"",""trial"",""time""
""fullscreenenter"",""1"",""2052""
","
",,null,run_exp/static/images/task_images/gems/8.jpg,null,,,,,,,4,,,5,,,,,8,0.509796102,0.5,,,,,,,
decision,181,630417,0.0-58.0-2.0,"""event"",""trial"",""time""
""fullscreenenter"",""1"",""2052""
","
","
","""event"",""trial"",""time""
""fullscreenenter"",""1"",""2052""
","
",,0.699999988,run_exp/static/images/task_images/land.jpg,65,,,,,,,4,,,5,,,,,,,,206695,1,3,FALSE,,,
dig,182,633417,0.0-59.0-0.0,"""event"",""trial"",""time""
""fullscreenenter"",""1"",""2052""
","
","
","""event"",""trial"",""time""
""fullscreenenter"",""1"",""2052""
","
",,,,,,,,,,,,"[{""stimulus"":""run_exp/static/images/task_images/dig.jpg"",""time"":0.19999998807907104},{""stimulus"":""run_exp/static/images/task_images/land.jpg"",""time"":1000.5999999940395},{""stimulus"":""run_exp/static/images/task_images/dig.jpg"",""time"":2000.699999988079}]",[],5,,,,,,,,,,,,,,
harvest,183,634419,0.0-59.0-1.0,"""event"",""trial"",""time""
""fullscreenenter"",""1"",""2052""
","
","
","""event"",""trial"",""time""
""fullscreenenter"",""1"",""2052""
","
",,null,run_exp/static/images/task_images/gems/4.jpg,null,,,,,,,2,,,5,,,,,4,0.457470109,0.5,,,,,,,
decision,184,634432,0.0-59.0-2.0,"""event"",""trial"",""time""
""fullscreenenter"",""1"",""2052""
","
","
","""event"",""trial"",""time""
""fullscreenenter"",""1"",""2052""
","
",,11.90000001,run_exp/static/images/task_images/land.jpg,65,,,,,,,2,,,5,,,,,,,,210710,1,4,FALSE,,,
dig,185,637424,0.0-60.0-0.0,"""event"",""trial"",""time""
""fullscreenenter"",""1"",""2052""
","
","
","""event"",""trial"",""time""
""fullscreenenter"",""1"",""2052""
","
",,,,,,,,,,,,"[{""stimulus"":""run_exp/static/images/task_images/dig.jpg"",""time"":0.29999998211860657},{""stimulus"":""run_exp/static/images/task_images/land.jpg"",""time"":998.2999999821186},{""stimulus"":""run_exp/static/images/task_images/dig.jpg"",""time"":1994.199999988079}]",[],5,,,,,,,,,,,,,,
harvest,186,638426,0.0-60.0-1.0,"""event"",""trial"",""time""
""fullscreenenter"",""1"",""2052""
","
","
","""event"",""trial"",""time""
""fullscreenenter"",""1"",""2052""
","
",,null,run_exp/static/images/task_images/gems/2.jpg,null,,,,,,,1,,,5,,,,,2,0.55811032,0.5,,,,,,,
decision,187,638464,0.0-60.0-2.0,"""event"",""trial"",""time""
""fullscreenenter"",""1"",""2052""
","
","
","""event"",""trial"",""time""
""fullscreenenter"",""1"",""2052""
","
",,37.20000002,run_exp/static/images/task_images/land.jpg,65,,,,,,,1,,,5,,,,,,,,214742,1,5,FALSE,,,
dig,188,641429,0.0-61.0-0.0,"""event"",""trial"",""time""
""fullscreenenter"",""1"",""2052""
","
","
","""event"",""trial"",""time""
""fullscreenenter"",""1"",""2052""
","
",,,,,,,,,,,,"[{""stimulus"":""run_exp/static/images/task_images/dig.jpg"",""time"":0.10000002384185791},{""stimulus"":""run_exp/static/images/task_images/land.jpg"",""time"":989.1000000238419},{""stimulus"":""run_exp/static/images/task_images/dig.jpg"",""time"":1975.7000000178814}]",[],5,,,,,,,,,,,,,,
harvest,189,642431,0.0-61.0-1.0,"""event"",""trial"",""time""
""fullscreenenter"",""1"",""2052""
","
","
","""event"",""trial"",""time""
""fullscreenenter"",""1"",""2052""
","
",,null,run_exp/static/images/task_images/gems/1.jpg,null,,,,,,,1,,,5,,,,,1,0.529107507,1,,,,,,,
decision,190,642864,0.0-61.0-2.0,"""event"",""trial"",""time""
""fullscreenenter"",""1"",""2052""
","
","
","""event"",""trial"",""time""
""fullscreenenter"",""1"",""2052""
","
",,432.3,run_exp/static/images/task_images/land.jpg,65,,,,,,,1,,,5,,,,,,,,219142,1,6,FALSE,,,
dig,191,645433,0.0-62.0-0.0,"""event"",""trial"",""time""
""fullscreenenter"",""1"",""2052""
","
","
","""event"",""trial"",""time""
""fullscreenenter"",""1"",""2052""
","
",,,,,,,,,,,,"[{""stimulus"":""run_exp/static/images/task_images/dig.jpg"",""time"":0.09999999403953552},{""stimulus"":""run_exp/static/images/task_images/land.jpg"",""time"":856.2999999821186},{""stimulus"":""run_exp/static/images/task_images/dig.jpg"",""time"":1712.5}]",[],5,,,,,,,,,,,,,,
harvest,192,646435,0.0-62.0-1.0,"""event"",""trial"",""time""
""fullscreenenter"",""1"",""2052""
","
","
","""event"",""trial"",""time""
""fullscreenenter"",""1"",""2052""
","
",,null,run_exp/static/images/task_images/gems/1.jpg,null,,,,,,,1,,,5,,,,,1,0.515129669,1,,,,,,,
decision,193,646480,0.0-62.0-2.0,"""event"",""trial"",""time""
""fullscreenenter"",""1"",""2052""
","
","
","""event"",""trial"",""time""
""fullscreenenter"",""1"",""2052""
","
",,44.40000001,run_exp/static/images/task_images/land.jpg,65,,,,,,,0,,,5,,,,,,,,222758,1,7,FALSE,,,
dig,194,649439,0.0-63.0-0.0,"""event"",""trial"",""time""
""fullscreenenter"",""1"",""2052""
","
","
","""event"",""trial"",""time""
""fullscreenenter"",""1"",""2052""
","
",,,,,,,,,,,,"[{""stimulus"":""run_exp/static/images/task_images/dig.jpg"",""time"":0.09999999403953552},{""stimulus"":""run_exp/static/images/task_images/land.jpg"",""time"":987.5},{""stimulus"":""run_exp/static/images/task_images/dig.jpg"",""time"":1972.4000000059605}]",[],5,,,,,,,,,,,,,,
harvest,195,650440,0.0-63.0-1.0,"""event"",""trial"",""time""
""fullscreenenter"",""1"",""2052""
","
","
","""event"",""trial"",""time""
""fullscreenenter"",""1"",""2052""
","
",,null,run_exp/static/images/task_images/gems/0.jpg,null,,,,,,,0,,,5,,,,,0,0.542541501,NaN,,,,,,,
decision,196,650712,0.0-63.0-2.0,"""event"",""trial"",""time""
""fullscreenenter"",""1"",""2052""
","
","
","""event"",""trial"",""time""
""fullscreenenter"",""1"",""2052""
","
",,271.3,run_exp/static/images/task_images/land.jpg,76,,,,,,,0,,,5,,,,,,,,226990,1,8,TRUE,,,
travel,197,660436,0.0-64.0-0.0,"""event"",""trial"",""time""
""fullscreenenter"",""1"",""2052""
","
","
","""event"",""trial"",""time""
""fullscreenenter"",""1"",""2052""
","
",,,,,,,,,,,,"[{""stimulus"":""run_exp/static/images/task_images/rocket-01.jpg"",""time"":0.09999999403953552},{""stimulus"":""run_exp/static/images/task_images/rocket-02.jpg"",""time"":1082.2999999821186},{""stimulus"":""run_exp/static/images/task_images/rocket-03.jpg"",""time"":2161.2999999821186},{""stimulus"":""run_exp/static/images/task_images/rocket-04.jpg"",""time"":3240.9000000059605},{""stimulus"":""run_exp/static/images/task_images/rocket-05.jpg"",""time"":4322.4000000059605},{""stimulus"":""run_exp/static/images/task_images/rocket-06.jpg"",""time"":5402.0999999940395},{""stimulus"":""run_exp/static/images/task_images/rocket-07.jpg"",""time"":6481.299999982119},{""stimulus"":""run_exp/static/images/task_images/rocket-08.jpg"",""time"":7561.299999982119},{""stimulus"":""run_exp/static/images/task_images/rocket-09.jpg"",""time"":8641.40000000596}]",[],5,,,,,,,,,,,,,,
alien_welcome,198,665438,0.0-64.0-1.0,"""event"",""trial"",""time""
""fullscreenenter"",""1"",""2052""
","
","
","""event"",""trial"",""time""
""fullscreenenter"",""1"",""2052""
","
",,null,run_exp/static/images/task_images/aliens/old_aliens/planet/alien_planet-55.jpg,null,,,,,,,,,,,,,55,"1,48,24,72,12,55,43,70,11,32,61,74,13,69,2,50,14,40,6,64,59,67,38,79",,,,,,,,,,
land,199,665939,0.0-64.0-2.0,"""event"",""trial"",""time""
""fullscreenenter"",""1"",""2052""
","
","
","""event"",""trial"",""time""
""fullscreenenter"",""1"",""2052""
","
",,null,run_exp/static/images/task_images/land.jpg,null,,,,,,,104,,,6,,,,,,,,,,,,,,
dig,200,667942,0.0-64.0-3.0,"""event"",""trial"",""time""
""fullscreenenter"",""1"",""2052""
","
","
","""event"",""trial"",""time""
""fullscreenenter"",""1"",""2052""
","
",,,,,,,,,,,,"[{""stimulus"":""run_exp/static/images/task_images/dig.jpg"",""time"":0.20000001788139343},{""stimulus"":""run_exp/static/images/task_images/land.jpg"",""time"":668.5999999940395},{""stimulus"":""run_exp/static/images/task_images/dig.jpg"",""time"":1335.7000000178814}]",[],6,,,,,,,,,,,,,,
harvest,201,668945,0.0-64.0-4.0,"""event"",""trial"",""time""
""fullscreenenter"",""1"",""2052""
","
","
","""event"",""trial"",""time""
""fullscreenenter"",""1"",""2052""
","
",,null,run_exp/static/images/task_images/gems/104.jpg,null,,,,,,,80,,,6,,,,,104,0.773782807,0.769230769,,,,,,,
decision,202,669232,0.0-64.0-5.0,"""event"",""trial"",""time""
""fullscreenenter"",""1"",""2052""
","
","
","""event"",""trial"",""time""
""fullscreenenter"",""1"",""2052""
","
",,286.8,run_exp/static/images/task_images/land.jpg,65,,,,,,,80,,,6,,,,,,,,245510,1,0,FALSE,,,
dig,203,671948,0.0-65.0-0.0,"""event"",""trial"",""time""
""fullscreenenter"",""1"",""2052""
","
","
","""event"",""trial"",""time""
""fullscreenenter"",""1"",""2052""
","
",,,,,,,,,,,,"[{""stimulus"":""run_exp/static/images/task_images/dig.jpg"",""time"":0.19999998807907104},{""stimulus"":""run_exp/static/images/task_images/land.jpg"",""time"":905.9000000059605},{""stimulus"":""run_exp/static/images/task_images/dig.jpg"",""time"":1809.9000000059605}]",[],6,,,,,,,,,,,,,,
harvest,204,672950,0.0-65.0-1.0,"""event"",""trial"",""time""
""fullscreenenter"",""1"",""2052""
","
","
","""event"",""trial"",""time""
""fullscreenenter"",""1"",""2052""
","
",,null,run_exp/static/images/task_images/gems/80.jpg,null,,,,,,,57,,,6,,,,,80,0.710297992,0.7125,,,,,,,
decision,205,673112,0.0-65.0-2.0,"""event"",""trial"",""time""
""fullscreenenter"",""1"",""2052""
","
","
","""event"",""trial"",""time""
""fullscreenenter"",""1"",""2052""
","
",,162,run_exp/static/images/task_images/land.jpg,65,,,,,,,57,,,6,,,,,,,,249390,1,1,FALSE,,,
dig,206,675954,0.0-66.0-0.0,"""event"",""trial"",""time""
""fullscreenenter"",""1"",""2052""
","
","
","""event"",""trial"",""time""
""fullscreenenter"",""1"",""2052""
","
",,,,,,,,,,,,"[{""stimulus"":""run_exp/static/images/task_images/dig.jpg"",""time"":0},{""stimulus"":""run_exp/static/images/task_images/land.jpg"",""time"":948},{""stimulus"":""run_exp/static/images/task_images/dig.jpg"",""time"":1893.5}]",[],6,,,,,,,,,,,,,,
harvest,207,676955,0.0-66.0-1.0,"""event"",""trial"",""time""
""fullscreenenter"",""1"",""2052""
","
","
","""event"",""trial"",""time""
""fullscreenenter"",""1"",""2052""
","
",,null,run_exp/static/images/task_images/gems/57.jpg,null,,,,,,,45,,,6,,,,,57,0.782195743,0.789473684,,,,,,,
decision,208,677000,0.0-66.0-2.0,"""event"",""trial"",""time""
""fullscreenenter"",""1"",""2052""
","
","
","""event"",""trial"",""time""
""fullscreenenter"",""1"",""2052""
","
",,44.30000001,run_exp/static/images/task_images/land.jpg,65,,,,,,,45,,,6,,,,,,,,253278,1,2,FALSE,,,
dig,209,679958,0.0-67.0-0.0,"""event"",""trial"",""time""
""fullscreenenter"",""1"",""2052""
","
","
","""event"",""trial"",""time""
""fullscreenenter"",""1"",""2052""
","
",,,,,,,,,,,,"[{""stimulus"":""run_exp/static/images/task_images/dig.jpg"",""time"":0.09999999403953552},{""stimulus"":""run_exp/static/images/task_images/land.jpg"",""time"":987.1999999880791},{""stimulus"":""run_exp/static/images/task_images/dig.jpg"",""time"":1971.699999988079}]",[],6,,,,,,,,,,,,,,
harvest,210,680959,0.0-67.0-1.0,"""event"",""trial"",""time""
""fullscreenenter"",""1"",""2052""
","
","
","""event"",""trial"",""time""
""fullscreenenter"",""1"",""2052""
","
",,null,run_exp/static/images/task_images/gems/45.jpg,null,,,,,,,39,,,6,,,,,45,0.867462797,0.866666667,,,,,,,
decision,211,680961,0.0-67.0-2.0,"""event"",""trial"",""time""
""fullscreenenter"",""1"",""2052""
","
","
","""event"",""trial"",""time""
""fullscreenenter"",""1"",""2052""
","
",,0.800000012,run_exp/static/images/task_images/land.jpg,65,,,,,,,39,,,6,,,,,,,,257239,1,3,FALSE,,,
dig,212,683961,0.0-68.0-0.0,"""event"",""trial"",""time""
""fullscreenenter"",""1"",""2052""
","
","
","""event"",""trial"",""time""
""fullscreenenter"",""1"",""2052""
","
",,,,,,,,,,,,"[{""stimulus"":""run_exp/static/images/task_images/dig.jpg"",""time"":0.09999999403953552},{""stimulus"":""run_exp/static/images/task_images/land.jpg"",""time"":1000.5999999940395},{""stimulus"":""run_exp/static/images/task_images/dig.jpg"",""time"":1999.7999999821186}]",[],6,,,,,,,,,,,,,,
harvest,213,684963,0.0-68.0-1.0,"""event"",""trial"",""time""
""fullscreenenter"",""1"",""2052""
","
","
","""event"",""trial"",""time""
""fullscreenenter"",""1"",""2052""
","
",,null,run_exp/static/images/task_images/gems/39.jpg,null,,,,,,,30,,,6,,,,,39,0.76784593,0.769230769,,,,,,,
decision,214,685176,0.0-68.0-2.0,"""event"",""trial"",""time""
""fullscreenenter"",""1"",""2052""
","
","
","""event"",""trial"",""time""
""fullscreenenter"",""1"",""2052""
","
",,212,run_exp/static/images/task_images/land.jpg,65,,,,,,,30,,,6,,,,,,,,261454,1,4,FALSE,,,
dig,215,687967,0.0-69.0-0.0,"""event"",""trial"",""time""
""fullscreenenter"",""1"",""2052""
","
","
","""event"",""trial"",""time""
""fullscreenenter"",""1"",""2052""
","
",,,,,,,,,,,,"[{""stimulus"":""run_exp/static/images/task_images/dig.jpg"",""time"":0.09999999403953552},{""stimulus"":""run_exp/static/images/task_images/land.jpg"",""time"":930.0999999940395},{""stimulus"":""run_exp/static/images/task_images/dig.jpg"",""time"":1859.7999999821186}]",[],6,,,,,,,,,,,,,,
harvest,216,688969,0.0-69.0-1.0,"""event"",""trial"",""time""
""fullscreenenter"",""1"",""2052""
","
","
","""event"",""trial"",""time""
""fullscreenenter"",""1"",""2052""
","
",,null,run_exp/static/images/task_images/gems/30.jpg,null,,,,,,,23,,,6,,,,,30,0.779563723,0.766666667,,,,,,,
decision,217,689928,0.0-69.0-2.0,"""event"",""trial"",""time""
""fullscreenenter"",""1"",""2052""
","
","
","""event"",""trial"",""time""
""fullscreenenter"",""1"",""2052""
","
",,958.2,run_exp/static/images/task_images/land.jpg,65,,,,,,,23,,,6,,,,,,,,266206,1,5,FALSE,,,
dig,218,691972,0.0-70.0-0.0,"""event"",""trial"",""time""
""fullscreenenter"",""1"",""2052""
","
","
","""event"",""trial"",""time""
""fullscreenenter"",""1"",""2052""
","
",,,,,,,,,,,,"[{""stimulus"":""run_exp/static/images/task_images/dig.jpg"",""time"":0},{""stimulus"":""run_exp/static/images/task_images/land.jpg"",""time"":682.5},{""stimulus"":""run_exp/static/images/task_images/dig.jpg"",""time"":1361.9000000059605}]",[],6,,,,,,,,,,,,,,
harvest,219,692974,0.0-70.0-1.0,"""event"",""trial"",""time""
""fullscreenenter"",""1"",""2052""
","
","
","""event"",""trial"",""time""
""fullscreenenter"",""1"",""2052""
","
",,null,run_exp/static/images/task_images/gems/23.jpg,null,,,,,,,19,,,6,,,,,23,0.816774817,0.826086957,,,,,,,
decision,220,693184,0.0-70.0-2.0,"""event"",""trial"",""time""
""fullscreenenter"",""1"",""2052""
","
","
","""event"",""trial"",""time""
""fullscreenenter"",""1"",""2052""
","
",,209.1,run_exp/static/images/task_images/land.jpg,65,,,,,,,19,,,6,,,,,,,,269462,1,6,FALSE,,,
dig,221,695977,0.0-71.0-0.0,"""event"",""trial"",""time""
""fullscreenenter"",""1"",""2052""
","
","
","""event"",""trial"",""time""
""fullscreenenter"",""1"",""2052""
","
",,,,,,,,,,,,"[{""stimulus"":""run_exp/static/images/task_images/dig.jpg"",""time"":0.10000002384185791},{""stimulus"":""run_exp/static/images/task_images/land.jpg"",""time"":932},{""stimulus"":""run_exp/static/images/task_images/dig.jpg"",""time"":1861.1000000238419}]",[],6,,,,,,,,,,,,,,
harvest,222,696980,0.0-71.0-1.0,"""event"",""trial"",""time""
""fullscreenenter"",""1"",""2052""
","
","
","""event"",""trial"",""time""
""fullscreenenter"",""1"",""2052""
","
",,null,run_exp/static/images/task_images/gems/19.jpg,null,,,,,,,16,,,6,,,,,19,0.82073794,0.842105263,,,,,,,
decision,223,697152,0.0-71.0-2.0,"""event"",""trial"",""time""
""fullscreenenter"",""1"",""2052""
","
","
","""event"",""trial"",""time""
""fullscreenenter"",""1"",""2052""
","
",,171.8,run_exp/static/images/task_images/land.jpg,65,,,,,,,16,,,6,,,,,,,,273430,1,7,FALSE,,,
dig,224,699982,0.0-72.0-0.0,"""event"",""trial"",""time""
""fullscreenenter"",""1"",""2052""
","
","
","""event"",""trial"",""time""
""fullscreenenter"",""1"",""2052""
","
",,,,,,,,,,,,"[{""stimulus"":""run_exp/static/images/task_images/dig.jpg"",""time"":0.10000002384185791},{""stimulus"":""run_exp/static/images/task_images/land.jpg"",""time"":944.5},{""stimulus"":""run_exp/static/images/task_images/dig.jpg"",""time"":1885.7000000178814}]",[],6,,,,,,,,,,,,,,
harvest,225,700983,0.0-72.0-1.0,"""event"",""trial"",""time""
""fullscreenenter"",""1"",""2052""
","
","
","""event"",""trial"",""time""
""fullscreenenter"",""1"",""2052""
","
",,null,run_exp/static/images/task_images/gems/16.jpg,null,,,,,,,14,,,6,,,,,16,0.865523296,0.875,,,,,,,
decision,226,701409,0.0-72.0-2.0,"""event"",""trial"",""time""
""fullscreenenter"",""1"",""2052""
","
","
","""event"",""trial"",""time""
""fullscreenenter"",""1"",""2052""
","
",,424.3,run_exp/static/images/task_images/land.jpg,65,,,,,,,14,,,6,,,,,,,,277687,1,8,FALSE,,,
dig,227,703986,0.0-73.0-0.0,"""event"",""trial"",""time""
""fullscreenenter"",""1"",""2052""
","
","
","""event"",""trial"",""time""
""fullscreenenter"",""1"",""2052""
","
",,,,,,,,,,,,"[{""stimulus"":""run_exp/static/images/task_images/dig.jpg"",""time"":0.10000002384185791},{""stimulus"":""run_exp/static/images/task_images/land.jpg"",""time"":860.3000000119209},{""stimulus"":""run_exp/static/images/task_images/dig.jpg"",""time"":1718.1000000238419}]",[],6,,,,,,,,,,,,,,
harvest,228,704988,0.0-73.0-1.0,"""event"",""trial"",""time""
""fullscreenenter"",""1"",""2052""
","
","
","""event"",""trial"",""time""
""fullscreenenter"",""1"",""2052""
","
",,null,run_exp/static/images/task_images/gems/14.jpg,null,,,,,,,12,,,6,,,,,14,0.846469701,0.857142857,,,,,,,
decision,229,705216,0.0-73.0-2.0,"""event"",""trial"",""time""
""fullscreenenter"",""1"",""2052""
","
","
","""event"",""trial"",""time""
""fullscreenenter"",""1"",""2052""
","
",,227.8,run_exp/static/images/task_images/land.jpg,65,,,,,,,12,,,6,,,,,,,,281494,1,9,FALSE,,,
dig,230,707992,0.0-74.0-0.0,"""event"",""trial"",""time""
""fullscreenenter"",""1"",""2052""
","
","
","""event"",""trial"",""time""
""fullscreenenter"",""1"",""2052""
","
",,,,,,,,,,,,"[{""stimulus"":""run_exp/static/images/task_images/dig.jpg"",""time"":0.09999999403953552},{""stimulus"":""run_exp/static/images/task_images/land.jpg"",""time"":925.7999999821186},{""stimulus"":""run_exp/static/images/task_images/dig.jpg"",""time"":1850.5}]",[],6,,,,,,,,,,,,,,
harvest,231,708993,0.0-74.0-1.0,"""event"",""trial"",""time""
""fullscreenenter"",""1"",""2052""
","
","
","""event"",""trial"",""time""
""fullscreenenter"",""1"",""2052""
","
",,null,run_exp/static/images/task_images/gems/12.jpg,null,,,,,,,10,,,6,,,,,12,0.84222493,0.833333333,,,,,,,
decision,232,709056,0.0-74.0-2.0,"""event"",""trial"",""time""
""fullscreenenter"",""1"",""2052""
","
","
","""event"",""trial"",""time""
""fullscreenenter"",""1"",""2052""
","
",,61.79999998,run_exp/static/images/task_images/land.jpg,65,,,,,,,10,,,6,,,,,,,,285334,1,10,FALSE,,,
dig,233,711997,0.0-75.0-0.0,"""event"",""trial"",""time""
""fullscreenenter"",""1"",""2052""
","
","
","""event"",""trial"",""time""
""fullscreenenter"",""1"",""2052""
","
",,,,,,,,,,,,"[{""stimulus"":""run_exp/static/images/task_images/dig.jpg"",""time"":0.10000002384185791},{""stimulus"":""run_exp/static/images/task_images/land.jpg"",""time"":980.6000000238419},{""stimulus"":""run_exp/static/images/task_images/dig.jpg"",""time"":1959.4000000059605}]",[],6,,,,,,,,,,,,,,
harvest,234,712999,0.0-75.0-1.0,"""event"",""trial"",""time""
""fullscreenenter"",""1"",""2052""
","
","
","""event"",""trial"",""time""
""fullscreenenter"",""1"",""2052""
","
",,null,run_exp/static/images/task_images/gems/10.jpg,null,,,,,,,9,,,6,,,,,10,0.864190594,0.9,,,,,,,
decision,235,713016,0.0-75.0-2.0,"""event"",""trial"",""time""
""fullscreenenter"",""1"",""2052""
","
","
","""event"",""trial"",""time""
""fullscreenenter"",""1"",""2052""
","
",,16.70000002,run_exp/static/images/task_images/land.jpg,65,,,,,,,9,,,6,,,,,,,,289294,1,11,FALSE,,,
dig,236,716002,0.0-76.0-0.0,"""event"",""trial"",""time""
""fullscreenenter"",""1"",""2052""
","
","
","""event"",""trial"",""time""
""fullscreenenter"",""1"",""2052""
","
",,,,,,,,,,,,"[{""stimulus"":""run_exp/static/images/task_images/dig.jpg"",""time"":0.20000001788139343},{""stimulus"":""run_exp/static/images/task_images/land.jpg"",""time"":995.9000000059605},{""stimulus"":""run_exp/static/images/task_images/dig.jpg"",""time"":1989.7000000178814}]",[],6,,,,,,,,,,,,,,
harvest,237,717004,0.0-76.0-1.0,"""event"",""trial"",""time""
""fullscreenenter"",""1"",""2052""
","
","
","""event"",""trial"",""time""
""fullscreenenter"",""1"",""2052""
","
",,null,run_exp/static/images/task_images/gems/9.jpg,null,,,,,,,8,,,6,,,,,9,0.839418929,0.888888889,,,,,,,
decision,238,717136,0.0-76.0-2.0,"""event"",""trial"",""time""
""fullscreenenter"",""1"",""2052""
","
","
","""event"",""trial"",""time""
""fullscreenenter"",""1"",""2052""
","
",,131.7,run_exp/static/images/task_images/land.jpg,65,,,,,,,8,,,6,,,,,,,,293415,1,12,FALSE,,,
dig,239,720007,0.0-77.0-0.0,"""event"",""trial"",""time""
""fullscreenenter"",""1"",""2052""
","
","
","""event"",""trial"",""time""
""fullscreenenter"",""1"",""2052""
","
",,,,,,,,,,,,"[{""stimulus"":""run_exp/static/images/task_images/dig.jpg"",""time"":0},{""stimulus"":""run_exp/static/images/task_images/land.jpg"",""time"":957.5},{""stimulus"":""run_exp/static/images/task_images/dig.jpg"",""time"":1913.9000000059605}]",[],6,,,,,,,,,,,,,,
harvest,240,721009,0.0-77.0-1.0,"""event"",""trial"",""time""
""fullscreenenter"",""1"",""2052""
","
","
","""event"",""trial"",""time""
""fullscreenenter"",""1"",""2052""
","
",,null,run_exp/static/images/task_images/gems/8.jpg,null,,,,,,,6,,,6,,,,,8,0.771452175,0.75,,,,,,,
decision,241,721104,0.0-77.0-2.0,"""event"",""trial"",""time""
""fullscreenenter"",""1"",""2052""
","
","
","""event"",""trial"",""time""
""fullscreenenter"",""1"",""2052""
","
",,94.70000002,run_exp/static/images/task_images/land.jpg,65,,,,,,,6,,,6,,,,,,,,297382,1,13,FALSE,,,
dig,242,724012,0.0-78.0-0.0,"""event"",""trial"",""time""
""fullscreenenter"",""1"",""2052""
","
","
","""event"",""trial"",""time""
""fullscreenenter"",""1"",""2052""
","
",,,,,,,,,,,,"[{""stimulus"":""run_exp/static/images/task_images/dig.jpg"",""time"":0.09999999403953552},{""stimulus"":""run_exp/static/images/task_images/land.jpg"",""time"":970.3999999761581},{""stimulus"":""run_exp/static/images/task_images/dig.jpg"",""time"":1937.0999999940395}]",[],6,,,,,,,,,,,,,,
harvest,243,725014,0.0-78.0-1.0,"""event"",""trial"",""time""
""fullscreenenter"",""1"",""2052""
","
","
","""event"",""trial"",""time""
""fullscreenenter"",""1"",""2052""
","
",,null,run_exp/static/images/task_images/gems/6.jpg,null,,,,,,,5,,,6,,,,,6,0.80746505,0.833333333,,,,,,,
decision,244,725048,0.0-78.0-2.0,"""event"",""trial"",""time""
""fullscreenenter"",""1"",""2052""
","
","
","""event"",""trial"",""time""
""fullscreenenter"",""1"",""2052""
","
",,33.69999999,run_exp/static/images/task_images/land.jpg,65,,,,,,,5,,,6,,,,,,,,301326,1,14,TRUE,,,
end_of_block_continue,245,733885,0.0-79.0-0.0,"""event"",""trial"",""time""
""fullscreenenter"",""1"",""2052""
","
","
","""event"",""trial"",""time""
""fullscreenenter"",""1"",""2052""
","
",,null,run_exp/static/audio/clip_32_block_end.m4a,,,,,,,null,,,,,,,,,,,,,,,,,,
alien_welcome,246,738889,0.0-80.0-0.0,"""event"",""trial"",""time""
""fullscreenenter"",""1"",""2052""
","
","
","""event"",""trial"",""time""
""fullscreenenter"",""1"",""2052""
","
",,null,run_exp/static/images/task_images/aliens/old_aliens/planet/alien_planet-43.jpg,null,,,,,,,,,,,,,43,"1,48,24,72,12,55,43,70,11,32,61,74,13,69,2,50,14,40,6,64,59,67,38,79",,,,,,,,,,
land,247,739391,0.0-80.0-1.0,"""event"",""trial"",""time""
""fullscreenenter"",""1"",""2052""
","
","
","""event"",""trial"",""time""
""fullscreenenter"",""1"",""2052""
","
",,null,run_exp/static/images/task_images/land.jpg,null,,,,,,,97,,,7,,,,,,,,,,,,,,
dig,248,741394,0.0-80.0-2.0,"""event"",""trial"",""time""
""fullscreenenter"",""1"",""2052""
","
","
","""event"",""trial"",""time""
""fullscreenenter"",""1"",""2052""
","
",,,,,,,,,,,,"[{""stimulus"":""run_exp/static/images/task_images/dig.jpg"",""time"":0.19999998807907104},{""stimulus"":""run_exp/static/images/task_images/land.jpg"",""time"":669.8000000119209},{""stimulus"":""run_exp/static/images/task_images/dig.jpg"",""time"":1334.699999988079}]",[],7,,,,,,,,,,,,,,
harvest,249,742397,0.0-80.0-3.0,"""event"",""trial"",""time""
""fullscreenenter"",""1"",""2052""
","
","
","""event"",""trial"",""time""
""fullscreenenter"",""1"",""2052""
","
",,null,run_exp/static/images/task_images/gems/97.jpg,null,,,,,,,19,,,7,,,,,97,0.193317199,0.195876289,,,,,,,
decision,250,742728,0.0-80.0-4.0,"""event"",""trial"",""time""
""fullscreenenter"",""1"",""2052""
","
","
","""event"",""trial"",""time""
""fullscreenenter"",""1"",""2052""
","
",,330.5,run_exp/static/images/task_images/land.jpg,65,,,,,,,19,,,7,,,,,,,,8841,2,0,FALSE,,,
dig,251,745399,0.0-81.0-0.0,"""event"",""trial"",""time""
""fullscreenenter"",""1"",""2052""
","
","
","""event"",""trial"",""time""
""fullscreenenter"",""1"",""2052""
","
",,,,,,,,,,,,"[{""stimulus"":""run_exp/static/images/task_images/dig.jpg"",""time"":0.20000001788139343},{""stimulus"":""run_exp/static/images/task_images/land.jpg"",""time"":890.3000000119209},{""stimulus"":""run_exp/static/images/task_images/dig.jpg"",""time"":1780.4000000059605}]",[],7,,,,,,,,,,,,,,
harvest,252,746400,0.0-81.0-1.0,"""event"",""trial"",""time""
""fullscreenenter"",""1"",""2052""
","
","
","""event"",""trial"",""time""
""fullscreenenter"",""1"",""2052""
","
",,null,run_exp/static/images/task_images/gems/19.jpg,null,,,,,,,4,,,7,,,,,19,0.193363377,0.210526316,,,,,,,
decision,253,746552,0.0-81.0-2.0,"""event"",""trial"",""time""
""fullscreenenter"",""1"",""2052""
","
","
","""event"",""trial"",""time""
""fullscreenenter"",""1"",""2052""
","
",,150.9,run_exp/static/images/task_images/land.jpg,65,,,,,,,4,,,7,,,,,,,,12665,2,1,FALSE,,,
dig,254,749403,0.0-82.0-0.0,"""event"",""trial"",""time""
""fullscreenenter"",""1"",""2052""
","
","
","""event"",""trial"",""time""
""fullscreenenter"",""1"",""2052""
","
",,,,,,,,,,,,"[{""stimulus"":""run_exp/static/images/task_images/dig.jpg"",""time"":0.09999999403953552},{""stimulus"":""run_exp/static/images/task_images/land.jpg"",""time"":950.4000000059605},{""stimulus"":""run_exp/static/images/task_images/dig.jpg"",""time"":1899.7999999821186}]",[],7,,,,,,,,,,,,,,
harvest,255,750405,0.0-82.0-1.0,"""event"",""trial"",""time""
""fullscreenenter"",""1"",""2052""
","
","
","""event"",""trial"",""time""
""fullscreenenter"",""1"",""2052""
","
",,null,run_exp/static/images/task_images/gems/4.jpg,null,,,,,,,1,,,7,,,,,4,0.130339425,0.25,,,,,,,
decision,256,750704,0.0-82.0-2.0,"""event"",""trial"",""time""
""fullscreenenter"",""1"",""2052""
","
","
","""event"",""trial"",""time""
""fullscreenenter"",""1"",""2052""
","
",,298.4,run_exp/static/images/task_images/land.jpg,65,,,,,,,1,,,7,,,,,,,,16817,2,2,FALSE,,,
dig,257,753409,0.0-83.0-0.0,"""event"",""trial"",""time""
""fullscreenenter"",""1"",""2052""
","
","
","""event"",""trial"",""time""
""fullscreenenter"",""1"",""2052""
","
",,,,,,,,,,,,"[{""stimulus"":""run_exp/static/images/task_images/dig.jpg"",""time"":0},{""stimulus"":""run_exp/static/images/task_images/land.jpg"",""time"":901.4000000059605},{""stimulus"":""run_exp/static/images/task_images/dig.jpg"",""time"":1801.300000011921}]",[],7,,,,,,,,,,,,,,
harvest,258,754411,0.0-83.0-1.0,"""event"",""trial"",""time""
""fullscreenenter"",""1"",""2052""
","
","
","""event"",""trial"",""time""
""fullscreenenter"",""1"",""2052""
","
",,null,run_exp/static/images/task_images/gems/1.jpg,null,,,,,,,0,,,7,,,,,1,0.321449811,0,,,,,,,
