trial_type,trial_index,time_elapsed,internal_node_id,interactions,blur_events,focus_events,fullscreenenter_events,fullscreenexit_events,success,rt,stimulus,key_press,prompt,subject_id,participant_id,age,gender,button_pressed,next_reward,animation_sequence,responses,planet,curr_prac_trial,n_prac_rounds,alien,aliens,reward_received,decay_rate_actual,decay_rate_exp,time_in_block,block_num,prt,last_trial_on_planet,button_html,bonus,num_failures
pavlovia,0,4,0.0-0.0,"""event"",""trial"",""time""
""fullscreenenter"",""1"",""2692""
","
","
","""event"",""trial"",""time""
""fullscreenenter"",""1"",""2692""
","
",,,,,,,,,,,,,,,,,,,,,,,,,,,,
fullscreen,1,3684,0.0-1.0,"""event"",""trial"",""time""
""fullscreenenter"",""1"",""2692""
","
","
","""event"",""trial"",""time""
""fullscreenenter"",""1"",""2692""
","
",TRUE,,,,,,,,,,,,,,,,,,,,,,,,,,,
instruc_welcome,2,13436,0.0-2.0,"""event"",""trial"",""time""
""fullscreenenter"",""1"",""2692""
","
","
","""event"",""trial"",""time""
""fullscreenenter"",""1"",""2692""
","
",,null,run_exp/static/audio/clip_1_welcome.m4a,null,"<p>Howdy! In this experiment, you’ll be an explorer traveling through space to collect space treasure.</p><p>Your mission is to collect as much treasure as possible.</p><br><br><p><img src='run_exp/static/images/task_images/opening_img-01.jpg' height='300' width='auto'></p>",9261,2603,19.32,Female,,,,,,,,,,,,,,,,,,,
audio-keyboard-response,3,30011,0.0-3.0,"""event"",""trial"",""time""
""fullscreenenter"",""1"",""2692""
","
","
","""event"",""trial"",""time""
""fullscreenenter"",""1"",""2692""
","
",,null,run_exp/static/audio/clip_2_move.m4a,null,,,,,,,,,,,,,,,,,,,,,,,,
welcome_dec,4,31358,0.0-4.0,"""event"",""trial"",""time""
""fullscreenenter"",""1"",""2692""
","
","
","""event"",""trial"",""time""
""fullscreenenter"",""1"",""2692""
","
",,1340.8,"<p>Howdy! In this experiment, you’ll be an explorer traveling through space to collect space treasure.</p><p>Your mission is to collect as much treasure as possible.</p><br><br><p><img src='run_exp/static/images/task_images/opening_img-01.jpg' height='300' width='auto'></p>",,,,,,,1,,,,,,,,,,,,,,,,,,
html-keyboard-response,5,32111,0.0-5.0,"""event"",""trial"",""time""
""fullscreenenter"",""1"",""2692""
","
","
","""event"",""trial"",""time""
""fullscreenenter"",""1"",""2692""
","
",,749.2,"<p>Howdy! In this experiment, you’ll be an explorer traveling through space to collect space treasure.</p><p>Your mission is to collect as much treasure as possible.</p><br><br><p><img src='run_exp/static/images/task_images/opening_img-01.jpg' height='300' width='auto'></p><button class=""jspsych-html-btn-unchosen""><img src=""run_exp/static/images/task_images/planet-01.jpg"" height=""50""></button><button class=""jspsych-html-btn-chosen""><img src=""run_exp/static/images/task_images/planet-02.jpg"" height=""50""></button><p><b>[press the space bar to lock in your answer]<b><br></p>",32,,,,,,,,,,,,,,,,,,,,,,,,
instruc_goal,6,42149,0.0-6.0-0.0,"""event"",""trial"",""time""
""fullscreenenter"",""1"",""2692""
","
","
","""event"",""trial"",""time""
""fullscreenenter"",""1"",""2692""
","
",,null,run_exp/static/audio/clip_3_goal.m4a,null,"<p> As a space explorer, you’ll visit different planets to dig for space treasure, these pink gems.</p> <p> The more treasure you dig up, the more bonus money you’ll win! </p><br><br><p><img src='run_exp/static/images/task_images/pink_gem.jpg' height='300' width='auto'></p>",,,,,,,,,,,,,,,,,,,,,,,
instruc_goal,7,43534,0.0-6.0-1.0,"""event"",""trial"",""time""
""fullscreenenter"",""1"",""2692""
","
","
","""event"",""trial"",""time""
""fullscreenenter"",""1"",""2692""
","
",,1381.3,"<p> As a space explorer, you’ll visit different planets to dig for space treasure, these pink gems.</p> <p> The more treasure you dig up, the more bonus money you’ll win! </p><br><br><p><img src='run_exp/static/images/task_images/pink_gem.jpg' height='300' width='auto'></p>",,,,,,,1,,,,,,,,,,,,,,,,,,
html-keyboard-response,8,44064,0.0-6.0-2.0,"""event"",""trial"",""time""
""fullscreenenter"",""1"",""2692""
","
","
","""event"",""trial"",""time""
""fullscreenenter"",""1"",""2692""
","
",,527.7,"<p> As a space explorer, you’ll visit different planets to dig for space treasure, these pink gems.</p> <p> The more treasure you dig up, the more bonus money you’ll win! </p><br><br><p><img src='run_exp/static/images/task_images/pink_gem.jpg' height='300' width='auto'></p><button class=""jspsych-html-btn-unchosen""><img src=""run_exp/static/images/task_images/planet-01.jpg"" height=""50""></button><button class=""jspsych-html-btn-chosen""><img src=""run_exp/static/images/task_images/planet-02.jpg"" height=""50""></button><p><b>[press the space bar to lock in your answer]<b><br></p>",32,,,,,,,,,,,,,,,,,,,,,,,,
instruc_dig,9,60070,0.0-7.0-0.0,"""event"",""trial"",""time""
""fullscreenenter"",""1"",""2692""
","
","
","""event"",""trial"",""time""
""fullscreenenter"",""1"",""2692""
","
",,null,run_exp/static/audio/clip_4_dig.m4a,null,,,,,,,100,,,,,,,,,,,,,,,,,
instruc_dig_try,10,60342,0.0-7.0-1.0,"""event"",""trial"",""time""
""fullscreenenter"",""1"",""2692""
","
","
","""event"",""trial"",""time""
""fullscreenenter"",""1"",""2692""
","
",,269.2,"<p> When you’ve arrived at a new planet, you will dig once. </p> <p>Then, you get to decide if you want to stay on the planet and dig again or travel to a new planet and dig there.</p> <p> To stay and dig, press the letter <strong>‘A’</strong> on your keyboard. Try pressing it now! </p><p><img src='run_exp/static/images/task_images/land.jpg'  height='700' width='auto'></p>",65,"<p> When you’ve arrived at a new planet, you will dig once. </p> <p>Then, you get to decide if you want to stay on the planet and dig again or travel to a new planet and dig there.</p> <p> To stay and dig, press the letter <strong>‘A’</strong> on your keyboard. Try pressing it now! </p><p><img src='run_exp/static/images/task_images/land.jpg'  height='700' width='auto'></p>",,,,,,100,,,,,,,,,,,,,,,,,
dig_prac,11,62354,0.0-7.0-2.0,"""event"",""trial"",""time""
""fullscreenenter"",""1"",""2692""
","
","
","""event"",""trial"",""time""
""fullscreenenter"",""1"",""2692""
","
",,,,,,,,,,,,"[{""stimulus"":""run_exp/static/images/task_images/dig.jpg"",""time"":0.3999999910593033},{""stimulus"":""run_exp/static/images/task_images/land.jpg"",""time"":683.8999999910593},{""stimulus"":""run_exp/static/images/task_images/dig.jpg"",""time"":1342.8999999910593}]",[],,,,,,,,,,,,,,,
instruc_travel,12,98576,0.0-7.0-3.0,"""event"",""trial"",""time""
""fullscreenenter"",""1"",""2692""
","
","
","""event"",""trial"",""time""
""fullscreenenter"",""1"",""2692""
","
",,null,run_exp/static/audio/clip_5_travel.m4a,null,"<p>Every time you dig up gems, there are less gems on the planet, so the more you dig on a planet the fewer gems you’ll get with each dig.</p><p>When gems are running low, you may want to travel to a new planet. </p> <p>  Planets are very far apart in this galaxy, so it will take some time to travel between them. </p> <br><p>There are lots and lots of planets for you to visit, so you won’t be able to return to any planets you’ve seen before. </p><br><p>To leave this planet and travel to a new one, press the letter <strong>‘L’</strong> on your keyboard. Try pressing it now! </p><p><img src='run_exp/static/images/task_images/rocket-01.jpg'  height='600' width='auto'></p>",,,,,,,,,,,,,,,,,,,,,,,
instruc_travel_try,13,99990,0.0-7.0-4.0,"""event"",""trial"",""time""
""fullscreenenter"",""1"",""2692""
","
","
","""event"",""trial"",""time""
""fullscreenenter"",""1"",""2692""
","
",,1408.5,"<p>Every time you dig up gems, there are less gems on the planet, so the more you dig on a planet the fewer gems you’ll get with each dig.</p><p>When gems are running low, you may want to travel to a new planet. </p> <p>  Planets are very far apart in this galaxy, so it will take some time to travel between them. </p> <br><p>There are lots and lots of planets for you to visit, so you won’t be able to return to any planets you’ve seen before. </p><br><p>To leave this planet and travel to a new one, press the letter <strong>‘L’</strong> on your keyboard. Try pressing it now! </p><p><img src='run_exp/static/images/task_images/rocket-01.jpg'  height='600' width='auto'></p>",76,"<p>Every time you dig up gems, there are less gems on the planet, so the more you dig on a planet the fewer gems you’ll get with each dig.</p><p>When gems are running low, you may want to travel to a new planet. </p> <p>  Planets are very far apart in this galaxy, so it will take some time to travel between them. </p> <br><p>There are lots and lots of planets for you to visit, so you won’t be able to return to any planets you’ve seen before. </p><br><p>To leave this planet and travel to a new one, press the letter <strong>‘L’</strong> on your keyboard. Try pressing it now! </p><p><img src='run_exp/static/images/task_images/rocket-01.jpg'  height='600' width='auto'></p>",,,,,,,,,,,,,,,,,,,,,,,
travel_prac,14,109996,0.0-7.0-5.0,"""event"",""trial"",""time""
""fullscreenenter"",""1"",""2692""
","
","
","""event"",""trial"",""time""
""fullscreenenter"",""1"",""2692""
","
",,,,,,,,,,,,"[{""stimulus"":""run_exp/static/images/task_images/rocket-01.jpg"",""time"":0.29999999701976776},{""stimulus"":""run_exp/static/images/task_images/rocket-02.jpg"",""time"":1116.3999999910593},{""stimulus"":""run_exp/static/images/task_images/rocket-03.jpg"",""time"":2227.8999999910593},{""stimulus"":""run_exp/static/images/task_images/rocket-04.jpg"",""time"":3338.3999999910593},{""stimulus"":""run_exp/static/images/task_images/rocket-05.jpg"",""time"":4450.0999999940395},{""stimulus"":""run_exp/static/images/task_images/rocket-06.jpg"",""time"":5563.79999999702},{""stimulus"":""run_exp/static/images/task_images/rocket-07.jpg"",""time"":6676.399999991059},{""stimulus"":""run_exp/static/images/task_images/rocket-08.jpg"",""time"":7790.5},{""stimulus"":""run_exp/static/images/task_images/rocket-09.jpg"",""time"":8900.09999999404}]",[],0,,,,,,,,,,,,,,
instruc_alien_greet,15,137188,0.0-7.0-6.0,"""event"",""trial"",""time""
""fullscreenenter"",""1"",""2692""
","
","
","""event"",""trial"",""time""
""fullscreenenter"",""1"",""2692""
","
",,null,run_exp/static/audio/clip_6_alien.m4a,null,"<p>When you arrive at a new planet, the alien who owns the treasure mine on that planet will greet you!</p><p>The better an alien takes care of their mine the easier it is to dig for gems. Some aliens take better care of their mine than others. So, you won’t get exactly the same amount of gems on each planet.</p><p>What the alien looks like does not tell you anything about how many gems there are on the planet.</p><br><p><img src=""run_exp/static/images/task_images/aliens/instructions_aliens/planet/alien_planet-1.jpg""  height=""600"" width=""auto""></p>",,,,,,,,,,,,,,,,,,,,,,,
instruc_alien_greet,16,138404,0.0-7.0-7.0,"""event"",""trial"",""time""
""fullscreenenter"",""1"",""2692""
","
","
","""event"",""trial"",""time""
""fullscreenenter"",""1"",""2692""
","
",,1212.9,"<p>When you arrive at a new planet, the alien who owns the treasure mine on that planet will greet you!</p><p>The better an alien takes care of their mine the easier it is to dig for gems. Some aliens take better care of their mine than others. So, you won’t get exactly the same amount of gems on each planet.</p><p>What the alien looks like does not tell you anything about how many gems there are on the planet.</p><br><p><img src=""run_exp/static/images/task_images/aliens/instructions_aliens/planet/alien_planet-1.jpg""  height=""600"" width=""auto""></p>",,,,,,,1,,,,,,,,,,,,,,,,,,
html-keyboard-response,17,138642,0.0-7.0-8.0,"""event"",""trial"",""time""
""fullscreenenter"",""1"",""2692""
","
","
","""event"",""trial"",""time""
""fullscreenenter"",""1"",""2692""
","
",,236.1,"<p>When you arrive at a new planet, the alien who owns the treasure mine on that planet will greet you!</p><p>The better an alien takes care of their mine the easier it is to dig for gems. Some aliens take better care of their mine than others. So, you won’t get exactly the same amount of gems on each planet.</p><p>What the alien looks like does not tell you anything about how many gems there are on the planet.</p><br><p><img src=""run_exp/static/images/task_images/aliens/instructions_aliens/planet/alien_planet-1.jpg""  height=""600"" width=""auto""></p><button class=""jspsych-html-btn-unchosen""><img src=""run_exp/static/images/task_images/planet-01.jpg"" height=""50""></button><button class=""jspsych-html-btn-chosen""><img src=""run_exp/static/images/task_images/planet-02.jpg"" height=""50""></button><p><b>[press the space bar to lock in your answer]<b><br></p>",32,,,,,,,,,,,,,,,,,,,,,,,,
time_out,18,149711,0.0-8.0-0.0,"""event"",""trial"",""time""
""fullscreenenter"",""1"",""2692""
","
","
","""event"",""trial"",""time""
""fullscreenenter"",""1"",""2692""
","
",,null,run_exp/static/audio/clip_7_timeout.m4a,null,"<p>If you don't make your choice fast enough, you’ll have to wait a few seconds before you can make another one.</p><p>You can’t dig for more gems or travel to new planets. You just have to sit and wait.</p><br><p><img src='run_exp/static/images/task_images/time_out.jpg'  height='600' width='auto'></p>",,,,,,,,,,,,,,,,,,,,,,,
time_out,19,151192,0.0-8.0-1.0,"""event"",""trial"",""time""
""fullscreenenter"",""1"",""2692""
","
","
","""event"",""trial"",""time""
""fullscreenenter"",""1"",""2692""
","
",,1477.1,"<p>If you don't make your choice fast enough, you’ll have to wait a few seconds before you can make another one.</p><p>You can’t dig for more gems or travel to new planets. You just have to sit and wait.</p><br><p><img src='run_exp/static/images/task_images/time_out.jpg'  height='600' width='auto'></p>",,,,,,,1,,,,,,,,,,,,,,,,,,
html-keyboard-response,20,151554,0.0-8.0-2.0,"""event"",""trial"",""time""
""fullscreenenter"",""1"",""2692""
","
","
","""event"",""trial"",""time""
""fullscreenenter"",""1"",""2692""
","
",,359.2,"<p>If you don't make your choice fast enough, you’ll have to wait a few seconds before you can make another one.</p><p>You can’t dig for more gems or travel to new planets. You just have to sit and wait.</p><br><p><img src='run_exp/static/images/task_images/time_out.jpg'  height='600' width='auto'></p><button class=""jspsych-html-btn-unchosen""><img src=""run_exp/static/images/task_images/planet-01.jpg"" height=""50""></button><button class=""jspsych-html-btn-chosen""><img src=""run_exp/static/images/task_images/planet-02.jpg"" height=""50""></button><p><b>[press the space bar to lock in your answer]<b><br></p>",32,,,,,,,,,,,,,,,,,,,,,,,,
instruc_break,21,167247,0.0-9.0-0.0,"""event"",""trial"",""time""
""fullscreenenter"",""1"",""2692""
","
","
","""event"",""trial"",""time""
""fullscreenenter"",""1"",""2692""
","
",,null,run_exp/static/audio/clip_8_break.m4a,null,"<p> After digging and traveling for a while, you’ll be able to take a break at home base. </p><p>The game will last 20 minutes no matter what.</p><p>You will visit home base every 5 minutes, so, you will visit home base three times during the game.</p><br><p><img src='run_exp/static/images/task_images/home_base.jpg' height='600' width='auto'></p>",,,,,,,,,,,,,,,,,,,,,,,
instruc_break,22,167893,0.0-9.0-1.0,"""event"",""trial"",""time""
""fullscreenenter"",""1"",""2692""
","
","
","""event"",""trial"",""time""
""fullscreenenter"",""1"",""2692""
","
",,642.1,"<p> After digging and traveling for a while, you’ll be able to take a break at home base. </p><p>The game will last 20 minutes no matter what.</p><p>You will visit home base every 5 minutes, so, you will visit home base three times during the game.</p><br><p><img src='run_exp/static/images/task_images/home_base.jpg' height='600' width='auto'></p>",,,,,,,1,,,,,,,,,,,,,,,,,,
html-keyboard-response,23,168117,0.0-9.0-2.0,"""event"",""trial"",""time""
""fullscreenenter"",""1"",""2692""
","
","
","""event"",""trial"",""time""
""fullscreenenter"",""1"",""2692""
","
",,222.4,"<p> After digging and traveling for a while, you’ll be able to take a break at home base. </p><p>The game will last 20 minutes no matter what.</p><p>You will visit home base every 5 minutes, so, you will visit home base three times during the game.</p><br><p><img src='run_exp/static/images/task_images/home_base.jpg' height='600' width='auto'></p><button class=""jspsych-html-btn-unchosen""><img src=""run_exp/static/images/task_images/planet-01.jpg"" height=""50""></button><button class=""jspsych-html-btn-chosen""><img src=""run_exp/static/images/task_images/planet-02.jpg"" height=""50""></button><p><b>[press the space bar to lock in your answer]<b><br></p>",32,,,,,,,,,,,,,,,,,,,,,,,,
instruc_prac_game,24,178234,0.0-10.0-0.0,"""event"",""trial"",""time""
""fullscreenenter"",""1"",""2692""
","
","
","""event"",""trial"",""time""
""fullscreenenter"",""1"",""2692""
","
",,null,run_exp/static/audio/clip_9_practice.m4a,null,"<p> Are you ready to play a practice game? </p> <p>In this practice game, you'll be digging up barrels of gems. But, in the real game, you'll be digging up the gems themselves. </p>",,,,,,,,,,,,,,,,,,,,,,,
html-button-response,25,179308,0.0-10.0-1.0,"""event"",""trial"",""time""
""fullscreenenter"",""1"",""2692""
","
","
","""event"",""trial"",""time""
""fullscreenenter"",""1"",""2692""
","
",,1070.5,"<p> Are you ready to play a practice game? </p> <p>In this practice game, you'll be digging up barrels of gems. But, in the real game, you'll be digging up the gems themselves. </p>",,,,,,,0,,,,,,,,,,,,,,,,,,
alien_welcome_prac,26,184314,0.0-11.0-0.0,"""event"",""trial"",""time""
""fullscreenenter"",""1"",""2692""
","
","
","""event"",""trial"",""time""
""fullscreenenter"",""1"",""2692""
","
",,null,run_exp/static/images/task_images/aliens/practice_aliens/planet/alien_planet-5.jpg,null,,,,,,,,,,,,,,,,,,,,,,,,
land_prac,27,184826,0.0-11.0-1.0,"""event"",""trial"",""time""
""fullscreenenter"",""1"",""2692""
","
","
","""event"",""trial"",""time""
""fullscreenenter"",""1"",""2692""
","
",,null,run_exp/static/images/task_images/land.jpg,null,,,,,,,98,,,0,,,,,,,,,,,,,,
dig_prac,28,186837,0.0-11.0-2.0,"""event"",""trial"",""time""
""fullscreenenter"",""1"",""2692""
","
","
","""event"",""trial"",""time""
""fullscreenenter"",""1"",""2692""
","
",,,,,,,,,,,,"[{""stimulus"":""run_exp/static/images/task_images/dig.jpg"",""time"":0.7999999970197678},{""stimulus"":""run_exp/static/images/task_images/land.jpg"",""time"":676.7000000029802},{""stimulus"":""run_exp/static/images/task_images/dig.jpg"",""time"":1340.8999999910593}]",[],,,,,,,,,,,,,,,
harvest_prac,29,187843,0.0-11.0-3.0,"""event"",""trial"",""time""
""fullscreenenter"",""1"",""2692""
","
","
","""event"",""trial"",""time""
""fullscreenenter"",""1"",""2692""
","
",,null,run_exp/static/images/task_images/barrel_text.jpg,null,,,,,,,,,,,,,,,,,,,,,,,,
decision_prac,30,188051,0.0-11.0-4.0,"""event"",""trial"",""time""
""fullscreenenter"",""1"",""2692""
","
","
","""event"",""trial"",""time""
""fullscreenenter"",""1"",""2692""
","
",,204.8,run_exp/static/images/task_images/land.jpg,65,,,,,,,,,,,1,,,,,,,,,,,,,
dig_prac,31,190062,0.0-12.0-0.0,"""event"",""trial"",""time""
""fullscreenenter"",""1"",""2692""
","
","
","""event"",""trial"",""time""
""fullscreenenter"",""1"",""2692""
","
",,,,,,,,,,,,"[{""stimulus"":""run_exp/static/images/task_images/dig.jpg"",""time"":0.09999999403953552},{""stimulus"":""run_exp/static/images/task_images/land.jpg"",""time"":679.7000000029802},{""stimulus"":""run_exp/static/images/task_images/dig.jpg"",""time"":1340.7000000029802}]",[],,,,,,,,,,,,,,,
harvest_prac,32,191067,0.0-12.0-1.0,"""event"",""trial"",""time""
""fullscreenenter"",""1"",""2692""
","
","
","""event"",""trial"",""time""
""fullscreenenter"",""1"",""2692""
","
",,null,run_exp/static/images/task_images/barrel_text.jpg,null,,,,,,,,,,,,,,,,,,,,,,,,
decision_prac,33,191619,0.0-12.0-2.0,"""event"",""trial"",""time""
""fullscreenenter"",""1"",""2692""
","
","
","""event"",""trial"",""time""
""fullscreenenter"",""1"",""2692""
","
",,548.9,run_exp/static/images/task_images/land.jpg,65,,,,,,,,,,,2,,,,,,,,,,,,,
dig_prac,34,193637,0.0-13.0-0.0,"""event"",""trial"",""time""
""fullscreenenter"",""1"",""2692""
","
","
","""event"",""trial"",""time""
""fullscreenenter"",""1"",""2692""
","
",,,,,,,,,,,,"[{""stimulus"":""run_exp/static/images/task_images/dig.jpg"",""time"":0.19999998807907104},{""stimulus"":""run_exp/static/images/task_images/land.jpg"",""time"":675.5999999940395},{""stimulus"":""run_exp/static/images/task_images/dig.jpg"",""time"":1343.3999999910593}]",[],,,,,,,,,,,,,,,
harvest_prac,35,194643,0.0-13.0-1.0,"""event"",""trial"",""time""
""fullscreenenter"",""1"",""2692""
","
","
","""event"",""trial"",""time""
""fullscreenenter"",""1"",""2692""
","
",,null,run_exp/static/images/task_images/barrel_text.jpg,null,,,,,,,,,,,,,,,,,,,,,,,,
decision_prac,36,196284,0.0-13.0-2.0,"""event"",""trial"",""time""
""fullscreenenter"",""1"",""2692""
","
","
","""event"",""trial"",""time""
""fullscreenenter"",""1"",""2692""
","
",,1638.5,run_exp/static/images/task_images/land.jpg,65,,,,,,,,,,,3,,,,,,,,,,,,,
dig_prac,37,198302,0.0-14.0-0.0,"""event"",""trial"",""time""
""fullscreenenter"",""1"",""2692""
","
","
","""event"",""trial"",""time""
""fullscreenenter"",""1"",""2692""
","
",,,,,,,,,,,,"[{""stimulus"":""run_exp/static/images/task_images/dig.jpg"",""time"":0.20000000298023224},{""stimulus"":""run_exp/static/images/task_images/land.jpg"",""time"":678},{""stimulus"":""run_exp/static/images/task_images/dig.jpg"",""time"":1338.7000000029802}]",[],,,,,,,,,,,,,,,
harvest_prac,38,199315,0.0-14.0-1.0,"""event"",""trial"",""time""
""fullscreenenter"",""1"",""2692""
","
","
","""event"",""trial"",""time""
""fullscreenenter"",""1"",""2692""
","
",,null,run_exp/static/images/task_images/barrel_text.jpg,null,,,,,,,,,,,,,,,,,,,,,,,,
decision_prac,39,200175,0.0-14.0-2.0,"""event"",""trial"",""time""
""fullscreenenter"",""1"",""2692""
","
","
","""event"",""trial"",""time""
""fullscreenenter"",""1"",""2692""
","
",,857.1,run_exp/static/images/task_images/land.jpg,65,,,,,,,,,,,4,,,,,,,,,,,,,
dig_prac,40,202188,0.0-15.0-0.0,"""event"",""trial"",""time""
""fullscreenenter"",""1"",""2692""
","
","
","""event"",""trial"",""time""
""fullscreenenter"",""1"",""2692""
","
",,,,,,,,,,,,"[{""stimulus"":""run_exp/static/images/task_images/dig.jpg"",""time"":0.30000001192092896},{""stimulus"":""run_exp/static/images/task_images/land.jpg"",""time"":673.9000000059605},{""stimulus"":""run_exp/static/images/task_images/dig.jpg"",""time"":1344.300000011921}]",[],,,,,,,,,,,,,,,
harvest_prac,41,203197,0.0-15.0-1.0,"""event"",""trial"",""time""
""fullscreenenter"",""1"",""2692""
","
","
","""event"",""trial"",""time""
""fullscreenenter"",""1"",""2692""
","
",,null,run_exp/static/images/task_images/barrel_text.jpg,null,,,,,,,,,,,,,,,,,,,,,,,,
decision_prac,42,203846,0.0-15.0-2.0,"""event"",""trial"",""time""
""fullscreenenter"",""1"",""2692""
","
","
","""event"",""trial"",""time""
""fullscreenenter"",""1"",""2692""
","
",,646,run_exp/static/images/task_images/land.jpg,65,,,,,,,,,,,,1,,,,,,,,,,,,
quiz_instruc,43,206342,0.0-16.0-0.0,"""event"",""trial"",""time""
""fullscreenenter"",""1"",""2692""
","
","
","""event"",""trial"",""time""
""fullscreenenter"",""1"",""2692""
","
",,2491.6,run_exp/static/audio/clip_10_quiz.m4a,,,,,,,0,,,,,,,,,,,,,,,,,,
instruc_repeat,44,249103,0.0-16.0-1.0,"""event"",""trial"",""time""
""fullscreenenter"",""1"",""2692""
","
","
","""event"",""trial"",""time""
""fullscreenenter"",""1"",""2692""
","
",,null,"<p> Are you ready to play a practice game? </p> <p>In this practice game, you'll be digging up barrels of gems. But, in the real game, you'll be digging up the gems themselves. </p>",null,"<p>In this game, your goal is to collect as many gems as you can. That’s how you will win bonus money. </p> <p>The entire game will last 20 minutes no matter how many gems you collect or how many planets you visit. </p><p>To stay on a planet and dig again, press the letter A on your keyboard. To leave for a new planet, press the letter L.</p><p>The more you dig on a planet, the fewer gems you’ll get with each dig which is why you might consider leaving for a new planet. </p><p>When you arrive at a new planet, you’ll be greeted by an alien. What the alien looks like does not tell you anything about how much treasure is on the planet. </p>",,,,,,,,,,,,,,,,,,,,,,,
instruc_repeat_continue,45,251442,0.0-16.0-2.0,"""event"",""trial"",""time""
""fullscreenenter"",""1"",""2692""
","
","
","""event"",""trial"",""time""
""fullscreenenter"",""1"",""2692""
","
",,2337.2,"<p> Are you ready to play a practice game? </p> <p>In this practice game, you'll be digging up barrels of gems. But, in the real game, you'll be digging up the gems themselves. </p>",,,,,,,0,,,,,,,,,,,,,,,,,,
quiz_q_1_ask,46,253977,0.0-16.0-3.0,"""event"",""trial"",""time""
""fullscreenenter"",""1"",""2692""
","
","
","""event"",""trial"",""time""
""fullscreenenter"",""1"",""2692""
","
",,2531.8,run_exp/static/audio/clip_11_q1_ask.m4a,,,,,,,2,,,,,,,,,,,,,,,,,,
quiz_q_1_fb_correct,47,257828,0.0-17.0-0.0,"""event"",""trial"",""time""
""fullscreenenter"",""1"",""2692""
","
","
","""event"",""trial"",""time""
""fullscreenenter"",""1"",""2692""
","
",,null,run_exp/static/audio/clip_12_q1_correct.m4a,null,<p>That’s correct. You win extra money by collecting more gems.</p>,,,,,,,,,,,,,,,,,,,,,,,
quiz_q_2_ask,48,259671,0.0-17.0-1.0,"""event"",""trial"",""time""
""fullscreenenter"",""1"",""2692""
","
","
","""event"",""trial"",""time""
""fullscreenenter"",""1"",""2692""
","
",,1839.5,run_exp/static/audio/clip_14_q2_ask.m4a,,,,,,,1,,,,,,,,,,,,,,,,,,
quiz_q_2_fb_correct,49,263673,0.0-18.0-0.0,"""event"",""trial"",""time""
""fullscreenenter"",""1"",""2692""
","
","
","""event"",""trial"",""time""
""fullscreenenter"",""1"",""2692""
","
",,null,run_exp/static/audio/clip_15_q2_correct.m4a,null,<p>That’s correct. The experiment is 20 minutes no matter what.</p>,,,,,,,,,,,,,,,,,,,,,,,
quiz_q_3_ask,50,265577,0.0-18.0-1.0,"""event"",""trial"",""time""
""fullscreenenter"",""1"",""2692""
","
","
","""event"",""trial"",""time""
""fullscreenenter"",""1"",""2692""
","
",,1900,run_exp/static/audio/clip_17_q3_ask.m4a,,,,,,,1,,,,,,,,,,,,,,,,,,
quiz_q_3_fb_correct,51,269540,0.0-19.0-0.0,"""event"",""trial"",""time""
""fullscreenenter"",""1"",""2692""
","
","
","""event"",""trial"",""time""
""fullscreenenter"",""1"",""2692""
","
",,null,run_exp/static/audio/clip_18_q3_correct.m4a,null,<p> That’s correct. You press the letter L to travel to a new planet.</p>,,,,,,,,,,,,,,,,,,,,,,,
quiz_q_4_ask,52,272181,0.0-19.0-1.0,"""event"",""trial"",""time""
""fullscreenenter"",""1"",""2692""
","
","
","""event"",""trial"",""time""
""fullscreenenter"",""1"",""2692""
","
",,2637.5,run_exp/static/audio/clip_20_q4_ask.m4a,,,,,,,0,,,,,,,,,,,,,,,,,,
quiz_q_4_fb_correct,53,277497,0.0-20.0-0.0,"""event"",""trial"",""time""
""fullscreenenter"",""1"",""2692""
","
","
","""event"",""trial"",""time""
""fullscreenenter"",""1"",""2692""
","
",,null,run_exp/static/audio/clip_21_q4_correct.m4a,null,<p> That’s correct. The more you dig on a planet the fewer gems you’ll get with each dig. </p>,,,,,,,,,,,,,,,,,,,,,,,
quiz_q_5_ask,54,279111,0.0-20.0-1.0,"""event"",""trial"",""time""
""fullscreenenter"",""1"",""2692""
","
","
","""event"",""trial"",""time""
""fullscreenenter"",""1"",""2692""
","
",,1608.8,run_exp/static/audio/clip_23_q5_ask.m4a,,,,,,,1,,,,,,,,,,,,,,,,,,
quiz_q_5_fb_correct,55,284110,0.0-21.0-0.0,"""event"",""trial"",""time""
""fullscreenenter"",""1"",""2692""
","
","
","""event"",""trial"",""time""
""fullscreenenter"",""1"",""2692""
","
",,null,run_exp/static/audio/clip_24_q5_correct.m4a,null,<p> That’s correct. The alien tells you nothing about how much treasure is on the planet.</p>,,,,,,,,,,,,,,,,,,,,,,,
quiz_correct,56,287566,0.0-22.0-0.0,"""event"",""trial"",""time""
""fullscreenenter"",""1"",""2692""
","
","
","""event"",""trial"",""time""
""fullscreenenter"",""1"",""2692""
","
",,null,run_exp/static/audio/clip_26_correct_quiz.m4a,null,,,,,,,,,,,,,,,,,,,,,,,,
quiz_correct_continue,57,288256,0.0-22.0-1.0,"""event"",""trial"",""time""
""fullscreenenter"",""1"",""2692""
","
","
","""event"",""trial"",""time""
""fullscreenenter"",""1"",""2692""
","
",,686.4,<p>Good job! You're now ready to move on to the real game!</p>,,,,,,,0,,,,,,,,,,,,,,,,,,
audio-keyboard-response,58,298361,0.0-22.0-2.0,"""event"",""trial"",""time""
""fullscreenenter"",""1"",""2692""
","
","
","""event"",""trial"",""time""
""fullscreenenter"",""1"",""2692""
","
",,null,run_exp/static/audio/clip_28_real_game.m4a,null,,,,,,,,,,,,,,,,,,,,,,,,
instruc_begin_exp_contine,59,299819,0.0-22.0-3.0,"""event"",""trial"",""time""
""fullscreenenter"",""1"",""2692""
","
","
","""event"",""trial"",""time""
""fullscreenenter"",""1"",""2692""
","
",,1455.2,"<p>Now that you know how  to dig for space treasure and travel to new planets,you can start exploring! </p><p>Do you want to go over the instructions again or get started with the real game?</p>",,,,,,,1,,,,,,1,,,,,,,,,,,,
alien_welcome,60,304826,0.0-23.0-0.0,"""event"",""trial"",""time""
""fullscreenenter"",""1"",""2692""
","
","
","""event"",""trial"",""time""
""fullscreenenter"",""1"",""2692""
","
",,null,run_exp/static/images/task_images/aliens/old_aliens/planet/alien_planet-22.jpg,null,,,,,,,,,,,,,22,"22,9,29,46,28,51,62,27,35,1,19,26,54,15,10,33,21,34,65,61,31,23,72,17,12,38,42,75,11,69,45,37,43,78,36,47,25,79,60,77,16,59,74,68,20,13,66",,,,,,,,,,
land,61,305337,0.0-23.0-1.0,"""event"",""trial"",""time""
""fullscreenenter"",""1"",""2692""
","
","
","""event"",""trial"",""time""
""fullscreenenter"",""1"",""2692""
","
",,null,run_exp/static/images/task_images/land.jpg,null,,,,,,,99,,,1,,,,,,,,,,,,,,
dig,62,307354,0.0-23.0-2.0,"""event"",""trial"",""time""
""fullscreenenter"",""1"",""2692""
","
","
","""event"",""trial"",""time""
""fullscreenenter"",""1"",""2692""
","
",,,,,,,,,,,,"[{""stimulus"":""run_exp/static/images/task_images/dig.jpg"",""time"":0.5},{""stimulus"":""run_exp/static/images/task_images/land.jpg"",""time"":677.2000000029802},{""stimulus"":""run_exp/static/images/task_images/dig.jpg"",""time"":1338.6000000089407}]",[],1,,,,,,,,,,,,,,
harvest,63,308366,0.0-23.0-3.0,"""event"",""trial"",""time""
""fullscreenenter"",""1"",""2692""
","
","
","""event"",""trial"",""time""
""fullscreenenter"",""1"",""2692""
","
",,null,run_exp/static/images/task_images/gems/99.jpg,null,,,,,,,21,,,1,,,,,99,0.210579305,0.212121212,,,,,,,
decision,64,309370,0.0-23.0-4.0,"""event"",""trial"",""time""
""fullscreenenter"",""1"",""2692""
","
","
","""event"",""trial"",""time""
""fullscreenenter"",""1"",""2692""
","
",,1000.3,run_exp/static/images/task_images/land.jpg,65,,,,,,,21,,,1,,,,,,,,9550,1,0,FALSE,,,
dig,65,311381,0.0-24.0-0.0,"""event"",""trial"",""time""
""fullscreenenter"",""1"",""2692""
","
","
","""event"",""trial"",""time""
""fullscreenenter"",""1"",""2692""
","
",,,,,,,,,,,,"[{""stimulus"":""run_exp/static/images/task_images/dig.jpg"",""time"":0.09999999403953552},{""stimulus"":""run_exp/static/images/task_images/land.jpg"",""time"":677.7000000029802},{""stimulus"":""run_exp/static/images/task_images/dig.jpg"",""time"":1336.2000000029802}]",[],1,,,,,,,,,,,,,,
harvest,66,312385,0.0-24.0-1.0,"""event"",""trial"",""time""
""fullscreenenter"",""1"",""2692""
","
","
","""event"",""trial"",""time""
""fullscreenenter"",""1"",""2692""
","
",,null,run_exp/static/images/task_images/gems/21.jpg,null,,,,,,,4,,,1,,,,,21,0.183223084,0.19047619,,,,,,,
decision,67,312816,0.0-24.0-2.0,"""event"",""trial"",""time""
""fullscreenenter"",""1"",""2692""
","
","
","""event"",""trial"",""time""
""fullscreenenter"",""1"",""2692""
","
",,428,run_exp/static/images/task_images/land.jpg,65,,,,,,,4,,,1,,,,,,,,12995,1,1,FALSE,,,
dig,68,315395,0.0-25.0-0.0,"""event"",""trial"",""time""
""fullscreenenter"",""1"",""2692""
","
","
","""event"",""trial"",""time""
""fullscreenenter"",""1"",""2692""
","
",,,,,,,,,,,,"[{""stimulus"":""run_exp/static/images/task_images/dig.jpg"",""time"":0.09999999403953552},{""stimulus"":""run_exp/static/images/task_images/land.jpg"",""time"":864.3999999910593},{""stimulus"":""run_exp/static/images/task_images/dig.jpg"",""time"":1722.7000000029802}]",[],1,,,,,,,,,,,,,,
harvest,69,316401,0.0-25.0-1.0,"""event"",""trial"",""time""
""fullscreenenter"",""1"",""2692""
","
","
","""event"",""trial"",""time""
""fullscreenenter"",""1"",""2692""
","
",,null,run_exp/static/images/task_images/gems/4.jpg,null,,,,,,,1,,,1,,,,,4,0.154832598,0.25,,,,,,,
decision,70,316589,0.0-25.0-2.0,"""event"",""trial"",""time""
""fullscreenenter"",""1"",""2692""
","
","
","""event"",""trial"",""time""
""fullscreenenter"",""1"",""2692""
","
",,184.4,run_exp/static/images/task_images/land.jpg,76,,,,,,,1,,,1,,,,,,,,16768,1,2,TRUE,,,
travel,71,326411,0.0-26.0-0.0,"""event"",""trial"",""time""
""fullscreenenter"",""1"",""2692""
","
","
","""event"",""trial"",""time""
""fullscreenenter"",""1"",""2692""
","
",,,,,,,,,,,,"[{""stimulus"":""run_exp/static/images/task_images/rocket-01.jpg"",""time"":0.10000000894069672},{""stimulus"":""run_exp/static/images/task_images/rocket-02.jpg"",""time"":1102},{""stimulus"":""run_exp/static/images/task_images/rocket-03.jpg"",""time"":2189.6000000089407},{""stimulus"":""run_exp/static/images/task_images/rocket-04.jpg"",""time"":3278},{""stimulus"":""run_exp/static/images/task_images/rocket-05.jpg"",""time"":4366.600000008941},{""stimulus"":""run_exp/static/images/task_images/rocket-06.jpg"",""time"":5460.20000000298},{""stimulus"":""run_exp/static/images/task_images/rocket-07.jpg"",""time"":6548},{""stimulus"":""run_exp/static/images/task_images/rocket-08.jpg"",""time"":7637.20000000298},{""stimulus"":""run_exp/static/images/task_images/rocket-09.jpg"",""time"":8731.70000000298}]",[],1,,,,,,,,,,,,,,
alien_welcome,72,331419,0.0-26.0-1.0,"""event"",""trial"",""time""
""fullscreenenter"",""1"",""2692""
","
","
","""event"",""trial"",""time""
""fullscreenenter"",""1"",""2692""
","
",,null,run_exp/static/images/task_images/aliens/old_aliens/planet/alien_planet-9.jpg,null,,,,,,,,,,,,,9,"22,9,29,46,28,51,62,27,35,1,19,26,54,15,10,33,21,34,65,61,31,23,72,17,12,38,42,75,11,69,45,37,43,78,36,47,25,79,60,77,16,59,74,68,20,13,66",,,,,,,,,,
land,73,331933,0.0-26.0-2.0,"""event"",""trial"",""time""
""fullscreenenter"",""1"",""2692""
","
","
","""event"",""trial"",""time""
""fullscreenenter"",""1"",""2692""
","
",,null,run_exp/static/images/task_images/land.jpg,null,,,,,,,104,,,2,,,,,,,,,,,,,,
dig,74,333945,0.0-26.0-3.0,"""event"",""trial"",""time""
""fullscreenenter"",""1"",""2692""
","
","
","""event"",""trial"",""time""
""fullscreenenter"",""1"",""2692""
","
",,,,,,,,,,,,"[{""stimulus"":""run_exp/static/images/task_images/dig.jpg"",""time"":0.7000000029802322},{""stimulus"":""run_exp/static/images/task_images/land.jpg"",""time"":677.8000000119209},{""stimulus"":""run_exp/static/images/task_images/dig.jpg"",""time"":1338.9000000059605}]",[],2,,,,,,,,,,,,,,
harvest,75,334957,0.0-26.0-4.0,"""event"",""trial"",""time""
""fullscreenenter"",""1"",""2692""
","
","
","""event"",""trial"",""time""
""fullscreenenter"",""1"",""2692""
","
",,null,run_exp/static/images/task_images/gems/104.jpg,null,,,,,,,23,,,2,,,,,104,0.223142576,0.221153846,,,,,,,
decision,76,335425,0.0-26.0-5.0,"""event"",""trial"",""time""
""fullscreenenter"",""1"",""2692""
","
","
","""event"",""trial"",""time""
""fullscreenenter"",""1"",""2692""
","
",,464.4,run_exp/static/images/task_images/land.jpg,65,,,,,,,23,,,2,,,,,,,,35604,1,0,FALSE,,,
dig,77,337969,0.0-27.0-0.0,"""event"",""trial"",""time""
""fullscreenenter"",""1"",""2692""
","
","
","""event"",""trial"",""time""
""fullscreenenter"",""1"",""2692""
","
",,,,,,,,,,,,"[{""stimulus"":""run_exp/static/images/task_images/dig.jpg"",""time"":0.09999999403953552},{""stimulus"":""run_exp/static/images/task_images/land.jpg"",""time"":857.8999999910593},{""stimulus"":""run_exp/static/images/task_images/dig.jpg"",""time"":1695.2999999970198}]",[],2,,,,,,,,,,,,,,
harvest,78,338979,0.0-27.0-1.0,"""event"",""trial"",""time""
""fullscreenenter"",""1"",""2692""
","
","
","""event"",""trial"",""time""
""fullscreenenter"",""1"",""2692""
","
",,null,run_exp/static/images/task_images/gems/23.jpg,null,,,,,,,5,,,2,,,,,23,0.218619167,0.217391304,,,,,,,
decision,79,339534,0.0-27.0-2.0,"""event"",""trial"",""time""
""fullscreenenter"",""1"",""2692""
","
","
","""event"",""trial"",""time""
""fullscreenenter"",""1"",""2692""
","
",,551.4,run_exp/static/images/task_images/land.jpg,65,,,,,,,5,,,2,,,,,,,,39713,1,1,FALSE,,,
dig,80,341994,0.0-28.0-0.0,"""event"",""trial"",""time""
""fullscreenenter"",""1"",""2692""
","
","
","""event"",""trial"",""time""
""fullscreenenter"",""1"",""2692""
","
",,,,,,,,,,,,"[{""stimulus"":""run_exp/static/images/task_images/dig.jpg"",""time"":0.19999998807907104},{""stimulus"":""run_exp/static/images/task_images/land.jpg"",""time"":825.1999999880791},{""stimulus"":""run_exp/static/images/task_images/dig.jpg"",""time"":1644.699999988079}]",[],2,,,,,,,,,,,,,,
harvest,81,343001,0.0-28.0-1.0,"""event"",""trial"",""time""
""fullscreenenter"",""1"",""2692""
","
","
","""event"",""trial"",""time""
""fullscreenenter"",""1"",""2692""
","
",,null,run_exp/static/images/task_images/gems/5.jpg,null,,,,,,,1,,,2,,,,,5,0.158010761,0.2,,,,,,,
decision,82,344180,0.0-28.0-2.0,"""event"",""trial"",""time""
""fullscreenenter"",""1"",""2692""
","
","
","""event"",""trial"",""time""
""fullscreenenter"",""1"",""2692""
","
",,1175.5,run_exp/static/images/task_images/land.jpg,76,,,,,,,1,,,2,,,,,,,,44359,1,2,TRUE,,,
travel,83,353012,0.0-29.0-0.0,"""event"",""trial"",""time""
""fullscreenenter"",""1"",""2692""
","
","
","""event"",""trial"",""time""
""fullscreenenter"",""1"",""2692""
","
",,,,,,,,,,,,"[{""stimulus"":""run_exp/static/images/task_images/rocket-01.jpg"",""time"":0.29999999701976776},{""stimulus"":""run_exp/static/images/task_images/rocket-02.jpg"",""time"":985.5},{""stimulus"":""run_exp/static/images/task_images/rocket-03.jpg"",""time"":1971},{""stimulus"":""run_exp/static/images/task_images/rocket-04.jpg"",""time"":2945.7999999970198},{""stimulus"":""run_exp/static/images/task_images/rocket-05.jpg"",""time"":3929.7000000029802},{""stimulus"":""run_exp/static/images/task_images/rocket-06.jpg"",""time"":4909},{""stimulus"":""run_exp/static/images/task_images/rocket-07.jpg"",""time"":5892.20000000298},{""stimulus"":""run_exp/static/images/task_images/rocket-08.jpg"",""time"":6867.79999999702},{""stimulus"":""run_exp/static/images/task_images/rocket-09.jpg"",""time"":7851.4000000059605}]",[],2,,,,,,,,,,,,,,
alien_welcome,84,358019,0.0-29.0-1.0,"""event"",""trial"",""time""
""fullscreenenter"",""1"",""2692""
","
","
","""event"",""trial"",""time""
""fullscreenenter"",""1"",""2692""
","
",,null,run_exp/static/images/task_images/aliens/old_aliens/planet/alien_planet-29.jpg,null,,,,,,,,,,,,,29,"22,9,29,46,28,51,62,27,35,1,19,26,54,15,10,33,21,34,65,61,31,23,72,17,12,38,42,75,11,69,45,37,43,78,36,47,25,79,60,77,16,59,74,68,20,13,66",,,,,,,,,,
land,85,358530,0.0-29.0-2.0,"""event"",""trial"",""time""
""fullscreenenter"",""1"",""2692""
","
","
","""event"",""trial"",""time""
""fullscreenenter"",""1"",""2692""
","
",,null,run_exp/static/images/task_images/land.jpg,null,,,,,,,92,,,3,,,,,,,,,,,,,,
dig,86,360548,0.0-29.0-3.0,"""event"",""trial"",""time""
""fullscreenenter"",""1"",""2692""
","
","
","""event"",""trial"",""time""
""fullscreenenter"",""1"",""2692""
","
",,,,,,,,,,,,"[{""stimulus"":""run_exp/static/images/task_images/dig.jpg"",""time"":0.4000000059604645},{""stimulus"":""run_exp/static/images/task_images/land.jpg"",""time"":679.4000000059605},{""stimulus"":""run_exp/static/images/task_images/dig.jpg"",""time"":1339.4000000059605}]",[],3,,,,,,,,,,,,,,
harvest,87,361556,0.0-29.0-4.0,"""event"",""trial"",""time""
""fullscreenenter"",""1"",""2692""
","
","
","""event"",""trial"",""time""
""fullscreenenter"",""1"",""2692""
","
",,null,run_exp/static/images/task_images/gems/92.jpg,null,,,,,,,50,,,3,,,,,92,0.542926257,0.543478261,,,,,,,
decision,88,362008,0.0-29.0-5.0,"""event"",""trial"",""time""
""fullscreenenter"",""1"",""2692""
","
","
","""event"",""trial"",""time""
""fullscreenenter"",""1"",""2692""
","
",,447.9,run_exp/static/images/task_images/land.jpg,65,,,,,,,50,,,3,,,,,,,,62187,1,0,FALSE,,,
dig,89,364573,0.0-30.0-0.0,"""event"",""trial"",""time""
""fullscreenenter"",""1"",""2692""
","
","
","""event"",""trial"",""time""
""fullscreenenter"",""1"",""2692""
","
",,,,,,,,,,,,"[{""stimulus"":""run_exp/static/images/task_images/dig.jpg"",""time"":0.29999999701976776},{""stimulus"":""run_exp/static/images/task_images/land.jpg"",""time"":854.0999999940395},{""stimulus"":""run_exp/static/images/task_images/dig.jpg"",""time"":1712.0999999940395}]",[],3,,,,,,,,,,,,,,
harvest,90,365587,0.0-30.0-1.0,"""event"",""trial"",""time""
""fullscreenenter"",""1"",""2692""
","
","
","""event"",""trial"",""time""
""fullscreenenter"",""1"",""2692""
","
",,null,run_exp/static/images/task_images/gems/50.jpg,null,,,,,,,27,,,3,,,,,50,0.545879544,0.54,,,,,,,
decision,91,365706,0.0-30.0-2.0,"""event"",""trial"",""time""
""fullscreenenter"",""1"",""2692""
","
","
","""event"",""trial"",""time""
""fullscreenenter"",""1"",""2692""
","
",,116.7,run_exp/static/images/task_images/land.jpg,65,,,,,,,27,,,3,,,,,,,,65885,1,1,FALSE,,,
dig,92,368601,0.0-31.0-0.0,"""event"",""trial"",""time""
""fullscreenenter"",""1"",""2692""
","
","
","""event"",""trial"",""time""
""fullscreenenter"",""1"",""2692""
","
",,,,,,,,,,,,"[{""stimulus"":""run_exp/static/images/task_images/dig.jpg"",""time"":0.20000000298023224},{""stimulus"":""run_exp/static/images/task_images/land.jpg"",""time"":971.4000000059605},{""stimulus"":""run_exp/static/images/task_images/dig.jpg"",""time"":1933.4000000059605}]",[],3,,,,,,,,,,,,,,
harvest,93,369613,0.0-31.0-1.0,"""event"",""trial"",""time""
""fullscreenenter"",""1"",""2692""
","
","
","""event"",""trial"",""time""
""fullscreenenter"",""1"",""2692""
","
",,null,run_exp/static/images/task_images/gems/27.jpg,null,,,,,,,13,,,3,,,,,27,0.471171535,0.481481481,,,,,,,
decision,94,371632,0.0-31.0-2.0,"""event"",""trial"",""time""
""fullscreenenter"",""1"",""2692""
","
","
","""event"",""trial"",""time""
""fullscreenenter"",""1"",""2692""
","
",,2016.7,run_exp/static/images/task_images/land.jpg,76,,,,,,,13,,,3,,,,,,,,71811,1,2,TRUE,,,
travel,95,379624,0.0-32.0-0.0,"""event"",""trial"",""time""
""fullscreenenter"",""1"",""2692""
","
","
","""event"",""trial"",""time""
""fullscreenenter"",""1"",""2692""
","
",,,,,,,,,,,,"[{""stimulus"":""run_exp/static/images/task_images/rocket-01.jpg"",""time"":0.09999999403953552},{""stimulus"":""run_exp/static/images/task_images/rocket-02.jpg"",""time"":896.5},{""stimulus"":""run_exp/static/images/task_images/rocket-03.jpg"",""time"":1782.3999999910593},{""stimulus"":""run_exp/static/images/task_images/rocket-04.jpg"",""time"":2673.0999999940395},{""stimulus"":""run_exp/static/images/task_images/rocket-05.jpg"",""time"":3561.5},{""stimulus"":""run_exp/static/images/task_images/rocket-06.jpg"",""time"":4446.5},{""stimulus"":""run_exp/static/images/task_images/rocket-07.jpg"",""time"":5327.79999999702},{""stimulus"":""run_exp/static/images/task_images/rocket-08.jpg"",""time"":6215.5999999940395},{""stimulus"":""run_exp/static/images/task_images/rocket-09.jpg"",""time"":7101.699999988079}]",[],3,,,,,,,,,,,,,,
alien_welcome,96,384633,0.0-32.0-1.0,"""event"",""trial"",""time""
""fullscreenenter"",""1"",""2692""
","
","
","""event"",""trial"",""time""
""fullscreenenter"",""1"",""2692""
","
",,null,run_exp/static/images/task_images/aliens/old_aliens/planet/alien_planet-46.jpg,null,,,,,,,,,,,,,46,"22,9,29,46,28,51,62,27,35,1,19,26,54,15,10,33,21,34,65,61,31,23,72,17,12,38,42,75,11,69,45,37,43,78,36,47,25,79,60,77,16,59,74,68,20,13,66",,,,,,,,,,
land,97,385140,0.0-32.0-2.0,"""event"",""trial"",""time""
""fullscreenenter"",""1"",""2692""
","
","
","""event"",""trial"",""time""
""fullscreenenter"",""1"",""2692""
","
",,null,run_exp/static/images/task_images/land.jpg,null,,,,,,,100,,,4,,,,,,,,,,,,,,
dig,98,387154,0.0-32.0-3.0,"""event"",""trial"",""time""
""fullscreenenter"",""1"",""2692""
","
","
","""event"",""trial"",""time""
""fullscreenenter"",""1"",""2692""
","
",,,,,,,,,,,,"[{""stimulus"":""run_exp/static/images/task_images/dig.jpg"",""time"":0.3999999910593033},{""stimulus"":""run_exp/static/images/task_images/land.jpg"",""time"":676.5999999940395},{""stimulus"":""run_exp/static/images/task_images/dig.jpg"",""time"":1339.5}]",[],4,,,,,,,,,,,,,,
harvest,99,388161,0.0-32.0-4.0,"""event"",""trial"",""time""
""fullscreenenter"",""1"",""2692""
","
","
","""event"",""trial"",""time""
""fullscreenenter"",""1"",""2692""
","
",,null,run_exp/static/images/task_images/gems/100.jpg,null,,,,,,,50,,,4,,,,,100,0.501413466,0.5,,,,,,,
decision,100,388661,0.0-32.0-5.0,"""event"",""trial"",""time""
""fullscreenenter"",""1"",""2692""
","
","
","""event"",""trial"",""time""
""fullscreenenter"",""1"",""2692""
","
",,496.9,run_exp/static/images/task_images/land.jpg,65,,,,,,,50,,,4,,,,,,,,88840,1,0,FALSE,,,
dig,101,391179,0.0-33.0-0.0,"""event"",""trial"",""time""
""fullscreenenter"",""1"",""2692""
","
","
","""event"",""trial"",""time""
""fullscreenenter"",""1"",""2692""
","
",,,,,,,,,,,,"[{""stimulus"":""run_exp/static/images/task_images/dig.jpg"",""time"":0.09999999403953552},{""stimulus"":""run_exp/static/images/task_images/land.jpg"",""time"":840.6999999880791},{""stimulus"":""run_exp/static/images/task_images/dig.jpg"",""time"":1673.5}]",[],4,,,,,,,,,,,,,,
harvest,102,392187,0.0-33.0-1.0,"""event"",""trial"",""time""
""fullscreenenter"",""1"",""2692""
","
","
","""event"",""trial"",""time""
""fullscreenenter"",""1"",""2692""
","
",,null,run_exp/static/images/task_images/gems/50.jpg,null,,,,,,,26,,,4,,,,,50,0.521394297,0.52,,,,,,,
decision,103,392895,0.0-33.0-2.0,"""event"",""trial"",""time""
""fullscreenenter"",""1"",""2692""
","
","
","""event"",""trial"",""time""
""fullscreenenter"",""1"",""2692""
","
",,704.7,run_exp/static/images/task_images/land.jpg,65,,,,,,,26,,,4,,,,,,,,93074,1,1,FALSE,,,
dig,104,395201,0.0-34.0-0.0,"""event"",""trial"",""time""
""fullscreenenter"",""1"",""2692""
","
","
","""event"",""trial"",""time""
""fullscreenenter"",""1"",""2692""
","
",,,,,,,,,,,,"[{""stimulus"":""run_exp/static/images/task_images/dig.jpg"",""time"":0.20000000298023224},{""stimulus"":""run_exp/static/images/task_images/land.jpg"",""time"":768.2000000029802},{""stimulus"":""run_exp/static/images/task_images/dig.jpg"",""time"":1536}]",[],4,,,,,,,,,,,,,,
harvest,105,396213,0.0-34.0-1.0,"""event"",""trial"",""time""
""fullscreenenter"",""1"",""2692""
","
","
","""event"",""trial"",""time""
""fullscreenenter"",""1"",""2692""
","
",,null,run_exp/static/images/task_images/gems/26.jpg,null,,,,,,,14,,,4,,,,,26,0.523844642,0.538461538,,,,,,,
decision,106,396821,0.0-34.0-2.0,"""event"",""trial"",""time""
""fullscreenenter"",""1"",""2692""
","
","
","""event"",""trial"",""time""
""fullscreenenter"",""1"",""2692""
","
",,603.2,run_exp/static/images/task_images/land.jpg,76,,,,,,,14,,,4,,,,,,,,97001,1,2,TRUE,,,
travel,107,406227,0.0-35.0-0.0,"""event"",""trial"",""time""
""fullscreenenter"",""1"",""2692""
","
","
","""event"",""trial"",""time""
""fullscreenenter"",""1"",""2692""
","
",,,,,,,,,,,,"[{""stimulus"":""run_exp/static/images/task_images/rocket-01.jpg"",""time"":0.10000000894069672},{""stimulus"":""run_exp/static/images/task_images/rocket-02.jpg"",""time"":1050},{""stimulus"":""run_exp/static/images/task_images/rocket-03.jpg"",""time"":2097},{""stimulus"":""run_exp/static/images/task_images/rocket-04.jpg"",""time"":3142},{""stimulus"":""run_exp/static/images/task_images/rocket-05.jpg"",""time"":4186.9000000059605},{""stimulus"":""run_exp/static/images/task_images/rocket-06.jpg"",""time"":5227.70000000298},{""stimulus"":""run_exp/static/images/task_images/rocket-07.jpg"",""time"":6276.300000011921},{""stimulus"":""run_exp/static/images/task_images/rocket-08.jpg"",""time"":7317.100000008941},{""stimulus"":""run_exp/static/images/task_images/rocket-09.jpg"",""time"":8360.20000000298}]",[],4,,,,,,,,,,,,,,
alien_welcome,108,411237,0.0-35.0-1.0,"""event"",""trial"",""time""
""fullscreenenter"",""1"",""2692""
","
","
","""event"",""trial"",""time""
""fullscreenenter"",""1"",""2692""
","
",,null,run_exp/static/images/task_images/aliens/old_aliens/planet/alien_planet-28.jpg,null,,,,,,,,,,,,,28,"22,9,29,46,28,51,62,27,35,1,19,26,54,15,10,33,21,34,65,61,31,23,72,17,12,38,42,75,11,69,45,37,43,78,36,47,25,79,60,77,16,59,74,68,20,13,66",,,,,,,,,,
land,109,411746,0.0-35.0-2.0,"""event"",""trial"",""time""
""fullscreenenter"",""1"",""2692""
","
","
","""event"",""trial"",""time""
""fullscreenenter"",""1"",""2692""
","
",,null,run_exp/static/images/task_images/land.jpg,null,,,,,,,102,,,5,,,,,,,,,,,,,,
dig,110,413756,0.0-35.0-3.0,"""event"",""trial"",""time""
""fullscreenenter"",""1"",""2692""
","
","
","""event"",""trial"",""time""
""fullscreenenter"",""1"",""2692""
","
",,,,,,,,,,,,"[{""stimulus"":""run_exp/static/images/task_images/dig.jpg"",""time"":0.7999999970197678},{""stimulus"":""run_exp/static/images/task_images/land.jpg"",""time"":680.2999999970198},{""stimulus"":""run_exp/static/images/task_images/dig.jpg"",""time"":1341.9000000059605}]",[],5,,,,,,,,,,,,,,
harvest,111,414765,0.0-35.0-4.0,"""event"",""trial"",""time""
""fullscreenenter"",""1"",""2692""
","
","
","""event"",""trial"",""time""
""fullscreenenter"",""1"",""2692""
","
",,null,run_exp/static/images/task_images/gems/102.jpg,null,,,,,,,54,,,5,,,,,102,0.531782214,0.529411765,,,,,,,
decision,112,415182,0.0-35.0-5.0,"""event"",""trial"",""time""
""fullscreenenter"",""1"",""2692""
","
","
","""event"",""trial"",""time""
""fullscreenenter"",""1"",""2692""
","
",,413.8,run_exp/static/images/task_images/land.jpg,65,,,,,,,54,,,5,,,,,,,,115361,1,0,FALSE,,,
dig,113,417777,0.0-36.0-0.0,"""event"",""trial"",""time""
""fullscreenenter"",""1"",""2692""
","
","
","""event"",""trial"",""time""
""fullscreenenter"",""1"",""2692""
","
",,,,,,,,,,,,"[{""stimulus"":""run_exp/static/images/task_images/dig.jpg"",""time"":0.20000000298023224},{""stimulus"":""run_exp/static/images/task_images/land.jpg"",""time"":873.7999999970198},{""stimulus"":""run_exp/static/images/task_images/dig.jpg"",""time"":1729.3999999910593}]",[],5,,,,,,,,,,,,,,
harvest,114,418785,0.0-36.0-1.0,"""event"",""trial"",""time""
""fullscreenenter"",""1"",""2692""
","
","
","""event"",""trial"",""time""
""fullscreenenter"",""1"",""2692""
","
",,null,run_exp/static/images/task_images/gems/54.jpg,null,,,,,,,30,,,5,,,,,54,0.559430648,0.555555556,,,,,,,
decision,115,419201,0.0-36.0-2.0,"""event"",""trial"",""time""
""fullscreenenter"",""1"",""2692""
","
","
","""event"",""trial"",""time""
""fullscreenenter"",""1"",""2692""
","
",,412.4,run_exp/static/images/task_images/land.jpg,76,,,,,,,30,,,5,,,,,,,,119380,1,1,TRUE,,,
travel,116,428795,0.0-37.0-0.0,"""event"",""trial"",""time""
""fullscreenenter"",""1"",""2692""
","
","
","""event"",""trial"",""time""
""fullscreenenter"",""1"",""2692""
","
",,,,,,,,,,,,"[{""stimulus"":""run_exp/static/images/task_images/rocket-01.jpg"",""time"":0.20000000298023224},{""stimulus"":""run_exp/static/images/task_images/rocket-02.jpg"",""time"":1069.7999999970198},{""stimulus"":""run_exp/static/images/task_images/rocket-03.jpg"",""time"":2133.2000000029802},{""stimulus"":""run_exp/static/images/task_images/rocket-04.jpg"",""time"":3205.2000000029802},{""stimulus"":""run_exp/static/images/task_images/rocket-05.jpg"",""time"":4268.20000000298},{""stimulus"":""run_exp/static/images/task_images/rocket-06.jpg"",""time"":5332.0999999940395},{""stimulus"":""run_exp/static/images/task_images/rocket-07.jpg"",""time"":6397},{""stimulus"":""run_exp/static/images/task_images/rocket-08.jpg"",""time"":7463.20000000298},{""stimulus"":""run_exp/static/images/task_images/rocket-09.jpg"",""time"":8528.40000000596}]",[],5,,,,,,,,,,,,,,
alien_welcome,117,433803,0.0-37.0-1.0,"""event"",""trial"",""time""
""fullscreenenter"",""1"",""2692""
","
","
","""event"",""trial"",""time""
""fullscreenenter"",""1"",""2692""
","
",,null,run_exp/static/images/task_images/aliens/old_aliens/planet/alien_planet-51.jpg,null,,,,,,,,,,,,,51,"22,9,29,46,28,51,62,27,35,1,19,26,54,15,10,33,21,34,65,61,31,23,72,17,12,38,42,75,11,69,45,37,43,78,36,47,25,79,60,77,16,59,74,68,20,13,66",,,,,,,,,,
land,118,434316,0.0-37.0-2.0,"""event"",""trial"",""time""
""fullscreenenter"",""1"",""2692""
","
","
","""event"",""trial"",""time""
""fullscreenenter"",""1"",""2692""
","
",,null,run_exp/static/images/task_images/land.jpg,null,,,,,,,99,,,6,,,,,,,,,,,,,,
dig,119,436331,0.0-37.0-3.0,"""event"",""trial"",""time""
""fullscreenenter"",""1"",""2692""
","
","
","""event"",""trial"",""time""
""fullscreenenter"",""1"",""2692""
","
",,,,,,,,,,,,"[{""stimulus"":""run_exp/static/images/task_images/dig.jpg"",""time"":0.4000000059604645},{""stimulus"":""run_exp/static/images/task_images/land.jpg"",""time"":675},{""stimulus"":""run_exp/static/images/task_images/dig.jpg"",""time"":1339.7000000029802}]",[],6,,,,,,,,,,,,,,
harvest,120,437338,0.0-37.0-4.0,"""event"",""trial"",""time""
""fullscreenenter"",""1"",""2692""
","
","
","""event"",""trial"",""time""
""fullscreenenter"",""1"",""2692""
","
",,null,run_exp/static/images/task_images/gems/99.jpg,null,,,,,,,80,,,6,,,,,99,0.805781124,0.808080808,,,,,,,
decision,121,437811,0.0-37.0-5.0,"""event"",""trial"",""time""
""fullscreenenter"",""1"",""2692""
","
","
","""event"",""trial"",""time""
""fullscreenenter"",""1"",""2692""
","
",,470.1,run_exp/static/images/task_images/land.jpg,65,,,,,,,80,,,6,,,,,,,,137990,1,0,FALSE,,,
dig,122,440353,0.0-38.0-0.0,"""event"",""trial"",""time""
""fullscreenenter"",""1"",""2692""
","
","
","""event"",""trial"",""time""
""fullscreenenter"",""1"",""2692""
","
",,,,,,,,,,,,"[{""stimulus"":""run_exp/static/images/task_images/dig.jpg"",""time"":0.10000000894069672},{""stimulus"":""run_exp/static/images/task_images/land.jpg"",""time"":852.7000000029802},{""stimulus"":""run_exp/static/images/task_images/dig.jpg"",""time"":1691.7000000029802}]",[],6,,,,,,,,,,,,,,
harvest,123,441365,0.0-38.0-1.0,"""event"",""trial"",""time""
""fullscreenenter"",""1"",""2692""
","
","
","""event"",""trial"",""time""
""fullscreenenter"",""1"",""2692""
","
",,null,run_exp/static/images/task_images/gems/80.jpg,null,,,,,,,65,,,6,,,,,80,0.818374685,0.8125,,,,,,,
decision,124,441491,0.0-38.0-2.0,"""event"",""trial"",""time""
""fullscreenenter"",""1"",""2692""
","
","
","""event"",""trial"",""time""
""fullscreenenter"",""1"",""2692""
","
",,122.6,run_exp/static/images/task_images/land.jpg,65,,,,,,,65,,,6,,,,,,,,141670,1,1,FALSE,,,
dig,125,444377,0.0-39.0-0.0,"""event"",""trial"",""time""
""fullscreenenter"",""1"",""2692""
","
","
","""event"",""trial"",""time""
""fullscreenenter"",""1"",""2692""
","
",,,,,,,,,,,,"[{""stimulus"":""run_exp/static/images/task_images/dig.jpg"",""time"":0.20000000298023224},{""stimulus"":""run_exp/static/images/task_images/land.jpg"",""time"":962.7000000029802},{""stimulus"":""run_exp/static/images/task_images/dig.jpg"",""time"":1924.2999999970198}]",[],6,,,,,,,,,,,,,,
harvest,126,445389,0.0-39.0-1.0,"""event"",""trial"",""time""
""fullscreenenter"",""1"",""2692""
","
","
","""event"",""trial"",""time""
""fullscreenenter"",""1"",""2692""
","
",,null,run_exp/static/images/task_images/gems/65.jpg,null,,,,,,,55,,,6,,,,,65,0.845914172,0.846153846,,,,,,,
decision,127,446021,0.0-39.0-2.0,"""event"",""trial"",""time""
""fullscreenenter"",""1"",""2692""
","
","
","""event"",""trial"",""time""
""fullscreenenter"",""1"",""2692""
","
",,627.7,run_exp/static/images/task_images/land.jpg,65,,,,,,,55,,,6,,,,,,,,146200,1,2,FALSE,,,
dig,128,448401,0.0-40.0-0.0,"""event"",""trial"",""time""
""fullscreenenter"",""1"",""2692""
","
","
","""event"",""trial"",""time""
""fullscreenenter"",""1"",""2692""
","
",,,,,,,,,,,,"[{""stimulus"":""run_exp/static/images/task_images/dig.jpg"",""time"":0.10000000894069672},{""stimulus"":""run_exp/static/images/task_images/land.jpg"",""time"":795.2000000029802},{""stimulus"":""run_exp/static/images/task_images/dig.jpg"",""time"":1590}]",[],6,,,,,,,,,,,,,,
harvest,129,449411,0.0-40.0-1.0,"""event"",""trial"",""time""
""fullscreenenter"",""1"",""2692""
","
","
","""event"",""trial"",""time""
""fullscreenenter"",""1"",""2692""
","
",,null,run_exp/static/images/task_images/gems/55.jpg,null,,,,,,,42,,,6,,,,,55,0.763982292,0.763636364,,,,,,,
decision,130,449831,0.0-40.0-2.0,"""event"",""trial"",""time""
""fullscreenenter"",""1"",""2692""
","
","
","""event"",""trial"",""time""
""fullscreenenter"",""1"",""2692""
","
",,417.6,run_exp/static/images/task_images/land.jpg,65,,,,,,,42,,,6,,,,,,,,150011,1,3,FALSE,,,
dig,131,452428,0.0-41.0-0.0,"""event"",""trial"",""time""
""fullscreenenter"",""1"",""2692""
","
","
","""event"",""trial"",""time""
""fullscreenenter"",""1"",""2692""
","
",,,,,,,,,,,,"[{""stimulus"":""run_exp/static/images/task_images/dig.jpg"",""time"":0.09999999403953552},{""stimulus"":""run_exp/static/images/task_images/land.jpg"",""time"":871.2999999970198},{""stimulus"":""run_exp/static/images/task_images/dig.jpg"",""time"":1727.7999999970198}]",[],6,,,,,,,,,,,,,,
harvest,132,453434,0.0-41.0-1.0,"""event"",""trial"",""time""
""fullscreenenter"",""1"",""2692""
","
","
","""event"",""trial"",""time""
""fullscreenenter"",""1"",""2692""
","
",,null,run_exp/static/images/task_images/gems/42.jpg,null,,,,,,,30,,,6,,,,,42,0.709297281,0.714285714,,,,,,,
decision,133,453831,0.0-41.0-2.0,"""event"",""trial"",""time""
""fullscreenenter"",""1"",""2692""
","
","
","""event"",""trial"",""time""
""fullscreenenter"",""1"",""2692""
","
",,393.8,run_exp/static/images/task_images/land.jpg,76,,,,,,,30,,,6,,,,,,,,154010,1,4,TRUE,,,
travel,134,463445,0.0-42.0-0.0,"""event"",""trial"",""time""
""fullscreenenter"",""1"",""2692""
","
","
","""event"",""trial"",""time""
""fullscreenenter"",""1"",""2692""
","
",,,,,,,,,,,,"[{""stimulus"":""run_exp/static/images/task_images/rocket-01.jpg"",""time"":0.20000000298023224},{""stimulus"":""run_exp/static/images/task_images/rocket-02.jpg"",""time"":1072.4000000059605},{""stimulus"":""run_exp/static/images/task_images/rocket-03.jpg"",""time"":2145.1000000089407},{""stimulus"":""run_exp/static/images/task_images/rocket-04.jpg"",""time"":3208.2000000029802},{""stimulus"":""run_exp/static/images/task_images/rocket-05.jpg"",""time"":4275},{""stimulus"":""run_exp/static/images/task_images/rocket-06.jpg"",""time"":5347},{""stimulus"":""run_exp/static/images/task_images/rocket-07.jpg"",""time"":6407.600000008941},{""stimulus"":""run_exp/static/images/task_images/rocket-08.jpg"",""time"":7483.20000000298},{""stimulus"":""run_exp/static/images/task_images/rocket-09.jpg"",""time"":8545.79999999702}]",[],6,,,,,,,,,,,,,,
alien_welcome,135,468457,0.0-42.0-1.0,"""event"",""trial"",""time""
""fullscreenenter"",""1"",""2692""
","
","
","""event"",""trial"",""time""
""fullscreenenter"",""1"",""2692""
","
",,null,run_exp/static/images/task_images/aliens/old_aliens/planet/alien_planet-62.jpg,null,,,,,,,,,,,,,62,"22,9,29,46,28,51,62,27,35,1,19,26,54,15,10,33,21,34,65,61,31,23,72,17,12,38,42,75,11,69,45,37,43,78,36,47,25,79,60,77,16,59,74,68,20,13,66",,,,,,,,,,
land,136,468962,0.0-42.0-2.0,"""event"",""trial"",""time""
""fullscreenenter"",""1"",""2692""
","
","
","""event"",""trial"",""time""
""fullscreenenter"",""1"",""2692""
","
",,null,run_exp/static/images/task_images/land.jpg,null,,,,,,,97,,,7,,,,,,,,,,,,,,
dig,137,470969,0.0-42.0-3.0,"""event"",""trial"",""time""
""fullscreenenter"",""1"",""2692""
","
","
","""event"",""trial"",""time""
""fullscreenenter"",""1"",""2692""
","
",,,,,,,,,,,,"[{""stimulus"":""run_exp/static/images/task_images/dig.jpg"",""time"":0.5},{""stimulus"":""run_exp/static/images/task_images/land.jpg"",""time"":675.7999999970198},{""stimulus"":""run_exp/static/images/task_images/dig.jpg"",""time"":1339.7000000029802}]",[],7,,,,,,,,,,,,,,
harvest,138,471977,0.0-42.0-4.0,"""event"",""trial"",""time""
""fullscreenenter"",""1"",""2692""
","
","
","""event"",""trial"",""time""
""fullscreenenter"",""1"",""2692""
","
",,null,run_exp/static/images/task_images/gems/97.jpg,null,,,,,,,85,,,7,,,,,97,0.880254166,0.87628866,,,,,,,
decision,139,472454,0.0-42.0-5.0,"""event"",""trial"",""time""
""fullscreenenter"",""1"",""2692""
","
","
","""event"",""trial"",""time""
""fullscreenenter"",""1"",""2692""
","
",,474.4,run_exp/static/images/task_images/land.jpg,65,,,,,,,85,,,7,,,,,,,,172634,1,0,FALSE,,,
dig,140,474985,0.0-43.0-0.0,"""event"",""trial"",""time""
""fullscreenenter"",""1"",""2692""
","
","
","""event"",""trial"",""time""
""fullscreenenter"",""1"",""2692""
","
",,,,,,,,,,,,"[{""stimulus"":""run_exp/static/images/task_images/dig.jpg"",""time"":0.09999999403953552},{""stimulus"":""run_exp/static/images/task_images/land.jpg"",""time"":848},{""stimulus"":""run_exp/static/images/task_images/dig.jpg"",""time"":1689.5999999940395}]",[],7,,,,,,,,,,,,,,
harvest,141,475997,0.0-43.0-1.0,"""event"",""trial"",""time""
""fullscreenenter"",""1"",""2692""
","
","
","""event"",""trial"",""time""
""fullscreenenter"",""1"",""2692""
","
",,null,run_exp/static/images/task_images/gems/85.jpg,null,,,,,,,65,,,7,,,,,85,0.768171056,0.764705882,,,,,,,
decision,142,476312,0.0-43.0-2.0,"""event"",""trial"",""time""
""fullscreenenter"",""1"",""2692""
","
","
","""event"",""trial"",""time""
""fullscreenenter"",""1"",""2692""
","
",,312.3,run_exp/static/images/task_images/land.jpg,65,,,,,,,65,,,7,,,,,,,,176491,1,1,FALSE,,,
dig,143,479013,0.0-44.0-0.0,"""event"",""trial"",""time""
""fullscreenenter"",""1"",""2692""
","
","
","""event"",""trial"",""time""
""fullscreenenter"",""1"",""2692""
","
",,,,,,,,,,,,"[{""stimulus"":""run_exp/static/images/task_images/dig.jpg"",""time"":0.20000000298023224},{""stimulus"":""run_exp/static/images/task_images/land.jpg"",""time"":905.4000000059605},{""stimulus"":""run_exp/static/images/task_images/dig.jpg"",""time"":1798.9000000059605}]",[],7,,,,,,,,,,,,,,
harvest,144,480024,0.0-44.0-1.0,"""event"",""trial"",""time""
""fullscreenenter"",""1"",""2692""
","
","
","""event"",""trial"",""time""
""fullscreenenter"",""1"",""2692""
","
",,null,run_exp/static/images/task_images/gems/65.jpg,null,,,,,,,53,,,7,,,,,65,0.811384879,0.815384615,,,,,,,
decision,145,480754,0.0-44.0-2.0,"""event"",""trial"",""time""
""fullscreenenter"",""1"",""2692""
","
","
","""event"",""trial"",""time""
""fullscreenenter"",""1"",""2692""
","
",,726.9,run_exp/static/images/task_images/land.jpg,65,,,,,,,53,,,7,,,,,,,,180933,1,2,FALSE,,,
dig,146,483037,0.0-45.0-0.0,"""event"",""trial"",""time""
""fullscreenenter"",""1"",""2692""
","
","
","""event"",""trial"",""time""
""fullscreenenter"",""1"",""2692""
","
",,,,,,,,,,,,"[{""stimulus"":""run_exp/static/images/task_images/dig.jpg"",""time"":0.29999999701976776},{""stimulus"":""run_exp/static/images/task_images/land.jpg"",""time"":764.7000000029802},{""stimulus"":""run_exp/static/images/task_images/dig.jpg"",""time"":1526.7999999970198}]",[],7,,,,,,,,,,,,,,
harvest,147,484052,0.0-45.0-1.0,"""event"",""trial"",""time""
""fullscreenenter"",""1"",""2692""
","
","
","""event"",""trial"",""time""
""fullscreenenter"",""1"",""2692""
","
",,null,run_exp/static/images/task_images/gems/53.jpg,null,,,,,,,44,,,7,,,,,53,0.833342202,0.830188679,,,,,,,
decision,148,484716,0.0-45.0-2.0,"""event"",""trial"",""time""
""fullscreenenter"",""1"",""2692""
","
","
","""event"",""trial"",""time""
""fullscreenenter"",""1"",""2692""
","
",,659.5,run_exp/static/images/task_images/land.jpg,76,,,,,,,44,,,7,,,,,,,,184896,1,3,TRUE,,,
travel,149,494058,0.0-46.0-0.0,"""event"",""trial"",""time""
""fullscreenenter"",""1"",""2692""
","
","
","""event"",""trial"",""time""
""fullscreenenter"",""1"",""2692""
","
",,,,,,,,,,,,"[{""stimulus"":""run_exp/static/images/task_images/rocket-01.jpg"",""time"":0.29999999701976776},{""stimulus"":""run_exp/static/images/task_images/rocket-02.jpg"",""time"":1045.0999999940395},{""stimulus"":""run_exp/static/images/task_images/rocket-03.jpg"",""time"":2077.8999999910593},{""stimulus"":""run_exp/static/images/task_images/rocket-04.jpg"",""time"":3122},{""stimulus"":""run_exp/static/images/task_images/rocket-05.jpg"",""time"":4157.199999988079},{""stimulus"":""run_exp/static/images/task_images/rocket-06.jpg"",""time"":5195.699999988079},{""stimulus"":""run_exp/static/images/task_images/rocket-07.jpg"",""time"":6226.399999991059},{""stimulus"":""run_exp/static/images/task_images/rocket-08.jpg"",""time"":7268.399999991059},{""stimulus"":""run_exp/static/images/task_images/rocket-09.jpg"",""time"":8307.699999988079}]",[],7,,,,,,,,,,,,,,
alien_welcome,150,499066,0.0-46.0-1.0,"""event"",""trial"",""time""
""fullscreenenter"",""1"",""2692""
","
","
","""event"",""trial"",""time""
""fullscreenenter"",""1"",""2692""
","
",,null,run_exp/static/images/task_images/aliens/old_aliens/planet/alien_planet-27.jpg,null,,,,,,,,,,,,,27,"22,9,29,46,28,51,62,27,35,1,19,26,54,15,10,33,21,34,65,61,31,23,72,17,12,38,42,75,11,69,45,37,43,78,36,47,25,79,60,77,16,59,74,68,20,13,66",,,,,,,,,,
land,151,499577,0.0-46.0-2.0,"""event"",""trial"",""time""
""fullscreenenter"",""1"",""2692""
","
","
","""event"",""trial"",""time""
""fullscreenenter"",""1"",""2692""
","
",,null,run_exp/static/images/task_images/land.jpg,null,,,,,,,101,,,8,,,,,,,,,,,,,,
dig,152,501589,0.0-46.0-3.0,"""event"",""trial"",""time""
""fullscreenenter"",""1"",""2692""
","
","
","""event"",""trial"",""time""
""fullscreenenter"",""1"",""2692""
","
",,,,,,,,,,,,"[{""stimulus"":""run_exp/static/images/task_images/dig.jpg"",""time"":0.30000001192092896},{""stimulus"":""run_exp/static/images/task_images/land.jpg"",""time"":672.6000000089407},{""stimulus"":""run_exp/static/images/task_images/dig.jpg"",""time"":1342.4000000059605}]",[],8,,,,,,,,,,,,,,
harvest,153,502601,0.0-46.0-4.0,"""event"",""trial"",""time""
""fullscreenenter"",""1"",""2692""
","
","
","""event"",""trial"",""time""
""fullscreenenter"",""1"",""2692""
","
",,null,run_exp/static/images/task_images/gems/101.jpg,null,,,,,,,77,,,8,,,,,101,0.759049135,0.762376238,,,,,,,
decision,154,503180,0.0-46.0-5.0,"""event"",""trial"",""time""
""fullscreenenter"",""1"",""2692""
","
","
","""event"",""trial"",""time""
""fullscreenenter"",""1"",""2692""
","
",,574.7,run_exp/static/images/task_images/land.jpg,65,,,,,,,77,,,8,,,,,,,,203359,1,0,FALSE,,,
dig,155,505618,0.0-47.0-0.0,"""event"",""trial"",""time""
""fullscreenenter"",""1"",""2692""
","
","
","""event"",""trial"",""time""
""fullscreenenter"",""1"",""2692""
","
",,,,,,,,,,,,"[{""stimulus"":""run_exp/static/images/task_images/dig.jpg"",""time"":0.29999999701976776},{""stimulus"":""run_exp/static/images/task_images/land.jpg"",""time"":817.0999999940395},{""stimulus"":""run_exp/static/images/task_images/dig.jpg"",""time"":1624.0999999940395}]",[],8,,,,,,,,,,,,,,
harvest,156,506625,0.0-47.0-1.0,"""event"",""trial"",""time""
""fullscreenenter"",""1"",""2692""
","
","
","""event"",""trial"",""time""
""fullscreenenter"",""1"",""2692""
","
",,null,run_exp/static/images/task_images/gems/77.jpg,null,,,,,,,65,,,8,,,,,77,0.845251395,0.844155844,,,,,,,
decision,157,507393,0.0-47.0-2.0,"""event"",""trial"",""time""
""fullscreenenter"",""1"",""2692""
","
","
","""event"",""trial"",""time""
""fullscreenenter"",""1"",""2692""
","
",,765.2,run_exp/static/images/task_images/land.jpg,65,,,,,,,65,,,8,,,,,,,,207572,1,1,FALSE,,,
dig,158,509636,0.0-48.0-0.0,"""event"",""trial"",""time""
""fullscreenenter"",""1"",""2692""
","
","
","""event"",""trial"",""time""
""fullscreenenter"",""1"",""2692""
","
",,,,,,,,,,,,"[{""stimulus"":""run_exp/static/images/task_images/dig.jpg"",""time"":0.10000000894069672},{""stimulus"":""run_exp/static/images/task_images/land.jpg"",""time"":748.7999999970198},{""stimulus"":""run_exp/static/images/task_images/dig.jpg"",""time"":1492.1000000089407}]",[],8,,,,,,,,,,,,,,
harvest,159,510645,0.0-48.0-1.0,"""event"",""trial"",""time""
""fullscreenenter"",""1"",""2692""
","
","
","""event"",""trial"",""time""
""fullscreenenter"",""1"",""2692""
","
",,null,run_exp/static/images/task_images/gems/65.jpg,null,,,,,,,50,,,8,,,,,65,0.773068781,0.769230769,,,,,,,
decision,160,510991,0.0-48.0-2.0,"""event"",""trial"",""time""
""fullscreenenter"",""1"",""2692""
","
","
","""event"",""trial"",""time""
""fullscreenenter"",""1"",""2692""
","
",,342.7,run_exp/static/images/task_images/land.jpg,65,,,,,,,50,,,8,,,,,,,,211170,1,2,FALSE,,,
dig,161,513660,0.0-49.0-0.0,"""event"",""trial"",""time""
""fullscreenenter"",""1"",""2692""
","
","
","""event"",""trial"",""time""
""fullscreenenter"",""1"",""2692""
","
",,,,,,,,,,,,"[{""stimulus"":""run_exp/static/images/task_images/dig.jpg"",""time"":0.29999999701976776},{""stimulus"":""run_exp/static/images/task_images/land.jpg"",""time"":894.7999999970198},{""stimulus"":""run_exp/static/images/task_images/dig.jpg"",""time"":1777.7000000029802}]",[],8,,,,,,,,,,,,,,
harvest,162,514665,0.0-49.0-1.0,"""event"",""trial"",""time""
""fullscreenenter"",""1"",""2692""
","
","
","""event"",""trial"",""time""
""fullscreenenter"",""1"",""2692""
","
",,null,run_exp/static/images/task_images/gems/50.jpg,null,,,,,,,37,,,8,,,,,50,0.74451549,0.74,,,,,,,
decision,163,515054,0.0-49.0-2.0,"""event"",""trial"",""time""
""fullscreenenter"",""1"",""2692""
","
","
","""event"",""trial"",""time""
""fullscreenenter"",""1"",""2692""
","
",,385.9,run_exp/static/images/task_images/land.jpg,76,,,,,,,37,,,8,,,,,,,,215234,1,3,TRUE,,,
travel,164,524685,0.0-50.0-0.0,"""event"",""trial"",""time""
""fullscreenenter"",""1"",""2692""
","
","
","""event"",""trial"",""time""
""fullscreenenter"",""1"",""2692""
","
",,,,,,,,,,,,"[{""stimulus"":""run_exp/static/images/task_images/rocket-01.jpg"",""time"":0.10000000894069672},{""stimulus"":""run_exp/static/images/task_images/rocket-02.jpg"",""time"":1071.4000000059605},{""stimulus"":""run_exp/static/images/task_images/rocket-03.jpg"",""time"":2138.2000000029802},{""stimulus"":""run_exp/static/images/task_images/rocket-04.jpg"",""time"":3216.7000000029802},{""stimulus"":""run_exp/static/images/task_images/rocket-05.jpg"",""time"":4277.800000011921},{""stimulus"":""run_exp/static/images/task_images/rocket-06.jpg"",""time"":5350.20000000298},{""stimulus"":""run_exp/static/images/task_images/rocket-07.jpg"",""time"":6415},{""stimulus"":""run_exp/static/images/task_images/rocket-08.jpg"",""time"":7490.20000000298},{""stimulus"":""run_exp/static/images/task_images/rocket-09.jpg"",""time"":8551.60000000894}]",[],8,,,,,,,,,,,,,,
alien_welcome,165,529701,0.0-50.0-1.0,"""event"",""trial"",""time""
""fullscreenenter"",""1"",""2692""
","
","
","""event"",""trial"",""time""
""fullscreenenter"",""1"",""2692""
","
",,null,run_exp/static/images/task_images/aliens/old_aliens/planet/alien_planet-35.jpg,null,,,,,,,,,,,,,35,"22,9,29,46,28,51,62,27,35,1,19,26,54,15,10,33,21,34,65,61,31,23,72,17,12,38,42,75,11,69,45,37,43,78,36,47,25,79,60,77,16,59,74,68,20,13,66",,,,,,,,,,
land,166,530211,0.0-50.0-2.0,"""event"",""trial"",""time""
""fullscreenenter"",""1"",""2692""
","
","
","""event"",""trial"",""time""
""fullscreenenter"",""1"",""2692""
","
",,null,run_exp/static/images/task_images/land.jpg,null,,,,,,,93,,,9,,,,,,,,,,,,,,
dig,167,532226,0.0-50.0-3.0,"""event"",""trial"",""time""
""fullscreenenter"",""1"",""2692""
","
","
","""event"",""trial"",""time""
""fullscreenenter"",""1"",""2692""
","
",,,,,,,,,,,,"[{""stimulus"":""run_exp/static/images/task_images/dig.jpg"",""time"":0.699999988079071},{""stimulus"":""run_exp/static/images/task_images/land.jpg"",""time"":675.8999999910593},{""stimulus"":""run_exp/static/images/task_images/dig.jpg"",""time"":1340.5999999940395}]",[],9,,,,,,,,,,,,,,
harvest,168,533234,0.0-50.0-4.0,"""event"",""trial"",""time""
""fullscreenenter"",""1"",""2692""
","
","
","""event"",""trial"",""time""
""fullscreenenter"",""1"",""2692""
","
",,null,run_exp/static/images/task_images/gems/93.jpg,null,,,,,,,16,,,9,,,,,93,0.176762236,0.172043011,,,,,,,
decision,169,533784,0.0-50.0-5.0,"""event"",""trial"",""time""
""fullscreenenter"",""1"",""2692""
","
","
","""event"",""trial"",""time""
""fullscreenenter"",""1"",""2692""
","
",,547.4,run_exp/static/images/task_images/land.jpg,65,,,,,,,16,,,9,,,,,,,,233963,1,0,FALSE,,,
dig,170,536250,0.0-51.0-0.0,"""event"",""trial"",""time""
""fullscreenenter"",""1"",""2692""
","
","
","""event"",""trial"",""time""
""fullscreenenter"",""1"",""2692""
","
",,,,,,,,,,,,"[{""stimulus"":""run_exp/static/images/task_images/dig.jpg"",""time"":0.20000000298023224},{""stimulus"":""run_exp/static/images/task_images/land.jpg"",""time"":821.1000000089407},{""stimulus"":""run_exp/static/images/task_images/dig.jpg"",""time"":1640.9000000059605}]",[],9,,,,,,,,,,,,,,
harvest,171,537258,0.0-51.0-1.0,"""event"",""trial"",""time""
""fullscreenenter"",""1"",""2692""
","
","
","""event"",""trial"",""time""
""fullscreenenter"",""1"",""2692""
","
",,null,run_exp/static/images/task_images/gems/16.jpg,null,,,,,,,5,,,9,,,,,16,0.283766367,0.3125,,,,,,,
decision,172,537388,0.0-51.0-2.0,"""event"",""trial"",""time""
""fullscreenenter"",""1"",""2692""
","
","
","""event"",""trial"",""time""
""fullscreenenter"",""1"",""2692""
","
",,126.9,run_exp/static/images/task_images/land.jpg,76,,,,,,,5,,,9,,,,,,,,237567,1,1,TRUE,,,
travel,173,547278,0.0-52.0-0.0,"""event"",""trial"",""time""
""fullscreenenter"",""1"",""2692""
","
","
","""event"",""trial"",""time""
""fullscreenenter"",""1"",""2692""
","
",,,,,,,,,,,,"[{""stimulus"":""run_exp/static/images/task_images/rocket-01.jpg"",""time"":0.10000000894069672},{""stimulus"":""run_exp/static/images/task_images/rocket-02.jpg"",""time"":1104.9000000059605},{""stimulus"":""run_exp/static/images/task_images/rocket-03.jpg"",""time"":2204},{""stimulus"":""run_exp/static/images/task_images/rocket-04.jpg"",""time"":3300},{""stimulus"":""run_exp/static/images/task_images/rocket-05.jpg"",""time"":4398.9000000059605},{""stimulus"":""run_exp/static/images/task_images/rocket-06.jpg"",""time"":5488.800000011921},{""stimulus"":""run_exp/static/images/task_images/rocket-07.jpg"",""time"":6588.600000008941},{""stimulus"":""run_exp/static/images/task_images/rocket-08.jpg"",""time"":7683.100000008941},{""stimulus"":""run_exp/static/images/task_images/rocket-09.jpg"",""time"":8788}]",[],9,,,,,,,,,,,,,,
alien_welcome,174,552292,0.0-52.0-1.0,"""event"",""trial"",""time""
""fullscreenenter"",""1"",""2692""
","
","
","""event"",""trial"",""time""
""fullscreenenter"",""1"",""2692""
","
",,null,run_exp/static/images/task_images/aliens/old_aliens/planet/alien_planet-1.jpg,null,,,,,,,,,,,,,1,"22,9,29,46,28,51,62,27,35,1,19,26,54,15,10,33,21,34,65,61,31,23,72,17,12,38,42,75,11,69,45,37,43,78,36,47,25,79,60,77,16,59,74,68,20,13,66",,,,,,,,,,
land,175,552801,0.0-52.0-2.0,"""event"",""trial"",""time""
""fullscreenenter"",""1"",""2692""
","
","
","""event"",""trial"",""time""
""fullscreenenter"",""1"",""2692""
","
",,null,run_exp/static/images/task_images/land.jpg,null,,,,,,,112,,,10,,,,,,,,,,,,,,
dig,176,554813,0.0-52.0-3.0,"""event"",""trial"",""time""
""fullscreenenter"",""1"",""2692""
","
","
","""event"",""trial"",""time""
""fullscreenenter"",""1"",""2692""
","
",,,,,,,,,,,,"[{""stimulus"":""run_exp/static/images/task_images/dig.jpg"",""time"":0.3999999910593033},{""stimulus"":""run_exp/static/images/task_images/land.jpg"",""time"":681.1999999880791},{""stimulus"":""run_exp/static/images/task_images/dig.jpg"",""time"":1344.0999999940395}]",[],10,,,,,,,,,,,,,,
harvest,177,555825,0.0-52.0-4.0,"""event"",""trial"",""time""
""fullscreenenter"",""1"",""2692""
","
","
","""event"",""trial"",""time""
""fullscreenenter"",""1"",""2692""
","
",,null,run_exp/static/images/task_images/gems/112.jpg,null,,,,,,,22,,,10,,,,,112,0.198139075,0.196428571,,,,,,,
decision,178,556156,0.0-52.0-5.0,"""event"",""trial"",""time""
""fullscreenenter"",""1"",""2692""
","
","
","""event"",""trial"",""time""
""fullscreenenter"",""1"",""2692""
","
",,328.1,run_exp/static/images/task_images/land.jpg,65,,,,,,,22,,,10,,,,,,,,256336,1,0,FALSE,,,
dig,179,558836,0.0-53.0-0.0,"""event"",""trial"",""time""
""fullscreenenter"",""1"",""2692""
","
","
","""event"",""trial"",""time""
""fullscreenenter"",""1"",""2692""
","
",,,,,,,,,,,,"[{""stimulus"":""run_exp/static/images/task_images/dig.jpg"",""time"":0.20000000298023224},{""stimulus"":""run_exp/static/images/task_images/land.jpg"",""time"":899.3000000119209},{""stimulus"":""run_exp/static/images/task_images/dig.jpg"",""time"":1788.300000011921}]",[],10,,,,,,,,,,,,,,
harvest,180,559845,0.0-53.0-1.0,"""event"",""trial"",""time""
""fullscreenenter"",""1"",""2692""
","
","
","""event"",""trial"",""time""
""fullscreenenter"",""1"",""2692""
","
",,null,run_exp/static/images/task_images/gems/22.jpg,null,,,,,,,4,,,10,,,,,22,0.181150463,0.181818182,,,,,,,
decision,181,559985,0.0-53.0-2.0,"""event"",""trial"",""time""
""fullscreenenter"",""1"",""2692""
","
","
","""event"",""trial"",""time""
""fullscreenenter"",""1"",""2692""
","
",,137.8,run_exp/static/images/task_images/land.jpg,76,,,,,,,4,,,10,,,,,,,,260164,1,1,TRUE,,,
travel,182,569851,0.0-54.0-0.0,"""event"",""trial"",""time""
""fullscreenenter"",""1"",""2692""
","
","
","""event"",""trial"",""time""
""fullscreenenter"",""1"",""2692""
","
",,,,,,,,,,,,"[{""stimulus"":""run_exp/static/images/task_images/rocket-01.jpg"",""time"":0.20000000298023224},{""stimulus"":""run_exp/static/images/task_images/rocket-02.jpg"",""time"":1103.4000000059605},{""stimulus"":""run_exp/static/images/task_images/rocket-03.jpg"",""time"":2198.4000000059605},{""stimulus"":""run_exp/static/images/task_images/rocket-04.jpg"",""time"":3295},{""stimulus"":""run_exp/static/images/task_images/rocket-05.jpg"",""time"":4392.29999999702},{""stimulus"":""run_exp/static/images/task_images/rocket-06.jpg"",""time"":5488.29999999702},{""stimulus"":""run_exp/static/images/task_images/rocket-07.jpg"",""time"":6580.4000000059605},{""stimulus"":""run_exp/static/images/task_images/rocket-08.jpg"",""time"":7667.9000000059605},{""stimulus"":""run_exp/static/images/task_images/rocket-09.jpg"",""time"":8768.29999999702}]",[],10,,,,,,,,,,,,,,
alien_welcome,183,574857,0.0-54.0-1.0,"""event"",""trial"",""time""
""fullscreenenter"",""1"",""2692""
","
","
","""event"",""trial"",""time""
""fullscreenenter"",""1"",""2692""
","
",,null,run_exp/static/images/task_images/aliens/old_aliens/planet/alien_planet-19.jpg,null,,,,,,,,,,,,,19,"22,9,29,46,28,51,62,27,35,1,19,26,54,15,10,33,21,34,65,61,31,23,72,17,12,38,42,75,11,69,45,37,43,78,36,47,25,79,60,77,16,59,74,68,20,13,66",,,,,,,,,,
land,184,575372,0.0-54.0-2.0,"""event"",""trial"",""time""
""fullscreenenter"",""1"",""2692""
","
","
","""event"",""trial"",""time""
""fullscreenenter"",""1"",""2692""
","
",,null,run_exp/static/images/task_images/land.jpg,null,,,,,,,103,,,11,,,,,,,,,,,,,,
dig,185,577389,0.0-54.0-3.0,"""event"",""trial"",""time""
""fullscreenenter"",""1"",""2692""
","
","
","""event"",""trial"",""time""
""fullscreenenter"",""1"",""2692""
","
",,,,,,,,,,,,"[{""stimulus"":""run_exp/static/images/task_images/dig.jpg"",""time"":0.5999999940395355},{""stimulus"":""run_exp/static/images/task_images/land.jpg"",""time"":675},{""stimulus"":""run_exp/static/images/task_images/dig.jpg"",""time"":1344.9000000059605}]",[],11,,,,,,,,,,,,,,
harvest,186,578401,0.0-54.0-4.0,"""event"",""trial"",""time""
""fullscreenenter"",""1"",""2692""
","
","
","""event"",""trial"",""time""
""fullscreenenter"",""1"",""2692""
","
",,null,run_exp/static/images/task_images/gems/103.jpg,null,,,,,,,23,,,11,,,,,103,0.223411774,0.223300971,,,,,,,
decision,187,579666,0.0-54.0-5.0,"""event"",""trial"",""time""
""fullscreenenter"",""1"",""2692""
","
","
","""event"",""trial"",""time""
""fullscreenenter"",""1"",""2692""
","
",,1260.2,run_exp/static/images/task_images/land.jpg,65,,,,,,,23,,,11,,,,,,,,279845,1,0,FALSE,,,
dig,188,581419,0.0-55.0-0.0,"""event"",""trial"",""time""
""fullscreenenter"",""1"",""2692""
","
","
","""event"",""trial"",""time""
""fullscreenenter"",""1"",""2692""
","
",,,,,,,,,,,,"[{""stimulus"":""run_exp/static/images/task_images/dig.jpg"",""time"":0.20000000298023224},{""stimulus"":""run_exp/static/images/task_images/land.jpg"",""time"":587.9000000059605},{""stimulus"":""run_exp/static/images/task_images/dig.jpg"",""time"":1164.2999999970198}]",[],11,,,,,,,,,,,,,,
harvest,189,582425,0.0-55.0-1.0,"""event"",""trial"",""time""
""fullscreenenter"",""1"",""2692""
","
","
","""event"",""trial"",""time""
""fullscreenenter"",""1"",""2692""
","
",,null,run_exp/static/images/task_images/gems/23.jpg,null,,,,,,,4,,,11,,,,,23,0.168437494,0.173913043,,,,,,,
decision,190,582919,0.0-55.0-2.0,"""event"",""trial"",""time""
""fullscreenenter"",""1"",""2692""
","
","
","""event"",""trial"",""time""
""fullscreenenter"",""1"",""2692""
","
",,490.7,run_exp/static/images/task_images/land.jpg,76,,,,,,,4,,,11,,,,,,,,283099,1,1,TRUE,,,
travel,191,592433,0.0-56.0-0.0,"""event"",""trial"",""time""
""fullscreenenter"",""1"",""2692""
","
","
","""event"",""trial"",""time""
""fullscreenenter"",""1"",""2692""
","
",,,,,,,,,,,,"[{""stimulus"":""run_exp/static/images/task_images/rocket-01.jpg"",""time"":0},{""stimulus"":""run_exp/static/images/task_images/rocket-02.jpg"",""time"":1065.3999999910593},{""stimulus"":""run_exp/static/images/task_images/rocket-03.jpg"",""time"":2118.699999988079},{""stimulus"":""run_exp/static/images/task_images/rocket-04.jpg"",""time"":3174.5},{""stimulus"":""run_exp/static/images/task_images/rocket-05.jpg"",""time"":4230.699999988079},{""stimulus"":""run_exp/static/images/task_images/rocket-06.jpg"",""time"":5287.699999988079},{""stimulus"":""run_exp/static/images/task_images/rocket-07.jpg"",""time"":6343.0999999940395},{""stimulus"":""run_exp/static/images/task_images/rocket-08.jpg"",""time"":7398.199999988079},{""stimulus"":""run_exp/static/images/task_images/rocket-09.jpg"",""time"":8453.699999988079}]",[],11,,,,,,,,,,,,,,
alien_welcome,192,597445,0.0-56.0-1.0,"""event"",""trial"",""time""
""fullscreenenter"",""1"",""2692""
","
","
","""event"",""trial"",""time""
""fullscreenenter"",""1"",""2692""
","
",,null,run_exp/static/images/task_images/aliens/old_aliens/planet/alien_planet-26.jpg,null,,,,,,,,,,,,,26,"22,9,29,46,28,51,62,27,35,1,19,26,54,15,10,33,21,34,65,61,31,23,72,17,12,38,42,75,11,69,45,37,43,78,36,47,25,79,60,77,16,59,74,68,20,13,66",,,,,,,,,,
land,193,597957,0.0-56.0-2.0,"""event"",""trial"",""time""
""fullscreenenter"",""1"",""2692""
","
","
","""event"",""trial"",""time""
""fullscreenenter"",""1"",""2692""
","
",,null,run_exp/static/images/task_images/land.jpg,null,,,,,,,108,,,12,,,,,,,,,,,,,,
dig,194,599969,0.0-56.0-3.0,"""event"",""trial"",""time""
""fullscreenenter"",""1"",""2692""
","
","
","""event"",""trial"",""time""
""fullscreenenter"",""1"",""2692""
","
",,,,,,,,,,,,"[{""stimulus"":""run_exp/static/images/task_images/dig.jpg"",""time"":0.5},{""stimulus"":""run_exp/static/images/task_images/land.jpg"",""time"":672.2000000029802},{""stimulus"":""run_exp/static/images/task_images/dig.jpg"",""time"":1347.1000000089407}]",[],12,,,,,,,,,,,,,,
harvest,195,600978,0.0-56.0-4.0,"""event"",""trial"",""time""
""fullscreenenter"",""1"",""2692""
","
","
","""event"",""trial"",""time""
""fullscreenenter"",""1"",""2692""
","
",,null,run_exp/static/images/task_images/gems/108.jpg,null,,,,,,,19,,,12,,,,,108,0.172965798,0.175925926,,,,,,,
decision,196,601474,0.0-56.0-5.0,"""event"",""trial"",""time""
""fullscreenenter"",""1"",""2692""
","
","
","""event"",""trial"",""time""
""fullscreenenter"",""1"",""2692""
","
",,492.8,run_exp/static/images/task_images/land.jpg,65,,,,,,,19,,,12,,,,,,,,301654,1,0,TRUE,,,
end_of_block_continue,197,605326,0.0-57.0-0.0,"""event"",""trial"",""time""
""fullscreenenter"",""1"",""2692""
","
","
","""event"",""trial"",""time""
""fullscreenenter"",""1"",""2692""
","
",,3847.1,run_exp/static/audio/clip_32_block_end.m4a,,,,,,,0,,,,,,,,,,,,,,,,,,
alien_welcome,198,610332,0.0-58.0-0.0,"""event"",""trial"",""time""
""fullscreenenter"",""1"",""2692""
","
","
","""event"",""trial"",""time""
""fullscreenenter"",""1"",""2692""
","
",,null,run_exp/static/images/task_images/aliens/old_aliens/planet/alien_planet-54.jpg,null,,,,,,,,,,,,,54,"22,9,29,46,28,51,62,27,35,1,19,26,54,15,10,33,21,34,65,61,31,23,72,17,12,38,42,75,11,69,45,37,43,78,36,47,25,79,60,77,16,59,74,68,20,13,66",,,,,,,,,,
land,199,610845,0.0-58.0-1.0,"""event"",""trial"",""time""
""fullscreenenter"",""1"",""2692""
","
","
","""event"",""trial"",""time""
""fullscreenenter"",""1"",""2692""
","
",,null,run_exp/static/images/task_images/land.jpg,null,,,,,,,93,,,13,,,,,,,,,,,,,,
dig,200,612858,0.0-58.0-2.0,"""event"",""trial"",""time""
""fullscreenenter"",""1"",""2692""
","
","
","""event"",""trial"",""time""
""fullscreenenter"",""1"",""2692""
","
",,,,,,,,,,,,"[{""stimulus"":""run_exp/static/images/task_images/dig.jpg"",""time"":0.4000000059604645},{""stimulus"":""run_exp/static/images/task_images/land.jpg"",""time"":675.2999999970198},{""stimulus"":""run_exp/static/images/task_images/dig.jpg"",""time"":1337.4000000059605}]",[],13,,,,,,,,,,,,,,
harvest,201,613866,0.0-58.0-3.0,"""event"",""trial"",""time""
""fullscreenenter"",""1"",""2692""
","
","
","""event"",""trial"",""time""
""fullscreenenter"",""1"",""2692""
","
",,null,run_exp/static/images/task_images/gems/93.jpg,null,,,,,,,18,,,13,,,,,93,0.197968346,0.193548387,,,,,,,
decision,202,614303,0.0-58.0-4.0,"""event"",""trial"",""time""
""fullscreenenter"",""1"",""2692""
","
","
","""event"",""trial"",""time""
""fullscreenenter"",""1"",""2692""
","
",,433.7,run_exp/static/images/task_images/land.jpg,65,,,,,,,18,,,13,,,,,,,,8975,2,0,FALSE,,,
dig,203,616883,0.0-59.0-0.0,"""event"",""trial"",""time""
""fullscreenenter"",""1"",""2692""
","
","
","""event"",""trial"",""time""
""fullscreenenter"",""1"",""2692""
","
",,,,,,,,,,,,"[{""stimulus"":""run_exp/static/images/task_images/dig.jpg"",""time"":0.20000000298023224},{""stimulus"":""run_exp/static/images/task_images/land.jpg"",""time"":864.5},{""stimulus"":""run_exp/static/images/task_images/dig.jpg"",""time"":1719.2999999970198}]",[],13,,,,,,,,,,,,,,
harvest,204,617891,0.0-59.0-1.0,"""event"",""trial"",""time""
""fullscreenenter"",""1"",""2692""
","
","
","""event"",""trial"",""time""
""fullscreenenter"",""1"",""2692""
","
",,null,run_exp/static/images/task_images/gems/18.jpg,null,,,,,,,3,,,13,,,,,18,0.163399937,0.166666667,,,,,,,
decision,205,618235,0.0-59.0-2.0,"""event"",""trial"",""time""
""fullscreenenter"",""1"",""2692""
","
","
","""event"",""trial"",""time""
""fullscreenenter"",""1"",""2692""
","
",,342.1,run_exp/static/images/task_images/land.jpg,76,,,,,,,3,,,13,,,,,,,,12907,2,1,TRUE,,,
travel,206,627907,0.0-60.0-0.0,"""event"",""trial"",""time""
""fullscreenenter"",""1"",""2692""
","
","
","""event"",""trial"",""time""
""fullscreenenter"",""1"",""2692""
","
",,,,,,,,,,,,"[{""stimulus"":""run_exp/static/images/task_images/rocket-01.jpg"",""time"":0.20000000298023224},{""stimulus"":""run_exp/static/images/task_images/rocket-02.jpg"",""time"":1084.6000000089407},{""stimulus"":""run_exp/static/images/task_images/rocket-03.jpg"",""time"":2157.5},{""stimulus"":""run_exp/static/images/task_images/rocket-04.jpg"",""time"":3228},{""stimulus"":""run_exp/static/images/task_images/rocket-05.jpg"",""time"":4298.600000008941},{""stimulus"":""run_exp/static/images/task_images/rocket-06.jpg"",""time"":5375.5},{""stimulus"":""run_exp/static/images/task_images/rocket-07.jpg"",""time"":6443.600000008941},{""stimulus"":""run_exp/static/images/task_images/rocket-08.jpg"",""time"":7515.9000000059605},{""stimulus"":""run_exp/static/images/task_images/rocket-09.jpg"",""time"":8592.60000000894}]",[],13,,,,,,,,,,,,,,
alien_welcome,207,632917,0.0-60.0-1.0,"""event"",""trial"",""time""
""fullscreenenter"",""1"",""2692""
","
","
","""event"",""trial"",""time""
""fullscreenenter"",""1"",""2692""
","
",,null,run_exp/static/images/task_images/aliens/old_aliens/planet/alien_planet-15.jpg,null,,,,,,,,,,,,,15,"22,9,29,46,28,51,62,27,35,1,19,26,54,15,10,33,21,34,65,61,31,23,72,17,12,38,42,75,11,69,45,37,43,78,36,47,25,79,60,77,16,59,74,68,20,13,66",,,,,,,,,,
land,208,633426,0.0-60.0-2.0,"""event"",""trial"",""time""
""fullscreenenter"",""1"",""2692""
","
","
","""event"",""trial"",""time""
""fullscreenenter"",""1"",""2692""
","
",,null,run_exp/static/images/task_images/land.jpg,null,,,,,,,101,,,14,,,,,,,,,,,,,,
dig,209,635437,0.0-60.0-3.0,"""event"",""trial"",""time""
""fullscreenenter"",""1"",""2692""
","
","
","""event"",""trial"",""time""
""fullscreenenter"",""1"",""2692""
","
",,,,,,,,,,,,"[{""stimulus"":""run_exp/static/images/task_images/dig.jpg"",""time"":0.5},{""stimulus"":""run_exp/static/images/task_images/land.jpg"",""time"":675.7000000029802},{""stimulus"":""run_exp/static/images/task_images/dig.jpg"",""time"":1342.9000000059605}]",[],14,,,,,,,,,,,,,,
harvest,210,636451,0.0-60.0-4.0,"""event"",""trial"",""time""
""fullscreenenter"",""1"",""2692""
","
","
","""event"",""trial"",""time""
""fullscreenenter"",""1"",""2692""
","
",,null,run_exp/static/images/task_images/gems/101.jpg,null,,,,,,,25,,,14,,,,,101,0.248351761,0.247524752,,,,,,,
decision,211,637287,0.0-60.0-5.0,"""event"",""trial"",""time""
""fullscreenenter"",""1"",""2692""
","
","
","""event"",""trial"",""time""
""fullscreenenter"",""1"",""2692""
","
",,833.7,run_exp/static/images/task_images/land.jpg,65,,,,,,,25,,,14,,,,,,,,31959,2,0,FALSE,,,
dig,212,639465,0.0-61.0-0.0,"""event"",""trial"",""time""
""fullscreenenter"",""1"",""2692""
","
","
","""event"",""trial"",""time""
""fullscreenenter"",""1"",""2692""
","
",,,,,,,,,,,,"[{""stimulus"":""run_exp/static/images/task_images/dig.jpg"",""time"":0},{""stimulus"":""run_exp/static/images/task_images/land.jpg"",""time"":731.3000000119209},{""stimulus"":""run_exp/static/images/task_images/dig.jpg"",""time"":1447.4000000059605}]",[],14,,,,,,,,,,,,,,
harvest,213,640475,0.0-61.0-1.0,"""event"",""trial"",""time""
""fullscreenenter"",""1"",""2692""
","
","
","""event"",""trial"",""time""
""fullscreenenter"",""1"",""2692""
","
",,null,run_exp/static/images/task_images/gems/25.jpg,null,,,,,,,5,,,14,,,,,25,0.188128592,0.2,,,,,,,
decision,214,640851,0.0-61.0-2.0,"""event"",""trial"",""time""
""fullscreenenter"",""1"",""2692""
","
","
","""event"",""trial"",""time""
""fullscreenenter"",""1"",""2692""
","
",,373,run_exp/static/images/task_images/land.jpg,76,,,,,,,5,,,14,,,,,,,,35522,2,1,TRUE,,,
travel,215,650481,0.0-62.0-0.0,"""event"",""trial"",""time""
""fullscreenenter"",""1"",""2692""
","
","
","""event"",""trial"",""time""
""fullscreenenter"",""1"",""2692""
","
",,,,,,,,,,,,"[{""stimulus"":""run_exp/static/images/task_images/rocket-01.jpg"",""time"":0.10000000894069672},{""stimulus"":""run_exp/static/images/task_images/rocket-02.jpg"",""time"":1082.2000000029802},{""stimulus"":""run_exp/static/images/task_images/rocket-03.jpg"",""time"":2147.4000000059605},{""stimulus"":""run_exp/static/images/task_images/rocket-04.jpg"",""time"":3212.4000000059605},{""stimulus"":""run_exp/static/images/task_images/rocket-05.jpg"",""time"":4286.9000000059605},{""stimulus"":""run_exp/static/images/task_images/rocket-06.jpg"",""time"":5358.4000000059605},{""stimulus"":""run_exp/static/images/task_images/rocket-07.jpg"",""time"":6418.70000000298},{""stimulus"":""run_exp/static/images/task_images/rocket-08.jpg"",""time"":7493.9000000059605},{""stimulus"":""run_exp/static/images/task_images/rocket-09.jpg"",""time"":8558.800000011921}]",[],14,,,,,,,,,,,,,,
alien_welcome,216,655492,0.0-62.0-1.0,"""event"",""trial"",""time""
""fullscreenenter"",""1"",""2692""
","
","
","""event"",""trial"",""time""
""fullscreenenter"",""1"",""2692""
","
",,null,run_exp/static/images/task_images/aliens/old_aliens/planet/alien_planet-10.jpg,null,,,,,,,,,,,,,10,"22,9,29,46,28,51,62,27,35,1,19,26,54,15,10,33,21,34,65,61,31,23,72,17,12,38,42,75,11,69,45,37,43,78,36,47,25,79,60,77,16,59,74,68,20,13,66",,,,,,,,,,
land,217,656001,0.0-62.0-2.0,"""event"",""trial"",""time""
""fullscreenenter"",""1"",""2692""
","
","
","""event"",""trial"",""time""
""fullscreenenter"",""1"",""2692""
","
",,null,run_exp/static/images/task_images/land.jpg,null,,,,,,,105,,,15,,,,,,,,,,,,,,
dig,218,658013,0.0-62.0-3.0,"""event"",""trial"",""time""
""fullscreenenter"",""1"",""2692""
","
","
","""event"",""trial"",""time""
""fullscreenenter"",""1"",""2692""
","
",,,,,,,,,,,,"[{""stimulus"":""run_exp/static/images/task_images/dig.jpg"",""time"":0.3999999910593033},{""stimulus"":""run_exp/static/images/task_images/land.jpg"",""time"":679},{""stimulus"":""run_exp/static/images/task_images/dig.jpg"",""time"":1343}]",[],15,,,,,,,,,,,,,,
harvest,219,659025,0.0-62.0-4.0,"""event"",""trial"",""time""
""fullscreenenter"",""1"",""2692""
","
","
","""event"",""trial"",""time""
""fullscreenenter"",""1"",""2692""
","
",,null,run_exp/static/images/task_images/gems/105.jpg,null,,,,,,,18,,,15,,,,,105,0.174662189,0.171428571,,,,,,,
decision,220,659467,0.0-62.0-5.0,"""event"",""trial"",""time""
""fullscreenenter"",""1"",""2692""
","
","
","""event"",""trial"",""time""
""fullscreenenter"",""1"",""2692""
","
",,439.1,run_exp/static/images/task_images/land.jpg,65,,,,,,,18,,,15,,,,,,,,54138,2,0,FALSE,,,
dig,221,662033,0.0-63.0-0.0,"""event"",""trial"",""time""
""fullscreenenter"",""1"",""2692""
","
","
","""event"",""trial"",""time""
""fullscreenenter"",""1"",""2692""
","
",,,,,,,,,,,,"[{""stimulus"":""run_exp/static/images/task_images/dig.jpg"",""time"":0.09999999403953552},{""stimulus"":""run_exp/static/images/task_images/land.jpg"",""time"":854.0999999940395},{""stimulus"":""run_exp/static/images/task_images/dig.jpg"",""time"":1717}]",[],15,,,,,,,,,,,,,,
harvest,222,663045,0.0-63.0-1.0,"""event"",""trial"",""time""
""fullscreenenter"",""1"",""2692""
","
","
","""event"",""trial"",""time""
""fullscreenenter"",""1"",""2692""
","
",,null,run_exp/static/images/task_images/gems/18.jpg,null,,,,,,,3,,,15,,,,,18,0.142477755,0.166666667,,,,,,,
decision,223,663581,0.0-63.0-2.0,"""event"",""trial"",""time""
""fullscreenenter"",""1"",""2692""
","
","
","""event"",""trial"",""time""
""fullscreenenter"",""1"",""2692""
","
",,531.6,run_exp/static/images/task_images/land.jpg,76,,,,,,,3,,,15,,,,,,,,58252,2,1,TRUE,,,
travel,224,673059,0.0-64.0-0.0,"""event"",""trial"",""time""
""fullscreenenter"",""1"",""2692""
","
","
","""event"",""trial"",""time""
""fullscreenenter"",""1"",""2692""
","
",,,,,,,,,,,,"[{""stimulus"":""run_exp/static/images/task_images/rocket-01.jpg"",""time"":0.10000000894069672},{""stimulus"":""run_exp/static/images/task_images/rocket-02.jpg"",""time"":1056.300000011921},{""stimulus"":""run_exp/static/images/task_images/rocket-03.jpg"",""time"":2112.6000000089407},{""stimulus"":""run_exp/static/images/task_images/rocket-04.jpg"",""time"":3162.5},{""stimulus"":""run_exp/static/images/task_images/rocket-05.jpg"",""time"":4212.600000008941},{""stimulus"":""run_exp/static/images/task_images/rocket-06.jpg"",""time"":5266.5},{""stimulus"":""run_exp/static/images/task_images/rocket-07.jpg"",""time"":6322.600000008941},{""stimulus"":""run_exp/static/images/task_images/rocket-08.jpg"",""time"":7373.70000000298},{""stimulus"":""run_exp/static/images/task_images/rocket-09.jpg"",""time"":8425.300000011921}]",[],15,,,,,,,,,,,,,,
alien_welcome,225,678066,0.0-64.0-1.0,"""event"",""trial"",""time""
""fullscreenenter"",""1"",""2692""
","
","
","""event"",""trial"",""time""
""fullscreenenter"",""1"",""2692""
","
",,null,run_exp/static/images/task_images/aliens/old_aliens/planet/alien_planet-33.jpg,null,,,,,,,,,,,,,33,"22,9,29,46,28,51,62,27,35,1,19,26,54,15,10,33,21,34,65,61,31,23,72,17,12,38,42,75,11,69,45,37,43,78,36,47,25,79,60,77,16,59,74,68,20,13,66",,,,,,,,,,
land,226,678581,0.0-64.0-2.0,"""event"",""trial"",""time""
""fullscreenenter"",""1"",""2692""
","
","
","""event"",""trial"",""time""
""fullscreenenter"",""1"",""2692""
","
",,null,run_exp/static/images/task_images/land.jpg,null,,,,,,,105,,,16,,,,,,,,,,,,,,
dig,227,680594,0.0-64.0-3.0,"""event"",""trial"",""time""
""fullscreenenter"",""1"",""2692""
","
","
","""event"",""trial"",""time""
""fullscreenenter"",""1"",""2692""
","
",,,,,,,,,,,,"[{""stimulus"":""run_exp/static/images/task_images/dig.jpg"",""time"":0.5},{""stimulus"":""run_exp/static/images/task_images/land.jpg"",""time"":674.2000000029802},{""stimulus"":""run_exp/static/images/task_images/dig.jpg"",""time"":1345.5}]",[],16,,,,,,,,,,,,,,
harvest,228,681603,0.0-64.0-4.0,"""event"",""trial"",""time""
""fullscreenenter"",""1"",""2692""
","
","
","""event"",""trial"",""time""
""fullscreenenter"",""1"",""2692""
","
",,null,run_exp/static/images/task_images/gems/105.jpg,null,,,,,,,88,,,16,,,,,105,0.840010015,0.838095238,,,,,,,
decision,229,681962,0.0-64.0-5.0,"""event"",""trial"",""time""
""fullscreenenter"",""1"",""2692""
","
","
","""event"",""trial"",""time""
""fullscreenenter"",""1"",""2692""
","
",,357.7,run_exp/static/images/task_images/land.jpg,65,,,,,,,88,,,16,,,,,,,,76633,2,0,FALSE,,,
dig,230,684611,0.0-65.0-0.0,"""event"",""trial"",""time""
""fullscreenenter"",""1"",""2692""
","
","
","""event"",""trial"",""time""
""fullscreenenter"",""1"",""2692""
","
",,,,,,,,,,,,"[{""stimulus"":""run_exp/static/images/task_images/dig.jpg"",""time"":0.09999999403953552},{""stimulus"":""run_exp/static/images/task_images/land.jpg"",""time"":886.0999999940395},{""stimulus"":""run_exp/static/images/task_images/dig.jpg"",""time"":1764.8999999910593}]",[],16,,,,,,,,,,,,,,
harvest,231,685618,0.0-65.0-1.0,"""event"",""trial"",""time""
""fullscreenenter"",""1"",""2692""
","
","
","""event"",""trial"",""time""
""fullscreenenter"",""1"",""2692""
","
",,null,run_exp/static/images/task_images/gems/88.jpg,null,,,,,,,72,,,16,,,,,88,0.818476008,0.818181818,,,,,,,
decision,232,686029,0.0-65.0-2.0,"""event"",""trial"",""time""
""fullscreenenter"",""1"",""2692""
","
","
","""event"",""trial"",""time""
""fullscreenenter"",""1"",""2692""
","
",,408.1,run_exp/static/images/task_images/land.jpg,65,,,,,,,72,,,16,,,,,,,,80700,2,1,FALSE,,,
dig,233,688625,0.0-66.0-0.0,"""event"",""trial"",""time""
""fullscreenenter"",""1"",""2692""
","
","
","""event"",""trial"",""time""
""fullscreenenter"",""1"",""2692""
","
",,,,,,,,,,,,"[{""stimulus"":""run_exp/static/images/task_images/dig.jpg"",""time"":0.09999999403953552},{""stimulus"":""run_exp/static/images/task_images/land.jpg"",""time"":876.4000000059605},{""stimulus"":""run_exp/static/images/task_images/dig.jpg"",""time"":1740.4000000059605}]",[],16,,,,,,,,,,,,,,
harvest,234,689637,0.0-66.0-1.0,"""event"",""trial"",""time""
""fullscreenenter"",""1"",""2692""
","
","
","""event"",""trial"",""time""
""fullscreenenter"",""1"",""2692""
","
",,null,run_exp/static/images/task_images/gems/72.jpg,null,,,,,,,58,,,16,,,,,72,0.811453311,0.805555556,,,,,,,
decision,235,690007,0.0-66.0-2.0,"""event"",""trial"",""time""
""fullscreenenter"",""1"",""2692""
","
","
","""event"",""trial"",""time""
""fullscreenenter"",""1"",""2692""
","
",,366.8,run_exp/static/images/task_images/land.jpg,65,,,,,,,58,,,16,,,,,,,,84678,2,2,FALSE,,,
dig,236,692649,0.0-67.0-0.0,"""event"",""trial"",""time""
""fullscreenenter"",""1"",""2692""
","
","
","""event"",""trial"",""time""
""fullscreenenter"",""1"",""2692""
","
",,,,,,,,,,,,"[{""stimulus"":""run_exp/static/images/task_images/dig.jpg"",""time"":0.10000000894069672},{""stimulus"":""run_exp/static/images/task_images/land.jpg"",""time"":888},{""stimulus"":""run_exp/static/images/task_images/dig.jpg"",""time"":1761.1000000089407}]",[],16,,,,,,,,,,,,,,
harvest,237,693657,0.0-67.0-1.0,"""event"",""trial"",""time""
""fullscreenenter"",""1"",""2692""
","
","
","""event"",""trial"",""time""
""fullscreenenter"",""1"",""2692""
","
",,null,run_exp/static/images/task_images/gems/58.jpg,null,,,,,,,45,,,16,,,,,58,0.780663859,0.775862069,,,,,,,
decision,238,693703,0.0-67.0-2.0,"""event"",""trial"",""time""
""fullscreenenter"",""1"",""2692""
