trial_type,trial_index,time_elapsed,internal_node_id,interactions,blur_events,focus_events,fullscreenenter_events,fullscreenexit_events,success,rt,stimulus,key_press,prompt,subject_id,participant_id,age,gender,button_pressed,next_reward,animation_sequence,responses,planet,curr_prac_trial,n_prac_rounds,alien,aliens,reward_received,decay_rate_actual,decay_rate_exp,time_in_block,block_num,prt,last_trial_on_planet,button_html,bonus,num_failures
pavlovia,0,4,0.0-0.0,"""event"",""trial"",""time""
""fullscreenenter"",""1"",""3710""
","
","
","""event"",""trial"",""time""
""fullscreenenter"",""1"",""3710""
","
",,,,,,,,,,,,,,,,,,,,,,,,,,,,
fullscreen,1,4695,0.0-1.0,"""event"",""trial"",""time""
""fullscreenenter"",""1"",""3710""
","
","
","""event"",""trial"",""time""
""fullscreenenter"",""1"",""3710""
","
",TRUE,,,,,,,,,,,,,,,,,,,,,,,,,,,
instruc_welcome,2,14563,0.0-2.0,"""event"",""trial"",""time""
""fullscreenenter"",""1"",""3710""
","
","
","""event"",""trial"",""time""
""fullscreenenter"",""1"",""3710""
","
",,null,run_exp/static/audio/clip_1_welcome.m4a,null,"<p>Howdy! In this experiment, you’ll be an explorer traveling through space to collect space treasure.</p><p>Your mission is to collect as much treasure as possible.</p><br><br><p><img src='run_exp/static/images/task_images/opening_img-01.jpg' height='300' width='auto'></p>",9208,4305,24.33,Male,,,,,,,,,,,,,,,,,,,
audio-keyboard-response,3,31222,0.0-3.0,"""event"",""trial"",""time""
""fullscreenenter"",""1"",""3710""
","
","
","""event"",""trial"",""time""
""fullscreenenter"",""1"",""3710""
","
",,null,run_exp/static/audio/clip_2_move.m4a,null,,,,,,,,,,,,,,,,,,,,,,,,
welcome_dec,4,33397,0.0-4.0,"""event"",""trial"",""time""
""fullscreenenter"",""1"",""3710""
","
","
","""event"",""trial"",""time""
""fullscreenenter"",""1"",""3710""
","
",,2173.5,"<p>Howdy! In this experiment, you’ll be an explorer traveling through space to collect space treasure.</p><p>Your mission is to collect as much treasure as possible.</p><br><br><p><img src='run_exp/static/images/task_images/opening_img-01.jpg' height='300' width='auto'></p>",,,,,,,1,,,,,,,,,,,,,,,,,,
html-keyboard-response,5,34313,0.0-5.0,"""event"",""trial"",""time""
""fullscreenenter"",""1"",""3710""
","
","
","""event"",""trial"",""time""
""fullscreenenter"",""1"",""3710""
","
",,915.1,"<p>Howdy! In this experiment, you’ll be an explorer traveling through space to collect space treasure.</p><p>Your mission is to collect as much treasure as possible.</p><br><br><p><img src='run_exp/static/images/task_images/opening_img-01.jpg' height='300' width='auto'></p><button class=""jspsych-html-btn-unchosen""><img src=""run_exp/static/images/task_images/planet-01.jpg"" height=""50""></button><button class=""jspsych-html-btn-chosen""><img src=""run_exp/static/images/task_images/planet-02.jpg"" height=""50""></button><p><b>[press the space bar to lock in your answer]<b><br></p>",32,,,,,,,,,,,,,,,,,,,,,,,,
instruc_goal,6,44443,0.0-6.0-0.0,"""event"",""trial"",""time""
""fullscreenenter"",""1"",""3710""
","
","
","""event"",""trial"",""time""
""fullscreenenter"",""1"",""3710""
","
",,null,run_exp/static/audio/clip_3_goal.m4a,null,"<p> As a space explorer, you’ll visit different planets to dig for space treasure, these pink gems.</p> <p> The more treasure you dig up, the more bonus money you’ll win! </p><br><br><p><img src='run_exp/static/images/task_images/pink_gem.jpg' height='300' width='auto'></p>",,,,,,,,,,,,,,,,,,,,,,,
instruc_goal,7,47661,0.0-6.0-1.0,"""event"",""trial"",""time""
""fullscreenenter"",""1"",""3710""
","
","
","""event"",""trial"",""time""
""fullscreenenter"",""1"",""3710""
","
",,3215.7,"<p> As a space explorer, you’ll visit different planets to dig for space treasure, these pink gems.</p> <p> The more treasure you dig up, the more bonus money you’ll win! </p><br><br><p><img src='run_exp/static/images/task_images/pink_gem.jpg' height='300' width='auto'></p>",,,,,,,1,,,,,,,,,,,,,,,,,,
html-keyboard-response,8,48029,0.0-6.0-2.0,"""event"",""trial"",""time""
""fullscreenenter"",""1"",""3710""
","
","
","""event"",""trial"",""time""
""fullscreenenter"",""1"",""3710""
","
",,366.6,"<p> As a space explorer, you’ll visit different planets to dig for space treasure, these pink gems.</p> <p> The more treasure you dig up, the more bonus money you’ll win! </p><br><br><p><img src='run_exp/static/images/task_images/pink_gem.jpg' height='300' width='auto'></p><button class=""jspsych-html-btn-unchosen""><img src=""run_exp/static/images/task_images/planet-01.jpg"" height=""50""></button><button class=""jspsych-html-btn-chosen""><img src=""run_exp/static/images/task_images/planet-02.jpg"" height=""50""></button><p><b>[press the space bar to lock in your answer]<b><br></p>",32,,,,,,,,,,,,,,,,,,,,,,,,
instruc_dig,9,64102,0.0-7.0-0.0,"""event"",""trial"",""time""
""fullscreenenter"",""1"",""3710""
","
","
","""event"",""trial"",""time""
""fullscreenenter"",""1"",""3710""
","
",,null,run_exp/static/audio/clip_4_dig.m4a,null,,,,,,,100,,,,,,,,,,,,,,,,,
instruc_dig_try,10,65247,0.0-7.0-1.0,"""event"",""trial"",""time""
""fullscreenenter"",""1"",""3710""
","
","
","""event"",""trial"",""time""
""fullscreenenter"",""1"",""3710""
","
",,1144.2,"<p> When you’ve arrived at a new planet, you will dig once. </p> <p>Then, you get to decide if you want to stay on the planet and dig again or travel to a new planet and dig there.</p> <p> To stay and dig, press the letter <strong>‘A’</strong> on your keyboard. Try pressing it now! </p><p><img src='run_exp/static/images/task_images/land.jpg'  height='700' width='auto'></p>",65,"<p> When you’ve arrived at a new planet, you will dig once. </p> <p>Then, you get to decide if you want to stay on the planet and dig again or travel to a new planet and dig there.</p> <p> To stay and dig, press the letter <strong>‘A’</strong> on your keyboard. Try pressing it now! </p><p><img src='run_exp/static/images/task_images/land.jpg'  height='700' width='auto'></p>",,,,,,100,,,,,,,,,,,,,,,,,
dig_prac,11,67260,0.0-7.0-2.0,"""event"",""trial"",""time""
""fullscreenenter"",""1"",""3710""
","
","
","""event"",""trial"",""time""
""fullscreenenter"",""1"",""3710""
","
",,,,,,,,,,,,"[{""stimulus"":""run_exp/static/images/task_images/dig.jpg"",""time"":0.29999999701976776},{""stimulus"":""run_exp/static/images/task_images/land.jpg"",""time"":669.9000000059605},{""stimulus"":""run_exp/static/images/task_images/dig.jpg"",""time"":1338.4000000059605}]",[],,,,,,,,,,,,,,,
instruc_travel,12,103563,0.0-7.0-3.0,"""event"",""trial"",""time""
""fullscreenenter"",""1"",""3710""
","
","
","""event"",""trial"",""time""
""fullscreenenter"",""1"",""3710""
","
",,null,run_exp/static/audio/clip_5_travel.m4a,null,"<p>Every time you dig up gems, there are less gems on the planet, so the more you dig on a planet the fewer gems you’ll get with each dig.</p><p>When gems are running low, you may want to travel to a new planet. </p> <p>  Planets are very far apart in this galaxy, so it will take some time to travel between them. </p> <br><p>There are lots and lots of planets for you to visit, so you won’t be able to return to any planets you’ve seen before. </p><br><p>To leave this planet and travel to a new one, press the letter <strong>‘L’</strong> on your keyboard. Try pressing it now! </p><p><img src='run_exp/static/images/task_images/rocket-01.jpg'  height='600' width='auto'></p>",,,,,,,,,,,,,,,,,,,,,,,
instruc_travel_try,13,105357,0.0-7.0-4.0,"""event"",""trial"",""time""
""fullscreenenter"",""1"",""3710""
","
","
","""event"",""trial"",""time""
""fullscreenenter"",""1"",""3710""
","
",,1793,"<p>Every time you dig up gems, there are less gems on the planet, so the more you dig on a planet the fewer gems you’ll get with each dig.</p><p>When gems are running low, you may want to travel to a new planet. </p> <p>  Planets are very far apart in this galaxy, so it will take some time to travel between them. </p> <br><p>There are lots and lots of planets for you to visit, so you won’t be able to return to any planets you’ve seen before. </p><br><p>To leave this planet and travel to a new one, press the letter <strong>‘L’</strong> on your keyboard. Try pressing it now! </p><p><img src='run_exp/static/images/task_images/rocket-01.jpg'  height='600' width='auto'></p>",76,"<p>Every time you dig up gems, there are less gems on the planet, so the more you dig on a planet the fewer gems you’ll get with each dig.</p><p>When gems are running low, you may want to travel to a new planet. </p> <p>  Planets are very far apart in this galaxy, so it will take some time to travel between them. </p> <br><p>There are lots and lots of planets for you to visit, so you won’t be able to return to any planets you’ve seen before. </p><br><p>To leave this planet and travel to a new one, press the letter <strong>‘L’</strong> on your keyboard. Try pressing it now! </p><p><img src='run_exp/static/images/task_images/rocket-01.jpg'  height='600' width='auto'></p>",,,,,,,,,,,,,,,,,,,,,,,
travel_prac,14,115365,0.0-7.0-5.0,"""event"",""trial"",""time""
""fullscreenenter"",""1"",""3710""
","
","
","""event"",""trial"",""time""
""fullscreenenter"",""1"",""3710""
","
",,,,,,,,,,,,"[{""stimulus"":""run_exp/static/images/task_images/rocket-01.jpg"",""time"":0.20000000298023224},{""stimulus"":""run_exp/static/images/task_images/rocket-02.jpg"",""time"":1113.2000000029802},{""stimulus"":""run_exp/static/images/task_images/rocket-03.jpg"",""time"":2235.6000000089407},{""stimulus"":""run_exp/static/images/task_images/rocket-04.jpg"",""time"":3344.2000000029802},{""stimulus"":""run_exp/static/images/task_images/rocket-05.jpg"",""time"":4446.100000008941},{""stimulus"":""run_exp/static/images/task_images/rocket-06.jpg"",""time"":5567.5},{""stimulus"":""run_exp/static/images/task_images/rocket-07.jpg"",""time"":6672.600000008941},{""stimulus"":""run_exp/static/images/task_images/rocket-08.jpg"",""time"":7794},{""stimulus"":""run_exp/static/images/task_images/rocket-09.jpg"",""time"":8899.5}]",[],0,,,,,,,,,,,,,,
instruc_alien_greet,15,142604,0.0-7.0-6.0,"""event"",""trial"",""time""
""fullscreenenter"",""1"",""3710""
","
","
","""event"",""trial"",""time""
""fullscreenenter"",""1"",""3710""
","
",,null,run_exp/static/audio/clip_6_alien.m4a,null,"<p>When you arrive at a new planet, the alien who owns the treasure mine on that planet will greet you!</p><p>The better an alien takes care of their mine the easier it is to dig for gems. Some aliens take better care of their mine than others. So, you won’t get exactly the same amount of gems on each planet.</p><p>What the alien looks like does not tell you anything about how many gems there are on the planet.</p><br><p><img src=""run_exp/static/images/task_images/aliens/instructions_aliens/planet/alien_planet-1.jpg""  height=""600"" width=""auto""></p>",,,,,,,,,,,,,,,,,,,,,,,
instruc_alien_greet,16,146208,0.0-7.0-7.0,"""event"",""trial"",""time""
""fullscreenenter"",""1"",""3710""
","
","
","""event"",""trial"",""time""
""fullscreenenter"",""1"",""3710""
","
",,3601.3,"<p>When you arrive at a new planet, the alien who owns the treasure mine on that planet will greet you!</p><p>The better an alien takes care of their mine the easier it is to dig for gems. Some aliens take better care of their mine than others. So, you won’t get exactly the same amount of gems on each planet.</p><p>What the alien looks like does not tell you anything about how many gems there are on the planet.</p><br><p><img src=""run_exp/static/images/task_images/aliens/instructions_aliens/planet/alien_planet-1.jpg""  height=""600"" width=""auto""></p>",,,,,,,1,,,,,,,,,,,,,,,,,,
html-keyboard-response,17,146922,0.0-7.0-8.0,"""event"",""trial"",""time""
""fullscreenenter"",""1"",""3710""
","
","
","""event"",""trial"",""time""
""fullscreenenter"",""1"",""3710""
","
",,712.6,"<p>When you arrive at a new planet, the alien who owns the treasure mine on that planet will greet you!</p><p>The better an alien takes care of their mine the easier it is to dig for gems. Some aliens take better care of their mine than others. So, you won’t get exactly the same amount of gems on each planet.</p><p>What the alien looks like does not tell you anything about how many gems there are on the planet.</p><br><p><img src=""run_exp/static/images/task_images/aliens/instructions_aliens/planet/alien_planet-1.jpg""  height=""600"" width=""auto""></p><button class=""jspsych-html-btn-unchosen""><img src=""run_exp/static/images/task_images/planet-01.jpg"" height=""50""></button><button class=""jspsych-html-btn-chosen""><img src=""run_exp/static/images/task_images/planet-02.jpg"" height=""50""></button><p><b>[press the space bar to lock in your answer]<b><br></p>",32,,,,,,,,,,,,,,,,,,,,,,,,
time_out,18,158103,0.0-8.0-0.0,"""event"",""trial"",""time""
""fullscreenenter"",""1"",""3710""
","
","
","""event"",""trial"",""time""
""fullscreenenter"",""1"",""3710""
","
",,null,run_exp/static/audio/clip_7_timeout.m4a,null,"<p>If you don't make your choice fast enough, you’ll have to wait a few seconds before you can make another one.</p><p>You can’t dig for more gems or travel to new planets. You just have to sit and wait.</p><br><p><img src='run_exp/static/images/task_images/time_out.jpg'  height='600' width='auto'></p>",,,,,,,,,,,,,,,,,,,,,,,
time_out,19,161517,0.0-8.0-1.0,"""event"",""trial"",""time""
""fullscreenenter"",""1"",""3710""
","
","
","""event"",""trial"",""time""
""fullscreenenter"",""1"",""3710""
","
",,3412.9,"<p>If you don't make your choice fast enough, you’ll have to wait a few seconds before you can make another one.</p><p>You can’t dig for more gems or travel to new planets. You just have to sit and wait.</p><br><p><img src='run_exp/static/images/task_images/time_out.jpg'  height='600' width='auto'></p>",,,,,,,1,,,,,,,,,,,,,,,,,,
html-keyboard-response,20,162805,0.0-8.0-2.0,"""event"",""trial"",""time""
""fullscreenenter"",""1"",""3710""
","
","
","""event"",""trial"",""time""
""fullscreenenter"",""1"",""3710""
","
",,1286.9,"<p>If you don't make your choice fast enough, you’ll have to wait a few seconds before you can make another one.</p><p>You can’t dig for more gems or travel to new planets. You just have to sit and wait.</p><br><p><img src='run_exp/static/images/task_images/time_out.jpg'  height='600' width='auto'></p><button class=""jspsych-html-btn-unchosen""><img src=""run_exp/static/images/task_images/planet-01.jpg"" height=""50""></button><button class=""jspsych-html-btn-chosen""><img src=""run_exp/static/images/task_images/planet-02.jpg"" height=""50""></button><p><b>[press the space bar to lock in your answer]<b><br></p>",32,,,,,,,,,,,,,,,,,,,,,,,,
instruc_break,21,178602,0.0-9.0-0.0,"""event"",""trial"",""time""
""fullscreenenter"",""1"",""3710""
","
","
","""event"",""trial"",""time""
""fullscreenenter"",""1"",""3710""
","
",,null,run_exp/static/audio/clip_8_break.m4a,null,"<p> After digging and traveling for a while, you’ll be able to take a break at home base. </p><p>The game will last 20 minutes no matter what.</p><p>You will visit home base every 5 minutes, so, you will visit home base three times during the game.</p><br><p><img src='run_exp/static/images/task_images/home_base.jpg' height='600' width='auto'></p>",,,,,,,,,,,,,,,,,,,,,,,
instruc_break,22,182192,0.0-9.0-1.0,"""event"",""trial"",""time""
""fullscreenenter"",""1"",""3710""
","
","
","""event"",""trial"",""time""
""fullscreenenter"",""1"",""3710""
","
",,3587.5,"<p> After digging and traveling for a while, you’ll be able to take a break at home base. </p><p>The game will last 20 minutes no matter what.</p><p>You will visit home base every 5 minutes, so, you will visit home base three times during the game.</p><br><p><img src='run_exp/static/images/task_images/home_base.jpg' height='600' width='auto'></p>",,,,,,,1,,,,,,,,,,,,,,,,,,
html-keyboard-response,23,182793,0.0-9.0-2.0,"""event"",""trial"",""time""
""fullscreenenter"",""1"",""3710""
","
","
","""event"",""trial"",""time""
""fullscreenenter"",""1"",""3710""
","
",,600,"<p> After digging and traveling for a while, you’ll be able to take a break at home base. </p><p>The game will last 20 minutes no matter what.</p><p>You will visit home base every 5 minutes, so, you will visit home base three times during the game.</p><br><p><img src='run_exp/static/images/task_images/home_base.jpg' height='600' width='auto'></p><button class=""jspsych-html-btn-unchosen""><img src=""run_exp/static/images/task_images/planet-01.jpg"" height=""50""></button><button class=""jspsych-html-btn-chosen""><img src=""run_exp/static/images/task_images/planet-02.jpg"" height=""50""></button><p><b>[press the space bar to lock in your answer]<b><br></p>",32,,,,,,,,,,,,,,,,,,,,,,,,
instruc_prac_game,24,192963,0.0-10.0-0.0,"""event"",""trial"",""time""
""fullscreenenter"",""1"",""3710""
","
","
","""event"",""trial"",""time""
""fullscreenenter"",""1"",""3710""
","
",,null,run_exp/static/audio/clip_9_practice.m4a,null,"<p> Are you ready to play a practice game? </p> <p>In this practice game, you'll be digging up barrels of gems. But, in the real game, you'll be digging up the gems themselves. </p>",,,,,,,,,,,,,,,,,,,,,,,
html-button-response,25,194817,0.0-10.0-1.0,"""event"",""trial"",""time""
""fullscreenenter"",""1"",""3710""
","
","
","""event"",""trial"",""time""
""fullscreenenter"",""1"",""3710""
","
",,1853,"<p> Are you ready to play a practice game? </p> <p>In this practice game, you'll be digging up barrels of gems. But, in the real game, you'll be digging up the gems themselves. </p>",,,,,,,0,,,,,,,,,,,,,,,,,,
alien_welcome_prac,26,199820,0.0-11.0-0.0,"""event"",""trial"",""time""
""fullscreenenter"",""1"",""3710""
","
","
","""event"",""trial"",""time""
""fullscreenenter"",""1"",""3710""
","
",,null,run_exp/static/images/task_images/aliens/practice_aliens/planet/alien_planet-5.jpg,null,,,,,,,,,,,,,,,,,,,,,,,,
land_prac,27,200321,0.0-11.0-1.0,"""event"",""trial"",""time""
""fullscreenenter"",""1"",""3710""
","
","
","""event"",""trial"",""time""
""fullscreenenter"",""1"",""3710""
","
",,null,run_exp/static/images/task_images/land.jpg,null,,,,,,,105,,,0,,,,,,,,,,,,,,
dig_prac,28,202333,0.0-11.0-2.0,"""event"",""trial"",""time""
""fullscreenenter"",""1"",""3710""
","
","
","""event"",""trial"",""time""
""fullscreenenter"",""1"",""3710""
","
",,,,,,,,,,,,"[{""stimulus"":""run_exp/static/images/task_images/dig.jpg"",""time"":0.19999998807907104},{""stimulus"":""run_exp/static/images/task_images/land.jpg"",""time"":668.5},{""stimulus"":""run_exp/static/images/task_images/dig.jpg"",""time"":1344.199999988079}]",[],,,,,,,,,,,,,,,
harvest_prac,29,203349,0.0-11.0-3.0,"""event"",""trial"",""time""
""fullscreenenter"",""1"",""3710""
","
","
","""event"",""trial"",""time""
""fullscreenenter"",""1"",""3710""
","
",,null,run_exp/static/images/task_images/barrel_text.jpg,null,,,,,,,,,,,,,,,,,,,,,,,,
decision_prac,30,204405,0.0-11.0-4.0,"""event"",""trial"",""time""
""fullscreenenter"",""1"",""3710""
","
","
","""event"",""trial"",""time""
""fullscreenenter"",""1"",""3710""
","
",,1054.7,run_exp/static/images/task_images/land.jpg,65,,,,,,,,,,,1,,,,,,,,,,,,,
dig_prac,31,206410,0.0-12.0-0.0,"""event"",""trial"",""time""
""fullscreenenter"",""1"",""3710""
","
","
","""event"",""trial"",""time""
""fullscreenenter"",""1"",""3710""
","
",,,,,,,,,,,,"[{""stimulus"":""run_exp/static/images/task_images/dig.jpg"",""time"":0.19999998807907104},{""stimulus"":""run_exp/static/images/task_images/land.jpg"",""time"":677.7999999970198},{""stimulus"":""run_exp/static/images/task_images/dig.jpg"",""time"":1342}]",[],,,,,,,,,,,,,,,
harvest_prac,32,207412,0.0-12.0-1.0,"""event"",""trial"",""time""
""fullscreenenter"",""1"",""3710""
","
","
","""event"",""trial"",""time""
""fullscreenenter"",""1"",""3710""
","
",,null,run_exp/static/images/task_images/barrel_text.jpg,null,,,,,,,,,,,,,,,,,,,,,,,,
decision_prac,33,210422,0.0-12.0-2.0,"""event"",""trial"",""time""
""fullscreenenter"",""1"",""3710""
","
","
","""event"",""trial"",""time""
""fullscreenenter"",""1"",""3710""
","
",,null,run_exp/static/images/task_images/land.jpg,null,,,,,,,,,,,2,,,,,,,,,,,,,
time_out,34,212427,0.0-13.0-0.0,"""event"",""trial"",""time""
""fullscreenenter"",""1"",""3710""
","
","
","""event"",""trial"",""time""
""fullscreenenter"",""1"",""3710""
","
",,null,run_exp/static/images/task_images/time_out.jpg,null,,,,,,,,,,,,,,,,,,,,,,,,
decision_prac,35,213116,0.0-13.0-1.0,"""event"",""trial"",""time""
""fullscreenenter"",""1"",""3710""
","
","
","""event"",""trial"",""time""
""fullscreenenter"",""1"",""3710""
","
",,687.9,run_exp/static/images/task_images/land.jpg,65,,,,,,,,,,,3,,,,,,,,,,,,,
dig_prac,36,215121,0.0-14.0-0.0,"""event"",""trial"",""time""
""fullscreenenter"",""1"",""3710""
","
","
","""event"",""trial"",""time""
""fullscreenenter"",""1"",""3710""
","
",,,,,,,,,,,,"[{""stimulus"":""run_exp/static/images/task_images/dig.jpg"",""time"":0.10000000894069672},{""stimulus"":""run_exp/static/images/task_images/land.jpg"",""time"":679.7999999970198},{""stimulus"":""run_exp/static/images/task_images/dig.jpg"",""time"":1348.4000000059605}]",[],,,,,,,,,,,,,,,
harvest_prac,37,216135,0.0-14.0-1.0,"""event"",""trial"",""time""
""fullscreenenter"",""1"",""3710""
","
","
","""event"",""trial"",""time""
""fullscreenenter"",""1"",""3710""
","
",,null,run_exp/static/images/task_images/barrel_text.jpg,null,,,,,,,,,,,,,,,,,,,,,,,,
decision_prac,38,216557,0.0-14.0-2.0,"""event"",""trial"",""time""
""fullscreenenter"",""1"",""3710""
","
","
","""event"",""trial"",""time""
""fullscreenenter"",""1"",""3710""
","
",,420.5,run_exp/static/images/task_images/land.jpg,65,,,,,,,,,,,4,,,,,,,,,,,,,
dig_prac,39,218565,0.0-15.0-0.0,"""event"",""trial"",""time""
""fullscreenenter"",""1"",""3710""
","
","
","""event"",""trial"",""time""
""fullscreenenter"",""1"",""3710""
","
",,,,,,,,,,,,"[{""stimulus"":""run_exp/static/images/task_images/dig.jpg"",""time"":0.09999999403953552},{""stimulus"":""run_exp/static/images/task_images/land.jpg"",""time"":681.2999999970198},{""stimulus"":""run_exp/static/images/task_images/dig.jpg"",""time"":1347.5999999940395}]",[],,,,,,,,,,,,,,,
harvest_prac,40,219576,0.0-15.0-1.0,"""event"",""trial"",""time""
""fullscreenenter"",""1"",""3710""
","
","
","""event"",""trial"",""time""
""fullscreenenter"",""1"",""3710""
","
",,null,run_exp/static/images/task_images/barrel_text.jpg,null,,,,,,,,,,,,,,,,,,,,,,,,
decision_prac,41,219706,0.0-15.0-2.0,"""event"",""trial"",""time""
""fullscreenenter"",""1"",""3710""
","
","
","""event"",""trial"",""time""
""fullscreenenter"",""1"",""3710""
","
",,128.6,run_exp/static/images/task_images/land.jpg,65,,,,,,,,,,,,1,,,,,,,,,,,,
quiz_instruc,42,232752,0.0-16.0-0.0,"""event"",""trial"",""time""
""fullscreenenter"",""1"",""3710""
","
","
","""event"",""trial"",""time""
""fullscreenenter"",""1"",""3710""
","
",,13043.5,run_exp/static/audio/clip_10_quiz.m4a,,,,,,,0,,,,,,,,,,,,,,,,,,
instruc_repeat,43,275575,0.0-16.0-1.0,"""event"",""trial"",""time""
""fullscreenenter"",""1"",""3710""
","
","
","""event"",""trial"",""time""
""fullscreenenter"",""1"",""3710""
","
",,null,"<p> Are you ready to play a practice game? </p> <p>In this practice game, you'll be digging up barrels of gems. But, in the real game, you'll be digging up the gems themselves. </p>",null,"<p>In this game, your goal is to collect as many gems as you can. That’s how you will win bonus money. </p> <p>The entire game will last 20 minutes no matter how many gems you collect or how many planets you visit. </p><p>To stay on a planet and dig again, press the letter A on your keyboard. To leave for a new planet, press the letter L.</p><p>The more you dig on a planet, the fewer gems you’ll get with each dig which is why you might consider leaving for a new planet. </p><p>When you arrive at a new planet, you’ll be greeted by an alien. What the alien looks like does not tell you anything about how much treasure is on the planet. </p>",,,,,,,,,,,,,,,,,,,,,,,
instruc_repeat_continue,44,279189,0.0-16.0-2.0,"""event"",""trial"",""time""
""fullscreenenter"",""1"",""3710""
","
","
","""event"",""trial"",""time""
""fullscreenenter"",""1"",""3710""
","
",,3611.7,"<p> Are you ready to play a practice game? </p> <p>In this practice game, you'll be digging up barrels of gems. But, in the real game, you'll be digging up the gems themselves. </p>",,,,,,,0,,,,,,,,,,,,,,,,,,
quiz_q_1_ask,45,284388,0.0-16.0-3.0,"""event"",""trial"",""time""
""fullscreenenter"",""1"",""3710""
","
","
","""event"",""trial"",""time""
""fullscreenenter"",""1"",""3710""
","
",,5197.3,run_exp/static/audio/clip_11_q1_ask.m4a,,,,,,,2,,,,,,,,,,,,,,,,,,
quiz_q_1_fb_correct,46,288293,0.0-17.0-0.0,"""event"",""trial"",""time""
""fullscreenenter"",""1"",""3710""
","
","
","""event"",""trial"",""time""
""fullscreenenter"",""1"",""3710""
","
",,null,run_exp/static/audio/clip_12_q1_correct.m4a,null,<p>That’s correct. You win extra money by collecting more gems.</p>,,,,,,,,,,,,,,,,,,,,,,,
quiz_q_2_ask,47,292235,0.0-17.0-1.0,"""event"",""trial"",""time""
""fullscreenenter"",""1"",""3710""
","
","
","""event"",""trial"",""time""
""fullscreenenter"",""1"",""3710""
","
",,3941.1,run_exp/static/audio/clip_14_q2_ask.m4a,,,,,,,1,,,,,,,,,,,,,,,,,,
quiz_q_2_fb_correct,48,296273,0.0-18.0-0.0,"""event"",""trial"",""time""
""fullscreenenter"",""1"",""3710""
","
","
","""event"",""trial"",""time""
""fullscreenenter"",""1"",""3710""
","
",,null,run_exp/static/audio/clip_15_q2_correct.m4a,null,<p>That’s correct. The experiment is 20 minutes no matter what.</p>,,,,,,,,,,,,,,,,,,,,,,,
quiz_q_3_ask,49,299611,0.0-18.0-1.0,"""event"",""trial"",""time""
""fullscreenenter"",""1"",""3710""
","
","
","""event"",""trial"",""time""
""fullscreenenter"",""1"",""3710""
","
",,3336.4,run_exp/static/audio/clip_17_q3_ask.m4a,,,,,,,1,,,,,,,,,,,,,,,,,,
quiz_q_3_fb_correct,50,303653,0.0-19.0-0.0,"""event"",""trial"",""time""
""fullscreenenter"",""1"",""3710""
","
","
","""event"",""trial"",""time""
""fullscreenenter"",""1"",""3710""
","
",,null,run_exp/static/audio/clip_18_q3_correct.m4a,null,<p> That’s correct. You press the letter L to travel to a new planet.</p>,,,,,,,,,,,,,,,,,,,,,,,
quiz_q_4_ask,51,310225,0.0-19.0-1.0,"""event"",""trial"",""time""
""fullscreenenter"",""1"",""3710""
","
","
","""event"",""trial"",""time""
""fullscreenenter"",""1"",""3710""
","
",,6570.5,run_exp/static/audio/clip_20_q4_ask.m4a,,,,,,,0,,,,,,,,,,,,,,,,,,
quiz_q_4_fb_correct,52,315593,0.0-20.0-0.0,"""event"",""trial"",""time""
""fullscreenenter"",""1"",""3710""
","
","
","""event"",""trial"",""time""
""fullscreenenter"",""1"",""3710""
","
",,null,run_exp/static/audio/clip_21_q4_correct.m4a,null,<p> That’s correct. The more you dig on a planet the fewer gems you’ll get with each dig. </p>,,,,,,,,,,,,,,,,,,,,,,,
quiz_q_5_ask,53,319218,0.0-20.0-1.0,"""event"",""trial"",""time""
""fullscreenenter"",""1"",""3710""
","
","
","""event"",""trial"",""time""
""fullscreenenter"",""1"",""3710""
","
",,3622.8,run_exp/static/audio/clip_23_q5_ask.m4a,,,,,,,1,,,,,,,,,,,,,,,,,,
quiz_q_5_fb_correct,54,324273,0.0-21.0-0.0,"""event"",""trial"",""time""
""fullscreenenter"",""1"",""3710""
","
","
","""event"",""trial"",""time""
""fullscreenenter"",""1"",""3710""
","
",,null,run_exp/static/audio/clip_24_q5_correct.m4a,null,<p> That’s correct. The alien tells you nothing about how much treasure is on the planet.</p>,,,,,,,,,,,,,,,,,,,,,,,
quiz_correct,55,327794,0.0-22.0-0.0,"""event"",""trial"",""time""
""fullscreenenter"",""1"",""3710""
","
","
","""event"",""trial"",""time""
""fullscreenenter"",""1"",""3710""
","
",,null,run_exp/static/audio/clip_26_correct_quiz.m4a,null,,,,,,,,,,,,,,,,,,,,,,,,
quiz_correct_continue,56,329501,0.0-22.0-1.0,"""event"",""trial"",""time""
""fullscreenenter"",""1"",""3710""
","
","
","""event"",""trial"",""time""
""fullscreenenter"",""1"",""3710""
","
",,1705.6,<p>Good job! You're now ready to move on to the real game!</p>,,,,,,,0,,,,,,,,,,,,,,,,,,
audio-keyboard-response,57,339673,0.0-22.0-2.0,"""event"",""trial"",""time""
""fullscreenenter"",""1"",""3710""
","
","
","""event"",""trial"",""time""
""fullscreenenter"",""1"",""3710""
","
",,null,run_exp/static/audio/clip_28_real_game.m4a,null,,,,,,,,,,,,,,,,,,,,,,,,
instruc_begin_exp_contine,58,340998,0.0-22.0-3.0,"""event"",""trial"",""time""
""fullscreenenter"",""1"",""3710""
","
","
","""event"",""trial"",""time""
""fullscreenenter"",""1"",""3710""
","
",,1325.1,"<p>Now that you know how  to dig for space treasure and travel to new planets,you can start exploring! </p><p>Do you want to go over the instructions again or get started with the real game?</p>",,,,,,,1,,,,,,1,,,,,,,,,,,,
alien_welcome,59,346002,0.0-23.0-0.0,"""event"",""trial"",""time""
""fullscreenenter"",""1"",""3710""
","
","
","""event"",""trial"",""time""
""fullscreenenter"",""1"",""3710""
","
",,null,run_exp/static/images/task_images/aliens/old_aliens/planet/alien_planet-80.jpg,null,,,,,,,,,,,,,80,"80,15,77,36,33,17,29,47,31,68,58,75,9,49,40,18,37,14,26,39,71,2,35,78,22,23,66,64,30,10,4,74,16,54,63,5,7,48,69,38,27,6,67,51,70,34,24",,,,,,,,,,
land,60,346503,0.0-23.0-1.0,"""event"",""trial"",""time""
""fullscreenenter"",""1"",""3710""
","
","
","""event"",""trial"",""time""
""fullscreenenter"",""1"",""3710""
","
",,null,run_exp/static/images/task_images/land.jpg,null,,,,,,,103,,,1,,,,,,,,,,,,,,
dig,61,348510,0.0-23.0-2.0,"""event"",""trial"",""time""
""fullscreenenter"",""1"",""3710""
","
","
","""event"",""trial"",""time""
""fullscreenenter"",""1"",""3710""
","
",,,,,,,,,,,,"[{""stimulus"":""run_exp/static/images/task_images/dig.jpg"",""time"":0.20000000298023224},{""stimulus"":""run_exp/static/images/task_images/land.jpg"",""time"":670.2999999970198},{""stimulus"":""run_exp/static/images/task_images/dig.jpg"",""time"":1338.7999999970198}]",[],1,,,,,,,,,,,,,,
harvest,62,349525,0.0-23.0-3.0,"""event"",""trial"",""time""
""fullscreenenter"",""1"",""3710""
","
","
","""event"",""trial"",""time""
""fullscreenenter"",""1"",""3710""
","
",,null,run_exp/static/images/task_images/gems/103.jpg,null,,,,,,,21,,,1,,,,,103,0.200481156,0.203883495,,,,,,,
decision,63,349815,0.0-23.0-4.0,"""event"",""trial"",""time""
""fullscreenenter"",""1"",""3710""
","
","
","""event"",""trial"",""time""
""fullscreenenter"",""1"",""3710""
","
",,289.1,run_exp/static/images/task_images/land.jpg,65,,,,,,,21,,,1,,,,,,,,8816,1,0,FALSE,,,
dig,64,352536,0.0-24.0-0.0,"""event"",""trial"",""time""
""fullscreenenter"",""1"",""3710""
","
","
","""event"",""trial"",""time""
""fullscreenenter"",""1"",""3710""
","
",,,,,,,,,,,,"[{""stimulus"":""run_exp/static/images/task_images/dig.jpg"",""time"":0},{""stimulus"":""run_exp/static/images/task_images/land.jpg"",""time"":907.9000000059605},{""stimulus"":""run_exp/static/images/task_images/dig.jpg"",""time"":1821.2000000029802}]",[],1,,,,,,,,,,,,,,
harvest,65,353549,0.0-24.0-1.0,"""event"",""trial"",""time""
""fullscreenenter"",""1"",""3710""
","
","
","""event"",""trial"",""time""
""fullscreenenter"",""1"",""3710""
","
",,null,run_exp/static/images/task_images/gems/21.jpg,null,,,,,,,4,,,1,,,,,21,0.210587815,0.19047619,,,,,,,
decision,66,353792,0.0-24.0-2.0,"""event"",""trial"",""time""
""fullscreenenter"",""1"",""3710""
","
","
","""event"",""trial"",""time""
""fullscreenenter"",""1"",""3710""
","
",,241.7,run_exp/static/images/task_images/land.jpg,65,,,,,,,4,,,1,,,,,,,,12792,1,1,FALSE,,,
dig,67,356559,0.0-25.0-0.0,"""event"",""trial"",""time""
""fullscreenenter"",""1"",""3710""
","
","
","""event"",""trial"",""time""
""fullscreenenter"",""1"",""3710""
","
",,,,,,,,,,,,"[{""stimulus"":""run_exp/static/images/task_images/dig.jpg"",""time"":0.10000000894069672},{""stimulus"":""run_exp/static/images/task_images/land.jpg"",""time"":926},{""stimulus"":""run_exp/static/images/task_images/dig.jpg"",""time"":1847.2999999970198}]",[],1,,,,,,,,,,,,,,
harvest,68,357571,0.0-25.0-1.0,"""event"",""trial"",""time""
""fullscreenenter"",""1"",""3710""
","
","
","""event"",""trial"",""time""
""fullscreenenter"",""1"",""3710""
","
",,null,run_exp/static/images/task_images/gems/4.jpg,null,,,,,,,1,,,1,,,,,4,0.218558027,0.25,,,,,,,
decision,69,357760,0.0-25.0-2.0,"""event"",""trial"",""time""
""fullscreenenter"",""1"",""3710""
","
","
","""event"",""trial"",""time""
""fullscreenenter"",""1"",""3710""
","
",,188.2,run_exp/static/images/task_images/land.jpg,65,,,,,,,1,,,1,,,,,,,,16760,1,2,FALSE,,,
dig,70,360575,0.0-26.0-0.0,"""event"",""trial"",""time""
""fullscreenenter"",""1"",""3710""
","
","
","""event"",""trial"",""time""
""fullscreenenter"",""1"",""3710""
","
",,,,,,,,,,,,"[{""stimulus"":""run_exp/static/images/task_images/dig.jpg"",""time"":0},{""stimulus"":""run_exp/static/images/task_images/land.jpg"",""time"":946},{""stimulus"":""run_exp/static/images/task_images/dig.jpg"",""time"":1878.0999999940395}]",[],1,,,,,,,,,,,,,,
harvest,71,361584,0.0-26.0-1.0,"""event"",""trial"",""time""
""fullscreenenter"",""1"",""3710""
","
","
","""event"",""trial"",""time""
""fullscreenenter"",""1"",""3710""
","
",,null,run_exp/static/images/task_images/gems/1.jpg,null,,,,,,,0,,,1,,,,,1,0.160369579,0,,,,,,,
decision,72,364577,0.0-26.0-2.0,"""event"",""trial"",""time""
""fullscreenenter"",""1"",""3710""
","
","
","""event"",""trial"",""time""
""fullscreenenter"",""1"",""3710""
","
",,2992.5,run_exp/static/images/task_images/land.jpg,76,,,,,,,0,,,1,,,,,,,,23577,1,3,TRUE,,,
travel,73,371587,0.0-27.0-0.0,"""event"",""trial"",""time""
""fullscreenenter"",""1"",""3710""
","
","
","""event"",""trial"",""time""
""fullscreenenter"",""1"",""3710""
","
",,,,,,,,,,,,"[{""stimulus"":""run_exp/static/images/task_images/rocket-01.jpg"",""time"":0.10000000894069672},{""stimulus"":""run_exp/static/images/task_images/rocket-02.jpg"",""time"":792.1000000089407},{""stimulus"":""run_exp/static/images/task_images/rocket-03.jpg"",""time"":1572.1000000089407},{""stimulus"":""run_exp/static/images/task_images/rocket-04.jpg"",""time"":2350.7999999970198},{""stimulus"":""run_exp/static/images/task_images/rocket-05.jpg"",""time"":3114.2999999970198},{""stimulus"":""run_exp/static/images/task_images/rocket-06.jpg"",""time"":3893.7999999970198},{""stimulus"":""run_exp/static/images/task_images/rocket-07.jpg"",""time"":4669.100000008941},{""stimulus"":""run_exp/static/images/task_images/rocket-08.jpg"",""time"":5447.29999999702},{""stimulus"":""run_exp/static/images/task_images/rocket-09.jpg"",""time"":6226.9000000059605}]",[],1,,,,,,,,,,,,,,
alien_welcome,74,376590,0.0-27.0-1.0,"""event"",""trial"",""time""
""fullscreenenter"",""1"",""3710""
","
","
","""event"",""trial"",""time""
""fullscreenenter"",""1"",""3710""
","
",,null,run_exp/static/images/task_images/aliens/old_aliens/planet/alien_planet-15.jpg,null,,,,,,,,,,,,,15,"80,15,77,36,33,17,29,47,31,68,58,75,9,49,40,18,37,14,26,39,71,2,35,78,22,23,66,64,30,10,4,74,16,54,63,5,7,48,69,38,27,6,67,51,70,34,24",,,,,,,,,,
land,75,377092,0.0-27.0-2.0,"""event"",""trial"",""time""
""fullscreenenter"",""1"",""3710""
","
","
","""event"",""trial"",""time""
""fullscreenenter"",""1"",""3710""
","
",,null,run_exp/static/images/task_images/land.jpg,null,,,,,,,108,,,2,,,,,,,,,,,,,,
dig,76,379097,0.0-27.0-3.0,"""event"",""trial"",""time""
""fullscreenenter"",""1"",""3710""
","
","
","""event"",""trial"",""time""
""fullscreenenter"",""1"",""3710""
","
",,,,,,,,,,,,"[{""stimulus"":""run_exp/static/images/task_images/dig.jpg"",""time"":0.4000000059604645},{""stimulus"":""run_exp/static/images/task_images/land.jpg"",""time"":677.3000000119209},{""stimulus"":""run_exp/static/images/task_images/dig.jpg"",""time"":1345}]",[],2,,,,,,,,,,,,,,
harvest,77,380115,0.0-27.0-4.0,"""event"",""trial"",""time""
""fullscreenenter"",""1"",""3710""
","
","
","""event"",""trial"",""time""
""fullscreenenter"",""1"",""3710""
","
",,null,run_exp/static/images/task_images/gems/108.jpg,null,,,,,,,25,,,2,,,,,108,0.230783402,0.231481481,,,,,,,
decision,78,380270,0.0-27.0-5.0,"""event"",""trial"",""time""
""fullscreenenter"",""1"",""3710""
","
","
","""event"",""trial"",""time""
""fullscreenenter"",""1"",""3710""
","
",,152.8,run_exp/static/images/task_images/land.jpg,65,,,,,,,25,,,2,,,,,,,,39270,1,0,FALSE,,,
dig,79,383136,0.0-28.0-0.0,"""event"",""trial"",""time""
""fullscreenenter"",""1"",""3710""
","
","
","""event"",""trial"",""time""
""fullscreenenter"",""1"",""3710""
","
",,,,,,,,,,,,"[{""stimulus"":""run_exp/static/images/task_images/dig.jpg"",""time"":0.19999998807907104},{""stimulus"":""run_exp/static/images/task_images/land.jpg"",""time"":958.5999999940395},{""stimulus"":""run_exp/static/images/task_images/dig.jpg"",""time"":1913.199999988079}]",[],2,,,,,,,,,,,,,,
harvest,80,384150,0.0-28.0-1.0,"""event"",""trial"",""time""
""fullscreenenter"",""1"",""3710""
","
","
","""event"",""trial"",""time""
""fullscreenenter"",""1"",""3710""
","
",,null,run_exp/static/images/task_images/gems/25.jpg,null,,,,,,,7,,,2,,,,,25,0.289439579,0.28,,,,,,,
decision,81,384358,0.0-28.0-2.0,"""event"",""trial"",""time""
""fullscreenenter"",""1"",""3710""
","
","
","""event"",""trial"",""time""
""fullscreenenter"",""1"",""3710""
","
",,206.7,run_exp/static/images/task_images/land.jpg,65,,,,,,,7,,,2,,,,,,,,43358,1,1,FALSE,,,
dig,82,387156,0.0-29.0-0.0,"""event"",""trial"",""time""
""fullscreenenter"",""1"",""3710""
","
","
","""event"",""trial"",""time""
""fullscreenenter"",""1"",""3710""
","
",,,,,,,,,,,,"[{""stimulus"":""run_exp/static/images/task_images/dig.jpg"",""time"":0.20000000298023224},{""stimulus"":""run_exp/static/images/task_images/land.jpg"",""time"":937.2000000029802},{""stimulus"":""run_exp/static/images/task_images/dig.jpg"",""time"":1877.2000000029802}]",[],2,,,,,,,,,,,,,,
harvest,83,388173,0.0-29.0-1.0,"""event"",""trial"",""time""
""fullscreenenter"",""1"",""3710""
","
","
","""event"",""trial"",""time""
""fullscreenenter"",""1"",""3710""
","
",,null,run_exp/static/images/task_images/gems/7.jpg,null,,,,,,,1,,,2,,,,,7,0.139117593,0.142857143,,,,,,,
decision,84,390651,0.0-29.0-2.0,"""event"",""trial"",""time""
""fullscreenenter"",""1"",""3710""
","
","
","""event"",""trial"",""time""
""fullscreenenter"",""1"",""3710""
","
",,2477,run_exp/static/images/task_images/land.jpg,76,,,,,,,1,,,2,,,,,,,,49651,1,2,TRUE,,,
travel,85,398178,0.0-30.0-0.0,"""event"",""trial"",""time""
""fullscreenenter"",""1"",""3710""
","
","
","""event"",""trial"",""time""
""fullscreenenter"",""1"",""3710""
","
",,,,,,,,,,,,"[{""stimulus"":""run_exp/static/images/task_images/rocket-01.jpg"",""time"":0.09999999403953552},{""stimulus"":""run_exp/static/images/task_images/rocket-02.jpg"",""time"":838.3999999910593},{""stimulus"":""run_exp/static/images/task_images/rocket-03.jpg"",""time"":1676.5},{""stimulus"":""run_exp/static/images/task_images/rocket-04.jpg"",""time"":2506.2000000029802},{""stimulus"":""run_exp/static/images/task_images/rocket-05.jpg"",""time"":3347.0999999940395},{""stimulus"":""run_exp/static/images/task_images/rocket-06.jpg"",""time"":4185.899999991059},{""stimulus"":""run_exp/static/images/task_images/rocket-07.jpg"",""time"":5016.79999999702},{""stimulus"":""run_exp/static/images/task_images/rocket-08.jpg"",""time"":5848.29999999702},{""stimulus"":""run_exp/static/images/task_images/rocket-09.jpg"",""time"":6686.0999999940395}]",[],2,,,,,,,,,,,,,,
alien_welcome,86,403187,0.0-30.0-1.0,"""event"",""trial"",""time""
""fullscreenenter"",""1"",""3710""
","
","
","""event"",""trial"",""time""
""fullscreenenter"",""1"",""3710""
","
",,null,run_exp/static/images/task_images/aliens/old_aliens/planet/alien_planet-77.jpg,null,,,,,,,,,,,,,77,"80,15,77,36,33,17,29,47,31,68,58,75,9,49,40,18,37,14,26,39,71,2,35,78,22,23,66,64,30,10,4,74,16,54,63,5,7,48,69,38,27,6,67,51,70,34,24",,,,,,,,,,
land,87,403702,0.0-30.0-2.0,"""event"",""trial"",""time""
""fullscreenenter"",""1"",""3710""
","
","
","""event"",""trial"",""time""
""fullscreenenter"",""1"",""3710""
","
",,null,run_exp/static/images/task_images/land.jpg,null,,,,,,,103,,,3,,,,,,,,,,,,,,
dig,88,405710,0.0-30.0-3.0,"""event"",""trial"",""time""
""fullscreenenter"",""1"",""3710""
","
","
","""event"",""trial"",""time""
""fullscreenenter"",""1"",""3710""
","
",,,,,,,,,,,,"[{""stimulus"":""run_exp/static/images/task_images/dig.jpg"",""time"":0.30000001192092896},{""stimulus"":""run_exp/static/images/task_images/land.jpg"",""time"":683.2000000029802},{""stimulus"":""run_exp/static/images/task_images/dig.jpg"",""time"":1337.2000000029802}]",[],3,,,,,,,,,,,,,,
harvest,89,406727,0.0-30.0-4.0,"""event"",""trial"",""time""
""fullscreenenter"",""1"",""3710""
","
","
","""event"",""trial"",""time""
""fullscreenenter"",""1"",""3710""
","
",,null,run_exp/static/images/task_images/gems/103.jpg,null,,,,,,,46,,,3,,,,,103,0.447908496,0.446601942,,,,,,,
decision,90,406808,0.0-30.0-5.0,"""event"",""trial"",""time""
""fullscreenenter"",""1"",""3710""
","
","
","""event"",""trial"",""time""
""fullscreenenter"",""1"",""3710""
","
",,80.09999999,run_exp/static/images/task_images/land.jpg,65,,,,,,,46,,,3,,,,,,,,65809,1,0,FALSE,,,
dig,91,409746,0.0-31.0-0.0,"""event"",""trial"",""time""
""fullscreenenter"",""1"",""3710""
","
","
","""event"",""trial"",""time""
""fullscreenenter"",""1"",""3710""
","
",,,,,,,,,,,,"[{""stimulus"":""run_exp/static/images/task_images/dig.jpg"",""time"":0.30000001192092896},{""stimulus"":""run_exp/static/images/task_images/land.jpg"",""time"":976.7000000029802},{""stimulus"":""run_exp/static/images/task_images/dig.jpg"",""time"":1951.300000011921}]",[],3,,,,,,,,,,,,,,
harvest,92,410757,0.0-31.0-1.0,"""event"",""trial"",""time""
""fullscreenenter"",""1"",""3710""
","
","
","""event"",""trial"",""time""
""fullscreenenter"",""1"",""3710""
","
",,null,run_exp/static/images/task_images/gems/46.jpg,null,,,,,,,22,,,3,,,,,46,0.478333289,0.47826087,,,,,,,
decision,93,411217,0.0-31.0-2.0,"""event"",""trial"",""time""
""fullscreenenter"",""1"",""3710""
","
","
","""event"",""trial"",""time""
""fullscreenenter"",""1"",""3710""
","
",,458.8,run_exp/static/images/task_images/land.jpg,76,,,,,,,22,,,3,,,,,,,,70217,1,1,TRUE,,,
travel,94,420773,0.0-32.0-0.0,"""event"",""trial"",""time""
""fullscreenenter"",""1"",""3710""
","
","
","""event"",""trial"",""time""
""fullscreenenter"",""1"",""3710""
","
",,,,,,,,,,,,"[{""stimulus"":""run_exp/static/images/task_images/rocket-01.jpg"",""time"":0.09999999403953552},{""stimulus"":""run_exp/static/images/task_images/rocket-02.jpg"",""time"":1071.3999999910593},{""stimulus"":""run_exp/static/images/task_images/rocket-03.jpg"",""time"":2133},{""stimulus"":""run_exp/static/images/task_images/rocket-04.jpg"",""time"":3193.7999999970198},{""stimulus"":""run_exp/static/images/task_images/rocket-05.jpg"",""time"":4249.199999988079},{""stimulus"":""run_exp/static/images/task_images/rocket-06.jpg"",""time"":5309.29999999702},{""stimulus"":""run_exp/static/images/task_images/rocket-07.jpg"",""time"":6366.5999999940395},{""stimulus"":""run_exp/static/images/task_images/rocket-08.jpg"",""time"":7427.199999988079},{""stimulus"":""run_exp/static/images/task_images/rocket-09.jpg"",""time"":8485.29999999702}]",[],3,,,,,,,,,,,,,,
alien_welcome,95,425786,0.0-32.0-1.0,"""event"",""trial"",""time""
""fullscreenenter"",""1"",""3710""
","
","
","""event"",""trial"",""time""
""fullscreenenter"",""1"",""3710""
","
",,null,run_exp/static/images/task_images/aliens/old_aliens/planet/alien_planet-36.jpg,null,,,,,,,,,,,,,36,"80,15,77,36,33,17,29,47,31,68,58,75,9,49,40,18,37,14,26,39,71,2,35,78,22,23,66,64,30,10,4,74,16,54,63,5,7,48,69,38,27,6,67,51,70,34,24",,,,,,,,,,
land,96,426301,0.0-32.0-2.0,"""event"",""trial"",""time""
""fullscreenenter"",""1"",""3710""
","
","
","""event"",""trial"",""time""
""fullscreenenter"",""1"",""3710""
","
",,null,run_exp/static/images/task_images/land.jpg,null,,,,,,,106,,,4,,,,,,,,,,,,,,
dig,97,428307,0.0-32.0-3.0,"""event"",""trial"",""time""
""fullscreenenter"",""1"",""3710""
","
","
","""event"",""trial"",""time""
""fullscreenenter"",""1"",""3710""
","
",,,,,,,,,,,,"[{""stimulus"":""run_exp/static/images/task_images/dig.jpg"",""time"":0.20000000298023224},{""stimulus"":""run_exp/static/images/task_images/land.jpg"",""time"":672.2000000029802},{""stimulus"":""run_exp/static/images/task_images/dig.jpg"",""time"":1338.8999999910593}]",[],4,,,,,,,,,,,,,,
harvest,98,429320,0.0-32.0-4.0,"""event"",""trial"",""time""
""fullscreenenter"",""1"",""3710""
","
","
","""event"",""trial"",""time""
""fullscreenenter"",""1"",""3710""
","
",,null,run_exp/static/images/task_images/gems/106.jpg,null,,,,,,,53,,,4,,,,,106,0.497769645,0.5,,,,,,,
decision,99,429404,0.0-32.0-5.0,"""event"",""trial"",""time""
""fullscreenenter"",""1"",""3710""
","
","
","""event"",""trial"",""time""
""fullscreenenter"",""1"",""3710""
","
",,82.8,run_exp/static/images/task_images/land.jpg,65,,,,,,,53,,,4,,,,,,,,88404,1,0,FALSE,,,
dig,100,432329,0.0-33.0-0.0,"""event"",""trial"",""time""
""fullscreenenter"",""1"",""3710""
","
","
","""event"",""trial"",""time""
""fullscreenenter"",""1"",""3710""
","
",,,,,,,,,,,,"[{""stimulus"":""run_exp/static/images/task_images/dig.jpg"",""time"":0.09999999403953552},{""stimulus"":""run_exp/static/images/task_images/land.jpg"",""time"":988.2999999970198},{""stimulus"":""run_exp/static/images/task_images/dig.jpg"",""time"":1956.2000000029802}]",[],4,,,,,,,,,,,,,,
harvest,101,433344,0.0-33.0-1.0,"""event"",""trial"",""time""
""fullscreenenter"",""1"",""3710""
","
","
","""event"",""trial"",""time""
""fullscreenenter"",""1"",""3710""
","
",,null,run_exp/static/images/task_images/gems/53.jpg,null,,,,,,,27,,,4,,,,,53,0.502507378,0.509433962,,,,,,,
decision,102,433347,0.0-33.0-2.0,"""event"",""trial"",""time""
""fullscreenenter"",""1"",""3710""
","
","
","""event"",""trial"",""time""
""fullscreenenter"",""1"",""3710""
","
",,2.599999994,run_exp/static/images/task_images/land.jpg,65,,,,,,,27,,,4,,,,,,,,92347,1,1,FALSE,,,
dig,103,436352,0.0-34.0-0.0,"""event"",""trial"",""time""
""fullscreenenter"",""1"",""3710""
","
","
","""event"",""trial"",""time""
""fullscreenenter"",""1"",""3710""
","
",,,,,,,,,,,,"[{""stimulus"":""run_exp/static/images/task_images/dig.jpg"",""time"":0.5999999940395355},{""stimulus"":""run_exp/static/images/task_images/land.jpg"",""time"":1007.0999999940395},{""stimulus"":""run_exp/static/images/task_images/dig.jpg"",""time"":2003}]",[],4,,,,,,,,,,,,,,
harvest,104,437364,0.0-34.0-1.0,"""event"",""trial"",""time""
""fullscreenenter"",""1"",""3710""
","
","
","""event"",""trial"",""time""
""fullscreenenter"",""1"",""3710""
","
",,null,run_exp/static/images/task_images/gems/27.jpg,null,,,,,,,15,,,4,,,,,27,0.567221858,0.555555556,,,,,,,
decision,105,440369,0.0-34.0-2.0,"""event"",""trial"",""time""
""fullscreenenter"",""1"",""3710""
","
","
","""event"",""trial"",""time""
""fullscreenenter"",""1"",""3710""
","
",,null,run_exp/static/images/task_images/land.jpg,null,,,,,,,15,,,4,,,,,,,,99369,1,2,FALSE,,,
time_out,106,442383,0.0-35.0-0.0,"""event"",""trial"",""time""
""fullscreenenter"",""1"",""3710""
","
","
","""event"",""trial"",""time""
""fullscreenenter"",""1"",""3710""
","
",,null,run_exp/static/images/task_images/time_out.jpg,null,,,,,,,15,,,,,,,,,,,,,,,,,
decision,107,443856,0.0-35.0-1.0,"""event"",""trial"",""time""
""fullscreenenter"",""1"",""3710""
","
","
","""event"",""trial"",""time""
""fullscreenenter"",""1"",""3710""
","
",,1471.5,run_exp/static/images/task_images/land.jpg,76,,,,,,,15,,,4,,,,,,,,102856,1,2,TRUE,,,
travel,108,452395,0.0-36.0-0.0,"""event"",""trial"",""time""
""fullscreenenter"",""1"",""3710""
","
","
","""event"",""trial"",""time""
""fullscreenenter"",""1"",""3710""
","
",,,,,,,,,,,,"[{""stimulus"":""run_exp/static/images/task_images/rocket-01.jpg"",""time"":0.10000000894069672},{""stimulus"":""run_exp/static/images/task_images/rocket-02.jpg"",""time"":959.7000000029802},{""stimulus"":""run_exp/static/images/task_images/rocket-03.jpg"",""time"":1905.7000000029802},{""stimulus"":""run_exp/static/images/task_images/rocket-04.jpg"",""time"":2856.7999999970198},{""stimulus"":""run_exp/static/images/task_images/rocket-05.jpg"",""time"":3789.4000000059605},{""stimulus"":""run_exp/static/images/task_images/rocket-06.jpg"",""time"":4743.20000000298},{""stimulus"":""run_exp/static/images/task_images/rocket-07.jpg"",""time"":5691.600000008941},{""stimulus"":""run_exp/static/images/task_images/rocket-08.jpg"",""time"":6638},{""stimulus"":""run_exp/static/images/task_images/rocket-09.jpg"",""time"":7592.100000008941}]",[],4,,,,,,,,,,,,,,
alien_welcome,109,457406,0.0-36.0-1.0,"""event"",""trial"",""time""
""fullscreenenter"",""1"",""3710""
","
","
","""event"",""trial"",""time""
""fullscreenenter"",""1"",""3710""
","
",,null,run_exp/static/images/task_images/aliens/old_aliens/planet/alien_planet-33.jpg,null,,,,,,,,,,,,,33,"80,15,77,36,33,17,29,47,31,68,58,75,9,49,40,18,37,14,26,39,71,2,35,78,22,23,66,64,30,10,4,74,16,54,63,5,7,48,69,38,27,6,67,51,70,34,24",,,,,,,,,,
land,110,457921,0.0-36.0-2.0,"""event"",""trial"",""time""
""fullscreenenter"",""1"",""3710""
","
","
","""event"",""trial"",""time""
""fullscreenenter"",""1"",""3710""
","
",,null,run_exp/static/images/task_images/land.jpg,null,,,,,,,101,,,5,,,,,,,,,,,,,,
dig,111,459927,0.0-36.0-3.0,"""event"",""trial"",""time""
""fullscreenenter"",""1"",""3710""
","
","
","""event"",""trial"",""time""
""fullscreenenter"",""1"",""3710""
","
",,,,,,,,,,,,"[{""stimulus"":""run_exp/static/images/task_images/dig.jpg"",""time"":0.4000000059604645},{""stimulus"":""run_exp/static/images/task_images/land.jpg"",""time"":682.9000000059605},{""stimulus"":""run_exp/static/images/task_images/dig.jpg"",""time"":1349.9000000059605}]",[],5,,,,,,,,,,,,,,
harvest,112,460930,0.0-36.0-4.0,"""event"",""trial"",""time""
""fullscreenenter"",""1"",""3710""
","
","
","""event"",""trial"",""time""
""fullscreenenter"",""1"",""3710""
","
",,null,run_exp/static/images/task_images/gems/101.jpg,null,,,,,,,56,,,5,,,,,101,0.555272891,0.554455446,,,,,,,
decision,113,461297,0.0-36.0-5.0,"""event"",""trial"",""time""
""fullscreenenter"",""1"",""3710""
","
","
","""event"",""trial"",""time""
""fullscreenenter"",""1"",""3710""
","
",,366.1,run_exp/static/images/task_images/land.jpg,65,,,,,,,56,,,5,,,,,,,,120297,1,0,FALSE,,,
dig,114,463938,0.0-37.0-0.0,"""event"",""trial"",""time""
""fullscreenenter"",""1"",""3710""
","
","
","""event"",""trial"",""time""
""fullscreenenter"",""1"",""3710""
","
",,,,,,,,,,,,"[{""stimulus"":""run_exp/static/images/task_images/dig.jpg"",""time"":0.09999999403953552},{""stimulus"":""run_exp/static/images/task_images/land.jpg"",""time"":880.7000000029802},{""stimulus"":""run_exp/static/images/task_images/dig.jpg"",""time"":1766.8999999910593}]",[],5,,,,,,,,,,,,,,
harvest,115,464950,0.0-37.0-1.0,"""event"",""trial"",""time""
""fullscreenenter"",""1"",""3710""
","
","
","""event"",""trial"",""time""
""fullscreenenter"",""1"",""3710""
","
",,null,run_exp/static/images/task_images/gems/56.jpg,null,,,,,,,29,,,5,,,,,56,0.520746123,0.517857143,,,,,,,
decision,116,465482,0.0-37.0-2.0,"""event"",""trial"",""time""
""fullscreenenter"",""1"",""3710""
","
","
","""event"",""trial"",""time""
""fullscreenenter"",""1"",""3710""
","
",,530.9,run_exp/static/images/task_images/land.jpg,76,,,,,,,29,,,5,,,,,,,,124482,1,1,TRUE,,,
travel,117,474961,0.0-38.0-0.0,"""event"",""trial"",""time""
""fullscreenenter"",""1"",""3710""
","
","
","""event"",""trial"",""time""
""fullscreenenter"",""1"",""3710""
","
",,,,,,,,,,,,"[{""stimulus"":""run_exp/static/images/task_images/rocket-01.jpg"",""time"":0.09999999403953552},{""stimulus"":""run_exp/static/images/task_images/rocket-02.jpg"",""time"":1068.2000000029802},{""stimulus"":""run_exp/static/images/task_images/rocket-03.jpg"",""time"":2117.2999999970198},{""stimulus"":""run_exp/static/images/task_images/rocket-04.jpg"",""time"":3163.5999999940395},{""stimulus"":""run_exp/static/images/task_images/rocket-05.jpg"",""time"":4220.0999999940395},{""stimulus"":""run_exp/static/images/task_images/rocket-06.jpg"",""time"":5263.0999999940395},{""stimulus"":""run_exp/static/images/task_images/rocket-07.jpg"",""time"":6323.5999999940395},{""stimulus"":""run_exp/static/images/task_images/rocket-08.jpg"",""time"":7369.79999999702},{""stimulus"":""run_exp/static/images/task_images/rocket-09.jpg"",""time"":8432.5}]",[],5,,,,,,,,,,,,,,
alien_welcome,118,479974,0.0-38.0-1.0,"""event"",""trial"",""time""
""fullscreenenter"",""1"",""3710""
","
","
","""event"",""trial"",""time""
""fullscreenenter"",""1"",""3710""
","
",,null,run_exp/static/images/task_images/aliens/old_aliens/planet/alien_planet-17.jpg,null,,,,,,,,,,,,,17,"80,15,77,36,33,17,29,47,31,68,58,75,9,49,40,18,37,14,26,39,71,2,35,78,22,23,66,64,30,10,4,74,16,54,63,5,7,48,69,38,27,6,67,51,70,34,24",,,,,,,,,,
land,119,480476,0.0-38.0-2.0,"""event"",""trial"",""time""
""fullscreenenter"",""1"",""3710""
","
","
","""event"",""trial"",""time""
""fullscreenenter"",""1"",""3710""
","
",,null,run_exp/static/images/task_images/land.jpg,null,,,,,,,97,,,6,,,,,,,,,,,,,,
dig,120,482490,0.0-38.0-3.0,"""event"",""trial"",""time""
""fullscreenenter"",""1"",""3710""
","
","
","""event"",""trial"",""time""
""fullscreenenter"",""1"",""3710""
","
",,,,,,,,,,,,"[{""stimulus"":""run_exp/static/images/task_images/dig.jpg"",""time"":0.29999999701976776},{""stimulus"":""run_exp/static/images/task_images/land.jpg"",""time"":677.7000000029802},{""stimulus"":""run_exp/static/images/task_images/dig.jpg"",""time"":1345.3999999910593}]",[],6,,,,,,,,,,,,,,
harvest,121,483507,0.0-38.0-4.0,"""event"",""trial"",""time""
""fullscreenenter"",""1"",""3710""
","
","
","""event"",""trial"",""time""
""fullscreenenter"",""1"",""3710""
","
",,null,run_exp/static/images/task_images/gems/97.jpg,null,,,,,,,84,,,6,,,,,97,0.86805635,0.865979381,,,,,,,
decision,122,483669,0.0-38.0-5.0,"""event"",""trial"",""time""
""fullscreenenter"",""1"",""3710""
","
","
","""event"",""trial"",""time""
""fullscreenenter"",""1"",""3710""
","
",,161.6,run_exp/static/images/task_images/land.jpg,65,,,,,,,84,,,6,,,,,,,,142669,1,0,FALSE,,,
dig,123,486513,0.0-39.0-0.0,"""event"",""trial"",""time""
""fullscreenenter"",""1"",""3710""
","
","
","""event"",""trial"",""time""
""fullscreenenter"",""1"",""3710""
","
",,,,,,,,,,,,"[{""stimulus"":""run_exp/static/images/task_images/dig.jpg"",""time"":0.09999999403953552},{""stimulus"":""run_exp/static/images/task_images/land.jpg"",""time"":958.6999999880791},{""stimulus"":""run_exp/static/images/task_images/dig.jpg"",""time"":1907.199999988079}]",[],6,,,,,,,,,,,,,,
harvest,124,487520,0.0-39.0-1.0,"""event"",""trial"",""time""
""fullscreenenter"",""1"",""3710""
","
","
","""event"",""trial"",""time""
""fullscreenenter"",""1"",""3710""
","
",,null,run_exp/static/images/task_images/gems/84.jpg,null,,,,,,,76,,,6,,,,,84,0.906865029,0.904761905,,,,,,,
decision,125,487668,0.0-39.0-2.0,"""event"",""trial"",""time""
""fullscreenenter"",""1"",""3710""
","
","
","""event"",""trial"",""time""
""fullscreenenter"",""1"",""3710""
","
",,145.4,run_exp/static/images/task_images/land.jpg,65,,,,,,,76,,,6,,,,,,,,146668,1,1,FALSE,,,
dig,126,490531,0.0-40.0-0.0,"""event"",""trial"",""time""
""fullscreenenter"",""1"",""3710""
","
","
","""event"",""trial"",""time""
""fullscreenenter"",""1"",""3710""
","
",,,,,,,,,,,,"[{""stimulus"":""run_exp/static/images/task_images/dig.jpg"",""time"":0.10000000894069672},{""stimulus"":""run_exp/static/images/task_images/land.jpg"",""time"":957.8000000119209},{""stimulus"":""run_exp/static/images/task_images/dig.jpg"",""time"":1910.300000011921}]",[],6,,,,,,,,,,,,,,
harvest,127,491542,0.0-40.0-1.0,"""event"",""trial"",""time""
""fullscreenenter"",""1"",""3710""
","
","
","""event"",""trial"",""time""
""fullscreenenter"",""1"",""3710""
","
",,null,run_exp/static/images/task_images/gems/76.jpg,null,,,,,,,65,,,6,,,,,76,0.85741987,0.855263158,,,,,,,
decision,128,491770,0.0-40.0-2.0,"""event"",""trial"",""time""
""fullscreenenter"",""1"",""3710""
","
","
","""event"",""trial"",""time""
""fullscreenenter"",""1"",""3710""
","
",,227.1,run_exp/static/images/task_images/land.jpg,65,,,,,,,65,,,6,,,,,,,,150770,1,2,FALSE,,,
dig,129,494557,0.0-41.0-0.0,"""event"",""trial"",""time""
""fullscreenenter"",""1"",""3710""
","
","
","""event"",""trial"",""time""
""fullscreenenter"",""1"",""3710""
","
",,,,,,,,,,,,"[{""stimulus"":""run_exp/static/images/task_images/dig.jpg"",""time"":0.09999999403953552},{""stimulus"":""run_exp/static/images/task_images/land.jpg"",""time"":936.8999999910593},{""stimulus"":""run_exp/static/images/task_images/dig.jpg"",""time"":1851}]",[],6,,,,,,,,,,,,,,
harvest,130,495571,0.0-41.0-1.0,"""event"",""trial"",""time""
""fullscreenenter"",""1"",""3710""
","
","
","""event"",""trial"",""time""
""fullscreenenter"",""1"",""3710""
","
",,null,run_exp/static/images/task_images/gems/65.jpg,null,,,,,,,51,,,6,,,,,65,0.782933486,0.784615385,,,,,,,
decision,131,495817,0.0-41.0-2.0,"""event"",""trial"",""time""
""fullscreenenter"",""1"",""3710""
","
","
","""event"",""trial"",""time""
""fullscreenenter"",""1"",""3710""
","
",,245.2,run_exp/static/images/task_images/land.jpg,65,,,,,,,51,,,6,,,,,,,,154817,1,3,FALSE,,,
dig,132,498585,0.0-42.0-0.0,"""event"",""trial"",""time""
""fullscreenenter"",""1"",""3710""
","
","
","""event"",""trial"",""time""
""fullscreenenter"",""1"",""3710""
","
",,,,,,,,,,,,"[{""stimulus"":""run_exp/static/images/task_images/dig.jpg"",""time"":0},{""stimulus"":""run_exp/static/images/task_images/land.jpg"",""time"":930.0999999940395},{""stimulus"":""run_exp/static/images/task_images/dig.jpg"",""time"":1848.9000000059605}]",[],6,,,,,,,,,,,,,,
harvest,133,499598,0.0-42.0-1.0,"""event"",""trial"",""time""
""fullscreenenter"",""1"",""3710""
","
","
","""event"",""trial"",""time""
""fullscreenenter"",""1"",""3710""
","
",,null,run_exp/static/images/task_images/gems/51.jpg,null,,,,,,,43,,,6,,,,,51,0.834054475,0.843137255,,,,,,,
decision,134,500069,0.0-42.0-2.0,"""event"",""trial"",""time""
""fullscreenenter"",""1"",""3710""
","
","
","""event"",""trial"",""time""
""fullscreenenter"",""1"",""3710""
","
",,469.4,run_exp/static/images/task_images/land.jpg,76,,,,,,,43,,,6,,,,,,,,159069,1,4,TRUE,,,
travel,135,509606,0.0-43.0-0.0,"""event"",""trial"",""time""
""fullscreenenter"",""1"",""3710""
","
","
","""event"",""trial"",""time""
""fullscreenenter"",""1"",""3710""
","
",,,,,,,,,,,,"[{""stimulus"":""run_exp/static/images/task_images/rocket-01.jpg"",""time"":0.09999999403953552},{""stimulus"":""run_exp/static/images/task_images/rocket-02.jpg"",""time"":1074.0999999940395},{""stimulus"":""run_exp/static/images/task_images/rocket-03.jpg"",""time"":2121.9000000059605},{""stimulus"":""run_exp/static/images/task_images/rocket-04.jpg"",""time"":3179.5},{""stimulus"":""run_exp/static/images/task_images/rocket-05.jpg"",""time"":4242.79999999702},{""stimulus"":""run_exp/static/images/task_images/rocket-06.jpg"",""time"":5302.5999999940395},{""stimulus"":""run_exp/static/images/task_images/rocket-07.jpg"",""time"":6359.20000000298},{""stimulus"":""run_exp/static/images/task_images/rocket-08.jpg"",""time"":7418.29999999702},{""stimulus"":""run_exp/static/images/task_images/rocket-09.jpg"",""time"":8476.70000000298}]",[],6,,,,,,,,,,,,,,
alien_welcome,136,514621,0.0-43.0-1.0,"""event"",""trial"",""time""
""fullscreenenter"",""1"",""3710""
","
","
","""event"",""trial"",""time""
""fullscreenenter"",""1"",""3710""
","
",,null,run_exp/static/images/task_images/aliens/old_aliens/planet/alien_planet-29.jpg,null,,,,,,,,,,,,,29,"80,15,77,36,33,17,29,47,31,68,58,75,9,49,40,18,37,14,26,39,71,2,35,78,22,23,66,64,30,10,4,74,16,54,63,5,7,48,69,38,27,6,67,51,70,34,24",,,,,,,,,,
land,137,515134,0.0-43.0-2.0,"""event"",""trial"",""time""
""fullscreenenter"",""1"",""3710""
","
","
","""event"",""trial"",""time""
""fullscreenenter"",""1"",""3710""
","
",,null,run_exp/static/images/task_images/land.jpg,null,,,,,,,95,,,7,,,,,,,,,,,,,,
dig,138,517148,0.0-43.0-3.0,"""event"",""trial"",""time""
""fullscreenenter"",""1"",""3710""
","
","
","""event"",""trial"",""time""
""fullscreenenter"",""1"",""3710""
","
",,,,,,,,,,,,"[{""stimulus"":""run_exp/static/images/task_images/dig.jpg"",""time"":0.5},{""stimulus"":""run_exp/static/images/task_images/land.jpg"",""time"":673.2000000029802},{""stimulus"":""run_exp/static/images/task_images/dig.jpg"",""time"":1343.2999999970198}]",[],7,,,,,,,,,,,,,,
harvest,139,518152,0.0-43.0-4.0,"""event"",""trial"",""time""
""fullscreenenter"",""1"",""3710""
","
","
","""event"",""trial"",""time""
""fullscreenenter"",""1"",""3710""
","
",,null,run_exp/static/images/task_images/gems/95.jpg,null,,,,,,,66,,,7,,,,,95,0.697484432,0.694736842,,,,,,,
decision,140,518363,0.0-43.0-5.0,"""event"",""trial"",""time""
""fullscreenenter"",""1"",""3710""
","
","
","""event"",""trial"",""time""
""fullscreenenter"",""1"",""3710""
","
",,209.4,run_exp/static/images/task_images/land.jpg,65,,,,,,,66,,,7,,,,,,,,177363,1,0,FALSE,,,
dig,141,521160,0.0-44.0-0.0,"""event"",""trial"",""time""
""fullscreenenter"",""1"",""3710""
","
","
","""event"",""trial"",""time""
""fullscreenenter"",""1"",""3710""
","
",,,,,,,,,,,,"[{""stimulus"":""run_exp/static/images/task_images/dig.jpg"",""time"":0.20000000298023224},{""stimulus"":""run_exp/static/images/task_images/land.jpg"",""time"":940.0999999940395},{""stimulus"":""run_exp/static/images/task_images/dig.jpg"",""time"":1875.2999999970198}]",[],7,,,,,,,,,,,,,,
harvest,142,522174,0.0-44.0-1.0,"""event"",""trial"",""time""
""fullscreenenter"",""1"",""3710""
","
","
","""event"",""trial"",""time""
""fullscreenenter"",""1"",""3710""
","
",,null,run_exp/static/images/task_images/gems/66.jpg,null,,,,,,,56,,,7,,,,,66,0.847496421,0.848484848,,,,,,,
decision,143,522233,0.0-44.0-2.0,"""event"",""trial"",""time""
""fullscreenenter"",""1"",""3710""
","
","
","""event"",""trial"",""time""
""fullscreenenter"",""1"",""3710""
","
",,58.10000001,run_exp/static/images/task_images/land.jpg,65,,,,,,,56,,,7,,,,,,,,181234,1,1,FALSE,,,
dig,144,525181,0.0-45.0-0.0,"""event"",""trial"",""time""
""fullscreenenter"",""1"",""3710""
","
","
","""event"",""trial"",""time""
""fullscreenenter"",""1"",""3710""
","
",,,,,,,,,,,,"[{""stimulus"":""run_exp/static/images/task_images/dig.jpg"",""time"":0.20000000298023224},{""stimulus"":""run_exp/static/images/task_images/land.jpg"",""time"":981.9000000059605},{""stimulus"":""run_exp/static/images/task_images/dig.jpg"",""time"":1962.6000000089407}]",[],7,,,,,,,,,,,,,,
harvest,145,526194,0.0-45.0-1.0,"""event"",""trial"",""time""
""fullscreenenter"",""1"",""3710""
","
","
","""event"",""trial"",""time""
""fullscreenenter"",""1"",""3710""
","
",,null,run_exp/static/images/task_images/gems/56.jpg,null,,,,,,,50,,,7,,,,,56,0.885214441,0.892857143,,,,,,,
decision,146,526689,0.0-45.0-2.0,"""event"",""trial"",""time""
""fullscreenenter"",""1"",""3710""
","
","
","""event"",""trial"",""time""
""fullscreenenter"",""1"",""3710""
","
",,493.7,run_exp/static/images/task_images/land.jpg,76,,,,,,,50,,,7,,,,,,,,185689,1,2,TRUE,,,
travel,147,536210,0.0-46.0-0.0,"""event"",""trial"",""time""
""fullscreenenter"",""1"",""3710""
","
","
","""event"",""trial"",""time""
""fullscreenenter"",""1"",""3710""
","
",,,,,,,,,,,,"[{""stimulus"":""run_exp/static/images/task_images/rocket-01.jpg"",""time"":0.20000000298023224},{""stimulus"":""run_exp/static/images/task_images/rocket-02.jpg"",""time"":1069.8999999910593},{""stimulus"":""run_exp/static/images/task_images/rocket-03.jpg"",""time"":2116.0999999940395},{""stimulus"":""run_exp/static/images/task_images/rocket-04.jpg"",""time"":3177.5},{""stimulus"":""run_exp/static/images/task_images/rocket-05.jpg"",""time"":4234.20000000298},{""stimulus"":""run_exp/static/images/task_images/rocket-06.jpg"",""time"":5295.399999991059},{""stimulus"":""run_exp/static/images/task_images/rocket-07.jpg"",""time"":6338.899999991059},{""stimulus"":""run_exp/static/images/task_images/rocket-08.jpg"",""time"":7399.5},{""stimulus"":""run_exp/static/images/task_images/rocket-09.jpg"",""time"":8460.89999999106}]",[],7,,,,,,,,,,,,,,
alien_welcome,148,541217,0.0-46.0-1.0,"""event"",""trial"",""time""
""fullscreenenter"",""1"",""3710""
","
","
","""event"",""trial"",""time""
""fullscreenenter"",""1"",""3710""
","
",,null,run_exp/static/images/task_images/aliens/old_aliens/planet/alien_planet-47.jpg,null,,,,,,,,,,,,,47,"80,15,77,36,33,17,29,47,31,68,58,75,9,49,40,18,37,14,26,39,71,2,35,78,22,23,66,64,30,10,4,74,16,54,63,5,7,48,69,38,27,6,67,51,70,34,24",,,,,,,,,,
land,149,541721,0.0-46.0-2.0,"""event"",""trial"",""time""
""fullscreenenter"",""1"",""3710""
","
","
","""event"",""trial"",""time""
""fullscreenenter"",""1"",""3710""
","
",,null,run_exp/static/images/task_images/land.jpg,null,,,,,,,100,,,8,,,,,,,,,,,,,,
dig,150,543730,0.0-46.0-3.0,"""event"",""trial"",""time""
""fullscreenenter"",""1"",""3710""
","
","
","""event"",""trial"",""time""
""fullscreenenter"",""1"",""3710""
","
",,,,,,,,,,,,"[{""stimulus"":""run_exp/static/images/task_images/dig.jpg"",""time"":0.5},{""stimulus"":""run_exp/static/images/task_images/land.jpg"",""time"":669.5},{""stimulus"":""run_exp/static/images/task_images/dig.jpg"",""time"":1336.2000000029802}]",[],8,,,,,,,,,,,,,,
harvest,151,544736,0.0-46.0-4.0,"""event"",""trial"",""time""
""fullscreenenter"",""1"",""3710""
","
","
","""event"",""trial"",""time""
""fullscreenenter"",""1"",""3710""
","
",,null,run_exp/static/images/task_images/gems/100.jpg,null,,,,,,,85,,,8,,,,,100,0.854726122,0.85,,,,,,,
decision,152,544897,0.0-46.0-5.0,"""event"",""trial"",""time""
""fullscreenenter"",""1"",""3710""
","
","
","""event"",""trial"",""time""
""fullscreenenter"",""1"",""3710""
","
",,160,run_exp/static/images/task_images/land.jpg,65,,,,,,,85,,,8,,,,,,,,203897,1,0,FALSE,,,
dig,153,547744,0.0-47.0-0.0,"""event"",""trial"",""time""
""fullscreenenter"",""1"",""3710""
","
","
","""event"",""trial"",""time""
""fullscreenenter"",""1"",""3710""
","
",,,,,,,,,,,,"[{""stimulus"":""run_exp/static/images/task_images/dig.jpg"",""time"":0},{""stimulus"":""run_exp/static/images/task_images/land.jpg"",""time"":953.5},{""stimulus"":""run_exp/static/images/task_images/dig.jpg"",""time"":1901.7999999970198}]",[],8,,,,,,,,,,,,,,
harvest,154,548749,0.0-47.0-1.0,"""event"",""trial"",""time""
""fullscreenenter"",""1"",""3710""
","
","
","""event"",""trial"",""time""
""fullscreenenter"",""1"",""3710""
","
",,null,run_exp/static/images/task_images/gems/85.jpg,null,,,,,,,67,,,8,,,,,85,0.790336953,0.788235294,,,,,,,
decision,155,548876,0.0-47.0-2.0,"""event"",""trial"",""time""
""fullscreenenter"",""1"",""3710""
","
","
","""event"",""trial"",""time""
""fullscreenenter"",""1"",""3710""
","
",,125.2,run_exp/static/images/task_images/land.jpg,65,,,,,,,67,,,8,,,,,,,,207876,1,1,FALSE,,,
dig,156,551752,0.0-48.0-0.0,"""event"",""trial"",""time""
""fullscreenenter"",""1"",""3710""
","
","
","""event"",""trial"",""time""
""fullscreenenter"",""1"",""3710""
","
",,,,,,,,,,,,"[{""stimulus"":""run_exp/static/images/task_images/dig.jpg"",""time"":0.09999999403953552},{""stimulus"":""run_exp/static/images/task_images/land.jpg"",""time"":973.1999999880791},{""stimulus"":""run_exp/static/images/task_images/dig.jpg"",""time"":1923.8999999910593}]",[],8,,,,,,,,,,,,,,
harvest,157,552766,0.0-48.0-1.0,"""event"",""trial"",""time""
""fullscreenenter"",""1"",""3710""
","
","
","""event"",""trial"",""time""
""fullscreenenter"",""1"",""3710""
","
",,null,run_exp/static/images/task_images/gems/67.jpg,null,,,,,,,55,,,8,,,,,67,0.824093056,0.820895522,,,,,,,
decision,158,552922,0.0-48.0-2.0,"""event"",""trial"",""time""
""fullscreenenter"",""1"",""3710""
","
","
","""event"",""trial"",""time""
""fullscreenenter"",""1"",""3710""
","
",,155.3,run_exp/static/images/task_images/land.jpg,65,,,,,,,55,,,8,,,,,,,,211922,1,2,FALSE,,,
dig,159,555783,0.0-49.0-0.0,"""event"",""trial"",""time""
""fullscreenenter"",""1"",""3710""
","
","
","""event"",""trial"",""time""
""fullscreenenter"",""1"",""3710""
","
",,,,,,,,,,,,"[{""stimulus"":""run_exp/static/images/task_images/dig.jpg"",""time"":0.10000000894069672},{""stimulus"":""run_exp/static/images/task_images/land.jpg"",""time"":961.1000000089407},{""stimulus"":""run_exp/static/images/task_images/dig.jpg"",""time"":1912.5}]",[],8,,,,,,,,,,,,,,
harvest,160,556795,0.0-49.0-1.0,"""event"",""trial"",""time""
""fullscreenenter"",""1"",""3710""
","
","
","""event"",""trial"",""time""
""fullscreenenter"",""1"",""3710""
","
",,null,run_exp/static/images/task_images/gems/55.jpg,null,,,,,,,41,,,8,,,,,55,0.739951084,0.745454545,,,,,,,
decision,161,556981,0.0-49.0-2.0,"""event"",""trial"",""time""
""fullscreenenter"",""1"",""3710""
","
","
","""event"",""trial"",""time""
""fullscreenenter"",""1"",""3710""
","
",,184.3,run_exp/static/images/task_images/land.jpg,76,,,,,,,41,,,8,,,,,,,,215981,1,3,TRUE,,,
travel,162,566800,0.0-50.0-0.0,"""event"",""trial"",""time""
""fullscreenenter"",""1"",""3710""
","
","
","""event"",""trial"",""time""
""fullscreenenter"",""1"",""3710""
","
",,,,,,,,,,,,"[{""stimulus"":""run_exp/static/images/task_images/rocket-01.jpg"",""time"":0.10000000894069672},{""stimulus"":""run_exp/static/images/task_images/rocket-02.jpg"",""time"":1092.2000000029802},{""stimulus"":""run_exp/static/images/task_images/rocket-03.jpg"",""time"":2195.4000000059605},{""stimulus"":""run_exp/static/images/task_images/rocket-04.jpg"",""time"":3283.7000000029802},{""stimulus"":""run_exp/static/images/task_images/rocket-05.jpg"",""time"":4372.29999999702},{""stimulus"":""run_exp/static/images/task_images/rocket-06.jpg"",""time"":5463.29999999702},{""stimulus"":""run_exp/static/images/task_images/rocket-07.jpg"",""time"":6550.100000008941},{""stimulus"":""run_exp/static/images/task_images/rocket-08.jpg"",""time"":7634.29999999702},{""stimulus"":""run_exp/static/images/task_images/rocket-09.jpg"",""time"":8726.20000000298}]",[],8,,,,,,,,,,,,,,
alien_welcome,163,571804,0.0-50.0-1.0,"""event"",""trial"",""time""
""fullscreenenter"",""1"",""3710""
","
","
","""event"",""trial"",""time""
""fullscreenenter"",""1"",""3710""
","
",,null,run_exp/static/images/task_images/aliens/old_aliens/planet/alien_planet-31.jpg,null,,,,,,,,,,,,,31,"80,15,77,36,33,17,29,47,31,68,58,75,9,49,40,18,37,14,26,39,71,2,35,78,22,23,66,64,30,10,4,74,16,54,63,5,7,48,69,38,27,6,67,51,70,34,24",,,,,,,,,,
land,164,572319,0.0-50.0-2.0,"""event"",""trial"",""time""
""fullscreenenter"",""1"",""3710""
","
","
","""event"",""trial"",""time""
""fullscreenenter"",""1"",""3710""
","
",,null,run_exp/static/images/task_images/land.jpg,null,,,,,,,103,,,9,,,,,,,,,,,,,,
dig,165,574329,0.0-50.0-3.0,"""event"",""trial"",""time""
""fullscreenenter"",""1"",""3710""
","
","
","""event"",""trial"",""time""
""fullscreenenter"",""1"",""3710""
","
",,,,,,,,,,,,"[{""stimulus"":""run_exp/static/images/task_images/dig.jpg"",""time"":0.30000001192092896},{""stimulus"":""run_exp/static/images/task_images/land.jpg"",""time"":669.1000000089407},{""stimulus"":""run_exp/static/images/task_images/dig.jpg"",""time"":1340.4000000059605}]",[],9,,,,,,,,,,,,,,
harvest,166,575344,0.0-50.0-4.0,"""event"",""trial"",""time""
""fullscreenenter"",""1"",""3710""
","
","
","""event"",""trial"",""time""
""fullscreenenter"",""1"",""3710""
","
",,null,run_exp/static/images/task_images/gems/103.jpg,null,,,,,,,18,,,9,,,,,103,0.173084873,0.174757282,,,,,,,
decision,167,575528,0.0-50.0-5.0,"""event"",""trial"",""time""
""fullscreenenter"",""1"",""3710""
","
","
","""event"",""trial"",""time""
""fullscreenenter"",""1"",""3710""
","
",,182.6,run_exp/static/images/task_images/land.jpg,65,,,,,,,18,,,9,,,,,,,,234528,1,0,FALSE,,,
dig,168,578354,0.0-51.0-0.0,"""event"",""trial"",""time""
""fullscreenenter"",""1"",""3710""
","
","
","""event"",""trial"",""time""
""fullscreenenter"",""1"",""3710""
","
",,,,,,,,,,,,"[{""stimulus"":""run_exp/static/images/task_images/dig.jpg"",""time"":0.29999999701976776},{""stimulus"":""run_exp/static/images/task_images/land.jpg"",""time"":949.4000000059605},{""stimulus"":""run_exp/static/images/task_images/dig.jpg"",""time"":1884.2000000029802}]",[],9,,,,,,,,,,,,,,
harvest,169,579368,0.0-51.0-1.0,"""event"",""trial"",""time""
""fullscreenenter"",""1"",""3710""
","
","
","""event"",""trial"",""time""
""fullscreenenter"",""1"",""3710""
","
",,null,run_exp/static/images/task_images/gems/18.jpg,null,,,,,,,5,,,9,,,,,18,0.28686516,0.277777778,,,,,,,
decision,170,579381,0.0-51.0-2.0,"""event"",""trial"",""time""
""fullscreenenter"",""1"",""3710""
","
","
","""event"",""trial"",""time""
""fullscreenenter"",""1"",""3710""
","
",,12.40000001,run_exp/static/images/task_images/land.jpg,76,,,,,,,5,,,9,,,,,,,,238382,1,1,TRUE,,,
travel,171,589369,0.0-52.0-0.0,"""event"",""trial"",""time""
""fullscreenenter"",""1"",""3710""
","
","
","""event"",""trial"",""time""
""fullscreenenter"",""1"",""3710""
","
",,,,,,,,,,,,"[{""stimulus"":""run_exp/static/images/task_images/rocket-01.jpg"",""time"":0.20000000298023224},{""stimulus"":""run_exp/static/images/task_images/rocket-02.jpg"",""time"":1123.5},{""stimulus"":""run_exp/static/images/task_images/rocket-03.jpg"",""time"":2230.5999999940395},{""stimulus"":""run_exp/static/images/task_images/rocket-04.jpg"",""time"":3334.2999999970198},{""stimulus"":""run_exp/static/images/task_images/rocket-05.jpg"",""time"":4439.20000000298},{""stimulus"":""run_exp/static/images/task_images/rocket-06.jpg"",""time"":5549.29999999702},{""stimulus"":""run_exp/static/images/task_images/rocket-07.jpg"",""time"":6666.399999991059},{""stimulus"":""run_exp/static/images/task_images/rocket-08.jpg"",""time"":7773.5},{""stimulus"":""run_exp/static/images/task_images/rocket-09.jpg"",""time"":8878}]",[],9,,,,,,,,,,,,,,
alien_welcome,172,594386,0.0-52.0-1.0,"""event"",""trial"",""time""
""fullscreenenter"",""1"",""3710""
","
","
","""event"",""trial"",""time""
""fullscreenenter"",""1"",""3710""
","
",,null,run_exp/static/images/task_images/aliens/old_aliens/planet/alien_planet-68.jpg,null,,,,,,,,,,,,,68,"80,15,77,36,33,17,29,47,31,68,58,75,9,49,40,18,37,14,26,39,71,2,35,78,22,23,66,64,30,10,4,74,16,54,63,5,7,48,69,38,27,6,67,51,70,34,24",,,,,,,,,,
land,173,594902,0.0-52.0-2.0,"""event"",""trial"",""time""
""fullscreenenter"",""1"",""3710""
","
","
","""event"",""trial"",""time""
""fullscreenenter"",""1"",""3710""
","
",,null,run_exp/static/images/task_images/land.jpg,null,,,,,,,97,,,10,,,,,,,,,,,,,,
dig,174,596913,0.0-52.0-3.0,"""event"",""trial"",""time""
""fullscreenenter"",""1"",""3710""
","
","
","""event"",""trial"",""time""
""fullscreenenter"",""1"",""3710""
","
",,,,,,,,,,,,"[{""stimulus"":""run_exp/static/images/task_images/dig.jpg"",""time"":0.10000000894069672},{""stimulus"":""run_exp/static/images/task_images/land.jpg"",""time"":669.3000000119209},{""stimulus"":""run_exp/static/images/task_images/dig.jpg"",""time"":1340.1000000089407}]",[],10,,,,,,,,,,,,,,
harvest,175,597925,0.0-52.0-4.0,"""event"",""trial"",""time""
""fullscreenenter"",""1"",""3710""
","
","
","""event"",""trial"",""time""
""fullscreenenter"",""1"",""3710""
","
",,null,run_exp/static/images/task_images/gems/97.jpg,null,,,,,,,29,,,10,,,,,97,0.295339483,0.298969072,,,,,,,
decision,176,598194,0.0-52.0-5.0,"""event"",""trial"",""time""
""fullscreenenter"",""1"",""3710""
","
","
","""event"",""trial"",""time""
""fullscreenenter"",""1"",""3710""
","
",,267.9,run_exp/static/images/task_images/land.jpg,65,,,,,,,29,,,10,,,,,,,,257194,1,0,FALSE,,,
dig,177,600928,0.0-53.0-0.0,"""event"",""trial"",""time""
""fullscreenenter"",""1"",""3710""
","
","
","""event"",""trial"",""time""
""fullscreenenter"",""1"",""3710""
","
",,,,,,,,,,,,"[{""stimulus"":""run_exp/static/images/task_images/dig.jpg"",""time"":0.09999999403953552},{""stimulus"":""run_exp/static/images/task_images/land.jpg"",""time"":924.7999999970198},{""stimulus"":""run_exp/static/images/task_images/dig.jpg"",""time"":1825.7999999970198}]",[],10,,,,,,,,,,,,,,
harvest,178,601931,0.0-53.0-1.0,"""event"",""trial"",""time""
""fullscreenenter"",""1"",""3710""
","
","
","""event"",""trial"",""time""
""fullscreenenter"",""1"",""3710""
","
",,null,run_exp/static/images/task_images/gems/29.jpg,null,,,,,,,6,,,10,,,,,29,0.215666425,0.206896552,,,,,,,
decision,179,601951,0.0-53.0-2.0,"""event"",""trial"",""time""
""fullscreenenter"",""1"",""3710""
","
","
","""event"",""trial"",""time""
""fullscreenenter"",""1"",""3710""
","
",,18.8,run_exp/static/images/task_images/land.jpg,76,,,,,,,6,,,10,,,,,,,,260951,1,1,TRUE,,,
travel,180,611936,0.0-54.0-0.0,"""event"",""trial"",""time""
""fullscreenenter"",""1"",""3710""
","
","
","""event"",""trial"",""time""
""fullscreenenter"",""1"",""3710""
","
",,,,,,,,,,,,"[{""stimulus"":""run_exp/static/images/task_images/rocket-01.jpg"",""time"":0.10000000894069672},{""stimulus"":""run_exp/static/images/task_images/rocket-02.jpg"",""time"":1116.1000000089407},{""stimulus"":""run_exp/static/images/task_images/rocket-03.jpg"",""time"":2234.7999999970198},{""stimulus"":""run_exp/static/images/task_images/rocket-04.jpg"",""time"":3342.9000000059605},{""stimulus"":""run_exp/static/images/task_images/rocket-05.jpg"",""time"":4451.70000000298},{""stimulus"":""run_exp/static/images/task_images/rocket-06.jpg"",""time"":5557.29999999702},{""stimulus"":""run_exp/static/images/task_images/rocket-07.jpg"",""time"":6665.29999999702},{""stimulus"":""run_exp/static/images/task_images/rocket-08.jpg"",""time"":7768.600000008941},{""stimulus"":""run_exp/static/images/task_images/rocket-09.jpg"",""time"":8877.20000000298}]",[],10,,,,,,,,,,,,,,
alien_welcome,181,616953,0.0-54.0-1.0,"""event"",""trial"",""time""
""fullscreenenter"",""1"",""3710""
","
","
","""event"",""trial"",""time""
""fullscreenenter"",""1"",""3710""
","
",,null,run_exp/static/images/task_images/aliens/old_aliens/planet/alien_planet-58.jpg,null,,,,,,,,,,,,,58,"80,15,77,36,33,17,29,47,31,68,58,75,9,49,40,18,37,14,26,39,71,2,35,78,22,23,66,64,30,10,4,74,16,54,63,5,7,48,69,38,27,6,67,51,70,34,24",,,,,,,,,,
land,182,617468,0.0-54.0-2.0,"""event"",""trial"",""time""
""fullscreenenter"",""1"",""3710""
","
","
","""event"",""trial"",""time""
""fullscreenenter"",""1"",""3710""
","
",,null,run_exp/static/images/task_images/land.jpg,null,,,,,,,103,,,11,,,,,,,,,,,,,,
dig,183,619481,0.0-54.0-3.0,"""event"",""trial"",""time""
""fullscreenenter"",""1"",""3710""
","
","
","""event"",""trial"",""time""
""fullscreenenter"",""1"",""3710""
","
",,,,,,,,,,,,"[{""stimulus"":""run_exp/static/images/task_images/dig.jpg"",""time"":0.4000000059604645},{""stimulus"":""run_exp/static/images/task_images/land.jpg"",""time"":672.1000000089407},{""stimulus"":""run_exp/static/images/task_images/dig.jpg"",""time"":1341.9000000059605}]",[],11,,,,,,,,,,,,,,
harvest,184,620495,0.0-54.0-4.0,"""event"",""trial"",""time""
""fullscreenenter"",""1"",""3710""
","
","
","""event"",""trial"",""time""
""fullscreenenter"",""1"",""3710""
","
",,null,run_exp/static/images/task_images/gems/103.jpg,null,,,,,,,16,,,11,,,,,103,0.154275571,0.155339806,,,,,,,
decision,185,620561,0.0-54.0-5.0,"""event"",""trial"",""time""
""fullscreenenter"",""1"",""3710""
","
","
","""event"",""trial"",""time""
""fullscreenenter"",""1"",""3710""
","
",,65.3,run_exp/static/images/task_images/land.jpg,65,,,,,,,16,,,11,,,,,,,,279561,1,0,FALSE,,,
dig,186,623502,0.0-55.0-0.0,"""event"",""trial"",""time""
""fullscreenenter"",""1"",""3710""
","
","
","""event"",""trial"",""time""
""fullscreenenter"",""1"",""3710""
","
",,,,,,,,,,,,"[{""stimulus"":""run_exp/static/images/task_images/dig.jpg"",""time"":0.09999999403953552},{""stimulus"":""run_exp/static/images/task_images/land.jpg"",""time"":991.3999999910593},{""stimulus"":""run_exp/static/images/task_images/dig.jpg"",""time"":1958.0999999940395}]",[],11,,,,,,,,,,,,,,
harvest,187,624516,0.0-55.0-1.0,"""event"",""trial"",""time""
""fullscreenenter"",""1"",""3710""
","
","
","""event"",""trial"",""time""
""fullscreenenter"",""1"",""3710""
","
",,null,run_exp/static/images/task_images/gems/16.jpg,null,,,,,,,3,,,11,,,,,16,0.204570838,0.1875,,,,,,,
decision,188,626916,0.0-55.0-2.0,"""event"",""trial"",""time""
""fullscreenenter"",""1"",""3710""
","
","
","""event"",""trial"",""time""
""fullscreenenter"",""1"",""3710""
","
",,2399.4,run_exp/static/images/task_images/land.jpg,76,,,,,,,3,,,11,,,,,,,,285916,1,1,TRUE,,,
travel,189,634517,0.0-56.0-0.0,"""event"",""trial"",""time""
""fullscreenenter"",""1"",""3710""
","
","
","""event"",""trial"",""time""
""fullscreenenter"",""1"",""3710""
","
",,,,,,,,,,,,"[{""stimulus"":""run_exp/static/images/task_images/rocket-01.jpg"",""time"":0.09999999403953552},{""stimulus"":""run_exp/static/images/task_images/rocket-02.jpg"",""time"":848},{""stimulus"":""run_exp/static/images/task_images/rocket-03.jpg"",""time"":1704.0999999940395},{""stimulus"":""run_exp/static/images/task_images/rocket-04.jpg"",""time"":2540.3999999910593},{""stimulus"":""run_exp/static/images/task_images/rocket-05.jpg"",""time"":3380.5},{""stimulus"":""run_exp/static/images/task_images/rocket-06.jpg"",""time"":4223.899999991059},{""stimulus"":""run_exp/static/images/task_images/rocket-07.jpg"",""time"":5077.0999999940395},{""stimulus"":""run_exp/static/images/task_images/rocket-08.jpg"",""time"":5916.399999991059},{""stimulus"":""run_exp/static/images/task_images/rocket-09.jpg"",""time"":6753.5999999940395}]",[],11,,,,,,,,,,,,,,
alien_welcome,190,639529,0.0-56.0-1.0,"""event"",""trial"",""time""
""fullscreenenter"",""1"",""3710""
","
","
","""event"",""trial"",""time""
""fullscreenenter"",""1"",""3710""
","
",,null,run_exp/static/images/task_images/aliens/old_aliens/planet/alien_planet-75.jpg,null,,,,,,,,,,,,,75,"80,15,77,36,33,17,29,47,31,68,58,75,9,49,40,18,37,14,26,39,71,2,35,78,22,23,66,64,30,10,4,74,16,54,63,5,7,48,69,38,27,6,67,51,70,34,24",,,,,,,,,,
land,191,640043,0.0-56.0-2.0,"""event"",""trial"",""time""
""fullscreenenter"",""1"",""3710""
","
","
","""event"",""trial"",""time""
""fullscreenenter"",""1"",""3710""
","
",,null,run_exp/static/images/task_images/land.jpg,null,,,,,,,92,,,12,,,,,,,,,,,,,,
dig,192,642060,0.0-56.0-3.0,"""event"",""trial"",""time""
""fullscreenenter"",""1"",""3710""
","
","
","""event"",""trial"",""time""
""fullscreenenter"",""1"",""3710""
","
",,,,,,,,,,,,"[{""stimulus"":""run_exp/static/images/task_images/dig.jpg"",""time"":0},{""stimulus"":""run_exp/static/images/task_images/land.jpg"",""time"":681.2999999970198},{""stimulus"":""run_exp/static/images/task_images/dig.jpg"",""time"":1335.3999999910593}]",[],12,,,,,,,,,,,,,,
harvest,193,643073,0.0-56.0-4.0,"""event"",""trial"",""time""
""fullscreenenter"",""1"",""3710""
","
","
","""event"",""trial"",""time""
""fullscreenenter"",""1"",""3710""
","
",,null,run_exp/static/images/task_images/gems/92.jpg,null,,,,,,,19,,,12,,,,,92,0.201440833,0.206521739,,,,,,,
decision,194,643345,0.0-56.0-5.0,"""event"",""trial"",""time""
""fullscreenenter"",""1"",""3710""
","
","
","""event"",""trial"",""time""
""fullscreenenter"",""1"",""3710""
","
",,271.5,run_exp/static/images/task_images/land.jpg,65,,,,,,,19,,,12,,,,,,,,302345,1,0,TRUE,,,
end_of_block_continue,195,652523,0.0-57.0-0.0,"""event"",""trial"",""time""
""fullscreenenter"",""1"",""3710""
","
","
","""event"",""trial"",""time""
""fullscreenenter"",""1"",""3710""
","
",,null,run_exp/static/audio/clip_32_block_end.m4a,,,,,,,null,,,,,,,,,,,,,,,,,,
alien_welcome,196,657526,0.0-58.0-0.0,"""event"",""trial"",""time""
""fullscreenenter"",""1"",""3710""
","
","
","""event"",""trial"",""time""
""fullscreenenter"",""1"",""3710""
","
",,null,run_exp/static/images/task_images/aliens/old_aliens/planet/alien_planet-9.jpg,null,,,,,,,,,,,,,9,"80,15,77,36,33,17,29,47,31,68,58,75,9,49,40,18,37,14,26,39,71,2,35,78,22,23,66,64,30,10,4,74,16,54,63,5,7,48,69,38,27,6,67,51,70,34,24",,,,,,,,,,
land,197,658037,0.0-58.0-1.0,"""event"",""trial"",""time""
""fullscreenenter"",""1"",""3710""
","
","
","""event"",""trial"",""time""
""fullscreenenter"",""1"",""3710""
","
",,null,run_exp/static/images/task_images/land.jpg,null,,,,,,,101,,,13,,,,,,,,,,,,,,
dig,198,660047,0.0-58.0-2.0,"""event"",""trial"",""time""
""fullscreenenter"",""1"",""3710""
","
","
","""event"",""trial"",""time""
""fullscreenenter"",""1"",""3710""
","
",,,,,,,,,,,,"[{""stimulus"":""run_exp/static/images/task_images/dig.jpg"",""time"":0.20000000298023224},{""stimulus"":""run_exp/static/images/task_images/land.jpg"",""time"":672.5999999940395},{""stimulus"":""run_exp/static/images/task_images/dig.jpg"",""time"":1341.5999999940395}]",[],13,,,,,,,,,,,,,,
harvest,199,661050,0.0-58.0-3.0,"""event"",""trial"",""time""
""fullscreenenter"",""1"",""3710""
","
","
","""event"",""trial"",""time""
""fullscreenenter"",""1"",""3710""
","
",,null,run_exp/static/images/task_images/gems/101.jpg,null,,,,,,,18,,,13,,,,,101,0.173370869,0.178217822,,,,,,,
decision,200,661285,0.0-58.0-4.0,"""event"",""trial"",""time""
""fullscreenenter"",""1"",""3710""
","
","
","""event"",""trial"",""time""
""fullscreenenter"",""1"",""3710""
","
",,234.6,run_exp/static/images/task_images/land.jpg,65,,,,,,,18,,,13,,,,,,,,8761,2,0,FALSE,,,
dig,201,664056,0.0-59.0-0.0,"""event"",""trial"",""time""
""fullscreenenter"",""1"",""3710""
","
","
","""event"",""trial"",""time""
""fullscreenenter"",""1"",""3710""
","
",,,,,,,,,,,,"[{""stimulus"":""run_exp/static/images/task_images/dig.jpg"",""time"":0.09999999403953552},{""stimulus"":""run_exp/static/images/task_images/land.jpg"",""time"":926.9000000059605},{""stimulus"":""run_exp/static/images/task_images/dig.jpg"",""time"":1848.2999999970198}]",[],13,,,,,,,,,,,,,,
harvest,202,665059,0.0-59.0-1.0,"""event"",""trial"",""time""
""fullscreenenter"",""1"",""3710""
","
","
","""event"",""trial"",""time""
""fullscreenenter"",""1"",""3710""
","
",,null,run_exp/static/images/task_images/gems/18.jpg,null,,,,,,,4,,,13,,,,,18,0.222707374,0.222222222,,,,,,,
decision,203,665332,0.0-59.0-2.0,"""event"",""trial"",""time""
""fullscreenenter"",""1"",""3710""
","
","
","""event"",""trial"",""time""
""fullscreenenter"",""1"",""3710""
","
",,272.4,run_exp/static/images/task_images/land.jpg,76,,,,,,,4,,,13,,,,,,,,12807,2,1,TRUE,,,
travel,204,675058,0.0-60.0-0.0,"""event"",""trial"",""time""
""fullscreenenter"",""1"",""3710""
","
","
","""event"",""trial"",""time""
""fullscreenenter"",""1"",""3710""
","
",,,,,,,,,,,,"[{""stimulus"":""run_exp/static/images/task_images/rocket-01.jpg"",""time"":0.20000000298023224},{""stimulus"":""run_exp/static/images/task_images/rocket-02.jpg"",""time"":1093.7000000029802},{""stimulus"":""run_exp/static/images/task_images/rocket-03.jpg"",""time"":2166.3999999910593},{""stimulus"":""run_exp/static/images/task_images/rocket-04.jpg"",""time"":3255.7000000029802},{""stimulus"":""run_exp/static/images/task_images/rocket-05.jpg"",""time"":4328.899999991059},{""stimulus"":""run_exp/static/images/task_images/rocket-06.jpg"",""time"":5407.399999991059},{""stimulus"":""run_exp/static/images/task_images/rocket-07.jpg"",""time"":6484.399999991059},{""stimulus"":""run_exp/static/images/task_images/rocket-08.jpg"",""time"":7575.79999999702},{""stimulus"":""run_exp/static/images/task_images/rocket-09.jpg"",""time"":8648.79999999702}]",[],13,,,,,,,,,,,,,,
alien_welcome,205,680075,0.0-60.0-1.0,"""event"",""trial"",""time""
""fullscreenenter"",""1"",""3710""
","
","
","""event"",""trial"",""time""
""fullscreenenter"",""1"",""3710""
","
",,null,run_exp/static/images/task_images/aliens/old_aliens/planet/alien_planet-49.jpg,null,,,,,,,,,,,,,49,"80,15,77,36,33,17,29,47,31,68,58,75,9,49,40,18,37,14,26,39,71,2,35,78,22,23,66,64,30,10,4,74,16,54,63,5,7,48,69,38,27,6,67,51,70,34,24",,,,,,,,,,
land,206,680579,0.0-60.0-2.0,"""event"",""trial"",""time""
""fullscreenenter"",""1"",""3710""
","
","
","""event"",""trial"",""time""
""fullscreenenter"",""1"",""3710""
","
",,null,run_exp/static/images/task_images/land.jpg,null,,,,,,,100,,,14,,,,,,,,,,,,,,
dig,207,682588,0.0-60.0-3.0,"""event"",""trial"",""time""
""fullscreenenter"",""1"",""3710""
","
","
","""event"",""trial"",""time""
""fullscreenenter"",""1"",""3710""
","
",,,,,,,,,,,,"[{""stimulus"":""run_exp/static/images/task_images/dig.jpg"",""time"":0.5},{""stimulus"":""run_exp/static/images/task_images/land.jpg"",""time"":683.1999999880791},{""stimulus"":""run_exp/static/images/task_images/dig.jpg"",""time"":1340}]",[],14,,,,,,,,,,,,,,
harvest,208,683603,0.0-60.0-4.0,"""event"",""trial"",""time""
""fullscreenenter"",""1"",""3710""
","
","
","""event"",""trial"",""time""
""fullscreenenter"",""1"",""3710""
","
",,null,run_exp/static/images/task_images/gems/100.jpg,null,,,,,,,26,,,14,,,,,100,0.264244506,0.26,,,,,,,
decision,209,683786,0.0-60.0-5.0,"""event"",""trial"",""time""
""fullscreenenter"",""1"",""3710""
","
","
","""event"",""trial"",""time""
""fullscreenenter"",""1"",""3710""
","
",,181.6,run_exp/static/images/task_images/land.jpg,65,,,,,,,26,,,14,,,,,,,,31261,2,0,FALSE,,,
dig,210,686605,0.0-61.0-0.0,"""event"",""trial"",""time""
""fullscreenenter"",""1"",""3710""
","
","
","""event"",""trial"",""time""
""fullscreenenter"",""1"",""3710""
","
",,,,,,,,,,,,"[{""stimulus"":""run_exp/static/images/task_images/dig.jpg"",""time"":0.10000000894069672},{""stimulus"":""run_exp/static/images/task_images/land.jpg"",""time"":952.5},{""stimulus"":""run_exp/static/images/task_images/dig.jpg"",""time"":1887.300000011921}]",[],14,,,,,,,,,,,,,,
harvest,211,687616,0.0-61.0-1.0,"""event"",""trial"",""time""
""fullscreenenter"",""1"",""3710""
","
","
","""event"",""trial"",""time""
""fullscreenenter"",""1"",""3710""
","
",,null,run_exp/static/images/task_images/gems/26.jpg,null,,,,,,,8,,,14,,,,,26,0.292039368,0.307692308,,,,,,,
decision,212,687951,0.0-61.0-2.0,"""event"",""trial"",""time""
""fullscreenenter"",""1"",""3710""
","
","
","""event"",""trial"",""time""
""fullscreenenter"",""1"",""3710""
","
",,333.8,run_exp/static/images/task_images/land.jpg,65,,,,,,,8,,,14,,,,,,,,35426,2,1,FALSE,,,
dig,213,690631,0.0-62.0-0.0,"""event"",""trial"",""time""
""fullscreenenter"",""1"",""3710""
","
","
","""event"",""trial"",""time""
""fullscreenenter"",""1"",""3710""
","
",,,,,,,,,,,,"[{""stimulus"":""run_exp/static/images/task_images/dig.jpg"",""time"":0.29999999701976776},{""stimulus"":""run_exp/static/images/task_images/land.jpg"",""time"":892.7999999970198},{""stimulus"":""run_exp/static/images/task_images/dig.jpg"",""time"":1780.4000000059605}]",[],14,,,,,,,,,,,,,,
harvest,214,691641,0.0-62.0-1.0,"""event"",""trial"",""time""
""fullscreenenter"",""1"",""3710""
","
","
","""event"",""trial"",""time""
""fullscreenenter"",""1"",""3710""
","
",,null,run_exp/static/images/task_images/gems/8.jpg,null,,,,,,,2,,,14,,,,,8,0.205499587,0.25,,,,,,,
decision,215,694648,0.0-62.0-2.0,"""event"",""trial"",""time""
""fullscreenenter"",""1"",""3710""
","
","
","""event"",""trial"",""time""
""fullscreenenter"",""1"",""3710""
","
",,null,run_exp/static/images/task_images/land.jpg,null,,,,,,,2,,,14,,,,,,,,42123,2,2,FALSE,,,
time_out,216,696662,0.0-63.0-0.0,"""event"",""trial"",""time""
""fullscreenenter"",""1"",""3710""
","
","
","""event"",""trial"",""time""
""fullscreenenter"",""1"",""3710""
","
",,null,run_exp/static/images/task_images/time_out.jpg,null,,,,,,,2,,,,,,,,,,,,,,,,,
decision,217,697019,0.0-63.0-1.0,"""event"",""trial"",""time""
""fullscreenenter"",""1"",""3710""
","
","
","""event"",""trial"",""time""
""fullscreenenter"",""1"",""3710""
","
",,356,run_exp/static/images/task_images/land.jpg,76,,,,,,,2,,,14,,,,,,,,44494,2,2,TRUE,,,
travel,218,706663,0.0-64.0-0.0,"""event"",""trial"",""time""
""fullscreenenter"",""1"",""3710""
","
","
","""event"",""trial"",""time""
""fullscreenenter"",""1"",""3710""
","
",,,,,,,,,,,,"[{""stimulus"":""run_exp/static/images/task_images/rocket-01.jpg"",""time"":0.20000000298023224},{""stimulus"":""run_exp/static/images/task_images/rocket-02.jpg"",""time"":1087.1000000089407},{""stimulus"":""run_exp/static/images/task_images/rocket-03.jpg"",""time"":2148.6000000089407},{""stimulus"":""run_exp/static/images/task_images/rocket-04.jpg"",""time"":3224.2000000029802},{""stimulus"":""run_exp/static/images/task_images/rocket-05.jpg"",""time"":4299.600000008941},{""stimulus"":""run_exp/static/images/task_images/rocket-06.jpg"",""time"":5359.70000000298},{""stimulus"":""run_exp/static/images/task_images/rocket-07.jpg"",""time"":6436.20000000298},{""stimulus"":""run_exp/static/images/task_images/rocket-08.jpg"",""time"":7510.800000011921},{""stimulus"":""run_exp/static/images/task_images/rocket-09.jpg"",""time"":8570}]",[],14,,,,,,,,,,,,,,
alien_welcome,219,711667,0.0-64.0-1.0,"""event"",""trial"",""time""
""fullscreenenter"",""1"",""3710""
","
","
","""event"",""trial"",""time""
""fullscreenenter"",""1"",""3710""
","
",,null,run_exp/static/images/task_images/aliens/old_aliens/planet/alien_planet-40.jpg,null,,,,,,,,,,,,,40,"80,15,77,36,33,17,29,47,31,68,58,75,9,49,40,18,37,14,26,39,71,2,35,78,22,23,66,64,30,10,4,74,16,54,63,5,7,48,69,38,27,6,67,51,70,34,24",,,,,,,,,,
land,220,712182,0.0-64.0-2.0,"""event"",""trial"",""time""
""fullscreenenter"",""1"",""3710""
","
","
","""event"",""trial"",""time""
""fullscreenenter"",""1"",""3710""
","
",,null,run_exp/static/images/task_images/land.jpg,null,,,,,,,104,,,15,,,,,,,,,,,,,,
dig,221,714192,0.0-64.0-3.0,"""event"",""trial"",""time""
""fullscreenenter"",""1"",""3710""
","
","
","""event"",""trial"",""time""
""fullscreenenter"",""1"",""3710""
","
",,,,,,,,,,,,"[{""stimulus"":""run_exp/static/images/task_images/dig.jpg"",""time"":0.29999999701976776},{""stimulus"":""run_exp/static/images/task_images/land.jpg"",""time"":670.7000000029802},{""stimulus"":""run_exp/static/images/task_images/dig.jpg"",""time"":1338.7999999970198}]",[],15,,,,,,,,,,,,,,
harvest,222,715194,0.0-64.0-4.0,"""event"",""trial"",""time""
""fullscreenenter"",""1"",""3710""
","
","
","""event"",""trial"",""time""
""fullscreenenter"",""1"",""3710""
","
",,null,run_exp/static/images/task_images/gems/104.jpg,null,,,,,,,17,,,15,,,,,104,0.165307727,0.163461538,,,,,,,
decision,223,715251,0.0-64.0-5.0,"""event"",""trial"",""time""
""fullscreenenter"",""1"",""3710""
","
","
","""event"",""trial"",""time""
""fullscreenenter"",""1"",""3710""
","
",,56.39999999,run_exp/static/images/task_images/land.jpg,65,,,,,,,17,,,15,,,,,,,,62726,2,0,FALSE,,,
dig,224,718201,0.0-65.0-0.0,"""event"",""trial"",""time""
""fullscreenenter"",""1"",""3710""
","
","
","""event"",""trial"",""time""
""fullscreenenter"",""1"",""3710""
","
",,,,,,,,,,,,"[{""stimulus"":""run_exp/static/images/task_images/dig.jpg"",""time"":0.20000000298023224},{""stimulus"":""run_exp/static/images/task_images/land.jpg"",""time"":984.2999999970198},{""stimulus"":""run_exp/static/images/task_images/dig.jpg"",""time"":1964.7000000029802}]",[],15,,,,,,,,,,,,,,
harvest,225,719209,0.0-65.0-1.0,"""event"",""trial"",""time""
""fullscreenenter"",""1"",""3710""
","
","
","""event"",""trial"",""time""
""fullscreenenter"",""1"",""3710""
","
",,null,run_exp/static/images/task_images/gems/17.jpg,null,,,,,,,3,,,15,,,,,17,0.185963095,0.176470588,,,,,,,
decision,226,719330,0.0-65.0-2.0,"""event"",""trial"",""time""
""fullscreenenter"",""1"",""3710""
","
","
","""event"",""trial"",""time""
""fullscreenenter"",""1"",""3710""
","
",,120.2,run_exp/static/images/task_images/land.jpg,76,,,,,,,3,,,15,,,,,,,,66805,2,1,TRUE,,,
travel,227,729209,0.0-66.0-0.0,"""event"",""trial"",""time""
""fullscreenenter"",""1"",""3710""
","
","
","""event"",""trial"",""time""
""fullscreenenter"",""1"",""3710""
","
",,,,,,,,,,,,"[{""stimulus"":""run_exp/static/images/task_images/rocket-01.jpg"",""time"":0.10000000894069672},{""stimulus"":""run_exp/static/images/task_images/rocket-02.jpg"",""time"":1104.9000000059605},{""stimulus"":""run_exp/static/images/task_images/rocket-03.jpg"",""time"":2209.800000011921},{""stimulus"":""run_exp/static/images/task_images/rocket-04.jpg"",""time"":3299.6000000089407},{""stimulus"":""run_exp/static/images/task_images/rocket-05.jpg"",""time"":4390.9000000059605},{""stimulus"":""run_exp/static/images/task_images/rocket-06.jpg"",""time"":5495.300000011921},{""stimulus"":""run_exp/static/images/task_images/rocket-07.jpg"",""time"":6588.100000008941},{""stimulus"":""run_exp/static/images/task_images/rocket-08.jpg"",""time"":7692.20000000298},{""stimulus"":""run_exp/static/images/task_images/rocket-09.jpg"",""time"":8783.10000000894}]",[],15,,,,,,,,,,,,,,
alien_welcome,228,734227,0.0-66.0-1.0,"""event"",""trial"",""time""
""fullscreenenter"",""1"",""3710""
","
","
","""event"",""trial"",""time""
""fullscreenenter"",""1"",""3710""
","
",,null,run_exp/static/images/task_images/aliens/old_aliens/planet/alien_planet-18.jpg,null,,,,,,,,,,,,,18,"80,15,77,36,33,17,29,47,31,68,58,75,9,49,40,18,37,14,26,39,71,2,35,78,22,23,66,64,30,10,4,74,16,54,63,5,7,48,69,38,27,6,67,51,70,34,24",,,,,,,,,,
land,229,734743,0.0-66.0-2.0,"""event"",""trial"",""time""
""fullscreenenter"",""1"",""3710""
","
","
","""event"",""trial"",""time""
""fullscreenenter"",""1"",""3710""
","
",,null,run_exp/static/images/task_images/land.jpg,null,,,,,,,91,,,16,,,,,,,,,,,,,,
dig,230,736758,0.0-66.0-3.0,"""event"",""trial"",""time""
""fullscreenenter"",""1"",""3710""
","
","
","""event"",""trial"",""time""
""fullscreenenter"",""1"",""3710""
","
",,,,,,,,,,,,"[{""stimulus"":""run_exp/static/images/task_images/dig.jpg"",""time"":0.30000001192092896},{""stimulus"":""run_exp/static/images/task_images/land.jpg"",""time"":673.6000000089407},{""stimulus"":""run_exp/static/images/task_images/dig.jpg"",""time"":1342.300000011921}]",[],16,,,,,,,,,,,,,,
harvest,231,737771,0.0-66.0-4.0,"""event"",""trial"",""time""
""fullscreenenter"",""1"",""3710""
","
","
","""event"",""trial"",""time""
""fullscreenenter"",""1"",""3710""
","
",,null,run_exp/static/images/task_images/gems/91.jpg,null,,,,,,,74,,,16,,,,,91,0.815643015,0.813186813,,,,,,,
decision,232,737950,0.0-66.0-5.0,"""event"",""trial"",""time""
""fullscreenenter"",""1"",""3710""
","
","
","""event"",""trial"",""time""
""fullscreenenter"",""1"",""3710""
","
",,176.6,run_exp/static/images/task_images/land.jpg,65,,,,,,,74,,,16,,,,,,,,85425,2,0,FALSE,,,
dig,233,740794,0.0-67.0-0.0,"""event"",""trial"",""time""
""fullscreenenter"",""1"",""3710""
","
","
","""event"",""trial"",""time""
""fullscreenenter"",""1"",""3710""
","
",,,,,,,,,,,,"[{""stimulus"":""run_exp/static/images/task_images/dig.jpg"",""time"":0.20000000298023224},{""stimulus"":""run_exp/static/images/task_images/land.jpg"",""time"":956.0999999940395},{""stimulus"":""run_exp/static/images/task_images/dig.jpg"",""time"":1891}]",[],16,,,,,,,,,,,,,,
harvest,234,741809,0.0-67.0-1.0,"""event"",""trial"",""time""
""fullscreenenter"",""1"",""3710""
","
","
","""event"",""trial"",""time""
""fullscreenenter"",""1"",""3710""
","
",,null,run_exp/static/images/task_images/gems/74.jpg,null,,,,,,,53,,,16,,,,,74,0.71570465,0.716216216,,,,,,,
decision,235,741863,0.0-67.0-2.0,"""event"",""trial"",""time""
""fullscreenenter"",""1"",""3710""
","
","
","""event"",""trial"",""time""
""fullscreenenter"",""1"",""3710""
","
",,53.5,run_exp/static/images/task_images/land.jpg,65,,,,,,,53,,,16,,,,,,,,89339,2,1,FALSE,,,
dig,236,744813,0.0-68.0-0.0,"""event"",""trial"",""time""
""fullscreenenter"",""1"",""3710""
","
","
","""event"",""trial"",""time""
""fullscreenenter"",""1"",""3710""
","
",,,,,,,,,,,,"[{""stimulus"":""run_exp/static/images/task_images/dig.jpg"",""time"":0.09999999403953552},{""stimulus"":""run_exp/static/images/task_images/land.jpg"",""time"":988.0999999940395},{""stimulus"":""run_exp/static/images/task_images/dig.jpg"",""time"":1968.2999999970198}]",[],16,,,,,,,,,,,,,,
harvest,237,745826,0.0-68.0-1.0,"""event"",""trial"",""time""
""fullscreenenter"",""1"",""3710""
","
","
","""event"",""trial"",""time""
""fullscreenenter"",""1"",""3710""
","
",,null,run_exp/static/images/task_images/gems/53.jpg,null,,,,,,,42,,,16,,,,,53,0.798020761,0.79245283,,,,,,,
decision,238,746113,0.0-68.0-2.0,"""event"",""trial"",""time""
""fullscreenenter"",""1"",""3710""
","
","
","""event"",""trial"",""time""
""fullscreenenter"",""1"",""3710""
","
",,285.8,run_exp/static/images/task_images/land.jpg,65,,,,,,,42,,,16,,,,,,,,93588,2,2,FALSE,,,
dig,239,748842,0.0-69.0-0.0,"""event"",""trial"",""time""
""fullscreenenter"",""1"",""3710""
","
","
","""event"",""trial"",""time""
