trial_type,trial_index,time_elapsed,internal_node_id,success,rt,stimulus,key_press,prompt,subject_id,age,gender,button_pressed,next_reward,animation_sequence,responses,planet,curr_prac_trial,n_prac_rounds,alien,aliens,reward_received,decay_rate_actual,decay_rate_exp,time_in_block,block_num,prt,last_trial_on_planet,button_html,bonus,num_failures
pavlovia,0,11,0.0-0.0,,,,,,,,,,,,,,,,,,,,,,,,,,,
fullscreen,1,4954,0.0-1.0,TRUE,,,,,,,,,,,,,,,,,,,,,,,,,,
instruc_welcome,2,14691,0.0-2.0,,null,run_exp/static/audio/clip_1_welcome.m4a,null,"<p>Howdy! In this experiment, you’ll be an explorer traveling through space to collect space treasure.</p><p>Your mission is to collect as much treasure as possible.</p><br><br><p><img src='run_exp/static/images/task_images/opening_img-01.jpg' height='300' width='auto'></p>",2hi174jGrAU95rG_a5Ke5UddwllDBGZ_MLRP_9EO8WHbvd7IZFUq,9.93,male,,,,,,,,,,,,,,,,,,,
audio-keyboard-response,3,31290,0.0-3.0,,null,run_exp/static/audio/clip_2_move.m4a,null,,,,,,,,,,,,,,,,,,,,,,,
welcome_dec,4,32523,0.0-4.0,,1229.8,"<p>Howdy! In this experiment, you’ll be an explorer traveling through space to collect space treasure.</p><p>Your mission is to collect as much treasure as possible.</p><br><br><p><img src='run_exp/static/images/task_images/opening_img-01.jpg' height='300' width='auto'></p>",,,,,,1,,,,,,,,,,,,,,,,,,
html-keyboard-response,5,33629,0.0-5.0,,1103.68,"<p>Howdy! In this experiment, you’ll be an explorer traveling through space to collect space treasure.</p><p>Your mission is to collect as much treasure as possible.</p><br><br><p><img src='run_exp/static/images/task_images/opening_img-01.jpg' height='300' width='auto'></p><button class=""jspsych-html-btn-unchosen""><img src=""run_exp/static/images/task_images/planet-01.jpg"" height=""50""></button><button class=""jspsych-html-btn-chosen""><img src=""run_exp/static/images/task_images/planet-02.jpg"" height=""50""></button><p><b>[press the space bar to lock in your answer]<b><br></p>",32,,,,,,,,,,,,,,,,,,,,,,,
instruc_goal,6,43690,0.0-6.0-0.0,,null,run_exp/static/audio/clip_3_goal.m4a,null,"<p> As a space explorer, you’ll visit different planets to dig for space treasure, these pink gems.</p> <p> The more treasure you dig up, the more bonus money you’ll win! </p><br><br><p><img src='run_exp/static/images/task_images/pink_gem.jpg' height='300' width='auto'></p>",,,,,,,,,,,,,,,,,,,,,,
instruc_goal,7,46142,0.0-6.0-1.0,,2448.83,"<p> As a space explorer, you’ll visit different planets to dig for space treasure, these pink gems.</p> <p> The more treasure you dig up, the more bonus money you’ll win! </p><br><br><p><img src='run_exp/static/images/task_images/pink_gem.jpg' height='300' width='auto'></p>",,,,,,1,,,,,,,,,,,,,,,,,,
html-keyboard-response,8,46570,0.0-6.0-2.0,,426.695,"<p> As a space explorer, you’ll visit different planets to dig for space treasure, these pink gems.</p> <p> The more treasure you dig up, the more bonus money you’ll win! </p><br><br><p><img src='run_exp/static/images/task_images/pink_gem.jpg' height='300' width='auto'></p><button class=""jspsych-html-btn-unchosen""><img src=""run_exp/static/images/task_images/planet-01.jpg"" height=""50""></button><button class=""jspsych-html-btn-chosen""><img src=""run_exp/static/images/task_images/planet-02.jpg"" height=""50""></button><p><b>[press the space bar to lock in your answer]<b><br></p>",32,,,,,,,,,,,,,,,,,,,,,,,
instruc_dig,9,62570,0.0-7.0-0.0,,null,run_exp/static/audio/clip_4_dig.m4a,null,,,,,,100,,,,,,,,,,,,,,,,,
instruc_dig_try,10,62951,0.0-7.0-1.0,,378.855,"<p> When you’ve arrived at a new planet, you will dig once. </p> <p>Then, you get to decide if you want to stay on the planet and dig again or travel to a new planet and dig there.</p> <p> To stay and dig, press the letter <strong>‘A’</strong> on your keyboard. Try pressing it now! </p><p><img src='run_exp/static/images/task_images/land.jpg'  height='700' width='auto'></p>",65,"<p> When you’ve arrived at a new planet, you will dig once. </p> <p>Then, you get to decide if you want to stay on the planet and dig again or travel to a new planet and dig there.</p> <p> To stay and dig, press the letter <strong>‘A’</strong> on your keyboard. Try pressing it now! </p><p><img src='run_exp/static/images/task_images/land.jpg'  height='700' width='auto'></p>",,,,,100,,,,,,,,,,,,,,,,,
dig_prac,11,64977,0.0-7.0-2.0,,,,,,,,,,,"[{""stimulus"":""run_exp/static/images/task_images/dig.jpg"",""time"":0.420000000303844},{""stimulus"":""run_exp/static/images/task_images/land.jpg"",""time"":936.7949999996199},{""stimulus"":""run_exp/static/images/task_images/dig.jpg"",""time"":1350.0750000002881}]",[],,,,,,,,,,,,,,,
instruc_travel,12,101230,0.0-7.0-3.0,,null,run_exp/static/audio/clip_5_travel.m4a,null,"<p>Every time you dig up gems, there are less gems on the planet, so the more you dig on a planet the fewer gems you’ll get with each dig.</p><p>When gems are running low, you may want to travel to a new planet. </p> <p>  Planets are very far apart in this galaxy, so it will take some time to travel between them. </p> <br><p>There are lots and lots of planets for you to visit, so you won’t be able to return to any planets you’ve seen before. </p><br><p>To leave this planet and travel to a new one, press the letter <strong>‘L’</strong> on your keyboard. Try pressing it now! </p><p><img src='run_exp/static/images/task_images/rocket-01.jpg'  height='600' width='auto'></p>",,,,,,,,,,,,,,,,,,,,,,
instruc_travel_try,13,101350,0.0-7.0-4.0,,118.95,"<p>Every time you dig up gems, there are less gems on the planet, so the more you dig on a planet the fewer gems you’ll get with each dig.</p><p>When gems are running low, you may want to travel to a new planet. </p> <p>  Planets are very far apart in this galaxy, so it will take some time to travel between them. </p> <br><p>There are lots and lots of planets for you to visit, so you won’t be able to return to any planets you’ve seen before. </p><br><p>To leave this planet and travel to a new one, press the letter <strong>‘L’</strong> on your keyboard. Try pressing it now! </p><p><img src='run_exp/static/images/task_images/rocket-01.jpg'  height='600' width='auto'></p>",76,"<p>Every time you dig up gems, there are less gems on the planet, so the more you dig on a planet the fewer gems you’ll get with each dig.</p><p>When gems are running low, you may want to travel to a new planet. </p> <p>  Planets are very far apart in this galaxy, so it will take some time to travel between them. </p> <br><p>There are lots and lots of planets for you to visit, so you won’t be able to return to any planets you’ve seen before. </p><br><p>To leave this planet and travel to a new one, press the letter <strong>‘L’</strong> on your keyboard. Try pressing it now! </p><p><img src='run_exp/static/images/task_images/rocket-01.jpg'  height='600' width='auto'></p>",,,,,,,,,,,,,,,,,,,,,,
travel_prac,14,111352,0.0-7.0-5.0,,,,,,,,,,,"[{""stimulus"":""run_exp/static/images/task_images/rocket-01.jpg"",""time"":0.2100000001664739},{""stimulus"":""run_exp/static/images/task_images/rocket-02.jpg"",""time"":1119.9200000001001},{""stimulus"":""run_exp/static/images/task_images/rocket-03.jpg"",""time"":2238.690000000148},{""stimulus"":""run_exp/static/images/task_images/rocket-04.jpg"",""time"":3342.9350000005797},{""stimulus"":""run_exp/static/images/task_images/rocket-05.jpg"",""time"":4455.565000000206},{""stimulus"":""run_exp/static/images/task_images/rocket-06.jpg"",""time"":5561.714999999822},{""stimulus"":""run_exp/static/images/task_images/rocket-07.jpg"",""time"":6678.615000000718},{""stimulus"":""run_exp/static/images/task_images/rocket-08.jpg"",""time"":7783.460000000574},{""stimulus"":""run_exp/static/images/task_images/rocket-09.jpg"",""time"":8900.64500000063}]",[],0,,,,,,,,,,,,,,
instruc_alien_greet,15,138530,0.0-7.0-6.0,,null,run_exp/static/audio/clip_6_alien.m4a,null,"<p>When you arrive at a new planet, the alien who owns the treasure mine on that planet will greet you!</p><p>The better an alien takes care of their mine the easier it is to dig for gems. Some aliens take better care of their mine than others. So, you won’t get exactly the same amount of gems on each planet.</p><p>What the alien looks like does not tell you anything about how many gems there are on the planet.</p><br><p><img src=""run_exp/static/images/task_images/aliens/instructions_aliens/planet/alien_planet-1.jpg""  height=""600"" width=""auto""></p>",,,,,,,,,,,,,,,,,,,,,,
instruc_alien_greet,16,145341,0.0-7.0-7.0,,6809.12,"<p>When you arrive at a new planet, the alien who owns the treasure mine on that planet will greet you!</p><p>The better an alien takes care of their mine the easier it is to dig for gems. Some aliens take better care of their mine than others. So, you won’t get exactly the same amount of gems on each planet.</p><p>What the alien looks like does not tell you anything about how many gems there are on the planet.</p><br><p><img src=""run_exp/static/images/task_images/aliens/instructions_aliens/planet/alien_planet-1.jpg""  height=""600"" width=""auto""></p>",,,,,,1,,,,,,,,,,,,,,,,,,
html-keyboard-response,17,145986,0.0-7.0-8.0,,642.465,"<p>When you arrive at a new planet, the alien who owns the treasure mine on that planet will greet you!</p><p>The better an alien takes care of their mine the easier it is to dig for gems. Some aliens take better care of their mine than others. So, you won’t get exactly the same amount of gems on each planet.</p><p>What the alien looks like does not tell you anything about how many gems there are on the planet.</p><br><p><img src=""run_exp/static/images/task_images/aliens/instructions_aliens/planet/alien_planet-1.jpg""  height=""600"" width=""auto""></p><button class=""jspsych-html-btn-unchosen""><img src=""run_exp/static/images/task_images/planet-01.jpg"" height=""50""></button><button class=""jspsych-html-btn-chosen""><img src=""run_exp/static/images/task_images/planet-02.jpg"" height=""50""></button><p><b>[press the space bar to lock in your answer]<b><br></p>",32,,,,,,,,,,,,,,,,,,,,,,,
time_out,18,157070,0.0-8.0-0.0,,null,run_exp/static/audio/clip_7_timeout.m4a,null,"<p>If you don't make your choice fast enough, you’ll have to wait a few seconds before you can make another one.</p><p>You can’t dig for more gems or travel to new planets. You just have to sit and wait.</p><br><p><img src='run_exp/static/images/task_images/time_out.jpg'  height='600' width='auto'></p>",,,,,,,,,,,,,,,,,,,,,,
time_out,19,159207,0.0-8.0-1.0,,2134.355,"<p>If you don't make your choice fast enough, you’ll have to wait a few seconds before you can make another one.</p><p>You can’t dig for more gems or travel to new planets. You just have to sit and wait.</p><br><p><img src='run_exp/static/images/task_images/time_out.jpg'  height='600' width='auto'></p>",,,,,,1,,,,,,,,,,,,,,,,,,
html-keyboard-response,20,159612,0.0-8.0-2.0,,403.6,"<p>If you don't make your choice fast enough, you’ll have to wait a few seconds before you can make another one.</p><p>You can’t dig for more gems or travel to new planets. You just have to sit and wait.</p><br><p><img src='run_exp/static/images/task_images/time_out.jpg'  height='600' width='auto'></p><button class=""jspsych-html-btn-unchosen""><img src=""run_exp/static/images/task_images/planet-01.jpg"" height=""50""></button><button class=""jspsych-html-btn-chosen""><img src=""run_exp/static/images/task_images/planet-02.jpg"" height=""50""></button><p><b>[press the space bar to lock in your answer]<b><br></p>",32,,,,,,,,,,,,,,,,,,,,,,,
instruc_break,21,175289,0.0-9.0-0.0,,null,run_exp/static/audio/clip_8_break.m4a,null,"<p> After digging and traveling for a while, you’ll be able to take a break at home base. </p><p>The game will last 20 minutes no matter what.</p><p>You will visit home base every 5 minutes, so, you will visit home base three times during the game.</p><br><p><img src='run_exp/static/images/task_images/home_base.jpg' height='600' width='auto'></p>",,,,,,,,,,,,,,,,,,,,,,
instruc_break,22,178578,0.0-9.0-1.0,,3286.185,"<p> After digging and traveling for a while, you’ll be able to take a break at home base. </p><p>The game will last 20 minutes no matter what.</p><p>You will visit home base every 5 minutes, so, you will visit home base three times during the game.</p><br><p><img src='run_exp/static/images/task_images/home_base.jpg' height='600' width='auto'></p>",,,,,,1,,,,,,,,,,,,,,,,,,
html-keyboard-response,23,179400,0.0-9.0-2.0,,820.675,"<p> After digging and traveling for a while, you’ll be able to take a break at home base. </p><p>The game will last 20 minutes no matter what.</p><p>You will visit home base every 5 minutes, so, you will visit home base three times during the game.</p><br><p><img src='run_exp/static/images/task_images/home_base.jpg' height='600' width='auto'></p><button class=""jspsych-html-btn-unchosen""><img src=""run_exp/static/images/task_images/planet-01.jpg"" height=""50""></button><button class=""jspsych-html-btn-chosen""><img src=""run_exp/static/images/task_images/planet-02.jpg"" height=""50""></button><p><b>[press the space bar to lock in your answer]<b><br></p>",32,,,,,,,,,,,,,,,,,,,,,,,
instruc_prac_game,24,189530,0.0-10.0-0.0,,null,run_exp/static/audio/clip_9_practice.m4a,null,"<p> Are you ready to play a practice game? </p> <p>In this practice game, you'll be digging up barrels of gems. But, in the real game, you'll be digging up the gems themselves. </p>",,,,,,,,,,,,,,,,,,,,,,
html-button-response,25,192056,0.0-10.0-1.0,,2523.995,"<p> Are you ready to play a practice game? </p> <p>In this practice game, you'll be digging up barrels of gems. But, in the real game, you'll be digging up the gems themselves. </p>",,,,,,0,,,,,,,,,,,,,,,,,,
alien_welcome_prac,26,197060,0.0-11.0-0.0,,null,run_exp/static/images/task_images/aliens/practice_aliens/planet/alien_planet-5.jpg,null,,,,,,,,,,,,,,,,,,,,,,,
land_prac,27,197563,0.0-11.0-1.0,,null,run_exp/static/images/task_images/land.jpg,null,,,,,,97,,,0,,,,,,,,,,,,,,
dig_prac,28,199570,0.0-11.0-2.0,,,,,,,,,,,"[{""stimulus"":""run_exp/static/images/task_images/dig.jpg"",""time"":0.21500000002561137},{""stimulus"":""run_exp/static/images/task_images/land.jpg"",""time"":668.6600000002654},{""stimulus"":""run_exp/static/images/task_images/dig.jpg"",""time"":1335.7999999998137}]",[],,,,,,,,,,,,,,,
harvest_prac,29,200571,0.0-11.0-3.0,,null,run_exp/static/images/task_images/barrel_text.jpg,null,,,,,,,,,,,,,,,,,,,,,,,
decision_prac,30,203582,0.0-11.0-4.0,,null,run_exp/static/images/task_images/land.jpg,null,,,,,,,,,,1,,,,,,,,,,,,,
time_out,31,205586,0.0-12.0-0.0,,null,run_exp/static/images/task_images/time_out.jpg,null,,,,,,,,,,,,,,,,,,,,,,,
decision_prac,32,206865,0.0-12.0-1.0,,1277.805,run_exp/static/images/task_images/land.jpg,65,,,,,,,,,,2,,,,,,,,,,,,,
dig_prac,33,208875,0.0-13.0-0.0,,,,,,,,,,,"[{""stimulus"":""run_exp/static/images/task_images/dig.jpg"",""time"":0.15499999970779754},{""stimulus"":""run_exp/static/images/task_images/land.jpg"",""time"":668.5850000003411},{""stimulus"":""run_exp/static/images/task_images/dig.jpg"",""time"":1337.0150000000722}]",[],,,,,,,,,,,,,,,
harvest_prac,34,209877,0.0-13.0-1.0,,null,run_exp/static/images/task_images/barrel_text.jpg,null,,,,,,,,,,,,,,,,,,,,,,,
decision_prac,35,211099,0.0-13.0-2.0,,1220.98,run_exp/static/images/task_images/land.jpg,65,,,,,,,,,,3,,,,,,,,,,,,,
dig_prac,36,213109,0.0-14.0-0.0,,,,,,,,,,,"[{""stimulus"":""run_exp/static/images/task_images/dig.jpg"",""time"":0.14999999984866008},{""stimulus"":""run_exp/static/images/task_images/land.jpg"",""time"":683.2600000007078},{""stimulus"":""run_exp/static/images/task_images/dig.jpg"",""time"":1338.7950000005658}]",[],,,,,,,,,,,,,,,
harvest_prac,37,214119,0.0-14.0-1.0,,null,run_exp/static/images/task_images/barrel_text.jpg,null,,,,,,,,,,,,,,,,,,,,,,,
decision_prac,38,214861,0.0-14.0-2.0,,741.06,run_exp/static/images/task_images/land.jpg,65,,,,,,,,,,4,,,,,,,,,,,,,
dig_prac,39,216869,0.0-15.0-0.0,,,,,,,,,,,"[{""stimulus"":""run_exp/static/images/task_images/dig.jpg"",""time"":0.1600000005273614},{""stimulus"":""run_exp/static/images/task_images/land.jpg"",""time"":672.6500000004307},{""stimulus"":""run_exp/static/images/task_images/dig.jpg"",""time"":1338.5299999999988}]",[],,,,,,,,,,,,,,,
harvest_prac,40,217875,0.0-15.0-1.0,,null,run_exp/static/images/task_images/barrel_text.jpg,null,,,,,,,,,,,,,,,,,,,,,,,
decision_prac,41,218687,0.0-15.0-2.0,,810.795,run_exp/static/images/task_images/land.jpg,65,,,,,,,,,,,1,,,,,,,,,,,,
quiz_instruc,42,224435,0.0-16.0-0.0,,5744.83,run_exp/static/audio/clip_10_quiz.m4a,,,,,,0,,,,,,,,,,,,,,,,,,
instruc_repeat,43,267209,0.0-16.0-1.0,,null,"<p> Are you ready to play a practice game? </p> <p>In this practice game, you'll be digging up barrels of gems. But, in the real game, you'll be digging up the gems themselves. </p>",null,"<p>In this game, your goal is to collect as many gems as you can. That’s how you will win bonus money. </p> <p>The entire game will last 20 minutes no matter how many gems you collect or how many planets you visit. </p><p>To stay on a planet and dig again, press the letter A on your keyboard. To leave for a new planet, press the letter L.</p><p>The more you dig on a planet, the fewer gems you’ll get with each dig which is why you might consider leaving for a new planet. </p><p>When you arrive at a new planet, you’ll be greeted by an alien. What the alien looks like does not tell you anything about how much treasure is on the planet. </p>",,,,,,,,,,,,,,,,,,,,,,
instruc_repeat_continue,44,269671,0.0-16.0-2.0,,2461.135,"<p> Are you ready to play a practice game? </p> <p>In this practice game, you'll be digging up barrels of gems. But, in the real game, you'll be digging up the gems themselves. </p>",,,,,,0,,,,,,,,,,,,,,,,,,
quiz_q_1_ask,45,273776,0.0-16.0-3.0,,4103.315,run_exp/static/audio/clip_11_q1_ask.m4a,,,,,,2,,,,,,,,,,,,,,,,,,
quiz_q_1_fb_correct,46,277629,0.0-17.0-0.0,,null,run_exp/static/audio/clip_12_q1_corrrect.m4a,null,<p>That’s correct. You win extra money by collecting more gems.</p>,,,,,,,,,,,,,,,,,,,,,,
quiz_q_2_ask,47,280580,0.0-17.0-1.0,,2949.47,run_exp/static/audio/clip_14_q2_ask.m4a,,,,,,1,,,,,,,,,,,,,,,,,,
quiz_q_2_fb_correct,48,284589,0.0-18.0-0.0,,null,run_exp/static/audio/clip_15_q2_correct.m4a,null,<p>That’s correct. The experiment is 20 minutes no matter what.</p>,,,,,,,,,,,,,,,,,,,,,,
quiz_q_3_ask,49,288020,0.0-18.0-1.0,,3429.285,run_exp/static/audio/clip_17_q3_ask.m4a,,,,,,1,,,,,,,,,,,,,,,,,,
quiz_q_3_fb_correct,50,292008,0.0-19.0-0.0,,null,run_exp/static/audio/clip_18_q3_correct.m4a,null,<p> That’s correct. You press the letter L to travel to a new planet.</p>,,,,,,,,,,,,,,,,,,,,,,
quiz_q_4_ask,51,295469,0.0-19.0-1.0,,3458.37,run_exp/static/audio/clip_20_q4_ask.m4a,,,,,,1,,,,,,,,,,,,,,,,,,
quiz_q_4_fb_incorrect,52,301268,0.0-20.0-0.0,,null,run_exp/static/audio/clip_22_q4_incorrect.m4a,null,<p>That’s incorrect.  The more you dig on a planet the fewer gems you’ll get with each dig.</p>,,,,,,,,,,,,,,,,,,,,,,
quiz_q_5_ask,53,305662,0.0-20.0-1.0,,4391.03,run_exp/static/audio/clip_23_q5_ask.m4a,,,,,,1,,,,,,,,,,,,,,,,,,
quiz_q_5_fb_correct,54,310668,0.0-21.0-0.0,,null,run_exp/static/audio/clip_24_q5_correct.m4a,null,<p> That’s correct. The alien tells you nothing about how much treasure is on the planet.</p>,,,,,,,,,,,,,,,,,,,,,,
quiz_incorrect,55,316208,0.0-22.0-0.0,,null,run_exp/static/audio/clip_27_incorrect_quiz.m4a,null,,,,,,,,,,,,,,,,,,,,,,,
quiz_incorrect_continue,56,317166,0.0-22.0-1.0,,956.26,"<p>Oops, you missed some questions.</p><p>Now that you’ve heard the correct answers. Try the quiz again!</p>",,,,,,0,,,,,,,,,,,,,,,,,,
quiz_q_1_ask,57,319973,0.0-22.0-2.0,,2804.055,run_exp/static/audio/clip_11_q1_ask.m4a,,,,,,2,,,,,,,,,,,,,,,,,,
quiz_q_1_fb_correct,58,323828,0.0-23.0-0.0,,null,run_exp/static/audio/clip_12_q1_corrrect.m4a,null,<p>That’s correct. You win extra money by collecting more gems.</p>,,,,,,,,,,,,,,,,,,,,,,
quiz_q_2_ask,59,326649,0.0-23.0-1.0,,2819.275,run_exp/static/audio/clip_14_q2_ask.m4a,,,,,,1,,,,,,,,,,,,,,,,,,
quiz_q_2_fb_correct,60,330668,0.0-24.0-0.0,,null,run_exp/static/audio/clip_15_q2_correct.m4a,null,<p>That’s correct. The experiment is 20 minutes no matter what.</p>,,,,,,,,,,,,,,,,,,,,,,
quiz_q_3_ask,61,336296,0.0-24.0-1.0,,5625.73,run_exp/static/audio/clip_17_q3_ask.m4a,,,,,,1,,,,,,,,,,,,,,,,,,
quiz_q_3_fb_correct,62,340289,0.0-25.0-0.0,,null,run_exp/static/audio/clip_18_q3_correct.m4a,null,<p> That’s correct. You press the letter L to travel to a new planet.</p>,,,,,,,,,,,,,,,,,,,,,,
quiz_q_4_ask,63,344206,0.0-25.0-1.0,,3914.99,run_exp/static/audio/clip_20_q4_ask.m4a,,,,,,0,,,,,,,,,,,,,,,,,,
quiz_q_4_fb_correct,64,349528,0.0-26.0-0.0,,null,run_exp/static/audio/clip_21_q4_correct.m4a,null,<p> That’s correct. The more you dig on a planet the fewer gems you’ll get with each dig. </p>,,,,,,,,,,,,,,,,,,,,,,
quiz_q_5_ask,65,352342,0.0-26.0-1.0,,2811.28,run_exp/static/audio/clip_23_q5_ask.m4a,,,,,,1,,,,,,,,,,,,,,,,,,
quiz_q_5_fb_correct,66,357349,0.0-27.0-0.0,,null,run_exp/static/audio/clip_24_q5_correct.m4a,null,<p> That’s correct. The alien tells you nothing about how much treasure is on the planet.</p>,,,,,,,,,,,,,,,,,,,,,,
quiz_correct,67,360808,0.0-28.0-0.0,,null,run_exp/static/audio/clip_26_correct_quiz.m4a,null,,,,,,,,,,,,,,,,,,,,,,,
quiz_correct_continue,68,362529,0.0-28.0-1.0,,1719.735,<p>Good job! You're now ready to move on to the real game!</p>,,,,,,0,,,,,,,,,,,,,,,,,,
audio-keyboard-response,69,372648,0.0-28.0-2.0,,null,run_exp/static/audio/clip_28_real_game.m4a,null,,,,,,,,,,,,,,,,,,,,,,,
instruc_begin_exp_contine,70,374372,0.0-28.0-3.0,,1719.635,"<p>Now that you know how  to dig for space treasure and travel to new planets,you can start exploring! </p><p>Do you want to go over the instructions again or get started with the real game?</p>",,,,,,1,,,,,,1,,,,,,,,,,,,
alien_welcome,71,379376,0.0-29.0-0.0,,null,run_exp/static/images/task_images/aliens/old_aliens/planet/alien_planet-43.jpg,null,,,,,,,,,,,,43,"43,3,55,44,74,24,18,4,56,39,64,49,25,62,2,11,59,73,50,40,15,31,22,66,42,69,52,20,38,48,8,61,35,27,33,41,76,1,37",,,,,,,,,,
land,72,379878,0.0-29.0-1.0,,null,run_exp/static/images/task_images/land.jpg,null,,,,,,107,,,1,,,,,,,,,,,,,,
dig,73,381881,0.0-29.0-2.0,,,,,,,,,,,"[{""stimulus"":""run_exp/static/images/task_images/dig.jpg"",""time"":0.21500000002561137},{""stimulus"":""run_exp/static/images/task_images/land.jpg"",""time"":673.1700000000419},{""stimulus"":""run_exp/static/images/task_images/dig.jpg"",""time"":1342.8649999996414}]",[],1,,,,,,,,,,,,,,
harvest,74,382901,0.0-29.0-3.0,,null,run_exp/static/images/task_images/gems/107.jpg,null,,,,,,15,,,1,,,,,107,0.138508608,0.140186916,,,,,,,
decision,75,385904,0.0-29.0-4.0,,null,run_exp/static/images/task_images/land.jpg,null,,,,,,15,,,1,,,,,,,,11530,1,0,FALSE,,,
time_out,76,387922,0.0-30.0-0.0,,null,run_exp/static/images/task_images/time_out.jpg,null,,,,,,15,,,,,,,,,,,,,,,,,
decision,77,388740,0.0-30.0-1.0,,816.875,run_exp/static/images/task_images/land.jpg,65,,,,,,15,,,1,,,,,,,,14366,1,0,FALSE,,,
dig,78,390928,0.0-31.0-0.0,,,,,,,,,,,"[{""stimulus"":""run_exp/static/images/task_images/dig.jpg"",""time"":0.17999999999301508},{""stimulus"":""run_exp/static/images/task_images/land.jpg"",""time"":728.3849999994854},{""stimulus"":""run_exp/static/images/task_images/dig.jpg"",""time"":1468.7049999993178}]",[],1,,,,,,,,,,,,,,
harvest,79,391958,0.0-31.0-1.0,,null,run_exp/static/images/task_images/gems/15.jpg,null,,,,,,3,,,1,,,,,15,0.214533484,0.2,,,,,,,
decision,80,392964,0.0-31.0-2.0,,1004.79,run_exp/static/images/task_images/land.jpg,76,,,,,,3,,,1,,,,,,,,18590,1,1,TRUE,,,
travel,81,401960,0.0-32.0-0.0,,,,,,,,,,,"[{""stimulus"":""run_exp/static/images/task_images/rocket-01.jpg"",""time"":0.16500000038649887},{""stimulus"":""run_exp/static/images/task_images/rocket-02.jpg"",""time"":1013.5749999999534},{""stimulus"":""run_exp/static/images/task_images/rocket-03.jpg"",""time"":2007.4949999998207},{""stimulus"":""run_exp/static/images/task_images/rocket-04.jpg"",""time"":3004.6250000004657},{""stimulus"":""run_exp/static/images/task_images/rocket-05.jpg"",""time"":3997.710000000545},{""stimulus"":""run_exp/static/images/task_images/rocket-06.jpg"",""time"":5004.4900000002235},{""stimulus"":""run_exp/static/images/task_images/rocket-07.jpg"",""time"":6000.560000000405},{""stimulus"":""run_exp/static/images/task_images/rocket-08.jpg"",""time"":6996.255000000005},{""stimulus"":""run_exp/static/images/task_images/rocket-09.jpg"",""time"":8007.110000000452}]",[],1,,,,,,,,,,,,,,
alien_welcome,82,406963,0.0-32.0-1.0,,null,run_exp/static/images/task_images/aliens/old_aliens/planet/alien_planet-3.jpg,null,,,,,,,,,,,,3,"43,3,55,44,74,24,18,4,56,39,64,49,25,62,2,11,59,73,50,40,15,31,22,66,42,69,52,20,38,48,8,61,35,27,33,41,76,1,37",,,,,,,,,,
land,83,407471,0.0-32.0-2.0,,null,run_exp/static/images/task_images/land.jpg,null,,,,,,102,,,2,,,,,,,,,,,,,,
dig,84,409476,0.0-32.0-3.0,,,,,,,,,,,"[{""stimulus"":""run_exp/static/images/task_images/dig.jpg"",""time"":0.21500000002561137},{""stimulus"":""run_exp/static/images/task_images/land.jpg"",""time"":669.0900000003166},{""stimulus"":""run_exp/static/images/task_images/dig.jpg"",""time"":1336.2850000003236}]",[],2,,,,,,,,,,,,,,
harvest,85,410625,0.0-32.0-4.0,,null,run_exp/static/images/task_images/gems/102.jpg,null,,,,,,25,,,2,,,,,102,0.248910106,0.245098039,,,,,,,
decision,86,410833,0.0-32.0-5.0,,205.735,run_exp/static/images/task_images/land.jpg,65,,,,,,25,,,2,,,,,,,,36459,1,0,FALSE,,,
dig,87,413632,0.0-33.0-0.0,,,,,,,,,,,"[{""stimulus"":""run_exp/static/images/task_images/dig.jpg"",""time"":0.27500000031432137},{""stimulus"":""run_exp/static/images/task_images/land.jpg"",""time"":939.0400000002119},{""stimulus"":""run_exp/static/images/task_images/dig.jpg"",""time"":1870.0200000002515}]",[],2,,,,,,,,,,,,,,
harvest,88,414646,0.0-33.0-1.0,,null,run_exp/static/images/task_images/gems/25.jpg,null,,,,,,4,,,2,,,,,25,0.179128321,0.16,,,,,,,
decision,89,417663,0.0-33.0-2.0,,null,run_exp/static/images/task_images/land.jpg,null,,,,,,4,,,2,,,,,,,,43289,1,1,FALSE,,,
time_out,90,419671,0.0-34.0-0.0,,null,run_exp/static/images/task_images/time_out.jpg,null,,,,,,4,,,,,,,,,,,,,,,,,
decision,91,420294,0.0-34.0-1.0,,621.405,run_exp/static/images/task_images/land.jpg,65,,,,,,4,,,2,,,,,,,,45920,1,1,FALSE,,,
dig,92,422685,0.0-35.0-0.0,,,,,,,,,,,"[{""stimulus"":""run_exp/static/images/task_images/dig.jpg"",""time"":0.1750000001047738},{""stimulus"":""run_exp/static/images/task_images/land.jpg"",""time"":801.8000000002212},{""stimulus"":""run_exp/static/images/task_images/dig.jpg"",""time"":1594.8200000002398}]",[],2,,,,,,,,,,,,,,
harvest,93,423687,0.0-35.0-1.0,,null,run_exp/static/images/task_images/gems/4.jpg,null,,,,,,1,,,2,,,,,4,0.200352911,0.25,,,,,,,
decision,94,425078,0.0-35.0-2.0,,1388.18,run_exp/static/images/task_images/land.jpg,76,,,,,,1,,,2,,,,,,,,50704,1,2,TRUE,,,
travel,95,433691,0.0-36.0-0.0,,,,,,,,,,,"[{""stimulus"":""run_exp/static/images/task_images/rocket-01.jpg"",""time"":0.16000000049825758},{""stimulus"":""run_exp/static/images/task_images/rocket-02.jpg"",""time"":959.1350000000675},{""stimulus"":""run_exp/static/images/task_images/rocket-03.jpg"",""time"":1922.2500000005239},{""stimulus"":""run_exp/static/images/task_images/rocket-04.jpg"",""time"":2869.9650000007823},{""stimulus"":""run_exp/static/images/task_images/rocket-05.jpg"",""time"":3835.1849999999395},{""stimulus"":""run_exp/static/images/task_images/rocket-06.jpg"",""time"":4781.150000000722},{""stimulus"":""run_exp/static/images/task_images/rocket-07.jpg"",""time"":5741.600000000268},{""stimulus"":""run_exp/static/images/task_images/rocket-08.jpg"",""time"":6702.185000000114},{""stimulus"":""run_exp/static/images/task_images/rocket-09.jpg"",""time"":7663.600000000792}]",[],2,,,,,,,,,,,,,,
alien_welcome,96,438693,0.0-36.0-1.0,,null,run_exp/static/images/task_images/aliens/old_aliens/planet/alien_planet-55.jpg,null,,,,,,,,,,,,55,"43,3,55,44,74,24,18,4,56,39,64,49,25,62,2,11,59,73,50,40,15,31,22,66,42,69,52,20,38,48,8,61,35,27,33,41,76,1,37",,,,,,,,,,
land,97,439205,0.0-36.0-2.0,,null,run_exp/static/images/task_images/land.jpg,null,,,,,,97,,,3,,,,,,,,,,,,,,
dig,98,441217,0.0-36.0-3.0,,,,,,,,,,,"[{""stimulus"":""run_exp/static/images/task_images/dig.jpg"",""time"":0.21500000002561137},{""stimulus"":""run_exp/static/images/task_images/land.jpg"",""time"":669.295000000624},{""stimulus"":""run_exp/static/images/task_images/dig.jpg"",""time"":1341.37999999983}]",[],3,,,,,,,,,,,,,,
harvest,99,442218,0.0-36.0-4.0,,null,run_exp/static/images/task_images/gems/97.jpg,null,,,,,,43,,,3,,,,,97,0.442848731,0.443298969,,,,,,,
decision,100,442259,0.0-36.0-5.0,,39.75,run_exp/static/images/task_images/land.jpg,65,,,,,,43,,,3,,,,,,,,67885,1,0,FALSE,,,
dig,101,445232,0.0-37.0-0.0,,,,,,,,,,,"[{""stimulus"":""run_exp/static/images/task_images/dig.jpg"",""time"":0.1550000006100163},{""stimulus"":""run_exp/static/images/task_images/land.jpg"",""time"":1002.7600000003004},{""stimulus"":""run_exp/static/images/task_images/dig.jpg"",""time"":1978.5250000004307}]",[],3,,,,,,,,,,,,,,
harvest,102,446234,0.0-37.0-1.0,,null,run_exp/static/images/task_images/gems/43.jpg,null,,,,,,24,,,3,,,,,43,0.555660805,0.558139535,,,,,,,
decision,103,446327,0.0-37.0-2.0,,91.65,run_exp/static/images/task_images/land.jpg,65,,,,,,24,,,3,,,,,,,,71953,1,1,FALSE,,,
dig,104,449252,0.0-38.0-0.0,,,,,,,,,,,"[{""stimulus"":""run_exp/static/images/task_images/dig.jpg"",""time"":0.14999999984866008},{""stimulus"":""run_exp/static/images/task_images/land.jpg"",""time"":979.5049999993062},{""stimulus"":""run_exp/static/images/task_images/dig.jpg"",""time"":1945.9099999994505}]",[],3,,,,,,,,,,,,,,
harvest,105,450253,0.0-38.0-1.0,,null,run_exp/static/images/task_images/gems/24.jpg,null,,,,,,11,,,3,,,,,24,0.447027404,0.458333333,,,,,,,
decision,106,452919,0.0-38.0-2.0,,2663.575,run_exp/static/images/task_images/land.jpg,76,,,,,,11,,,3,,,,,,,,78545,1,2,TRUE,,,
travel,107,460258,0.0-39.0-0.0,,,,,,,,,,,"[{""stimulus"":""run_exp/static/images/task_images/rocket-01.jpg"",""time"":0.18000000005122274},{""stimulus"":""run_exp/static/images/task_images/rocket-02.jpg"",""time"":826.2000000004191},{""stimulus"":""run_exp/static/images/task_images/rocket-03.jpg"",""time"":1635.7750000006636},{""stimulus"":""run_exp/static/images/task_images/rocket-04.jpg"",""time"":2457.2050000006566},{""stimulus"":""run_exp/static/images/task_images/rocket-05.jpg"",""time"":3263.4400000006426},{""stimulus"":""run_exp/static/images/task_images/rocket-06.jpg"",""time"":4086.895000000368},{""stimulus"":""run_exp/static/images/task_images/rocket-07.jpg"",""time"":4894.54000000027},{""stimulus"":""run_exp/static/images/task_images/rocket-08.jpg"",""time"":5713.655000000494},{""stimulus"":""run_exp/static/images/task_images/rocket-09.jpg"",""time"":6520.954999999958}]",[],3,,,,,,,,,,,,,,
alien_welcome,108,465272,0.0-39.0-1.0,,null,run_exp/static/images/task_images/aliens/old_aliens/planet/alien_planet-44.jpg,null,,,,,,,,,,,,44,"43,3,55,44,74,24,18,4,56,39,64,49,25,62,2,11,59,73,50,40,15,31,22,66,42,69,52,20,38,48,8,61,35,27,33,41,76,1,37",,,,,,,,,,
land,109,465782,0.0-39.0-2.0,,null,run_exp/static/images/task_images/land.jpg,null,,,,,,110,,,4,,,,,,,,,,,,,,
dig,110,467791,0.0-39.0-3.0,,,,,,,,,,,"[{""stimulus"":""run_exp/static/images/task_images/dig.jpg"",""time"":0.3600000000442378},{""stimulus"":""run_exp/static/images/task_images/land.jpg"",""time"":669.9950000002282},{""stimulus"":""run_exp/static/images/task_images/dig.jpg"",""time"":1336.6850000002305}]",[],4,,,,,,,,,,,,,,
harvest,111,468797,0.0-39.0-4.0,,null,run_exp/static/images/task_images/gems/110.jpg,null,,,,,,58,,,4,,,,,110,0.527635807,0.527272727,,,,,,,
decision,112,468943,0.0-39.0-5.0,,142.55,run_exp/static/images/task_images/land.jpg,65,,,,,,58,,,4,,,,,,,,94569,1,0,FALSE,,,
dig,113,471812,0.0-40.0-0.0,,,,,,,,,,,"[{""stimulus"":""run_exp/static/images/task_images/dig.jpg"",""time"":0.1449999999604188},{""stimulus"":""run_exp/static/images/task_images/land.jpg"",""time"":954.2449999998789},{""stimulus"":""run_exp/static/images/task_images/dig.jpg"",""time"":1904.9150000000373}]",[],4,,,,,,,,,,,,,,
harvest,114,472813,0.0-40.0-1.0,,null,run_exp/static/images/task_images/gems/58.jpg,null,,,,,,33,,,4,,,,,58,0.566494418,0.568965517,,,,,,,
decision,115,473832,0.0-40.0-2.0,,1017.92,run_exp/static/images/task_images/land.jpg,65,,,,,,33,,,4,,,,,,,,99458,1,1,FALSE,,,
dig,116,475819,0.0-41.0-0.0,,,,,,,,,,,"[{""stimulus"":""run_exp/static/images/task_images/dig.jpg"",""time"":0.14999999984866008},{""stimulus"":""run_exp/static/images/task_images/land.jpg"",""time"":666.1749999994063},{""stimulus"":""run_exp/static/images/task_images/dig.jpg"",""time"":1333.7700000001932}]",[],4,,,,,,,,,,,,,,
harvest,117,476823,0.0-41.0-1.0,,null,run_exp/static/images/task_images/gems/33.jpg,null,,,,,,19,,,4,,,,,33,0.564695075,0.575757576,,,,,,,
decision,118,477205,0.0-41.0-2.0,,380.415,run_exp/static/images/task_images/land.jpg,65,,,,,,19,,,4,,,,,,,,102831,1,2,FALSE,,,
dig,119,479841,0.0-42.0-0.0,,,,,,,,,,,"[{""stimulus"":""run_exp/static/images/task_images/dig.jpg"",""time"":0.1550000006100163},{""stimulus"":""run_exp/static/images/task_images/land.jpg"",""time"":876.5300000004354},{""stimulus"":""run_exp/static/images/task_images/dig.jpg"",""time"":1749.8750000004075}]",[],4,,,,,,,,,,,,,,
harvest,120,480847,0.0-42.0-1.0,,null,run_exp/static/images/task_images/gems/19.jpg,null,,,,,,9,,,4,,,,,19,0.462439824,0.473684211,,,,,,,
decision,121,482271,0.0-42.0-2.0,,1423.09,run_exp/static/images/task_images/land.jpg,76,,,,,,9,,,4,,,,,,,,107897,1,3,TRUE,,,
travel,122,490846,0.0-43.0-0.0,,,,,,,,,,,"[{""stimulus"":""run_exp/static/images/task_images/rocket-01.jpg"",""time"":0.14500000001862645},{""stimulus"":""run_exp/static/images/task_images/rocket-02.jpg"",""time"":966.7399999998743},{""stimulus"":""run_exp/static/images/task_images/rocket-03.jpg"",""time"":1904.9850000001607},{""stimulus"":""run_exp/static/images/task_images/rocket-04.jpg"",""time"":2858.500000000291},{""stimulus"":""run_exp/static/images/task_images/rocket-05.jpg"",""time"":3821.6199999997625},{""stimulus"":""run_exp/static/images/task_images/rocket-06.jpg"",""time"":4767.809999999416},{""stimulus"":""run_exp/static/images/task_images/rocket-07.jpg"",""time"":5715.145000000135},{""stimulus"":""run_exp/static/images/task_images/rocket-08.jpg"",""time"":6665.274999999441},{""stimulus"":""run_exp/static/images/task_images/rocket-09.jpg"",""time"":7625.229999999632}]",[],4,,,,,,,,,,,,,,
alien_welcome,123,495848,0.0-43.0-1.0,,null,run_exp/static/images/task_images/aliens/old_aliens/planet/alien_planet-74.jpg,null,,,,,,,,,,,,74,"43,3,55,44,74,24,18,4,56,39,64,49,25,62,2,11,59,73,50,40,15,31,22,66,42,69,52,20,38,48,8,61,35,27,33,41,76,1,37",,,,,,,,,,
land,124,496356,0.0-43.0-2.0,,null,run_exp/static/images/task_images/land.jpg,null,,,,,,98,,,5,,,,,,,,,,,,,,
dig,125,498360,0.0-43.0-3.0,,,,,,,,,,,"[{""stimulus"":""run_exp/static/images/task_images/dig.jpg"",""time"":0.21500000008381903},{""stimulus"":""run_exp/static/images/task_images/land.jpg"",""time"":668.5900000003166},{""stimulus"":""run_exp/static/images/task_images/dig.jpg"",""time"":1350.3399999999674}]",[],5,,,,,,,,,,,,,,
harvest,126,499363,0.0-43.0-4.0,,null,run_exp/static/images/task_images/gems/98.jpg,null,,,,,,53,,,5,,,,,98,0.538289852,0.540816327,,,,,,,
decision,127,500055,0.0-43.0-5.0,,690.155,run_exp/static/images/task_images/land.jpg,65,,,,,,53,,,5,,,,,,,,125681,1,0,FALSE,,,
dig,128,502372,0.0-44.0-0.0,,,,,,,,,,,"[{""stimulus"":""run_exp/static/images/task_images/dig.jpg"",""time"":0.21000000007916242},{""stimulus"":""run_exp/static/images/task_images/land.jpg"",""time"":780.0450000003912},{""stimulus"":""run_exp/static/images/task_images/dig.jpg"",""time"":1540.7050000003073}]",[],5,,,,,,,,,,,,,,
harvest,129,503373,0.0-44.0-1.0,,null,run_exp/static/images/task_images/gems/53.jpg,null,,,,,,26,,,5,,,,,53,0.491298586,0.490566038,,,,,,,
decision,130,503426,0.0-44.0-2.0,,51.1,run_exp/static/images/task_images/land.jpg,65,,,,,,26,,,5,,,,,,,,129054,1,1,FALSE,,,
dig,131,506378,0.0-45.0-0.0,,,,,,,,,,,"[{""stimulus"":""run_exp/static/images/task_images/dig.jpg"",""time"":0.1600000006146729},{""stimulus"":""run_exp/static/images/task_images/land.jpg"",""time"":992.2300000007963},{""stimulus"":""run_exp/static/images/task_images/dig.jpg"",""time"":1969.8700000008103}]",[],5,,,,,,,,,,,,,,
harvest,132,507388,0.0-45.0-1.0,,null,run_exp/static/images/task_images/gems/26.jpg,null,,,,,,14,,,5,,,,,26,0.52855661,0.538461538,,,,,,,
decision,133,509449,0.0-45.0-2.0,,2059.75,run_exp/static/images/task_images/land.jpg,76,,,,,,14,,,5,,,,,,,,135075,1,2,TRUE,,,
travel,134,517400,0.0-46.0-0.0,,,,,,,,,,,"[{""stimulus"":""run_exp/static/images/task_images/rocket-01.jpg"",""time"":0.1550000006100163},{""stimulus"":""run_exp/static/images/task_images/rocket-02.jpg"",""time"":884.1800000000512},{""stimulus"":""run_exp/static/images/task_images/rocket-03.jpg"",""time"":1769.3300000000745},{""stimulus"":""run_exp/static/images/task_images/rocket-04.jpg"",""time"":2647.1700000002747},{""stimulus"":""run_exp/static/images/task_images/rocket-05.jpg"",""time"":3541.9150000007357},{""stimulus"":""run_exp/static/images/task_images/rocket-06.jpg"",""time"":4411.460000000312},{""stimulus"":""run_exp/static/images/task_images/rocket-07.jpg"",""time"":5295.105000000214},{""stimulus"":""run_exp/static/images/task_images/rocket-08.jpg"",""time"":6181.94000000041},{""stimulus"":""run_exp/static/images/task_images/rocket-09.jpg"",""time"":7062.6849999999395}]",[],5,,,,,,,,,,,,,,
alien_welcome,135,522408,0.0-46.0-1.0,,null,run_exp/static/images/task_images/aliens/old_aliens/planet/alien_planet-24.jpg,null,,,,,,,,,,,,24,"43,3,55,44,74,24,18,4,56,39,64,49,25,62,2,11,59,73,50,40,15,31,22,66,42,69,52,20,38,48,8,61,35,27,33,41,76,1,37",,,,,,,,,,
land,136,522910,0.0-46.0-2.0,,null,run_exp/static/images/task_images/land.jpg,null,,,,,,104,,,6,,,,,,,,,,,,,,
dig,137,524915,0.0-46.0-3.0,,,,,,,,,,,"[{""stimulus"":""run_exp/static/images/task_images/dig.jpg"",""time"":0.20500000030733645},{""stimulus"":""run_exp/static/images/task_images/land.jpg"",""time"":672.7399999999907},{""stimulus"":""run_exp/static/images/task_images/dig.jpg"",""time"":1341.0649999995949}]",[],6,,,,,,,,,,,,,,
harvest,138,525925,0.0-46.0-4.0,,null,run_exp/static/images/task_images/gems/104.jpg,null,,,,,,89,,,6,,,,,104,0.858675618,0.855769231,,,,,,,
decision,139,526134,0.0-46.0-5.0,,207.595,run_exp/static/images/task_images/land.jpg,65,,,,,,89,,,6,,,,,,,,151760,1,0,FALSE,,,
dig,140,528940,0.0-47.0-0.0,,,,,,,,,,,"[{""stimulus"":""run_exp/static/images/task_images/dig.jpg"",""time"":0.18000000005122274},{""stimulus"":""run_exp/static/images/task_images/land.jpg"",""time"":938.0000000001164},{""stimulus"":""run_exp/static/images/task_images/dig.jpg"",""time"":1872.3700000001118}]",[],6,,,,,,,,,,,,,,
harvest,141,529943,0.0-47.0-1.0,,null,run_exp/static/images/task_images/gems/89.jpg,null,,,,,,80,,,6,,,,,89,0.899301911,0.898876404,,,,,,,
decision,142,529985,0.0-47.0-2.0,,41.345,run_exp/static/images/task_images/land.jpg,65,,,,,,80,,,6,,,,,,,,155611,1,1,FALSE,,,
dig,143,532951,0.0-48.0-0.0,,,,,,,,,,,"[{""stimulus"":""run_exp/static/images/task_images/dig.jpg"",""time"":0.15499999979510903},{""stimulus"":""run_exp/static/images/task_images/land.jpg"",""time"":991.1400000001304},{""stimulus"":""run_exp/static/images/task_images/dig.jpg"",""time"":1984.8400000000838}]",[],6,,,,,,,,,,,,,,
harvest,144,533954,0.0-48.0-1.0,,null,run_exp/static/images/task_images/gems/80.jpg,null,,,,,,62,,,6,,,,,80,0.768916853,0.775,,,,,,,
decision,145,534118,0.0-48.0-2.0,,162.785,run_exp/static/images/task_images/land.jpg,65,,,,,,62,,,6,,,,,,,,159744,1,2,FALSE,,,
dig,146,536969,0.0-49.0-0.0,,,,,,,,,,,"[{""stimulus"":""run_exp/static/images/task_images/dig.jpg"",""time"":0.17000000027474016},{""stimulus"":""run_exp/static/images/task_images/land.jpg"",""time"":946.2299999995157},{""stimulus"":""run_exp/static/images/task_images/dig.jpg"",""time"":1897.0899999995017}]",[],6,,,,,,,,,,,,,,
harvest,147,537975,0.0-49.0-1.0,,null,run_exp/static/images/task_images/gems/62.jpg,null,,,,,,49,,,6,,,,,62,0.797920485,0.790322581,,,,,,,
decision,148,538949,0.0-49.0-2.0,,972.64,run_exp/static/images/task_images/land.jpg,76,,,,,,49,,,6,,,,,,,,164575,1,3,TRUE,,,
travel,149,547980,0.0-50.0-0.0,,,,,,,,,,,"[{""stimulus"":""run_exp/static/images/task_images/rocket-01.jpg"",""time"":0.14000000013038516},{""stimulus"":""run_exp/static/images/task_images/rocket-02.jpg"",""time"":1011.3950000004843},{""stimulus"":""run_exp/static/images/task_images/rocket-03.jpg"",""time"":2016.8899999998976},{""stimulus"":""run_exp/static/images/task_images/rocket-04.jpg"",""time"":3024.484999999986},{""stimulus"":""run_exp/static/images/task_images/rocket-05.jpg"",""time"":4021.9500000003027},{""stimulus"":""run_exp/static/images/task_images/rocket-06.jpg"",""time"":5017.095000000205},{""stimulus"":""run_exp/static/images/task_images/rocket-07.jpg"",""time"":6028.395000000368},{""stimulus"":""run_exp/static/images/task_images/rocket-08.jpg"",""time"":7025.395000000601},{""stimulus"":""run_exp/static/images/task_images/rocket-09.jpg"",""time"":8032.194999999832}]",[],6,,,,,,,,,,,,,,
alien_welcome,150,552992,0.0-50.0-1.0,,null,run_exp/static/images/task_images/aliens/old_aliens/planet/alien_planet-18.jpg,null,,,,,,,,,,,,18,"43,3,55,44,74,24,18,4,56,39,64,49,25,62,2,11,59,73,50,40,15,31,22,66,42,69,52,20,38,48,8,61,35,27,33,41,76,1,37",,,,,,,,,,
land,151,553506,0.0-50.0-2.0,,null,run_exp/static/images/task_images/land.jpg,null,,,,,,108,,,7,,,,,,,,,,,,,,
dig,152,555511,0.0-50.0-3.0,,,,,,,,,,,"[{""stimulus"":""run_exp/static/images/task_images/dig.jpg"",""time"":0.21000000007916242},{""stimulus"":""run_exp/static/images/task_images/land.jpg"",""time"":683.204999999376},{""stimulus"":""run_exp/static/images/task_images/dig.jpg"",""time"":1337.300000000163}]",[],7,,,,,,,,,,,,,,
harvest,153,556515,0.0-50.0-4.0,,null,run_exp/static/images/task_images/gems/108.jpg,null,,,,,,83,,,7,,,,,108,0.771577582,0.768518519,,,,,,,
decision,154,558506,0.0-50.0-5.0,,1989.75,run_exp/static/images/task_images/land.jpg,65,,,,,,83,,,7,,,,,,,,184132,1,0,FALSE,,,
dig,155,559533,0.0-51.0-0.0,,,,,,,,,,,"[{""stimulus"":""run_exp/static/images/task_images/dig.jpg"",""time"":0.14999999990686774},{""stimulus"":""run_exp/static/images/task_images/land.jpg"",""time"":342.4100000002654},{""stimulus"":""run_exp/static/images/task_images/dig.jpg"",""time"":681.1950000001816}]",[],7,,,,,,,,,,,,,,
harvest,156,560534,0.0-51.0-1.0,,null,run_exp/static/images/task_images/gems/83.jpg,null,,,,,,71,,,7,,,,,83,0.860514629,0.855421687,,,,,,,
decision,157,560892,0.0-51.0-2.0,,356.385,run_exp/static/images/task_images/land.jpg,65,,,,,,71,,,7,,,,,,,,186519,1,1,FALSE,,,
dig,158,563546,0.0-52.0-0.0,,,,,,,,,,,"[{""stimulus"":""run_exp/static/images/task_images/dig.jpg"",""time"":0.22999999963212758},{""stimulus"":""run_exp/static/images/task_images/land.jpg"",""time"":893.4650000000838},{""stimulus"":""run_exp/static/images/task_images/dig.jpg"",""time"":1765.7149999995017}]",[],7,,,,,,,,,,,,,,
harvest,159,564549,0.0-52.0-1.0,,null,run_exp/static/images/task_images/gems/71.jpg,null,,,,,,57,,,7,,,,,71,0.796346593,0.802816901,,,,,,,
decision,160,566124,0.0-52.0-2.0,,1573.245,run_exp/static/images/task_images/land.jpg,65,,,,,,57,,,7,,,,,,,,191750,1,2,FALSE,,,
dig,161,567564,0.0-53.0-0.0,,,,,,,,,,,"[{""stimulus"":""run_exp/static/images/task_images/dig.jpg"",""time"":0.14999999979045242},{""stimulus"":""run_exp/static/images/task_images/land.jpg"",""time"":487.36000000010245},{""stimulus"":""run_exp/static/images/task_images/dig.jpg"",""time"":953.2200000003213}]",[],7,,,,,,,,,,,,,,
harvest,162,568565,0.0-53.0-1.0,,null,run_exp/static/images/task_images/gems/57.jpg,null,,,,,,50,,,7,,,,,57,0.871731432,0.877192982,,,,,,,
decision,163,569372,0.0-53.0-2.0,,805.095,run_exp/static/images/task_images/land.jpg,76,,,,,,50,,,7,,,,,,,,194998,1,3,TRUE,,,
travel,164,578579,0.0-54.0-0.0,,,,,,,,,,,"[{""stimulus"":""run_exp/static/images/task_images/rocket-01.jpg"",""time"":0.17499999923165888},{""stimulus"":""run_exp/static/images/task_images/rocket-02.jpg"",""time"":1032.1749999994645},{""stimulus"":""run_exp/static/images/task_images/rocket-03.jpg"",""time"":2054.505000000121},{""stimulus"":""run_exp/static/images/task_images/rocket-04.jpg"",""time"":3074.9349999997066},{""stimulus"":""run_exp/static/images/task_images/rocket-05.jpg"",""time"":4086.904999999213},{""stimulus"":""run_exp/static/images/task_images/rocket-06.jpg"",""time"":5114.489999999991},{""stimulus"":""run_exp/static/images/task_images/rocket-07.jpg"",""time"":6138.904999999795},{""stimulus"":""run_exp/static/images/task_images/rocket-08.jpg"",""time"":7163.489999999991},{""stimulus"":""run_exp/static/images/task_images/rocket-09.jpg"",""time"":8177.459999999963}]",[],7,,,,,,,,,,,,,,
alien_welcome,165,583586,0.0-54.0-1.0,,null,run_exp/static/images/task_images/aliens/old_aliens/planet/alien_planet-4.jpg,null,,,,,,,,,,,,4,"43,3,55,44,74,24,18,4,56,39,64,49,25,62,2,11,59,73,50,40,15,31,22,66,42,69,52,20,38,48,8,61,35,27,33,41,76,1,37",,,,,,,,,,
land,166,584099,0.0-54.0-2.0,,null,run_exp/static/images/task_images/land.jpg,null,,,,,,92,,,8,,,,,,,,,,,,,,
dig,167,586102,0.0-54.0-3.0,,,,,,,,,,,"[{""stimulus"":""run_exp/static/images/task_images/dig.jpg"",""time"":0.2249999997438863},{""stimulus"":""run_exp/static/images/task_images/land.jpg"",""time"":682.5949999992736},{""stimulus"":""run_exp/static/images/task_images/dig.jpg"",""time"":1335.2249999998603}]",[],8,,,,,,,,,,,,,,
harvest,168,587132,0.0-54.0-4.0,,null,run_exp/static/images/task_images/gems/92.jpg,null,,,,,,77,,,8,,,,,92,0.835117636,0.836956522,,,,,,,
decision,169,587590,0.0-54.0-5.0,,456.535,run_exp/static/images/task_images/land.jpg,65,,,,,,77,,,8,,,,,,,,213217,1,0,FALSE,,,
dig,170,590137,0.0-55.0-0.0,,,,,,,,,,,"[{""stimulus"":""run_exp/static/images/task_images/dig.jpg"",""time"":0.16500000038649887},{""stimulus"":""run_exp/static/images/task_images/land.jpg"",""time"":858.3049999998184},{""stimulus"":""run_exp/static/images/task_images/dig.jpg"",""time"":1706.635000000475}]",[],8,,,,,,,,,,,,,,
harvest,171,591237,0.0-55.0-1.0,,null,run_exp/static/images/task_images/gems/77.jpg,null,,,,,,65,,,8,,,,,77,0.839268011,0.844155844,,,,,,,
decision,172,591350,0.0-55.0-2.0,,110.46,run_exp/static/images/task_images/land.jpg,65,,,,,,65,,,8,,,,,,,,216976,1,1,FALSE,,,
dig,173,594253,0.0-56.0-0.0,,,,,,,,,,,"[{""stimulus"":""run_exp/static/images/task_images/dig.jpg"",""time"":0.35999999998603016},{""stimulus"":""run_exp/static/images/task_images/land.jpg"",""time"":976.6800000007497},{""stimulus"":""run_exp/static/images/task_images/dig.jpg"",""time"":1928.8050000005169}]",[],8,,,,,,,,,,,,,,
harvest,174,595685,0.0-56.0-1.0,,null,run_exp/static/images/task_images/gems/65.jpg,null,,,,,,55,,,8,,,,,65,0.847514418,0.846153846,,,,,,,
decision,175,596497,0.0-56.0-2.0,,809.79,run_exp/static/images/task_images/land.jpg,76,,,,,,55,,,8,,,,,,,,222123,1,2,TRUE,,,
travel,176,605704,0.0-57.0-0.0,,,,,,,,,,,"[{""stimulus"":""run_exp/static/images/task_images/rocket-01.jpg"",""time"":0.18499999993946403},{""stimulus"":""run_exp/static/images/task_images/rocket-02.jpg"",""time"":1030.2050000000745},{""stimulus"":""run_exp/static/images/task_images/rocket-03.jpg"",""time"":2045.8099999997066},{""stimulus"":""run_exp/static/images/task_images/rocket-04.jpg"",""time"":3064.9299999995856},{""stimulus"":""run_exp/static/images/task_images/rocket-05.jpg"",""time"":4100.614999999409},{""stimulus"":""run_exp/static/images/task_images/rocket-06.jpg"",""time"":5106.894999999902},{""stimulus"":""run_exp/static/images/task_images/rocket-07.jpg"",""time"":6141.34999999986},{""stimulus"":""run_exp/static/images/task_images/rocket-08.jpg"",""time"":7162.164999999804},{""stimulus"":""run_exp/static/images/task_images/rocket-09.jpg"",""time"":8180.914999999921}]",[],8,,,,,,,,,,,,,,
alien_welcome,177,610712,0.0-57.0-1.0,,null,run_exp/static/images/task_images/aliens/old_aliens/planet/alien_planet-56.jpg,null,,,,,,,,,,,,56,"43,3,55,44,74,24,18,4,56,39,64,49,25,62,2,11,59,73,50,40,15,31,22,66,42,69,52,20,38,48,8,61,35,27,33,41,76,1,37",,,,,,,,,,
land,178,611214,0.0-57.0-2.0,,null,run_exp/static/images/task_images/land.jpg,null,,,,,,94,,,9,,,,,,,,,,,,,,
dig,179,613224,0.0-57.0-3.0,,,,,,,,,,,"[{""stimulus"":""run_exp/static/images/task_images/dig.jpg"",""time"":0.22000000078696758},{""stimulus"":""run_exp/static/images/task_images/land.jpg"",""time"":672.0700000005309},{""stimulus"":""run_exp/static/images/task_images/dig.jpg"",""time"":1340.8900000003632}]",[],9,,,,,,,,,,,,,,
harvest,180,614229,0.0-57.0-4.0,,null,run_exp/static/images/task_images/gems/94.jpg,null,,,,,,19,,,9,,,,,94,0.201749223,0.20212766,,,,,,,
decision,181,615507,0.0-57.0-5.0,,1276.18,run_exp/static/images/task_images/land.jpg,65,,,,,,19,,,9,,,,,,,,241133,1,0,FALSE,,,
dig,182,617251,0.0-58.0-0.0,,,,,,,,,,,"[{""stimulus"":""run_exp/static/images/task_images/dig.jpg"",""time"":0.28499999921768904},{""stimulus"":""run_exp/static/images/task_images/land.jpg"",""time"":575.4649999999674},{""stimulus"":""run_exp/static/images/task_images/dig.jpg"",""time"":1153.1699999996927}]",[],9,,,,,,,,,,,,,,
harvest,183,618266,0.0-58.0-1.0,,null,run_exp/static/images/task_images/gems/19.jpg,null,,,,,,4,,,9,,,,,19,0.220256996,0.210526316,,,,,,,
decision,184,618964,0.0-58.0-2.0,,696.56,run_exp/static/images/task_images/land.jpg,76,,,,,,4,,,9,,,,,,,,244591,1,1,TRUE,,,
travel,185,628283,0.0-59.0-0.0,,,,,,,,,,,"[{""stimulus"":""run_exp/static/images/task_images/rocket-01.jpg"",""time"":0.280000000144355},{""stimulus"":""run_exp/static/images/task_images/rocket-02.jpg"",""time"":1045.1849999999395},{""stimulus"":""run_exp/static/images/task_images/rocket-03.jpg"",""time"":2077.4499999997206},{""stimulus"":""run_exp/static/images/task_images/rocket-04.jpg"",""time"":3115.240000000107},{""stimulus"":""run_exp/static/images/task_images/rocket-05.jpg"",""time"":4134.129999999423},{""stimulus"":""run_exp/static/images/task_images/rocket-06.jpg"",""time"":5166.264999999781},{""stimulus"":""run_exp/static/images/task_images/rocket-07.jpg"",""time"":6206.474999999977},{""stimulus"":""run_exp/static/images/task_images/rocket-08.jpg"",""time"":7242.554999999818},{""stimulus"":""run_exp/static/images/task_images/rocket-09.jpg"",""time"":8279.65500000026}]",[],9,,,,,,,,,,,,,,
alien_welcome,186,633291,0.0-59.0-1.0,,null,run_exp/static/images/task_images/aliens/old_aliens/planet/alien_planet-39.jpg,null,,,,,,,,,,,,39,"43,3,55,44,74,24,18,4,56,39,64,49,25,62,2,11,59,73,50,40,15,31,22,66,42,69,52,20,38,48,8,61,35,27,33,41,76,1,37",,,,,,,,,,
land,187,633793,0.0-59.0-2.0,,null,run_exp/static/images/task_images/land.jpg,null,,,,,,100,,,10,,,,,,,,,,,,,,
dig,188,635809,0.0-59.0-3.0,,,,,,,,,,,"[{""stimulus"":""run_exp/static/images/task_images/dig.jpg"",""time"":0.22500000067520887},{""stimulus"":""run_exp/static/images/task_images/land.jpg"",""time"":673.7800000000279},{""stimulus"":""run_exp/static/images/task_images/dig.jpg"",""time"":1344.3450000004377}]",[],10,,,,,,,,,,,,,,
harvest,189,636849,0.0-59.0-4.0,,null,run_exp/static/images/task_images/gems/100.jpg,null,,,,,,23,,,10,,,,,100,0.225035756,0.23,,,,,,,
decision,190,637646,0.0-59.0-5.0,,794.16,run_exp/static/images/task_images/land.jpg,65,,,,,,23,,,10,,,,,,,,263272,1,0,FALSE,,,
dig,191,639869,0.0-60.0-0.0,,,,,,,,,,,"[{""stimulus"":""run_exp/static/images/task_images/dig.jpg"",""time"":0.19999999948777258},{""stimulus"":""run_exp/static/images/task_images/land.jpg"",""time"":737.7950000000419},{""stimulus"":""run_exp/static/images/task_images/dig.jpg"",""time"":1485.7750000001397}]",[],10,,,,,,,,,,,,,,
harvest,192,640952,0.0-60.0-1.0,,null,run_exp/static/images/task_images/gems/23.jpg,null,,,,,,6,,,10,,,,,23,0.243461069,0.260869565,,,,,,,
decision,193,641851,0.0-60.0-2.0,,896.835,run_exp/static/images/task_images/land.jpg,65,,,,,,6,,,10,,,,,,,,267477,1,1,FALSE,,,
dig,194,643972,0.0-61.0-0.0,,,,,,,,,,,"[{""stimulus"":""run_exp/static/images/task_images/dig.jpg"",""time"":0.18999999982770532},{""stimulus"":""run_exp/static/images/task_images/land.jpg"",""time"":706.0849999998463},{""stimulus"":""run_exp/static/images/task_images/dig.jpg"",""time"":1406.380000000354}]",[],10,,,,,,,,,,,,,,
harvest,195,644982,0.0-61.0-1.0,,null,run_exp/static/images/task_images/gems/6.jpg,null,,,,,,1,,,10,,,,,6,0.20779737,0.166666667,,,,,,,
decision,196,646575,0.0-61.0-2.0,,1590.535,run_exp/static/images/task_images/land.jpg,76,,,,,,1,,,10,,,,,,,,272201,1,2,TRUE,,,
travel,197,655005,0.0-62.0-0.0,,,,,,,,,,,"[{""stimulus"":""run_exp/static/images/task_images/rocket-01.jpg"",""time"":0.340000000433065},{""stimulus"":""run_exp/static/images/task_images/rocket-02.jpg"",""time"":937.140000000014},{""stimulus"":""run_exp/static/images/task_images/rocket-03.jpg"",""time"":1871.3350000006612},{""stimulus"":""run_exp/static/images/task_images/rocket-04.jpg"",""time"":2818.45500000054},{""stimulus"":""run_exp/static/images/task_images/rocket-05.jpg"",""time"":3741.82500000007},{""stimulus"":""run_exp/static/images/task_images/rocket-06.jpg"",""time"":4675.240000000456},{""stimulus"":""run_exp/static/images/task_images/rocket-07.jpg"",""time"":5610.00500000047},{""stimulus"":""run_exp/static/images/task_images/rocket-08.jpg"",""time"":6541.474999999977},{""stimulus"":""run_exp/static/images/task_images/rocket-09.jpg"",""time"":7486.475000000559}]",[],10,,,,,,,,,,,,,,
alien_welcome,198,660009,0.0-62.0-1.0,,null,run_exp/static/images/task_images/aliens/old_aliens/planet/alien_planet-64.jpg,null,,,,,,,,,,,,64,"43,3,55,44,74,24,18,4,56,39,64,49,25,62,2,11,59,73,50,40,15,31,22,66,42,69,52,20,38,48,8,61,35,27,33,41,76,1,37",,,,,,,,,,
land,199,660522,0.0-62.0-2.0,,null,run_exp/static/images/task_images/land.jpg,null,,,,,,104,,,11,,,,,,,,,,,,,,
dig,200,662540,0.0-62.0-3.0,,,,,,,,,,,"[{""stimulus"":""run_exp/static/images/task_images/dig.jpg"",""time"":0.23499999952036887},{""stimulus"":""run_exp/static/images/task_images/land.jpg"",""time"":668.714999999851},{""stimulus"":""run_exp/static/images/task_images/dig.jpg"",""time"":1336.9899999997579}]",[],11,,,,,,,,,,,,,,
harvest,201,663541,0.0-62.0-4.0,,null,run_exp/static/images/task_images/gems/104.jpg,null,,,,,,16,,,11,,,,,104,0.150955251,0.153846154,,,,,,,
decision,202,664150,0.0-62.0-5.0,,607.145,run_exp/static/images/task_images/land.jpg,65,,,,,,16,,,11,,,,,,,,289776,1,0,FALSE,,,
dig,203,666551,0.0-63.0-0.0,,,,,,,,,,,"[{""stimulus"":""run_exp/static/images/task_images/dig.jpg"",""time"":0.14999999990686774},{""stimulus"":""run_exp/static/images/task_images/land.jpg"",""time"":811.9149999993388},{""stimulus"":""run_exp/static/images/task_images/dig.jpg"",""time"":1603.9299999993527}]",[],11,,,,,,,,,,,,,,
harvest,204,667564,0.0-63.0-1.0,,null,run_exp/static/images/task_images/gems/16.jpg,null,,,,,,3,,,11,,,,,16,0.174641478,0.1875,,,,,,,
decision,205,669574,0.0-63.0-2.0,,2008.825,run_exp/static/images/task_images/land.jpg,76,,,,,,3,,,11,,,,,,,,295200,1,1,TRUE,,,
travel,206,677561,0.0-64.0-0.0,,,,,,,,,,,"[{""stimulus"":""run_exp/static/images/task_images/rocket-01.jpg"",""time"":0.14999999979045242},{""stimulus"":""run_exp/static/images/task_images/rocket-02.jpg"",""time"":890.2400000005728},{""stimulus"":""run_exp/static/images/task_images/rocket-03.jpg"",""time"":1776.3000000003958},{""stimulus"":""run_exp/static/images/task_images/rocket-04.jpg"",""time"":2661.9650000002002},{""stimulus"":""run_exp/static/images/task_images/rocket-05.jpg"",""time"":3557.775000000256},{""stimulus"":""run_exp/static/images/task_images/rocket-06.jpg"",""time"":4446.219999999739},{""stimulus"":""run_exp/static/images/task_images/rocket-07.jpg"",""time"":5323.800000000047},{""stimulus"":""run_exp/static/images/task_images/rocket-08.jpg"",""time"":6214.15500000061},{""stimulus"":""run_exp/static/images/task_images/rocket-09.jpg"",""time"":7097.935000000638}]",[],11,,,,,,,,,,,,,,
alien_welcome,207,682566,0.0-64.0-1.0,,null,run_exp/static/images/task_images/aliens/old_aliens/planet/alien_planet-49.jpg,null,,,,,,,,,,,,49,"43,3,55,44,74,24,18,4,56,39,64,49,25,62,2,11,59,73,50,40,15,31,22,66,42,69,52,20,38,48,8,61,35,27,33,41,76,1,37",,,,,,,,,,
land,208,683077,0.0-64.0-2.0,,null,run_exp/static/images/task_images/land.jpg,null,,,,,,89,,,12,,,,,,,,,,,,,,
dig,209,685081,0.0-64.0-3.0,,,,,,,,,,,"[{""stimulus"":""run_exp/static/images/task_images/dig.jpg"",""time"":0.21000000019557774},{""stimulus"":""run_exp/static/images/task_images/land.jpg"",""time"":683.6849999999395},{""stimulus"":""run_exp/static/images/task_images/dig.jpg"",""time"":1336.5299999995623}]",[],12,,,,,,,,,,,,,,
harvest,210,686089,0.0-64.0-4.0,,null,run_exp/static/images/task_images/gems/89.jpg,null,,,,,,26,,,12,,,,,89,0.286616667,0.292134831,,,,,,,
decision,211,686899,0.0-64.0-5.0,,809.635,run_exp/static/images/task_images/land.jpg,65,,,,,,26,,,12,,,,,,,,312525,1,0,TRUE,,,
end_of_block_continue,212,695748,0.0-65.0-0.0,,null,run_exp/static/audio/clip_32_block_end.m4a,,,,,,null,,,,,,,,,,,,,,,,,,
alien_welcome,213,700755,0.0-66.0-0.0,,null,run_exp/static/images/task_images/aliens/old_aliens/planet/alien_planet-25.jpg,null,,,,,,,,,,,,25,"43,3,55,44,74,24,18,4,56,39,64,49,25,62,2,11,59,73,50,40,15,31,22,66,42,69,52,20,38,48,8,61,35,27,33,41,76,1,37",,,,,,,,,,
land,214,701258,0.0-66.0-1.0,,null,run_exp/static/images/task_images/land.jpg,null,,,,,,87,,,13,,,,,,,,,,,,,,
dig,215,703270,0.0-66.0-2.0,,,,,,,,,,,"[{""stimulus"":""run_exp/static/images/task_images/dig.jpg"",""time"":0.21499999915249646},{""stimulus"":""run_exp/static/images/task_images/land.jpg"",""time"":675.3599999992875},{""stimulus"":""run_exp/static/images/task_images/dig.jpg"",""time"":1343.7799999993294}]",[],13,,,,,,,,,,,,,,
harvest,216,704273,0.0-66.0-3.0,,null,run_exp/static/images/task_images/gems/87.jpg,null,,,,,,11,,,13,,,,,87,0.131992029,0.126436782,,,,,,,
decision,217,705403,0.0-66.0-4.0,,1128.365,run_exp/static/images/task_images/land.jpg,65,,,,,,11,,,13,,,,,,,,9650,2,0,FALSE,,,
dig,218,707291,0.0-67.0-0.0,,,,,,,,,,,"[{""stimulus"":""run_exp/static/images/task_images/dig.jpg"",""time"":0.29499999980907887},{""stimulus"":""run_exp/static/images/task_images/land.jpg"",""time"":624.6300000002375},{""stimulus"":""run_exp/static/images/task_images/dig.jpg"",""time"":1247.9149999999208}]",[],13,,,,,,,,,,,,,,
harvest,219,708293,0.0-67.0-1.0,,null,run_exp/static/images/task_images/gems/11.jpg,null,,,,,,2,,,13,,,,,11,0.217395866,0.181818182,,,,,,,
decision,220,709611,0.0-67.0-2.0,,1316.4,run_exp/static/images/task_images/land.jpg,76,,,,,,2,,,13,,,,,,,,13858,2,1,TRUE,,,
travel,221,718291,0.0-68.0-0.0,,,,,,,,,,,"[{""stimulus"":""run_exp/static/images/task_images/rocket-01.jpg"",""time"":0.14499999990221113},{""stimulus"":""run_exp/static/images/task_images/rocket-02.jpg"",""time"":971.2300000000978},{""stimulus"":""run_exp/static/images/task_images/rocket-03.jpg"",""time"":1934.88499999966},{""stimulus"":""run_exp/static/images/task_images/rocket-04.jpg"",""time"":2896.5900000003166},{""stimulus"":""run_exp/static/images/task_images/rocket-05.jpg"",""time"":3859.730000000098},{""stimulus"":""run_exp/static/images/task_images/rocket-06.jpg"",""time"":4822.430000000168},{""stimulus"":""run_exp/static/images/task_images/rocket-07.jpg"",""time"":5800.145000000135},{""stimulus"":""run_exp/static/images/task_images/rocket-08.jpg"",""time"":6764.159999999683},{""stimulus"":""run_exp/static/images/task_images/rocket-09.jpg"",""time"":7724.519999999786}]",[],13,,,,,,,,,,,,,,
alien_welcome,222,723302,0.0-68.0-1.0,,null,run_exp/static/images/task_images/aliens/old_aliens/planet/alien_planet-62.jpg,null,,,,,,,,,,,,62,"43,3,55,44,74,24,18,4,56,39,64,49,25,62,2,11,59,73,50,40,15,31,22,66,42,69,52,20,38,48,8,61,35,27,33,41,76,1,37",,,,,,,,,,
land,223,723817,0.0-68.0-2.0,,null,run_exp/static/images/task_images/land.jpg,null,,,,,,93,,,14,,,,,,,,,,,,,,
dig,224,725825,0.0-68.0-3.0,,,,,,,,,,,"[{""stimulus"":""run_exp/static/images/task_images/dig.jpg"",""time"":0.20500000019092113},{""stimulus"":""run_exp/static/images/task_images/land.jpg"",""time"":680.8250000003027},{""stimulus"":""run_exp/static/images/task_images/dig.jpg"",""time"":1335.1400000001304}]",[],14,,,,,,,,,,,,,,
harvest,225,726829,0.0-68.0-4.0,,null,run_exp/static/images/task_images/gems/93.jpg,null,,,,,,14,,,14,,,,,93,0.148796206,0.150537634,,,,,,,
decision,226,727736,0.0-68.0-5.0,,904.985,run_exp/static/images/task_images/land.jpg,65,,,,,,14,,,14,,,,,,,,31983,2,0,FALSE,,,
dig,227,729845,0.0-69.0-0.0,,,,,,,,,,,"[{""stimulus"":""run_exp/static/images/task_images/dig.jpg"",""time"":0.14000000013038516},{""stimulus"":""run_exp/static/images/task_images/land.jpg"",""time"":707.4849999998696},{""stimulus"":""run_exp/static/images/task_images/dig.jpg"",""time"":1408.4849999998696}]",[],14,,,,,,,,,,,,,,
harvest,228,730850,0.0-69.0-1.0,,null,run_exp/static/images/task_images/gems/14.jpg,null,,,,,,3,,,14,,,,,14,0.226853312,0.214285714,,,,,,,
decision,229,732823,0.0-69.0-2.0,,1971.88,run_exp/static/images/task_images/land.jpg,65,,,,,,3,,,14,,,,,,,,37071,2,1,FALSE,,,
dig,230,733857,0.0-70.0-0.0,,,,,,,,,,,"[{""stimulus"":""run_exp/static/images/task_images/dig.jpg"",""time"":0.14500000001862645},{""stimulus"":""run_exp/static/images/task_images/land.jpg"",""time"":347.16500000015367},{""stimulus"":""run_exp/static/images/task_images/dig.jpg"",""time"":687.6699999993434}]",[],14,,,,,,,,,,,,,,
harvest,231,734863,0.0-70.0-1.0,,null,run_exp/static/images/task_images/gems/3.jpg,null,,,,,,1,,,14,,,,,3,0.263979549,0.333333333,,,,,,,
decision,232,735737,0.0-70.0-2.0,,872.585,run_exp/static/images/task_images/land.jpg,76,,,,,,1,,,14,,,,,,,,39984,2,2,TRUE,,,
travel,233,744877,0.0-71.0-0.0,,,,,,,,,,,"[{""stimulus"":""run_exp/static/images/task_images/rocket-01.jpg"",""time"":0.1550000006100163},{""stimulus"":""run_exp/static/images/task_images/rocket-02.jpg"",""time"":1018.2949999998091},{""stimulus"":""run_exp/static/images/task_images/rocket-03.jpg"",""time"":2035.0600000001723},{""stimulus"":""run_exp/static/images/task_images/rocket-04.jpg"",""time"":3050.1149999999907},{""stimulus"":""run_exp/static/images/task_images/rocket-05.jpg"",""time"":4061.134999999893},{""stimulus"":""run_exp/static/images/task_images/rocket-06.jpg"",""time"":5072.140000000247},{""stimulus"":""run_exp/static/images/task_images/rocket-07.jpg"",""time"":6094.15500000061},{""stimulus"":""run_exp/static/images/task_images/rocket-08.jpg"",""time"":7103.125000000582},{""stimulus"":""run_exp/static/images/task_images/rocket-09.jpg"",""time"":8126.850000000559}]",[],14,,,,,,,,,,,,,,
alien_welcome,234,749881,0.0-71.0-1.0,,null,run_exp/static/images/task_images/aliens/old_aliens/planet/alien_planet-2.jpg,null,,,,,,,,,,,,2,"43,3,55,44,74,24,18,4,56,39,64,49,25,62,2,11,59,73,50,40,15,31,22,66,42,69,52,20,38,48,8,61,35,27,33,41,76,1,37",,,,,,,,,,
land,235,750395,0.0-71.0-2.0,,null,run_exp/static/images/task_images/land.jpg,null,,,,,,96,,,15,,,,,,,,,,,,,,
dig,236,752400,0.0-71.0-3.0,,,,,,,,,,,"[{""stimulus"":""run_exp/static/images/task_images/dig.jpg"",""time"":0.2249999997438863},{""stimulus"":""run_exp/static/images/task_images/land.jpg"",""time"":679.015000000596},{""stimulus"":""run_exp/static/images/task_images/dig.jpg"",""time"":1336.1750000003958}]",[],15,,,,,,,,,,,,,,
harvest,237,753403,0.0-71.0-4.0,,null,run_exp/static/images/task_images/gems/96.jpg,null,,,,,,23,,,15,,,,,96,0.239027138,0.239583333,,,,,,,
decision,238,753667,0.0-71.0-5.0,,262.305,run_exp/static/images/task_images/land.jpg,65,,,,,,23,,,15,,,,,,,,57914,2,0,FALSE,,,
dig,239,756410,0.0-72.0-0.0,,,,,,,,,,,"[{""stimulus"":""run_exp/static/images/task_images/dig.jpg"",""time"":0.14500000001862645},{""stimulus"":""run_exp/static/images/task_images/land.jpg"",""time"":915.775000000489},{""stimulus"":""run_exp/static/images/task_images/dig.jpg"",""time"":1835.7000000005355}]",[],15,,,,,,,,,,,,,,
harvest,240,757417,0.0-72.0-1.0,,null,run_exp/static/images/task_images/gems/23.jpg,null,,,,,,4,,,15,,,,,23,0.19455716,0.173913043,,,,,,,
decision,241,758658,0.0-72.0-2.0,,1239.475,run_exp/static/images/task_images/land.jpg,65,,,,,,4,,,15,,,,,,,,62905,2,1,FALSE,,,
dig,242,760434,0.0-73.0-0.0,,,,,,,,,,,"[{""stimulus"":""run_exp/static/images/task_images/dig.jpg"",""time"":0.14000000001396984},{""stimulus"":""run_exp/static/images/task_images/land.jpg"",""time"":591.8250000004191},{""stimulus"":""run_exp/static/images/task_images/dig.jpg"",""time"":1181.0899999999674}]",[],15,,,,,,,,,,,,,,
harvest,243,761447,0.0-73.0-1.0,,null,run_exp/static/images/task_images/gems/4.jpg,null,,,,,,1,,,15,,,,,4,0.279953032,0.25,,,,,,,
decision,244,762106,0.0-73.0-2.0,,656.93,run_exp/static/images/task_images/land.jpg,65,,,,,,1,,,15,,,,,,,,66353,2,2,FALSE,,,
dig,245,764457,0.0-74.0-0.0,,,,,,,,,,,"[{""stimulus"":""run_exp/static/images/task_images/dig.jpg"",""time"":0.14499999990221113},{""stimulus"":""run_exp/static/images/task_images/land.jpg"",""time"":782.6349999995437},{""stimulus"":""run_exp/static/images/task_images/dig.jpg"",""time"":1574.9850000001024}]",[],15,,,,,,,,,,,,,,
harvest,246,765462,0.0-74.0-1.0,,null,run_exp/static/images/task_images/gems/1.jpg,null,,,,,,0,,,15,,,,,1,0.154062659,0,,,,,,,
decision,247,767457,0.0-74.0-2.0,,1993.64,run_exp/static/images/task_images/land.jpg,76,,,,,,0,,,15,,,,,,,,71704,2,3,TRUE,,,
travel,248,775475,0.0-75.0-0.0,,,,,,,,,,,"[{""stimulus"":""run_exp/static/images/task_images/rocket-01.jpg"",""time"":0.150000000721775},{""stimulus"":""run_exp/static/images/task_images/rocket-02.jpg"",""time"":905.3600000006845},{""stimulus"":""run_exp/static/images/task_images/rocket-03.jpg"",""time"":1792.3600000003353},{""stimulus"":""run_exp/static/images/task_images/rocket-04.jpg"",""time"":2677.7750000001397},{""stimulus"":""run_exp/static/images/task_images/rocket-05.jpg"",""time"":3561.7050000000745},{""stimulus"":""run_exp/static/images/task_images/rocket-06.jpg"",""time"":4461.200000000652},{""stimulus"":""run_exp/static/images/task_images/rocket-07.jpg"",""time"":5347.285000000731},{""stimulus"":""run_exp/static/images/task_images/rocket-08.jpg"",""time"":6229.470000000205},{""stimulus"":""run_exp/static/images/task_images/rocket-09.jpg"",""time"":7127.9650000005495}]",[],15,,,,,,,,,,,,,,
alien_welcome,249,780477,0.0-75.0-1.0,,null,run_exp/static/images/task_images/aliens/old_aliens/planet/alien_planet-11.jpg,null,,,,,,,,,,,,11,"43,3,55,44,74,24,18,4,56,39,64,49,25,62,2,11,59,73,50,40,15,31,22,66,42,69,52,20,38,48,8,61,35,27,33,41,76,1,37",,,,,,,,,,
land,250,780979,0.0-75.0-2.0,,null,run_exp/static/images/task_images/land.jpg,null,,,,,,102,,,16,,,,,,,,,,,,,,
dig,251,782993,0.0-75.0-3.0,,,,,,,,,,,"[{""stimulus"":""run_exp/static/images/task_images/dig.jpg"",""time"":0.20499999937601388},{""stimulus"":""run_exp/static/images/task_images/land.jpg"",""time"":678.8349999997299},{""stimulus"":""run_exp/static/images/task_images/dig.jpg"",""time"":1345.1099999992875}]",[],16,,,,,,,,,,,,,,
harvest,252,783995,0.0-75.0-4.0,,null,run_exp/static/images/task_images/gems/102.jpg,null,,,,,,79,,,16,,,,,102,0.776621602,0.774509804,,,,,,,
decision,253,785569,0.0-75.0-5.0,,1572.975,run_exp/static/images/task_images/land.jpg,65,,,,,,79,,,16,,,,,,,,89817,2,0,FALSE,,,
dig,254,787008,0.0-76.0-0.0,,,,,,,,,,,"[{""stimulus"":""run_exp/static/images/task_images/dig.jpg"",""time"":0.14499999990221113},{""stimulus"":""run_exp/static/images/task_images/land.jpg"",""time"":475.8899999996647},{""stimulus"":""run_exp/static/images/task_images/dig.jpg"",""time"":955.0449999996927}]",[],16,,,,,,,,,,,,,,
harvest,255,788042,0.0-76.0-1.0,,null,run_exp/static/images/task_images/gems/79.jpg,null,,,,,,66,,,16,,,,,79,0.838930227,0.835443038,,,,,,,
decision,256,789413,0.0-76.0-2.0,,1370.115,run_exp/static/images/task_images/land.jpg,65,,,,,,66,,,16,,,,,,,,93661,2,1,FALSE,,,
dig,257,791053,0.0-77.0-0.0,,,,,,,,,,,"[{""stimulus"":""run_exp/static/images/task_images/dig.jpg"",""time"":0.14999999990686774},{""stimulus"":""run_exp/static/images/task_images/land.jpg"",""time"":552.1699999999255},{""stimulus"":""run_exp/static/images/task_images/dig.jpg"",""time"":1091.5899999999674}]",[],16,,,,,,,,,,,,,,
harvest,258,792060,0.0-77.0-1.0,,null,run_exp/static/images/task_images/gems/66.jpg,null,,,,,,49,,,16,,,,,66,0.737034797,0.742424242,,,,,,,
decision,259,792987,0.0-77.0-2.0,,925.085,run_exp/static/images/task_images/land.jpg,65,,,,,,49,,,16,,,,,,,,97234,2,2,FALSE,,,
dig,260,795074,0.0-78.0-0.0,,,,,,,,,,,"[{""stimulus"":""run_exp/static/images/task_images/dig.jpg"",""time"":0.14999999990686774},{""stimulus"":""run_exp/static/images/task_images/land.jpg"",""time"":699.0399999995716},{""stimulus"":""run_exp/static/images/task_images/dig.jpg"",""time"":1383.3999999997905}]",[],16,,,,,,,,,,,,,,
harvest,261,796075,0.0-78.0-1.0,,null,run_exp/static/images/task_images/gems/49.jpg,null,,,,,,37,,,16,,,,,49,0.748370912,0.755102041,,,,,,,
decision,262,797369,0.0-78.0-2.0,,1292.655,run_exp/static/images/task_images/land.jpg,65,,,,,,37,,,16,,,,,,,,101616,2,3,FALSE,,,
dig,263,799082,0.0-79.0-0.0,,,,,,,,,,,"[{""stimulus"":""run_exp/static/images/task_images/dig.jpg"",""time"":0.14999999990686774},{""stimulus"":""run_exp/static/images/task_images/land.jpg"",""time"":573.2399999997579},{""stimulus"":""run_exp/static/images/task_images/dig.jpg"",""time"":1150.4400000004098}]",[],16,,,,,,,,,,,,,,
harvest,264,800084,0.0-79.0-1.0,,null,run_exp/static/images/task_images/gems/37.jpg,null,,,,,,30,,,16,,,,,37,0.815000098,0.810810811,,,,,,,
decision,265,800817,0.0-79.0-2.0,,731.855,run_exp/static/images/task_images/land.jpg,65,,,,,,30,,,16,,,,,,,,105064,2,4,FALSE,,,
dig,266,803094,0.0-80.0-0.0,,,,,,,,,,,"[{""stimulus"":""run_exp/static/images/task_images/dig.jpg"",""time"":0.1900000007590279},{""stimulus"":""run_exp/static/images/task_images/land.jpg"",""time"":763.8649999999907},{""stimulus"":""run_exp/static/images/task_images/dig.jpg"",""time"":1525.6050000007963}]",[],16,,,,,,,,,,,,,,
harvest,267,804099,0.0-80.0-1.0,,null,run_exp/static/images/task_images/gems/30.jpg,null,,,,,,27,,,16,,,,,30,0.885366915,0.9,,,,,,,
decision,268,804695,0.0-80.0-2.0,,594.35,run_exp/static/images/task_images/land.jpg,65,,,,,,27,,,16,,,,,,,,108942,2,5,FALSE,,,
dig,269,807120,0.0-81.0-0.0,,,,,,,,,,,"[{""stimulus"":""run_exp/static/images/task_images/dig.jpg"",""time"":0.17000000015832484},{""stimulus"":""run_exp/static/images/task_images/land.jpg"",""time"":814.2999999999302},{""stimulus"":""run_exp/static/images/task_images/dig.jpg"",""time"":1610.8300000005402}]",[],16,,,,,,,,,,,,,,
harvest,270,808124,0.0-81.0-1.0,,null,run_exp/static/images/task_images/gems/27.jpg,null,,,,,,24,,,16,,,,,27,0.888782324,0.888888889,,,,,,,
decision,271,808694,0.0-81.0-2.0,,567.92,run_exp/static/images/task_images/land.jpg,65,,,,,,24,,,16,,,,,,,,112941,2,6,FALSE,,,
dig,272,811143,0.0-82.0-0.0,,,,,,,,,,,"[{""stimulus"":""run_exp/static/images/task_images/dig.jpg"",""time"":0.14499999990221113},{""stimulus"":""run_exp/static/images/task_images/land.jpg"",""time"":814.9499999999534},{""stimulus"":""run_exp/static/images/task_images/dig.jpg"",""time"":1636.95999999973}]",[],16,,,,,,,,,,,,,,
harvest,273,812159,0.0-82.0-1.0,,null,run_exp/static/images/task_images/gems/24.jpg,null,,,,,,20,,,16,,,,,24,0.837575158,0.833333333,,,,,,,
decision,274,812486,0.0-82.0-2.0,,326.48,run_exp/static/images/task_images/land.jpg,65,,,,,,20,,,16,,,,,,,,116734,2,7,FALSE,,,
dig,275,815179,0.0-83.0-0.0,,,,,,,,,,,"[{""stimulus"":""run_exp/static/images/task_images/dig.jpg"",""time"":0.15499999979510903},{""stimulus"":""run_exp/static/images/task_images/land.jpg"",""time"":901.75},{""stimulus"":""run_exp/static/images/task_images/dig.jpg"",""time"":1786.8300000000745}]",[],16,,,,,,,,,,,,,,
harvest,276,816182,0.0-83.0-1.0,,null,run_exp/static/images/task_images/gems/20.jpg,null,,,,,,17,,,16,,,,,20,0.864644936,0.85,,,,,,,
decision,277,817228,0.0-83.0-2.0,,1044.14,run_exp/static/images/task_images/land.jpg,65,,,,,,17,,,16,,,,,,,,121475,2,8,FALSE,,,
dig,278,819195,0.0-84.0-0.0,,,,,,,,,,,"[{""stimulus"":""run_exp/static/images/task_images/dig.jpg"",""time"":0.14500000001862645},{""stimulus"":""run_exp/static/images/task_images/land.jpg"",""time"":657.6850000000559},{""stimulus"":""run_exp/static/images/task_images/dig.jpg"",""time"":1309.8499999996275}]",[],16,,,,,,,,,,,,,,
harvest,279,820197,0.0-84.0-1.0,,null,run_exp/static/images/task_images/gems/17.jpg,null,,,,,,12,,,16,,,,,17,0.734833645,0.705882353,,,,,,,
decision,280,820837,0.0-84.0-2.0,,638.83,run_exp/static/images/task_images/land.jpg,76,,,,,,12,,,16,,,,,,,,125084,2,9,TRUE,,,
travel,281,830215,0.0-85.0-0.0,,,,,,,,,,,"[{""stimulus"":""run_exp/static/images/task_images/rocket-01.jpg"",""time"":0.17500000004656613},{""stimulus"":""run_exp/static/images/task_images/rocket-02.jpg"",""time"":1052.4899999999907},{""stimulus"":""run_exp/static/images/task_images/rocket-03.jpg"",""time"":2091.1900000000605},{""stimulus"":""run_exp/static/images/task_images/rocket-04.jpg"",""time"":3132.300000000163},{""stimulus"":""run_exp/static/images/task_images/rocket-05.jpg"",""time"":4172.530000000726},{""stimulus"":""run_exp/static/images/task_images/rocket-06.jpg"",""time"":5213.405000000377},{""stimulus"":""run_exp/static/images/task_images/rocket-07.jpg"",""time"":6253.330000000424},{""stimulus"":""run_exp/static/images/task_images/rocket-08.jpg"",""time"":7290.300000000512},{""stimulus"":""run_exp/static/images/task_images/rocket-09.jpg"",""time"":8332.229999999981}]",[],16,,,,,,,,,,,,,,
alien_welcome,282,835218,0.0-85.0-1.0,,null,run_exp/static/images/task_images/aliens/old_aliens/planet/alien_planet-59.jpg,null,,,,,,,,,,,,59,"43,3,55,44,74,24,18,4,56,39,64,49,25,62,2,11,59,73,50,40,15,31,22,66,42,69,52,20,38,48,8,61,35,27,33,41,76,1,37",,,,,,,,,,
land,283,835727,0.0-85.0-2.0,,null,run_exp/static/images/task_images/land.jpg,null,,,,,,101,,,17,,,,,,,,,,,,,,
dig,284,837745,0.0-85.0-3.0,,,,,,,,,,,"[{""stimulus"":""run_exp/static/images/task_images/dig.jpg"",""time"":0.2249999997438863},{""stimulus"":""run_exp/static/images/task_images/land.jpg"",""time"":671.8300000003073},{""stimulus"":""run_exp/static/images/task_images/dig.jpg"",""time"":1341.3399999999674}]",[],17,,,,,,,,,,,,,,
harvest,285,838751,0.0-85.0-4.0,,null,run_exp/static/images/task_images/gems/101.jpg,null,,,,,,85,,,17,,,,,101,0.839348658,0.841584158,,,,,,,
decision,286,839825,0.0-85.0-5.0,,1072.845,run_exp/static/images/task_images/land.jpg,65,,,,,,85,,,17,,,,,,,,144072,2,0,FALSE,,,
dig,287,841769,0.0-86.0-0.0,,,,,,,,,,,"[{""stimulus"":""run_exp/static/images/task_images/dig.jpg"",""time"":0.17000000027474016},{""stimulus"":""run_exp/static/images/task_images/land.jpg"",""time"":648.3150000004098},{""stimulus"":""run_exp/static/images/task_images/dig.jpg"",""time"":1285.7700000003679}]",[],17,,,,,,,,,,,,,,
harvest,288,842770,0.0-86.0-1.0,,null,run_exp/static/images/task_images/gems/85.jpg,null,,,,,,66,,,17,,,,,85,0.77402497,0.776470588,,,,,,,
decision,289,843172,0.0-86.0-2.0,,399.87,run_exp/static/images/task_images/land.jpg,65,,,,,,66,,,17,,,,,,,,147419,2,1,FALSE,,,
dig,290,845781,0.0-87.0-0.0,,,,,,,,,,,"[{""stimulus"":""run_exp/static/images/task_images/dig.jpg"",""time"":0.14999999979045242},{""stimulus"":""run_exp/static/images/task_images/land.jpg"",""time"":876.6299999997718},{""stimulus"":""run_exp/static/images/task_images/dig.jpg"",""time"":1734.894999999553}]",[],17,,,,,,,,,,,,,,
harvest,291,846792,0.0-87.0-1.0,,null,run_exp/static/images/task_images/gems/66.jpg,null,,,,,,53,,,17,,,,,66,0.801308568,0.803030303,,,,,,,
decision,292,848386,0.0-87.0-2.0,,1592.81,run_exp/static/images/task_images/land.jpg,65,,,,,,53,,,17,,,,,,,,152634,2,2,FALSE,,,
dig,293,849808,0.0-88.0-0.0,,,,,,,,,,,"[{""stimulus"":""run_exp/static/images/task_images/dig.jpg"",""time"":0.14000000001396984},{""stimulus"":""run_exp/static/images/task_images/land.jpg"",""time"":481.65000000060536},{""stimulus"":""run_exp/static/images/task_images/dig.jpg"",""time"":948.9650000004331}]",[],17,,,,,,,,,,,,,,
harvest,294,850822,0.0-88.0-1.0,,null,run_exp/static/images/task_images/gems/53.jpg,null,,,,,,40,,,17,,,,,53,0.747876877,0.754716981,,,,,,,
decision,295,850979,0.0-88.0-2.0,,155.36,run_exp/static/images/task_images/land.jpg,65,,,,,,40,,,17,,,,,,,,155226,2,3,FALSE,,,
dig,296,853828,0.0-89.0-0.0,,,,,,,,,,,"[{""stimulus"":""run_exp/static/images/task_images/dig.jpg"",""time"":0.20500000019092113},{""stimulus"":""run_exp/static/images/task_images/land.jpg"",""time"":958.2149999996182},{""stimulus"":""run_exp/static/images/task_images/dig.jpg"",""time"":1906.7850000000326}]",[],17,,,,,,,,,,,,,,
harvest,297,854832,0.0-89.0-1.0,,null,run_exp/static/images/task_images/gems/40.jpg,null,,,,,,34,,,17,,,,,40,0.852646256,0.85,,,,,,,
decision,298,855109,0.0-89.0-2.0,,275.535,run_exp/static/images/task_images/land.jpg,65,,,,,,34,,,17,,,,,,,,159356,2,4,FALSE,,,
dig,299,857840,0.0-90.0-0.0,,,,,,,,,,,"[{""stimulus"":""run_exp/static/images/task_images/dig.jpg"",""time"":0.14000000013038516},{""stimulus"":""run_exp/static/images/task_images/land.jpg"",""time"":911.5650000002934},{""stimulus"":""run_exp/static/images/task_images/dig.jpg"",""time"":1829.3250000005355}]",[],17,,,,,,,,,,,,,,
harvest,300,858842,0.0-90.0-1.0,,null,run_exp/static/images/task_images/gems/34.jpg,null,,,,,,28,,,17,,,,,34,0.812008977,0.823529412,,,,,,,
decision,301,860428,0.0-90.0-2.0,,1584.165,run_exp/static/images/task_images/land.jpg,76,,,,,,28,,,17,,,,,,,,164675,2,5,TRUE,,,
travel,302,868855,0.0-91.0-0.0,,,,,,,,,,,"[{""stimulus"":""run_exp/static/images/task_images/rocket-01.jpg"",""time"":0.18999999971129},{""stimulus"":""run_exp/static/images/task_images/rocket-02.jpg"",""time"":936.0949999999721},{""stimulus"":""run_exp/static/images/task_images/rocket-03.jpg"",""time"":1871.6699999994598},{""stimulus"":""run_exp/static/images/task_images/rocket-04.jpg"",""time"":2809.8950000002515},{""stimulus"":""run_exp/static/images/task_images/rocket-05.jpg"",""time"":3741.5949999995064},{""stimulus"":""run_exp/static/images/task_images/rocket-06.jpg"",""time"":4688.570000000182},{""stimulus"":""run_exp/static/images/task_images/rocket-07.jpg"",""time"":5611.104999999865},{""stimulus"":""run_exp/static/images/task_images/rocket-08.jpg"",""time"":6546.54000000027},{""stimulus"":""run_exp/static/images/task_images/rocket-09.jpg"",""time"":7493.27499999979}]",[],17,,,,,,,,,,,,,,
alien_welcome,303,873862,0.0-91.0-1.0,,null,run_exp/static/images/task_images/aliens/old_aliens/planet/alien_planet-73.jpg,null,,,,,,,,,,,,73,"43,3,55,44,74,24,18,4,56,39,64,49,25,62,2,11,59,73,50,40,15,31,22,66,42,69,52,20,38,48,8,61,35,27,33,41,76,1,37",,,,,,,,,,
land,304,874374,0.0-91.0-2.0,,null,run_exp/static/images/task_images/land.jpg,null,,,,,,97,,,18,,,,,,,,,,,,,,
dig,305,876389,0.0-91.0-3.0,,,,,,,,,,,"[{""stimulus"":""run_exp/static/images/task_images/dig.jpg"",""time"":0.2850000001490116},{""stimulus"":""run_exp/static/images/task_images/land.jpg"",""time"":679.0300000002608},{""stimulus"":""run_exp/static/images/task_images/dig.jpg"",""time"":1345.9250000005122}]",[],18,,,,,,,,,,,,,,
harvest,306,877391,0.0-91.0-4.0,,null,run_exp/static/images/task_images/gems/97.jpg,null,,,,,,79,,,18,,,,,97,0.814802362,0.81443299,,,,,,,
decision,307,879073,0.0-91.0-5.0,,1680.65,run_exp/static/images/task_images/land.jpg,65,,,,,,79,,,18,,,,,,,,183320,2,0,FALSE,,,
dig,308,880407,0.0-92.0-0.0,,,,,,,,,,,"[{""stimulus"":""run_exp/static/images/task_images/dig.jpg"",""time"":0.14999999979045242},{""stimulus"":""run_exp/static/images/task_images/land.jpg"",""time"":449.3249999994878},{""stimulus"":""run_exp/static/images/task_images/dig.jpg"",""time"":881.1349999995437}]",[],18,,,,,,,,,,,,,,
harvest,309,881418,0.0-92.0-1.0,,null,run_exp/static/images/task_images/gems/79.jpg,null,,,,,,59,,,18,,,,,79,0.751854715,0.746835443,,,,,,,
decision,310,881731,0.0-92.0-2.0,,311.76,run_exp/static/images/task_images/land.jpg,65,,,,,,59,,,18,,,,,,,,185978,2,1,FALSE,,,
dig,311,884434,0.0-93.0-0.0,,,,,,,,,,,"[{""stimulus"":""run_exp/static/images/task_images/dig.jpg"",""time"":0.16500000038649887},{""stimulus"":""run_exp/static/images/task_images/land.jpg"",""time"":897.5850000006612},{""stimulus"":""run_exp/static/images/task_images/dig.jpg"",""time"":1799.8050000005169}]",[],18,,,,,,,,,,,,,,
harvest,312,885451,0.0-93.0-1.0,,null,run_exp/static/images/task_images/gems/59.jpg,null,,,,,,46,,,18,,,,,59,0.775065723,0.779661017,,,,,,,
decision,313,885882,0.0-93.0-2.0,,429.425,run_exp/static/images/task_images/land.jpg,65,,,,,,46,,,18,,,,,,,,190129,2,2,FALSE,,,
dig,314,888467,0.0-94.0-0.0,,,,,,,,,,,"[{""stimulus"":""run_exp/static/images/task_images/dig.jpg"",""time"":0.14500000001862645},{""stimulus"":""run_exp/static/images/task_images/land.jpg"",""time"":870.8050000005169},{""stimulus"":""run_exp/static/images/task_images/dig.jpg"",""time"":1715.4900000005728}]",[],18,,,,,,,,,,,,,,
harvest,315,889469,0.0-94.0-1.0,,null,run_exp/static/images/task_images/gems/46.jpg,null,,,,,,36,,,18,,,,,46,0.786888756,0.782608696,,,,,,,
decision,316,889982,0.0-94.0-2.0,,510.96,run_exp/static/images/task_images/land.jpg,65,,,,,,36,,,18,,,,,,,,194229,2,3,FALSE,,,
dig,317,892478,0.0-95.0-0.0,,,,,,,,,,,"[{""stimulus"":""run_exp/static/images/task_images/dig.jpg"",""time"":0.1649999994551763},{""stimulus"":""run_exp/static/images/task_images/land.jpg"",""time"":831.5299999994459},{""stimulus"":""run_exp/static/images/task_images/dig.jpg"",""time"":1671.515000000014}]",[],18,,,,,,,,,,,,,,
harvest,318,893480,0.0-95.0-1.0,,null,run_exp/static/images/task_images/gems/36.jpg,null,,,,,,30,,,18,,,,,36,0.838823992,0.833333333,,,,,,,
decision,319,893708,0.0-95.0-2.0,,227.05,run_exp/static/images/task_images/land.jpg,76,,,,,,30,,,18,,,,,,,,197955,2,4,TRUE,,,
travel,320,903483,0.0-96.0-0.0,,,,,,,,,,,"[{""stimulus"":""run_exp/static/images/task_images/rocket-01.jpg"",""time"":0.14499999990221113},{""stimulus"":""run_exp/static/images/task_images/rocket-02.jpg"",""time"":1094.4500000005355},{""stimulus"":""run_exp/static/images/task_images/rocket-03.jpg"",""time"":2180.175000000396},{""stimulus"":""run_exp/static/images/task_images/rocket-04.jpg"",""time"":3267.1800000007497},{""stimulus"":""run_exp/static/images/task_images/rocket-05.jpg"",""time"":4353.425000000163},{""stimulus"":""run_exp/static/images/task_images/rocket-06.jpg"",""time"":5439.895000000368},{""stimulus"":""run_exp/static/images/task_images/rocket-07.jpg"",""time"":6512.964999999851},{""stimulus"":""run_exp/static/images/task_images/rocket-08.jpg"",""time"":7599.3100000005215},{""stimulus"":""run_exp/static/images/task_images/rocket-09.jpg"",""time"":8685.460000000545}]",[],18,,,,,,,,,,,,,,
alien_welcome,321,908485,0.0-96.0-1.0,,null,run_exp/static/images/task_images/aliens/old_aliens/planet/alien_planet-50.jpg,null,,,,,,,,,,,,50,"43,3,55,44,74,24,18,4,56,39,64,49,25,62,2,11,59,73,50,40,15,31,22,66,42,69,52,20,38,48,8,61,35,27,33,41,76,1,37",,,,,,,,,,
land,322,908987,0.0-96.0-2.0,,null,run_exp/static/images/task_images/land.jpg,null,,,,,,97,,,19,,,,,,,,,,,,,,
dig,323,911005,0.0-96.0-3.0,,,,,,,,,,,"[{""stimulus"":""run_exp/static/images/task_images/dig.jpg"",""time"":0.20500000030733645},{""stimulus"":""run_exp/static/images/task_images/land.jpg"",""time"":680.1699999996927},{""stimulus"":""run_exp/static/images/task_images/dig.jpg"",""time"":1335.6350000003586}]",[],19,,,,,,,,,,,,,,
harvest,324,912014,0.0-96.0-4.0,,null,run_exp/static/images/task_images/gems/97.jpg,null,,,,,,82,,,19,,,,,97,0.845119448,0.845360825,,,,,,,
decision,325,912779,0.0-96.0-5.0,,763.895,run_exp/static/images/task_images/land.jpg,65,,,,,,82,,,19,,,,,,,,217026,2,0,FALSE,,,
dig,326,915033,0.0-97.0-0.0,,,,,,,,,,,"[{""stimulus"":""run_exp/static/images/task_images/dig.jpg"",""time"":0.14000000013038516},{""stimulus"":""run_exp/static/images/task_images/land.jpg"",""time"":759.7999999998137},{""stimulus"":""run_exp/static/images/task_images/dig.jpg"",""time"":1505.8200000004144}]",[],19,,,,,,,,,,,,,,
harvest,327,916035,0.0-97.0-1.0,,null,run_exp/static/images/task_images/gems/82.jpg,null,,,,,,62,,,19,,,,,82,0.760767853,0.756097561,,,,,,,
decision,328,916127,0.0-97.0-2.0,,89.935,run_exp/static/images/task_images/land.jpg,65,,,,,,62,,,19,,,,,,,,220374,2,1,FALSE,,,
dig,329,919046,0.0-98.0-0.0,,,,,,,,,,,"[{""stimulus"":""run_exp/static/images/task_images/dig.jpg"",""time"":0.14499999990221113},{""stimulus"":""run_exp/static/images/task_images/land.jpg"",""time"":982.8200000001816},{""stimulus"":""run_exp/static/images/task_images/dig.jpg"",""time"":1949.5250000000233}]",[],19,,,,,,,,,,,,,,
harvest,330,920047,0.0-98.0-1.0,,null,run_exp/static/images/task_images/gems/62.jpg,null,,,,,,49,,,19,,,,,62,0.787178318,0.790322581,,,,,,,
decision,331,920638,0.0-98.0-2.0,,588.96,run_exp/static/images/task_images/land.jpg,65,,,,,,49,,,19,,,,,,,,224885,2,2,FALSE,,,
dig,332,923053,0.0-99.0-0.0,,,,,,,,,,,"[{""stimulus"":""run_exp/static/images/task_images/dig.jpg"",""time"":0.17999999993480742},{""stimulus"":""run_exp/static/images/task_images/land.jpg"",""time"":813.8650000001071},{""stimulus"":""run_exp/static/images/task_images/dig.jpg"",""time"":1619.6149999996414}]",[],19,,,,,,,,,,,,,,
harvest,333,924061,0.0-99.0-1.0,,null,run_exp/static/images/task_images/gems/49.jpg,null,,,,,,39,,,19,,,,,49,0.794073944,0.795918367,,,,,,,
decision,334,925325,0.0-99.0-2.0,,1262.155,run_exp/static/images/task_images/land.jpg,65,,,,,,39,,,19,,,,,,,,229572,2,3,FALSE,,,
dig,335,927075,0.0-100.0-0.0,,,,,,,,,,,"[{""stimulus"":""run_exp/static/images/task_images/dig.jpg"",""time"":0.14499999990221113},{""stimulus"":""run_exp/static/images/task_images/land.jpg"",""time"":580.074999999837},{""stimulus"":""run_exp/static/images/task_images/dig.jpg"",""time"":1171.8799999998882}]",[],19,,,,,,,,,,,,,,
harvest,336,928079,0.0-100.0-1.0,,null,run_exp/static/images/task_images/gems/39.jpg,null,,,,,,31,,,19,,,,,39,0.799967589,0.794871795,,,,,,,
decision,337,928630,0.0-100.0-2.0,,550.035,run_exp/static/images/task_images/land.jpg,76,,,,,,31,,,19,,,,,,,,232877,2,4,TRUE,,,
travel,338,938078,0.0-101.0-0.0,,,,,,,,,,,"[{""stimulus"":""run_exp/static/images/task_images/rocket-01.jpg"",""time"":0.159999999566935},{""stimulus"":""run_exp/static/images/task_images/rocket-02.jpg"",""time"":1062.0499999994645},{""stimulus"":""run_exp/static/images/task_images/rocket-03.jpg"",""time"":2104.3499999996275},{""stimulus"":""run_exp/static/images/task_images/rocket-04.jpg"",""time"":3162.804999999935},{""stimulus"":""run_exp/static/images/task_images/rocket-05.jpg"",""time"":4204.569999999832},{""stimulus"":""run_exp/static/images/task_images/rocket-06.jpg"",""time"":5248.749999999767},{""stimulus"":""run_exp/static/images/task_images/rocket-07.jpg"",""time"":6295.070000000065},{""stimulus"":""run_exp/static/images/task_images/rocket-08.jpg"",""time"":7344.759999999893},{""stimulus"":""run_exp/static/images/task_images/rocket-09.jpg"",""time"":8392.964999999967}]",[],19,,,,,,,,,,,,,,
alien_welcome,339,943093,0.0-101.0-1.0,,null,run_exp/static/images/task_images/aliens/old_aliens/planet/alien_planet-40.jpg,null,,,,,,,,,,,,40,"43,3,55,44,74,24,18,4,56,39,64,49,25,62,2,11,59,73,50,40,15,31,22,66,42,69,52,20,38,48,8,61,35,27,33,41,76,1,37",,,,,,,,,,
land,340,943595,0.0-101.0-2.0,,null,run_exp/static/images/task_images/land.jpg,null,,,,,,108,,,20,,,,,,,,,,,,,,
dig,341,945599,0.0-101.0-3.0,,,,,,,,,,,"[{""stimulus"":""run_exp/static/images/task_images/dig.jpg"",""time"":0.23000000056345016},{""stimulus"":""run_exp/static/images/task_images/land.jpg"",""time"":674.0099999996601},{""stimulus"":""run_exp/static/images/task_images/dig.jpg"",""time"":1339.7700000004843}]",[],20,,,,,,,,,,,,,,
harvest,342,946601,0.0-101.0-4.0,,null,run_exp/static/images/task_images/gems/108.jpg,null,,,,,,82,,,20,,,,,108,0.759951503,0.759259259,,,,,,,
decision,343,949602,0.0-101.0-5.0,,null,run_exp/static/images/task_images/land.jpg,null,,,,,,82,,,20,,,,,,,,253849,2,0,FALSE,,,
time_out,344,951611,0.0-102.0-0.0,,null,run_exp/static/images/task_images/time_out.jpg,null,,,,,,82,,,,,,,,,,,,,,,,,
decision,345,951825,0.0-102.0-1.0,,212.38,run_exp/static/images/task_images/land.jpg,65,,,,,,82,,,20,,,,,,,,256072,2,0,FALSE,,,
dig,346,954627,0.0-103.0-0.0,,,,,,,,,,,"[{""stimulus"":""run_exp/static/images/task_images/dig.jpg"",""time"":0.13500000024214387},{""stimulus"":""run_exp/static/images/task_images/land.jpg"",""time"":944.3149999997113},{""stimulus"":""run_exp/static/images/task_images/dig.jpg"",""time"":1866.4850000004517}]",[],20,,,,,,,,,,,,,,
harvest,347,955629,0.0-103.0-1.0,,null,run_exp/static/images/task_images/gems/82.jpg,null,,,,,,73,,,20,,,,,82,0.884367035,0.890243902,,,,,,,
decision,348,958633,0.0-103.0-2.0,,null,run_exp/static/images/task_images/land.jpg,null,,,,,,73,,,20,,,,,,,,262880,2,1,FALSE,,,
time_out,349,960644,0.0-104.0-0.0,,null,run_exp/static/images/task_images/time_out.jpg,null,,,,,,73,,,,,,,,,,,,,,,,,
decision,350,962024,0.0-104.0-1.0,,1378.245,run_exp/static/images/task_images/land.jpg,65,,,,,,73,,,20,,,,,,,,266271,2,1,FALSE,,,
dig,351,963659,0.0-105.0-0.0,,,,,,,,,,,"[{""stimulus"":""run_exp/static/images/task_images/dig.jpg"",""time"":0.14500000001862645},{""stimulus"":""run_exp/static/images/task_images/land.jpg"",""time"":542.6850000004051},{""stimulus"":""run_exp/static/images/task_images/dig.jpg"",""time"":1084.6850000007544}]",[],20,,,,,,,,,,,,,,
harvest,352,964660,0.0-105.0-1.0,,null,run_exp/static/images/task_images/gems/73.jpg,null,,,,,,57,,,20,,,,,73,0.782631066,0.780821918,,,,,,,
decision,353,966946,0.0-105.0-2.0,,2284.115,run_exp/static/images/task_images/land.jpg,65,,,,,,57,,,20,,,,,,,,271193,2,2,FALSE,,,
dig,354,967671,0.0-106.0-0.0,,,,,,,,,,,"[{""stimulus"":""run_exp/static/images/task_images/dig.jpg"",""time"":0.14500000001862645},{""stimulus"":""run_exp/static/images/task_images/land.jpg"",""time"":254.0250000002561},{""stimulus"":""run_exp/static/images/task_images/dig.jpg"",""time"":488.01499999989755}]",[],20,,,,,,,,,,,,,,
harvest,355,968688,0.0-106.0-1.0,,null,run_exp/static/images/task_images/gems/57.jpg,null,,,,,,47,,,20,,,,,57,0.823637201,0.824561404,,,,,,,
decision,356,969804,0.0-106.0-2.0,,1114.625,run_exp/static/images/task_images/land.jpg,65,,,,,,47,,,20,,,,,,,,274051,2,3,FALSE,,,
dig,357,971702,0.0-107.0-0.0,,,,,,,,,,,"[{""stimulus"":""run_exp/static/images/task_images/dig.jpg"",""time"":0.14499999990221113},{""stimulus"":""run_exp/static/images/task_images/land.jpg"",""time"":634.2649999996647},{""stimulus"":""run_exp/static/images/task_images/dig.jpg"",""time"":1258.5549999993527}]",[],20,,,,,,,,,,,,,,
harvest,358,972705,0.0-107.0-1.0,,null,run_exp/static/images/task_images/gems/47.jpg,null,,,,,,34,,,20,,,,,47,0.726670726,0.723404255,,,,,,,
decision,359,973215,0.0-107.0-2.0,,508.81,run_exp/static/images/task_images/land.jpg,76,,,,,,34,,,20,,,,,,,,277462,2,4,TRUE,,,
travel,360,982721,0.0-108.0-0.0,,,,,,,,,,,"[{""stimulus"":""run_exp/static/images/task_images/rocket-01.jpg"",""time"":0.14500000001862645},{""stimulus"":""run_exp/static/images/task_images/rocket-02.jpg"",""time"":1057.9649999999674},{""stimulus"":""run_exp/static/images/task_images/rocket-03.jpg"",""time"":2115.0749999997206},{""stimulus"":""run_exp/static/images/task_images/rocket-04.jpg"",""time"":3171.6299999998882},{""stimulus"":""run_exp/static/images/task_images/rocket-05.jpg"",""time"":4220.604999999632},{""stimulus"":""run_exp/static/images/task_images/rocket-06.jpg"",""time"":5271.445000000414},{""stimulus"":""run_exp/static/images/task_images/rocket-07.jpg"",""time"":6328.739999999991},{""stimulus"":""run_exp/static/images/task_images/rocket-08.jpg"",""time"":7386.969999999623},{""stimulus"":""run_exp/static/images/task_images/rocket-09.jpg"",""time"":8442.109999999986}]",[],20,,,,,,,,,,,,,,
alien_welcome,361,987722,0.0-108.0-1.0,,null,run_exp/static/images/task_images/aliens/old_aliens/planet/alien_planet-15.jpg,null,,,,,,,,,,,,15,"43,3,55,44,74,24,18,4,56,39,64,49,25,62,2,11,59,73,50,40,15,31,22,66,42,69,52,20,38,48,8,61,35,27,33,41,76,1,37",,,,,,,,,,
land,362,988224,0.0-108.0-2.0,,null,run_exp/static/images/task_images/land.jpg,null,,,,,,99,,,21,,,,,,,,,,,,,,
dig,363,990230,0.0-108.0-3.0,,,,,,,,,,,"[{""stimulus"":""run_exp/static/images/task_images/dig.jpg"",""time"":0.22500000067520887},{""stimulus"":""run_exp/static/images/task_images/land.jpg"",""time"":680.2200000002049},{""stimulus"":""run_exp/static/images/task_images/dig.jpg"",""time"":1335.7200000000885}]",[],21,,,,,,,,,,,,,,
harvest,364,991234,0.0-108.0-4.0,,null,run_exp/static/images/task_images/gems/99.jpg,null,,,,,,44,,,21,,,,,99,0.439559431,0.444444444,,,,,,,
decision,365,991881,0.0-108.0-5.0,,646.065,run_exp/static/images/task_images/land.jpg,65,,,,,,44,,,21,,,,,,,,296129,2,0,FALSE,,,
dig,366,994240,0.0-109.0-0.0,,,,,,,,,,,"[{""stimulus"":""run_exp/static/images/task_images/dig.jpg"",""time"":0.14500000001862645},{""stimulus"":""run_exp/static/images/task_images/land.jpg"",""time"":797.5649999999441},{""stimulus"":""run_exp/static/images/task_images/dig.jpg"",""time"":1575.8749999996508}]",[],21,,,,,,,,,,,,,,
harvest,367,995246,0.0-109.0-1.0,,null,run_exp/static/images/task_images/gems/44.jpg,null,,,,,,20,,,21,,,,,44,0.451000155,0.454545455,,,,,,,
decision,368,995264,0.0-109.0-2.0,,16.08,run_exp/static/images/task_images/land.jpg,65,,,,,,20,,,21,,,,,,,,299511,2,1,FALSE,,,
dig,369,998264,0.0-110.0-0.0,,,,,,,,,,,"[{""stimulus"":""run_exp/static/images/task_images/dig.jpg"",""time"":0.14000000013038516},{""stimulus"":""run_exp/static/images/task_images/land.jpg"",""time"":1005.2649999997811},{""stimulus"":""run_exp/static/images/task_images/dig.jpg"",""time"":1998.504999999539}]",[],21,,,,,,,,,,,,,,
harvest,370,999277,0.0-110.0-1.0,,null,run_exp/static/images/task_images/gems/20.jpg,null,,,,,,9,,,21,,,,,20,0.453192551,0.45,,,,,,,
decision,371,999780,0.0-110.0-2.0,,501.19,run_exp/static/images/task_images/land.jpg,76,,,,,,9,,,21,,,,,,,,304027,2,2,TRUE,,,
end_of_block_continue,372,1008635,0.0-111.0-0.0,,null,run_exp/static/audio/clip_32_block_end.m4a,,,,,,null,,,,,,,,,,,,,,,,,,
alien_welcome,373,1013652,0.0-112.0-0.0,,null,run_exp/static/images/task_images/aliens/old_aliens/planet/alien_planet-31.jpg,null,,,,,,,,,,,,31,"43,3,55,44,74,24,18,4,56,39,64,49,25,62,2,11,59,73,50,40,15,31,22,66,42,69,52,20,38,48,8,61,35,27,33,41,76,1,37",,,,,,,,,,
land,374,1014167,0.0-112.0-1.0,,null,run_exp/static/images/task_images/land.jpg,null,,,,,,106,,,22,,,,,,,,,,,,,,
dig,375,1016170,0.0-112.0-2.0,,,,,,,,,,,"[{""stimulus"":""run_exp/static/images/task_images/dig.jpg"",""time"":0.2149999998509884},{""stimulus"":""run_exp/static/images/task_images/land.jpg"",""time"":682.2299999992829},{""stimulus"":""run_exp/static/images/task_images/dig.jpg"",""time"":1335.8449999995064}]",[],22,,,,,,,,,,,,,,
harvest,376,1017173,0.0-112.0-3.0,,null,run_exp/static/images/task_images/gems/106.jpg,null,,,,,,56,,,22,,,,,106,0.530324388,0.528301887,,,,,,,
decision,377,1017211,0.0-112.0-4.0,,36.465,run_exp/static/images/task_images/land.jpg,65,,,,,,56,,,22,,,,,,,,8569,3,0,FALSE,,,
dig,378,1020185,0.0-113.0-0.0,,,,,,,,,,,"[{""stimulus"":""run_exp/static/images/task_images/dig.jpg"",""time"":0.17500000027939677},{""stimulus"":""run_exp/static/images/task_images/land.jpg"",""time"":997.3600000003353},{""stimulus"":""run_exp/static/images/task_images/dig.jpg"",""time"":1976.0350000006147}]",[],22,,,,,,,,,,,,,,
harvest,379,1021190,0.0-113.0-1.0,,null,run_exp/static/images/task_images/gems/56.jpg,null,,,,,,29,,,22,,,,,56,0.520515025,0.517857143,,,,,,,
decision,380,1021431,0.0-113.0-2.0,,239.48,run_exp/static/images/task_images/land.jpg,65,,,,,,29,,,22,,,,,,,,12789,3,1,FALSE,,,
dig,381,1024205,0.0-114.0-0.0,,,,,,,,,,,"[{""stimulus"":""run_exp/static/images/task_images/dig.jpg"",""time"":0.13999999989755452},{""stimulus"":""run_exp/static/images/task_images/land.jpg"",""time"":933.5899999996182},{""stimulus"":""run_exp/static/images/task_images/dig.jpg"",""time"":1848.5049999998882}]",[],22,,,,,,,,,,,,,,
harvest,382,1025210,0.0-114.0-1.0,,null,run_exp/static/images/task_images/gems/29.jpg,null,,,,,,15,,,22,,,,,29,0.533881976,0.517241379,,,,,,,
decision,383,1025862,0.0-114.0-2.0,,650.33,run_exp/static/images/task_images/land.jpg,65,,,,,,15,,,22,,,,,,,,17220,3,2,FALSE,,,
dig,384,1028225,0.0-115.0-0.0,,,,,,,,,,,"[{""stimulus"":""run_exp/static/images/task_images/dig.jpg"",""time"":0.17500000004656613},{""stimulus"":""run_exp/static/images/task_images/land.jpg"",""time"":785.8349999997299},{""stimulus"":""run_exp/static/images/task_images/dig.jpg"",""time"":1580.9399999997113}]",[],22,,,,,,,,,,,,,,
harvest,385,1029227,0.0-115.0-1.0,,null,run_exp/static/images/task_images/gems/15.jpg,null,,,,,,8,,,22,,,,,15,0.55953196,0.533333333,,,,,,,
decision,386,1030226,0.0-115.0-2.0,,998.375,run_exp/static/images/task_images/land.jpg,76,,,,,,8,,,22,,,,,,,,21585,3,3,TRUE,,,
travel,387,1039239,0.0-116.0-0.0,,,,,,,,,,,"[{""stimulus"":""run_exp/static/images/task_images/rocket-01.jpg"",""time"":0.14500000001862645},{""stimulus"":""run_exp/static/images/task_images/rocket-02.jpg"",""time"":1010.6949999998324},{""stimulus"":""run_exp/static/images/task_images/rocket-03.jpg"",""time"":2012.2299999992829},{""stimulus"":""run_exp/static/images/task_images/rocket-04.jpg"",""time"":3009.1899999997113},{""stimulus"":""run_exp/static/images/task_images/rocket-05.jpg"",""time"":4001.41999999946},{""stimulus"":""run_exp/static/images/task_images/rocket-06.jpg"",""time"":5007.735000000102},{""stimulus"":""run_exp/static/images/task_images/rocket-07.jpg"",""time"":6013.419999999227},{""stimulus"":""run_exp/static/images/task_images/rocket-08.jpg"",""time"":7001.909999999916},{""stimulus"":""run_exp/static/images/task_images/rocket-09.jpg"",""time"":8008.624999999534}]",[],22,,,,,,,,,,,,,,
alien_welcome,388,1044242,0.0-116.0-1.0,,null,run_exp/static/images/task_images/aliens/old_aliens/planet/alien_planet-22.jpg,null,,,,,,,,,,,,22,"43,3,55,44,74,24,18,4,56,39,64,49,25,62,2,11,59,73,50,40,15,31,22,66,42,69,52,20,38,48,8,61,35,27,33,41,76,1,37",,,,,,,,,,
land,389,1044744,0.0-116.0-2.0,,null,run_exp/static/images/task_images/land.jpg,null,,,,,,108,,,23,,,,,,,,,,,,,,
dig,390,1046747,0.0-116.0-3.0,,,,,,,,,,,"[{""stimulus"":""run_exp/static/images/task_images/dig.jpg"",""time"":0.23500000056810677},{""stimulus"":""run_exp/static/images/task_images/land.jpg"",""time"":669.9850000005681},{""stimulus"":""run_exp/static/images/task_images/dig.jpg"",""time"":1342.4650000007823}]",[],23,,,,,,,,,,,,,,
harvest,391,1047750,0.0-116.0-4.0,,null,run_exp/static/images/task_images/gems/108.jpg,null,,,,,,96,,,23,,,,,108,0.890961298,0.888888889,,,,,,,
decision,392,1047929,0.0-116.0-5.0,,177.13,run_exp/static/images/task_images/land.jpg,65,,,,,,96,,,23,,,,,,,,39287,3,0,FALSE,,,
dig,393,1050766,0.0-117.0-0.0,,,,,,,,,,,"[{""stimulus"":""run_exp/static/images/task_images/dig.jpg"",""time"":0.15999999968335032},{""stimulus"":""run_exp/static/images/task_images/land.jpg"",""time"":941.9650000000838},{""stimulus"":""run_exp/static/images/task_images/dig.jpg"",""time"":1881.9699999995064}]",[],23,,,,,,,,,,,,,,
harvest,394,1051768,0.0-117.0-1.0,,null,run_exp/static/images/task_images/gems/96.jpg,null,,,,,,81,,,23,,,,,96,0.846060021,0.84375,,,,,,,
decision,395,1051938,0.0-117.0-2.0,,169.075,run_exp/static/images/task_images/land.jpg,65,,,,,,81,,,23,,,,,,,,43296,3,1,FALSE,,,
dig,396,1054783,0.0-118.0-0.0,,,,,,,,,,,"[{""stimulus"":""run_exp/static/images/task_images/dig.jpg"",""time"":0.1550000007264316},{""stimulus"":""run_exp/static/images/task_images/land.jpg"",""time"":946.0550000004005},{""stimulus"":""run_exp/static/images/task_images/dig.jpg"",""time"":1892.295000000624}]",[],23,,,,,,,,,,,,,,
harvest,397,1055785,0.0-118.0-1.0,,null,run_exp/static/images/task_images/gems/81.jpg,null,,,,,,53,,,23,,,,,81,0.658582254,0.654320988,,,,,,,
decision,398,1055947,0.0-118.0-2.0,,159.39,run_exp/static/images/task_images/land.jpg,65,,,,,,53,,,23,,,,,,,,47305,3,2,FALSE,,,
