trial_type,trial_index,time_elapsed,internal_node_id,success,rt,stimulus,key_press,prompt,subject_id,age,gender,button_pressed,next_reward,animation_sequence,responses,planet,curr_prac_trial,n_prac_rounds,alien,aliens,reward_received,decay_rate_actual,decay_rate_exp,time_in_block,block_num,prt,last_trial_on_planet,button_html,bonus,num_failures
pavlovia,0,9,0.0-0.0,,,,,,,,,,,,,,,,,,,,,,,,,,,
fullscreen,1,11868,0.0-1.0,TRUE,,,,,,,,,,,,,,,,,,,,,,,,,,
instruc_welcome,2,21772,0.0-2.0,,null,run_exp/static/audio/clip_1_welcome.m4a,null,"<p>Howdy! In this experiment, you’ll be an explorer traveling through space to collect space treasure.</p><p>Your mission is to collect as much treasure as possible.</p><br><br><p><img src='run_exp/static/images/task_images/opening_img-01.jpg' height='300' width='auto'></p>",qg0xa3LZw5abJIK_1Y3uCvx5VSxv8Zo_MLRP_9U2eitTpoj5eP1c,12.26,male,,,,,,,,,,,,,,,,,,,
audio-keyboard-response,3,38410,0.0-3.0,,null,run_exp/static/audio/clip_2_move.m4a,null,,,,,,,,,,,,,,,,,,,,,,,
welcome_dec,4,43406,0.0-4.0,,4988.2,"<p>Howdy! In this experiment, you’ll be an explorer traveling through space to collect space treasure.</p><p>Your mission is to collect as much treasure as possible.</p><br><br><p><img src='run_exp/static/images/task_images/opening_img-01.jpg' height='300' width='auto'></p>",,,,,,1,,,,,,,,,,,,,,,,,,
html-keyboard-response,5,44909,0.0-5.0,,1499.3,"<p>Howdy! In this experiment, you’ll be an explorer traveling through space to collect space treasure.</p><p>Your mission is to collect as much treasure as possible.</p><br><br><p><img src='run_exp/static/images/task_images/opening_img-01.jpg' height='300' width='auto'></p><button class=""jspsych-html-btn-unchosen""><img src=""run_exp/static/images/task_images/planet-01.jpg"" height=""50""></button><button class=""jspsych-html-btn-chosen""><img src=""run_exp/static/images/task_images/planet-02.jpg"" height=""50""></button><p><b>[press the space bar to lock in your answer]<b><br></p>",32,,,,,,,,,,,,,,,,,,,,,,,
instruc_goal,6,54991,0.0-6.0-0.0,,null,run_exp/static/audio/clip_3_goal.m4a,null,"<p> As a space explorer, you’ll visit different planets to dig for space treasure, these pink gems.</p> <p> The more treasure you dig up, the more bonus money you’ll win! </p><br><br><p><img src='run_exp/static/images/task_images/pink_gem.jpg' height='300' width='auto'></p>",,,,,,,,,,,,,,,,,,,,,,
instruc_goal,7,58060,0.0-6.0-1.0,,3062.5,"<p> As a space explorer, you’ll visit different planets to dig for space treasure, these pink gems.</p> <p> The more treasure you dig up, the more bonus money you’ll win! </p><br><br><p><img src='run_exp/static/images/task_images/pink_gem.jpg' height='300' width='auto'></p>",,,,,,1,,,,,,,,,,,,,,,,,,
html-keyboard-response,8,58712,0.0-6.0-2.0,,649.7,"<p> As a space explorer, you’ll visit different planets to dig for space treasure, these pink gems.</p> <p> The more treasure you dig up, the more bonus money you’ll win! </p><br><br><p><img src='run_exp/static/images/task_images/pink_gem.jpg' height='300' width='auto'></p><button class=""jspsych-html-btn-unchosen""><img src=""run_exp/static/images/task_images/planet-01.jpg"" height=""50""></button><button class=""jspsych-html-btn-chosen""><img src=""run_exp/static/images/task_images/planet-02.jpg"" height=""50""></button><p><b>[press the space bar to lock in your answer]<b><br></p>",32,,,,,,,,,,,,,,,,,,,,,,,
instruc_dig,9,74750,0.0-7.0-0.0,,null,run_exp/static/audio/clip_4_dig.m4a,null,,,,,,100,,,,,,,,,,,,,,,,,
instruc_dig_try,10,75328,0.0-7.0-1.0,,571.1,"<p> When you’ve arrived at a new planet, you will dig once. </p> <p>Then, you get to decide if you want to stay on the planet and dig again or travel to a new planet and dig there.</p> <p> To stay and dig, press the letter <strong>‘A’</strong> on your keyboard. Try pressing it now! </p><p><img src='run_exp/static/images/task_images/land.jpg'  height='700' width='auto'></p>",65,"<p> When you’ve arrived at a new planet, you will dig once. </p> <p>Then, you get to decide if you want to stay on the planet and dig again or travel to a new planet and dig there.</p> <p> To stay and dig, press the letter <strong>‘A’</strong> on your keyboard. Try pressing it now! </p><p><img src='run_exp/static/images/task_images/land.jpg'  height='700' width='auto'></p>",,,,,100,,,,,,,,,,,,,,,,,
dig_prac,11,77365,0.0-7.0-2.0,,,,,,,,,,,"[{""stimulus"":""run_exp/static/images/task_images/dig.jpg"",""time"":0.800000011920929},{""stimulus"":""run_exp/static/images/task_images/land.jpg"",""time"":669},{""stimulus"":""run_exp/static/images/task_images/dig.jpg"",""time"":1354.3999999761581}]",[],,,,,,,,,,,,,,,
instruc_travel,12,113625,0.0-7.0-3.0,,null,run_exp/static/audio/clip_5_travel.m4a,null,"<p>Every time you dig up gems, there are less gems on the planet, so the more you dig on a planet the fewer gems you’ll get with each dig.</p><p>When gems are running low, you may want to travel to a new planet. </p> <p>  Planets are very far apart in this galaxy, so it will take some time to travel between them. </p> <br><p>There are lots and lots of planets for you to visit, so you won’t be able to return to any planets you’ve seen before. </p><br><p>To leave this planet and travel to a new one, press the letter <strong>‘L’</strong> on your keyboard. Try pressing it now! </p><p><img src='run_exp/static/images/task_images/rocket-01.jpg'  height='600' width='auto'></p>",,,,,,,,,,,,,,,,,,,,,,
instruc_travel_try,13,116752,0.0-7.0-4.0,,3121.6,"<p>Every time you dig up gems, there are less gems on the planet, so the more you dig on a planet the fewer gems you’ll get with each dig.</p><p>When gems are running low, you may want to travel to a new planet. </p> <p>  Planets are very far apart in this galaxy, so it will take some time to travel between them. </p> <br><p>There are lots and lots of planets for you to visit, so you won’t be able to return to any planets you’ve seen before. </p><br><p>To leave this planet and travel to a new one, press the letter <strong>‘L’</strong> on your keyboard. Try pressing it now! </p><p><img src='run_exp/static/images/task_images/rocket-01.jpg'  height='600' width='auto'></p>",76,"<p>Every time you dig up gems, there are less gems on the planet, so the more you dig on a planet the fewer gems you’ll get with each dig.</p><p>When gems are running low, you may want to travel to a new planet. </p> <p>  Planets are very far apart in this galaxy, so it will take some time to travel between them. </p> <br><p>There are lots and lots of planets for you to visit, so you won’t be able to return to any planets you’ve seen before. </p><br><p>To leave this planet and travel to a new one, press the letter <strong>‘L’</strong> on your keyboard. Try pressing it now! </p><p><img src='run_exp/static/images/task_images/rocket-01.jpg'  height='600' width='auto'></p>",,,,,,,,,,,,,,,,,,,,,,
travel_prac,14,126772,0.0-7.0-5.0,,,,,,,,,,,"[{""stimulus"":""run_exp/static/images/task_images/rocket-01.jpg"",""time"":0.6000000238418579},{""stimulus"":""run_exp/static/images/task_images/rocket-02.jpg"",""time"":1115.6000000238419},{""stimulus"":""run_exp/static/images/task_images/rocket-03.jpg"",""time"":2231.899999976158},{""stimulus"":""run_exp/static/images/task_images/rocket-04.jpg"",""time"":3355.5},{""stimulus"":""run_exp/static/images/task_images/rocket-05.jpg"",""time"":4461.399999976158},{""stimulus"":""run_exp/static/images/task_images/rocket-06.jpg"",""time"":5565.600000023842},{""stimulus"":""run_exp/static/images/task_images/rocket-07.jpg"",""time"":6685.800000011921},{""stimulus"":""run_exp/static/images/task_images/rocket-08.jpg"",""time"":7786},{""stimulus"":""run_exp/static/images/task_images/rocket-09.jpg"",""time"":8896.300000011921}]",[],0,,,,,,,,,,,,,,
instruc_alien_greet,15,153996,0.0-7.0-6.0,,null,run_exp/static/audio/clip_6_alien.m4a,null,"<p>When you arrive at a new planet, the alien who owns the treasure mine on that planet will greet you!</p><p>The better an alien takes care of their mine the easier it is to dig for gems. Some aliens take better care of their mine than others. So, you won’t get exactly the same amount of gems on each planet.</p><p>What the alien looks like does not tell you anything about how many gems there are on the planet.</p><br><p><img src=""run_exp/static/images/task_images/aliens/instructions_aliens/planet/alien_planet-1.jpg""  height=""600"" width=""auto""></p>",,,,,,,,,,,,,,,,,,,,,,
instruc_alien_greet,16,159360,0.0-7.0-7.0,,5355.8,"<p>When you arrive at a new planet, the alien who owns the treasure mine on that planet will greet you!</p><p>The better an alien takes care of their mine the easier it is to dig for gems. Some aliens take better care of their mine than others. So, you won’t get exactly the same amount of gems on each planet.</p><p>What the alien looks like does not tell you anything about how many gems there are on the planet.</p><br><p><img src=""run_exp/static/images/task_images/aliens/instructions_aliens/planet/alien_planet-1.jpg""  height=""600"" width=""auto""></p>",,,,,,1,,,,,,,,,,,,,,,,,,
html-keyboard-response,17,161039,0.0-7.0-8.0,,1674.9,"<p>When you arrive at a new planet, the alien who owns the treasure mine on that planet will greet you!</p><p>The better an alien takes care of their mine the easier it is to dig for gems. Some aliens take better care of their mine than others. So, you won’t get exactly the same amount of gems on each planet.</p><p>What the alien looks like does not tell you anything about how many gems there are on the planet.</p><br><p><img src=""run_exp/static/images/task_images/aliens/instructions_aliens/planet/alien_planet-1.jpg""  height=""600"" width=""auto""></p><button class=""jspsych-html-btn-unchosen""><img src=""run_exp/static/images/task_images/planet-01.jpg"" height=""50""></button><button class=""jspsych-html-btn-chosen""><img src=""run_exp/static/images/task_images/planet-02.jpg"" height=""50""></button><p><b>[press the space bar to lock in your answer]<b><br></p>",32,,,,,,,,,,,,,,,,,,,,,,,
time_out,18,172176,0.0-8.0-0.0,,null,run_exp/static/audio/clip_7_timeout.m4a,null,"<p>If you don't make your choice fast enough, you’ll have to wait a few seconds before you can make another one.</p><p>You can’t dig for more gems or travel to new planets. You just have to sit and wait.</p><br><p><img src='run_exp/static/images/task_images/time_out.jpg'  height='600' width='auto'></p>",,,,,,,,,,,,,,,,,,,,,,
time_out,19,174308,0.0-8.0-1.0,,2119.7,"<p>If you don't make your choice fast enough, you’ll have to wait a few seconds before you can make another one.</p><p>You can’t dig for more gems or travel to new planets. You just have to sit and wait.</p><br><p><img src='run_exp/static/images/task_images/time_out.jpg'  height='600' width='auto'></p>",,,,,,1,,,,,,,,,,,,,,,,,,
html-keyboard-response,20,188310,0.0-8.0-2.0,,13998.6,"<p>If you don't make your choice fast enough, you’ll have to wait a few seconds before you can make another one.</p><p>You can’t dig for more gems or travel to new planets. You just have to sit and wait.</p><br><p><img src='run_exp/static/images/task_images/time_out.jpg'  height='600' width='auto'></p><button class=""jspsych-html-btn-unchosen""><img src=""run_exp/static/images/task_images/planet-01.jpg"" height=""50""></button><button class=""jspsych-html-btn-chosen""><img src=""run_exp/static/images/task_images/planet-02.jpg"" height=""50""></button><p><b>[press the space bar to lock in your answer]<b><br></p>",32,,,,,,,,,,,,,,,,,,,,,,,
instruc_break,21,204078,0.0-9.0-0.0,,null,run_exp/static/audio/clip_8_break.m4a,null,"<p> After digging and traveling for a while, you’ll be able to take a break at home base. </p><p>The game will last 20 minutes no matter what.</p><p>You will visit home base every 5 minutes, so, you will visit home base three times during the game.</p><br><p><img src='run_exp/static/images/task_images/home_base.jpg' height='600' width='auto'></p>",,,,,,,,,,,,,,,,,,,,,,
instruc_break,22,208723,0.0-9.0-1.0,,4639.2,"<p> After digging and traveling for a while, you’ll be able to take a break at home base. </p><p>The game will last 20 minutes no matter what.</p><p>You will visit home base every 5 minutes, so, you will visit home base three times during the game.</p><br><p><img src='run_exp/static/images/task_images/home_base.jpg' height='600' width='auto'></p>",,,,,,1,,,,,,,,,,,,,,,,,,
html-keyboard-response,23,209233,0.0-9.0-2.0,,507.9,"<p> After digging and traveling for a while, you’ll be able to take a break at home base. </p><p>The game will last 20 minutes no matter what.</p><p>You will visit home base every 5 minutes, so, you will visit home base three times during the game.</p><br><p><img src='run_exp/static/images/task_images/home_base.jpg' height='600' width='auto'></p><button class=""jspsych-html-btn-unchosen""><img src=""run_exp/static/images/task_images/planet-01.jpg"" height=""50""></button><button class=""jspsych-html-btn-chosen""><img src=""run_exp/static/images/task_images/planet-02.jpg"" height=""50""></button><p><b>[press the space bar to lock in your answer]<b><br></p>",32,,,,,,,,,,,,,,,,,,,,,,,
instruc_prac_game,24,219379,0.0-10.0-0.0,,null,run_exp/static/audio/clip_9_practice.m4a,null,"<p> Are you ready to play a practice game? </p> <p>In this practice game, you'll be digging up barrels of gems. But, in the real game, you'll be digging up the gems themselves. </p>",,,,,,,,,,,,,,,,,,,,,,
html-button-response,25,222354,0.0-10.0-1.0,,2967.3,"<p> Are you ready to play a practice game? </p> <p>In this practice game, you'll be digging up barrels of gems. But, in the real game, you'll be digging up the gems themselves. </p>",,,,,,0,,,,,,,,,,,,,,,,,,
alien_welcome_prac,26,227374,0.0-11.0-0.0,,null,run_exp/static/images/task_images/aliens/practice_aliens/planet/alien_planet-5.jpg,null,,,,,,,,,,,,,,,,,,,,,,,
land_prac,27,227894,0.0-11.0-1.0,,null,run_exp/static/images/task_images/land.jpg,null,,,,,,98,,,0,,,,,,,,,,,,,,
dig_prac,28,229905,0.0-11.0-2.0,,,,,,,,,,,"[{""stimulus"":""run_exp/static/images/task_images/dig.jpg"",""time"":0.5999999642372131},{""stimulus"":""run_exp/static/images/task_images/land.jpg"",""time"":685.2999999523163},{""stimulus"":""run_exp/static/images/task_images/dig.jpg"",""time"":1349}]",[],,,,,,,,,,,,,,,
harvest_prac,29,230910,0.0-11.0-3.0,,null,run_exp/static/images/task_images/barrel_text.jpg,null,,,,,,,,,,,,,,,,,,,,,,,
decision_prac,30,233557,0.0-11.0-4.0,,2644.4,run_exp/static/images/task_images/land.jpg,65,,,,,,,,,,1,,,,,,,,,,,,,
dig_prac,31,235574,0.0-12.0-0.0,,,,,,,,,,,"[{""stimulus"":""run_exp/static/images/task_images/dig.jpg"",""time"":0.3999999761581421},{""stimulus"":""run_exp/static/images/task_images/land.jpg"",""time"":687.1000000238419},{""stimulus"":""run_exp/static/images/task_images/dig.jpg"",""time"":1339}]",[],,,,,,,,,,,,,,,
harvest_prac,32,236594,0.0-12.0-1.0,,null,run_exp/static/images/task_images/barrel_text.jpg,null,,,,,,,,,,,,,,,,,,,,,,,
decision_prac,33,236644,0.0-12.0-2.0,,47.69999999,run_exp/static/images/task_images/land.jpg,76,,,,,,,,,,2,,,,,,,,,,,,,
travel,34,246614,0.0-13.0-0.0,,,,,,,,,,,"[{""stimulus"":""run_exp/static/images/task_images/rocket-01.jpg"",""time"":0.20000004768371582},{""stimulus"":""run_exp/static/images/task_images/rocket-02.jpg"",""time"":1126.2000000476837},{""stimulus"":""run_exp/static/images/task_images/rocket-03.jpg"",""time"":2227.2000000476837},{""stimulus"":""run_exp/static/images/task_images/rocket-04.jpg"",""time"":3330.800000011921},{""stimulus"":""run_exp/static/images/task_images/rocket-05.jpg"",""time"":4426},{""stimulus"":""run_exp/static/images/task_images/rocket-06.jpg"",""time"":5536.5},{""stimulus"":""run_exp/static/images/task_images/rocket-07.jpg"",""time"":6646.600000023842},{""stimulus"":""run_exp/static/images/task_images/rocket-08.jpg"",""time"":7746.400000035763},{""stimulus"":""run_exp/static/images/task_images/rocket-09.jpg"",""time"":8846.600000023842}]",[],0,,,,,,,,,,,,,,
alien_welcome_prac,35,251620,0.0-13.0-1.0,,null,run_exp/static/images/task_images/aliens/practice_aliens/planet/alien_planet-4.jpg,null,,,,,,,,,,,,,,,,,,,,,,,
land_prac,36,252124,0.0-13.0-2.0,,null,run_exp/static/images/task_images/land.jpg,null,,,,,,104,,,0,,,,,,,,,,,,,,
dig_prac,37,254134,0.0-13.0-3.0,,,,,,,,,,,"[{""stimulus"":""run_exp/static/images/task_images/dig.jpg"",""time"":0.5999999642372131},{""stimulus"":""run_exp/static/images/task_images/land.jpg"",""time"":685.0999999642372},{""stimulus"":""run_exp/static/images/task_images/dig.jpg"",""time"":1351.0999999642372}]",[],,,,,,,,,,,,,,,
harvest_prac,38,255152,0.0-13.0-4.0,,null,run_exp/static/images/task_images/barrel_text.jpg,null,,,,,,,,,,,,,,,,,,,,,,,
decision_prac,39,255206,0.0-13.0-5.0,,52.40000004,run_exp/static/images/task_images/land.jpg,65,,,,,,,,,,3,,,,,,,,,,,,,
dig_prac,40,257224,0.0-14.0-0.0,,,,,,,,,,,"[{""stimulus"":""run_exp/static/images/task_images/dig.jpg"",""time"":0.3999999761581421},{""stimulus"":""run_exp/static/images/task_images/land.jpg"",""time"":675.7999999523163},{""stimulus"":""run_exp/static/images/task_images/dig.jpg"",""time"":1345.0999999642372}]",[],,,,,,,,,,,,,,,
harvest_prac,41,258234,0.0-14.0-1.0,,null,run_exp/static/images/task_images/barrel_text.jpg,null,,,,,,,,,,,,,,,,,,,,,,,
decision_prac,42,258313,0.0-14.0-2.0,,77,run_exp/static/images/task_images/land.jpg,65,,,,,,,,,,4,,,,,,,,,,,,,
dig_prac,43,260324,0.0-15.0-0.0,,,,,,,,,,,"[{""stimulus"":""run_exp/static/images/task_images/dig.jpg"",""time"":0.30000001192092896},{""stimulus"":""run_exp/static/images/task_images/land.jpg"",""time"":672.8000000119209},{""stimulus"":""run_exp/static/images/task_images/dig.jpg"",""time"":1340.0999999642372}]",[],,,,,,,,,,,,,,,
harvest_prac,44,261347,0.0-15.0-1.0,,null,run_exp/static/images/task_images/barrel_text.jpg,null,,,,,,,,,,,,,,,,,,,,,,,
decision_prac,45,261446,0.0-15.0-2.0,,88.09999996,run_exp/static/images/task_images/land.jpg,65,,,,,,,,,,,1,,,,,,,,,,,,
quiz_instruc,46,272240,0.0-16.0-0.0,,10789.6,run_exp/static/audio/clip_10_quiz.m4a,,,,,,0,,,,,,,,,,,,,,,,,,
instruc_repeat,47,315032,0.0-16.0-1.0,,null,"<p> Are you ready to play a practice game? </p> <p>In this practice game, you'll be digging up barrels of gems. But, in the real game, you'll be digging up the gems themselves. </p>",null,"<p>In this game, your goal is to collect as many gems as you can. That’s how you will win bonus money. </p> <p>The entire game will last 20 minutes no matter how many gems you collect or how many planets you visit. </p><p>To stay on a planet and dig again, press the letter A on your keyboard. To leave for a new planet, press the letter L.</p><p>The more you dig on a planet, the fewer gems you’ll get with each dig which is why you might consider leaving for a new planet. </p><p>When you arrive at a new planet, you’ll be greeted by an alien. What the alien looks like does not tell you anything about how much treasure is on the planet. </p>",,,,,,,,,,,,,,,,,,,,,,
instruc_repeat_continue,48,317087,0.0-16.0-2.0,,2050.3,"<p> Are you ready to play a practice game? </p> <p>In this practice game, you'll be digging up barrels of gems. But, in the real game, you'll be digging up the gems themselves. </p>",,,,,,0,,,,,,,,,,,,,,,,,,
quiz_q_1_ask,49,327571,0.0-16.0-3.0,,10481.6,run_exp/static/audio/clip_11_q1_ask.m4a,,,,,,2,,,,,,,,,,,,,,,,,,
quiz_q_1_fb_correct,50,331427,0.0-17.0-0.0,,null,run_exp/static/audio/clip_12_q1_corrrect.m4a,null,<p>That’s correct. You win extra money by collecting more gems.</p>,,,,,,,,,,,,,,,,,,,,,,
quiz_q_2_ask,51,339881,0.0-17.0-1.0,,8449.9,run_exp/static/audio/clip_14_q2_ask.m4a,,,,,,1,,,,,,,,,,,,,,,,,,
quiz_q_2_fb_correct,52,343907,0.0-18.0-0.0,,null,run_exp/static/audio/clip_15_q2_correct.m4a,null,<p>That’s correct. The experiment is 20 minutes no matter what.</p>,,,,,,,,,,,,,,,,,,,,,,
quiz_q_3_ask,53,347128,0.0-18.0-1.0,,3216.2,run_exp/static/audio/clip_17_q3_ask.m4a,,,,,,1,,,,,,,,,,,,,,,,,,
quiz_q_3_fb_correct,54,351124,0.0-19.0-0.0,,null,run_exp/static/audio/clip_18_q3_correct.m4a,null,<p> That’s correct. You press the letter L to travel to a new planet.</p>,,,,,,,,,,,,,,,,,,,,,,
quiz_q_4_ask,55,355259,0.0-19.0-1.0,,4132.3,run_exp/static/audio/clip_20_q4_ask.m4a,,,,,,0,,,,,,,,,,,,,,,,,,
quiz_q_4_fb_correct,56,360587,0.0-20.0-0.0,,null,run_exp/static/audio/clip_21_q4_correct.m4a,null,<p> That’s correct. The more you dig on a planet the fewer gems you’ll get with each dig. </p>,,,,,,,,,,,,,,,,,,,,,,
quiz_q_5_ask,57,363454,0.0-20.0-1.0,,2859.7,run_exp/static/audio/clip_23_q5_ask.m4a,,,,,,1,,,,,,,,,,,,,,,,,,
quiz_q_5_fb_correct,58,368486,0.0-21.0-0.0,,null,run_exp/static/audio/clip_24_q5_correct.m4a,null,<p> That’s correct. The alien tells you nothing about how much treasure is on the planet.</p>,,,,,,,,,,,,,,,,,,,,,,
quiz_correct,59,371985,0.0-22.0-0.0,,null,run_exp/static/audio/clip_26_correct_quiz.m4a,null,,,,,,,,,,,,,,,,,,,,,,,
quiz_correct_continue,60,375274,0.0-22.0-1.0,,3287.6,<p>Good job! You're now ready to move on to the real game!</p>,,,,,,0,,,,,,,,,,,,,,,,,,
audio-keyboard-response,61,385405,0.0-22.0-2.0,,null,run_exp/static/audio/clip_28_real_game.m4a,null,,,,,,,,,,,,,,,,,,,,,,,
instruc_begin_exp_contine,62,386963,0.0-22.0-3.0,,1556.2,"<p>Now that you know how  to dig for space treasure and travel to new planets,you can start exploring! </p><p>Do you want to go over the instructions again or get started with the real game?</p>",,,,,,1,,,,,,1,,,,,,,,,,,,
alien_welcome,63,391987,0.0-23.0-0.0,,null,run_exp/static/images/task_images/aliens/old_aliens/planet/alien_planet-21.jpg,null,,,,,,,,,,,,21,"21,22,36,63,56,58,9,46,11,32,74,23,71,39,64,31,30,44,62,8,10,75,49,50,72,57,6,60,19,76,20,37,18,40,80,66,1,70,43,79",,,,,,,,,,
land,64,392516,0.0-23.0-1.0,,null,run_exp/static/images/task_images/land.jpg,null,,,,,,104,,,1,,,,,,,,,,,,,,
dig,65,394533,0.0-23.0-2.0,,,,,,,,,,,"[{""stimulus"":""run_exp/static/images/task_images/dig.jpg"",""time"":1.100000023841858},{""stimulus"":""run_exp/static/images/task_images/land.jpg"",""time"":680.8000000119209},{""stimulus"":""run_exp/static/images/task_images/dig.jpg"",""time"":1341.300000011921}]",[],1,,,,,,,,,,,,,,
harvest,66,395553,0.0-23.0-3.0,,null,run_exp/static/images/task_images/gems/104.jpg,null,,,,,,21,,,1,,,,,104,0.200946421,0.201923077,,,,,,,
decision,67,395600,0.0-23.0-4.0,,44.5,run_exp/static/images/task_images/land.jpg,65,,,,,,21,,,1,,,,,,,,8634,1,0,FALSE,,,
dig,68,398577,0.0-24.0-0.0,,,,,,,,,,,"[{""stimulus"":""run_exp/static/images/task_images/dig.jpg"",""time"":0.30000001192092896},{""stimulus"":""run_exp/static/images/task_images/land.jpg"",""time"":998.8000000119209},{""stimulus"":""run_exp/static/images/task_images/dig.jpg"",""time"":1972.6000000238419}]",[],1,,,,,,,,,,,,,,
harvest,69,399586,0.0-24.0-1.0,,null,run_exp/static/images/task_images/gems/21.jpg,null,,,,,,5,,,1,,,,,21,0.233319402,0.238095238,,,,,,,
decision,70,401236,0.0-24.0-2.0,,1648.4,run_exp/static/images/task_images/land.jpg,65,,,,,,5,,,1,,,,,,,,14270,1,1,FALSE,,,
dig,71,402601,0.0-25.0-0.0,,,,,,,,,,,"[{""stimulus"":""run_exp/static/images/task_images/dig.jpg"",""time"":0.699999988079071},{""stimulus"":""run_exp/static/images/task_images/land.jpg"",""time"":465.19999998807907},{""stimulus"":""run_exp/static/images/task_images/dig.jpg"",""time"":919.5}]",[],1,,,,,,,,,,,,,,
harvest,72,403619,0.0-25.0-1.0,,null,run_exp/static/images/task_images/gems/5.jpg,null,,,,,,1,,,1,,,,,5,0.226429992,0.2,,,,,,,
decision,73,404385,0.0-25.0-2.0,,761.6,run_exp/static/images/task_images/land.jpg,65,,,,,,1,,,1,,,,,,,,17418,1,2,FALSE,,,
dig,74,406653,0.0-26.0-0.0,,,,,,,,,,,"[{""stimulus"":""run_exp/static/images/task_images/dig.jpg"",""time"":0.5},{""stimulus"":""run_exp/static/images/task_images/land.jpg"",""time"":755.5999999642372},{""stimulus"":""run_exp/static/images/task_images/dig.jpg"",""time"":1511.199999988079}]",[],1,,,,,,,,,,,,,,
harvest,75,407663,0.0-26.0-1.0,,null,run_exp/static/images/task_images/gems/1.jpg,null,,,,,,0,,,1,,,,,1,0.257442058,0,,,,,,,
decision,76,407921,0.0-26.0-2.0,,254.6,run_exp/static/images/task_images/land.jpg,76,,,,,,0,,,1,,,,,,,,20954,1,3,TRUE,,,
travel,77,417671,0.0-27.0-0.0,,,,,,,,,,,"[{""stimulus"":""run_exp/static/images/task_images/rocket-01.jpg"",""time"":0.30000001192092896},{""stimulus"":""run_exp/static/images/task_images/rocket-02.jpg"",""time"":1101.8999999761581},{""stimulus"":""run_exp/static/images/task_images/rocket-03.jpg"",""time"":2178.399999976158},{""stimulus"":""run_exp/static/images/task_images/rocket-04.jpg"",""time"":3258.600000023842},{""stimulus"":""run_exp/static/images/task_images/rocket-05.jpg"",""time"":4333.600000023842},{""stimulus"":""run_exp/static/images/task_images/rocket-06.jpg"",""time"":5418.699999988079},{""stimulus"":""run_exp/static/images/task_images/rocket-07.jpg"",""time"":6498.699999988079},{""stimulus"":""run_exp/static/images/task_images/rocket-08.jpg"",""time"":7578.100000023842},{""stimulus"":""run_exp/static/images/task_images/rocket-09.jpg"",""time"":8678.399999976158}]",[],1,,,,,,,,,,,,,,
alien_welcome,78,422681,0.0-27.0-1.0,,null,run_exp/static/images/task_images/aliens/old_aliens/planet/alien_planet-22.jpg,null,,,,,,,,,,,,22,"21,22,36,63,56,58,9,46,11,32,74,23,71,39,64,31,30,44,62,8,10,75,49,50,72,57,6,60,19,76,20,37,18,40,80,66,1,70,43,79",,,,,,,,,,
land,79,423203,0.0-27.0-2.0,,null,run_exp/static/images/task_images/land.jpg,null,,,,,,93,,,2,,,,,,,,,,,,,,
dig,80,425214,0.0-27.0-3.0,,,,,,,,,,,"[{""stimulus"":""run_exp/static/images/task_images/dig.jpg"",""time"":0.20000004768371582},{""stimulus"":""run_exp/static/images/task_images/land.jpg"",""time"":677.3000000119209},{""stimulus"":""run_exp/static/images/task_images/dig.jpg"",""time"":1342.800000011921}]",[],2,,,,,,,,,,,,,,
harvest,81,426234,0.0-27.0-4.0,,null,run_exp/static/images/task_images/gems/93.jpg,null,,,,,,25,,,2,,,,,93,0.273702604,0.268817204,,,,,,,
decision,82,426969,0.0-27.0-5.0,,731.9,run_exp/static/images/task_images/land.jpg,65,,,,,,25,,,2,,,,,,,,40002,1,0,FALSE,,,
dig,83,429266,0.0-28.0-0.0,,,,,,,,,,,"[{""stimulus"":""run_exp/static/images/task_images/dig.jpg"",""time"":0.6000000238418579},{""stimulus"":""run_exp/static/images/task_images/land.jpg"",""time"":775},{""stimulus"":""run_exp/static/images/task_images/dig.jpg"",""time"":1536.199999988079}]",[],2,,,,,,,,,,,,,,
harvest,84,430287,0.0-28.0-1.0,,null,run_exp/static/images/task_images/gems/25.jpg,null,,,,,,4,,,2,,,,,25,0.176178872,0.16,,,,,,,
decision,85,430620,0.0-28.0-2.0,,329.5,run_exp/static/images/task_images/land.jpg,65,,,,,,4,,,2,,,,,,,,43653,1,1,FALSE,,,
dig,86,433313,0.0-29.0-0.0,,,,,,,,,,,"[{""stimulus"":""run_exp/static/images/task_images/dig.jpg"",""time"":0.30000001192092896},{""stimulus"":""run_exp/static/images/task_images/land.jpg"",""time"":894.6999999880791},{""stimulus"":""run_exp/static/images/task_images/dig.jpg"",""time"":1789}]",[],2,,,,,,,,,,,,,,
harvest,87,434322,0.0-29.0-1.0,,null,run_exp/static/images/task_images/gems/4.jpg,null,,,,,,1,,,2,,,,,4,0.133529168,0.25,,,,,,,
decision,88,434595,0.0-29.0-2.0,,270.2,run_exp/static/images/task_images/land.jpg,65,,,,,,1,,,2,,,,,,,,47628,1,2,FALSE,,,
dig,89,437344,0.0-30.0-0.0,,,,,,,,,,,"[{""stimulus"":""run_exp/static/images/task_images/dig.jpg"",""time"":0.19999998807907104},{""stimulus"":""run_exp/static/images/task_images/land.jpg"",""time"":925},{""stimulus"":""run_exp/static/images/task_images/dig.jpg"",""time"":1835.0999999642372}]",[],2,,,,,,,,,,,,,,
harvest,90,438365,0.0-30.0-1.0,,null,run_exp/static/images/task_images/gems/1.jpg,null,,,,,,0,,,2,,,,,1,0.382373984,0,,,,,,,
decision,91,440149,0.0-30.0-2.0,,1780.3,run_exp/static/images/task_images/land.jpg,76,,,,,,0,,,2,,,,,,,,53182,1,3,TRUE,,,
travel,92,448394,0.0-31.0-0.0,,,,,,,,,,,"[{""stimulus"":""run_exp/static/images/task_images/rocket-01.jpg"",""time"":0.6000000238418579},{""stimulus"":""run_exp/static/images/task_images/rocket-02.jpg"",""time"":926.5},{""stimulus"":""run_exp/static/images/task_images/rocket-03.jpg"",""time"":1846.199999988079},{""stimulus"":""run_exp/static/images/task_images/rocket-04.jpg"",""time"":2753.400000035763},{""stimulus"":""run_exp/static/images/task_images/rocket-05.jpg"",""time"":3665.699999988079},{""stimulus"":""run_exp/static/images/task_images/rocket-06.jpg"",""time"":4585.699999988079},{""stimulus"":""run_exp/static/images/task_images/rocket-07.jpg"",""time"":5496.300000011921},{""stimulus"":""run_exp/static/images/task_images/rocket-08.jpg"",""time"":6396.100000023842},{""stimulus"":""run_exp/static/images/task_images/rocket-09.jpg"",""time"":7316.100000023842}]",[],2,,,,,,,,,,,,,,
alien_welcome,93,453404,0.0-31.0-1.0,,null,run_exp/static/images/task_images/aliens/old_aliens/planet/alien_planet-36.jpg,null,,,,,,,,,,,,36,"21,22,36,63,56,58,9,46,11,32,74,23,71,39,64,31,30,44,62,8,10,75,49,50,72,57,6,60,19,76,20,37,18,40,80,66,1,70,43,79",,,,,,,,,,
land,94,453928,0.0-31.0-2.0,,null,run_exp/static/images/task_images/land.jpg,null,,,,,,98,,,3,,,,,,,,,,,,,,
dig,95,455955,0.0-31.0-3.0,,,,,,,,,,,"[{""stimulus"":""run_exp/static/images/task_images/dig.jpg"",""time"":0.5999999642372131},{""stimulus"":""run_exp/static/images/task_images/land.jpg"",""time"":675.2999999523163},{""stimulus"":""run_exp/static/images/task_images/dig.jpg"",""time"":1347.5999999642372}]",[],3,,,,,,,,,,,,,,
harvest,96,456969,0.0-31.0-4.0,,null,run_exp/static/images/task_images/gems/98.jpg,null,,,,,,52,,,3,,,,,98,0.5327176,0.530612245,,,,,,,
decision,97,457579,0.0-31.0-5.0,,606.5,run_exp/static/images/task_images/land.jpg,65,,,,,,52,,,3,,,,,,,,70612,1,0,FALSE,,,
dig,98,459994,0.0-32.0-0.0,,,,,,,,,,,"[{""stimulus"":""run_exp/static/images/task_images/dig.jpg"",""time"":0.699999988079071},{""stimulus"":""run_exp/static/images/task_images/land.jpg"",""time"":809.5},{""stimulus"":""run_exp/static/images/task_images/dig.jpg"",""time"":1606}]",[],3,,,,,,,,,,,,,,
harvest,99,461010,0.0-32.0-1.0,,null,run_exp/static/images/task_images/gems/52.jpg,null,,,,,,22,,,3,,,,,52,0.416403845,0.423076923,,,,,,,
decision,100,463209,0.0-32.0-2.0,,2195.9,run_exp/static/images/task_images/land.jpg,65,,,,,,22,,,3,,,,,,,,76242,1,1,FALSE,,,
dig,101,464044,0.0-33.0-0.0,,,,,,,,,,,"[{""stimulus"":""run_exp/static/images/task_images/dig.jpg"",""time"":0.5},{""stimulus"":""run_exp/static/images/task_images/land.jpg"",""time"":276.10000002384186},{""stimulus"":""run_exp/static/images/task_images/dig.jpg"",""time"":546.3999999761581}]",[],3,,,,,,,,,,,,,,
harvest,102,465064,0.0-33.0-1.0,,null,run_exp/static/images/task_images/gems/22.jpg,null,,,,,,11,,,3,,,,,22,0.504698532,0.5,,,,,,,
decision,103,466188,0.0-33.0-2.0,,1120.5,run_exp/static/images/task_images/land.jpg,76,,,,,,11,,,3,,,,,,,,79222,1,2,TRUE,,,
travel,104,475094,0.0-34.0-0.0,,,,,,,,,,,"[{""stimulus"":""run_exp/static/images/task_images/rocket-01.jpg"",""time"":0.5},{""stimulus"":""run_exp/static/images/task_images/rocket-02.jpg"",""time"":1007.1000000238419},{""stimulus"":""run_exp/static/images/task_images/rocket-03.jpg"",""time"":1986.9000000357628},{""stimulus"":""run_exp/static/images/task_images/rocket-04.jpg"",""time"":2976.900000035763},{""stimulus"":""run_exp/static/images/task_images/rocket-05.jpg"",""time"":3966.400000035763},{""stimulus"":""run_exp/static/images/task_images/rocket-06.jpg"",""time"":4947.100000023842},{""stimulus"":""run_exp/static/images/task_images/rocket-07.jpg"",""time"":5926.900000035763},{""stimulus"":""run_exp/static/images/task_images/rocket-08.jpg"",""time"":6907.100000023842},{""stimulus"":""run_exp/static/images/task_images/rocket-09.jpg"",""time"":7906.800000011921}]",[],3,,,,,,,,,,,,,,
alien_welcome,105,480107,0.0-34.0-1.0,,null,run_exp/static/images/task_images/aliens/old_aliens/planet/alien_planet-63.jpg,null,,,,,,,,,,,,63,"21,22,36,63,56,58,9,46,11,32,74,23,71,39,64,31,30,44,62,8,10,75,49,50,72,57,6,60,19,76,20,37,18,40,80,66,1,70,43,79",,,,,,,,,,
land,106,480617,0.0-34.0-2.0,,null,run_exp/static/images/task_images/land.jpg,null,,,,,,103,,,4,,,,,,,,,,,,,,
dig,107,482643,0.0-34.0-3.0,,,,,,,,,,,"[{""stimulus"":""run_exp/static/images/task_images/dig.jpg"",""time"":1.300000011920929},{""stimulus"":""run_exp/static/images/task_images/land.jpg"",""time"":682.0999999642372},{""stimulus"":""run_exp/static/images/task_images/dig.jpg"",""time"":1350.699999988079}]",[],4,,,,,,,,,,,,,,
harvest,108,483654,0.0-34.0-4.0,,null,run_exp/static/images/task_images/gems/103.jpg,null,,,,,,45,,,4,,,,,103,0.438113359,0.436893204,,,,,,,
decision,109,484132,0.0-34.0-5.0,,475.2,run_exp/static/images/task_images/land.jpg,65,,,,,,45,,,4,,,,,,,,97165,1,0,FALSE,,,
dig,110,486663,0.0-35.0-0.0,,,,,,,,,,,"[{""stimulus"":""run_exp/static/images/task_images/dig.jpg"",""time"":0.30000001192092896},{""stimulus"":""run_exp/static/images/task_images/land.jpg"",""time"":850.3000000119209},{""stimulus"":""run_exp/static/images/task_images/dig.jpg"",""time"":1687.4000000357628}]",[],4,,,,,,,,,,,,,,
harvest,111,487677,0.0-35.0-1.0,,null,run_exp/static/images/task_images/gems/45.jpg,null,,,,,,21,,,4,,,,,45,0.462315819,0.466666667,,,,,,,
decision,112,487860,0.0-35.0-2.0,,178.4,run_exp/static/images/task_images/land.jpg,65,,,,,,21,,,4,,,,,,,,100893,1,1,FALSE,,,
dig,113,490704,0.0-36.0-0.0,,,,,,,,,,,"[{""stimulus"":""run_exp/static/images/task_images/dig.jpg"",""time"":0.3999999761581421},{""stimulus"":""run_exp/static/images/task_images/land.jpg"",""time"":954.7999999523163},{""stimulus"":""run_exp/static/images/task_images/dig.jpg"",""time"":1884.5999999642372}]",[],4,,,,,,,,,,,,,,
harvest,114,491713,0.0-36.0-1.0,,null,run_exp/static/images/task_images/gems/21.jpg,null,,,,,,10,,,4,,,,,21,0.490241763,0.476190476,,,,,,,
decision,115,492188,0.0-36.0-2.0,,473.3,run_exp/static/images/task_images/land.jpg,76,,,,,,10,,,4,,,,,,,,105222,1,2,TRUE,,,
travel,116,501743,0.0-37.0-0.0,,,,,,,,,,,"[{""stimulus"":""run_exp/static/images/task_images/rocket-01.jpg"",""time"":0.6000000238418579},{""stimulus"":""run_exp/static/images/task_images/rocket-02.jpg"",""time"":1065.9000000357628},{""stimulus"":""run_exp/static/images/task_images/rocket-03.jpg"",""time"":2126},{""stimulus"":""run_exp/static/images/task_images/rocket-04.jpg"",""time"":3187.400000035763},{""stimulus"":""run_exp/static/images/task_images/rocket-05.jpg"",""time"":4245.900000035763},{""stimulus"":""run_exp/static/images/task_images/rocket-06.jpg"",""time"":5305.5},{""stimulus"":""run_exp/static/images/task_images/rocket-07.jpg"",""time"":6365.5},{""stimulus"":""run_exp/static/images/task_images/rocket-08.jpg"",""time"":7425.400000035763},{""stimulus"":""run_exp/static/images/task_images/rocket-09.jpg"",""time"":8486.600000023842}]",[],4,,,,,,,,,,,,,,
alien_welcome,117,506758,0.0-37.0-1.0,,null,run_exp/static/images/task_images/aliens/old_aliens/planet/alien_planet-56.jpg,null,,,,,,,,,,,,56,"21,22,36,63,56,58,9,46,11,32,74,23,71,39,64,31,30,44,62,8,10,75,49,50,72,57,6,60,19,76,20,37,18,40,80,66,1,70,43,79",,,,,,,,,,
land,118,507264,0.0-37.0-2.0,,null,run_exp/static/images/task_images/land.jpg,null,,,,,,102,,,5,,,,,,,,,,,,,,
dig,119,509284,0.0-37.0-3.0,,,,,,,,,,,"[{""stimulus"":""run_exp/static/images/task_images/dig.jpg"",""time"":0.5},{""stimulus"":""run_exp/static/images/task_images/land.jpg"",""time"":675.8000000119209},{""stimulus"":""run_exp/static/images/task_images/dig.jpg"",""time"":1346.800000011921}]",[],5,,,,,,,,,,,,,,
harvest,120,510297,0.0-37.0-4.0,,null,run_exp/static/images/task_images/gems/102.jpg,null,,,,,,41,,,5,,,,,102,0.404844069,0.401960784,,,,,,,
decision,121,511190,0.0-37.0-5.0,,889.3,run_exp/static/images/task_images/land.jpg,65,,,,,,41,,,5,,,,,,,,124223,1,0,FALSE,,,
dig,122,513323,0.0-38.0-0.0,,,,,,,,,,,"[{""stimulus"":""run_exp/static/images/task_images/dig.jpg"",""time"":0.30000001192092896},{""stimulus"":""run_exp/static/images/task_images/land.jpg"",""time"":714.1000000238419},{""stimulus"":""run_exp/static/images/task_images/dig.jpg"",""time"":1409.1000000238419}]",[],5,,,,,,,,,,,,,,
harvest,123,514347,0.0-38.0-1.0,,null,run_exp/static/images/task_images/gems/41.jpg,null,,,,,,23,,,5,,,,,41,0.570145653,0.56097561,,,,,,,
decision,124,514570,0.0-38.0-2.0,,218.8,run_exp/static/images/task_images/land.jpg,65,,,,,,23,,,5,,,,,,,,127603,1,1,FALSE,,,
dig,125,517364,0.0-39.0-0.0,,,,,,,,,,,"[{""stimulus"":""run_exp/static/images/task_images/dig.jpg"",""time"":0.5},{""stimulus"":""run_exp/static/images/task_images/land.jpg"",""time"":944.8000000119209},{""stimulus"":""run_exp/static/images/task_images/dig.jpg"",""time"":1864.300000011921}]",[],5,,,,,,,,,,,,,,
harvest,126,518371,0.0-39.0-1.0,,null,run_exp/static/images/task_images/gems/23.jpg,null,,,,,,11,,,5,,,,,23,0.459533519,0.47826087,,,,,,,
decision,127,518785,0.0-39.0-2.0,,413.3,run_exp/static/images/task_images/land.jpg,76,,,,,,11,,,5,,,,,,,,131819,1,2,TRUE,,,
travel,128,528394,0.0-40.0-0.0,,,,,,,,,,,"[{""stimulus"":""run_exp/static/images/task_images/rocket-01.jpg"",""time"":0.20000004768371582},{""stimulus"":""run_exp/static/images/task_images/rocket-02.jpg"",""time"":1071.6000000238419},{""stimulus"":""run_exp/static/images/task_images/rocket-03.jpg"",""time"":2134.100000023842},{""stimulus"":""run_exp/static/images/task_images/rocket-04.jpg"",""time"":3214.400000035763},{""stimulus"":""run_exp/static/images/task_images/rocket-05.jpg"",""time"":4274.300000011921},{""stimulus"":""run_exp/static/images/task_images/rocket-06.jpg"",""time"":5342.700000047684},{""stimulus"":""run_exp/static/images/task_images/rocket-07.jpg"",""time"":6393.400000035763},{""stimulus"":""run_exp/static/images/task_images/rocket-08.jpg"",""time"":7474.400000035763},{""stimulus"":""run_exp/static/images/task_images/rocket-09.jpg"",""time"":8534.100000023842}]",[],5,,,,,,,,,,,,,,
alien_welcome,129,533407,0.0-40.0-1.0,,null,run_exp/static/images/task_images/aliens/old_aliens/planet/alien_planet-58.jpg,null,,,,,,,,,,,,58,"21,22,36,63,56,58,9,46,11,32,74,23,71,39,64,31,30,44,62,8,10,75,49,50,72,57,6,60,19,76,20,37,18,40,80,66,1,70,43,79",,,,,,,,,,
land,130,533913,0.0-40.0-2.0,,null,run_exp/static/images/task_images/land.jpg,null,,,,,,105,,,6,,,,,,,,,,,,,,
dig,131,535924,0.0-40.0-3.0,,,,,,,,,,,"[{""stimulus"":""run_exp/static/images/task_images/dig.jpg"",""time"":0.5},{""stimulus"":""run_exp/static/images/task_images/land.jpg"",""time"":687.6000000238419},{""stimulus"":""run_exp/static/images/task_images/dig.jpg"",""time"":1349.699999988079}]",[],6,,,,,,,,,,,,,,
harvest,132,536934,0.0-40.0-4.0,,null,run_exp/static/images/task_images/gems/105.jpg,null,,,,,,85,,,6,,,,,105,0.806206277,0.80952381,,,,,,,
decision,133,537705,0.0-40.0-5.0,,767.9,run_exp/static/images/task_images/land.jpg,65,,,,,,85,,,6,,,,,,,,150739,1,0,FALSE,,,
dig,134,539963,0.0-41.0-0.0,,,,,,,,,,,"[{""stimulus"":""run_exp/static/images/task_images/dig.jpg"",""time"":0.6000000238418579},{""stimulus"":""run_exp/static/images/task_images/land.jpg"",""time"":747.8999999761581},{""stimulus"":""run_exp/static/images/task_images/dig.jpg"",""time"":1498.5}]",[],6,,,,,,,,,,,,,,
harvest,135,540974,0.0-41.0-1.0,,null,run_exp/static/images/task_images/gems/85.jpg,null,,,,,,63,,,6,,,,,85,0.743192124,0.741176471,,,,,,,
decision,136,541734,0.0-41.0-2.0,,756.5,run_exp/static/images/task_images/land.jpg,65,,,,,,63,,,6,,,,,,,,154767,1,1,FALSE,,,
dig,137,544004,0.0-42.0-0.0,,,,,,,,,,,"[{""stimulus"":""run_exp/static/images/task_images/dig.jpg"",""time"":0.699999988079071},{""stimulus"":""run_exp/static/images/task_images/land.jpg"",""time"":761.1999999880791},{""stimulus"":""run_exp/static/images/task_images/dig.jpg"",""time"":1503.699999988079}]",[],6,,,,,,,,,,,,,,
harvest,138,545012,0.0-42.0-1.0,,null,run_exp/static/images/task_images/gems/63.jpg,null,,,,,,53,,,6,,,,,63,0.848403894,0.841269841,,,,,,,
decision,139,545517,0.0-42.0-2.0,,501.8,run_exp/static/images/task_images/land.jpg,65,,,,,,53,,,6,,,,,,,,158551,1,2,FALSE,,,
dig,140,548044,0.0-43.0-0.0,,,,,,,,,,,"[{""stimulus"":""run_exp/static/images/task_images/dig.jpg"",""time"":0.5},{""stimulus"":""run_exp/static/images/task_images/land.jpg"",""time"":847.6000000238419},{""stimulus"":""run_exp/static/images/task_images/dig.jpg"",""time"":1677.5}]",[],6,,,,,,,,,,,,,,
harvest,141,549052,0.0-43.0-1.0,,null,run_exp/static/images/task_images/gems/53.jpg,null,,,,,,42,,,6,,,,,53,0.784449279,0.79245283,,,,,,,
decision,142,549540,0.0-43.0-2.0,,485.9,run_exp/static/images/task_images/land.jpg,65,,,,,,42,,,6,,,,,,,,162573,1,3,FALSE,,,
dig,143,552064,0.0-44.0-0.0,,,,,,,,,,,"[{""stimulus"":""run_exp/static/images/task_images/dig.jpg"",""time"":0.30000001192092896},{""stimulus"":""run_exp/static/images/task_images/land.jpg"",""time"":859.6000000238419},{""stimulus"":""run_exp/static/images/task_images/dig.jpg"",""time"":1699.9000000357628}]",[],6,,,,,,,,,,,,,,
harvest,144,553067,0.0-44.0-1.0,,null,run_exp/static/images/task_images/gems/42.jpg,null,,,,,,34,,,6,,,,,42,0.810465094,0.80952381,,,,,,,
decision,145,553089,0.0-44.0-2.0,,19.80000001,run_exp/static/images/task_images/land.jpg,65,,,,,,34,,,6,,,,,,,,166122,1,4,FALSE,,,
dig,146,556083,0.0-45.0-0.0,,,,,,,,,,,"[{""stimulus"":""run_exp/static/images/task_images/dig.jpg"",""time"":0.30000001192092896},{""stimulus"":""run_exp/static/images/task_images/land.jpg"",""time"":1011.3999999761581},{""stimulus"":""run_exp/static/images/task_images/dig.jpg"",""time"":1991.0999999642372}]",[],6,,,,,,,,,,,,,,
harvest,147,557095,0.0-45.0-1.0,,null,run_exp/static/images/task_images/gems/34.jpg,null,,,,,,31,,,6,,,,,34,0.910089635,0.911764706,,,,,,,
decision,148,557126,0.0-45.0-2.0,,28.89999998,run_exp/static/images/task_images/land.jpg,65,,,,,,31,,,6,,,,,,,,170159,1,5,FALSE,,,
dig,149,560114,0.0-46.0-0.0,,,,,,,,,,,"[{""stimulus"":""run_exp/static/images/task_images/dig.jpg"",""time"":0.30000001192092896},{""stimulus"":""run_exp/static/images/task_images/land.jpg"",""time"":994.8999999761581},{""stimulus"":""run_exp/static/images/task_images/dig.jpg"",""time"":1994.6000000238419}]",[],6,,,,,,,,,,,,,,
harvest,150,561121,0.0-46.0-1.0,,null,run_exp/static/images/task_images/gems/31.jpg,null,,,,,,27,,,6,,,,,31,0.858091187,0.870967742,,,,,,,
decision,151,561537,0.0-46.0-2.0,,414.4,run_exp/static/images/task_images/land.jpg,76,,,,,,27,,,6,,,,,,,,174570,1,6,TRUE,,,
travel,152,571144,0.0-47.0-0.0,,,,,,,,,,,"[{""stimulus"":""run_exp/static/images/task_images/rocket-01.jpg"",""time"":0.19999998807907104},{""stimulus"":""run_exp/static/images/task_images/rocket-02.jpg"",""time"":1082.699999988079},{""stimulus"":""run_exp/static/images/task_images/rocket-03.jpg"",""time"":2143.199999988079},{""stimulus"":""run_exp/static/images/task_images/rocket-04.jpg"",""time"":3203},{""stimulus"":""run_exp/static/images/task_images/rocket-05.jpg"",""time"":4263.199999988079},{""stimulus"":""run_exp/static/images/task_images/rocket-06.jpg"",""time"":5332.900000035763},{""stimulus"":""run_exp/static/images/task_images/rocket-07.jpg"",""time"":6403.400000035763},{""stimulus"":""run_exp/static/images/task_images/rocket-08.jpg"",""time"":7463.400000035763},{""stimulus"":""run_exp/static/images/task_images/rocket-09.jpg"",""time"":8544}]",[],6,,,,,,,,,,,,,,
alien_welcome,153,576154,0.0-47.0-1.0,,null,run_exp/static/images/task_images/aliens/old_aliens/planet/alien_planet-9.jpg,null,,,,,,,,,,,,9,"21,22,36,63,56,58,9,46,11,32,74,23,71,39,64,31,30,44,62,8,10,75,49,50,72,57,6,60,19,76,20,37,18,40,80,66,1,70,43,79",,,,,,,,,,
land,154,576664,0.0-47.0-2.0,,null,run_exp/static/images/task_images/land.jpg,null,,,,,,101,,,7,,,,,,,,,,,,,,
dig,155,578682,0.0-47.0-3.0,,,,,,,,,,,"[{""stimulus"":""run_exp/static/images/task_images/dig.jpg"",""time"":0.5},{""stimulus"":""run_exp/static/images/task_images/land.jpg"",""time"":675.6999999880791},{""stimulus"":""run_exp/static/images/task_images/dig.jpg"",""time"":1345.800000011921}]",[],7,,,,,,,,,,,,,,
harvest,156,579694,0.0-47.0-4.0,,null,run_exp/static/images/task_images/gems/101.jpg,null,,,,,,78,,,7,,,,,101,0.769685028,0.772277228,,,,,,,
decision,157,580508,0.0-47.0-5.0,,810,run_exp/static/images/task_images/land.jpg,65,,,,,,78,,,7,,,,,,,,193541,1,0,FALSE,,,
dig,158,582723,0.0-48.0-0.0,,,,,,,,,,,"[{""stimulus"":""run_exp/static/images/task_images/dig.jpg"",""time"":0.5999999642372131},{""stimulus"":""run_exp/static/images/task_images/land.jpg"",""time"":736.0999999642372},{""stimulus"":""run_exp/static/images/task_images/dig.jpg"",""time"":1475.3999999761581}]",[],7,,,,,,,,,,,,,,
harvest,159,583734,0.0-48.0-1.0,,null,run_exp/static/images/task_images/gems/78.jpg,null,,,,,,62,,,7,,,,,78,0.791189731,0.794871795,,,,,,,
decision,160,584047,0.0-48.0-2.0,,309.8,run_exp/static/images/task_images/land.jpg,65,,,,,,62,,,7,,,,,,,,197080,1,1,FALSE,,,
dig,161,586753,0.0-49.0-0.0,,,,,,,,,,,"[{""stimulus"":""run_exp/static/images/task_images/dig.jpg"",""time"":0.2999999523162842},{""stimulus"":""run_exp/static/images/task_images/land.jpg"",""time"":903.0999999642372},{""stimulus"":""run_exp/static/images/task_images/dig.jpg"",""time"":1813.199999988079}]",[],7,,,,,,,,,,,,,,
harvest,162,587758,0.0-49.0-1.0,,null,run_exp/static/images/task_images/gems/62.jpg,null,,,,,,49,,,7,,,,,62,0.795048386,0.790322581,,,,,,,
decision,163,588160,0.0-49.0-2.0,,398.9,run_exp/static/images/task_images/land.jpg,65,,,,,,49,,,7,,,,,,,,201193,1,2,FALSE,,,
dig,164,590784,0.0-50.0-0.0,,,,,,,,,,,"[{""stimulus"":""run_exp/static/images/task_images/dig.jpg"",""time"":3.5},{""stimulus"":""run_exp/static/images/task_images/land.jpg"",""time"":891.3999999761581},{""stimulus"":""run_exp/static/images/task_images/dig.jpg"",""time"":1741.8999999761581}]",[],7,,,,,,,,,,,,,,
harvest,165,591797,0.0-50.0-1.0,,null,run_exp/static/images/task_images/gems/49.jpg,null,,,,,,41,,,7,,,,,49,0.828171647,0.836734694,,,,,,,
decision,166,591990,0.0-50.0-2.0,,191.9,run_exp/static/images/task_images/land.jpg,65,,,,,,41,,,7,,,,,,,,205023,1,3,FALSE,,,
dig,167,594824,0.0-51.0-0.0,,,,,,,,,,,"[{""stimulus"":""run_exp/static/images/task_images/dig.jpg"",""time"":0.19999998807907104},{""stimulus"":""run_exp/static/images/task_images/land.jpg"",""time"":939},{""stimulus"":""run_exp/static/images/task_images/dig.jpg"",""time"":1892.300000011921}]",[],7,,,,,,,,,,,,,,
harvest,168,595833,0.0-51.0-1.0,,null,run_exp/static/images/task_images/gems/41.jpg,null,,,,,,31,,,7,,,,,41,0.76673582,0.756097561,,,,,,,
decision,169,596049,0.0-51.0-2.0,,214.5,run_exp/static/images/task_images/land.jpg,65,,,,,,31,,,7,,,,,,,,209082,1,4,FALSE,,,
dig,170,598854,0.0-52.0-0.0,,,,,,,,,,,"[{""stimulus"":""run_exp/static/images/task_images/dig.jpg"",""time"":0.40000003576278687},{""stimulus"":""run_exp/static/images/task_images/land.jpg"",""time"":946.3000000119209},{""stimulus"":""run_exp/static/images/task_images/dig.jpg"",""time"":1866.300000011921}]",[],7,,,,,,,,,,,,,,
harvest,171,599879,0.0-52.0-1.0,,null,run_exp/static/images/task_images/gems/31.jpg,null,,,,,,26,,,7,,,,,31,0.841413549,0.838709677,,,,,,,
decision,172,600339,0.0-52.0-2.0,,457.7,run_exp/static/images/task_images/land.jpg,76,,,,,,26,,,7,,,,,,,,213372,1,5,TRUE,,,
travel,173,609904,0.0-53.0-0.0,,,,,,,,,,,"[{""stimulus"":""run_exp/static/images/task_images/rocket-01.jpg"",""time"":0.19999998807907104},{""stimulus"":""run_exp/static/images/task_images/rocket-02.jpg"",""time"":1082.0999999642372},{""stimulus"":""run_exp/static/images/task_images/rocket-03.jpg"",""time"":2124.699999988079},{""stimulus"":""run_exp/static/images/task_images/rocket-04.jpg"",""time"":3191.699999988079},{""stimulus"":""run_exp/static/images/task_images/rocket-05.jpg"",""time"":4246.399999976158},{""stimulus"":""run_exp/static/images/task_images/rocket-06.jpg"",""time"":5323.099999964237},{""stimulus"":""run_exp/static/images/task_images/rocket-07.jpg"",""time"":6382.699999988079},{""stimulus"":""run_exp/static/images/task_images/rocket-08.jpg"",""time"":7441.899999976158},{""stimulus"":""run_exp/static/images/task_images/rocket-09.jpg"",""time"":8501.800000011921}]",[],7,,,,,,,,,,,,,,
alien_welcome,174,614913,0.0-53.0-1.0,,null,run_exp/static/images/task_images/aliens/old_aliens/planet/alien_planet-46.jpg,null,,,,,,,,,,,,46,"21,22,36,63,56,58,9,46,11,32,74,23,71,39,64,31,30,44,62,8,10,75,49,50,72,57,6,60,19,76,20,37,18,40,80,66,1,70,43,79",,,,,,,,,,
land,175,615429,0.0-53.0-2.0,,null,run_exp/static/images/task_images/land.jpg,null,,,,,,103,,,8,,,,,,,,,,,,,,
dig,176,617454,0.0-53.0-3.0,,,,,,,,,,,"[{""stimulus"":""run_exp/static/images/task_images/dig.jpg"",""time"":0.9000000357627869},{""stimulus"":""run_exp/static/images/task_images/land.jpg"",""time"":688.8000000119209},{""stimulus"":""run_exp/static/images/task_images/dig.jpg"",""time"":1353}]",[],8,,,,,,,,,,,,,,
harvest,177,618467,0.0-53.0-4.0,,null,run_exp/static/images/task_images/gems/103.jpg,null,,,,,,81,,,8,,,,,103,0.788359122,0.786407767,,,,,,,
decision,178,619059,0.0-53.0-5.0,,587.1,run_exp/static/images/task_images/land.jpg,65,,,,,,81,,,8,,,,,,,,232093,1,0,FALSE,,,
dig,179,621504,0.0-54.0-0.0,,,,,,,,,,,"[{""stimulus"":""run_exp/static/images/task_images/dig.jpg"",""time"":1.0999999642372131},{""stimulus"":""run_exp/static/images/task_images/land.jpg"",""time"":808.5999999642372},{""stimulus"":""run_exp/static/images/task_images/dig.jpg"",""time"":1629.3999999761581}]",[],8,,,,,,,,,,,,,,
harvest,180,622507,0.0-54.0-1.0,,null,run_exp/static/images/task_images/gems/81.jpg,null,,,,,,71,,,8,,,,,81,0.875946631,0.87654321,,,,,,,
decision,181,622889,0.0-54.0-2.0,,378.1,run_exp/static/images/task_images/land.jpg,65,,,,,,71,,,8,,,,,,,,235922,1,1,FALSE,,,
dig,182,625534,0.0-55.0-0.0,,,,,,,,,,,"[{""stimulus"":""run_exp/static/images/task_images/dig.jpg"",""time"":0.40000003576278687},{""stimulus"":""run_exp/static/images/task_images/land.jpg"",""time"":887.9000000357628},{""stimulus"":""run_exp/static/images/task_images/dig.jpg"",""time"":1760.699999988079}]",[],8,,,,,,,,,,,,,,
harvest,183,626544,0.0-55.0-1.0,,null,run_exp/static/images/task_images/gems/71.jpg,null,,,,,,56,,,8,,,,,71,0.786933569,0.788732394,,,,,,,
decision,184,626947,0.0-55.0-2.0,,400.8,run_exp/static/images/task_images/land.jpg,65,,,,,,56,,,8,,,,,,,,239980,1,2,FALSE,,,
dig,185,629574,0.0-56.0-0.0,,,,,,,,,,,"[{""stimulus"":""run_exp/static/images/task_images/dig.jpg"",""time"":0.5},{""stimulus"":""run_exp/static/images/task_images/land.jpg"",""time"":876.8000000119209},{""stimulus"":""run_exp/static/images/task_images/dig.jpg"",""time"":1746.1000000238419}]",[],8,,,,,,,,,,,,,,
harvest,186,630584,0.0-56.0-1.0,,null,run_exp/static/images/task_images/gems/56.jpg,null,,,,,,40,,,8,,,,,56,0.711396978,0.714285714,,,,,,,
decision,187,630968,0.0-56.0-2.0,,379.7,run_exp/static/images/task_images/land.jpg,65,,,,,,40,,,8,,,,,,,,244001,1,3,FALSE,,,
dig,188,633604,0.0-57.0-0.0,,,,,,,,,,,"[{""stimulus"":""run_exp/static/images/task_images/dig.jpg"",""time"":0.5},{""stimulus"":""run_exp/static/images/task_images/land.jpg"",""time"":882.1999999880791},{""stimulus"":""run_exp/static/images/task_images/dig.jpg"",""time"":1762.800000011921}]",[],8,,,,,,,,,,,,,,
harvest,189,634612,0.0-57.0-1.0,,null,run_exp/static/images/task_images/gems/40.jpg,null,,,,,,32,,,8,,,,,40,0.809603734,0.8,,,,,,,
decision,190,634895,0.0-57.0-2.0,,279.8,run_exp/static/images/task_images/land.jpg,65,,,,,,32,,,8,,,,,,,,247928,1,4,FALSE,,,
dig,191,637624,0.0-58.0-0.0,,,,,,,,,,,"[{""stimulus"":""run_exp/static/images/task_images/dig.jpg"",""time"":0.19999998807907104},{""stimulus"":""run_exp/static/images/task_images/land.jpg"",""time"":916},{""stimulus"":""run_exp/static/images/task_images/dig.jpg"",""time"":1820.300000011921}]",[],8,,,,,,,,,,,,,,
harvest,192,638629,0.0-58.0-1.0,,null,run_exp/static/images/task_images/gems/32.jpg,null,,,,,,29,,,8,,,,,32,0.89247944,0.90625,,,,,,,
decision,193,638942,0.0-58.0-2.0,,311.3,run_exp/static/images/task_images/land.jpg,76,,,,,,29,,,8,,,,,,,,251975,1,5,TRUE,,,
travel,194,648644,0.0-59.0-0.0,,,,,,,,,,,"[{""stimulus"":""run_exp/static/images/task_images/rocket-01.jpg"",""time"":0.19999998807907104},{""stimulus"":""run_exp/static/images/task_images/rocket-02.jpg"",""time"":1088.5},{""stimulus"":""run_exp/static/images/task_images/rocket-03.jpg"",""time"":2158.600000023842},{""stimulus"":""run_exp/static/images/task_images/rocket-04.jpg"",""time"":3238.600000023842},{""stimulus"":""run_exp/static/images/task_images/rocket-05.jpg"",""time"":4318.399999976158},{""stimulus"":""run_exp/static/images/task_images/rocket-06.jpg"",""time"":5398.5},{""stimulus"":""run_exp/static/images/task_images/rocket-07.jpg"",""time"":6458.5},{""stimulus"":""run_exp/static/images/task_images/rocket-08.jpg"",""time"":7541},{""stimulus"":""run_exp/static/images/task_images/rocket-09.jpg"",""time"":8617.899999976158}]",[],8,,,,,,,,,,,,,,
alien_welcome,195,653667,0.0-59.0-1.0,,null,run_exp/static/images/task_images/aliens/old_aliens/planet/alien_planet-11.jpg,null,,,,,,,,,,,,11,"21,22,36,63,56,58,9,46,11,32,74,23,71,39,64,31,30,44,62,8,10,75,49,50,72,57,6,60,19,76,20,37,18,40,80,66,1,70,43,79",,,,,,,,,,
land,196,654183,0.0-59.0-2.0,,null,run_exp/static/images/task_images/land.jpg,null,,,,,,101,,,9,,,,,,,,,,,,,,
dig,197,656204,0.0-59.0-3.0,,,,,,,,,,,"[{""stimulus"":""run_exp/static/images/task_images/dig.jpg"",""time"":0.5},{""stimulus"":""run_exp/static/images/task_images/land.jpg"",""time"":678.9000000357628},{""stimulus"":""run_exp/static/images/task_images/dig.jpg"",""time"":1342.7000000476837}]",[],9,,,,,,,,,,,,,,
harvest,198,657214,0.0-59.0-4.0,,null,run_exp/static/images/task_images/gems/101.jpg,null,,,,,,21,,,9,,,,,101,0.211391792,0.207920792,,,,,,,
decision,199,657439,0.0-59.0-5.0,,221.5,run_exp/static/images/task_images/land.jpg,65,,,,,,21,,,9,,,,,,,,270472,1,0,FALSE,,,
dig,200,660234,0.0-60.0-0.0,,,,,,,,,,,"[{""stimulus"":""run_exp/static/images/task_images/dig.jpg"",""time"":0.20000004768371582},{""stimulus"":""run_exp/static/images/task_images/land.jpg"",""time"":938},{""stimulus"":""run_exp/static/images/task_images/dig.jpg"",""time"":1858.1000000238419}]",[],9,,,,,,,,,,,,,,
harvest,201,661242,0.0-60.0-1.0,,null,run_exp/static/images/task_images/gems/21.jpg,null,,,,,,6,,,9,,,,,21,0.26276594,0.285714286,,,,,,,
decision,202,661871,0.0-60.0-2.0,,627,run_exp/static/images/task_images/land.jpg,76,,,,,,6,,,9,,,,,,,,274905,1,1,TRUE,,,
travel,203,671259,0.0-61.0-0.0,,,,,,,,,,,"[{""stimulus"":""run_exp/static/images/task_images/rocket-01.jpg"",""time"":0.7000000476837158},{""stimulus"":""run_exp/static/images/task_images/rocket-02.jpg"",""time"":1062.300000011921},{""stimulus"":""run_exp/static/images/task_images/rocket-03.jpg"",""time"":2099.400000035763},{""stimulus"":""run_exp/static/images/task_images/rocket-04.jpg"",""time"":3131.800000011921},{""stimulus"":""run_exp/static/images/task_images/rocket-05.jpg"",""time"":4181.400000035763},{""stimulus"":""run_exp/static/images/task_images/rocket-06.jpg"",""time"":5212.300000011921},{""stimulus"":""run_exp/static/images/task_images/rocket-07.jpg"",""time"":6262.300000011921},{""stimulus"":""run_exp/static/images/task_images/rocket-08.jpg"",""time"":7301.800000011921},{""stimulus"":""run_exp/static/images/task_images/rocket-09.jpg"",""time"":8341.800000011921}]",[],9,,,,,,,,,,,,,,
alien_welcome,204,676277,0.0-61.0-1.0,,null,run_exp/static/images/task_images/aliens/old_aliens/planet/alien_planet-32.jpg,null,,,,,,,,,,,,32,"21,22,36,63,56,58,9,46,11,32,74,23,71,39,64,31,30,44,62,8,10,75,49,50,72,57,6,60,19,76,20,37,18,40,80,66,1,70,43,79",,,,,,,,,,
land,205,676786,0.0-61.0-2.0,,null,run_exp/static/images/task_images/land.jpg,null,,,,,,90,,,10,,,,,,,,,,,,,,
dig,206,678814,0.0-61.0-3.0,,,,,,,,,,,"[{""stimulus"":""run_exp/static/images/task_images/dig.jpg"",""time"":1.199999988079071},{""stimulus"":""run_exp/static/images/task_images/land.jpg"",""time"":671.5999999642372},{""stimulus"":""run_exp/static/images/task_images/dig.jpg"",""time"":1344.300000011921}]",[],10,,,,,,,,,,,,,,
harvest,207,679824,0.0-61.0-4.0,,null,run_exp/static/images/task_images/gems/90.jpg,null,,,,,,16,,,10,,,,,90,0.177570756,0.177777778,,,,,,,
decision,208,680195,0.0-61.0-5.0,,368.4,run_exp/static/images/task_images/land.jpg,65,,,,,,16,,,10,,,,,,,,293228,1,0,FALSE,,,
dig,209,682844,0.0-62.0-0.0,,,,,,,,,,,"[{""stimulus"":""run_exp/static/images/task_images/dig.jpg"",""time"":0.5},{""stimulus"":""run_exp/static/images/task_images/land.jpg"",""time"":889.7999999523163},{""stimulus"":""run_exp/static/images/task_images/dig.jpg"",""time"":1769.199999988079}]",[],10,,,,,,,,,,,,,,
harvest,210,683850,0.0-62.0-1.0,,null,run_exp/static/images/task_images/gems/16.jpg,null,,,,,,3,,,10,,,,,16,0.184925347,0.1875,,,,,,,
decision,211,684337,0.0-62.0-2.0,,482.3,run_exp/static/images/task_images/land.jpg,76,,,,,,3,,,10,,,,,,,,297370,1,1,TRUE,,,
travel,212,693864,0.0-63.0-0.0,,,,,,,,,,,"[{""stimulus"":""run_exp/static/images/task_images/rocket-01.jpg"",""time"":0.2999999523162842},{""stimulus"":""run_exp/static/images/task_images/rocket-02.jpg"",""time"":1072.5},{""stimulus"":""run_exp/static/images/task_images/rocket-03.jpg"",""time"":2123},{""stimulus"":""run_exp/static/images/task_images/rocket-04.jpg"",""time"":3180.5},{""stimulus"":""run_exp/static/images/task_images/rocket-05.jpg"",""time"":4241.899999976158},{""stimulus"":""run_exp/static/images/task_images/rocket-06.jpg"",""time"":5302.099999964237},{""stimulus"":""run_exp/static/images/task_images/rocket-07.jpg"",""time"":6362},{""stimulus"":""run_exp/static/images/task_images/rocket-08.jpg"",""time"":7421.899999976158},{""stimulus"":""run_exp/static/images/task_images/rocket-09.jpg"",""time"":8462}]",[],10,,,,,,,,,,,,,,
alien_welcome,213,698887,0.0-63.0-1.0,,null,run_exp/static/images/task_images/aliens/old_aliens/planet/alien_planet-74.jpg,null,,,,,,,,,,,,74,"21,22,36,63,56,58,9,46,11,32,74,23,71,39,64,31,30,44,62,8,10,75,49,50,72,57,6,60,19,76,20,37,18,40,80,66,1,70,43,79",,,,,,,,,,
land,214,699404,0.0-63.0-2.0,,null,run_exp/static/images/task_images/land.jpg,null,,,,,,88,,,11,,,,,,,,,,,,,,
dig,215,701434,0.0-63.0-3.0,,,,,,,,,,,"[{""stimulus"":""run_exp/static/images/task_images/dig.jpg"",""time"":0.5},{""stimulus"":""run_exp/static/images/task_images/land.jpg"",""time"":677.5},{""stimulus"":""run_exp/static/images/task_images/dig.jpg"",""time"":1340.199999988079}]",[],11,,,,,,,,,,,,,,
harvest,216,702451,0.0-63.0-4.0,,null,run_exp/static/images/task_images/gems/88.jpg,null,,,,,,15,,,11,,,,,88,0.173411693,0.170454545,,,,,,,
decision,217,702762,0.0-63.0-5.0,,308.6,run_exp/static/images/task_images/land.jpg,65,,,,,,15,,,11,,,,,,,,315796,1,0,TRUE,,,
end_of_block_continue,218,711678,0.0-64.0-0.0,,null,run_exp/static/audio/clip_32_block_end.m4a,,,,,,null,,,,,,,,,,,,,,,,,,
alien_welcome,219,716695,0.0-65.0-0.0,,null,run_exp/static/images/task_images/aliens/old_aliens/planet/alien_planet-23.jpg,null,,,,,,,,,,,,23,"21,22,36,63,56,58,9,46,11,32,74,23,71,39,64,31,30,44,62,8,10,75,49,50,72,57,6,60,19,76,20,37,18,40,80,66,1,70,43,79",,,,,,,,,,
land,220,717217,0.0-65.0-1.0,,null,run_exp/static/images/task_images/land.jpg,null,,,,,,104,,,12,,,,,,,,,,,,,,
dig,221,719233,0.0-65.0-2.0,,,,,,,,,,,"[{""stimulus"":""run_exp/static/images/task_images/dig.jpg"",""time"":0.5999999642372131},{""stimulus"":""run_exp/static/images/task_images/land.jpg"",""time"":680.7999999523163},{""stimulus"":""run_exp/static/images/task_images/dig.jpg"",""time"":1341.0999999642372}]",[],12,,,,,,,,,,,,,,
harvest,222,720253,0.0-65.0-3.0,,null,run_exp/static/images/task_images/gems/104.jpg,null,,,,,,20,,,12,,,,,104,0.191892708,0.192307692,,,,,,,
decision,223,720608,0.0-65.0-4.0,,352.8,run_exp/static/images/task_images/land.jpg,65,,,,,,20,,,12,,,,,,,,8918,2,0,FALSE,,,
dig,224,723269,0.0-66.0-0.0,,,,,,,,,,,"[{""stimulus"":""run_exp/static/images/task_images/dig.jpg"",""time"":0.20000004768371582},{""stimulus"":""run_exp/static/images/task_images/land.jpg"",""time"":893.8000000119209},{""stimulus"":""run_exp/static/images/task_images/dig.jpg"",""time"":1777.5}]",[],12,,,,,,,,,,,,,,
harvest,225,724273,0.0-66.0-1.0,,null,run_exp/static/images/task_images/gems/20.jpg,null,,,,,,7,,,12,,,,,20,0.336263434,0.35,,,,,,,
decision,226,724739,0.0-66.0-2.0,,464.3,run_exp/static/images/task_images/land.jpg,65,,,,,,7,,,12,,,,,,,,13049,2,1,FALSE,,,
dig,227,727294,0.0-67.0-0.0,,,,,,,,,,,"[{""stimulus"":""run_exp/static/images/task_images/dig.jpg"",""time"":0.2999999523162842},{""stimulus"":""run_exp/static/images/task_images/land.jpg"",""time"":861.5},{""stimulus"":""run_exp/static/images/task_images/dig.jpg"",""time"":1699.0999999642372}]",[],12,,,,,,,,,,,,,,
harvest,228,728302,0.0-67.0-1.0,,null,run_exp/static/images/task_images/gems/7.jpg,null,,,,,,1,,,12,,,,,7,0.204986472,0.142857143,,,,,,,
decision,229,728737,0.0-67.0-2.0,,431.7,run_exp/static/images/task_images/land.jpg,76,,,,,,1,,,12,,,,,,,,17047,2,2,TRUE,,,
travel,230,738334,0.0-68.0-0.0,,,,,,,,,,,"[{""stimulus"":""run_exp/static/images/task_images/rocket-01.jpg"",""time"":0.699999988079071},{""stimulus"":""run_exp/static/images/task_images/rocket-02.jpg"",""time"":1072},{""stimulus"":""run_exp/static/images/task_images/rocket-03.jpg"",""time"":2129.800000011921},{""stimulus"":""run_exp/static/images/task_images/rocket-04.jpg"",""time"":3211.800000011921},{""stimulus"":""run_exp/static/images/task_images/rocket-05.jpg"",""time"":4272.199999988079},{""stimulus"":""run_exp/static/images/task_images/rocket-06.jpg"",""time"":5321.699999988079},{""stimulus"":""run_exp/static/images/task_images/rocket-07.jpg"",""time"":6396.900000035763},{""stimulus"":""run_exp/static/images/task_images/rocket-08.jpg"",""time"":7452.400000035763},{""stimulus"":""run_exp/static/images/task_images/rocket-09.jpg"",""time"":8511.900000035763}]",[],12,,,,,,,,,,,,,,
alien_welcome,231,743364,0.0-68.0-1.0,,null,run_exp/static/images/task_images/aliens/old_aliens/planet/alien_planet-71.jpg,null,,,,,,,,,,,,71,"21,22,36,63,56,58,9,46,11,32,74,23,71,39,64,31,30,44,62,8,10,75,49,50,72,57,6,60,19,76,20,37,18,40,80,66,1,70,43,79",,,,,,,,,,
land,232,743883,0.0-68.0-2.0,,null,run_exp/static/images/task_images/land.jpg,null,,,,,,101,,,13,,,,,,,,,,,,,,
dig,233,745904,0.0-68.0-3.0,,,,,,,,,,,"[{""stimulus"":""run_exp/static/images/task_images/dig.jpg"",""time"":0.699999988079071},{""stimulus"":""run_exp/static/images/task_images/land.jpg"",""time"":678.1000000238419},{""stimulus"":""run_exp/static/images/task_images/dig.jpg"",""time"":1340}]",[],13,,,,,,,,,,,,,,
harvest,234,746924,0.0-68.0-4.0,,null,run_exp/static/images/task_images/gems/101.jpg,null,,,,,,18,,,13,,,,,101,0.179598979,0.178217822,,,,,,,
decision,235,747461,0.0-68.0-5.0,,533.9,run_exp/static/images/task_images/land.jpg,65,,,,,,18,,,13,,,,,,,,35772,2,0,FALSE,,,
dig,236,749944,0.0-69.0-0.0,,,,,,,,,,,"[{""stimulus"":""run_exp/static/images/task_images/dig.jpg"",""time"":0.6000000238418579},{""stimulus"":""run_exp/static/images/task_images/land.jpg"",""time"":827.4000000357628},{""stimulus"":""run_exp/static/images/task_images/dig.jpg"",""time"":1651.2000000476837}]",[],13,,,,,,,,,,,,,,
harvest,237,750952,0.0-69.0-1.0,,null,run_exp/static/images/task_images/gems/18.jpg,null,,,,,,5,,,13,,,,,18,0.25058708,0.277777778,,,,,,,
decision,238,751350,0.0-69.0-2.0,,396.4,run_exp/static/images/task_images/land.jpg,65,,,,,,5,,,13,,,,,,,,39660,2,1,FALSE,,,
dig,239,753964,0.0-70.0-0.0,,,,,,,,,,,"[{""stimulus"":""run_exp/static/images/task_images/dig.jpg"",""time"":0.19999998807907104},{""stimulus"":""run_exp/static/images/task_images/land.jpg"",""time"":877.8000000119209},{""stimulus"":""run_exp/static/images/task_images/dig.jpg"",""time"":1747.699999988079}]",[],13,,,,,,,,,,,,,,
harvest,240,754973,0.0-70.0-1.0,,null,run_exp/static/images/task_images/gems/5.jpg,null,,,,,,1,,,13,,,,,5,0.165961017,0.2,,,,,,,
decision,241,755135,0.0-70.0-2.0,,159.7,run_exp/static/images/task_images/land.jpg,76,,,,,,1,,,13,,,,,,,,43445,2,2,TRUE,,,
travel,242,764986,0.0-71.0-0.0,,,,,,,,,,,"[{""stimulus"":""run_exp/static/images/task_images/rocket-01.jpg"",""time"":0.5},{""stimulus"":""run_exp/static/images/task_images/rocket-02.jpg"",""time"":1104.800000011921},{""stimulus"":""run_exp/static/images/task_images/rocket-03.jpg"",""time"":2204.900000035763},{""stimulus"":""run_exp/static/images/task_images/rocket-04.jpg"",""time"":3284.100000023842},{""stimulus"":""run_exp/static/images/task_images/rocket-05.jpg"",""time"":4384.800000011921},{""stimulus"":""run_exp/static/images/task_images/rocket-06.jpg"",""time"":5474.800000011921},{""stimulus"":""run_exp/static/images/task_images/rocket-07.jpg"",""time"":6564.699999988079},{""stimulus"":""run_exp/static/images/task_images/rocket-08.jpg"",""time"":7665},{""stimulus"":""run_exp/static/images/task_images/rocket-09.jpg"",""time"":8754.100000023842}]",[],13,,,,,,,,,,,,,,
alien_welcome,243,770007,0.0-71.0-1.0,,null,run_exp/static/images/task_images/aliens/old_aliens/planet/alien_planet-39.jpg,null,,,,,,,,,,,,39,"21,22,36,63,56,58,9,46,11,32,74,23,71,39,64,31,30,44,62,8,10,75,49,50,72,57,6,60,19,76,20,37,18,40,80,66,1,70,43,79",,,,,,,,,,
land,244,770524,0.0-71.0-2.0,,null,run_exp/static/images/task_images/land.jpg,null,,,,,,96,,,14,,,,,,,,,,,,,,
dig,245,772534,0.0-71.0-3.0,,,,,,,,,,,"[{""stimulus"":""run_exp/static/images/task_images/dig.jpg"",""time"":0.5},{""stimulus"":""run_exp/static/images/task_images/land.jpg"",""time"":687.0999999642372},{""stimulus"":""run_exp/static/images/task_images/dig.jpg"",""time"":1337.3999999761581}]",[],14,,,,,,,,,,,,,,
harvest,246,773544,0.0-71.0-4.0,,null,run_exp/static/images/task_images/gems/96.jpg,null,,,,,,27,,,14,,,,,96,0.282529545,0.28125,,,,,,,
decision,247,774442,0.0-71.0-5.0,,895.3,run_exp/static/images/task_images/land.jpg,65,,,,,,27,,,14,,,,,,,,62752,2,0,FALSE,,,
dig,248,776564,0.0-72.0-0.0,,,,,,,,,,,"[{""stimulus"":""run_exp/static/images/task_images/dig.jpg"",""time"":0.5},{""stimulus"":""run_exp/static/images/task_images/land.jpg"",""time"":710.3999999761581},{""stimulus"":""run_exp/static/images/task_images/dig.jpg"",""time"":1410.699999988079}]",[],14,,,,,,,,,,,,,,
harvest,249,777587,0.0-72.0-1.0,,null,run_exp/static/images/task_images/gems/27.jpg,null,,,,,,5,,,14,,,,,27,0.190933193,0.185185185,,,,,,,
decision,250,778284,0.0-72.0-2.0,,691.8,run_exp/static/images/task_images/land.jpg,76,,,,,,5,,,14,,,,,,,,66594,2,1,TRUE,,,
travel,251,787623,0.0-73.0-0.0,,,,,,,,,,,"[{""stimulus"":""run_exp/static/images/task_images/rocket-01.jpg"",""time"":0.5999999642372131},{""stimulus"":""run_exp/static/images/task_images/rocket-02.jpg"",""time"":1048.199999988079},{""stimulus"":""run_exp/static/images/task_images/rocket-03.jpg"",""time"":2086.5},{""stimulus"":""run_exp/static/images/task_images/rocket-04.jpg"",""time"":3116.699999988079},{""stimulus"":""run_exp/static/images/task_images/rocket-05.jpg"",""time"":4146.599999964237},{""stimulus"":""run_exp/static/images/task_images/rocket-06.jpg"",""time"":5178.899999976158},{""stimulus"":""run_exp/static/images/task_images/rocket-07.jpg"",""time"":6226.599999964237},{""stimulus"":""run_exp/static/images/task_images/rocket-08.jpg"",""time"":7251.699999988079},{""stimulus"":""run_exp/static/images/task_images/rocket-09.jpg"",""time"":8286.299999952316}]",[],14,,,,,,,,,,,,,,
alien_welcome,252,792628,0.0-73.0-1.0,,null,run_exp/static/images/task_images/aliens/old_aliens/planet/alien_planet-64.jpg,null,,,,,,,,,,,,64,"21,22,36,63,56,58,9,46,11,32,74,23,71,39,64,31,30,44,62,8,10,75,49,50,72,57,6,60,19,76,20,37,18,40,80,66,1,70,43,79",,,,,,,,,,
land,253,793144,0.0-73.0-2.0,,null,run_exp/static/images/task_images/land.jpg,null,,,,,,109,,,15,,,,,,,,,,,,,,
dig,254,795155,0.0-73.0-3.0,,,,,,,,,,,"[{""stimulus"":""run_exp/static/images/task_images/dig.jpg"",""time"":0.5999999642372131},{""stimulus"":""run_exp/static/images/task_images/land.jpg"",""time"":686.3999999761581},{""stimulus"":""run_exp/static/images/task_images/dig.jpg"",""time"":1343.3999999761581}]",[],15,,,,,,,,,,,,,,
harvest,255,796163,0.0-73.0-4.0,,null,run_exp/static/images/task_images/gems/109.jpg,null,,,,,,90,,,15,,,,,109,0.82405805,0.825688073,,,,,,,
decision,256,796961,0.0-73.0-5.0,,794.3,run_exp/static/images/task_images/land.jpg,65,,,,,,90,,,15,,,,,,,,85271,2,0,FALSE,,,
dig,257,799185,0.0-74.0-0.0,,,,,,,,,,,"[{""stimulus"":""run_exp/static/images/task_images/dig.jpg"",""time"":0.5},{""stimulus"":""run_exp/static/images/task_images/land.jpg"",""time"":755},{""stimulus"":""run_exp/static/images/task_images/dig.jpg"",""time"":1481.199999988079}]",[],15,,,,,,,,,,,,,,
harvest,258,800194,0.0-74.0-1.0,,null,run_exp/static/images/task_images/gems/90.jpg,null,,,,,,63,,,15,,,,,90,0.698363707,0.7,,,,,,,
decision,259,800716,0.0-74.0-2.0,,517.4,run_exp/static/images/task_images/land.jpg,65,,,,,,63,,,15,,,,,,,,89026,2,1,FALSE,,,
dig,260,803229,0.0-75.0-0.0,,,,,,,,,,,"[{""stimulus"":""run_exp/static/images/task_images/dig.jpg"",""time"":0.30000001192092896},{""stimulus"":""run_exp/static/images/task_images/land.jpg"",""time"":836.4000000357628},{""stimulus"":""run_exp/static/images/task_images/dig.jpg"",""time"":1676.199999988079}]",[],15,,,,,,,,,,,,,,
harvest,261,804233,0.0-75.0-1.0,,null,run_exp/static/images/task_images/gems/63.jpg,null,,,,,,49,,,15,,,,,63,0.773733282,0.777777778,,,,,,,
decision,262,804738,0.0-75.0-2.0,,502.2,run_exp/static/images/task_images/land.jpg,65,,,,,,49,,,15,,,,,,,,93048,2,2,FALSE,,,
dig,263,807245,0.0-76.0-0.0,,,,,,,,,,,"[{""stimulus"":""run_exp/static/images/task_images/dig.jpg"",""time"":0.19999998807907104},{""stimulus"":""run_exp/static/images/task_images/land.jpg"",""time"":841.8999999761581},{""stimulus"":""run_exp/static/images/task_images/dig.jpg"",""time"":1681.2999999523163}]",[],15,,,,,,,,,,,,,,
harvest,264,808259,0.0-76.0-1.0,,null,run_exp/static/images/task_images/gems/49.jpg,null,,,,,,42,,,15,,,,,49,0.863791404,0.857142857,,,,,,,
decision,265,808739,0.0-76.0-2.0,,477,run_exp/static/images/task_images/land.jpg,65,,,,,,42,,,15,,,,,,,,97050,2,3,FALSE,,,
dig,266,811284,0.0-77.0-0.0,,,,,,,,,,,"[{""stimulus"":""run_exp/static/images/task_images/dig.jpg"",""time"":0.3999999761581421},{""stimulus"":""run_exp/static/images/task_images/land.jpg"",""time"":861.0999999642372},{""stimulus"":""run_exp/static/images/task_images/dig.jpg"",""time"":1700.5999999642372}]",[],15,,,,,,,,,,,,,,
harvest,267,812287,0.0-77.0-1.0,,null,run_exp/static/images/task_images/gems/42.jpg,null,,,,,,32,,,15,,,,,42,0.757759425,0.761904762,,,,,,,
decision,268,812933,0.0-77.0-2.0,,644.3,run_exp/static/images/task_images/land.jpg,65,,,,,,32,,,15,,,,,,,,101244,2,4,FALSE,,,
dig,269,815305,0.0-78.0-0.0,,,,,,,,,,,"[{""stimulus"":""run_exp/static/images/task_images/dig.jpg"",""time"":0.5},{""stimulus"":""run_exp/static/images/task_images/land.jpg"",""time"":797.6999999880791},{""stimulus"":""run_exp/static/images/task_images/dig.jpg"",""time"":1588.199999988079}]",[],15,,,,,,,,,,,,,,
harvest,270,816315,0.0-78.0-1.0,,null,run_exp/static/images/task_images/gems/32.jpg,null,,,,,,27,,,15,,,,,32,0.845251491,0.84375,,,,,,,
decision,271,817041,0.0-78.0-2.0,,722.2,run_exp/static/images/task_images/land.jpg,65,,,,,,27,,,15,,,,,,,,105352,2,5,FALSE,,,
dig,272,819355,0.0-79.0-0.0,,,,,,,,,,,"[{""stimulus"":""run_exp/static/images/task_images/dig.jpg"",""time"":0.6000000238418579},{""stimulus"":""run_exp/static/images/task_images/land.jpg"",""time"":782},{""stimulus"":""run_exp/static/images/task_images/dig.jpg"",""time"":1526.1000000238419}]",[],15,,,,,,,,,,,,,,
harvest,273,820378,0.0-79.0-1.0,,null,run_exp/static/images/task_images/gems/27.jpg,null,,,,,,22,,,15,,,,,27,0.80758558,0.814814815,,,,,,,
decision,274,820646,0.0-79.0-2.0,,261.8,run_exp/static/images/task_images/land.jpg,76,,,,,,22,,,15,,,,,,,,108956,2,6,TRUE,,,
travel,275,830405,0.0-80.0-0.0,,,,,,,,,,,"[{""stimulus"":""run_exp/static/images/task_images/rocket-01.jpg"",""time"":0.19999998807907104},{""stimulus"":""run_exp/static/images/task_images/rocket-02.jpg"",""time"":1094},{""stimulus"":""run_exp/static/images/task_images/rocket-03.jpg"",""time"":2174.399999976158},{""stimulus"":""run_exp/static/images/task_images/rocket-04.jpg"",""time"":3254.7999999523163},{""stimulus"":""run_exp/static/images/task_images/rocket-05.jpg"",""time"":4344.299999952316},{""stimulus"":""run_exp/static/images/task_images/rocket-06.jpg"",""time"":5413.299999952316},{""stimulus"":""run_exp/static/images/task_images/rocket-07.jpg"",""time"":6513.5},{""stimulus"":""run_exp/static/images/task_images/rocket-08.jpg"",""time"":7593.799999952316},{""stimulus"":""run_exp/static/images/task_images/rocket-09.jpg"",""time"":8674.199999988079}]",[],15,,,,,,,,,,,,,,
alien_welcome,276,835417,0.0-80.0-1.0,,null,run_exp/static/images/task_images/aliens/old_aliens/planet/alien_planet-31.jpg,null,,,,,,,,,,,,31,"21,22,36,63,56,58,9,46,11,32,74,23,71,39,64,31,30,44,62,8,10,75,49,50,72,57,6,60,19,76,20,37,18,40,80,66,1,70,43,79",,,,,,,,,,
land,277,835927,0.0-80.0-2.0,,null,run_exp/static/images/task_images/land.jpg,null,,,,,,103,,,16,,,,,,,,,,,,,,
dig,278,837945,0.0-80.0-3.0,,,,,,,,,,,"[{""stimulus"":""run_exp/static/images/task_images/dig.jpg"",""time"":1.399999976158142},{""stimulus"":""run_exp/static/images/task_images/land.jpg"",""time"":672.0999999642372},{""stimulus"":""run_exp/static/images/task_images/dig.jpg"",""time"":1349.300000011921}]",[],16,,,,,,,,,,,,,,
harvest,279,838968,0.0-80.0-4.0,,null,run_exp/static/images/task_images/gems/103.jpg,null,,,,,,71,,,16,,,,,103,0.693574338,0.689320388,,,,,,,
decision,280,839505,0.0-80.0-5.0,,532.7,run_exp/static/images/task_images/land.jpg,65,,,,,,71,,,16,,,,,,,,127815,2,0,FALSE,,,
dig,281,842005,0.0-81.0-0.0,,,,,,,,,,,"[{""stimulus"":""run_exp/static/images/task_images/dig.jpg"",""time"":0.5},{""stimulus"":""run_exp/static/images/task_images/land.jpg"",""time"":830.8000000119209},{""stimulus"":""run_exp/static/images/task_images/dig.jpg"",""time"":1666.2000000476837}]",[],16,,,,,,,,,,,,,,
harvest,282,843009,0.0-81.0-1.0,,null,run_exp/static/images/task_images/gems/71.jpg,null,,,,,,58,,,16,,,,,71,0.821571521,0.816901408,,,,,,,
decision,283,843669,0.0-81.0-2.0,,656.7,run_exp/static/images/task_images/land.jpg,65,,,,,,58,,,16,,,,,,,,131979,2,1,FALSE,,,
dig,284,846044,0.0-82.0-0.0,,,,,,,,,,,"[{""stimulus"":""run_exp/static/images/task_images/dig.jpg"",""time"":1.199999988079071},{""stimulus"":""run_exp/static/images/task_images/land.jpg"",""time"":803.9000000357628},{""stimulus"":""run_exp/static/images/task_images/dig.jpg"",""time"":1584.4000000357628}]",[],16,,,,,,,,,,,,,,
harvest,285,847064,0.0-82.0-1.0,,null,run_exp/static/images/task_images/gems/58.jpg,null,,,,,,48,,,16,,,,,58,0.820112033,0.827586207,,,,,,,
decision,286,847769,0.0-82.0-2.0,,700.4,run_exp/static/images/task_images/land.jpg,65,,,,,,48,,,16,,,,,,,,136079,2,2,FALSE,,,
dig,287,850104,0.0-83.0-0.0,,,,,,,,,,,"[{""stimulus"":""run_exp/static/images/task_images/dig.jpg"",""time"":0.5},{""stimulus"":""run_exp/static/images/task_images/land.jpg"",""time"":783.6999999880791},{""stimulus"":""run_exp/static/images/task_images/dig.jpg"",""time"":1553.699999988079}]",[],16,,,,,,,,,,,,,,
harvest,288,851119,0.0-83.0-1.0,,null,run_exp/static/images/task_images/gems/48.jpg,null,,,,,,36,,,16,,,,,48,0.760359365,0.75,,,,,,,
decision,289,851647,0.0-83.0-2.0,,523.6,run_exp/static/images/task_images/land.jpg,65,,,,,,36,,,16,,,,,,,,139957,2,3,FALSE,,,
dig,290,854144,0.0-84.0-0.0,,,,,,,,,,,"[{""stimulus"":""run_exp/static/images/task_images/dig.jpg"",""time"":0.6000000238418579},{""stimulus"":""run_exp/static/images/task_images/land.jpg"",""time"":830.4000000357628},{""stimulus"":""run_exp/static/images/task_images/dig.jpg"",""time"":1661}]",[],16,,,,,,,,,,,,,,
harvest,291,855147,0.0-84.0-1.0,,null,run_exp/static/images/task_images/gems/36.jpg,null,,,,,,30,,,16,,,,,36,0.829995929,0.833333333,,,,,,,
decision,292,855677,0.0-84.0-2.0,,528.2,run_exp/static/images/task_images/land.jpg,76,,,,,,30,,,16,,,,,,,,143987,2,4,TRUE,,,
travel,293,865175,0.0-85.0-0.0,,,,,,,,,,,"[{""stimulus"":""run_exp/static/images/task_images/rocket-01.jpg"",""time"":0.40000003576278687},{""stimulus"":""run_exp/static/images/task_images/rocket-02.jpg"",""time"":1060.4000000357628},{""stimulus"":""run_exp/static/images/task_images/rocket-03.jpg"",""time"":2120.400000035763},{""stimulus"":""run_exp/static/images/task_images/rocket-04.jpg"",""time"":3171},{""stimulus"":""run_exp/static/images/task_images/rocket-05.jpg"",""time"":4234.5},{""stimulus"":""run_exp/static/images/task_images/rocket-06.jpg"",""time"":5270.900000035763},{""stimulus"":""run_exp/static/images/task_images/rocket-07.jpg"",""time"":6320.699999988079},{""stimulus"":""run_exp/static/images/task_images/rocket-08.jpg"",""time"":7380.300000011921},{""stimulus"":""run_exp/static/images/task_images/rocket-09.jpg"",""time"":8421}]",[],16,,,,,,,,,,,,,,
alien_welcome,294,870194,0.0-85.0-1.0,,null,run_exp/static/images/task_images/aliens/old_aliens/planet/alien_planet-30.jpg,null,,,,,,,,,,,,30,"21,22,36,63,56,58,9,46,11,32,74,23,71,39,64,31,30,44,62,8,10,75,49,50,72,57,6,60,19,76,20,37,18,40,80,66,1,70,43,79",,,,,,,,,,
land,295,870705,0.0-85.0-2.0,,null,run_exp/static/images/task_images/land.jpg,null,,,,,,97,,,17,,,,,,,,,,,,,,
dig,296,872715,0.0-85.0-3.0,,,,,,,,,,,"[{""stimulus"":""run_exp/static/images/task_images/dig.jpg"",""time"":0.6000000238418579},{""stimulus"":""run_exp/static/images/task_images/land.jpg"",""time"":676.6999999880791},{""stimulus"":""run_exp/static/images/task_images/dig.jpg"",""time"":1343.5}]",[],17,,,,,,,,,,,,,,
harvest,297,873730,0.0-85.0-4.0,,null,run_exp/static/images/task_images/gems/97.jpg,null,,,,,,78,,,17,,,,,97,0.80751277,0.804123711,,,,,,,
decision,298,874417,0.0-85.0-5.0,,683,run_exp/static/images/task_images/land.jpg,65,,,,,,78,,,17,,,,,,,,162727,2,0,FALSE,,,
dig,299,876764,0.0-86.0-0.0,,,,,,,,,,,"[{""stimulus"":""run_exp/static/images/task_images/dig.jpg"",""time"":0.6000000238418579},{""stimulus"":""run_exp/static/images/task_images/land.jpg"",""time"":787},{""stimulus"":""run_exp/static/images/task_images/dig.jpg"",""time"":1556.300000011921}]",[],17,,,,,,,,,,,,,,
harvest,300,877784,0.0-86.0-1.0,,null,run_exp/static/images/task_images/gems/78.jpg,null,,,,,,58,,,17,,,,,78,0.743043444,0.743589744,,,,,,,
decision,301,878305,0.0-86.0-2.0,,519,run_exp/static/images/task_images/land.jpg,65,,,,,,58,,,17,,,,,,,,166615,2,1,FALSE,,,
dig,302,880805,0.0-87.0-0.0,,,,,,,,,,,"[{""stimulus"":""run_exp/static/images/task_images/dig.jpg"",""time"":0.19999998807907104},{""stimulus"":""run_exp/static/images/task_images/land.jpg"",""time"":834.6000000238419},{""stimulus"":""run_exp/static/images/task_images/dig.jpg"",""time"":1659.699999988079}]",[],17,,,,,,,,,,,,,,
harvest,303,881822,0.0-87.0-1.0,,null,run_exp/static/images/task_images/gems/58.jpg,null,,,,,,48,,,17,,,,,58,0.824851903,0.827586207,,,,,,,
decision,304,883087,0.0-87.0-2.0,,1261.8,run_exp/static/images/task_images/land.jpg,65,,,,,,48,,,17,,,,,,,,171397,2,2,FALSE,,,
dig,305,884845,0.0-88.0-0.0,,,,,,,,,,,"[{""stimulus"":""run_exp/static/images/task_images/dig.jpg"",""time"":0.40000003576278687},{""stimulus"":""run_exp/static/images/task_images/land.jpg"",""time"":585.6999999880791},{""stimulus"":""run_exp/static/images/task_images/dig.jpg"",""time"":1175.300000011921}]",[],17,,,,,,,,,,,,,,
harvest,306,885864,0.0-88.0-1.0,,null,run_exp/static/images/task_images/gems/48.jpg,null,,,,,,39,,,17,,,,,48,0.819394187,0.8125,,,,,,,
decision,307,887289,0.0-88.0-2.0,,1421,run_exp/static/images/task_images/land.jpg,65,,,,,,39,,,17,,,,,,,,175599,2,3,FALSE,,,
dig,308,888885,0.0-89.0-0.0,,,,,,,,,,,"[{""stimulus"":""run_exp/static/images/task_images/dig.jpg"",""time"":0.3999999761581421},{""stimulus"":""run_exp/static/images/task_images/land.jpg"",""time"":547.0999999642372},{""stimulus"":""run_exp/static/images/task_images/dig.jpg"",""time"":1056.5999999642372}]",[],17,,,,,,,,,,,,,,
harvest,309,889895,0.0-89.0-1.0,,null,run_exp/static/images/task_images/gems/39.jpg,null,,,,,,31,,,17,,,,,39,0.783439778,0.794871795,,,,,,,
decision,310,890062,0.0-89.0-2.0,,163.1,run_exp/static/images/task_images/land.jpg,65,,,,,,31,,,17,,,,,,,,178372,2,4,FALSE,,,
dig,311,892925,0.0-90.0-0.0,,,,,,,,,,,"[{""stimulus"":""run_exp/static/images/task_images/dig.jpg"",""time"":0.40000003576278687},{""stimulus"":""run_exp/static/images/task_images/land.jpg"",""time"":954.3000000119209},{""stimulus"":""run_exp/static/images/task_images/dig.jpg"",""time"":1906.199999988079}]",[],17,,,,,,,,,,,,,,
harvest,312,893937,0.0-90.0-1.0,,null,run_exp/static/images/task_images/gems/31.jpg,null,,,,,,24,,,17,,,,,31,0.789513895,0.774193548,,,,,,,
decision,313,894871,0.0-90.0-2.0,,931.2,run_exp/static/images/task_images/land.jpg,76,,,,,,24,,,17,,,,,,,,183181,2,5,TRUE,,,
travel,314,903965,0.0-91.0-0.0,,,,,,,,,,,"[{""stimulus"":""run_exp/static/images/task_images/rocket-01.jpg"",""time"":0.5},{""stimulus"":""run_exp/static/images/task_images/rocket-02.jpg"",""time"":1026.5},{""stimulus"":""run_exp/static/images/task_images/rocket-03.jpg"",""time"":2022.0999999642372},{""stimulus"":""run_exp/static/images/task_images/rocket-04.jpg"",""time"":3026.899999976158},{""stimulus"":""run_exp/static/images/task_images/rocket-05.jpg"",""time"":4041.800000011921},{""stimulus"":""run_exp/static/images/task_images/rocket-06.jpg"",""time"":5053.099999964237},{""stimulus"":""run_exp/static/images/task_images/rocket-07.jpg"",""time"":6052.199999988079},{""stimulus"":""run_exp/static/images/task_images/rocket-08.jpg"",""time"":7062.099999964237},{""stimulus"":""run_exp/static/images/task_images/rocket-09.jpg"",""time"":8061.800000011921}]",[],17,,,,,,,,,,,,,,
alien_welcome,315,908974,0.0-91.0-1.0,,null,run_exp/static/images/task_images/aliens/old_aliens/planet/alien_planet-44.jpg,null,,,,,,,,,,,,44,"21,22,36,63,56,58,9,46,11,32,74,23,71,39,64,31,30,44,62,8,10,75,49,50,72,57,6,60,19,76,20,37,18,40,80,66,1,70,43,79",,,,,,,,,,
land,316,909507,0.0-91.0-2.0,,null,run_exp/static/images/task_images/land.jpg,null,,,,,,91,,,18,,,,,,,,,,,,,,
dig,317,911515,0.0-91.0-3.0,,,,,,,,,,,"[{""stimulus"":""run_exp/static/images/task_images/dig.jpg"",""time"":0.3999999761581421},{""stimulus"":""run_exp/static/images/task_images/land.jpg"",""time"":674.1000000238419},{""stimulus"":""run_exp/static/images/task_images/dig.jpg"",""time"":1343.8999999761581}]",[],18,,,,,,,,,,,,,,
harvest,318,912535,0.0-91.0-4.0,,null,run_exp/static/images/task_images/gems/91.jpg,null,,,,,,76,,,18,,,,,91,0.836607068,0.835164835,,,,,,,
decision,319,913064,0.0-91.0-5.0,,525.4,run_exp/static/images/task_images/land.jpg,65,,,,,,76,,,18,,,,,,,,201374,2,0,FALSE,,,
dig,320,915565,0.0-92.0-0.0,,,,,,,,,,,"[{""stimulus"":""run_exp/static/images/task_images/dig.jpg"",""time"":0.5},{""stimulus"":""run_exp/static/images/task_images/land.jpg"",""time"":836},{""stimulus"":""run_exp/static/images/task_images/dig.jpg"",""time"":1666.6000000238419}]",[],18,,,,,,,,,,,,,,
harvest,321,916576,0.0-92.0-1.0,,null,run_exp/static/images/task_images/gems/76.jpg,null,,,,,,66,,,18,,,,,76,0.870112223,0.868421053,,,,,,,
decision,322,917101,0.0-92.0-2.0,,523.6,run_exp/static/images/task_images/land.jpg,65,,,,,,66,,,18,,,,,,,,205411,2,1,FALSE,,,
dig,323,919585,0.0-93.0-0.0,,,,,,,,,,,"[{""stimulus"":""run_exp/static/images/task_images/dig.jpg"",""time"":0.20000004768371582},{""stimulus"":""run_exp/static/images/task_images/land.jpg"",""time"":837.8000000119209},{""stimulus"":""run_exp/static/images/task_images/dig.jpg"",""time"":1657.2000000476837}]",[],18,,,,,,,,,,,,,,
harvest,324,920589,0.0-93.0-1.0,,null,run_exp/static/images/task_images/gems/66.jpg,null,,,,,,53,,,18,,,,,66,0.803593399,0.803030303,,,,,,,
decision,325,921036,0.0-93.0-2.0,,445.7,run_exp/static/images/task_images/land.jpg,65,,,,,,53,,,18,,,,,,,,209346,2,2,FALSE,,,
dig,326,923604,0.0-94.0-0.0,,,,,,,,,,,"[{""stimulus"":""run_exp/static/images/task_images/dig.jpg"",""time"":0.2999999523162842},{""stimulus"":""run_exp/static/images/task_images/land.jpg"",""time"":862.6999999880791},{""stimulus"":""run_exp/static/images/task_images/dig.jpg"",""time"":1722.8999999761581}]",[],18,,,,,,,,,,,,,,
harvest,327,924611,0.0-94.0-1.0,,null,run_exp/static/images/task_images/gems/53.jpg,null,,,,,,46,,,18,,,,,53,0.859429592,0.867924528,,,,,,,
decision,328,925208,0.0-94.0-2.0,,593.9,run_exp/static/images/task_images/land.jpg,65,,,,,,46,,,18,,,,,,,,213518,2,3,FALSE,,,
dig,329,927655,0.0-95.0-0.0,,,,,,,,,,,"[{""stimulus"":""run_exp/static/images/task_images/dig.jpg"",""time"":0.5},{""stimulus"":""run_exp/static/images/task_images/land.jpg"",""time"":806.4000000357628},{""stimulus"":""run_exp/static/images/task_images/dig.jpg"",""time"":1627.4000000357628}]",[],18,,,,,,,,,,,,,,
harvest,330,928667,0.0-95.0-1.0,,null,run_exp/static/images/task_images/gems/46.jpg,null,,,,,,33,,,18,,,,,46,0.718049787,0.717391304,,,,,,,
decision,331,929100,0.0-95.0-2.0,,429.6,run_exp/static/images/task_images/land.jpg,65,,,,,,33,,,18,,,,,,,,217410,2,4,FALSE,,,
dig,332,931690,0.0-96.0-0.0,,,,,,,,,,,"[{""stimulus"":""run_exp/static/images/task_images/dig.jpg"",""time"":0.6000000238418579},{""stimulus"":""run_exp/static/images/task_images/land.jpg"",""time"":877.1000000238419},{""stimulus"":""run_exp/static/images/task_images/dig.jpg"",""time"":1731.199999988079}]",[],18,,,,,,,,,,,,,,
harvest,333,932700,0.0-96.0-1.0,,null,run_exp/static/images/task_images/gems/33.jpg,null,,,,,,24,,,18,,,,,33,0.740285968,0.727272727,,,,,,,
decision,334,933189,0.0-96.0-2.0,,487.6,run_exp/static/images/task_images/land.jpg,76,,,,,,24,,,18,,,,,,,,221499,2,5,TRUE,,,
travel,335,942707,0.0-97.0-0.0,,,,,,,,,,,"[{""stimulus"":""run_exp/static/images/task_images/rocket-01.jpg"",""time"":0.3999999761581421},{""stimulus"":""run_exp/static/images/task_images/rocket-02.jpg"",""time"":1069.5999999642372},{""stimulus"":""run_exp/static/images/task_images/rocket-03.jpg"",""time"":2130.899999976158},{""stimulus"":""run_exp/static/images/task_images/rocket-04.jpg"",""time"":3189},{""stimulus"":""run_exp/static/images/task_images/rocket-05.jpg"",""time"":4228.5},{""stimulus"":""run_exp/static/images/task_images/rocket-06.jpg"",""time"":5294.299999952316},{""stimulus"":""run_exp/static/images/task_images/rocket-07.jpg"",""time"":6360.699999988079},{""stimulus"":""run_exp/static/images/task_images/rocket-08.jpg"",""time"":7409.5},{""stimulus"":""run_exp/static/images/task_images/rocket-09.jpg"",""time"":8468.899999976158}]",[],18,,,,,,,,,,,,,,
alien_welcome,336,947724,0.0-97.0-1.0,,null,run_exp/static/images/task_images/aliens/old_aliens/planet/alien_planet-62.jpg,null,,,,,,,,,,,,62,"21,22,36,63,56,58,9,46,11,32,74,23,71,39,64,31,30,44,62,8,10,75,49,50,72,57,6,60,19,76,20,37,18,40,80,66,1,70,43,79",,,,,,,,,,
land,337,948234,0.0-97.0-2.0,,null,run_exp/static/images/task_images/land.jpg,null,,,,,,99,,,19,,,,,,,,,,,,,,
dig,338,950249,0.0-97.0-3.0,,,,,,,,,,,"[{""stimulus"":""run_exp/static/images/task_images/dig.jpg"",""time"":0.5999999642372131},{""stimulus"":""run_exp/static/images/task_images/land.jpg"",""time"":686.1999999880791},{""stimulus"":""run_exp/static/images/task_images/dig.jpg"",""time"":1348.0999999642372}]",[],19,,,,,,,,,,,,,,
harvest,339,951259,0.0-97.0-4.0,,null,run_exp/static/images/task_images/gems/99.jpg,null,,,,,,80,,,19,,,,,99,0.803082652,0.808080808,,,,,,,
decision,340,951443,0.0-97.0-5.0,,180.6,run_exp/static/images/task_images/land.jpg,65,,,,,,80,,,19,,,,,,,,239753,2,0,FALSE,,,
dig,341,954289,0.0-98.0-0.0,,,,,,,,,,,"[{""stimulus"":""run_exp/static/images/task_images/dig.jpg"",""time"":0.5},{""stimulus"":""run_exp/static/images/task_images/land.jpg"",""time"":947.6999999880791},{""stimulus"":""run_exp/static/images/task_images/dig.jpg"",""time"":1887.8999999761581}]",[],19,,,,,,,,,,,,,,
harvest,342,955298,0.0-98.0-1.0,,null,run_exp/static/images/task_images/gems/80.jpg,null,,,,,,66,,,19,,,,,80,0.823756883,0.825,,,,,,,
decision,343,955685,0.0-98.0-2.0,,384.1,run_exp/static/images/task_images/land.jpg,65,,,,,,66,,,19,,,,,,,,243995,2,1,FALSE,,,
dig,344,958315,0.0-99.0-0.0,,,,,,,,,,,"[{""stimulus"":""run_exp/static/images/task_images/dig.jpg"",""time"":1.199999988079071},{""stimulus"":""run_exp/static/images/task_images/land.jpg"",""time"":888.4000000357628},{""stimulus"":""run_exp/static/images/task_images/dig.jpg"",""time"":1752.9000000357628}]",[],19,,,,,,,,,,,,,,
harvest,345,959318,0.0-99.0-1.0,,null,run_exp/static/images/task_images/gems/66.jpg,null,,,,,,52,,,19,,,,,66,0.782304102,0.787878788,,,,,,,
decision,346,959921,0.0-99.0-2.0,,600.6,run_exp/static/images/task_images/land.jpg,65,,,,,,52,,,19,,,,,,,,248231,2,2,FALSE,,,
dig,347,962350,0.0-100.0-0.0,,,,,,,,,,,"[{""stimulus"":""run_exp/static/images/task_images/dig.jpg"",""time"":0.7000000476837158},{""stimulus"":""run_exp/static/images/task_images/land.jpg"",""time"":809.6000000238419},{""stimulus"":""run_exp/static/images/task_images/dig.jpg"",""time"":1614.4000000357628}]",[],19,,,,,,,,,,,,,,
harvest,348,963357,0.0-100.0-1.0,,null,run_exp/static/images/task_images/gems/52.jpg,null,,,,,,42,,,19,,,,,52,0.815965202,0.807692308,,,,,,,
decision,349,963964,0.0-100.0-2.0,,602.4,run_exp/static/images/task_images/land.jpg,65,,,,,,42,,,19,,,,,,,,252274,2,3,FALSE,,,
dig,350,966385,0.0-101.0-0.0,,,,,,,,,,,"[{""stimulus"":""run_exp/static/images/task_images/dig.jpg"",""time"":0.19999998807907104},{""stimulus"":""run_exp/static/images/task_images/land.jpg"",""time"":814.5999999642372},{""stimulus"":""run_exp/static/images/task_images/dig.jpg"",""time"":1612.2999999523163}]",[],19,,,,,,,,,,,,,,
harvest,351,967394,0.0-101.0-1.0,,null,run_exp/static/images/task_images/gems/42.jpg,null,,,,,,35,,,19,,,,,42,0.84355545,0.833333333,,,,,,,
decision,352,967878,0.0-101.0-2.0,,480.6,run_exp/static/images/task_images/land.jpg,65,,,,,,35,,,19,,,,,,,,256188,2,4,FALSE,,,
dig,353,970418,0.0-102.0-0.0,,,,,,,,,,,"[{""stimulus"":""run_exp/static/images/task_images/dig.jpg"",""time"":0.30000001192092896},{""stimulus"":""run_exp/static/images/task_images/land.jpg"",""time"":860.6999999880791},{""stimulus"":""run_exp/static/images/task_images/dig.jpg"",""time"":1690.699999988079}]",[],19,,,,,,,,,,,,,,
harvest,354,971426,0.0-102.0-1.0,,null,run_exp/static/images/task_images/gems/35.jpg,null,,,,,,30,,,19,,,,,35,0.847390607,0.857142857,,,,,,,
decision,355,972567,0.0-102.0-2.0,,1137.8,run_exp/static/images/task_images/land.jpg,76,,,,,,30,,,19,,,,,,,,260877,2,5,TRUE,,,
travel,356,981453,0.0-103.0-0.0,,,,,,,,,,,"[{""stimulus"":""run_exp/static/images/task_images/rocket-01.jpg"",""time"":0.5},{""stimulus"":""run_exp/static/images/task_images/rocket-02.jpg"",""time"":1005.3000000119209},{""stimulus"":""run_exp/static/images/task_images/rocket-03.jpg"",""time"":1973.699999988079},{""stimulus"":""run_exp/static/images/task_images/rocket-04.jpg"",""time"":2963.300000011921},{""stimulus"":""run_exp/static/images/task_images/rocket-05.jpg"",""time"":3943.900000035763},{""stimulus"":""run_exp/static/images/task_images/rocket-06.jpg"",""time"":4943.199999988079},{""stimulus"":""run_exp/static/images/task_images/rocket-07.jpg"",""time"":5908.800000011921},{""stimulus"":""run_exp/static/images/task_images/rocket-08.jpg"",""time"":6903.400000035763},{""stimulus"":""run_exp/static/images/task_images/rocket-09.jpg"",""time"":7892.800000011921}]",[],19,,,,,,,,,,,,,,
alien_welcome,357,986474,0.0-103.0-1.0,,null,run_exp/static/images/task_images/aliens/old_aliens/planet/alien_planet-8.jpg,null,,,,,,,,,,,,8,"21,22,36,63,56,58,9,46,11,32,74,23,71,39,64,31,30,44,62,8,10,75,49,50,72,57,6,60,19,76,20,37,18,40,80,66,1,70,43,79",,,,,,,,,,
land,358,986984,0.0-103.0-2.0,,null,run_exp/static/images/task_images/land.jpg,null,,,,,,102,,,20,,,,,,,,,,,,,,
dig,359,989008,0.0-103.0-3.0,,,,,,,,,,,"[{""stimulus"":""run_exp/static/images/task_images/dig.jpg"",""time"":1.0999999642372131},{""stimulus"":""run_exp/static/images/task_images/land.jpg"",""time"":686.3999999761581},{""stimulus"":""run_exp/static/images/task_images/dig.jpg"",""time"":1349.699999988079}]",[],20,,,,,,,,,,,,,,
harvest,360,990014,0.0-103.0-4.0,,null,run_exp/static/images/task_images/gems/102.jpg,null,,,,,,46,,,20,,,,,102,0.448489109,0.450980392,,,,,,,
decision,361,990359,0.0-103.0-5.0,,339.5,run_exp/static/images/task_images/land.jpg,65,,,,,,46,,,20,,,,,,,,278670,2,0,FALSE,,,
dig,362,993034,0.0-104.0-0.0,,,,,,,,,,,"[{""stimulus"":""run_exp/static/images/task_images/dig.jpg"",""time"":0.30000001192092896},{""stimulus"":""run_exp/static/images/task_images/land.jpg"",""time"":899.8000000119209},{""stimulus"":""run_exp/static/images/task_images/dig.jpg"",""time"":1789}]",[],20,,,,,,,,,,,,,,
harvest,363,994045,0.0-104.0-1.0,,null,run_exp/static/images/task_images/gems/46.jpg,null,,,,,,24,,,20,,,,,46,0.524490337,0.52173913,,,,,,,
decision,364,994310,0.0-104.0-2.0,,262.2,run_exp/static/images/task_images/land.jpg,65,,,,,,24,,,20,,,,,,,,282620,2,1,FALSE,,,
dig,365,997064,0.0-105.0-0.0,,,,,,,,,,,"[{""stimulus"":""run_exp/static/images/task_images/dig.jpg"",""time"":0.19999998807907104},{""stimulus"":""run_exp/static/images/task_images/land.jpg"",""time"":926.8000000119209},{""stimulus"":""run_exp/static/images/task_images/dig.jpg"",""time"":1832.3999999761581}]",[],20,,,,,,,,,,,,,,
harvest,366,998076,0.0-105.0-1.0,,null,run_exp/static/images/task_images/gems/24.jpg,null,,,,,,11,,,20,,,,,24,0.468973078,0.458333333,,,,,,,
decision,367,998607,0.0-105.0-2.0,,527.7,run_exp/static/images/task_images/land.jpg,76,,,,,,11,,,20,,,,,,,,286917,2,2,TRUE,,,
travel,368,1008095,0.0-106.0-0.0,,,,,,,,,,,"[{""stimulus"":""run_exp/static/images/task_images/rocket-01.jpg"",""time"":0.5},{""stimulus"":""run_exp/static/images/task_images/rocket-02.jpg"",""time"":1063.5999999642372},{""stimulus"":""run_exp/static/images/task_images/rocket-03.jpg"",""time"":2123.099999964237},{""stimulus"":""run_exp/static/images/task_images/rocket-04.jpg"",""time"":3163.599999964237},{""stimulus"":""run_exp/static/images/task_images/rocket-05.jpg"",""time"":4223.399999976158},{""stimulus"":""run_exp/static/images/task_images/rocket-06.jpg"",""time"":5274.099999964237},{""stimulus"":""run_exp/static/images/task_images/rocket-07.jpg"",""time"":6333.300000011921},{""stimulus"":""run_exp/static/images/task_images/rocket-08.jpg"",""time"":7383.699999988079},{""stimulus"":""run_exp/static/images/task_images/rocket-09.jpg"",""time"":8423.800000011921}]",[],20,,,,,,,,,,,,,,
alien_welcome,369,1013104,0.0-106.0-1.0,,null,run_exp/static/images/task_images/aliens/old_aliens/planet/alien_planet-10.jpg,null,,,,,,,,,,,,10,"21,22,36,63,56,58,9,46,11,32,74,23,71,39,64,31,30,44,62,8,10,75,49,50,72,57,6,60,19,76,20,37,18,40,80,66,1,70,43,79",,,,,,,,,,
land,370,1013627,0.0-106.0-2.0,,null,run_exp/static/images/task_images/land.jpg,null,,,,,,96,,,21,,,,,,,,,,,,,,
dig,371,1015644,0.0-106.0-3.0,,,,,,,,,,,"[{""stimulus"":""run_exp/static/images/task_images/dig.jpg"",""time"":1.5},{""stimulus"":""run_exp/static/images/task_images/land.jpg"",""time"":671.6999999880791},{""stimulus"":""run_exp/static/images/task_images/dig.jpg"",""time"":1346.699999988079}]",[],21,,,,,,,,,,,,,,
harvest,372,1016649,0.0-106.0-4.0,,null,run_exp/static/images/task_images/gems/96.jpg,null,,,,,,71,,,21,,,,,96,0.735244758,0.739583333,,,,,,,
decision,373,1017168,0.0-106.0-5.0,,515.7,run_exp/static/images/task_images/land.jpg,65,,,,,,71,,,21,,,,,,,,305480,2,0,TRUE,,,
end_of_block_continue,374,1026077,0.0-107.0-0.0,,null,run_exp/static/audio/clip_32_block_end.m4a,,,,,,null,,,,,,,,,,,,,,,,,,
alien_welcome,375,1031098,0.0-108.0-0.0,,null,run_exp/static/images/task_images/aliens/old_aliens/planet/alien_planet-75.jpg,null,,,,,,,,,,,,75,"21,22,36,63,56,58,9,46,11,32,74,23,71,39,64,31,30,44,62,8,10,75,49,50,72,57,6,60,19,76,20,37,18,40,80,66,1,70,43,79",,,,,,,,,,
land,376,1031617,0.0-108.0-1.0,,null,run_exp/static/images/task_images/land.jpg,null,,,,,,96,,,22,,,,,,,,,,,,,,
dig,377,1033644,0.0-108.0-2.0,,,,,,,,,,,"[{""stimulus"":""run_exp/static/images/task_images/dig.jpg"",""time"":0.699999988079071},{""stimulus"":""run_exp/static/images/task_images/land.jpg"",""time"":679},{""stimulus"":""run_exp/static/images/task_images/dig.jpg"",""time"":1344.8999999761581}]",[],22,,,,,,,,,,,,,,
harvest,378,1034664,0.0-108.0-3.0,,null,run_exp/static/images/task_images/gems/96.jpg,null,,,,,,46,,,22,,,,,96,0.478212182,0.479166667,,,,,,,
decision,379,1035133,0.0-108.0-4.0,,466.1,run_exp/static/images/task_images/land.jpg,65,,,,,,46,,,22,,,,,,,,9043,3,0,FALSE,,,
dig,380,1037694,0.0-109.0-0.0,,,,,,,,,,,"[{""stimulus"":""run_exp/static/images/task_images/dig.jpg"",""time"":0.19999998807907104},{""stimulus"":""run_exp/static/images/task_images/land.jpg"",""time"":856.3000000119209},{""stimulus"":""run_exp/static/images/task_images/dig.jpg"",""time"":1702.3999999761581}]",[],22,,,,,,,,,,,,,,
harvest,381,1038698,0.0-109.0-1.0,,null,run_exp/static/images/task_images/gems/46.jpg,null,,,,,,25,,,22,,,,,46,0.538952876,0.543478261,,,,,,,
decision,382,1039422,0.0-109.0-2.0,,719.8,run_exp/static/images/task_images/land.jpg,65,,,,,,25,,,22,,,,,,,,13332,3,1,FALSE,,,
dig,383,1041725,0.0-110.0-0.0,,,,,,,,,,,"[{""stimulus"":""run_exp/static/images/task_images/dig.jpg"",""time"":0.2999999523162842},{""stimulus"":""run_exp/static/images/task_images/land.jpg"",""time"":776.3999999761581},{""stimulus"":""run_exp/static/images/task_images/dig.jpg"",""time"":1536.699999988079}]",[],22,,,,,,,,,,,,,,
harvest,384,1042732,0.0-110.0-1.0,,null,run_exp/static/images/task_images/gems/25.jpg,null,,,,,,13,,,22,,,,,25,0.536937045,0.52,,,,,,,
decision,385,1043399,0.0-110.0-2.0,,664,run_exp/static/images/task_images/land.jpg,76,,,,,,13,,,22,,,,,,,,17309,3,2,TRUE,,,
travel,386,1052744,0.0-111.0-0.0,,,,,,,,,,,"[{""stimulus"":""run_exp/static/images/task_images/rocket-01.jpg"",""time"":0.19999998807907104},{""stimulus"":""run_exp/static/images/task_images/rocket-02.jpg"",""time"":1039.699999988079},{""stimulus"":""run_exp/static/images/task_images/rocket-03.jpg"",""time"":2079.5},{""stimulus"":""run_exp/static/images/task_images/rocket-04.jpg"",""time"":3119.199999988079},{""stimulus"":""run_exp/static/images/task_images/rocket-05.jpg"",""time"":4158.699999988079},{""stimulus"":""run_exp/static/images/task_images/rocket-06.jpg"",""time"":5197.399999976158},{""stimulus"":""run_exp/static/images/task_images/rocket-07.jpg"",""time"":6240.799999952316},{""stimulus"":""run_exp/static/images/task_images/rocket-08.jpg"",""time"":7262.899999976158},{""stimulus"":""run_exp/static/images/task_images/rocket-09.jpg"",""time"":8309.299999952316}]",[],22,,,,,,,,,,,,,,
alien_welcome,387,1057764,0.0-111.0-1.0,,null,run_exp/static/images/task_images/aliens/old_aliens/planet/alien_planet-49.jpg,null,,,,,,,,,,,,49,"21,22,36,63,56,58,9,46,11,32,74,23,71,39,64,31,30,44,62,8,10,75,49,50,72,57,6,60,19,76,20,37,18,40,80,66,1,70,43,79",,,,,,,,,,
land,388,1058287,0.0-111.0-2.0,,null,run_exp/static/images/task_images/land.jpg,null,,,,,,103,,,23,,,,,,,,,,,,,,
dig,389,1060304,0.0-111.0-3.0,,,,,,,,,,,"[{""stimulus"":""run_exp/static/images/task_images/dig.jpg"",""time"":2.699999988079071},{""stimulus"":""run_exp/static/images/task_images/land.jpg"",""time"":682.0999999642372},{""stimulus"":""run_exp/static/images/task_images/dig.jpg"",""time"":1339.3999999761581}]",[],23,,,,,,,,,,,,,,
harvest,390,1061324,0.0-111.0-4.0,,null,run_exp/static/images/task_images/gems/103.jpg,null,,,,,,86,,,23,,,,,103,0.833970961,0.834951456,,,,,,,
decision,391,1061603,0.0-111.0-5.0,,275,run_exp/static/images/task_images/land.jpg,65,,,,,,86,,,23,,,,,,,,35513,3,0,FALSE,,,
dig,392,1064334,0.0-112.0-0.0,,,,,,,,,,,"[{""stimulus"":""run_exp/static/images/task_images/dig.jpg"",""time"":0.30000001192092896},{""stimulus"":""run_exp/static/images/task_images/land.jpg"",""time"":917.3999999761581},{""stimulus"":""run_exp/static/images/task_images/dig.jpg"",""time"":1837.0999999642372}]",[],23,,,,,,,,,,,,,,
harvest,393,1065352,0.0-112.0-1.0,,null,run_exp/static/images/task_images/gems/86.jpg,null,,,,,,71,,,23,,,,,86,0.82463122,0.825581395,,,,,,,
decision,394,1065732,0.0-112.0-2.0,,376.8,run_exp/static/images/task_images/land.jpg,65,,,,,,71,,,23,,,,,,,,39642,3,1,FALSE,,,
dig,395,1068370,0.0-113.0-0.0,,,,,,,,,,,"[{""stimulus"":""run_exp/static/images/task_images/dig.jpg"",""time"":0.40000003576278687},{""stimulus"":""run_exp/static/images/task_images/land.jpg"",""time"":895},{""stimulus"":""run_exp/static/images/task_images/dig.jpg"",""time"":1755.4000000357628}]",[],23,,,,,,,,,,,,,,
