trial_type,trial_index,time_elapsed,internal_node_id,interactions,blur_events,focus_events,fullscreenenter_events,fullscreenexit_events,success,rt,stimulus,key_press,prompt,subject_id,participant_id,age,gender,button_pressed,next_reward,animation_sequence,responses,planet,curr_prac_trial,n_prac_rounds,alien,aliens,reward_received,decay_rate_actual,decay_rate_exp,time_in_block,block_num,prt,last_trial_on_planet,button_html,bonus,num_failures
pavlovia,0,2,0.0-0.0,"""event"",""trial"",""time""
""fullscreenenter"",""1"",""28173""
","
","
","""event"",""trial"",""time""
""fullscreenenter"",""1"",""28173""
","
",,,,,,,,,,,,,,,,,,,,,,,,,,,,
fullscreen,1,29161,0.0-1.0,"""event"",""trial"",""time""
""fullscreenenter"",""1"",""28173""
","
","
","""event"",""trial"",""time""
""fullscreenenter"",""1"",""28173""
","
",TRUE,,,,,,,,,,,,,,,,,,,,,,,,,,,
instruc_welcome,2,38914,0.0-2.0,"""event"",""trial"",""time""
""fullscreenenter"",""1"",""28173""
","
","
","""event"",""trial"",""time""
""fullscreenenter"",""1"",""28173""
","
",,null,run_exp/static/audio/clip_1_welcome.m4a,null,"<p>Howdy! In this experiment, you’ll be an explorer traveling through space to collect space treasure.</p><p>Your mission is to collect as much treasure as possible.</p><br><br><p><img src='run_exp/static/images/task_images/opening_img-01.jpg' height='300' width='auto'></p>",9258,1250,19.25,Female,,,,,,,,,,,,,,,,,,,
audio-keyboard-response,3,55493,0.0-3.0,"""event"",""trial"",""time""
""fullscreenenter"",""1"",""28173""
","
","
","""event"",""trial"",""time""
""fullscreenenter"",""1"",""28173""
","
",,null,run_exp/static/audio/clip_2_move.m4a,null,,,,,,,,,,,,,,,,,,,,,,,,
welcome_dec,4,58144,0.0-4.0,"""event"",""trial"",""time""
""fullscreenenter"",""1"",""28173""
","
","
","""event"",""trial"",""time""
""fullscreenenter"",""1"",""28173""
","
",,2646.7,"<p>Howdy! In this experiment, you’ll be an explorer traveling through space to collect space treasure.</p><p>Your mission is to collect as much treasure as possible.</p><br><br><p><img src='run_exp/static/images/task_images/opening_img-01.jpg' height='300' width='auto'></p>",,,,,,,1,,,,,,,,,,,,,,,,,,
html-keyboard-response,5,59410,0.0-5.0,"""event"",""trial"",""time""
""fullscreenenter"",""1"",""28173""
","
","
","""event"",""trial"",""time""
""fullscreenenter"",""1"",""28173""
","
",,1262,"<p>Howdy! In this experiment, you’ll be an explorer traveling through space to collect space treasure.</p><p>Your mission is to collect as much treasure as possible.</p><br><br><p><img src='run_exp/static/images/task_images/opening_img-01.jpg' height='300' width='auto'></p><button class=""jspsych-html-btn-unchosen""><img src=""run_exp/static/images/task_images/planet-01.jpg"" height=""50""></button><button class=""jspsych-html-btn-chosen""><img src=""run_exp/static/images/task_images/planet-02.jpg"" height=""50""></button><p><b>[press the space bar to lock in your answer]<b><br></p>",32,,,,,,,,,,,,,,,,,,,,,,,,
instruc_goal,6,69463,0.0-6.0-0.0,"""event"",""trial"",""time""
""fullscreenenter"",""1"",""28173""
","
","
","""event"",""trial"",""time""
""fullscreenenter"",""1"",""28173""
","
",,null,run_exp/static/audio/clip_3_goal.m4a,null,"<p> As a space explorer, you’ll visit different planets to dig for space treasure, these pink gems.</p> <p> The more treasure you dig up, the more bonus money you’ll win! </p><br><br><p><img src='run_exp/static/images/task_images/pink_gem.jpg' height='300' width='auto'></p>",,,,,,,,,,,,,,,,,,,,,,,
instruc_goal,7,78242,0.0-6.0-1.0,"""event"",""trial"",""time""
""fullscreenenter"",""1"",""28173""
","
","
","""event"",""trial"",""time""
""fullscreenenter"",""1"",""28173""
","
",,8776.2,"<p> As a space explorer, you’ll visit different planets to dig for space treasure, these pink gems.</p> <p> The more treasure you dig up, the more bonus money you’ll win! </p><br><br><p><img src='run_exp/static/images/task_images/pink_gem.jpg' height='300' width='auto'></p>",,,,,,,1,,,,,,,,,,,,,,,,,,
html-keyboard-response,8,78855,0.0-6.0-2.0,"""event"",""trial"",""time""
""fullscreenenter"",""1"",""28173""
","
","
","""event"",""trial"",""time""
""fullscreenenter"",""1"",""28173""
","
",,611.5,"<p> As a space explorer, you’ll visit different planets to dig for space treasure, these pink gems.</p> <p> The more treasure you dig up, the more bonus money you’ll win! </p><br><br><p><img src='run_exp/static/images/task_images/pink_gem.jpg' height='300' width='auto'></p><button class=""jspsych-html-btn-unchosen""><img src=""run_exp/static/images/task_images/planet-01.jpg"" height=""50""></button><button class=""jspsych-html-btn-chosen""><img src=""run_exp/static/images/task_images/planet-02.jpg"" height=""50""></button><p><b>[press the space bar to lock in your answer]<b><br></p>",32,,,,,,,,,,,,,,,,,,,,,,,,
instruc_dig,9,94853,0.0-7.0-0.0,"""event"",""trial"",""time""
""fullscreenenter"",""1"",""28173""
","
","
","""event"",""trial"",""time""
""fullscreenenter"",""1"",""28173""
","
",,null,run_exp/static/audio/clip_4_dig.m4a,null,,,,,,,100,,,,,,,,,,,,,,,,,
instruc_dig_try,10,95298,0.0-7.0-1.0,"""event"",""trial"",""time""
""fullscreenenter"",""1"",""28173""
","
","
","""event"",""trial"",""time""
""fullscreenenter"",""1"",""28173""
","
",,442.6,"<p> When you’ve arrived at a new planet, you will dig once. </p> <p>Then, you get to decide if you want to stay on the planet and dig again or travel to a new planet and dig there.</p> <p> To stay and dig, press the letter <strong>‘A’</strong> on your keyboard. Try pressing it now! </p><p><img src='run_exp/static/images/task_images/land.jpg'  height='700' width='auto'></p>",65,"<p> When you’ve arrived at a new planet, you will dig once. </p> <p>Then, you get to decide if you want to stay on the planet and dig again or travel to a new planet and dig there.</p> <p> To stay and dig, press the letter <strong>‘A’</strong> on your keyboard. Try pressing it now! </p><p><img src='run_exp/static/images/task_images/land.jpg'  height='700' width='auto'></p>",,,,,,100,,,,,,,,,,,,,,,,,
dig_prac,11,97314,0.0-7.0-2.0,"""event"",""trial"",""time""
""fullscreenenter"",""1"",""28173""
","
","
","""event"",""trial"",""time""
""fullscreenenter"",""1"",""28173""
","
",,,,,,,,,,,,"[{""stimulus"":""run_exp/static/images/task_images/dig.jpg"",""time"":0.30000001192092896},{""stimulus"":""run_exp/static/images/task_images/land.jpg"",""time"":669.8000000119209},{""stimulus"":""run_exp/static/images/task_images/dig.jpg"",""time"":1342.800000011921}]",[],,,,,,,,,,,,,,,
instruc_travel,12,133582,0.0-7.0-3.0,"""event"",""trial"",""time""
""fullscreenenter"",""1"",""28173""
","
","
","""event"",""trial"",""time""
""fullscreenenter"",""1"",""28173""
","
",,null,run_exp/static/audio/clip_5_travel.m4a,null,"<p>Every time you dig up gems, there are less gems on the planet, so the more you dig on a planet the fewer gems you’ll get with each dig.</p><p>When gems are running low, you may want to travel to a new planet. </p> <p>  Planets are very far apart in this galaxy, so it will take some time to travel between them. </p> <br><p>There are lots and lots of planets for you to visit, so you won’t be able to return to any planets you’ve seen before. </p><br><p>To leave this planet and travel to a new one, press the letter <strong>‘L’</strong> on your keyboard. Try pressing it now! </p><p><img src='run_exp/static/images/task_images/rocket-01.jpg'  height='600' width='auto'></p>",,,,,,,,,,,,,,,,,,,,,,,
instruc_travel_try,13,135631,0.0-7.0-4.0,"""event"",""trial"",""time""
""fullscreenenter"",""1"",""28173""
","
","
","""event"",""trial"",""time""
""fullscreenenter"",""1"",""28173""
","
",,2047,"<p>Every time you dig up gems, there are less gems on the planet, so the more you dig on a planet the fewer gems you’ll get with each dig.</p><p>When gems are running low, you may want to travel to a new planet. </p> <p>  Planets are very far apart in this galaxy, so it will take some time to travel between them. </p> <br><p>There are lots and lots of planets for you to visit, so you won’t be able to return to any planets you’ve seen before. </p><br><p>To leave this planet and travel to a new one, press the letter <strong>‘L’</strong> on your keyboard. Try pressing it now! </p><p><img src='run_exp/static/images/task_images/rocket-01.jpg'  height='600' width='auto'></p>",76,"<p>Every time you dig up gems, there are less gems on the planet, so the more you dig on a planet the fewer gems you’ll get with each dig.</p><p>When gems are running low, you may want to travel to a new planet. </p> <p>  Planets are very far apart in this galaxy, so it will take some time to travel between them. </p> <br><p>There are lots and lots of planets for you to visit, so you won’t be able to return to any planets you’ve seen before. </p><br><p>To leave this planet and travel to a new one, press the letter <strong>‘L’</strong> on your keyboard. Try pressing it now! </p><p><img src='run_exp/static/images/task_images/rocket-01.jpg'  height='600' width='auto'></p>",,,,,,,,,,,,,,,,,,,,,,,
travel_prac,14,145637,0.0-7.0-5.0,"""event"",""trial"",""time""
""fullscreenenter"",""1"",""28173""
","
","
","""event"",""trial"",""time""
""fullscreenenter"",""1"",""28173""
","
",,,,,,,,,,,,"[{""stimulus"":""run_exp/static/images/task_images/rocket-01.jpg"",""time"":0.3999999761581421},{""stimulus"":""run_exp/static/images/task_images/rocket-02.jpg"",""time"":1118.5},{""stimulus"":""run_exp/static/images/task_images/rocket-03.jpg"",""time"":2228.800000011921},{""stimulus"":""run_exp/static/images/task_images/rocket-04.jpg"",""time"":3338.800000011921},{""stimulus"":""run_exp/static/images/task_images/rocket-05.jpg"",""time"":4454.199999988079},{""stimulus"":""run_exp/static/images/task_images/rocket-06.jpg"",""time"":5563.699999988079},{""stimulus"":""run_exp/static/images/task_images/rocket-07.jpg"",""time"":6669.699999988079},{""stimulus"":""run_exp/static/images/task_images/rocket-08.jpg"",""time"":7779.5},{""stimulus"":""run_exp/static/images/task_images/rocket-09.jpg"",""time"":8894.5}]",[],0,,,,,,,,,,,,,,
instruc_alien_greet,15,172857,0.0-7.0-6.0,"""event"",""trial"",""time""
""fullscreenenter"",""1"",""28173""
","
","
","""event"",""trial"",""time""
""fullscreenenter"",""1"",""28173""
","
",,null,run_exp/static/audio/clip_6_alien.m4a,null,"<p>When you arrive at a new planet, the alien who owns the treasure mine on that planet will greet you!</p><p>The better an alien takes care of their mine the easier it is to dig for gems. Some aliens take better care of their mine than others. So, you won’t get exactly the same amount of gems on each planet.</p><p>What the alien looks like does not tell you anything about how many gems there are on the planet.</p><br><p><img src=""run_exp/static/images/task_images/aliens/instructions_aliens/planet/alien_planet-1.jpg""  height=""600"" width=""auto""></p>",,,,,,,,,,,,,,,,,,,,,,,
instruc_alien_greet,16,175124,0.0-7.0-7.0,"""event"",""trial"",""time""
""fullscreenenter"",""1"",""28173""
","
","
","""event"",""trial"",""time""
""fullscreenenter"",""1"",""28173""
","
",,2264.5,"<p>When you arrive at a new planet, the alien who owns the treasure mine on that planet will greet you!</p><p>The better an alien takes care of their mine the easier it is to dig for gems. Some aliens take better care of their mine than others. So, you won’t get exactly the same amount of gems on each planet.</p><p>What the alien looks like does not tell you anything about how many gems there are on the planet.</p><br><p><img src=""run_exp/static/images/task_images/aliens/instructions_aliens/planet/alien_planet-1.jpg""  height=""600"" width=""auto""></p>",,,,,,,1,,,,,,,,,,,,,,,,,,
html-keyboard-response,17,175459,0.0-7.0-8.0,"""event"",""trial"",""time""
""fullscreenenter"",""1"",""28173""
","
","
","""event"",""trial"",""time""
""fullscreenenter"",""1"",""28173""
","
",,333.7,"<p>When you arrive at a new planet, the alien who owns the treasure mine on that planet will greet you!</p><p>The better an alien takes care of their mine the easier it is to dig for gems. Some aliens take better care of their mine than others. So, you won’t get exactly the same amount of gems on each planet.</p><p>What the alien looks like does not tell you anything about how many gems there are on the planet.</p><br><p><img src=""run_exp/static/images/task_images/aliens/instructions_aliens/planet/alien_planet-1.jpg""  height=""600"" width=""auto""></p><button class=""jspsych-html-btn-unchosen""><img src=""run_exp/static/images/task_images/planet-01.jpg"" height=""50""></button><button class=""jspsych-html-btn-chosen""><img src=""run_exp/static/images/task_images/planet-02.jpg"" height=""50""></button><p><b>[press the space bar to lock in your answer]<b><br></p>",32,,,,,,,,,,,,,,,,,,,,,,,,
time_out,18,186571,0.0-8.0-0.0,"""event"",""trial"",""time""
""fullscreenenter"",""1"",""28173""
","
","
","""event"",""trial"",""time""
""fullscreenenter"",""1"",""28173""
","
",,null,run_exp/static/audio/clip_7_timeout.m4a,null,"<p>If you don't make your choice fast enough, you’ll have to wait a few seconds before you can make another one.</p><p>You can’t dig for more gems or travel to new planets. You just have to sit and wait.</p><br><p><img src='run_exp/static/images/task_images/time_out.jpg'  height='600' width='auto'></p>",,,,,,,,,,,,,,,,,,,,,,,
time_out,19,189941,0.0-8.0-1.0,"""event"",""trial"",""time""
""fullscreenenter"",""1"",""28173""
","
","
","""event"",""trial"",""time""
""fullscreenenter"",""1"",""28173""
","
",,3367.4,"<p>If you don't make your choice fast enough, you’ll have to wait a few seconds before you can make another one.</p><p>You can’t dig for more gems or travel to new planets. You just have to sit and wait.</p><br><p><img src='run_exp/static/images/task_images/time_out.jpg'  height='600' width='auto'></p>",,,,,,,1,,,,,,,,,,,,,,,,,,
html-keyboard-response,20,191051,0.0-8.0-2.0,"""event"",""trial"",""time""
""fullscreenenter"",""1"",""28173""
","
","
","""event"",""trial"",""time""
""fullscreenenter"",""1"",""28173""
","
",,1107.2,"<p>If you don't make your choice fast enough, you’ll have to wait a few seconds before you can make another one.</p><p>You can’t dig for more gems or travel to new planets. You just have to sit and wait.</p><br><p><img src='run_exp/static/images/task_images/time_out.jpg'  height='600' width='auto'></p><button class=""jspsych-html-btn-unchosen""><img src=""run_exp/static/images/task_images/planet-01.jpg"" height=""50""></button><button class=""jspsych-html-btn-chosen""><img src=""run_exp/static/images/task_images/planet-02.jpg"" height=""50""></button><p><b>[press the space bar to lock in your answer]<b><br></p>",32,,,,,,,,,,,,,,,,,,,,,,,,
instruc_break,21,206731,0.0-9.0-0.0,"""event"",""trial"",""time""
""fullscreenenter"",""1"",""28173""
","
","
","""event"",""trial"",""time""
""fullscreenenter"",""1"",""28173""
","
",,null,run_exp/static/audio/clip_8_break.m4a,null,"<p> After digging and traveling for a while, you’ll be able to take a break at home base. </p><p>The game will last 20 minutes no matter what.</p><p>You will visit home base every 5 minutes, so, you will visit home base three times during the game.</p><br><p><img src='run_exp/static/images/task_images/home_base.jpg' height='600' width='auto'></p>",,,,,,,,,,,,,,,,,,,,,,,
instruc_break,22,209111,0.0-9.0-1.0,"""event"",""trial"",""time""
""fullscreenenter"",""1"",""28173""
","
","
","""event"",""trial"",""time""
""fullscreenenter"",""1"",""28173""
","
",,2376.9,"<p> After digging and traveling for a while, you’ll be able to take a break at home base. </p><p>The game will last 20 minutes no matter what.</p><p>You will visit home base every 5 minutes, so, you will visit home base three times during the game.</p><br><p><img src='run_exp/static/images/task_images/home_base.jpg' height='600' width='auto'></p>",,,,,,,1,,,,,,,,,,,,,,,,,,
html-keyboard-response,23,209683,0.0-9.0-2.0,"""event"",""trial"",""time""
""fullscreenenter"",""1"",""28173""
","
","
","""event"",""trial"",""time""
""fullscreenenter"",""1"",""28173""
","
",,570,"<p> After digging and traveling for a while, you’ll be able to take a break at home base. </p><p>The game will last 20 minutes no matter what.</p><p>You will visit home base every 5 minutes, so, you will visit home base three times during the game.</p><br><p><img src='run_exp/static/images/task_images/home_base.jpg' height='600' width='auto'></p><button class=""jspsych-html-btn-unchosen""><img src=""run_exp/static/images/task_images/planet-01.jpg"" height=""50""></button><button class=""jspsych-html-btn-chosen""><img src=""run_exp/static/images/task_images/planet-02.jpg"" height=""50""></button><p><b>[press the space bar to lock in your answer]<b><br></p>",32,,,,,,,,,,,,,,,,,,,,,,,,
instruc_prac_game,24,219830,0.0-10.0-0.0,"""event"",""trial"",""time""
""fullscreenenter"",""1"",""28173""
","
","
","""event"",""trial"",""time""
""fullscreenenter"",""1"",""28173""
","
",,null,run_exp/static/audio/clip_9_practice.m4a,null,"<p> Are you ready to play a practice game? </p> <p>In this practice game, you'll be digging up barrels of gems. But, in the real game, you'll be digging up the gems themselves. </p>",,,,,,,,,,,,,,,,,,,,,,,
html-button-response,25,222509,0.0-10.0-1.0,"""event"",""trial"",""time""
""fullscreenenter"",""1"",""28173""
","
","
","""event"",""trial"",""time""
""fullscreenenter"",""1"",""28173""
","
",,2677.2,"<p> Are you ready to play a practice game? </p> <p>In this practice game, you'll be digging up barrels of gems. But, in the real game, you'll be digging up the gems themselves. </p>",,,,,,,0,,,,,,,,,,,,,,,,,,
alien_welcome_prac,26,227518,0.0-11.0-0.0,"""event"",""trial"",""time""
""fullscreenenter"",""1"",""28173""
","
","
","""event"",""trial"",""time""
""fullscreenenter"",""1"",""28173""
","
",,null,run_exp/static/images/task_images/aliens/practice_aliens/planet/alien_planet-5.jpg,null,,,,,,,,,,,,,,,,,,,,,,,,
land_prac,27,228020,0.0-11.0-1.0,"""event"",""trial"",""time""
""fullscreenenter"",""1"",""28173""
","
","
","""event"",""trial"",""time""
""fullscreenenter"",""1"",""28173""
","
",,null,run_exp/static/images/task_images/land.jpg,null,,,,,,,107,,,0,,,,,,,,,,,,,,
dig_prac,28,230030,0.0-11.0-2.0,"""event"",""trial"",""time""
""fullscreenenter"",""1"",""28173""
","
","
","""event"",""trial"",""time""
""fullscreenenter"",""1"",""28173""
","
",,,,,,,,,,,,"[{""stimulus"":""run_exp/static/images/task_images/dig.jpg"",""time"":0.5},{""stimulus"":""run_exp/static/images/task_images/land.jpg"",""time"":677.3999999761581},{""stimulus"":""run_exp/static/images/task_images/dig.jpg"",""time"":1340.7999999523163}]",[],,,,,,,,,,,,,,,
harvest_prac,29,231038,0.0-11.0-3.0,"""event"",""trial"",""time""
""fullscreenenter"",""1"",""28173""
","
","
","""event"",""trial"",""time""
""fullscreenenter"",""1"",""28173""
","
",,null,run_exp/static/images/task_images/barrel_text.jpg,null,,,,,,,,,,,,,,,,,,,,,,,,
decision_prac,30,231658,0.0-11.0-4.0,"""event"",""trial"",""time""
""fullscreenenter"",""1"",""28173""
","
","
","""event"",""trial"",""time""
""fullscreenenter"",""1"",""28173""
","
",,618.3,run_exp/static/images/task_images/land.jpg,65,,,,,,,,,,,1,,,,,,,,,,,,,
dig_prac,31,233668,0.0-12.0-0.0,"""event"",""trial"",""time""
""fullscreenenter"",""1"",""28173""
","
","
","""event"",""trial"",""time""
""fullscreenenter"",""1"",""28173""
","
",,,,,,,,,,,,"[{""stimulus"":""run_exp/static/images/task_images/dig.jpg"",""time"":0.10000002384185791},{""stimulus"":""run_exp/static/images/task_images/land.jpg"",""time"":675.9000000357628},{""stimulus"":""run_exp/static/images/task_images/dig.jpg"",""time"":1339.699999988079}]",[],,,,,,,,,,,,,,,
harvest_prac,32,234671,0.0-12.0-1.0,"""event"",""trial"",""time""
""fullscreenenter"",""1"",""28173""
","
","
","""event"",""trial"",""time""
""fullscreenenter"",""1"",""28173""
","
",,null,run_exp/static/images/task_images/barrel_text.jpg,null,,,,,,,,,,,,,,,,,,,,,,,,
decision_prac,33,235135,0.0-12.0-2.0,"""event"",""trial"",""time""
""fullscreenenter"",""1"",""28173""
","
","
","""event"",""trial"",""time""
""fullscreenenter"",""1"",""28173""
","
",,461.8,run_exp/static/images/task_images/land.jpg,65,,,,,,,,,,,2,,,,,,,,,,,,,
dig_prac,34,237139,0.0-13.0-0.0,"""event"",""trial"",""time""
""fullscreenenter"",""1"",""28173""
","
","
","""event"",""trial"",""time""
""fullscreenenter"",""1"",""28173""
","
",,,,,,,,,,,,"[{""stimulus"":""run_exp/static/images/task_images/dig.jpg"",""time"":0.10000002384185791},{""stimulus"":""run_exp/static/images/task_images/land.jpg"",""time"":669.3000000119209},{""stimulus"":""run_exp/static/images/task_images/dig.jpg"",""time"":1335.800000011921}]",[],,,,,,,,,,,,,,,
harvest_prac,35,238145,0.0-13.0-1.0,"""event"",""trial"",""time""
""fullscreenenter"",""1"",""28173""
","
","
","""event"",""trial"",""time""
""fullscreenenter"",""1"",""28173""
","
",,null,run_exp/static/images/task_images/barrel_text.jpg,null,,,,,,,,,,,,,,,,,,,,,,,,
decision_prac,36,239386,0.0-13.0-2.0,"""event"",""trial"",""time""
""fullscreenenter"",""1"",""28173""
","
","
","""event"",""trial"",""time""
""fullscreenenter"",""1"",""28173""
","
",,1239.7,run_exp/static/images/task_images/land.jpg,76,,,,,,,,,,,3,,,,,,,,,,,,,
travel,37,248152,0.0-14.0-0.0,"""event"",""trial"",""time""
""fullscreenenter"",""1"",""28173""
","
","
","""event"",""trial"",""time""
""fullscreenenter"",""1"",""28173""
","
",,,,,,,,,,,,"[{""stimulus"":""run_exp/static/images/task_images/rocket-01.jpg"",""time"":0.19999998807907104},{""stimulus"":""run_exp/static/images/task_images/rocket-02.jpg"",""time"":980.8999999761581},{""stimulus"":""run_exp/static/images/task_images/rocket-03.jpg"",""time"":1947.8999999761581},{""stimulus"":""run_exp/static/images/task_images/rocket-04.jpg"",""time"":2923.099999964237},{""stimulus"":""run_exp/static/images/task_images/rocket-05.jpg"",""time"":3897.899999976158},{""stimulus"":""run_exp/static/images/task_images/rocket-06.jpg"",""time"":4878.099999964237},{""stimulus"":""run_exp/static/images/task_images/rocket-07.jpg"",""time"":5844.399999976158},{""stimulus"":""run_exp/static/images/task_images/rocket-08.jpg"",""time"":6822.599999964237},{""stimulus"":""run_exp/static/images/task_images/rocket-09.jpg"",""time"":7788.5}]",[],0,,,,,,,,,,,,,,
alien_welcome_prac,38,253155,0.0-14.0-1.0,"""event"",""trial"",""time""
""fullscreenenter"",""1"",""28173""
","
","
","""event"",""trial"",""time""
""fullscreenenter"",""1"",""28173""
","
",,null,run_exp/static/images/task_images/aliens/practice_aliens/planet/alien_planet-4.jpg,null,,,,,,,,,,,,,,,,,,,,,,,,
land_prac,39,253668,0.0-14.0-2.0,"""event"",""trial"",""time""
""fullscreenenter"",""1"",""28173""
","
","
","""event"",""trial"",""time""
""fullscreenenter"",""1"",""28173""
","
",,null,run_exp/static/images/task_images/land.jpg,null,,,,,,,105,,,0,,,,,,,,,,,,,,
dig_prac,40,255672,0.0-14.0-3.0,"""event"",""trial"",""time""
""fullscreenenter"",""1"",""28173""
","
","
","""event"",""trial"",""time""
""fullscreenenter"",""1"",""28173""
","
",,,,,,,,,,,,"[{""stimulus"":""run_exp/static/images/task_images/dig.jpg"",""time"":0.19999998807907104},{""stimulus"":""run_exp/static/images/task_images/land.jpg"",""time"":669.5},{""stimulus"":""run_exp/static/images/task_images/dig.jpg"",""time"":1338.0999999642372}]",[],,,,,,,,,,,,,,,
harvest_prac,41,256685,0.0-14.0-4.0,"""event"",""trial"",""time""
""fullscreenenter"",""1"",""28173""
","
","
","""event"",""trial"",""time""
""fullscreenenter"",""1"",""28173""
","
",,null,run_exp/static/images/task_images/barrel_text.jpg,null,,,,,,,,,,,,,,,,,,,,,,,,
decision_prac,42,256691,0.0-14.0-5.0,"""event"",""trial"",""time""
""fullscreenenter"",""1"",""28173""
","
","
","""event"",""trial"",""time""
""fullscreenenter"",""1"",""28173""
","
",,4.599999964,run_exp/static/images/task_images/land.jpg,65,,,,,,,,,,,4,,,,,,,,,,,,,
dig_prac,43,258698,0.0-15.0-0.0,"""event"",""trial"",""time""
""fullscreenenter"",""1"",""28173""
","
","
","""event"",""trial"",""time""
""fullscreenenter"",""1"",""28173""
","
",,,,,,,,,,,,"[{""stimulus"":""run_exp/static/images/task_images/dig.jpg"",""time"":0.09999996423721313},{""stimulus"":""run_exp/static/images/task_images/land.jpg"",""time"":678.3999999761581},{""stimulus"":""run_exp/static/images/task_images/dig.jpg"",""time"":1340.8999999761581}]",[],,,,,,,,,,,,,,,
harvest_prac,44,259704,0.0-15.0-1.0,"""event"",""trial"",""time""
""fullscreenenter"",""1"",""28173""
","
","
","""event"",""trial"",""time""
""fullscreenenter"",""1"",""28173""
","
",,null,run_exp/static/images/task_images/barrel_text.jpg,null,,,,,,,,,,,,,,,,,,,,,,,,
decision_prac,45,259901,0.0-15.0-2.0,"""event"",""trial"",""time""
""fullscreenenter"",""1"",""28173""
","
","
","""event"",""trial"",""time""
""fullscreenenter"",""1"",""28173""
","
",,194.6,run_exp/static/images/task_images/land.jpg,65,,,,,,,,,,,,1,,,,,,,,,,,,
quiz_instruc,46,271340,0.0-16.0-0.0,"""event"",""trial"",""time""
""fullscreenenter"",""1"",""28173""
","
","
","""event"",""trial"",""time""
""fullscreenenter"",""1"",""28173""
","
",,11435.6,run_exp/static/audio/clip_10_quiz.m4a,,,,,,,0,,,,,,,,,,,,,,,,,,
instruc_repeat,47,314125,0.0-16.0-1.0,"""event"",""trial"",""time""
""fullscreenenter"",""1"",""28173""
","
","
","""event"",""trial"",""time""
""fullscreenenter"",""1"",""28173""
","
",,null,"<p> Are you ready to play a practice game? </p> <p>In this practice game, you'll be digging up barrels of gems. But, in the real game, you'll be digging up the gems themselves. </p>",null,"<p>In this game, your goal is to collect as many gems as you can. That’s how you will win bonus money. </p> <p>The entire game will last 20 minutes no matter how many gems you collect or how many planets you visit. </p><p>To stay on a planet and dig again, press the letter A on your keyboard. To leave for a new planet, press the letter L.</p><p>The more you dig on a planet, the fewer gems you’ll get with each dig which is why you might consider leaving for a new planet. </p><p>When you arrive at a new planet, you’ll be greeted by an alien. What the alien looks like does not tell you anything about how much treasure is on the planet. </p>",,,,,,,,,,,,,,,,,,,,,,,
instruc_repeat_continue,48,332759,0.0-16.0-2.0,"""event"",""trial"",""time""
""fullscreenenter"",""1"",""28173""
","
","
","""event"",""trial"",""time""
""fullscreenenter"",""1"",""28173""
","
",,18632.2,"<p> Are you ready to play a practice game? </p> <p>In this practice game, you'll be digging up barrels of gems. But, in the real game, you'll be digging up the gems themselves. </p>",,,,,,,0,,,,,,,,,,,,,,,,,,
quiz_q_1_ask,49,336274,0.0-16.0-3.0,"""event"",""trial"",""time""
""fullscreenenter"",""1"",""28173""
","
","
","""event"",""trial"",""time""
""fullscreenenter"",""1"",""28173""
","
",,3512.8,run_exp/static/audio/clip_11_q1_ask.m4a,,,,,,,2,,,,,,,,,,,,,,,,,,
quiz_q_1_fb_correct,50,340119,0.0-17.0-0.0,"""event"",""trial"",""time""
""fullscreenenter"",""1"",""28173""
","
","
","""event"",""trial"",""time""
""fullscreenenter"",""1"",""28173""
","
",,null,run_exp/static/audio/clip_12_q1_correct.m4a,null,<p>That’s correct. You win extra money by collecting more gems.</p>,,,,,,,,,,,,,,,,,,,,,,,
quiz_q_2_ask,51,343641,0.0-17.0-1.0,"""event"",""trial"",""time""
""fullscreenenter"",""1"",""28173""
","
","
","""event"",""trial"",""time""
""fullscreenenter"",""1"",""28173""
","
",,3519.4,run_exp/static/audio/clip_14_q2_ask.m4a,,,,,,,1,,,,,,,,,,,,,,,,,,
quiz_q_2_fb_correct,52,347649,0.0-18.0-0.0,"""event"",""trial"",""time""
""fullscreenenter"",""1"",""28173""
","
","
","""event"",""trial"",""time""
""fullscreenenter"",""1"",""28173""
","
",,null,run_exp/static/audio/clip_15_q2_correct.m4a,null,<p>That’s correct. The experiment is 20 minutes no matter what.</p>,,,,,,,,,,,,,,,,,,,,,,,
quiz_q_3_ask,53,349909,0.0-18.0-1.0,"""event"",""trial"",""time""
""fullscreenenter"",""1"",""28173""
","
","
","""event"",""trial"",""time""
""fullscreenenter"",""1"",""28173""
","
",,2256.5,run_exp/static/audio/clip_17_q3_ask.m4a,,,,,,,1,,,,,,,,,,,,,,,,,,
quiz_q_3_fb_correct,54,353879,0.0-19.0-0.0,"""event"",""trial"",""time""
""fullscreenenter"",""1"",""28173""
","
","
","""event"",""trial"",""time""
""fullscreenenter"",""1"",""28173""
","
",,null,run_exp/static/audio/clip_18_q3_correct.m4a,null,<p> That’s correct. You press the letter L to travel to a new planet.</p>,,,,,,,,,,,,,,,,,,,,,,,
quiz_q_4_ask,55,357024,0.0-19.0-1.0,"""event"",""trial"",""time""
""fullscreenenter"",""1"",""28173""
","
","
","""event"",""trial"",""time""
""fullscreenenter"",""1"",""28173""
","
",,3143.1,run_exp/static/audio/clip_20_q4_ask.m4a,,,,,,,0,,,,,,,,,,,,,,,,,,
quiz_q_4_fb_correct,56,362327,0.0-20.0-0.0,"""event"",""trial"",""time""
""fullscreenenter"",""1"",""28173""
","
","
","""event"",""trial"",""time""
""fullscreenenter"",""1"",""28173""
","
",,null,run_exp/static/audio/clip_21_q4_correct.m4a,null,<p> That’s correct. The more you dig on a planet the fewer gems you’ll get with each dig. </p>,,,,,,,,,,,,,,,,,,,,,,,
quiz_q_5_ask,57,365293,0.0-20.0-1.0,"""event"",""trial"",""time""
""fullscreenenter"",""1"",""28173""
","
","
","""event"",""trial"",""time""
""fullscreenenter"",""1"",""28173""
","
",,2962.6,run_exp/static/audio/clip_23_q5_ask.m4a,,,,,,,1,,,,,,,,,,,,,,,,,,
quiz_q_5_fb_correct,58,370284,0.0-21.0-0.0,"""event"",""trial"",""time""
""fullscreenenter"",""1"",""28173""
","
","
","""event"",""trial"",""time""
""fullscreenenter"",""1"",""28173""
","
",,null,run_exp/static/audio/clip_24_q5_correct.m4a,null,<p> That’s correct. The alien tells you nothing about how much treasure is on the planet.</p>,,,,,,,,,,,,,,,,,,,,,,,
quiz_correct,59,373739,0.0-22.0-0.0,"""event"",""trial"",""time""
""fullscreenenter"",""1"",""28173""
","
","
","""event"",""trial"",""time""
""fullscreenenter"",""1"",""28173""
","
",,null,run_exp/static/audio/clip_26_correct_quiz.m4a,null,,,,,,,,,,,,,,,,,,,,,,,,
quiz_correct_continue,60,389741,0.0-22.0-1.0,"""event"",""trial"",""time""
""fullscreenenter"",""1"",""28173""
","
","
","""event"",""trial"",""time""
""fullscreenenter"",""1"",""28173""
","
",,16000.9,<p>Good job! You're now ready to move on to the real game!</p>,,,,,,,0,,,,,,,,,,,,,,,,,,
audio-keyboard-response,61,399871,0.0-22.0-2.0,"""event"",""trial"",""time""
""fullscreenenter"",""1"",""28173""
","
","
","""event"",""trial"",""time""
""fullscreenenter"",""1"",""28173""
","
",,null,run_exp/static/audio/clip_28_real_game.m4a,null,,,,,,,,,,,,,,,,,,,,,,,,
instruc_begin_exp_contine,62,401158,0.0-22.0-3.0,"""event"",""trial"",""time""
""fullscreenenter"",""1"",""28173""
","
","
","""event"",""trial"",""time""
""fullscreenenter"",""1"",""28173""
","
",,1284,"<p>Now that you know how  to dig for space treasure and travel to new planets,you can start exploring! </p><p>Do you want to go over the instructions again or get started with the real game?</p>",,,,,,,1,,,,,,1,,,,,,,,,,,,
alien_welcome,63,406167,0.0-23.0-0.0,"""event"",""trial"",""time""
""fullscreenenter"",""1"",""28173""
","
","
","""event"",""trial"",""time""
""fullscreenenter"",""1"",""28173""
","
",,null,run_exp/static/images/task_images/aliens/old_aliens/planet/alien_planet-58.jpg,null,,,,,,,,,,,,,58,"58,44,19,53,27,21,29,63,1,39,7,11,68,33,54,9,10,20,60,59,69,56,37,6,15,80,5,77,32,75,28,36,46,73,51,22,50",,,,,,,,,,
land,64,406678,0.0-23.0-1.0,"""event"",""trial"",""time""
""fullscreenenter"",""1"",""28173""
","
","
","""event"",""trial"",""time""
""fullscreenenter"",""1"",""28173""
","
",,null,run_exp/static/images/task_images/land.jpg,null,,,,,,,97,,,1,,,,,,,,,,,,,,
dig,65,408684,0.0-23.0-2.0,"""event"",""trial"",""time""
""fullscreenenter"",""1"",""28173""
","
","
","""event"",""trial"",""time""
""fullscreenenter"",""1"",""28173""
","
",,,,,,,,,,,,"[{""stimulus"":""run_exp/static/images/task_images/dig.jpg"",""time"":0.40000003576278687},{""stimulus"":""run_exp/static/images/task_images/land.jpg"",""time"":672},{""stimulus"":""run_exp/static/images/task_images/dig.jpg"",""time"":1340.7000000476837}]",[],1,,,,,,,,,,,,,,
harvest,66,409695,0.0-23.0-3.0,"""event"",""trial"",""time""
""fullscreenenter"",""1"",""28173""
","
","
","""event"",""trial"",""time""
""fullscreenenter"",""1"",""28173""
","
",,null,run_exp/static/images/task_images/gems/97.jpg,null,,,,,,,33,,,1,,,,,97,0.340440121,0.340206186,,,,,,,
decision,67,410191,0.0-23.0-4.0,"""event"",""trial"",""time""
""fullscreenenter"",""1"",""28173""
","
","
","""event"",""trial"",""time""
""fullscreenenter"",""1"",""28173""
","
",,493.6,run_exp/static/images/task_images/land.jpg,65,,,,,,,33,,,1,,,,,,,,9032,1,0,FALSE,,,
dig,68,412704,0.0-24.0-0.0,"""event"",""trial"",""time""
""fullscreenenter"",""1"",""28173""
","
","
","""event"",""trial"",""time""
""fullscreenenter"",""1"",""28173""
","
",,,,,,,,,,,,"[{""stimulus"":""run_exp/static/images/task_images/dig.jpg"",""time"":0.30000001192092896},{""stimulus"":""run_exp/static/images/task_images/land.jpg"",""time"":842.6000000238419},{""stimulus"":""run_exp/static/images/task_images/dig.jpg"",""time"":1672.1000000238419}]",[],1,,,,,,,,,,,,,,
harvest,69,413709,0.0-24.0-1.0,"""event"",""trial"",""time""
""fullscreenenter"",""1"",""28173""
","
","
","""event"",""trial"",""time""
""fullscreenenter"",""1"",""28173""
","
",,null,run_exp/static/images/task_images/gems/33.jpg,null,,,,,,,6,,,1,,,,,33,0.167661294,0.181818182,,,,,,,
decision,70,414280,0.0-24.0-2.0,"""event"",""trial"",""time""
""fullscreenenter"",""1"",""28173""
","
","
","""event"",""trial"",""time""
""fullscreenenter"",""1"",""28173""
","
",,568.4,run_exp/static/images/task_images/land.jpg,65,,,,,,,6,,,1,,,,,,,,13120,1,1,FALSE,,,
dig,71,416717,0.0-25.0-0.0,"""event"",""trial"",""time""
""fullscreenenter"",""1"",""28173""
","
","
","""event"",""trial"",""time""
""fullscreenenter"",""1"",""28173""
","
",,,,,,,,,,,,"[{""stimulus"":""run_exp/static/images/task_images/dig.jpg"",""time"":0.09999996423721313},{""stimulus"":""run_exp/static/images/task_images/land.jpg"",""time"":817},{""stimulus"":""run_exp/static/images/task_images/dig.jpg"",""time"":1623.8999999761581}]",[],1,,,,,,,,,,,,,,
harvest,72,417726,0.0-25.0-1.0,"""event"",""trial"",""time""
""fullscreenenter"",""1"",""28173""
","
","
","""event"",""trial"",""time""
""fullscreenenter"",""1"",""28173""
","
",,null,run_exp/static/images/task_images/gems/6.jpg,null,,,,,,,1,,,1,,,,,6,0.190438028,0.166666667,,,,,,,
decision,73,418361,0.0-25.0-2.0,"""event"",""trial"",""time""
""fullscreenenter"",""1"",""28173""
","
","
","""event"",""trial"",""time""
""fullscreenenter"",""1"",""28173""
","
",,632.5,run_exp/static/images/task_images/land.jpg,76,,,,,,,1,,,1,,,,,,,,17202,1,2,TRUE,,,
travel,74,427734,0.0-26.0-0.0,"""event"",""trial"",""time""
""fullscreenenter"",""1"",""28173""
","
","
","""event"",""trial"",""time""
""fullscreenenter"",""1"",""28173""
","
",,,,,,,,,,,,"[{""stimulus"":""run_exp/static/images/task_images/rocket-01.jpg"",""time"":0.19999998807907104},{""stimulus"":""run_exp/static/images/task_images/rocket-02.jpg"",""time"":1047.199999988079},{""stimulus"":""run_exp/static/images/task_images/rocket-03.jpg"",""time"":2085.899999976158},{""stimulus"":""run_exp/static/images/task_images/rocket-04.jpg"",""time"":3121.800000011921},{""stimulus"":""run_exp/static/images/task_images/rocket-05.jpg"",""time"":4167.899999976158},{""stimulus"":""run_exp/static/images/task_images/rocket-06.jpg"",""time"":5206.100000023842},{""stimulus"":""run_exp/static/images/task_images/rocket-07.jpg"",""time"":6245.800000011921},{""stimulus"":""run_exp/static/images/task_images/rocket-08.jpg"",""time"":7286.5},{""stimulus"":""run_exp/static/images/task_images/rocket-09.jpg"",""time"":8321.800000011921}]",[],1,,,,,,,,,,,,,,
alien_welcome,75,432737,0.0-26.0-1.0,"""event"",""trial"",""time""
""fullscreenenter"",""1"",""28173""
","
","
","""event"",""trial"",""time""
""fullscreenenter"",""1"",""28173""
","
",,null,run_exp/static/images/task_images/aliens/old_aliens/planet/alien_planet-44.jpg,null,,,,,,,,,,,,,44,"58,44,19,53,27,21,29,63,1,39,7,11,68,33,54,9,10,20,60,59,69,56,37,6,15,80,5,77,32,75,28,36,46,73,51,22,50",,,,,,,,,,
land,76,433246,0.0-26.0-2.0,"""event"",""trial"",""time""
""fullscreenenter"",""1"",""28173""
","
","
","""event"",""trial"",""time""
""fullscreenenter"",""1"",""28173""
","
",,null,run_exp/static/images/task_images/land.jpg,null,,,,,,,96,,,2,,,,,,,,,,,,,,
dig,77,435252,0.0-26.0-3.0,"""event"",""trial"",""time""
""fullscreenenter"",""1"",""28173""
","
","
","""event"",""trial"",""time""
""fullscreenenter"",""1"",""28173""
","
",,,,,,,,,,,,"[{""stimulus"":""run_exp/static/images/task_images/dig.jpg"",""time"":0.6000000238418579},{""stimulus"":""run_exp/static/images/task_images/land.jpg"",""time"":670.9000000357628},{""stimulus"":""run_exp/static/images/task_images/dig.jpg"",""time"":1338.800000011921}]",[],2,,,,,,,,,,,,,,
harvest,78,436255,0.0-26.0-4.0,"""event"",""trial"",""time""
""fullscreenenter"",""1"",""28173""
","
","
","""event"",""trial"",""time""
""fullscreenenter"",""1"",""28173""
","
",,null,run_exp/static/images/task_images/gems/96.jpg,null,,,,,,,12,,,2,,,,,96,0.128034661,0.125,,,,,,,
decision,79,436707,0.0-26.0-5.0,"""event"",""trial"",""time""
""fullscreenenter"",""1"",""28173""
","
","
","""event"",""trial"",""time""
""fullscreenenter"",""1"",""28173""
","
",,449.8,run_exp/static/images/task_images/land.jpg,65,,,,,,,12,,,2,,,,,,,,35547,1,0,FALSE,,,
dig,80,439268,0.0-27.0-0.0,"""event"",""trial"",""time""
""fullscreenenter"",""1"",""28173""
","
","
","""event"",""trial"",""time""
""fullscreenenter"",""1"",""28173""
","
",,,,,,,,,,,,"[{""stimulus"":""run_exp/static/images/task_images/dig.jpg"",""time"":0.09999996423721313},{""stimulus"":""run_exp/static/images/task_images/land.jpg"",""time"":857.3999999761581},{""stimulus"":""run_exp/static/images/task_images/dig.jpg"",""time"":1710.2999999523163}]",[],2,,,,,,,,,,,,,,
harvest,81,440271,0.0-27.0-1.0,"""event"",""trial"",""time""
""fullscreenenter"",""1"",""28173""
","
","
","""event"",""trial"",""time""
""fullscreenenter"",""1"",""28173""
","
",,null,run_exp/static/images/task_images/gems/12.jpg,null,,,,,,,2,,,2,,,,,12,0.184524701,0.166666667,,,,,,,
decision,82,441107,0.0-27.0-2.0,"""event"",""trial"",""time""
""fullscreenenter"",""1"",""28173""
","
","
","""event"",""trial"",""time""
""fullscreenenter"",""1"",""28173""
","
",,834.1,run_exp/static/images/task_images/land.jpg,76,,,,,,,2,,,2,,,,,,,,39947,1,1,TRUE,,,
travel,83,450284,0.0-28.0-0.0,"""event"",""trial"",""time""
""fullscreenenter"",""1"",""28173""
","
","
","""event"",""trial"",""time""
""fullscreenenter"",""1"",""28173""
","
",,,,,,,,,,,,"[{""stimulus"":""run_exp/static/images/task_images/rocket-01.jpg"",""time"":0.3999999761581421},{""stimulus"":""run_exp/static/images/task_images/rocket-02.jpg"",""time"":1019.8999999761581},{""stimulus"":""run_exp/static/images/task_images/rocket-03.jpg"",""time"":2040.2999999523163},{""stimulus"":""run_exp/static/images/task_images/rocket-04.jpg"",""time"":3056.699999988079},{""stimulus"":""run_exp/static/images/task_images/rocket-05.jpg"",""time"":4075},{""stimulus"":""run_exp/static/images/task_images/rocket-06.jpg"",""time"":5098.199999988079},{""stimulus"":""run_exp/static/images/task_images/rocket-07.jpg"",""time"":6114.899999976158},{""stimulus"":""run_exp/static/images/task_images/rocket-08.jpg"",""time"":7130.799999952316},{""stimulus"":""run_exp/static/images/task_images/rocket-09.jpg"",""time"":8150.199999988079}]",[],2,,,,,,,,,,,,,,
alien_welcome,84,455288,0.0-28.0-1.0,"""event"",""trial"",""time""
""fullscreenenter"",""1"",""28173""
","
","
","""event"",""trial"",""time""
""fullscreenenter"",""1"",""28173""
","
",,null,run_exp/static/images/task_images/aliens/old_aliens/planet/alien_planet-19.jpg,null,,,,,,,,,,,,,19,"58,44,19,53,27,21,29,63,1,39,7,11,68,33,54,9,10,20,60,59,69,56,37,6,15,80,5,77,32,75,28,36,46,73,51,22,50",,,,,,,,,,
land,85,455794,0.0-28.0-2.0,"""event"",""trial"",""time""
""fullscreenenter"",""1"",""28173""
","
","
","""event"",""trial"",""time""
""fullscreenenter"",""1"",""28173""
","
",,null,run_exp/static/images/task_images/land.jpg,null,,,,,,,103,,,3,,,,,,,,,,,,,,
dig,86,457805,0.0-28.0-3.0,"""event"",""trial"",""time""
""fullscreenenter"",""1"",""28173""
","
","
","""event"",""trial"",""time""
""fullscreenenter"",""1"",""28173""
","
",,,,,,,,,,,,"[{""stimulus"":""run_exp/static/images/task_images/dig.jpg"",""time"":0.2999999523162842},{""stimulus"":""run_exp/static/images/task_images/land.jpg"",""time"":671.5},{""stimulus"":""run_exp/static/images/task_images/dig.jpg"",""time"":1342.5}]",[],3,,,,,,,,,,,,,,
harvest,87,458810,0.0-28.0-4.0,"""event"",""trial"",""time""
""fullscreenenter"",""1"",""28173""
","
","
","""event"",""trial"",""time""
""fullscreenenter"",""1"",""28173""
","
",,null,run_exp/static/images/task_images/gems/103.jpg,null,,,,,,,54,,,3,,,,,103,0.519830128,0.524271845,,,,,,,
decision,88,459345,0.0-28.0-5.0,"""event"",""trial"",""time""
""fullscreenenter"",""1"",""28173""
","
","
","""event"",""trial"",""time""
""fullscreenenter"",""1"",""28173""
","
",,532,run_exp/static/images/task_images/land.jpg,65,,,,,,,54,,,3,,,,,,,,58185,1,0,FALSE,,,
dig,89,461819,0.0-29.0-0.0,"""event"",""trial"",""time""
""fullscreenenter"",""1"",""28173""
","
","
","""event"",""trial"",""time""
""fullscreenenter"",""1"",""28173""
","
",,,,,,,,,,,,"[{""stimulus"":""run_exp/static/images/task_images/dig.jpg"",""time"":0.30000001192092896},{""stimulus"":""run_exp/static/images/task_images/land.jpg"",""time"":832.9000000357628},{""stimulus"":""run_exp/static/images/task_images/dig.jpg"",""time"":1655.4000000357628}]",[],3,,,,,,,,,,,,,,
harvest,90,462827,0.0-29.0-1.0,"""event"",""trial"",""time""
""fullscreenenter"",""1"",""28173""
","
","
","""event"",""trial"",""time""
""fullscreenenter"",""1"",""28173""
","
",,null,run_exp/static/images/task_images/gems/54.jpg,null,,,,,,,24,,,3,,,,,54,0.440090961,0.444444444,,,,,,,
decision,91,463494,0.0-29.0-2.0,"""event"",""trial"",""time""
""fullscreenenter"",""1"",""28173""
","
","
","""event"",""trial"",""time""
""fullscreenenter"",""1"",""28173""
","
",,664.7,run_exp/static/images/task_images/land.jpg,65,,,,,,,24,,,3,,,,,,,,62335,1,1,FALSE,,,
dig,92,465838,0.0-30.0-0.0,"""event"",""trial"",""time""
""fullscreenenter"",""1"",""28173""
","
","
","""event"",""trial"",""time""
""fullscreenenter"",""1"",""28173""
","
",,,,,,,,,,,,"[{""stimulus"":""run_exp/static/images/task_images/dig.jpg"",""time"":0.09999996423721313},{""stimulus"":""run_exp/static/images/task_images/land.jpg"",""time"":787.3000000119209},{""stimulus"":""run_exp/static/images/task_images/dig.jpg"",""time"":1562.699999988079}]",[],3,,,,,,,,,,,,,,
harvest,93,466841,0.0-30.0-1.0,"""event"",""trial"",""time""
""fullscreenenter"",""1"",""28173""
","
","
","""event"",""trial"",""time""
""fullscreenenter"",""1"",""28173""
","
",,null,run_exp/static/images/task_images/gems/24.jpg,null,,,,,,,10,,,3,,,,,24,0.417669855,0.416666667,,,,,,,
decision,94,467339,0.0-30.0-2.0,"""event"",""trial"",""time""
""fullscreenenter"",""1"",""28173""
","
","
","""event"",""trial"",""time""
""fullscreenenter"",""1"",""28173""
","
",,496.4,run_exp/static/images/task_images/land.jpg,65,,,,,,,10,,,3,,,,,,,,66179,1,2,FALSE,,,
dig,95,469853,0.0-31.0-0.0,"""event"",""trial"",""time""
""fullscreenenter"",""1"",""28173""
","
","
","""event"",""trial"",""time""
""fullscreenenter"",""1"",""28173""
","
",,,,,,,,,,,,"[{""stimulus"":""run_exp/static/images/task_images/dig.jpg"",""time"":0.19999998807907104},{""stimulus"":""run_exp/static/images/task_images/land.jpg"",""time"":842.8999999761581},{""stimulus"":""run_exp/static/images/task_images/dig.jpg"",""time"":1679.1000000238419}]",[],3,,,,,,,,,,,,,,
harvest,96,470860,0.0-31.0-1.0,"""event"",""trial"",""time""
""fullscreenenter"",""1"",""28173""
","
","
","""event"",""trial"",""time""
""fullscreenenter"",""1"",""28173""
","
",,null,run_exp/static/images/task_images/gems/10.jpg,null,,,,,,,6,,,3,,,,,10,0.571995197,0.6,,,,,,,
decision,97,471198,0.0-31.0-2.0,"""event"",""trial"",""time""
""fullscreenenter"",""1"",""28173""
","
","
","""event"",""trial"",""time""
""fullscreenenter"",""1"",""28173""
","
",,336,run_exp/static/images/task_images/land.jpg,76,,,,,,,6,,,3,,,,,,,,70038,1,3,TRUE,,,
travel,98,480867,0.0-32.0-0.0,"""event"",""trial"",""time""
""fullscreenenter"",""1"",""28173""
","
","
","""event"",""trial"",""time""
""fullscreenenter"",""1"",""28173""
","
",,,,,,,,,,,,"[{""stimulus"":""run_exp/static/images/task_images/rocket-01.jpg"",""time"":0.10000002384185791},{""stimulus"":""run_exp/static/images/task_images/rocket-02.jpg"",""time"":1082.8999999761581},{""stimulus"":""run_exp/static/images/task_images/rocket-03.jpg"",""time"":2150.699999988079},{""stimulus"":""run_exp/static/images/task_images/rocket-04.jpg"",""time"":3225.699999988079},{""stimulus"":""run_exp/static/images/task_images/rocket-05.jpg"",""time"":4299},{""stimulus"":""run_exp/static/images/task_images/rocket-06.jpg"",""time"":5368.600000023842},{""stimulus"":""run_exp/static/images/task_images/rocket-07.jpg"",""time"":6448},{""stimulus"":""run_exp/static/images/task_images/rocket-08.jpg"",""time"":7518.800000011921},{""stimulus"":""run_exp/static/images/task_images/rocket-09.jpg"",""time"":8593.199999988079}]",[],3,,,,,,,,,,,,,,
alien_welcome,99,485873,0.0-32.0-1.0,"""event"",""trial"",""time""
""fullscreenenter"",""1"",""28173""
","
","
","""event"",""trial"",""time""
""fullscreenenter"",""1"",""28173""
","
",,null,run_exp/static/images/task_images/aliens/old_aliens/planet/alien_planet-53.jpg,null,,,,,,,,,,,,,53,"58,44,19,53,27,21,29,63,1,39,7,11,68,33,54,9,10,20,60,59,69,56,37,6,15,80,5,77,32,75,28,36,46,73,51,22,50",,,,,,,,,,
land,100,486380,0.0-32.0-2.0,"""event"",""trial"",""time""
""fullscreenenter"",""1"",""28173""
","
","
","""event"",""trial"",""time""
""fullscreenenter"",""1"",""28173""
","
",,null,run_exp/static/images/task_images/land.jpg,null,,,,,,,91,,,4,,,,,,,,,,,,,,
dig,101,488385,0.0-32.0-3.0,"""event"",""trial"",""time""
""fullscreenenter"",""1"",""28173""
","
","
","""event"",""trial"",""time""
""fullscreenenter"",""1"",""28173""
","
",,,,,,,,,,,,"[{""stimulus"":""run_exp/static/images/task_images/dig.jpg"",""time"":0.30000001192092896},{""stimulus"":""run_exp/static/images/task_images/land.jpg"",""time"":672.1000000238419},{""stimulus"":""run_exp/static/images/task_images/dig.jpg"",""time"":1335.3999999761581}]",[],4,,,,,,,,,,,,,,
harvest,102,489388,0.0-32.0-4.0,"""event"",""trial"",""time""
""fullscreenenter"",""1"",""28173""
","
","
","""event"",""trial"",""time""
""fullscreenenter"",""1"",""28173""
","
",,null,run_exp/static/images/task_images/gems/91.jpg,null,,,,,,,50,,,4,,,,,91,0.54554681,0.549450549,,,,,,,
decision,103,489951,0.0-32.0-5.0,"""event"",""trial"",""time""
""fullscreenenter"",""1"",""28173""
","
","
","""event"",""trial"",""time""
""fullscreenenter"",""1"",""28173""
","
",,560.6,run_exp/static/images/task_images/land.jpg,65,,,,,,,50,,,4,,,,,,,,88791,1,0,FALSE,,,
dig,104,492401,0.0-33.0-0.0,"""event"",""trial"",""time""
""fullscreenenter"",""1"",""28173""
","
","
","""event"",""trial"",""time""
""fullscreenenter"",""1"",""28173""
","
",,,,,,,,,,,,"[{""stimulus"":""run_exp/static/images/task_images/dig.jpg"",""time"":0.19999998807907104},{""stimulus"":""run_exp/static/images/task_images/land.jpg"",""time"":815.3000000119209},{""stimulus"":""run_exp/static/images/task_images/dig.jpg"",""time"":1631}]",[],4,,,,,,,,,,,,,,
harvest,105,493403,0.0-33.0-1.0,"""event"",""trial"",""time""
""fullscreenenter"",""1"",""28173""
","
","
","""event"",""trial"",""time""
""fullscreenenter"",""1"",""28173""
","
",,null,run_exp/static/images/task_images/gems/50.jpg,null,,,,,,,26,,,4,,,,,50,0.511086504,0.52,,,,,,,
decision,106,493775,0.0-33.0-2.0,"""event"",""trial"",""time""
""fullscreenenter"",""1"",""28173""
","
","
","""event"",""trial"",""time""
""fullscreenenter"",""1"",""28173""
","
",,368.6,run_exp/static/images/task_images/land.jpg,65,,,,,,,26,,,4,,,,,,,,92615,1,1,FALSE,,,
dig,107,496420,0.0-34.0-0.0,"""event"",""trial"",""time""
""fullscreenenter"",""1"",""28173""
","
","
","""event"",""trial"",""time""
""fullscreenenter"",""1"",""28173""
","
",,,,,,,,,,,,"[{""stimulus"":""run_exp/static/images/task_images/dig.jpg"",""time"":0.19999998807907104},{""stimulus"":""run_exp/static/images/task_images/land.jpg"",""time"":888.9000000357628},{""stimulus"":""run_exp/static/images/task_images/dig.jpg"",""time"":1758}]",[],4,,,,,,,,,,,,,,
harvest,108,497425,0.0-34.0-1.0,"""event"",""trial"",""time""
""fullscreenenter"",""1"",""28173""
","
","
","""event"",""trial"",""time""
""fullscreenenter"",""1"",""28173""
","
",,null,run_exp/static/images/task_images/gems/26.jpg,null,,,,,,,14,,,4,,,,,26,0.534271702,0.538461538,,,,,,,
decision,109,497957,0.0-34.0-2.0,"""event"",""trial"",""time""
""fullscreenenter"",""1"",""28173""
","
","
","""event"",""trial"",""time""
""fullscreenenter"",""1"",""28173""
","
",,529.6,run_exp/static/images/task_images/land.jpg,65,,,,,,,14,,,4,,,,,,,,96797,1,2,FALSE,,,
dig,110,500435,0.0-35.0-0.0,"""event"",""trial"",""time""
""fullscreenenter"",""1"",""28173""
","
","
","""event"",""trial"",""time""
""fullscreenenter"",""1"",""28173""
","
",,,,,,,,,,,,"[{""stimulus"":""run_exp/static/images/task_images/dig.jpg"",""time"":0.20000004768371582},{""stimulus"":""run_exp/static/images/task_images/land.jpg"",""time"":825.4000000357628},{""stimulus"":""run_exp/static/images/task_images/dig.jpg"",""time"":1658.5}]",[],4,,,,,,,,,,,,,,
harvest,111,501440,0.0-35.0-1.0,"""event"",""trial"",""time""
""fullscreenenter"",""1"",""28173""
","
","
","""event"",""trial"",""time""
""fullscreenenter"",""1"",""28173""
","
",,null,run_exp/static/images/task_images/gems/14.jpg,null,,,,,,,8,,,4,,,,,14,0.54481172,0.571428571,,,,,,,
decision,112,502226,0.0-35.0-2.0,"""event"",""trial"",""time""
""fullscreenenter"",""1"",""28173""
","
","
","""event"",""trial"",""time""
""fullscreenenter"",""1"",""28173""
","
",,783.7,run_exp/static/images/task_images/land.jpg,76,,,,,,,8,,,4,,,,,,,,101067,1,3,TRUE,,,
travel,113,511449,0.0-36.0-0.0,"""event"",""trial"",""time""
""fullscreenenter"",""1"",""28173""
","
","
","""event"",""trial"",""time""
""fullscreenenter"",""1"",""28173""
","
",,,,,,,,,,,,"[{""stimulus"":""run_exp/static/images/task_images/rocket-01.jpg"",""time"":0.19999998807907104},{""stimulus"":""run_exp/static/images/task_images/rocket-02.jpg"",""time"":1029.5999999642372},{""stimulus"":""run_exp/static/images/task_images/rocket-03.jpg"",""time"":2053.199999988079},{""stimulus"":""run_exp/static/images/task_images/rocket-04.jpg"",""time"":3074.199999988079},{""stimulus"":""run_exp/static/images/task_images/rocket-05.jpg"",""time"":4101.399999976158},{""stimulus"":""run_exp/static/images/task_images/rocket-06.jpg"",""time"":5123.099999964237},{""stimulus"":""run_exp/static/images/task_images/rocket-07.jpg"",""time"":6150.099999964237},{""stimulus"":""run_exp/static/images/task_images/rocket-08.jpg"",""time"":7173.800000011921},{""stimulus"":""run_exp/static/images/task_images/rocket-09.jpg"",""time"":8194.599999964237}]",[],4,,,,,,,,,,,,,,
alien_welcome,114,516454,0.0-36.0-1.0,"""event"",""trial"",""time""
""fullscreenenter"",""1"",""28173""
","
","
","""event"",""trial"",""time""
""fullscreenenter"",""1"",""28173""
","
",,null,run_exp/static/images/task_images/aliens/old_aliens/planet/alien_planet-27.jpg,null,,,,,,,,,,,,,27,"58,44,19,53,27,21,29,63,1,39,7,11,68,33,54,9,10,20,60,59,69,56,37,6,15,80,5,77,32,75,28,36,46,73,51,22,50",,,,,,,,,,
land,115,516963,0.0-36.0-2.0,"""event"",""trial"",""time""
""fullscreenenter"",""1"",""28173""
","
","
","""event"",""trial"",""time""
""fullscreenenter"",""1"",""28173""
","
",,null,run_exp/static/images/task_images/land.jpg,null,,,,,,,100,,,5,,,,,,,,,,,,,,
dig,116,518971,0.0-36.0-3.0,"""event"",""trial"",""time""
""fullscreenenter"",""1"",""28173""
","
","
","""event"",""trial"",""time""
""fullscreenenter"",""1"",""28173""
","
",,,,,,,,,,,,"[{""stimulus"":""run_exp/static/images/task_images/dig.jpg"",""time"":0.5},{""stimulus"":""run_exp/static/images/task_images/land.jpg"",""time"":671.1000000238419},{""stimulus"":""run_exp/static/images/task_images/dig.jpg"",""time"":1338.6000000238419}]",[],5,,,,,,,,,,,,,,
harvest,117,519980,0.0-36.0-4.0,"""event"",""trial"",""time""
""fullscreenenter"",""1"",""28173""
","
","
","""event"",""trial"",""time""
""fullscreenenter"",""1"",""28173""
","
",,null,run_exp/static/images/task_images/gems/100.jpg,null,,,,,,,48,,,5,,,,,100,0.476986861,0.48,,,,,,,
decision,118,520431,0.0-36.0-5.0,"""event"",""trial"",""time""
""fullscreenenter"",""1"",""28173""
","
","
","""event"",""trial"",""time""
""fullscreenenter"",""1"",""28173""
","
",,448.2,run_exp/static/images/task_images/land.jpg,65,,,,,,,48,,,5,,,,,,,,119271,1,0,FALSE,,,
dig,119,522992,0.0-37.0-0.0,"""event"",""trial"",""time""
""fullscreenenter"",""1"",""28173""
","
","
","""event"",""trial"",""time""
""fullscreenenter"",""1"",""28173""
","
",,,,,,,,,,,,"[{""stimulus"":""run_exp/static/images/task_images/dig.jpg"",""time"":0},{""stimulus"":""run_exp/static/images/task_images/land.jpg"",""time"":851.5},{""stimulus"":""run_exp/static/images/task_images/dig.jpg"",""time"":1702.199999988079}]",[],5,,,,,,,,,,,,,,
harvest,120,524003,0.0-37.0-1.0,"""event"",""trial"",""time""
""fullscreenenter"",""1"",""28173""
","
","
","""event"",""trial"",""time""
""fullscreenenter"",""1"",""28173""
","
",,null,run_exp/static/images/task_images/gems/48.jpg,null,,,,,,,20,,,5,,,,,48,0.425590449,0.416666667,,,,,,,
decision,121,525070,0.0-37.0-2.0,"""event"",""trial"",""time""
""fullscreenenter"",""1"",""28173""
","
","
","""event"",""trial"",""time""
""fullscreenenter"",""1"",""28173""
","
",,1065.3,run_exp/static/images/task_images/land.jpg,65,,,,,,,20,,,5,,,,,,,,123910,1,1,FALSE,,,
dig,122,527019,0.0-38.0-0.0,"""event"",""trial"",""time""
""fullscreenenter"",""1"",""28173""
","
","
","""event"",""trial"",""time""
""fullscreenenter"",""1"",""28173""
","
",,,,,,,,,,,,"[{""stimulus"":""run_exp/static/images/task_images/dig.jpg"",""time"":0.09999996423721313},{""stimulus"":""run_exp/static/images/task_images/land.jpg"",""time"":653.8000000119209},{""stimulus"":""run_exp/static/images/task_images/dig.jpg"",""time"":1293.5999999642372}]",[],5,,,,,,,,,,,,,,
harvest,123,528027,0.0-38.0-1.0,"""event"",""trial"",""time""
""fullscreenenter"",""1"",""28173""
","
","
","""event"",""trial"",""time""
""fullscreenenter"",""1"",""28173""
","
",,null,run_exp/static/images/task_images/gems/20.jpg,null,,,,,,,9,,,5,,,,,20,0.441654657,0.45,,,,,,,
decision,124,528937,0.0-38.0-2.0,"""event"",""trial"",""time""
""fullscreenenter"",""1"",""28173""
","
","
","""event"",""trial"",""time""
""fullscreenenter"",""1"",""28173""
","
",,907.4,run_exp/static/images/task_images/land.jpg,65,,,,,,,9,,,5,,,,,,,,127777,1,2,FALSE,,,
dig,125,531035,0.0-39.0-0.0,"""event"",""trial"",""time""
""fullscreenenter"",""1"",""28173""
","
","
","""event"",""trial"",""time""
""fullscreenenter"",""1"",""28173""
","
",,,,,,,,,,,,"[{""stimulus"":""run_exp/static/images/task_images/dig.jpg"",""time"":0.19999998807907104},{""stimulus"":""run_exp/static/images/task_images/land.jpg"",""time"":699.3000000119209},{""stimulus"":""run_exp/static/images/task_images/dig.jpg"",""time"":1397.300000011921}]",[],5,,,,,,,,,,,,,,
harvest,126,532044,0.0-39.0-1.0,"""event"",""trial"",""time""
""fullscreenenter"",""1"",""28173""
","
","
","""event"",""trial"",""time""
""fullscreenenter"",""1"",""28173""
","
",,null,run_exp/static/images/task_images/gems/9.jpg,null,,,,,,,5,,,5,,,,,9,0.55498027,0.555555556,,,,,,,
decision,127,532113,0.0-39.0-2.0,"""event"",""trial"",""time""
""fullscreenenter"",""1"",""28173""
","
","
","""event"",""trial"",""time""
""fullscreenenter"",""1"",""28173""
","
",,66.60000002,run_exp/static/images/task_images/land.jpg,76,,,,,,,5,,,5,,,,,,,,130953,1,3,TRUE,,,
travel,128,542051,0.0-40.0-0.0,"""event"",""trial"",""time""
""fullscreenenter"",""1"",""28173""
","
","
","""event"",""trial"",""time""
""fullscreenenter"",""1"",""28173""
","
",,,,,,,,,,,,"[{""stimulus"":""run_exp/static/images/task_images/rocket-01.jpg"",""time"":0.10000002384185791},{""stimulus"":""run_exp/static/images/task_images/rocket-02.jpg"",""time"":1106.9000000357628},{""stimulus"":""run_exp/static/images/task_images/rocket-03.jpg"",""time"":2210.600000023842},{""stimulus"":""run_exp/static/images/task_images/rocket-04.jpg"",""time"":3316},{""stimulus"":""run_exp/static/images/task_images/rocket-05.jpg"",""time"":4419.100000023842},{""stimulus"":""run_exp/static/images/task_images/rocket-06.jpg"",""time"":5518.600000023842},{""stimulus"":""run_exp/static/images/task_images/rocket-07.jpg"",""time"":6628.800000011921},{""stimulus"":""run_exp/static/images/task_images/rocket-08.jpg"",""time"":7732.700000047684},{""stimulus"":""run_exp/static/images/task_images/rocket-09.jpg"",""time"":8830.5}]",[],5,,,,,,,,,,,,,,
alien_welcome,129,547054,0.0-40.0-1.0,"""event"",""trial"",""time""
""fullscreenenter"",""1"",""28173""
","
","
","""event"",""trial"",""time""
""fullscreenenter"",""1"",""28173""
","
",,null,run_exp/static/images/task_images/aliens/old_aliens/planet/alien_planet-21.jpg,null,,,,,,,,,,,,,21,"58,44,19,53,27,21,29,63,1,39,7,11,68,33,54,9,10,20,60,59,69,56,37,6,15,80,5,77,32,75,28,36,46,73,51,22,50",,,,,,,,,,
land,130,547559,0.0-40.0-2.0,"""event"",""trial"",""time""
""fullscreenenter"",""1"",""28173""
","
","
","""event"",""trial"",""time""
""fullscreenenter"",""1"",""28173""
","
",,null,run_exp/static/images/task_images/land.jpg,null,,,,,,,103,,,6,,,,,,,,,,,,,,
dig,131,549566,0.0-40.0-3.0,"""event"",""trial"",""time""
""fullscreenenter"",""1"",""28173""
","
","
","""event"",""trial"",""time""
""fullscreenenter"",""1"",""28173""
","
",,,,,,,,,,,,"[{""stimulus"":""run_exp/static/images/task_images/dig.jpg"",""time"":0.5},{""stimulus"":""run_exp/static/images/task_images/land.jpg"",""time"":672.3999999761581},{""stimulus"":""run_exp/static/images/task_images/dig.jpg"",""time"":1342.699999988079}]",[],6,,,,,,,,,,,,,,
harvest,132,550569,0.0-40.0-4.0,"""event"",""trial"",""time""
""fullscreenenter"",""1"",""28173""
","
","
","""event"",""trial"",""time""
""fullscreenenter"",""1"",""28173""
","
",,null,run_exp/static/images/task_images/gems/103.jpg,null,,,,,,,81,,,6,,,,,103,0.787110086,0.786407767,,,,,,,
decision,133,552395,0.0-40.0-5.0,"""event"",""trial"",""time""
""fullscreenenter"",""1"",""28173""
","
","
","""event"",""trial"",""time""
""fullscreenenter"",""1"",""28173""
","
",,1823.5,run_exp/static/images/task_images/land.jpg,65,,,,,,,81,,,6,,,,,,,,151235,1,0,FALSE,,,
dig,134,553585,0.0-41.0-0.0,"""event"",""trial"",""time""
""fullscreenenter"",""1"",""28173""
","
","
","""event"",""trial"",""time""
""fullscreenenter"",""1"",""28173""
","
",,,,,,,,,,,,"[{""stimulus"":""run_exp/static/images/task_images/dig.jpg"",""time"":0.30000001192092896},{""stimulus"":""run_exp/static/images/task_images/land.jpg"",""time"":400.7000000476837},{""stimulus"":""run_exp/static/images/task_images/dig.jpg"",""time"":787.3000000119209}]",[],6,,,,,,,,,,,,,,
harvest,135,554593,0.0-41.0-1.0,"""event"",""trial"",""time""
""fullscreenenter"",""1"",""28173""
","
","
","""event"",""trial"",""time""
""fullscreenenter"",""1"",""28173""
","
",,null,run_exp/static/images/task_images/gems/81.jpg,null,,,,,,,66,,,6,,,,,81,0.815215075,0.814814815,,,,,,,
decision,136,555131,0.0-41.0-2.0,"""event"",""trial"",""time""
""fullscreenenter"",""1"",""28173""
","
","
","""event"",""trial"",""time""
""fullscreenenter"",""1"",""28173""
","
",,535.1,run_exp/static/images/task_images/land.jpg,65,,,,,,,66,,,6,,,,,,,,153971,1,1,FALSE,,,
dig,137,557603,0.0-42.0-0.0,"""event"",""trial"",""time""
""fullscreenenter"",""1"",""28173""
","
","
","""event"",""trial"",""time""
""fullscreenenter"",""1"",""28173""
","
",,,,,,,,,,,,"[{""stimulus"":""run_exp/static/images/task_images/dig.jpg"",""time"":0.09999996423721313},{""stimulus"":""run_exp/static/images/task_images/land.jpg"",""time"":824.3999999761581},{""stimulus"":""run_exp/static/images/task_images/dig.jpg"",""time"":1652}]",[],6,,,,,,,,,,,,,,
harvest,138,558607,0.0-42.0-1.0,"""event"",""trial"",""time""
""fullscreenenter"",""1"",""28173""
","
","
","""event"",""trial"",""time""
""fullscreenenter"",""1"",""28173""
","
",,null,run_exp/static/images/task_images/gems/66.jpg,null,,,,,,,51,,,6,,,,,66,0.767978319,0.772727273,,,,,,,
decision,139,559415,0.0-42.0-2.0,"""event"",""trial"",""time""
""fullscreenenter"",""1"",""28173""
","
","
","""event"",""trial"",""time""
""fullscreenenter"",""1"",""28173""
","
",,805.3,run_exp/static/images/task_images/land.jpg,65,,,,,,,51,,,6,,,,,,,,158255,1,2,FALSE,,,
dig,140,561616,0.0-43.0-0.0,"""event"",""trial"",""time""
""fullscreenenter"",""1"",""28173""
","
","
","""event"",""trial"",""time""
""fullscreenenter"",""1"",""28173""
","
",,,,,,,,,,,,"[{""stimulus"":""run_exp/static/images/task_images/dig.jpg"",""time"":0.10000002384185791},{""stimulus"":""run_exp/static/images/task_images/land.jpg"",""time"":732.5},{""stimulus"":""run_exp/static/images/task_images/dig.jpg"",""time"":1465.9000000357628}]",[],6,,,,,,,,,,,,,,
harvest,141,562620,0.0-43.0-1.0,"""event"",""trial"",""time""
""fullscreenenter"",""1"",""28173""
","
","
","""event"",""trial"",""time""
""fullscreenenter"",""1"",""28173""
","
",,null,run_exp/static/images/task_images/gems/51.jpg,null,,,,,,,39,,,6,,,,,51,0.772153608,0.764705882,,,,,,,
decision,142,562801,0.0-43.0-2.0,"""event"",""trial"",""time""
""fullscreenenter"",""1"",""28173""
","
","
","""event"",""trial"",""time""
""fullscreenenter"",""1"",""28173""
","
",,178.2,run_exp/static/images/task_images/land.jpg,65,,,,,,,39,,,6,,,,,,,,161641,1,3,FALSE,,,
dig,143,565633,0.0-44.0-0.0,"""event"",""trial"",""time""
""fullscreenenter"",""1"",""28173""
","
","
","""event"",""trial"",""time""
""fullscreenenter"",""1"",""28173""
","
",,,,,,,,,,,,"[{""stimulus"":""run_exp/static/images/task_images/dig.jpg"",""time"":0.30000001192092896},{""stimulus"":""run_exp/static/images/task_images/land.jpg"",""time"":949.2000000476837},{""stimulus"":""run_exp/static/images/task_images/dig.jpg"",""time"":1881.6000000238419}]",[],6,,,,,,,,,,,,,,
harvest,144,566637,0.0-44.0-1.0,"""event"",""trial"",""time""
""fullscreenenter"",""1"",""28173""
","
","
","""event"",""trial"",""time""
""fullscreenenter"",""1"",""28173""
","
",,null,run_exp/static/images/task_images/gems/39.jpg,null,,,,,,,33,,,6,,,,,39,0.844463906,0.846153846,,,,,,,
decision,145,567253,0.0-44.0-2.0,"""event"",""trial"",""time""
""fullscreenenter"",""1"",""28173""
","
","
","""event"",""trial"",""time""
""fullscreenenter"",""1"",""28173""
","
",,614.1,run_exp/static/images/task_images/land.jpg,76,,,,,,,33,,,6,,,,,,,,166093,1,4,TRUE,,,
travel,146,576642,0.0-45.0-0.0,"""event"",""trial"",""time""
""fullscreenenter"",""1"",""28173""
","
","
","""event"",""trial"",""time""
""fullscreenenter"",""1"",""28173""
","
",,,,,,,,,,,,"[{""stimulus"":""run_exp/static/images/task_images/rocket-01.jpg"",""time"":0.19999998807907104},{""stimulus"":""run_exp/static/images/task_images/rocket-02.jpg"",""time"":1045.4000000357628},{""stimulus"":""run_exp/static/images/task_images/rocket-03.jpg"",""time"":2094.800000011921},{""stimulus"":""run_exp/static/images/task_images/rocket-04.jpg"",""time"":3130.199999988079},{""stimulus"":""run_exp/static/images/task_images/rocket-05.jpg"",""time"":4176.300000011921},{""stimulus"":""run_exp/static/images/task_images/rocket-06.jpg"",""time"":5213.800000011921},{""stimulus"":""run_exp/static/images/task_images/rocket-07.jpg"",""time"":6260.900000035763},{""stimulus"":""run_exp/static/images/task_images/rocket-08.jpg"",""time"":7296.199999988079},{""stimulus"":""run_exp/static/images/task_images/rocket-09.jpg"",""time"":8344.900000035763}]",[],6,,,,,,,,,,,,,,
alien_welcome,147,581650,0.0-45.0-1.0,"""event"",""trial"",""time""
""fullscreenenter"",""1"",""28173""
","
","
","""event"",""trial"",""time""
""fullscreenenter"",""1"",""28173""
","
",,null,run_exp/static/images/task_images/aliens/old_aliens/planet/alien_planet-29.jpg,null,,,,,,,,,,,,,29,"58,44,19,53,27,21,29,63,1,39,7,11,68,33,54,9,10,20,60,59,69,56,37,6,15,80,5,77,32,75,28,36,46,73,51,22,50",,,,,,,,,,
land,148,582154,0.0-45.0-2.0,"""event"",""trial"",""time""
""fullscreenenter"",""1"",""28173""
","
","
","""event"",""trial"",""time""
""fullscreenenter"",""1"",""28173""
","
",,null,run_exp/static/images/task_images/land.jpg,null,,,,,,,105,,,7,,,,,,,,,,,,,,
dig,149,584166,0.0-45.0-3.0,"""event"",""trial"",""time""
""fullscreenenter"",""1"",""28173""
","
","
","""event"",""trial"",""time""
""fullscreenenter"",""1"",""28173""
","
",,,,,,,,,,,,"[{""stimulus"":""run_exp/static/images/task_images/dig.jpg"",""time"":0.5},{""stimulus"":""run_exp/static/images/task_images/land.jpg"",""time"":675.0999999642372},{""stimulus"":""run_exp/static/images/task_images/dig.jpg"",""time"":1340.5}]",[],7,,,,,,,,,,,,,,
harvest,150,585170,0.0-45.0-4.0,"""event"",""trial"",""time""
""fullscreenenter"",""1"",""28173""
","
","
","""event"",""trial"",""time""
""fullscreenenter"",""1"",""28173""
","
",,null,run_exp/static/images/task_images/gems/105.jpg,null,,,,,,,77,,,7,,,,,105,0.730444668,0.733333333,,,,,,,
decision,151,586215,0.0-45.0-5.0,"""event"",""trial"",""time""
""fullscreenenter"",""1"",""28173""
","
","
","""event"",""trial"",""time""
""fullscreenenter"",""1"",""28173""
","
",,1042.9,run_exp/static/images/task_images/land.jpg,65,,,,,,,77,,,7,,,,,,,,185055,1,0,FALSE,,,
dig,152,588185,0.0-46.0-0.0,"""event"",""trial"",""time""
""fullscreenenter"",""1"",""28173""
","
","
","""event"",""trial"",""time""
""fullscreenenter"",""1"",""28173""
","
",,,,,,,,,,,,"[{""stimulus"":""run_exp/static/images/task_images/dig.jpg"",""time"":0.19999998807907104},{""stimulus"":""run_exp/static/images/task_images/land.jpg"",""time"":658.1999999880791},{""stimulus"":""run_exp/static/images/task_images/dig.jpg"",""time"":1306.199999988079}]",[],7,,,,,,,,,,,,,,
harvest,153,589192,0.0-46.0-1.0,"""event"",""trial"",""time""
""fullscreenenter"",""1"",""28173""
","
","
","""event"",""trial"",""time""
""fullscreenenter"",""1"",""28173""
","
",,null,run_exp/static/images/task_images/gems/77.jpg,null,,,,,,,63,,,7,,,,,77,0.821967169,0.818181818,,,,,,,
decision,154,589761,0.0-46.0-2.0,"""event"",""trial"",""time""
""fullscreenenter"",""1"",""28173""
","
","
","""event"",""trial"",""time""
""fullscreenenter"",""1"",""28173""
","
",,565.9,run_exp/static/images/task_images/land.jpg,65,,,,,,,63,,,7,,,,,,,,188601,1,1,FALSE,,,
dig,155,592204,0.0-47.0-0.0,"""event"",""trial"",""time""
""fullscreenenter"",""1"",""28173""
","
","
","""event"",""trial"",""time""
""fullscreenenter"",""1"",""28173""
","
",,,,,,,,,,,,"[{""stimulus"":""run_exp/static/images/task_images/dig.jpg"",""time"":0.3999999761581421},{""stimulus"":""run_exp/static/images/task_images/land.jpg"",""time"":815.5999999642372},{""stimulus"":""run_exp/static/images/task_images/dig.jpg"",""time"":1632.300000011921}]",[],7,,,,,,,,,,,,,,
harvest,156,593216,0.0-47.0-1.0,"""event"",""trial"",""time""
""fullscreenenter"",""1"",""28173""
","
","
","""event"",""trial"",""time""
""fullscreenenter"",""1"",""28173""
","
",,null,run_exp/static/images/task_images/gems/63.jpg,null,,,,,,,55,,,7,,,,,63,0.872227775,0.873015873,,,,,,,
decision,157,593555,0.0-47.0-2.0,"""event"",""trial"",""time""
""fullscreenenter"",""1"",""28173""
","
","
","""event"",""trial"",""time""
""fullscreenenter"",""1"",""28173""
","
",,336.5,run_exp/static/images/task_images/land.jpg,65,,,,,,,55,,,7,,,,,,,,192395,1,2,FALSE,,,
dig,158,596233,0.0-48.0-0.0,"""event"",""trial"",""time""
""fullscreenenter"",""1"",""28173""
","
","
","""event"",""trial"",""time""
""fullscreenenter"",""1"",""28173""
","
",,,,,,,,,,,,"[{""stimulus"":""run_exp/static/images/task_images/dig.jpg"",""time"":0.19999998807907104},{""stimulus"":""run_exp/static/images/task_images/land.jpg"",""time"":895.4000000357628},{""stimulus"":""run_exp/static/images/task_images/dig.jpg"",""time"":1778.5}]",[],7,,,,,,,,,,,,,,
harvest,159,597236,0.0-48.0-1.0,"""event"",""trial"",""time""
""fullscreenenter"",""1"",""28173""
","
","
","""event"",""trial"",""time""
""fullscreenenter"",""1"",""28173""
","
",,null,run_exp/static/images/task_images/gems/55.jpg,null,,,,,,,42,,,7,,,,,55,0.770213356,0.763636364,,,,,,,
decision,160,597687,0.0-48.0-2.0,"""event"",""trial"",""time""
""fullscreenenter"",""1"",""28173""
","
","
","""event"",""trial"",""time""
""fullscreenenter"",""1"",""28173""
","
",,448,run_exp/static/images/task_images/land.jpg,65,,,,,,,42,,,7,,,,,,,,196527,1,3,FALSE,,,
dig,161,600249,0.0-49.0-0.0,"""event"",""trial"",""time""
""fullscreenenter"",""1"",""28173""
","
","
","""event"",""trial"",""time""
""fullscreenenter"",""1"",""28173""
","
",,,,,,,,,,,,"[{""stimulus"":""run_exp/static/images/task_images/dig.jpg"",""time"":0.19999998807907104},{""stimulus"":""run_exp/static/images/task_images/land.jpg"",""time"":861.1999999880791},{""stimulus"":""run_exp/static/images/task_images/dig.jpg"",""time"":1708.699999988079}]",[],7,,,,,,,,,,,,,,
harvest,162,601257,0.0-49.0-1.0,"""event"",""trial"",""time""
""fullscreenenter"",""1"",""28173""
","
","
","""event"",""trial"",""time""
""fullscreenenter"",""1"",""28173""
","
",,null,run_exp/static/images/task_images/gems/42.jpg,null,,,,,,,31,,,7,,,,,42,0.737465644,0.738095238,,,,,,,
decision,163,602029,0.0-49.0-2.0,"""event"",""trial"",""time""
""fullscreenenter"",""1"",""28173""
","
","
","""event"",""trial"",""time""
""fullscreenenter"",""1"",""28173""
","
",,769.5,run_exp/static/images/task_images/land.jpg,65,,,,,,,31,,,7,,,,,,,,200869,1,4,FALSE,,,
dig,164,604270,0.0-50.0-0.0,"""event"",""trial"",""time""
""fullscreenenter"",""1"",""28173""
","
","
","""event"",""trial"",""time""
""fullscreenenter"",""1"",""28173""
","
",,,,,,,,,,,,"[{""stimulus"":""run_exp/static/images/task_images/dig.jpg"",""time"":0.19999998807907104},{""stimulus"":""run_exp/static/images/task_images/land.jpg"",""time"":751.1000000238419},{""stimulus"":""run_exp/static/images/task_images/dig.jpg"",""time"":1489}]",[],7,,,,,,,,,,,,,,
harvest,165,605281,0.0-50.0-1.0,"""event"",""trial"",""time""
""fullscreenenter"",""1"",""28173""
","
","
","""event"",""trial"",""time""
""fullscreenenter"",""1"",""28173""
","
",,null,run_exp/static/images/task_images/gems/31.jpg,null,,,,,,,24,,,7,,,,,31,0.772119508,0.774193548,,,,,,,
decision,166,606123,0.0-50.0-2.0,"""event"",""trial"",""time""
""fullscreenenter"",""1"",""28173""
","
","
","""event"",""trial"",""time""
""fullscreenenter"",""1"",""28173""
","
",,839.1,run_exp/static/images/task_images/land.jpg,76,,,,,,,24,,,7,,,,,,,,204963,1,5,TRUE,,,
travel,167,615286,0.0-51.0-0.0,"""event"",""trial"",""time""
""fullscreenenter"",""1"",""28173""
","
","
","""event"",""trial"",""time""
""fullscreenenter"",""1"",""28173""
","
",,,,,,,,,,,,"[{""stimulus"":""run_exp/static/images/task_images/rocket-01.jpg"",""time"":0.3999999761581421},{""stimulus"":""run_exp/static/images/task_images/rocket-02.jpg"",""time"":1023.1000000238419},{""stimulus"":""run_exp/static/images/task_images/rocket-03.jpg"",""time"":2039.800000011921},{""stimulus"":""run_exp/static/images/task_images/rocket-04.jpg"",""time"":3056.5},{""stimulus"":""run_exp/static/images/task_images/rocket-05.jpg"",""time"":4074},{""stimulus"":""run_exp/static/images/task_images/rocket-06.jpg"",""time"":5093.699999988079},{""stimulus"":""run_exp/static/images/task_images/rocket-07.jpg"",""time"":6110.5},{""stimulus"":""run_exp/static/images/task_images/rocket-08.jpg"",""time"":7126.699999988079},{""stimulus"":""run_exp/static/images/task_images/rocket-09.jpg"",""time"":8144.600000023842}]",[],7,,,,,,,,,,,,,,
alien_welcome,168,620295,0.0-51.0-1.0,"""event"",""trial"",""time""
""fullscreenenter"",""1"",""28173""
","
","
","""event"",""trial"",""time""
""fullscreenenter"",""1"",""28173""
","
",,null,run_exp/static/images/task_images/aliens/old_aliens/planet/alien_planet-63.jpg,null,,,,,,,,,,,,,63,"58,44,19,53,27,21,29,63,1,39,7,11,68,33,54,9,10,20,60,59,69,56,37,6,15,80,5,77,32,75,28,36,46,73,51,22,50",,,,,,,,,,
land,169,620803,0.0-51.0-2.0,"""event"",""trial"",""time""
""fullscreenenter"",""1"",""28173""
","
","
","""event"",""trial"",""time""
""fullscreenenter"",""1"",""28173""
","
",,null,run_exp/static/images/task_images/land.jpg,null,,,,,,,99,,,8,,,,,,,,,,,,,,
dig,170,622816,0.0-51.0-3.0,"""event"",""trial"",""time""
""fullscreenenter"",""1"",""28173""
","
","
","""event"",""trial"",""time""
""fullscreenenter"",""1"",""28173""
","
",,,,,,,,,,,,"[{""stimulus"":""run_exp/static/images/task_images/dig.jpg"",""time"":0.2999999523162842},{""stimulus"":""run_exp/static/images/task_images/land.jpg"",""time"":674.8999999761581},{""stimulus"":""run_exp/static/images/task_images/dig.jpg"",""time"":1345.5999999642372}]",[],8,,,,,,,,,,,,,,
harvest,171,623820,0.0-51.0-4.0,"""event"",""trial"",""time""
""fullscreenenter"",""1"",""28173""
","
","
","""event"",""trial"",""time""
""fullscreenenter"",""1"",""28173""
","
",,null,run_exp/static/images/task_images/gems/99.jpg,null,,,,,,,86,,,8,,,,,99,0.872574712,0.868686869,,,,,,,
decision,172,624292,0.0-51.0-5.0,"""event"",""trial"",""time""
""fullscreenenter"",""1"",""28173""
","
","
","""event"",""trial"",""time""
""fullscreenenter"",""1"",""28173""
","
",,470.3,run_exp/static/images/task_images/land.jpg,65,,,,,,,86,,,8,,,,,,,,223133,1,0,FALSE,,,
dig,173,626830,0.0-52.0-0.0,"""event"",""trial"",""time""
""fullscreenenter"",""1"",""28173""
","
","
","""event"",""trial"",""time""
""fullscreenenter"",""1"",""28173""
","
",,,,,,,,,,,,"[{""stimulus"":""run_exp/static/images/task_images/dig.jpg"",""time"":0.3999999761581421},{""stimulus"":""run_exp/static/images/task_images/land.jpg"",""time"":852.6999999880791},{""stimulus"":""run_exp/static/images/task_images/dig.jpg"",""time"":1689.800000011921}]",[],8,,,,,,,,,,,,,,
harvest,174,627836,0.0-52.0-1.0,"""event"",""trial"",""time""
""fullscreenenter"",""1"",""28173""
","
","
","""event"",""trial"",""time""
""fullscreenenter"",""1"",""28173""
","
",,null,run_exp/static/images/task_images/gems/86.jpg,null,,,,,,,72,,,8,,,,,86,0.839755754,0.837209302,,,,,,,
decision,175,628086,0.0-52.0-2.0,"""event"",""trial"",""time""
""fullscreenenter"",""1"",""28173""
","
","
","""event"",""trial"",""time""
""fullscreenenter"",""1"",""28173""
","
",,247.4,run_exp/static/images/task_images/land.jpg,65,,,,,,,72,,,8,,,,,,,,226926,1,1,FALSE,,,
dig,176,630845,0.0-53.0-0.0,"""event"",""trial"",""time""
""fullscreenenter"",""1"",""28173""
","
","
","""event"",""trial"",""time""
""fullscreenenter"",""1"",""28173""
","
",,,,,,,,,,,,"[{""stimulus"":""run_exp/static/images/task_images/dig.jpg"",""time"":0.10000002384185791},{""stimulus"":""run_exp/static/images/task_images/land.jpg"",""time"":926.1000000238419},{""stimulus"":""run_exp/static/images/task_images/dig.jpg"",""time"":1836.4000000357628}]",[],8,,,,,,,,,,,,,,
harvest,177,631853,0.0-53.0-1.0,"""event"",""trial"",""time""
""fullscreenenter"",""1"",""28173""
","
","
","""event"",""trial"",""time""
""fullscreenenter"",""1"",""28173""
","
",,null,run_exp/static/images/task_images/gems/72.jpg,null,,,,,,,53,,,8,,,,,72,0.72937445,0.736111111,,,,,,,
decision,178,632106,0.0-53.0-2.0,"""event"",""trial"",""time""
""fullscreenenter"",""1"",""28173""
","
","
","""event"",""trial"",""time""
""fullscreenenter"",""1"",""28173""
","
",,251.1,run_exp/static/images/task_images/land.jpg,65,,,,,,,53,,,8,,,,,,,,230947,1,2,FALSE,,,
dig,179,634870,0.0-54.0-0.0,"""event"",""trial"",""time""
""fullscreenenter"",""1"",""28173""
","
","
","""event"",""trial"",""time""
""fullscreenenter"",""1"",""28173""
","
",,,,,,,,,,,,"[{""stimulus"":""run_exp/static/images/task_images/dig.jpg"",""time"":0.2999999523162842},{""stimulus"":""run_exp/static/images/task_images/land.jpg"",""time"":925.8999999761581},{""stimulus"":""run_exp/static/images/task_images/dig.jpg"",""time"":1833.699999988079}]",[],8,,,,,,,,,,,,,,
harvest,180,635880,0.0-54.0-1.0,"""event"",""trial"",""time""
""fullscreenenter"",""1"",""28173""
","
","
","""event"",""trial"",""time""
""fullscreenenter"",""1"",""28173""
","
",,null,run_exp/static/images/task_images/gems/53.jpg,null,,,,,,,43,,,8,,,,,53,0.810895107,0.811320755,,,,,,,
decision,181,636089,0.0-54.0-2.0,"""event"",""trial"",""time""
""fullscreenenter"",""1"",""28173""
","
","
","""event"",""trial"",""time""
""fullscreenenter"",""1"",""28173""
","
",,206.6,run_exp/static/images/task_images/land.jpg,65,,,,,,,43,,,8,,,,,,,,234929,1,3,FALSE,,,
dig,182,638892,0.0-55.0-0.0,"""event"",""trial"",""time""
""fullscreenenter"",""1"",""28173""
","
","
","""event"",""trial"",""time""
""fullscreenenter"",""1"",""28173""
","
",,,,,,,,,,,,"[{""stimulus"":""run_exp/static/images/task_images/dig.jpg"",""time"":0.30000001192092896},{""stimulus"":""run_exp/static/images/task_images/land.jpg"",""time"":936.9000000357628},{""stimulus"":""run_exp/static/images/task_images/dig.jpg"",""time"":1871.300000011921}]",[],8,,,,,,,,,,,,,,
harvest,183,639899,0.0-55.0-1.0,"""event"",""trial"",""time""
""fullscreenenter"",""1"",""28173""
","
","
","""event"",""trial"",""time""
""fullscreenenter"",""1"",""28173""
","
",,null,run_exp/static/images/task_images/gems/43.jpg,null,,,,,,,32,,,8,,,,,43,0.736045785,0.744186047,,,,,,,
decision,184,640049,0.0-55.0-2.0,"""event"",""trial"",""time""
""fullscreenenter"",""1"",""28173""
","
","
","""event"",""trial"",""time""
""fullscreenenter"",""1"",""28173""
","
",,147.4,run_exp/static/images/task_images/land.jpg,65,,,,,,,32,,,8,,,,,,,,238890,1,4,FALSE,,,
dig,185,642910,0.0-56.0-0.0,"""event"",""trial"",""time""
""fullscreenenter"",""1"",""28173""
","
","
","""event"",""trial"",""time""
""fullscreenenter"",""1"",""28173""
","
",,,,,,,,,,,,"[{""stimulus"":""run_exp/static/images/task_images/dig.jpg"",""time"":0.19999998807907104},{""stimulus"":""run_exp/static/images/task_images/land.jpg"",""time"":963.1999999880791},{""stimulus"":""run_exp/static/images/task_images/dig.jpg"",""time"":1902.8999999761581}]",[],8,,,,,,,,,,,,,,
harvest,186,643916,0.0-56.0-1.0,"""event"",""trial"",""time""
""fullscreenenter"",""1"",""28173""
","
","
","""event"",""trial"",""time""
""fullscreenenter"",""1"",""28173""
","
",,null,run_exp/static/images/task_images/gems/32.jpg,null,,,,,,,26,,,8,,,,,32,0.800420628,0.8125,,,,,,,
decision,187,644144,0.0-56.0-2.0,"""event"",""trial"",""time""
""fullscreenenter"",""1"",""28173""
","
","
","""event"",""trial"",""time""
""fullscreenenter"",""1"",""28173""
","
",,225.4,run_exp/static/images/task_images/land.jpg,65,,,,,,,26,,,8,,,,,,,,242984,1,5,FALSE,,,
dig,188,646922,0.0-57.0-0.0,"""event"",""trial"",""time""
""fullscreenenter"",""1"",""28173""
","
","
","""event"",""trial"",""time""
""fullscreenenter"",""1"",""28173""
","
",,,,,,,,,,,,"[{""stimulus"":""run_exp/static/images/task_images/dig.jpg"",""time"":0.20000004768371582},{""stimulus"":""run_exp/static/images/task_images/land.jpg"",""time"":926.7000000476837},{""stimulus"":""run_exp/static/images/task_images/dig.jpg"",""time"":1851.300000011921}]",[],8,,,,,,,,,,,,,,
harvest,189,647935,0.0-57.0-1.0,"""event"",""trial"",""time""
""fullscreenenter"",""1"",""28173""
","
","
","""event"",""trial"",""time""
""fullscreenenter"",""1"",""28173""
","
",,null,run_exp/static/images/task_images/gems/26.jpg,null,,,,,,,19,,,8,,,,,26,0.740479725,0.730769231,,,,,,,
decision,190,648706,0.0-57.0-2.0,"""event"",""trial"",""time""
""fullscreenenter"",""1"",""28173""
","
","
","""event"",""trial"",""time""
""fullscreenenter"",""1"",""28173""
","
",,768.7,run_exp/static/images/task_images/land.jpg,76,,,,,,,19,,,8,,,,,,,,247547,1,6,TRUE,,,
travel,191,657940,0.0-58.0-0.0,"""event"",""trial"",""time""
""fullscreenenter"",""1"",""28173""
","
","
","""event"",""trial"",""time""
""fullscreenenter"",""1"",""28173""
","
",,,,,,,,,,,,"[{""stimulus"":""run_exp/static/images/task_images/rocket-01.jpg"",""time"":0.5},{""stimulus"":""run_exp/static/images/task_images/rocket-02.jpg"",""time"":1028.8999999761581},{""stimulus"":""run_exp/static/images/task_images/rocket-03.jpg"",""time"":2056.099999964237},{""stimulus"":""run_exp/static/images/task_images/rocket-04.jpg"",""time"":3077.699999988079},{""stimulus"":""run_exp/static/images/task_images/rocket-05.jpg"",""time"":4108.5},{""stimulus"":""run_exp/static/images/task_images/rocket-06.jpg"",""time"":5126.699999988079},{""stimulus"":""run_exp/static/images/task_images/rocket-07.jpg"",""time"":6159.199999988079},{""stimulus"":""run_exp/static/images/task_images/rocket-08.jpg"",""time"":7182.399999976158},{""stimulus"":""run_exp/static/images/task_images/rocket-09.jpg"",""time"":8207}]",[],8,,,,,,,,,,,,,,
alien_welcome,192,662949,0.0-58.0-1.0,"""event"",""trial"",""time""
""fullscreenenter"",""1"",""28173""
","
","
","""event"",""trial"",""time""
""fullscreenenter"",""1"",""28173""
","
",,null,run_exp/static/images/task_images/aliens/old_aliens/planet/alien_planet-1.jpg,null,,,,,,,,,,,,,1,"58,44,19,53,27,21,29,63,1,39,7,11,68,33,54,9,10,20,60,59,69,56,37,6,15,80,5,77,32,75,28,36,46,73,51,22,50",,,,,,,,,,
land,193,663463,0.0-58.0-2.0,"""event"",""trial"",""time""
""fullscreenenter"",""1"",""28173""
","
","
","""event"",""trial"",""time""
""fullscreenenter"",""1"",""28173""
","
",,null,run_exp/static/images/task_images/land.jpg,null,,,,,,,100,,,9,,,,,,,,,,,,,,
dig,194,665470,0.0-58.0-3.0,"""event"",""trial"",""time""
""fullscreenenter"",""1"",""28173""
","
","
","""event"",""trial"",""time""
""fullscreenenter"",""1"",""28173""
","
",,,,,,,,,,,,"[{""stimulus"":""run_exp/static/images/task_images/dig.jpg"",""time"":0.6000000238418579},{""stimulus"":""run_exp/static/images/task_images/land.jpg"",""time"":671.1000000238419},{""stimulus"":""run_exp/static/images/task_images/dig.jpg"",""time"":1337.6000000238419}]",[],9,,,,,,,,,,,,,,
harvest,195,666477,0.0-58.0-4.0,"""event"",""trial"",""time""
""fullscreenenter"",""1"",""28173""
","
","
","""event"",""trial"",""time""
""fullscreenenter"",""1"",""28173""
","
",,null,run_exp/static/images/task_images/gems/100.jpg,null,,,,,,,28,,,9,,,,,100,0.276294651,0.28,,,,,,,
decision,196,666858,0.0-58.0-5.0,"""event"",""trial"",""time""
""fullscreenenter"",""1"",""28173""
","
","
","""event"",""trial"",""time""
""fullscreenenter"",""1"",""28173""
","
",,378.8,run_exp/static/images/task_images/land.jpg,65,,,,,,,28,,,9,,,,,,,,265698,1,0,FALSE,,,
dig,197,669486,0.0-59.0-0.0,"""event"",""trial"",""time""
""fullscreenenter"",""1"",""28173""
","
","
","""event"",""trial"",""time""
""fullscreenenter"",""1"",""28173""
","
",,,,,,,,,,,,"[{""stimulus"":""run_exp/static/images/task_images/dig.jpg"",""time"":0.10000002384185791},{""stimulus"":""run_exp/static/images/task_images/land.jpg"",""time"":877},{""stimulus"":""run_exp/static/images/task_images/dig.jpg"",""time"":1751.300000011921}]",[],9,,,,,,,,,,,,,,
harvest,198,670494,0.0-59.0-1.0,"""event"",""trial"",""time""
""fullscreenenter"",""1"",""28173""
","
","
","""event"",""trial"",""time""
""fullscreenenter"",""1"",""28173""
","
",,null,run_exp/static/images/task_images/gems/28.jpg,null,,,,,,,3,,,9,,,,,28,0.122621591,0.107142857,,,,,,,
decision,199,670983,0.0-59.0-2.0,"""event"",""trial"",""time""
""fullscreenenter"",""1"",""28173""
","
","
","""event"",""trial"",""time""
""fullscreenenter"",""1"",""28173""
","
",,486.5,run_exp/static/images/task_images/land.jpg,76,,,,,,,3,,,9,,,,,,,,269823,1,1,TRUE,,,
travel,200,680503,0.0-60.0-0.0,"""event"",""trial"",""time""
""fullscreenenter"",""1"",""28173""
","
","
","""event"",""trial"",""time""
""fullscreenenter"",""1"",""28173""
","
",,,,,,,,,,,,"[{""stimulus"":""run_exp/static/images/task_images/rocket-01.jpg"",""time"":0.19999998807907104},{""stimulus"":""run_exp/static/images/task_images/rocket-02.jpg"",""time"":1063.5},{""stimulus"":""run_exp/static/images/task_images/rocket-03.jpg"",""time"":2121.7999999523163},{""stimulus"":""run_exp/static/images/task_images/rocket-04.jpg"",""time"":3177.5},{""stimulus"":""run_exp/static/images/task_images/rocket-05.jpg"",""time"":4229.899999976158},{""stimulus"":""run_exp/static/images/task_images/rocket-06.jpg"",""time"":5294.299999952316},{""stimulus"":""run_exp/static/images/task_images/rocket-07.jpg"",""time"":6346},{""stimulus"":""run_exp/static/images/task_images/rocket-08.jpg"",""time"":7406.299999952316},{""stimulus"":""run_exp/static/images/task_images/rocket-09.jpg"",""time"":8462.899999976158}]",[],9,,,,,,,,,,,,,,
alien_welcome,201,685508,0.0-60.0-1.0,"""event"",""trial"",""time""
""fullscreenenter"",""1"",""28173""
","
","
","""event"",""trial"",""time""
""fullscreenenter"",""1"",""28173""
","
",,null,run_exp/static/images/task_images/aliens/old_aliens/planet/alien_planet-39.jpg,null,,,,,,,,,,,,,39,"58,44,19,53,27,21,29,63,1,39,7,11,68,33,54,9,10,20,60,59,69,56,37,6,15,80,5,77,32,75,28,36,46,73,51,22,50",,,,,,,,,,
land,202,686019,0.0-60.0-2.0,"""event"",""trial"",""time""
""fullscreenenter"",""1"",""28173""
","
","
","""event"",""trial"",""time""
""fullscreenenter"",""1"",""28173""
","
",,null,run_exp/static/images/task_images/land.jpg,null,,,,,,,97,,,10,,,,,,,,,,,,,,
dig,203,688029,0.0-60.0-3.0,"""event"",""trial"",""time""
""fullscreenenter"",""1"",""28173""
","
","
","""event"",""trial"",""time""
""fullscreenenter"",""1"",""28173""
","
",,,,,,,,,,,,"[{""stimulus"":""run_exp/static/images/task_images/dig.jpg"",""time"":0.40000003576278687},{""stimulus"":""run_exp/static/images/task_images/land.jpg"",""time"":673.6000000238419},{""stimulus"":""run_exp/static/images/task_images/dig.jpg"",""time"":1341.6000000238419}]",[],10,,,,,,,,,,,,,,
harvest,204,689036,0.0-60.0-4.0,"""event"",""trial"",""time""
""fullscreenenter"",""1"",""28173""
","
","
","""event"",""trial"",""time""
""fullscreenenter"",""1"",""28173""
","
",,null,run_exp/static/images/task_images/gems/97.jpg,null,,,,,,,22,,,10,,,,,97,0.225013027,0.226804124,,,,,,,
decision,205,689765,0.0-60.0-5.0,"""event"",""trial"",""time""
""fullscreenenter"",""1"",""28173""
","
","
","""event"",""trial"",""time""
""fullscreenenter"",""1"",""28173""
","
",,726.1,run_exp/static/images/task_images/land.jpg,65,,,,,,,22,,,10,,,,,,,,288605,1,0,FALSE,,,
dig,206,692044,0.0-61.0-0.0,"""event"",""trial"",""time""
""fullscreenenter"",""1"",""28173""
","
","
","""event"",""trial"",""time""
""fullscreenenter"",""1"",""28173""
","
",,,,,,,,,,,,"[{""stimulus"":""run_exp/static/images/task_images/dig.jpg"",""time"":0.09999996423721313},{""stimulus"":""run_exp/static/images/task_images/land.jpg"",""time"":762.5999999642372},{""stimulus"":""run_exp/static/images/task_images/dig.jpg"",""time"":1517.3999999761581}]",[],10,,,,,,,,,,,,,,
harvest,207,693052,0.0-61.0-1.0,"""event"",""trial"",""time""
""fullscreenenter"",""1"",""28173""
","
","
","""event"",""trial"",""time""
""fullscreenenter"",""1"",""28173""
","
",,null,run_exp/static/images/task_images/gems/22.jpg,null,,,,,,,5,,,10,,,,,22,0.238772549,0.227272727,,,,,,,
decision,208,693284,0.0-61.0-2.0,"""event"",""trial"",""time""
""fullscreenenter"",""1"",""28173""
","
","
","""event"",""trial"",""time""
""fullscreenenter"",""1"",""28173""
","
",,228.9,run_exp/static/images/task_images/land.jpg,76,,,,,,,5,,,10,,,,,,,,292124,1,1,TRUE,,,
travel,209,703061,0.0-62.0-0.0,"""event"",""trial"",""time""
""fullscreenenter"",""1"",""28173""
","
","
","""event"",""trial"",""time""
""fullscreenenter"",""1"",""28173""
","
",,,,,,,,,,,,"[{""stimulus"":""run_exp/static/images/task_images/rocket-01.jpg"",""time"":0.09999996423721313},{""stimulus"":""run_exp/static/images/task_images/rocket-02.jpg"",""time"":1094.8999999761581},{""stimulus"":""run_exp/static/images/task_images/rocket-03.jpg"",""time"":2179.899999976158},{""stimulus"":""run_exp/static/images/task_images/rocket-04.jpg"",""time"":3261.599999964237},{""stimulus"":""run_exp/static/images/task_images/rocket-05.jpg"",""time"":4346.800000011921},{""stimulus"":""run_exp/static/images/task_images/rocket-06.jpg"",""time"":5432.399999976158},{""stimulus"":""run_exp/static/images/task_images/rocket-07.jpg"",""time"":6515.199999988079},{""stimulus"":""run_exp/static/images/task_images/rocket-08.jpg"",""time"":7599.399999976158},{""stimulus"":""run_exp/static/images/task_images/rocket-09.jpg"",""time"":8682.399999976158}]",[],10,,,,,,,,,,,,,,
alien_welcome,210,708066,0.0-62.0-1.0,"""event"",""trial"",""time""
""fullscreenenter"",""1"",""28173""
","
","
","""event"",""trial"",""time""
""fullscreenenter"",""1"",""28173""
","
",,null,run_exp/static/images/task_images/aliens/old_aliens/planet/alien_planet-7.jpg,null,,,,,,,,,,,,,7,"58,44,19,53,27,21,29,63,1,39,7,11,68,33,54,9,10,20,60,59,69,56,37,6,15,80,5,77,32,75,28,36,46,73,51,22,50",,,,,,,,,,
land,211,708573,0.0-62.0-2.0,"""event"",""trial"",""time""
""fullscreenenter"",""1"",""28173""
","
","
","""event"",""trial"",""time""
""fullscreenenter"",""1"",""28173""
","
",,null,run_exp/static/images/task_images/land.jpg,null,,,,,,,101,,,11,,,,,,,,,,,,,,
dig,212,710586,0.0-62.0-3.0,"""event"",""trial"",""time""
""fullscreenenter"",""1"",""28173""
","
","
","""event"",""trial"",""time""
""fullscreenenter"",""1"",""28173""
","
",,,,,,,,,,,,"[{""stimulus"":""run_exp/static/images/task_images/dig.jpg"",""time"":0.3999999761581421},{""stimulus"":""run_exp/static/images/task_images/land.jpg"",""time"":677.3000000119209},{""stimulus"":""run_exp/static/images/task_images/dig.jpg"",""time"":1341.199999988079}]",[],11,,,,,,,,,,,,,,
harvest,213,711594,0.0-62.0-4.0,"""event"",""trial"",""time""
""fullscreenenter"",""1"",""28173""
","
","
","""event"",""trial"",""time""
""fullscreenenter"",""1"",""28173""
","
",,null,run_exp/static/images/task_images/gems/101.jpg,null,,,,,,,26,,,11,,,,,101,0.254729087,0.257425743,,,,,,,
decision,214,712011,0.0-62.0-5.0,"""event"",""trial"",""time""
""fullscreenenter"",""1"",""28173""
","
","
","""event"",""trial"",""time""
""fullscreenenter"",""1"",""28173""
","
",,414.7,run_exp/static/images/task_images/land.jpg,65,,,,,,,26,,,11,,,,,,,,310851,1,0,TRUE,,,
end_of_block_continue,215,720871,0.0-63.0-0.0,"""event"",""trial"",""time""
""fullscreenenter"",""1"",""28173""
","
","
","""event"",""trial"",""time""
""fullscreenenter"",""1"",""28173""
","
",,null,run_exp/static/audio/clip_32_block_end.m4a,,,,,,,null,,,,,,,,,,,,,,,,,,
alien_welcome,216,725881,0.0-64.0-0.0,"""event"",""trial"",""time""
""fullscreenenter"",""1"",""28173""
","
","
","""event"",""trial"",""time""
""fullscreenenter"",""1"",""28173""
","
",,null,run_exp/static/images/task_images/aliens/old_aliens/planet/alien_planet-11.jpg,null,,,,,,,,,,,,,11,"58,44,19,53,27,21,29,63,1,39,7,11,68,33,54,9,10,20,60,59,69,56,37,6,15,80,5,77,32,75,28,36,46,73,51,22,50",,,,,,,,,,
land,217,726385,0.0-64.0-1.0,"""event"",""trial"",""time""
""fullscreenenter"",""1"",""28173""
","
","
","""event"",""trial"",""time""
""fullscreenenter"",""1"",""28173""
","
",,null,run_exp/static/images/task_images/land.jpg,null,,,,,,,103,,,12,,,,,,,,,,,,,,
dig,218,728397,0.0-64.0-2.0,"""event"",""trial"",""time""
""fullscreenenter"",""1"",""28173""
","
","
","""event"",""trial"",""time""
""fullscreenenter"",""1"",""28173""
","
",,,,,,,,,,,,"[{""stimulus"":""run_exp/static/images/task_images/dig.jpg"",""time"":0.3999999761581421},{""stimulus"":""run_exp/static/images/task_images/land.jpg"",""time"":669.8999999761581},{""stimulus"":""run_exp/static/images/task_images/dig.jpg"",""time"":1343.1000000238419}]",[],12,,,,,,,,,,,,,,
harvest,219,729402,0.0-64.0-3.0,"""event"",""trial"",""time""
""fullscreenenter"",""1"",""28173""
","
","
","""event"",""trial"",""time""
""fullscreenenter"",""1"",""28173""
","
",,null,run_exp/static/images/task_images/gems/103.jpg,null,,,,,,,15,,,12,,,,,103,0.147322688,0.145631068,,,,,,,
decision,220,729711,0.0-64.0-4.0,"""event"",""trial"",""time""
""fullscreenenter"",""1"",""28173""
","
","
","""event"",""trial"",""time""
""fullscreenenter"",""1"",""28173""
","
",,306.7,run_exp/static/images/task_images/land.jpg,65,,,,,,,15,,,12,,,,,,,,8833,2,0,FALSE,,,
dig,221,732412,0.0-65.0-0.0,"""event"",""trial"",""time""
""fullscreenenter"",""1"",""28173""
","
","
","""event"",""trial"",""time""
""fullscreenenter"",""1"",""28173""
","
",,,,,,,,,,,,"[{""stimulus"":""run_exp/static/images/task_images/dig.jpg"",""time"":0.09999996423721313},{""stimulus"":""run_exp/static/images/task_images/land.jpg"",""time"":902.2999999523163},{""stimulus"":""run_exp/static/images/task_images/dig.jpg"",""time"":1800.5}]",[],12,,,,,,,,,,,,,,
harvest,222,733418,0.0-65.0-1.0,"""event"",""trial"",""time""
""fullscreenenter"",""1"",""28173""
","
","
","""event"",""trial"",""time""
""fullscreenenter"",""1"",""28173""
","
",,null,run_exp/static/images/task_images/gems/15.jpg,null,,,,,,,3,,,12,,,,,15,0.224730031,0.2,,,,,,,
decision,223,733664,0.0-65.0-2.0,"""event"",""trial"",""time""
""fullscreenenter"",""1"",""28173""
","
","
","""event"",""trial"",""time""
""fullscreenenter"",""1"",""28173""
","
",,243.7,run_exp/static/images/task_images/land.jpg,76,,,,,,,3,,,12,,,,,,,,12786,2,1,TRUE,,,
travel,224,743432,0.0-66.0-0.0,"""event"",""trial"",""time""
""fullscreenenter"",""1"",""28173""
","
","
","""event"",""trial"",""time""
""fullscreenenter"",""1"",""28173""
","
",,,,,,,,,,,,"[{""stimulus"":""run_exp/static/images/task_images/rocket-01.jpg"",""time"":0.30000001192092896},{""stimulus"":""run_exp/static/images/task_images/rocket-02.jpg"",""time"":1091.3999999761581},{""stimulus"":""run_exp/static/images/task_images/rocket-03.jpg"",""time"":2173.199999988079},{""stimulus"":""run_exp/static/images/task_images/rocket-04.jpg"",""time"":3261.399999976158},{""stimulus"":""run_exp/static/images/task_images/rocket-05.jpg"",""time"":4341.199999988079},{""stimulus"":""run_exp/static/images/task_images/rocket-06.jpg"",""time"":5428.399999976158},{""stimulus"":""run_exp/static/images/task_images/rocket-07.jpg"",""time"":6506.899999976158},{""stimulus"":""run_exp/static/images/task_images/rocket-08.jpg"",""time"":7597.199999988079},{""stimulus"":""run_exp/static/images/task_images/rocket-09.jpg"",""time"":8678.599999964237}]",[],12,,,,,,,,,,,,,,
alien_welcome,225,748436,0.0-66.0-1.0,"""event"",""trial"",""time""
""fullscreenenter"",""1"",""28173""
","
","
","""event"",""trial"",""time""
""fullscreenenter"",""1"",""28173""
","
",,null,run_exp/static/images/task_images/aliens/old_aliens/planet/alien_planet-68.jpg,null,,,,,,,,,,,,,68,"58,44,19,53,27,21,29,63,1,39,7,11,68,33,54,9,10,20,60,59,69,56,37,6,15,80,5,77,32,75,28,36,46,73,51,22,50",,,,,,,,,,
land,226,748945,0.0-66.0-2.0,"""event"",""trial"",""time""
""fullscreenenter"",""1"",""28173""
","
","
","""event"",""trial"",""time""
""fullscreenenter"",""1"",""28173""
","
",,null,run_exp/static/images/task_images/land.jpg,null,,,,,,,95,,,13,,,,,,,,,,,,,,
dig,227,750952,0.0-66.0-3.0,"""event"",""trial"",""time""
""fullscreenenter"",""1"",""28173""
","
","
","""event"",""trial"",""time""
""fullscreenenter"",""1"",""28173""
","
",,,,,,,,,,,,"[{""stimulus"":""run_exp/static/images/task_images/dig.jpg"",""time"":0.40000003576278687},{""stimulus"":""run_exp/static/images/task_images/land.jpg"",""time"":669.1999999880791},{""stimulus"":""run_exp/static/images/task_images/dig.jpg"",""time"":1339.699999988079}]",[],13,,,,,,,,,,,,,,
harvest,228,751961,0.0-66.0-4.0,"""event"",""trial"",""time""
""fullscreenenter"",""1"",""28173""
","
","
","""event"",""trial"",""time""
""fullscreenenter"",""1"",""28173""
","
",,null,run_exp/static/images/task_images/gems/95.jpg,null,,,,,,,26,,,13,,,,,95,0.272615261,0.273684211,,,,,,,
decision,229,752387,0.0-66.0-5.0,"""event"",""trial"",""time""
""fullscreenenter"",""1"",""28173""
","
","
","""event"",""trial"",""time""
""fullscreenenter"",""1"",""28173""
","
",,423.4,run_exp/static/images/task_images/land.jpg,65,,,,,,,26,,,13,,,,,,,,31509,2,0,FALSE,,,
dig,230,754970,0.0-67.0-0.0,"""event"",""trial"",""time""
""fullscreenenter"",""1"",""28173""
","
","
","""event"",""trial"",""time""
""fullscreenenter"",""1"",""28173""
","
",,,,,,,,,,,,"[{""stimulus"":""run_exp/static/images/task_images/dig.jpg"",""time"":0},{""stimulus"":""run_exp/static/images/task_images/land.jpg"",""time"":859.4000000357628},{""stimulus"":""run_exp/static/images/task_images/dig.jpg"",""time"":1724.4000000357628}]",[],13,,,,,,,,,,,,,,
harvest,231,755977,0.0-67.0-1.0,"""event"",""trial"",""time""
""fullscreenenter"",""1"",""28173""
","
","
","""event"",""trial"",""time""
""fullscreenenter"",""1"",""28173""
","
",,null,run_exp/static/images/task_images/gems/26.jpg,null,,,,,,,6,,,13,,,,,26,0.226420776,0.230769231,,,,,,,
decision,232,756065,0.0-67.0-2.0,"""event"",""trial"",""time""
""fullscreenenter"",""1"",""28173""
","
","
","""event"",""trial"",""time""
""fullscreenenter"",""1"",""28173""
","
",,85,run_exp/static/images/task_images/land.jpg,65,,,,,,,6,,,13,,,,,,,,35187,2,1,FALSE,,,
dig,233,758985,0.0-68.0-0.0,"""event"",""trial"",""time""
""fullscreenenter"",""1"",""28173""
","
","
","""event"",""trial"",""time""
""fullscreenenter"",""1"",""28173""
","
",,,,,,,,,,,,"[{""stimulus"":""run_exp/static/images/task_images/dig.jpg"",""time"":0.09999996423721313},{""stimulus"":""run_exp/static/images/task_images/land.jpg"",""time"":981.5999999642372},{""stimulus"":""run_exp/static/images/task_images/dig.jpg"",""time"":1947.5999999642372}]",[],13,,,,,,,,,,,,,,
harvest,234,759992,0.0-68.0-1.0,"""event"",""trial"",""time""
""fullscreenenter"",""1"",""28173""
","
","
","""event"",""trial"",""time""
""fullscreenenter"",""1"",""28173""
","
",,null,run_exp/static/images/task_images/gems/6.jpg,null,,,,,,,1,,,13,,,,,6,0.141582105,0.166666667,,,,,,,
decision,235,762077,0.0-68.0-2.0,"""event"",""trial"",""time""
""fullscreenenter"",""1"",""28173""
","
","
","""event"",""trial"",""time""
""fullscreenenter"",""1"",""28173""
","
",,2082.9,run_exp/static/images/task_images/land.jpg,76,,,,,,,1,,,13,,,,,,,,41199,2,2,TRUE,,,
travel,236,770003,0.0-69.0-0.0,"""event"",""trial"",""time""
""fullscreenenter"",""1"",""28173""
","
","
","""event"",""trial"",""time""
""fullscreenenter"",""1"",""28173""
","
",,,,,,,,,,,,"[{""stimulus"":""run_exp/static/images/task_images/rocket-01.jpg"",""time"":0.19999998807907104},{""stimulus"":""run_exp/static/images/task_images/rocket-02.jpg"",""time"":884.5999999642372},{""stimulus"":""run_exp/static/images/task_images/rocket-03.jpg"",""time"":1770.699999988079},{""stimulus"":""run_exp/static/images/task_images/rocket-04.jpg"",""time"":2648.7999999523163},{""stimulus"":""run_exp/static/images/task_images/rocket-05.jpg"",""time"":3519.399999976158},{""stimulus"":""run_exp/static/images/task_images/rocket-06.jpg"",""time"":4401.5},{""stimulus"":""run_exp/static/images/task_images/rocket-07.jpg"",""time"":5278.299999952316},{""stimulus"":""run_exp/static/images/task_images/rocket-08.jpg"",""time"":6158.899999976158},{""stimulus"":""run_exp/static/images/task_images/rocket-09.jpg"",""time"":7037.899999976158}]",[],13,,,,,,,,,,,,,,
alien_welcome,237,775011,0.0-69.0-1.0,"""event"",""trial"",""time""
""fullscreenenter"",""1"",""28173""
","
","
","""event"",""trial"",""time""
""fullscreenenter"",""1"",""28173""
","
",,null,run_exp/static/images/task_images/aliens/old_aliens/planet/alien_planet-33.jpg,null,,,,,,,,,,,,,33,"58,44,19,53,27,21,29,63,1,39,7,11,68,33,54,9,10,20,60,59,69,56,37,6,15,80,5,77,32,75,28,36,46,73,51,22,50",,,,,,,,,,
land,238,775519,0.0-69.0-2.0,"""event"",""trial"",""time""
""fullscreenenter"",""1"",""28173""
","
","
","""event"",""trial"",""time""
""fullscreenenter"",""1"",""28173""
","
",,null,run_exp/static/images/task_images/land.jpg,null,,,,,,,105,,,14,,,,,,,,,,,,,,
dig,239,777531,0.0-69.0-3.0,"""event"",""trial"",""time""
""fullscreenenter"",""1"",""28173""
","
","
","""event"",""trial"",""time""
""fullscreenenter"",""1"",""28173""
","
",,,,,,,,,,,,"[{""stimulus"":""run_exp/static/images/task_images/dig.jpg"",""time"":0.5},{""stimulus"":""run_exp/static/images/task_images/land.jpg"",""time"":673.9000000357628},{""stimulus"":""run_exp/static/images/task_images/dig.jpg"",""time"":1343.699999988079}]",[],14,,,,,,,,,,,,,,
harvest,240,778536,0.0-69.0-4.0,"""event"",""trial"",""time""
""fullscreenenter"",""1"",""28173""
","
","
