trial_type,trial_index,time_elapsed,internal_node_id,interactions,blur_events,focus_events,fullscreenenter_events,fullscreenexit_events,success,rt,stimulus,key_press,prompt,subject_id,participant_id,age,gender,button_pressed,next_reward,animation_sequence,responses,planet,curr_prac_trial,n_prac_rounds,alien,aliens,reward_received,decay_rate_actual,decay_rate_exp,time_in_block,block_num,prt,last_trial_on_planet,button_html,bonus,num_failures
pavlovia,0,3,0.0-0.0,"""event"",""trial"",""time""
""fullscreenenter"",""1"",""3617""
","
","
","""event"",""trial"",""time""
""fullscreenenter"",""1"",""3617""
","
",,,,,,,,,,,,,,,,,,,,,,,,,,,,
fullscreen,1,4565,0.0-1.0,"""event"",""trial"",""time""
""fullscreenenter"",""1"",""3617""
","
","
","""event"",""trial"",""time""
""fullscreenenter"",""1"",""3617""
","
",TRUE,,,,,,,,,,,,,,,,,,,,,,,,,,,
instruc_welcome,2,14399,0.0-2.0,"""event"",""trial"",""time""
""fullscreenenter"",""1"",""3617""
","
","
","""event"",""trial"",""time""
""fullscreenenter"",""1"",""3617""
","
",,null,run_exp/static/audio/clip_1_welcome.m4a,null,"<p>Howdy! In this experiment, you’ll be an explorer traveling through space to collect space treasure.</p><p>Your mission is to collect as much treasure as possible.</p><br><br><p><img src='run_exp/static/images/task_images/opening_img-01.jpg' height='300' width='auto'></p>",9194,4164,25.75,Male,,,,,,,,,,,,,,,,,,,
audio-keyboard-response,3,31017,0.0-3.0,"""event"",""trial"",""time""
""fullscreenenter"",""1"",""3617""
","
","
","""event"",""trial"",""time""
""fullscreenenter"",""1"",""3617""
","
",,null,run_exp/static/audio/clip_2_move.m4a,null,,,,,,,,,,,,,,,,,,,,,,,,
welcome_dec,4,31211,0.0-4.0,"""event"",""trial"",""time""
""fullscreenenter"",""1"",""3617""
","
","
","""event"",""trial"",""time""
""fullscreenenter"",""1"",""3617""
","
",,191,"<p>Howdy! In this experiment, you’ll be an explorer traveling through space to collect space treasure.</p><p>Your mission is to collect as much treasure as possible.</p><br><br><p><img src='run_exp/static/images/task_images/opening_img-01.jpg' height='300' width='auto'></p>",,,,,,,1,,,,,,,,,,,,,,,,,,
html-keyboard-response,5,39378,0.0-5.0,"""event"",""trial"",""time""
""fullscreenenter"",""1"",""3617""
","
","
","""event"",""trial"",""time""
""fullscreenenter"",""1"",""3617""
","
",,8163.7,"<p>Howdy! In this experiment, you’ll be an explorer traveling through space to collect space treasure.</p><p>Your mission is to collect as much treasure as possible.</p><br><br><p><img src='run_exp/static/images/task_images/opening_img-01.jpg' height='300' width='auto'></p><button class=""jspsych-html-btn-unchosen""><img src=""run_exp/static/images/task_images/planet-01.jpg"" height=""50""></button><button class=""jspsych-html-btn-chosen""><img src=""run_exp/static/images/task_images/planet-02.jpg"" height=""50""></button><p><b>[press the space bar to lock in your answer]<b><br></p>",32,,,,,,,,,,,,,,,,,,,,,,,,
instruc_goal,6,49480,0.0-6.0-0.0,"""event"",""trial"",""time""
""fullscreenenter"",""1"",""3617""
","
","
","""event"",""trial"",""time""
""fullscreenenter"",""1"",""3617""
","
",,null,run_exp/static/audio/clip_3_goal.m4a,null,"<p> As a space explorer, you’ll visit different planets to dig for space treasure, these pink gems.</p> <p> The more treasure you dig up, the more bonus money you’ll win! </p><br><br><p><img src='run_exp/static/images/task_images/pink_gem.jpg' height='300' width='auto'></p>",,,,,,,,,,,,,,,,,,,,,,,
instruc_goal,7,57634,0.0-6.0-1.0,"""event"",""trial"",""time""
""fullscreenenter"",""1"",""3617""
","
","
","""event"",""trial"",""time""
""fullscreenenter"",""1"",""3617""
","
",,8144.5,"<p> As a space explorer, you’ll visit different planets to dig for space treasure, these pink gems.</p> <p> The more treasure you dig up, the more bonus money you’ll win! </p><br><br><p><img src='run_exp/static/images/task_images/pink_gem.jpg' height='300' width='auto'></p>",,,,,,,1,,,,,,,,,,,,,,,,,,
html-keyboard-response,8,59162,0.0-6.0-2.0,"""event"",""trial"",""time""
""fullscreenenter"",""1"",""3617""
","
","
","""event"",""trial"",""time""
""fullscreenenter"",""1"",""3617""
","
",,1527.2,"<p> As a space explorer, you’ll visit different planets to dig for space treasure, these pink gems.</p> <p> The more treasure you dig up, the more bonus money you’ll win! </p><br><br><p><img src='run_exp/static/images/task_images/pink_gem.jpg' height='300' width='auto'></p><button class=""jspsych-html-btn-unchosen""><img src=""run_exp/static/images/task_images/planet-01.jpg"" height=""50""></button><button class=""jspsych-html-btn-chosen""><img src=""run_exp/static/images/task_images/planet-02.jpg"" height=""50""></button><p><b>[press the space bar to lock in your answer]<b><br></p>",32,,,,,,,,,,,,,,,,,,,,,,,,
instruc_dig,9,75185,0.0-7.0-0.0,"""event"",""trial"",""time""
""fullscreenenter"",""1"",""3617""
","
","
","""event"",""trial"",""time""
""fullscreenenter"",""1"",""3617""
","
",,null,run_exp/static/audio/clip_4_dig.m4a,null,,,,,,,100,,,,,,,,,,,,,,,,,
instruc_dig_try,10,75638,0.0-7.0-1.0,"""event"",""trial"",""time""
""fullscreenenter"",""1"",""3617""
","
","
","""event"",""trial"",""time""
""fullscreenenter"",""1"",""3617""
","
",,447.2,"<p> When you’ve arrived at a new planet, you will dig once. </p> <p>Then, you get to decide if you want to stay on the planet and dig again or travel to a new planet and dig there.</p> <p> To stay and dig, press the letter <strong>‘A’</strong> on your keyboard. Try pressing it now! </p><p><img src='run_exp/static/images/task_images/land.jpg'  height='700' width='auto'></p>",65,"<p> When you’ve arrived at a new planet, you will dig once. </p> <p>Then, you get to decide if you want to stay on the planet and dig again or travel to a new planet and dig there.</p> <p> To stay and dig, press the letter <strong>‘A’</strong> on your keyboard. Try pressing it now! </p><p><img src='run_exp/static/images/task_images/land.jpg'  height='700' width='auto'></p>",,,,,,100,,,,,,,,,,,,,,,,,
dig_prac,11,77653,0.0-7.0-2.0,"""event"",""trial"",""time""
""fullscreenenter"",""1"",""3617""
","
","
","""event"",""trial"",""time""
""fullscreenenter"",""1"",""3617""
","
",,,,,,,,,,,,"[{""stimulus"":""run_exp/static/images/task_images/dig.jpg"",""time"":0.2999999523162842},{""stimulus"":""run_exp/static/images/task_images/land.jpg"",""time"":682.5},{""stimulus"":""run_exp/static/images/task_images/dig.jpg"",""time"":1339.1000000238419}]",[],,,,,,,,,,,,,,,
instruc_travel,12,113927,0.0-7.0-3.0,"""event"",""trial"",""time""
""fullscreenenter"",""1"",""3617""
","
","
","""event"",""trial"",""time""
""fullscreenenter"",""1"",""3617""
","
",,null,run_exp/static/audio/clip_5_travel.m4a,null,"<p>Every time you dig up gems, there are less gems on the planet, so the more you dig on a planet the fewer gems you’ll get with each dig.</p><p>When gems are running low, you may want to travel to a new planet. </p> <p>  Planets are very far apart in this galaxy, so it will take some time to travel between them. </p> <br><p>There are lots and lots of planets for you to visit, so you won’t be able to return to any planets you’ve seen before. </p><br><p>To leave this planet and travel to a new one, press the letter <strong>‘L’</strong> on your keyboard. Try pressing it now! </p><p><img src='run_exp/static/images/task_images/rocket-01.jpg'  height='600' width='auto'></p>",,,,,,,,,,,,,,,,,,,,,,,
instruc_travel_try,13,117118,0.0-7.0-4.0,"""event"",""trial"",""time""
""fullscreenenter"",""1"",""3617""
","
","
","""event"",""trial"",""time""
""fullscreenenter"",""1"",""3617""
","
",,3187.3,"<p>Every time you dig up gems, there are less gems on the planet, so the more you dig on a planet the fewer gems you’ll get with each dig.</p><p>When gems are running low, you may want to travel to a new planet. </p> <p>  Planets are very far apart in this galaxy, so it will take some time to travel between them. </p> <br><p>There are lots and lots of planets for you to visit, so you won’t be able to return to any planets you’ve seen before. </p><br><p>To leave this planet and travel to a new one, press the letter <strong>‘L’</strong> on your keyboard. Try pressing it now! </p><p><img src='run_exp/static/images/task_images/rocket-01.jpg'  height='600' width='auto'></p>",76,"<p>Every time you dig up gems, there are less gems on the planet, so the more you dig on a planet the fewer gems you’ll get with each dig.</p><p>When gems are running low, you may want to travel to a new planet. </p> <p>  Planets are very far apart in this galaxy, so it will take some time to travel between them. </p> <br><p>There are lots and lots of planets for you to visit, so you won’t be able to return to any planets you’ve seen before. </p><br><p>To leave this planet and travel to a new one, press the letter <strong>‘L’</strong> on your keyboard. Try pressing it now! </p><p><img src='run_exp/static/images/task_images/rocket-01.jpg'  height='600' width='auto'></p>",,,,,,,,,,,,,,,,,,,,,,,
travel_prac,14,127126,0.0-7.0-5.0,"""event"",""trial"",""time""
""fullscreenenter"",""1"",""3617""
","
","
","""event"",""trial"",""time""
""fullscreenenter"",""1"",""3617""
","
",,,,,,,,,,,,"[{""stimulus"":""run_exp/static/images/task_images/rocket-01.jpg"",""time"":0.6000000238418579},{""stimulus"":""run_exp/static/images/task_images/rocket-02.jpg"",""time"":1119.6000000238419},{""stimulus"":""run_exp/static/images/task_images/rocket-03.jpg"",""time"":2229.899999976158},{""stimulus"":""run_exp/static/images/task_images/rocket-04.jpg"",""time"":3339.7999999523163},{""stimulus"":""run_exp/static/images/task_images/rocket-05.jpg"",""time"":4460.5},{""stimulus"":""run_exp/static/images/task_images/rocket-06.jpg"",""time"":5571.899999976158},{""stimulus"":""run_exp/static/images/task_images/rocket-07.jpg"",""time"":6668.899999976158},{""stimulus"":""run_exp/static/images/task_images/rocket-08.jpg"",""time"":7783.399999976158},{""stimulus"":""run_exp/static/images/task_images/rocket-09.jpg"",""time"":8891.799999952316}]",[],0,,,,,,,,,,,,,,
instruc_alien_greet,15,154328,0.0-7.0-6.0,"""event"",""trial"",""time""
""fullscreenenter"",""1"",""3617""
","
","
","""event"",""trial"",""time""
""fullscreenenter"",""1"",""3617""
","
",,null,run_exp/static/audio/clip_6_alien.m4a,null,"<p>When you arrive at a new planet, the alien who owns the treasure mine on that planet will greet you!</p><p>The better an alien takes care of their mine the easier it is to dig for gems. Some aliens take better care of their mine than others. So, you won’t get exactly the same amount of gems on each planet.</p><p>What the alien looks like does not tell you anything about how many gems there are on the planet.</p><br><p><img src=""run_exp/static/images/task_images/aliens/instructions_aliens/planet/alien_planet-1.jpg""  height=""600"" width=""auto""></p>",,,,,,,,,,,,,,,,,,,,,,,
instruc_alien_greet,16,158853,0.0-7.0-7.0,"""event"",""trial"",""time""
""fullscreenenter"",""1"",""3617""
","
","
","""event"",""trial"",""time""
""fullscreenenter"",""1"",""3617""
","
",,4522,"<p>When you arrive at a new planet, the alien who owns the treasure mine on that planet will greet you!</p><p>The better an alien takes care of their mine the easier it is to dig for gems. Some aliens take better care of their mine than others. So, you won’t get exactly the same amount of gems on each planet.</p><p>What the alien looks like does not tell you anything about how many gems there are on the planet.</p><br><p><img src=""run_exp/static/images/task_images/aliens/instructions_aliens/planet/alien_planet-1.jpg""  height=""600"" width=""auto""></p>",,,,,,,1,,,,,,,,,,,,,,,,,,
html-keyboard-response,17,160075,0.0-7.0-8.0,"""event"",""trial"",""time""
""fullscreenenter"",""1"",""3617""
","
","
","""event"",""trial"",""time""
""fullscreenenter"",""1"",""3617""
","
",,1219.2,"<p>When you arrive at a new planet, the alien who owns the treasure mine on that planet will greet you!</p><p>The better an alien takes care of their mine the easier it is to dig for gems. Some aliens take better care of their mine than others. So, you won’t get exactly the same amount of gems on each planet.</p><p>What the alien looks like does not tell you anything about how many gems there are on the planet.</p><br><p><img src=""run_exp/static/images/task_images/aliens/instructions_aliens/planet/alien_planet-1.jpg""  height=""600"" width=""auto""></p><button class=""jspsych-html-btn-unchosen""><img src=""run_exp/static/images/task_images/planet-01.jpg"" height=""50""></button><button class=""jspsych-html-btn-chosen""><img src=""run_exp/static/images/task_images/planet-02.jpg"" height=""50""></button><p><b>[press the space bar to lock in your answer]<b><br></p>",32,,,,,,,,,,,,,,,,,,,,,,,,
time_out,18,171186,0.0-8.0-0.0,"""event"",""trial"",""time""
""fullscreenenter"",""1"",""3617""
","
","
","""event"",""trial"",""time""
""fullscreenenter"",""1"",""3617""
","
",,null,run_exp/static/audio/clip_7_timeout.m4a,null,"<p>If you don't make your choice fast enough, you’ll have to wait a few seconds before you can make another one.</p><p>You can’t dig for more gems or travel to new planets. You just have to sit and wait.</p><br><p><img src='run_exp/static/images/task_images/time_out.jpg'  height='600' width='auto'></p>",,,,,,,,,,,,,,,,,,,,,,,
time_out,19,173474,0.0-8.0-1.0,"""event"",""trial"",""time""
""fullscreenenter"",""1"",""3617""
","
","
","""event"",""trial"",""time""
""fullscreenenter"",""1"",""3617""
","
",,2285.3,"<p>If you don't make your choice fast enough, you’ll have to wait a few seconds before you can make another one.</p><p>You can’t dig for more gems or travel to new planets. You just have to sit and wait.</p><br><p><img src='run_exp/static/images/task_images/time_out.jpg'  height='600' width='auto'></p>",,,,,,,1,,,,,,,,,,,,,,,,,,
html-keyboard-response,20,174252,0.0-8.0-2.0,"""event"",""trial"",""time""
""fullscreenenter"",""1"",""3617""
","
","
","""event"",""trial"",""time""
""fullscreenenter"",""1"",""3617""
","
",,775.5,"<p>If you don't make your choice fast enough, you’ll have to wait a few seconds before you can make another one.</p><p>You can’t dig for more gems or travel to new planets. You just have to sit and wait.</p><br><p><img src='run_exp/static/images/task_images/time_out.jpg'  height='600' width='auto'></p><button class=""jspsych-html-btn-unchosen""><img src=""run_exp/static/images/task_images/planet-01.jpg"" height=""50""></button><button class=""jspsych-html-btn-chosen""><img src=""run_exp/static/images/task_images/planet-02.jpg"" height=""50""></button><p><b>[press the space bar to lock in your answer]<b><br></p>",32,,,,,,,,,,,,,,,,,,,,,,,,
instruc_break,21,189922,0.0-9.0-0.0,"""event"",""trial"",""time""
""fullscreenenter"",""1"",""3617""
","
","
","""event"",""trial"",""time""
""fullscreenenter"",""1"",""3617""
","
",,null,run_exp/static/audio/clip_8_break.m4a,null,"<p> After digging and traveling for a while, you’ll be able to take a break at home base. </p><p>The game will last 20 minutes no matter what.</p><p>You will visit home base every 5 minutes, so, you will visit home base three times during the game.</p><br><p><img src='run_exp/static/images/task_images/home_base.jpg' height='600' width='auto'></p>",,,,,,,,,,,,,,,,,,,,,,,
instruc_break,22,191486,0.0-9.0-1.0,"""event"",""trial"",""time""
""fullscreenenter"",""1"",""3617""
","
","
","""event"",""trial"",""time""
""fullscreenenter"",""1"",""3617""
","
",,1561.8,"<p> After digging and traveling for a while, you’ll be able to take a break at home base. </p><p>The game will last 20 minutes no matter what.</p><p>You will visit home base every 5 minutes, so, you will visit home base three times during the game.</p><br><p><img src='run_exp/static/images/task_images/home_base.jpg' height='600' width='auto'></p>",,,,,,,1,,,,,,,,,,,,,,,,,,
html-keyboard-response,23,191864,0.0-9.0-2.0,"""event"",""trial"",""time""
""fullscreenenter"",""1"",""3617""
","
","
","""event"",""trial"",""time""
""fullscreenenter"",""1"",""3617""
","
",,376.2,"<p> After digging and traveling for a while, you’ll be able to take a break at home base. </p><p>The game will last 20 minutes no matter what.</p><p>You will visit home base every 5 minutes, so, you will visit home base three times during the game.</p><br><p><img src='run_exp/static/images/task_images/home_base.jpg' height='600' width='auto'></p><button class=""jspsych-html-btn-unchosen""><img src=""run_exp/static/images/task_images/planet-01.jpg"" height=""50""></button><button class=""jspsych-html-btn-chosen""><img src=""run_exp/static/images/task_images/planet-02.jpg"" height=""50""></button><p><b>[press the space bar to lock in your answer]<b><br></p>",32,,,,,,,,,,,,,,,,,,,,,,,,
instruc_prac_game,24,202007,0.0-10.0-0.0,"""event"",""trial"",""time""
""fullscreenenter"",""1"",""3617""
","
","
","""event"",""trial"",""time""
""fullscreenenter"",""1"",""3617""
","
",,null,run_exp/static/audio/clip_9_practice.m4a,null,"<p> Are you ready to play a practice game? </p> <p>In this practice game, you'll be digging up barrels of gems. But, in the real game, you'll be digging up the gems themselves. </p>",,,,,,,,,,,,,,,,,,,,,,,
html-button-response,25,203693,0.0-10.0-1.0,"""event"",""trial"",""time""
""fullscreenenter"",""1"",""3617""
","
","
","""event"",""trial"",""time""
""fullscreenenter"",""1"",""3617""
","
",,1683.8,"<p> Are you ready to play a practice game? </p> <p>In this practice game, you'll be digging up barrels of gems. But, in the real game, you'll be digging up the gems themselves. </p>",,,,,,,0,,,,,,,,,,,,,,,,,,
alien_welcome_prac,26,208703,0.0-11.0-0.0,"""event"",""trial"",""time""
""fullscreenenter"",""1"",""3617""
","
","
","""event"",""trial"",""time""
""fullscreenenter"",""1"",""3617""
","
",,null,run_exp/static/images/task_images/aliens/practice_aliens/planet/alien_planet-5.jpg,null,,,,,,,,,,,,,,,,,,,,,,,,
land_prac,27,209208,0.0-11.0-1.0,"""event"",""trial"",""time""
""fullscreenenter"",""1"",""3617""
","
","
","""event"",""trial"",""time""
""fullscreenenter"",""1"",""3617""
","
",,null,run_exp/static/images/task_images/land.jpg,null,,,,,,,100,,,0,,,,,,,,,,,,,,
dig_prac,28,211215,0.0-11.0-2.0,"""event"",""trial"",""time""
""fullscreenenter"",""1"",""3617""
","
","
","""event"",""trial"",""time""
""fullscreenenter"",""1"",""3617""
","
",,,,,,,,,,,,"[{""stimulus"":""run_exp/static/images/task_images/dig.jpg"",""time"":0.3999999761581421},{""stimulus"":""run_exp/static/images/task_images/land.jpg"",""time"":676.8999999761581},{""stimulus"":""run_exp/static/images/task_images/dig.jpg"",""time"":1342.6999999284744}]",[],,,,,,,,,,,,,,,
harvest_prac,29,212232,0.0-11.0-3.0,"""event"",""trial"",""time""
""fullscreenenter"",""1"",""3617""
","
","
","""event"",""trial"",""time""
""fullscreenenter"",""1"",""3617""
","
",,null,run_exp/static/images/task_images/barrel_text.jpg,null,,,,,,,,,,,,,,,,,,,,,,,,
decision_prac,30,213194,0.0-11.0-4.0,"""event"",""trial"",""time""
""fullscreenenter"",""1"",""3617""
","
","
","""event"",""trial"",""time""
""fullscreenenter"",""1"",""3617""
","
",,961.1,run_exp/static/images/task_images/land.jpg,65,,,,,,,,,,,1,,,,,,,,,,,,,
dig_prac,31,215213,0.0-12.0-0.0,"""event"",""trial"",""time""
""fullscreenenter"",""1"",""3617""
","
","
","""event"",""trial"",""time""
""fullscreenenter"",""1"",""3617""
","
",,,,,,,,,,,,"[{""stimulus"":""run_exp/static/images/task_images/dig.jpg"",""time"":0.2999999523162842},{""stimulus"":""run_exp/static/images/task_images/land.jpg"",""time"":682.5},{""stimulus"":""run_exp/static/images/task_images/dig.jpg"",""time"":1341.6000000238419}]",[],,,,,,,,,,,,,,,
harvest_prac,32,216224,0.0-12.0-1.0,"""event"",""trial"",""time""
""fullscreenenter"",""1"",""3617""
","
","
","""event"",""trial"",""time""
""fullscreenenter"",""1"",""3617""
","
",,null,run_exp/static/images/task_images/barrel_text.jpg,null,,,,,,,,,,,,,,,,,,,,,,,,
decision_prac,33,218140,0.0-12.0-2.0,"""event"",""trial"",""time""
""fullscreenenter"",""1"",""3617""
","
","
","""event"",""trial"",""time""
""fullscreenenter"",""1"",""3617""
","
",,1913.8,run_exp/static/images/task_images/land.jpg,65,,,,,,,,,,,2,,,,,,,,,,,,,
dig_prac,34,220156,0.0-13.0-0.0,"""event"",""trial"",""time""
""fullscreenenter"",""1"",""3617""
","
","
","""event"",""trial"",""time""
""fullscreenenter"",""1"",""3617""
","
",,,,,,,,,,,,"[{""stimulus"":""run_exp/static/images/task_images/dig.jpg"",""time"":0.19999992847442627},{""stimulus"":""run_exp/static/images/task_images/land.jpg"",""time"":670.6999999284744},{""stimulus"":""run_exp/static/images/task_images/dig.jpg"",""time"":1342.5}]",[],,,,,,,,,,,,,,,
harvest_prac,35,221159,0.0-13.0-1.0,"""event"",""trial"",""time""
""fullscreenenter"",""1"",""3617""
","
","
","""event"",""trial"",""time""
""fullscreenenter"",""1"",""3617""
","
",,null,run_exp/static/images/task_images/barrel_text.jpg,null,,,,,,,,,,,,,,,,,,,,,,,,
decision_prac,36,221458,0.0-13.0-2.0,"""event"",""trial"",""time""
""fullscreenenter"",""1"",""3617""
","
","
","""event"",""trial"",""time""
""fullscreenenter"",""1"",""3617""
","
",,297.1,run_exp/static/images/task_images/land.jpg,65,,,,,,,,,,,3,,,,,,,,,,,,,
dig_prac,37,223466,0.0-14.0-0.0,"""event"",""trial"",""time""
""fullscreenenter"",""1"",""3617""
","
","
","""event"",""trial"",""time""
""fullscreenenter"",""1"",""3617""
","
",,,,,,,,,,,,"[{""stimulus"":""run_exp/static/images/task_images/dig.jpg"",""time"":0.2999999523162842},{""stimulus"":""run_exp/static/images/task_images/land.jpg"",""time"":682},{""stimulus"":""run_exp/static/images/task_images/dig.jpg"",""time"":1339.7999999523163}]",[],,,,,,,,,,,,,,,
harvest_prac,38,224476,0.0-14.0-1.0,"""event"",""trial"",""time""
""fullscreenenter"",""1"",""3617""
","
","
","""event"",""trial"",""time""
""fullscreenenter"",""1"",""3617""
","
",,null,run_exp/static/images/task_images/barrel_text.jpg,null,,,,,,,,,,,,,,,,,,,,,,,,
decision_prac,39,224482,0.0-14.0-2.0,"""event"",""trial"",""time""
""fullscreenenter"",""1"",""3617""
","
","
","""event"",""trial"",""time""
""fullscreenenter"",""1"",""3617""
","
",,5.700000048,run_exp/static/images/task_images/land.jpg,65,,,,,,,,,,,4,,,,,,,,,,,,,
dig_prac,40,226491,0.0-15.0-0.0,"""event"",""trial"",""time""
""fullscreenenter"",""1"",""3617""
","
","
","""event"",""trial"",""time""
""fullscreenenter"",""1"",""3617""
","
",,,,,,,,,,,,"[{""stimulus"":""run_exp/static/images/task_images/dig.jpg"",""time"":0.19999992847442627},{""stimulus"":""run_exp/static/images/task_images/land.jpg"",""time"":668.3999999761581},{""stimulus"":""run_exp/static/images/task_images/dig.jpg"",""time"":1340}]",[],,,,,,,,,,,,,,,
harvest_prac,41,227504,0.0-15.0-1.0,"""event"",""trial"",""time""
""fullscreenenter"",""1"",""3617""
","
","
","""event"",""trial"",""time""
""fullscreenenter"",""1"",""3617""
","
",,null,run_exp/static/images/task_images/barrel_text.jpg,null,,,,,,,,,,,,,,,,,,,,,,,,
decision_prac,42,227524,0.0-15.0-2.0,"""event"",""trial"",""time""
""fullscreenenter"",""1"",""3617""
","
","
","""event"",""trial"",""time""
""fullscreenenter"",""1"",""3617""
","
",,19.20000005,run_exp/static/images/task_images/land.jpg,65,,,,,,,,,,,,1,,,,,,,,,,,,
quiz_instruc,43,235117,0.0-16.0-0.0,"""event"",""trial"",""time""
""fullscreenenter"",""1"",""3617""
","
","
","""event"",""trial"",""time""
""fullscreenenter"",""1"",""3617""
","
",,7588.9,run_exp/static/audio/clip_10_quiz.m4a,,,,,,,0,,,,,,,,,,,,,,,,,,
instruc_repeat,44,277891,0.0-16.0-1.0,"""event"",""trial"",""time""
""fullscreenenter"",""1"",""3617""
","
","
","""event"",""trial"",""time""
""fullscreenenter"",""1"",""3617""
","
",,null,"<p> Are you ready to play a practice game? </p> <p>In this practice game, you'll be digging up barrels of gems. But, in the real game, you'll be digging up the gems themselves. </p>",null,"<p>In this game, your goal is to collect as many gems as you can. That’s how you will win bonus money. </p> <p>The entire game will last 20 minutes no matter how many gems you collect or how many planets you visit. </p><p>To stay on a planet and dig again, press the letter A on your keyboard. To leave for a new planet, press the letter L.</p><p>The more you dig on a planet, the fewer gems you’ll get with each dig which is why you might consider leaving for a new planet. </p><p>When you arrive at a new planet, you’ll be greeted by an alien. What the alien looks like does not tell you anything about how much treasure is on the planet. </p>",,,,,,,,,,,,,,,,,,,,,,,
instruc_repeat_continue,45,279788,0.0-16.0-2.0,"""event"",""trial"",""time""
""fullscreenenter"",""1"",""3617""
","
","
","""event"",""trial"",""time""
""fullscreenenter"",""1"",""3617""
","
",,1894.7,"<p> Are you ready to play a practice game? </p> <p>In this practice game, you'll be digging up barrels of gems. But, in the real game, you'll be digging up the gems themselves. </p>",,,,,,,0,,,,,,,,,,,,,,,,,,
quiz_q_1_ask,46,286299,0.0-16.0-3.0,"""event"",""trial"",""time""
""fullscreenenter"",""1"",""3617""
","
","
","""event"",""trial"",""time""
""fullscreenenter"",""1"",""3617""
","
",,6508.2,run_exp/static/audio/clip_11_q1_ask.m4a,,,,,,,2,,,,,,,,,,,,,,,,,,
quiz_q_1_fb_correct,47,290172,0.0-17.0-0.0,"""event"",""trial"",""time""
""fullscreenenter"",""1"",""3617""
","
","
","""event"",""trial"",""time""
""fullscreenenter"",""1"",""3617""
","
",,null,run_exp/static/audio/clip_12_q1_correct.m4a,null,<p>That’s correct. You win extra money by collecting more gems.</p>,,,,,,,,,,,,,,,,,,,,,,,
quiz_q_2_ask,48,293784,0.0-17.0-1.0,"""event"",""trial"",""time""
""fullscreenenter"",""1"",""3617""
","
","
","""event"",""trial"",""time""
""fullscreenenter"",""1"",""3617""
","
",,3608.6,run_exp/static/audio/clip_14_q2_ask.m4a,,,,,,,1,,,,,,,,,,,,,,,,,,
quiz_q_2_fb_correct,49,297814,0.0-18.0-0.0,"""event"",""trial"",""time""
""fullscreenenter"",""1"",""3617""
","
","
","""event"",""trial"",""time""
""fullscreenenter"",""1"",""3617""
","
",,null,run_exp/static/audio/clip_15_q2_correct.m4a,null,<p>That’s correct. The experiment is 20 minutes no matter what.</p>,,,,,,,,,,,,,,,,,,,,,,,
quiz_q_3_ask,50,301512,0.0-18.0-1.0,"""event"",""trial"",""time""
""fullscreenenter"",""1"",""3617""
","
","
","""event"",""trial"",""time""
""fullscreenenter"",""1"",""3617""
","
",,3689.7,run_exp/static/audio/clip_17_q3_ask.m4a,,,,,,,1,,,,,,,,,,,,,,,,,,
quiz_q_3_fb_correct,51,305513,0.0-19.0-0.0,"""event"",""trial"",""time""
""fullscreenenter"",""1"",""3617""
","
","
","""event"",""trial"",""time""
""fullscreenenter"",""1"",""3617""
","
",,null,run_exp/static/audio/clip_18_q3_correct.m4a,null,<p> That’s correct. You press the letter L to travel to a new planet.</p>,,,,,,,,,,,,,,,,,,,,,,,
quiz_q_4_ask,52,309694,0.0-19.0-1.0,"""event"",""trial"",""time""
""fullscreenenter"",""1"",""3617""
","
","
","""event"",""trial"",""time""
""fullscreenenter"",""1"",""3617""
","
",,4178.8,run_exp/static/audio/clip_20_q4_ask.m4a,,,,,,,0,,,,,,,,,,,,,,,,,,
quiz_q_4_fb_correct,53,315033,0.0-20.0-0.0,"""event"",""trial"",""time""
""fullscreenenter"",""1"",""3617""
","
","
","""event"",""trial"",""time""
""fullscreenenter"",""1"",""3617""
","
",,null,run_exp/static/audio/clip_21_q4_correct.m4a,null,<p> That’s correct. The more you dig on a planet the fewer gems you’ll get with each dig. </p>,,,,,,,,,,,,,,,,,,,,,,,
quiz_q_5_ask,54,321453,0.0-20.0-1.0,"""event"",""trial"",""time""
""fullscreenenter"",""1"",""3617""
","
","
","""event"",""trial"",""time""
""fullscreenenter"",""1"",""3617""
","
",,6415.9,run_exp/static/audio/clip_23_q5_ask.m4a,,,,,,,1,,,,,,,,,,,,,,,,,,
quiz_q_5_fb_correct,55,326494,0.0-21.0-0.0,"""event"",""trial"",""time""
""fullscreenenter"",""1"",""3617""
","
","
","""event"",""trial"",""time""
""fullscreenenter"",""1"",""3617""
","
",,null,run_exp/static/audio/clip_24_q5_correct.m4a,null,<p> That’s correct. The alien tells you nothing about how much treasure is on the planet.</p>,,,,,,,,,,,,,,,,,,,,,,,
quiz_correct,56,329974,0.0-22.0-0.0,"""event"",""trial"",""time""
""fullscreenenter"",""1"",""3617""
","
","
","""event"",""trial"",""time""
""fullscreenenter"",""1"",""3617""
","
",,null,run_exp/static/audio/clip_26_correct_quiz.m4a,null,,,,,,,,,,,,,,,,,,,,,,,,
quiz_correct_continue,57,332941,0.0-22.0-1.0,"""event"",""trial"",""time""
""fullscreenenter"",""1"",""3617""
","
","
","""event"",""trial"",""time""
""fullscreenenter"",""1"",""3617""
","
",,2965.8,<p>Good job! You're now ready to move on to the real game!</p>,,,,,,,0,,,,,,,,,,,,,,,,,,
audio-keyboard-response,58,343093,0.0-22.0-2.0,"""event"",""trial"",""time""
""fullscreenenter"",""1"",""3617""
","
","
","""event"",""trial"",""time""
""fullscreenenter"",""1"",""3617""
","
",,null,run_exp/static/audio/clip_28_real_game.m4a,null,,,,,,,,,,,,,,,,,,,,,,,,
instruc_begin_exp_contine,59,345396,0.0-22.0-3.0,"""event"",""trial"",""time""
""fullscreenenter"",""1"",""3617""
","
","
","""event"",""trial"",""time""
""fullscreenenter"",""1"",""3617""
","
",,2301.7,"<p>Now that you know how  to dig for space treasure and travel to new planets,you can start exploring! </p><p>Do you want to go over the instructions again or get started with the real game?</p>",,,,,,,1,,,,,,1,,,,,,,,,,,,
alien_welcome,60,350400,0.0-23.0-0.0,"""event"",""trial"",""time""
""fullscreenenter"",""1"",""3617""
","
","
","""event"",""trial"",""time""
""fullscreenenter"",""1"",""3617""
","
",,null,run_exp/static/images/task_images/aliens/old_aliens/planet/alien_planet-6.jpg,null,,,,,,,,,,,,,6,"6,74,30,37,23,80,62,22,28,66,19,12,54,11,50,10,41,16,18,9,60,52,75,73,46,56,43,61,3,15,78,49,70,53,51,68,44,79,25",,,,,,,,,,
land,61,350905,0.0-23.0-1.0,"""event"",""trial"",""time""
""fullscreenenter"",""1"",""3617""
","
","
","""event"",""trial"",""time""
""fullscreenenter"",""1"",""3617""
","
",,null,run_exp/static/images/task_images/land.jpg,null,,,,,,,106,,,1,,,,,,,,,,,,,,
dig,62,352912,0.0-23.0-2.0,"""event"",""trial"",""time""
""fullscreenenter"",""1"",""3617""
","
","
","""event"",""trial"",""time""
""fullscreenenter"",""1"",""3617""
","
",,,,,,,,,,,,"[{""stimulus"":""run_exp/static/images/task_images/dig.jpg"",""time"":0.3999999761581421},{""stimulus"":""run_exp/static/images/task_images/land.jpg"",""time"":676.2000000476837},{""stimulus"":""run_exp/static/images/task_images/dig.jpg"",""time"":1339}]",[],1,,,,,,,,,,,,,,
harvest,63,353922,0.0-23.0-3.0,"""event"",""trial"",""time""
""fullscreenenter"",""1"",""3617""
","
","
","""event"",""trial"",""time""
""fullscreenenter"",""1"",""3617""
","
",,null,run_exp/static/images/task_images/gems/106.jpg,null,,,,,,,17,,,1,,,,,106,0.157627871,0.160377358,,,,,,,
decision,64,354281,0.0-23.0-4.0,"""event"",""trial"",""time""
""fullscreenenter"",""1"",""3617""
","
","
","""event"",""trial"",""time""
""fullscreenenter"",""1"",""3617""
","
",,356.7,run_exp/static/images/task_images/land.jpg,65,,,,,,,17,,,1,,,,,,,,8885,1,0,FALSE,,,
dig,65,356934,0.0-24.0-0.0,"""event"",""trial"",""time""
""fullscreenenter"",""1"",""3617""
","
","
","""event"",""trial"",""time""
""fullscreenenter"",""1"",""3617""
","
",,,,,,,,,,,,"[{""stimulus"":""run_exp/static/images/task_images/dig.jpg"",""time"":0.19999992847442627},{""stimulus"":""run_exp/static/images/task_images/land.jpg"",""time"":898.2999999523163},{""stimulus"":""run_exp/static/images/task_images/dig.jpg"",""time"":1772.5}]",[],1,,,,,,,,,,,,,,
harvest,66,357948,0.0-24.0-1.0,"""event"",""trial"",""time""
""fullscreenenter"",""1"",""3617""
","
","
","""event"",""trial"",""time""
""fullscreenenter"",""1"",""3617""
","
",,null,run_exp/static/images/task_images/gems/17.jpg,null,,,,,,,3,,,1,,,,,17,0.202829158,0.176470588,,,,,,,
decision,67,358117,0.0-24.0-2.0,"""event"",""trial"",""time""
""fullscreenenter"",""1"",""3617""
","
","
","""event"",""trial"",""time""
""fullscreenenter"",""1"",""3617""
","
",,168,run_exp/static/images/task_images/land.jpg,65,,,,,,,3,,,1,,,,,,,,12720,1,1,FALSE,,,
dig,68,360965,0.0-25.0-0.0,"""event"",""trial"",""time""
""fullscreenenter"",""1"",""3617""
","
","
","""event"",""trial"",""time""
""fullscreenenter"",""1"",""3617""
","
",,,,,,,,,,,,"[{""stimulus"":""run_exp/static/images/task_images/dig.jpg"",""time"":0.2999999523162842},{""stimulus"":""run_exp/static/images/task_images/land.jpg"",""time"":948.7999999523163},{""stimulus"":""run_exp/static/images/task_images/dig.jpg"",""time"":1899.2000000476837}]",[],1,,,,,,,,,,,,,,
harvest,69,361973,0.0-25.0-1.0,"""event"",""trial"",""time""
""fullscreenenter"",""1"",""3617""
","
","
","""event"",""trial"",""time""
""fullscreenenter"",""1"",""3617""
","
",,null,run_exp/static/images/task_images/gems/3.jpg,null,,,,,,,1,,,1,,,,,3,0.227923934,0.333333333,,,,,,,
decision,70,364615,0.0-25.0-2.0,"""event"",""trial"",""time""
""fullscreenenter"",""1"",""3617""
","
","
","""event"",""trial"",""time""
""fullscreenenter"",""1"",""3617""
","
",,2640,run_exp/static/images/task_images/land.jpg,76,,,,,,,1,,,1,,,,,,,,19218,1,2,TRUE,,,
travel,71,371988,0.0-26.0-0.0,"""event"",""trial"",""time""
""fullscreenenter"",""1"",""3617""
","
","
","""event"",""trial"",""time""
""fullscreenenter"",""1"",""3617""
","
",,,,,,,,,,,,"[{""stimulus"":""run_exp/static/images/task_images/rocket-01.jpg"",""time"":0.30000007152557373},{""stimulus"":""run_exp/static/images/task_images/rocket-02.jpg"",""time"":824.1000000238419},{""stimulus"":""run_exp/static/images/task_images/rocket-03.jpg"",""time"":1636.3999999761581},{""stimulus"":""run_exp/static/images/task_images/rocket-04.jpg"",""time"":2457.7000000476837},{""stimulus"":""run_exp/static/images/task_images/rocket-05.jpg"",""time"":3276.2000000476837},{""stimulus"":""run_exp/static/images/task_images/rocket-06.jpg"",""time"":4089.2000000476837},{""stimulus"":""run_exp/static/images/task_images/rocket-07.jpg"",""time"":4910.800000071526},{""stimulus"":""run_exp/static/images/task_images/rocket-08.jpg"",""time"":5720.5},{""stimulus"":""run_exp/static/images/task_images/rocket-09.jpg"",""time"":6543.600000023842}]",[],1,,,,,,,,,,,,,,
alien_welcome,72,376998,0.0-26.0-1.0,"""event"",""trial"",""time""
""fullscreenenter"",""1"",""3617""
","
","
","""event"",""trial"",""time""
""fullscreenenter"",""1"",""3617""
","
",,null,run_exp/static/images/task_images/aliens/old_aliens/planet/alien_planet-74.jpg,null,,,,,,,,,,,,,74,"6,74,30,37,23,80,62,22,28,66,19,12,54,11,50,10,41,16,18,9,60,52,75,73,46,56,43,61,3,15,78,49,70,53,51,68,44,79,25",,,,,,,,,,
land,73,377507,0.0-26.0-2.0,"""event"",""trial"",""time""
""fullscreenenter"",""1"",""3617""
","
","
","""event"",""trial"",""time""
""fullscreenenter"",""1"",""3617""
","
",,null,run_exp/static/images/task_images/land.jpg,null,,,,,,,90,,,2,,,,,,,,,,,,,,
dig,74,379512,0.0-26.0-3.0,"""event"",""trial"",""time""
""fullscreenenter"",""1"",""3617""
","
","
","""event"",""trial"",""time""
""fullscreenenter"",""1"",""3617""
","
",,,,,,,,,,,,"[{""stimulus"":""run_exp/static/images/task_images/dig.jpg"",""time"":0.3999999761581421},{""stimulus"":""run_exp/static/images/task_images/land.jpg"",""time"":670.3999999761581},{""stimulus"":""run_exp/static/images/task_images/dig.jpg"",""time"":1340.8999999761581}]",[],2,,,,,,,,,,,,,,
harvest,75,380524,0.0-26.0-4.0,"""event"",""trial"",""time""
""fullscreenenter"",""1"",""3617""
","
","
","""event"",""trial"",""time""
""fullscreenenter"",""1"",""3617""
","
",,null,run_exp/static/images/task_images/gems/90.jpg,null,,,,,,,21,,,2,,,,,90,0.231499443,0.233333333,,,,,,,
decision,76,380563,0.0-26.0-5.0,"""event"",""trial"",""time""
""fullscreenenter"",""1"",""3617""
","
","
","""event"",""trial"",""time""
""fullscreenenter"",""1"",""3617""
","
",,36.5,run_exp/static/images/task_images/land.jpg,65,,,,,,,21,,,2,,,,,,,,35167,1,0,FALSE,,,
dig,77,383534,0.0-27.0-0.0,"""event"",""trial"",""time""
""fullscreenenter"",""1"",""3617""
","
","
","""event"",""trial"",""time""
""fullscreenenter"",""1"",""3617""
","
",,,,,,,,,,,,"[{""stimulus"":""run_exp/static/images/task_images/dig.jpg"",""time"":0.20000004768371582},{""stimulus"":""run_exp/static/images/task_images/land.jpg"",""time"":992.8999999761581},{""stimulus"":""run_exp/static/images/task_images/dig.jpg"",""time"":1987.2000000476837}]",[],2,,,,,,,,,,,,,,
harvest,78,384550,0.0-27.0-1.0,"""event"",""trial"",""time""
""fullscreenenter"",""1"",""3617""
","
","
","""event"",""trial"",""time""
""fullscreenenter"",""1"",""3617""
","
",,null,run_exp/static/images/task_images/gems/21.jpg,null,,,,,,,4,,,2,,,,,21,0.167094135,0.19047619,,,,,,,
decision,79,384622,0.0-27.0-2.0,"""event"",""trial"",""time""
""fullscreenenter"",""1"",""3617""
","
","
","""event"",""trial"",""time""
""fullscreenenter"",""1"",""3617""
","
",,70.60000002,run_exp/static/images/task_images/land.jpg,65,,,,,,,4,,,2,,,,,,,,39225,1,1,FALSE,,,
dig,80,387563,0.0-28.0-0.0,"""event"",""trial"",""time""
""fullscreenenter"",""1"",""3617""
","
","
","""event"",""trial"",""time""
""fullscreenenter"",""1"",""3617""
","
",,,,,,,,,,,,"[{""stimulus"":""run_exp/static/images/task_images/dig.jpg"",""time"":0.20000004768371582},{""stimulus"":""run_exp/static/images/task_images/land.jpg"",""time"":988.2000000476837},{""stimulus"":""run_exp/static/images/task_images/dig.jpg"",""time"":1953.2000000476837}]",[],2,,,,,,,,,,,,,,
harvest,81,388569,0.0-28.0-1.0,"""event"",""trial"",""time""
""fullscreenenter"",""1"",""3617""
","
","
","""event"",""trial"",""time""
""fullscreenenter"",""1"",""3617""
","
",,null,run_exp/static/images/task_images/gems/4.jpg,null,,,,,,,1,,,2,,,,,4,0.220190672,0.25,,,,,,,
decision,82,388644,0.0-28.0-2.0,"""event"",""trial"",""time""
""fullscreenenter"",""1"",""3617""
","
","
","""event"",""trial"",""time""
""fullscreenenter"",""1"",""3617""
","
",,73.39999998,run_exp/static/images/task_images/land.jpg,76,,,,,,,1,,,2,,,,,,,,43247,1,2,TRUE,,,
travel,83,398574,0.0-29.0-0.0,"""event"",""trial"",""time""
""fullscreenenter"",""1"",""3617""
","
","
","""event"",""trial"",""time""
""fullscreenenter"",""1"",""3617""
","
",,,,,,,,,,,,"[{""stimulus"":""run_exp/static/images/task_images/rocket-01.jpg"",""time"":0.40000009536743164},{""stimulus"":""run_exp/static/images/task_images/rocket-02.jpg"",""time"":1110.8000000715256},{""stimulus"":""run_exp/static/images/task_images/rocket-03.jpg"",""time"":2212.3000000715256},{""stimulus"":""run_exp/static/images/task_images/rocket-04.jpg"",""time"":3318.3000000715256},{""stimulus"":""run_exp/static/images/task_images/rocket-05.jpg"",""time"":4411.600000023842},{""stimulus"":""run_exp/static/images/task_images/rocket-06.jpg"",""time"":5516.200000047684},{""stimulus"":""run_exp/static/images/task_images/rocket-07.jpg"",""time"":6622.200000047684},{""stimulus"":""run_exp/static/images/task_images/rocket-08.jpg"",""time"":7722.800000071526},{""stimulus"":""run_exp/static/images/task_images/rocket-09.jpg"",""time"":8819.700000047684}]",[],2,,,,,,,,,,,,,,
alien_welcome,84,403580,0.0-29.0-1.0,"""event"",""trial"",""time""
""fullscreenenter"",""1"",""3617""
","
","
","""event"",""trial"",""time""
""fullscreenenter"",""1"",""3617""
","
",,null,run_exp/static/images/task_images/aliens/old_aliens/planet/alien_planet-30.jpg,null,,,,,,,,,,,,,30,"6,74,30,37,23,80,62,22,28,66,19,12,54,11,50,10,41,16,18,9,60,52,75,73,46,56,43,61,3,15,78,49,70,53,51,68,44,79,25",,,,,,,,,,
land,85,404095,0.0-29.0-2.0,"""event"",""trial"",""time""
""fullscreenenter"",""1"",""3617""
","
","
","""event"",""trial"",""time""
""fullscreenenter"",""1"",""3617""
","
",,null,run_exp/static/images/task_images/land.jpg,null,,,,,,,102,,,3,,,,,,,,,,,,,,
dig,86,406101,0.0-29.0-3.0,"""event"",""trial"",""time""
""fullscreenenter"",""1"",""3617""
","
","
","""event"",""trial"",""time""
""fullscreenenter"",""1"",""3617""
","
",,,,,,,,,,,,"[{""stimulus"":""run_exp/static/images/task_images/dig.jpg"",""time"":0.3999999761581421},{""stimulus"":""run_exp/static/images/task_images/land.jpg"",""time"":669.1999999284744},{""stimulus"":""run_exp/static/images/task_images/dig.jpg"",""time"":1344.3999999761581}]",[],3,,,,,,,,,,,,,,
harvest,87,407108,0.0-29.0-4.0,"""event"",""trial"",""time""
""fullscreenenter"",""1"",""3617""
","
","
","""event"",""trial"",""time""
""fullscreenenter"",""1"",""3617""
","
",,null,run_exp/static/images/task_images/gems/102.jpg,null,,,,,,,42,,,3,,,,,102,0.413550168,0.411764706,,,,,,,
decision,88,407414,0.0-29.0-5.0,"""event"",""trial"",""time""
""fullscreenenter"",""1"",""3617""
","
","
","""event"",""trial"",""time""
""fullscreenenter"",""1"",""3617""
","
",,304,run_exp/static/images/task_images/land.jpg,65,,,,,,,42,,,3,,,,,,,,62017,1,0,FALSE,,,
dig,89,410118,0.0-30.0-0.0,"""event"",""trial"",""time""
""fullscreenenter"",""1"",""3617""
","
","
","""event"",""trial"",""time""
""fullscreenenter"",""1"",""3617""
","
",,,,,,,,,,,,"[{""stimulus"":""run_exp/static/images/task_images/dig.jpg"",""time"":0.20000004768371582},{""stimulus"":""run_exp/static/images/task_images/land.jpg"",""time"":902.1000000238419},{""stimulus"":""run_exp/static/images/task_images/dig.jpg"",""time"":1803.1000000238419}]",[],3,,,,,,,,,,,,,,
harvest,90,411123,0.0-30.0-1.0,"""event"",""trial"",""time""
""fullscreenenter"",""1"",""3617""
","
","
","""event"",""trial"",""time""
""fullscreenenter"",""1"",""3617""
","
",,null,run_exp/static/images/task_images/gems/42.jpg,null,,,,,,,21,,,3,,,,,42,0.489514453,0.5,,,,,,,
decision,91,411248,0.0-30.0-2.0,"""event"",""trial"",""time""
""fullscreenenter"",""1"",""3617""
","
","
","""event"",""trial"",""time""
""fullscreenenter"",""1"",""3617""
","
",,123.9,run_exp/static/images/task_images/land.jpg,65,,,,,,,21,,,3,,,,,,,,65851,1,1,FALSE,,,
dig,92,414127,0.0-31.0-0.0,"""event"",""trial"",""time""
""fullscreenenter"",""1"",""3617""
","
","
","""event"",""trial"",""time""
""fullscreenenter"",""1"",""3617""
","
",,,,,,,,,,,,"[{""stimulus"":""run_exp/static/images/task_images/dig.jpg"",""time"":0.19999992847442627},{""stimulus"":""run_exp/static/images/task_images/land.jpg"",""time"":967.1999999284744},{""stimulus"":""run_exp/static/images/task_images/dig.jpg"",""time"":1926}]",[],3,,,,,,,,,,,,,,
harvest,93,415130,0.0-31.0-1.0,"""event"",""trial"",""time""
""fullscreenenter"",""1"",""3617""
","
","
","""event"",""trial"",""time""
""fullscreenenter"",""1"",""3617""
","
",,null,run_exp/static/images/task_images/gems/21.jpg,null,,,,,,,10,,,3,,,,,21,0.473851165,0.476190476,,,,,,,
decision,94,415527,0.0-31.0-2.0,"""event"",""trial"",""time""
""fullscreenenter"",""1"",""3617""
","
","
","""event"",""trial"",""time""
""fullscreenenter"",""1"",""3617""
","
",,395.4000001,run_exp/static/images/task_images/land.jpg,76,,,,,,,10,,,3,,,,,,,,70130,1,2,TRUE,,,
travel,95,425145,0.0-32.0-0.0,"""event"",""trial"",""time""
""fullscreenenter"",""1"",""3617""
","
","
","""event"",""trial"",""time""
""fullscreenenter"",""1"",""3617""
","
",,,,,,,,,,,,"[{""stimulus"":""run_exp/static/images/task_images/rocket-01.jpg"",""time"":0.20000004768371582},{""stimulus"":""run_exp/static/images/task_images/rocket-02.jpg"",""time"":1072.1000000238419},{""stimulus"":""run_exp/static/images/task_images/rocket-03.jpg"",""time"":2135.600000023842},{""stimulus"":""run_exp/static/images/task_images/rocket-04.jpg"",""time"":3206.100000023842},{""stimulus"":""run_exp/static/images/task_images/rocket-05.jpg"",""time"":4277.299999952316},{""stimulus"":""run_exp/static/images/task_images/rocket-06.jpg"",""time"":5337.600000023842},{""stimulus"":""run_exp/static/images/task_images/rocket-07.jpg"",""time"":6410.5},{""stimulus"":""run_exp/static/images/task_images/rocket-08.jpg"",""time"":7474.299999952316},{""stimulus"":""run_exp/static/images/task_images/rocket-09.jpg"",""time"":8540.299999952316}]",[],3,,,,,,,,,,,,,,
alien_welcome,96,430157,0.0-32.0-1.0,"""event"",""trial"",""time""
""fullscreenenter"",""1"",""3617""
","
","
","""event"",""trial"",""time""
""fullscreenenter"",""1"",""3617""
","
",,null,run_exp/static/images/task_images/aliens/old_aliens/planet/alien_planet-37.jpg,null,,,,,,,,,,,,,37,"6,74,30,37,23,80,62,22,28,66,19,12,54,11,50,10,41,16,18,9,60,52,75,73,46,56,43,61,3,15,78,49,70,53,51,68,44,79,25",,,,,,,,,,
land,97,430660,0.0-32.0-2.0,"""event"",""trial"",""time""
""fullscreenenter"",""1"",""3617""
","
","
","""event"",""trial"",""time""
""fullscreenenter"",""1"",""3617""
","
",,null,run_exp/static/images/task_images/land.jpg,null,,,,,,,107,,,4,,,,,,,,,,,,,,
dig,98,432671,0.0-32.0-3.0,"""event"",""trial"",""time""
""fullscreenenter"",""1"",""3617""
","
","
","""event"",""trial"",""time""
""fullscreenenter"",""1"",""3617""
","
",,,,,,,,,,,,"[{""stimulus"":""run_exp/static/images/task_images/dig.jpg"",""time"":0.2999999523162842},{""stimulus"":""run_exp/static/images/task_images/land.jpg"",""time"":669.7999999523163},{""stimulus"":""run_exp/static/images/task_images/dig.jpg"",""time"":1342.7000000476837}]",[],4,,,,,,,,,,,,,,
harvest,99,433679,0.0-32.0-4.0,"""event"",""trial"",""time""
""fullscreenenter"",""1"",""3617""
","
","
","""event"",""trial"",""time""
""fullscreenenter"",""1"",""3617""
","
",,null,run_exp/static/images/task_images/gems/107.jpg,null,,,,,,,58,,,4,,,,,107,0.544046328,0.542056075,,,,,,,
decision,100,433883,0.0-32.0-5.0,"""event"",""trial"",""time""
""fullscreenenter"",""1"",""3617""
","
","
","""event"",""trial"",""time""
""fullscreenenter"",""1"",""3617""
","
",,201.7,run_exp/static/images/task_images/land.jpg,65,,,,,,,58,,,4,,,,,,,,88486,1,0,FALSE,,,
dig,101,436688,0.0-33.0-0.0,"""event"",""trial"",""time""
""fullscreenenter"",""1"",""3617""
","
","
","""event"",""trial"",""time""
""fullscreenenter"",""1"",""3617""
","
",,,,,,,,,,,,"[{""stimulus"":""run_exp/static/images/task_images/dig.jpg"",""time"":0.3999999761581421},{""stimulus"":""run_exp/static/images/task_images/land.jpg"",""time"":937.5},{""stimulus"":""run_exp/static/images/task_images/dig.jpg"",""time"":1875.5}]",[],4,,,,,,,,,,,,,,
harvest,102,437693,0.0-33.0-1.0,"""event"",""trial"",""time""
""fullscreenenter"",""1"",""3617""
","
","
","""event"",""trial"",""time""
""fullscreenenter"",""1"",""3617""
","
",,null,run_exp/static/images/task_images/gems/58.jpg,null,,,,,,,29,,,4,,,,,58,0.498450944,0.5,,,,,,,
decision,103,437768,0.0-33.0-2.0,"""event"",""trial"",""time""
""fullscreenenter"",""1"",""3617""
","
","
","""event"",""trial"",""time""
""fullscreenenter"",""1"",""3617""
","
",,72.29999995,run_exp/static/images/task_images/land.jpg,65,,,,,,,29,,,4,,,,,,,,92371,1,1,FALSE,,,
dig,104,440707,0.0-34.0-0.0,"""event"",""trial"",""time""
""fullscreenenter"",""1"",""3617""
","
","
","""event"",""trial"",""time""
""fullscreenenter"",""1"",""3617""
","
",,,,,,,,,,,,"[{""stimulus"":""run_exp/static/images/task_images/dig.jpg"",""time"":0.20000004768371582},{""stimulus"":""run_exp/static/images/task_images/land.jpg"",""time"":985.2999999523163},{""stimulus"":""run_exp/static/images/task_images/dig.jpg"",""time"":1951.8999999761581}]",[],4,,,,,,,,,,,,,,
harvest,105,441723,0.0-34.0-1.0,"""event"",""trial"",""time""
""fullscreenenter"",""1"",""3617""
","
","
","""event"",""trial"",""time""
""fullscreenenter"",""1"",""3617""
","
",,null,run_exp/static/images/task_images/gems/29.jpg,null,,,,,,,15,,,4,,,,,29,0.525514696,0.517241379,,,,,,,
decision,106,441841,0.0-34.0-2.0,"""event"",""trial"",""time""
""fullscreenenter"",""1"",""3617""
","
","
","""event"",""trial"",""time""
""fullscreenenter"",""1"",""3617""
","
",,116.8000001,run_exp/static/images/task_images/land.jpg,65,,,,,,,15,,,4,,,,,,,,96444,1,2,FALSE,,,
dig,107,444737,0.0-35.0-0.0,"""event"",""trial"",""time""
""fullscreenenter"",""1"",""3617""
","
","
","""event"",""trial"",""time""
""fullscreenenter"",""1"",""3617""
","
",,,,,,,,,,,,"[{""stimulus"":""run_exp/static/images/task_images/dig.jpg"",""time"":0.30000007152557373},{""stimulus"":""run_exp/static/images/task_images/land.jpg"",""time"":964.1000000238419},{""stimulus"":""run_exp/static/images/task_images/dig.jpg"",""time"":1929.6000000238419}]",[],4,,,,,,,,,,,,,,
harvest,108,445744,0.0-35.0-1.0,"""event"",""trial"",""time""
""fullscreenenter"",""1"",""3617""
","
","
","""event"",""trial"",""time""
""fullscreenenter"",""1"",""3617""
","
",,null,run_exp/static/images/task_images/gems/15.jpg,null,,,,,,,8,,,4,,,,,15,0.501493246,0.533333333,,,,,,,
decision,109,446330,0.0-35.0-2.0,"""event"",""trial"",""time""
""fullscreenenter"",""1"",""3617""
","
","
","""event"",""trial"",""time""
""fullscreenenter"",""1"",""3617""
","
",,584.7,run_exp/static/images/task_images/land.jpg,76,,,,,,,8,,,4,,,,,,,,100934,1,3,TRUE,,,
travel,110,455753,0.0-36.0-0.0,"""event"",""trial"",""time""
""fullscreenenter"",""1"",""3617""
","
","
","""event"",""trial"",""time""
""fullscreenenter"",""1"",""3617""
","
",,,,,,,,,,,,"[{""stimulus"":""run_exp/static/images/task_images/rocket-01.jpg"",""time"":0.2999999523162842},{""stimulus"":""run_exp/static/images/task_images/rocket-02.jpg"",""time"":1051.6999999284744},{""stimulus"":""run_exp/static/images/task_images/rocket-03.jpg"",""time"":2093.7999999523163},{""stimulus"":""run_exp/static/images/task_images/rocket-04.jpg"",""time"":3146.6999999284744},{""stimulus"":""run_exp/static/images/task_images/rocket-05.jpg"",""time"":4186.100000023842},{""stimulus"":""run_exp/static/images/task_images/rocket-06.jpg"",""time"":5234},{""stimulus"":""run_exp/static/images/task_images/rocket-07.jpg"",""time"":6281.100000023842},{""stimulus"":""run_exp/static/images/task_images/rocket-08.jpg"",""time"":7332.399999976158},{""stimulus"":""run_exp/static/images/task_images/rocket-09.jpg"",""time"":8372.5}]",[],4,,,,,,,,,,,,,,
alien_welcome,111,460762,0.0-36.0-1.0,"""event"",""trial"",""time""
""fullscreenenter"",""1"",""3617""
","
","
","""event"",""trial"",""time""
""fullscreenenter"",""1"",""3617""
","
",,null,run_exp/static/images/task_images/aliens/old_aliens/planet/alien_planet-23.jpg,null,,,,,,,,,,,,,23,"6,74,30,37,23,80,62,22,28,66,19,12,54,11,50,10,41,16,18,9,60,52,75,73,46,56,43,61,3,15,78,49,70,53,51,68,44,79,25",,,,,,,,,,
land,112,461277,0.0-36.0-2.0,"""event"",""trial"",""time""
""fullscreenenter"",""1"",""3617""
","
","
","""event"",""trial"",""time""
""fullscreenenter"",""1"",""3617""
","
",,null,run_exp/static/images/task_images/land.jpg,null,,,,,,,99,,,5,,,,,,,,,,,,,,
dig,113,463287,0.0-36.0-3.0,"""event"",""trial"",""time""
""fullscreenenter"",""1"",""3617""
","
","
","""event"",""trial"",""time""
""fullscreenenter"",""1"",""3617""
","
",,,,,,,,,,,,"[{""stimulus"":""run_exp/static/images/task_images/dig.jpg"",""time"":0.40000009536743164},{""stimulus"":""run_exp/static/images/task_images/land.jpg"",""time"":669},{""stimulus"":""run_exp/static/images/task_images/dig.jpg"",""time"":1341.3000000715256}]",[],5,,,,,,,,,,,,,,
harvest,114,464291,0.0-36.0-4.0,"""event"",""trial"",""time""
""fullscreenenter"",""1"",""3617""
","
","
","""event"",""trial"",""time""
""fullscreenenter"",""1"",""3617""
","
",,null,run_exp/static/images/task_images/gems/99.jpg,null,,,,,,,49,,,5,,,,,99,0.495640626,0.494949495,,,,,,,
decision,115,464389,0.0-36.0-5.0,"""event"",""trial"",""time""
""fullscreenenter"",""1"",""3617""
","
","
","""event"",""trial"",""time""
""fullscreenenter"",""1"",""3617""
","
",,96.0999999,run_exp/static/images/task_images/land.jpg,65,,,,,,,49,,,5,,,,,,,,118992,1,0,FALSE,,,
dig,116,467298,0.0-37.0-0.0,"""event"",""trial"",""time""
""fullscreenenter"",""1"",""3617""
","
","
","""event"",""trial"",""time""
""fullscreenenter"",""1"",""3617""
","
",,,,,,,,,,,,"[{""stimulus"":""run_exp/static/images/task_images/dig.jpg"",""time"":0.2999999523162842},{""stimulus"":""run_exp/static/images/task_images/land.jpg"",""time"":977},{""stimulus"":""run_exp/static/images/task_images/dig.jpg"",""time"":1943.3999999761581}]",[],5,,,,,,,,,,,,,,
harvest,117,468302,0.0-37.0-1.0,"""event"",""trial"",""time""
""fullscreenenter"",""1"",""3617""
","
","
","""event"",""trial"",""time""
""fullscreenenter"",""1"",""3617""
","
",,null,run_exp/static/images/task_images/gems/49.jpg,null,,,,,,,27,,,5,,,,,49,0.554793562,0.551020408,,,,,,,
decision,118,468482,0.0-37.0-2.0,"""event"",""trial"",""time""
""fullscreenenter"",""1"",""3617""
","
","
","""event"",""trial"",""time""
""fullscreenenter"",""1"",""3617""
","
",,177.2,run_exp/static/images/task_images/land.jpg,65,,,,,,,27,,,5,,,,,,,,123085,1,1,FALSE,,,
dig,119,471317,0.0-38.0-0.0,"""event"",""trial"",""time""
""fullscreenenter"",""1"",""3617""
","
","
","""event"",""trial"",""time""
""fullscreenenter"",""1"",""3617""
","
",,,,,,,,,,,,"[{""stimulus"":""run_exp/static/images/task_images/dig.jpg"",""time"":0.30000007152557373},{""stimulus"":""run_exp/static/images/task_images/land.jpg"",""time"":943.1000000238419},{""stimulus"":""run_exp/static/images/task_images/dig.jpg"",""time"":1893.7000000476837}]",[],5,,,,,,,,,,,,,,
harvest,120,472320,0.0-38.0-1.0,"""event"",""trial"",""time""
""fullscreenenter"",""1"",""3617""
","
","
","""event"",""trial"",""time""
""fullscreenenter"",""1"",""3617""
","
",,null,run_exp/static/images/task_images/gems/27.jpg,null,,,,,,,12,,,5,,,,,27,0.436119175,0.444444444,,,,,,,
decision,121,473033,0.0-38.0-2.0,"""event"",""trial"",""time""
""fullscreenenter"",""1"",""3617""
","
","
","""event"",""trial"",""time""
""fullscreenenter"",""1"",""3617""
","
",,711.1,run_exp/static/images/task_images/land.jpg,76,,,,,,,12,,,5,,,,,,,,127636,1,2,TRUE,,,
travel,122,482345,0.0-39.0-0.0,"""event"",""trial"",""time""
""fullscreenenter"",""1"",""3617""
","
","
","""event"",""trial"",""time""
""fullscreenenter"",""1"",""3617""
","
",,,,,,,,,,,,"[{""stimulus"":""run_exp/static/images/task_images/rocket-01.jpg"",""time"":0.20000004768371582},{""stimulus"":""run_exp/static/images/task_images/rocket-02.jpg"",""time"":1039.7000000476837},{""stimulus"":""run_exp/static/images/task_images/rocket-03.jpg"",""time"":2073.2999999523163},{""stimulus"":""run_exp/static/images/task_images/rocket-04.jpg"",""time"":3102.7000000476837},{""stimulus"":""run_exp/static/images/task_images/rocket-05.jpg"",""time"":4136.100000023842},{""stimulus"":""run_exp/static/images/task_images/rocket-06.jpg"",""time"":5162.799999952316},{""stimulus"":""run_exp/static/images/task_images/rocket-07.jpg"",""time"":6200.5},{""stimulus"":""run_exp/static/images/task_images/rocket-08.jpg"",""time"":7230.200000047684},{""stimulus"":""run_exp/static/images/task_images/rocket-09.jpg"",""time"":8262.799999952316}]",[],5,,,,,,,,,,,,,,
alien_welcome,123,487354,0.0-39.0-1.0,"""event"",""trial"",""time""
""fullscreenenter"",""1"",""3617""
","
","
","""event"",""trial"",""time""
""fullscreenenter"",""1"",""3617""
","
",,null,run_exp/static/images/task_images/aliens/old_aliens/planet/alien_planet-80.jpg,null,,,,,,,,,,,,,80,"6,74,30,37,23,80,62,22,28,66,19,12,54,11,50,10,41,16,18,9,60,52,75,73,46,56,43,61,3,15,78,49,70,53,51,68,44,79,25",,,,,,,,,,
land,124,487856,0.0-39.0-2.0,"""event"",""trial"",""time""
""fullscreenenter"",""1"",""3617""
","
","
","""event"",""trial"",""time""
""fullscreenenter"",""1"",""3617""
","
",,null,run_exp/static/images/task_images/land.jpg,null,,,,,,,101,,,6,,,,,,,,,,,,,,
dig,125,489868,0.0-39.0-3.0,"""event"",""trial"",""time""
""fullscreenenter"",""1"",""3617""
","
","
","""event"",""trial"",""time""
""fullscreenenter"",""1"",""3617""
","
",,,,,,,,,,,,"[{""stimulus"":""run_exp/static/images/task_images/dig.jpg"",""time"":0.3999999761581421},{""stimulus"":""run_exp/static/images/task_images/land.jpg"",""time"":669},{""stimulus"":""run_exp/static/images/task_images/dig.jpg"",""time"":1341.8999999761581}]",[],6,,,,,,,,,,,,,,
harvest,126,490881,0.0-39.0-4.0,"""event"",""trial"",""time""
""fullscreenenter"",""1"",""3617""
","
","
","""event"",""trial"",""time""
""fullscreenenter"",""1"",""3617""
","
",,null,run_exp/static/images/task_images/gems/101.jpg,null,,,,,,,83,,,6,,,,,101,0.820208242,0.821782178,,,,,,,
decision,127,491224,0.0-39.0-5.0,"""event"",""trial"",""time""
""fullscreenenter"",""1"",""3617""
","
","
","""event"",""trial"",""time""
""fullscreenenter"",""1"",""3617""
","
",,341.4,run_exp/static/images/task_images/land.jpg,65,,,,,,,83,,,6,,,,,,,,145827,1,0,FALSE,,,
dig,128,493898,0.0-40.0-0.0,"""event"",""trial"",""time""
""fullscreenenter"",""1"",""3617""
","
","
","""event"",""trial"",""time""
""fullscreenenter"",""1"",""3617""
","
",,,,,,,,,,,,"[{""stimulus"":""run_exp/static/images/task_images/dig.jpg"",""time"":0.30000007152557373},{""stimulus"":""run_exp/static/images/task_images/land.jpg"",""time"":890.7000000476837},{""stimulus"":""run_exp/static/images/task_images/dig.jpg"",""time"":1775.8000000715256}]",[],6,,,,,,,,,,,,,,
harvest,129,494903,0.0-40.0-1.0,"""event"",""trial"",""time""
""fullscreenenter"",""1"",""3617""
","
","
","""event"",""trial"",""time""
""fullscreenenter"",""1"",""3617""
","
",,null,run_exp/static/images/task_images/gems/83.jpg,null,,,,,,,70,,,6,,,,,83,0.839743916,0.843373494,,,,,,,
decision,130,494966,0.0-40.0-2.0,"""event"",""trial"",""time""
""fullscreenenter"",""1"",""3617""
","
","
","""event"",""trial"",""time""
""fullscreenenter"",""1"",""3617""
","
",,60.5,run_exp/static/images/task_images/land.jpg,65,,,,,,,70,,,6,,,,,,,,149569,1,1,FALSE,,,
dig,131,497910,0.0-41.0-0.0,"""event"",""trial"",""time""
""fullscreenenter"",""1"",""3617""
","
","
","""event"",""trial"",""time""
""fullscreenenter"",""1"",""3617""
","
",,,,,,,,,,,,"[{""stimulus"":""run_exp/static/images/task_images/dig.jpg"",""time"":0.19999992847442627},{""stimulus"":""run_exp/static/images/task_images/land.jpg"",""time"":989.5},{""stimulus"":""run_exp/static/images/task_images/dig.jpg"",""time"":1965}]",[],6,,,,,,,,,,,,,,
harvest,132,498917,0.0-41.0-1.0,"""event"",""trial"",""time""
""fullscreenenter"",""1"",""3617""
","
","
","""event"",""trial"",""time""
""fullscreenenter"",""1"",""3617""
","
",,null,run_exp/static/images/task_images/gems/70.jpg,null,,,,,,,56,,,6,,,,,70,0.805228906,0.8,,,,,,,
decision,133,499092,0.0-41.0-2.0,"""event"",""trial"",""time""
""fullscreenenter"",""1"",""3617""
","
","
","""event"",""trial"",""time""
""fullscreenenter"",""1"",""3617""
","
",,172.2,run_exp/static/images/task_images/land.jpg,65,,,,,,,56,,,6,,,,,,,,153695,1,2,FALSE,,,
dig,134,501929,0.0-42.0-0.0,"""event"",""trial"",""time""
""fullscreenenter"",""1"",""3617""
","
","
","""event"",""trial"",""time""
""fullscreenenter"",""1"",""3617""
","
",,,,,,,,,,,,"[{""stimulus"":""run_exp/static/images/task_images/dig.jpg"",""time"":0.3999999761581421},{""stimulus"":""run_exp/static/images/task_images/land.jpg"",""time"":946},{""stimulus"":""run_exp/static/images/task_images/dig.jpg"",""time"":1888.0999999046326}]",[],6,,,,,,,,,,,,,,
harvest,135,502935,0.0-42.0-1.0,"""event"",""trial"",""time""
""fullscreenenter"",""1"",""3617""
","
","
","""event"",""trial"",""time""
""fullscreenenter"",""1"",""3617""
","
",,null,run_exp/static/images/task_images/gems/56.jpg,null,,,,,,,48,,,6,,,,,56,0.864528887,0.857142857,,,,,,,
decision,136,502981,0.0-42.0-2.0,"""event"",""trial"",""time""
""fullscreenenter"",""1"",""3617""
","
","
","""event"",""trial"",""time""
""fullscreenenter"",""1"",""3617""
","
",,43.69999993,run_exp/static/images/task_images/land.jpg,65,,,,,,,48,,,6,,,,,,,,157584,1,3,FALSE,,,
dig,137,505951,0.0-43.0-0.0,"""event"",""trial"",""time""
""fullscreenenter"",""1"",""3617""
","
","
","""event"",""trial"",""time""
""fullscreenenter"",""1"",""3617""
","
",,,,,,,,,,,,"[{""stimulus"":""run_exp/static/images/task_images/dig.jpg"",""time"":0.19999992847442627},{""stimulus"":""run_exp/static/images/task_images/land.jpg"",""time"":988.2999999523163},{""stimulus"":""run_exp/static/images/task_images/dig.jpg"",""time"":1984.5999999046326}]",[],6,,,,,,,,,,,,,,
harvest,138,506958,0.0-43.0-1.0,"""event"",""trial"",""time""
""fullscreenenter"",""1"",""3617""
","
","
","""event"",""trial"",""time""
""fullscreenenter"",""1"",""3617""
","
",,null,run_exp/static/images/task_images/gems/48.jpg,null,,,,,,,38,,,6,,,,,48,0.794944261,0.791666667,,,,,,,
decision,139,507119,0.0-43.0-2.0,"""event"",""trial"",""time""
""fullscreenenter"",""1"",""3617""
","
","
","""event"",""trial"",""time""
""fullscreenenter"",""1"",""3617""
","
",,159.3000001,run_exp/static/images/task_images/land.jpg,65,,,,,,,38,,,6,,,,,,,,161722,1,4,FALSE,,,
dig,140,509971,0.0-44.0-0.0,"""event"",""trial"",""time""
""fullscreenenter"",""1"",""3617""
","
","
","""event"",""trial"",""time""
""fullscreenenter"",""1"",""3617""
","
",,,,,,,,,,,,"[{""stimulus"":""run_exp/static/images/task_images/dig.jpg"",""time"":0.19999992847442627},{""stimulus"":""run_exp/static/images/task_images/land.jpg"",""time"":949.0999999046326},{""stimulus"":""run_exp/static/images/task_images/dig.jpg"",""time"":1895.6999999284744}]",[],6,,,,,,,,,,,,,,
harvest,141,510978,0.0-44.0-1.0,"""event"",""trial"",""time""
""fullscreenenter"",""1"",""3617""
","
","
","""event"",""trial"",""time""
""fullscreenenter"",""1"",""3617""
","
",,null,run_exp/static/images/task_images/gems/38.jpg,null,,,,,,,28,,,6,,,,,38,0.725596038,0.736842105,,,,,,,
decision,142,511075,0.0-44.0-2.0,"""event"",""trial"",""time""
""fullscreenenter"",""1"",""3617""
","
","
","""event"",""trial"",""time""
""fullscreenenter"",""1"",""3617""
","
",,95.29999995,run_exp/static/images/task_images/land.jpg,65,,,,,,,28,,,6,,,,,,,,165678,1,5,FALSE,,,
dig,143,513991,0.0-45.0-0.0,"""event"",""trial"",""time""
""fullscreenenter"",""1"",""3617""
","
","
","""event"",""trial"",""time""
""fullscreenenter"",""1"",""3617""
","
",,,,,,,,,,,,"[{""stimulus"":""run_exp/static/images/task_images/dig.jpg"",""time"":0.30000007152557373},{""stimulus"":""run_exp/static/images/task_images/land.jpg"",""time"":970.7000000476837},{""stimulus"":""run_exp/static/images/task_images/dig.jpg"",""time"":1944.5}]",[],6,,,,,,,,,,,,,,
harvest,144,514995,0.0-45.0-1.0,"""event"",""trial"",""time""
""fullscreenenter"",""1"",""3617""
","
","
","""event"",""trial"",""time""
""fullscreenenter"",""1"",""3617""
","
",,null,run_exp/static/images/task_images/gems/28.jpg,null,,,,,,,21,,,6,,,,,28,0.763167993,0.75,,,,,,,
decision,145,515020,0.0-45.0-2.0,"""event"",""trial"",""time""
""fullscreenenter"",""1"",""3617""
","
","
","""event"",""trial"",""time""
""fullscreenenter"",""1"",""3617""
","
",,23.70000005,run_exp/static/images/task_images/land.jpg,65,,,,,,,21,,,6,,,,,,,,169624,1,6,FALSE,,,
dig,146,518012,0.0-46.0-0.0,"""event"",""trial"",""time""
""fullscreenenter"",""1"",""3617""
","
","
","""event"",""trial"",""time""
""fullscreenenter"",""1"",""3617""
","
",,,,,,,,,,,,"[{""stimulus"":""run_exp/static/images/task_images/dig.jpg"",""time"":0.20000004768371582},{""stimulus"":""run_exp/static/images/task_images/land.jpg"",""time"":1004.6000000238419},{""stimulus"":""run_exp/static/images/task_images/dig.jpg"",""time"":1986.3999999761581}]",[],6,,,,,,,,,,,,,,
harvest,147,519027,0.0-46.0-1.0,"""event"",""trial"",""time""
""fullscreenenter"",""1"",""3617""
","
","
","""event"",""trial"",""time""
""fullscreenenter"",""1"",""3617""
","
",,null,run_exp/static/images/task_images/gems/21.jpg,null,,,,,,,17,,,6,,,,,21,0.78735826,0.80952381,,,,,,,
decision,148,519136,0.0-46.0-2.0,"""event"",""trial"",""time""
""fullscreenenter"",""1"",""3617""
","
","
","""event"",""trial"",""time""
""fullscreenenter"",""1"",""3617""
","
",,105.7,run_exp/static/images/task_images/land.jpg,65,,,,,,,17,,,6,,,,,,,,173740,1,7,FALSE,,,
dig,149,522039,0.0-47.0-0.0,"""event"",""trial"",""time""
""fullscreenenter"",""1"",""3617""
","
","
","""event"",""trial"",""time""
""fullscreenenter"",""1"",""3617""
","
",,,,,,,,,,,,"[{""stimulus"":""run_exp/static/images/task_images/dig.jpg"",""time"":0.2999999523162842},{""stimulus"":""run_exp/static/images/task_images/land.jpg"",""time"":966.6999999284744},{""stimulus"":""run_exp/static/images/task_images/dig.jpg"",""time"":1938.0999999046326}]",[],6,,,,,,,,,,,,,,
harvest,150,523042,0.0-47.0-1.0,"""event"",""trial"",""time""
""fullscreenenter"",""1"",""3617""
","
","
","""event"",""trial"",""time""
""fullscreenenter"",""1"",""3617""
","
",,null,run_exp/static/images/task_images/gems/17.jpg,null,,,,,,,14,,,6,,,,,17,0.833311947,0.823529412,,,,,,,
decision,151,523325,0.0-47.0-2.0,"""event"",""trial"",""time""
""fullscreenenter"",""1"",""3617""
","
","
","""event"",""trial"",""time""
""fullscreenenter"",""1"",""3617""
","
",,281.4,run_exp/static/images/task_images/land.jpg,76,,,,,,,14,,,6,,,,,,,,177928,1,8,TRUE,,,
travel,152,533044,0.0-48.0-0.0,"""event"",""trial"",""time""
""fullscreenenter"",""1"",""3617""
","
","
","""event"",""trial"",""time""
""fullscreenenter"",""1"",""3617""
","
",,,,,,,,,,,,"[{""stimulus"":""run_exp/static/images/task_images/rocket-01.jpg"",""time"":0.30000007152557373},{""stimulus"":""run_exp/static/images/task_images/rocket-02.jpg"",""time"":1081.8000000715256},{""stimulus"":""run_exp/static/images/task_images/rocket-03.jpg"",""time"":2166.2000000476837},{""stimulus"":""run_exp/static/images/task_images/rocket-04.jpg"",""time"":3238.8000000715256},{""stimulus"":""run_exp/static/images/task_images/rocket-05.jpg"",""time"":4327.900000095367},{""stimulus"":""run_exp/static/images/task_images/rocket-06.jpg"",""time"":5409.900000095367},{""stimulus"":""run_exp/static/images/task_images/rocket-07.jpg"",""time"":6479.100000023842},{""stimulus"":""run_exp/static/images/task_images/rocket-08.jpg"",""time"":7559.200000047684},{""stimulus"":""run_exp/static/images/task_images/rocket-09.jpg"",""time"":8647.900000095367}]",[],6,,,,,,,,,,,,,,
alien_welcome,153,538056,0.0-48.0-1.0,"""event"",""trial"",""time""
""fullscreenenter"",""1"",""3617""
","
","
","""event"",""trial"",""time""
""fullscreenenter"",""1"",""3617""
","
",,null,run_exp/static/images/task_images/aliens/old_aliens/planet/alien_planet-62.jpg,null,,,,,,,,,,,,,62,"6,74,30,37,23,80,62,22,28,66,19,12,54,11,50,10,41,16,18,9,60,52,75,73,46,56,43,61,3,15,78,49,70,53,51,68,44,79,25",,,,,,,,,,
land,154,538564,0.0-48.0-2.0,"""event"",""trial"",""time""
""fullscreenenter"",""1"",""3617""
","
","
","""event"",""trial"",""time""
""fullscreenenter"",""1"",""3617""
","
",,null,run_exp/static/images/task_images/land.jpg,null,,,,,,,100,,,7,,,,,,,,,,,,,,
dig,155,540584,0.0-48.0-3.0,"""event"",""trial"",""time""
""fullscreenenter"",""1"",""3617""
","
","
","""event"",""trial"",""time""
""fullscreenenter"",""1"",""3617""
","
",,,,,,,,,,,,"[{""stimulus"":""run_exp/static/images/task_images/dig.jpg"",""time"":0.3999999761581421},{""stimulus"":""run_exp/static/images/task_images/land.jpg"",""time"":674.3999999761581},{""stimulus"":""run_exp/static/images/task_images/dig.jpg"",""time"":1341.3000000715256}]",[],7,,,,,,,,,,,,,,
harvest,156,541588,0.0-48.0-4.0,"""event"",""trial"",""time""
""fullscreenenter"",""1"",""3617""
","
","
","""event"",""trial"",""time""
""fullscreenenter"",""1"",""3617""
","
",,null,run_exp/static/images/task_images/gems/100.jpg,null,,,,,,,87,,,7,,,,,100,0.87197103,0.87,,,,,,,
decision,157,541691,0.0-48.0-5.0,"""event"",""trial"",""time""
""fullscreenenter"",""1"",""3617""
","
","
","""event"",""trial"",""time""
""fullscreenenter"",""1"",""3617""
","
",,101.5,run_exp/static/images/task_images/land.jpg,65,,,,,,,87,,,7,,,,,,,,196294,1,0,FALSE,,,
dig,158,544599,0.0-49.0-0.0,"""event"",""trial"",""time""
""fullscreenenter"",""1"",""3617""
","
","
","""event"",""trial"",""time""
""fullscreenenter"",""1"",""3617""
","
",,,,,,,,,,,,"[{""stimulus"":""run_exp/static/images/task_images/dig.jpg"",""time"":0.19999992847442627},{""stimulus"":""run_exp/static/images/task_images/land.jpg"",""time"":977.5999999046326},{""stimulus"":""run_exp/static/images/task_images/dig.jpg"",""time"":1938.5999999046326}]",[],7,,,,,,,,,,,,,,
harvest,159,545615,0.0-49.0-1.0,"""event"",""trial"",""time""
""fullscreenenter"",""1"",""3617""
","
","
","""event"",""trial"",""time""
""fullscreenenter"",""1"",""3617""
","
",,null,run_exp/static/images/task_images/gems/87.jpg,null,,,,,,,68,,,7,,,,,87,0.784574188,0.781609195,,,,,,,
decision,160,545693,0.0-49.0-2.0,"""event"",""trial"",""time""
""fullscreenenter"",""1"",""3617""
","
","
","""event"",""trial"",""time""
""fullscreenenter"",""1"",""3617""
","
",,75.80000007,run_exp/static/images/task_images/land.jpg,65,,,,,,,68,,,7,,,,,,,,200296,1,1,FALSE,,,
dig,161,548620,0.0-50.0-0.0,"""event"",""trial"",""time""
""fullscreenenter"",""1"",""3617""
","
","
","""event"",""trial"",""time""
""fullscreenenter"",""1"",""3617""
","
",,,,,,,,,,,,"[{""stimulus"":""run_exp/static/images/task_images/dig.jpg"",""time"":0.2999999523162842},{""stimulus"":""run_exp/static/images/task_images/land.jpg"",""time"":985.1999999284744},{""stimulus"":""run_exp/static/images/task_images/dig.jpg"",""time"":1956.1000000238419}]",[],7,,,,,,,,,,,,,,
harvest,162,549623,0.0-50.0-1.0,"""event"",""trial"",""time""
""fullscreenenter"",""1"",""3617""
","
","
","""event"",""trial"",""time""
""fullscreenenter"",""1"",""3617""
","
",,null,run_exp/static/images/task_images/gems/68.jpg,null,,,,,,,61,,,7,,,,,68,0.898192407,0.897058824,,,,,,,
decision,163,549734,0.0-50.0-2.0,"""event"",""trial"",""time""
""fullscreenenter"",""1"",""3617""
","
","
","""event"",""trial"",""time""
""fullscreenenter"",""1"",""3617""
","
",,108.9,run_exp/static/images/task_images/land.jpg,65,,,,,,,61,,,7,,,,,,,,204337,1,2,FALSE,,,
dig,164,552633,0.0-51.0-0.0,"""event"",""trial"",""time""
""fullscreenenter"",""1"",""3617""
","
","
","""event"",""trial"",""time""
""fullscreenenter"",""1"",""3617""
","
",,,,,,,,,,,,"[{""stimulus"":""run_exp/static/images/task_images/dig.jpg"",""time"":0.2999999523162842},{""stimulus"":""run_exp/static/images/task_images/land.jpg"",""time"":968},{""stimulus"":""run_exp/static/images/task_images/dig.jpg"",""time"":1934.2999999523163}]",[],7,,,,,,,,,,,,,,
harvest,165,553639,0.0-51.0-1.0,"""event"",""trial"",""time""
""fullscreenenter"",""1"",""3617""
","
","
","""event"",""trial"",""time""
""fullscreenenter"",""1"",""3617""
","
",,null,run_exp/static/images/task_images/gems/61.jpg,null,,,,,,,46,,,7,,,,,61,0.747881018,0.754098361,,,,,,,
decision,166,553945,0.0-51.0-2.0,"""event"",""trial"",""time""
""fullscreenenter"",""1"",""3617""
","
","
","""event"",""trial"",""time""
""fullscreenenter"",""1"",""3617""
","
",,304.7,run_exp/static/images/task_images/land.jpg,65,,,,,,,46,,,7,,,,,,,,208549,1,3,FALSE,,,
dig,167,556649,0.0-52.0-0.0,"""event"",""trial"",""time""
""fullscreenenter"",""1"",""3617""
","
","
","""event"",""trial"",""time""
""fullscreenenter"",""1"",""3617""
","
",,,,,,,,,,,,"[{""stimulus"":""run_exp/static/images/task_images/dig.jpg"",""time"":0.2999999523162842},{""stimulus"":""run_exp/static/images/task_images/land.jpg"",""time"":910.7999999523163},{""stimulus"":""run_exp/static/images/task_images/dig.jpg"",""time"":1801.5}]",[],7,,,,,,,,,,,,,,
harvest,168,557651,0.0-52.0-1.0,"""event"",""trial"",""time""
""fullscreenenter"",""1"",""3617""
","
","
","""event"",""trial"",""time""
""fullscreenenter"",""1"",""3617""
","
",,null,run_exp/static/images/task_images/gems/46.jpg,null,,,,,,,40,,,7,,,,,46,0.866777877,0.869565217,,,,,,,
decision,169,557785,0.0-52.0-2.0,"""event"",""trial"",""time""
""fullscreenenter"",""1"",""3617""
","
","
","""event"",""trial"",""time""
""fullscreenenter"",""1"",""3617""
","
",,131.0999999,run_exp/static/images/task_images/land.jpg,65,,,,,,,40,,,7,,,,,,,,212388,1,4,FALSE,,,
dig,170,560660,0.0-53.0-0.0,"""event"",""trial"",""time""
""fullscreenenter"",""1"",""3617""
","
","
","""event"",""trial"",""time""
""fullscreenenter"",""1"",""3617""
","
",,,,,,,,,,,,"[{""stimulus"":""run_exp/static/images/task_images/dig.jpg"",""time"":0.20000004768371582},{""stimulus"":""run_exp/static/images/task_images/land.jpg"",""time"":961.2000000476837},{""stimulus"":""run_exp/static/images/task_images/dig.jpg"",""time"":1919.7000000476837}]",[],7,,,,,,,,,,,,,,
harvest,171,561676,0.0-53.0-1.0,"""event"",""trial"",""time""
""fullscreenenter"",""1"",""3617""
","
","
","""event"",""trial"",""time""
""fullscreenenter"",""1"",""3617""
","
",,null,run_exp/static/images/task_images/gems/40.jpg,null,,,,,,,31,,,7,,,,,40,0.771128176,0.775,,,,,,,
decision,172,561736,0.0-53.0-2.0,"""event"",""trial"",""time""
""fullscreenenter"",""1"",""3617""
","
","
","""event"",""trial"",""time""
""fullscreenenter"",""1"",""3617""
","
",,57.80000007,run_exp/static/images/task_images/land.jpg,65,,,,,,,31,,,7,,,,,,,,216339,1,5,FALSE,,,
dig,173,564689,0.0-54.0-0.0,"""event"",""trial"",""time""
""fullscreenenter"",""1"",""3617""
","
","
","""event"",""trial"",""time""
""fullscreenenter"",""1"",""3617""
","
",,,,,,,,,,,,"[{""stimulus"":""run_exp/static/images/task_images/dig.jpg"",""time"":0.2999999523162842},{""stimulus"":""run_exp/static/images/task_images/land.jpg"",""time"":989.1000000238419},{""stimulus"":""run_exp/static/images/task_images/dig.jpg"",""time"":1968.2000000476837}]",[],7,,,,,,,,,,,,,,
harvest,174,565703,0.0-54.0-1.0,"""event"",""trial"",""time""
""fullscreenenter"",""1"",""3617""
","
","
","""event"",""trial"",""time""
""fullscreenenter"",""1"",""3617""
","
",,null,run_exp/static/images/task_images/gems/31.jpg,null,,,,,,,27,,,7,,,,,31,0.883807908,0.870967742,,,,,,,
decision,175,565931,0.0-54.0-2.0,"""event"",""trial"",""time""
""fullscreenenter"",""1"",""3617""
","
","
","""event"",""trial"",""time""
""fullscreenenter"",""1"",""3617""
","
",,226.3000001,run_exp/static/images/task_images/land.jpg,65,,,,,,,27,,,7,,,,,,,,220534,1,6,FALSE,,,
dig,176,568719,0.0-55.0-0.0,"""event"",""trial"",""time""
""fullscreenenter"",""1"",""3617""
","
","
","""event"",""trial"",""time""
""fullscreenenter"",""1"",""3617""
","
",,,,,,,,,,,,"[{""stimulus"":""run_exp/static/images/task_images/dig.jpg"",""time"":0.19999992847442627},{""stimulus"":""run_exp/static/images/task_images/land.jpg"",""time"":926.6999999284744},{""stimulus"":""run_exp/static/images/task_images/dig.jpg"",""time"":1854.1999999284744}]",[],7,,,,,,,,,,,,,,
harvest,177,569728,0.0-55.0-1.0,"""event"",""trial"",""time""
""fullscreenenter"",""1"",""3617""
","
","
","""event"",""trial"",""time""
""fullscreenenter"",""1"",""3617""
","
",,null,run_exp/static/images/task_images/gems/27.jpg,null,,,,,,,19,,,7,,,,,27,0.721015708,0.703703704,,,,,,,
decision,178,569754,0.0-55.0-2.0,"""event"",""trial"",""time""
""fullscreenenter"",""1"",""3617""
","
","
","""event"",""trial"",""time""
""fullscreenenter"",""1"",""3617""
","
",,24.10000002,run_exp/static/images/task_images/land.jpg,65,,,,,,,19,,,7,,,,,,,,224357,1,7,FALSE,,,
dig,179,572738,0.0-56.0-0.0,"""event"",""trial"",""time""
""fullscreenenter"",""1"",""3617""
","
","
","""event"",""trial"",""time""
""fullscreenenter"",""1"",""3617""
","
",,,,,,,,,,,,"[{""stimulus"":""run_exp/static/images/task_images/dig.jpg"",""time"":0.20000004768371582},{""stimulus"":""run_exp/static/images/task_images/land.jpg"",""time"":999.5},{""stimulus"":""run_exp/static/images/task_images/dig.jpg"",""time"":1983.8999999761581}]",[],7,,,,,,,,,,,,,,
harvest,180,573748,0.0-56.0-1.0,"""event"",""trial"",""time""
""fullscreenenter"",""1"",""3617""
","
","
","""event"",""trial"",""time""
""fullscreenenter"",""1"",""3617""
","
",,null,run_exp/static/images/task_images/gems/19.jpg,null,,,,,,,17,,,7,,,,,19,0.883630157,0.894736842,,,,,,,
decision,181,573984,0.0-56.0-2.0,"""event"",""trial"",""time""
""fullscreenenter"",""1"",""3617""
","
","
","""event"",""trial"",""time""
""fullscreenenter"",""1"",""3617""
","
",,234.4,run_exp/static/images/task_images/land.jpg,65,,,,,,,17,,,7,,,,,,,,228587,1,8,FALSE,,,
dig,182,576757,0.0-57.0-0.0,"""event"",""trial"",""time""
""fullscreenenter"",""1"",""3617""
","
","
","""event"",""trial"",""time""
""fullscreenenter"",""1"",""3617""
","
",,,,,,,,,,,,"[{""stimulus"":""run_exp/static/images/task_images/dig.jpg"",""time"":0.20000004768371582},{""stimulus"":""run_exp/static/images/task_images/land.jpg"",""time"":929},{""stimulus"":""run_exp/static/images/task_images/dig.jpg"",""time"":1850.5}]",[],7,,,,,,,,,,,,,,
harvest,183,577759,0.0-57.0-1.0,"""event"",""trial"",""time""
""fullscreenenter"",""1"",""3617""
","
","
","""event"",""trial"",""time""
""fullscreenenter"",""1"",""3617""
","
",,null,run_exp/static/images/task_images/gems/17.jpg,null,,,,,,,16,,,7,,,,,17,0.918585876,0.941176471,,,,,,,
decision,184,577989,0.0-57.0-2.0,"""event"",""trial"",""time""
""fullscreenenter"",""1"",""3617""
","
","
","""event"",""trial"",""time""
""fullscreenenter"",""1"",""3617""
","
",,228,run_exp/static/images/task_images/land.jpg,76,,,,,,,16,,,7,,,,,,,,232592,1,9,TRUE,,,
travel,185,587764,0.0-58.0-0.0,"""event"",""trial"",""time""
""fullscreenenter"",""1"",""3617""
","
","
","""event"",""trial"",""time""
""fullscreenenter"",""1"",""3617""
","
",,,,,,,,,,,,"[{""stimulus"":""run_exp/static/images/task_images/rocket-01.jpg"",""time"":0.19999992847442627},{""stimulus"":""run_exp/static/images/task_images/rocket-02.jpg"",""time"":1095},{""stimulus"":""run_exp/static/images/task_images/rocket-03.jpg"",""time"":2187.600000023842},{""stimulus"":""run_exp/static/images/task_images/rocket-04.jpg"",""time"":3262},{""stimulus"":""run_exp/static/images/task_images/rocket-05.jpg"",""time"":4341.399999976158},{""stimulus"":""run_exp/static/images/task_images/rocket-06.jpg"",""time"":5443.299999952316},{""stimulus"":""run_exp/static/images/task_images/rocket-07.jpg"",""time"":6511.699999928474},{""stimulus"":""run_exp/static/images/task_images/rocket-08.jpg"",""time"":7597.100000023842},{""stimulus"":""run_exp/static/images/task_images/rocket-09.jpg"",""time"":8692.5}]",[],7,,,,,,,,,,,,,,
alien_welcome,186,592768,0.0-58.0-1.0,"""event"",""trial"",""time""
""fullscreenenter"",""1"",""3617""
","
","
","""event"",""trial"",""time""
""fullscreenenter"",""1"",""3617""
","
",,null,run_exp/static/images/task_images/aliens/old_aliens/planet/alien_planet-22.jpg,null,,,,,,,,,,,,,22,"6,74,30,37,23,80,62,22,28,66,19,12,54,11,50,10,41,16,18,9,60,52,75,73,46,56,43,61,3,15,78,49,70,53,51,68,44,79,25",,,,,,,,,,
land,187,593278,0.0-58.0-2.0,"""event"",""trial"",""time""
""fullscreenenter"",""1"",""3617""
","
","
","""event"",""trial"",""time""
""fullscreenenter"",""1"",""3617""
","
",,null,run_exp/static/images/task_images/land.jpg,null,,,,,,,103,,,8,,,,,,,,,,,,,,
dig,188,595285,0.0-58.0-3.0,"""event"",""trial"",""time""
""fullscreenenter"",""1"",""3617""
","
","
","""event"",""trial"",""time""
""fullscreenenter"",""1"",""3617""
","
",,,,,,,,,,,,"[{""stimulus"":""run_exp/static/images/task_images/dig.jpg"",""time"":0.2999999523162842},{""stimulus"":""run_exp/static/images/task_images/land.jpg"",""time"":669.8999999761581},{""stimulus"":""run_exp/static/images/task_images/dig.jpg"",""time"":1343.2999999523163}]",[],8,,,,,,,,,,,,,,
harvest,189,596294,0.0-58.0-4.0,"""event"",""trial"",""time""
""fullscreenenter"",""1"",""3617""
","
","
","""event"",""trial"",""time""
""fullscreenenter"",""1"",""3617""
","
",,null,run_exp/static/images/task_images/gems/103.jpg,null,,,,,,,89,,,8,,,,,103,0.864951073,0.86407767,,,,,,,
decision,190,596442,0.0-58.0-5.0,"""event"",""trial"",""time""
""fullscreenenter"",""1"",""3617""
","
","
","""event"",""trial"",""time""
""fullscreenenter"",""1"",""3617""
","
",,146.3,run_exp/static/images/task_images/land.jpg,65,,,,,,,89,,,8,,,,,,,,251045,1,0,FALSE,,,
dig,191,599302,0.0-59.0-0.0,"""event"",""trial"",""time""
""fullscreenenter"",""1"",""3617""
","
","
","""event"",""trial"",""time""
""fullscreenenter"",""1"",""3617""
","
",,,,,,,,,,,,"[{""stimulus"":""run_exp/static/images/task_images/dig.jpg"",""time"":0.19999992847442627},{""stimulus"":""run_exp/static/images/task_images/land.jpg"",""time"":955.5},{""stimulus"":""run_exp/static/images/task_images/dig.jpg"",""time"":1903.3999999761581}]",[],8,,,,,,,,,,,,,,
harvest,192,600320,0.0-59.0-1.0,"""event"",""trial"",""time""
""fullscreenenter"",""1"",""3617""
","
","
","""event"",""trial"",""time""
""fullscreenenter"",""1"",""3617""
","
",,null,run_exp/static/images/task_images/gems/89.jpg,null,,,,,,,72,,,8,,,,,89,0.80674797,0.808988764,,,,,,,
decision,193,600333,0.0-59.0-2.0,"""event"",""trial"",""time""
""fullscreenenter"",""1"",""3617""
","
","
","""event"",""trial"",""time""
""fullscreenenter"",""1"",""3617""
","
",,11.10000002,run_exp/static/images/task_images/land.jpg,65,,,,,,,72,,,8,,,,,,,,254936,1,1,FALSE,,,
dig,194,603338,0.0-60.0-0.0,"""event"",""trial"",""time""
""fullscreenenter"",""1"",""3617""
","
","
","""event"",""trial"",""time""
""fullscreenenter"",""1"",""3617""
","
",,,,,,,,,,,,"[{""stimulus"":""run_exp/static/images/task_images/dig.jpg"",""time"":0.20000004768371582},{""stimulus"":""run_exp/static/images/task_images/land.jpg"",""time"":1003.8999999761581},{""stimulus"":""run_exp/static/images/task_images/dig.jpg"",""time"":2000.5}]",[],8,,,,,,,,,,,,,,
harvest,195,604347,0.0-60.0-1.0,"""event"",""trial"",""time""
""fullscreenenter"",""1"",""3617""
","
","
","""event"",""trial"",""time""
""fullscreenenter"",""1"",""3617""
","
",,null,run_exp/static/images/task_images/gems/72.jpg,null,,,,,,,60,,,8,,,,,72,0.832370881,0.833333333,,,,,,,
decision,196,604569,0.0-60.0-2.0,"""event"",""trial"",""time""
""fullscreenenter"",""1"",""3617""
","
","
","""event"",""trial"",""time""
""fullscreenenter"",""1"",""3617""
","
",,219.9,run_exp/static/images/task_images/land.jpg,65,,,,,,,60,,,8,,,,,,,,259172,1,2,FALSE,,,
dig,197,607357,0.0-61.0-0.0,"""event"",""trial"",""time""
""fullscreenenter"",""1"",""3617""
","
","
","""event"",""trial"",""time""
""fullscreenenter"",""1"",""3617""
","
",,,,,,,,,,,,"[{""stimulus"":""run_exp/static/images/task_images/dig.jpg"",""time"":0.20000004768371582},{""stimulus"":""run_exp/static/images/task_images/land.jpg"",""time"":934},{""stimulus"":""run_exp/static/images/task_images/dig.jpg"",""time"":1854.6000000238419}]",[],8,,,,,,,,,,,,,,
harvest,198,608367,0.0-61.0-1.0,"""event"",""trial"",""time""
""fullscreenenter"",""1"",""3617""
","
","
","""event"",""trial"",""time""
""fullscreenenter"",""1"",""3617""
","
",,null,run_exp/static/images/task_images/gems/60.jpg,null,,,,,,,51,,,8,,,,,60,0.850934543,0.85,,,,,,,
decision,199,608496,0.0-61.0-2.0,"""event"",""trial"",""time""
""fullscreenenter"",""1"",""3617""
","
","
","""event"",""trial"",""time""
""fullscreenenter"",""1"",""3617""
","
",,126.7,run_exp/static/images/task_images/land.jpg,65,,,,,,,51,,,8,,,,,,,,263099,1,3,FALSE,,,
dig,200,611371,0.0-62.0-0.0,"""event"",""trial"",""time""
""fullscreenenter"",""1"",""3617""
","
","
","""event"",""trial"",""time""
""fullscreenenter"",""1"",""3617""
","
",,,,,,,,,,,,"[{""stimulus"":""run_exp/static/images/task_images/dig.jpg"",""time"":0.19999992847442627},{""stimulus"":""run_exp/static/images/task_images/land.jpg"",""time"":963.8999999761581},{""stimulus"":""run_exp/static/images/task_images/dig.jpg"",""time"":1921.2999999523163}]",[],8,,,,,,,,,,,,,,
harvest,201,612380,0.0-62.0-1.0,"""event"",""trial"",""time""
""fullscreenenter"",""1"",""3617""
","
","
","""event"",""trial"",""time""
""fullscreenenter"",""1"",""3617""
","
",,null,run_exp/static/images/task_images/gems/51.jpg,null,,,,,,,42,,,8,,,,,51,0.822166987,0.823529412,,,,,,,
decision,202,612490,0.0-62.0-2.0,"""event"",""trial"",""time""
""fullscreenenter"",""1"",""3617""
","
","
","""event"",""trial"",""time""
""fullscreenenter"",""1"",""3617""
","
",,109.0999999,run_exp/static/images/task_images/land.jpg,65,,,,,,,42,,,8,,,,,,,,267093,1,4,FALSE,,,
dig,203,615387,0.0-63.0-0.0,"""event"",""trial"",""time""
""fullscreenenter"",""1"",""3617""
","
","
","""event"",""trial"",""time""
""fullscreenenter"",""1"",""3617""
","
",,,,,,,,,,,,"[{""stimulus"":""run_exp/static/images/task_images/dig.jpg"",""time"":0.20000004768371582},{""stimulus"":""run_exp/static/images/task_images/land.jpg"",""time"":968.4000000953674},{""stimulus"":""run_exp/static/images/task_images/dig.jpg"",""time"":1937.4000000953674}]",[],8,,,,,,,,,,,,,,
harvest,204,616402,0.0-63.0-1.0,"""event"",""trial"",""time""
""fullscreenenter"",""1"",""3617""
","
","
","""event"",""trial"",""time""
""fullscreenenter"",""1"",""3617""
","
",,null,run_exp/static/images/task_images/gems/42.jpg,null,,,,,,,32,,,8,,,,,42,0.773143641,0.761904762,,,,,,,
decision,205,616665,0.0-63.0-2.0,"""event"",""trial"",""time""
""fullscreenenter"",""1"",""3617""
","
","
","""event"",""trial"",""time""
""fullscreenenter"",""1"",""3617""
","
",,261.4,run_exp/static/images/task_images/land.jpg,65,,,,,,,32,,,8,,,,,,,,271268,1,5,FALSE,,,
dig,206,619409,0.0-64.0-0.0,"""event"",""trial"",""time""
""fullscreenenter"",""1"",""3617""
","
","
","""event"",""trial"",""time""
""fullscreenenter"",""1"",""3617""
","
",,,,,,,,,,,,"[{""stimulus"":""run_exp/static/images/task_images/dig.jpg"",""time"":0.20000004768371582},{""stimulus"":""run_exp/static/images/task_images/land.jpg"",""time"":915.3999999761581},{""stimulus"":""run_exp/static/images/task_images/dig.jpg"",""time"":1829.2999999523163}]",[],8,,,,,,,,,,,,,,
harvest,207,620412,0.0-64.0-1.0,"""event"",""trial"",""time""
""fullscreenenter"",""1"",""3617""
","
","
","""event"",""trial"",""time""
""fullscreenenter"",""1"",""3617""
","
",,null,run_exp/static/images/task_images/gems/32.jpg,null,,,,,,,26,,,8,,,,,32,0.823532,0.8125,,,,,,,
decision,208,620432,0.0-64.0-2.0,"""event"",""trial"",""time""
""fullscreenenter"",""1"",""3617""
","
","
","""event"",""trial"",""time""
""fullscreenenter"",""1"",""3617""
","
",,18.70000005,run_exp/static/images/task_images/land.jpg,65,,,,,,,26,,,8,,,,,,,,275035,1,6,FALSE,,,
dig,209,623427,0.0-65.0-0.0,"""event"",""trial"",""time""
""fullscreenenter"",""1"",""3617""
","
","
","""event"",""trial"",""time""
""fullscreenenter"",""1"",""3617""
","
",,,,,,,,,,,,"[{""stimulus"":""run_exp/static/images/task_images/dig.jpg"",""time"":0.20000004768371582},{""stimulus"":""run_exp/static/images/task_images/land.jpg"",""time"":1001.6000000238419},{""stimulus"":""run_exp/static/images/task_images/dig.jpg"",""time"":1991.3999999761581}]",[],8,,,,,,,,,,,,,,
harvest,210,624432,0.0-65.0-1.0,"""event"",""trial"",""time""
""fullscreenenter"",""1"",""3617""
","
","
","""event"",""trial"",""time""
""fullscreenenter"",""1"",""3617""
","
",,null,run_exp/static/images/task_images/gems/26.jpg,null,,,,,,,21,,,8,,,,,26,0.79232704,0.807692308,,,,,,,
decision,211,625835,0.0-65.0-2.0,"""event"",""trial"",""time""
""fullscreenenter"",""1"",""3617""
","
","
","""event"",""trial"",""time""
""fullscreenenter"",""1"",""3617""
","
",,1401.3,run_exp/static/images/task_images/land.jpg,76,,,,,,,21,,,8,,,,,,,,280438,1,7,TRUE,,,
travel,212,634445,0.0-66.0-0.0,"""event"",""trial"",""time""
""fullscreenenter"",""1"",""3617""
","
","
","""event"",""trial"",""time""
""fullscreenenter"",""1"",""3617""
","
",,,,,,,,,,,,"[{""stimulus"":""run_exp/static/images/task_images/rocket-01.jpg"",""time"":0.2999999523162842},{""stimulus"":""run_exp/static/images/task_images/rocket-02.jpg"",""time"":957.6999999284744},{""stimulus"":""run_exp/static/images/task_images/rocket-03.jpg"",""time"":1922.6000000238419},{""stimulus"":""run_exp/static/images/task_images/rocket-04.jpg"",""time"":2878.899999976158},{""stimulus"":""run_exp/static/images/task_images/rocket-05.jpg"",""time"":3828.600000023842},{""stimulus"":""run_exp/static/images/task_images/rocket-06.jpg"",""time"":4782.600000023842},{""stimulus"":""run_exp/static/images/task_images/rocket-07.jpg"",""time"":5733.699999928474},{""stimulus"":""run_exp/static/images/task_images/rocket-08.jpg"",""time"":6690.100000023842},{""stimulus"":""run_exp/static/images/task_images/rocket-09.jpg"",""time"":7651.600000023842}]",[],8,,,,,,,,,,,,,,
alien_welcome,213,639449,0.0-66.0-1.0,"""event"",""trial"",""time""
""fullscreenenter"",""1"",""3617""
","
","
","""event"",""trial"",""time""
""fullscreenenter"",""1"",""3617""
","
",,null,run_exp/static/images/task_images/aliens/old_aliens/planet/alien_planet-28.jpg,null,,,,,,,,,,,,,28,"6,74,30,37,23,80,62,22,28,66,19,12,54,11,50,10,41,16,18,9,60,52,75,73,46,56,43,61,3,15,78,49,70,53,51,68,44,79,25",,,,,,,,,,
land,214,639964,0.0-66.0-2.0,"""event"",""trial"",""time""
""fullscreenenter"",""1"",""3617""
","
","
","""event"",""trial"",""time""
""fullscreenenter"",""1"",""3617""
","
",,null,run_exp/static/images/task_images/land.jpg,null,,,,,,,106,,,9,,,,,,,,,,,,,,
dig,215,641970,0.0-66.0-3.0,"""event"",""trial"",""time""
""fullscreenenter"",""1"",""3617""
","
","
","""event"",""trial"",""time""
""fullscreenenter"",""1"",""3617""
","
",,,,,,,,,,,,"[{""stimulus"":""run_exp/static/images/task_images/dig.jpg"",""time"":0.40000009536743164},{""stimulus"":""run_exp/static/images/task_images/land.jpg"",""time"":670.9000000953674},{""stimulus"":""run_exp/static/images/task_images/dig.jpg"",""time"":1336.9000000953674}]",[],9,,,,,,,,,,,,,,
harvest,216,642982,0.0-66.0-4.0,"""event"",""trial"",""time""
""fullscreenenter"",""1"",""3617""
","
","
","""event"",""trial"",""time""
""fullscreenenter"",""1"",""3617""
","
",,null,run_exp/static/images/task_images/gems/106.jpg,null,,,,,,,13,,,9,,,,,106,0.124288891,0.122641509,,,,,,,
decision,217,642984,0.0-66.0-5.0,"""event"",""trial"",""time""
""fullscreenenter"",""1"",""3617""
","
","
","""event"",""trial"",""time""
""fullscreenenter"",""1"",""3617""
","
",,0.600000024,run_exp/static/images/task_images/land.jpg,65,,,,,,,13,,,9,,,,,,,,297587,1,0,FALSE,,,
dig,218,645993,0.0-67.0-0.0,"""event"",""trial"",""time""
""fullscreenenter"",""1"",""3617""
","
","
","""event"",""trial"",""time""
""fullscreenenter"",""1"",""3617""
","
",,,,,,,,,,,,"[{""stimulus"":""run_exp/static/images/task_images/dig.jpg"",""time"":0.19999992847442627},{""stimulus"":""run_exp/static/images/task_images/land.jpg"",""time"":1003.8999999761581},{""stimulus"":""run_exp/static/images/task_images/dig.jpg"",""time"":2002.2999999523163}]",[],9,,,,,,,,,,,,,,
harvest,219,647000,0.0-67.0-1.0,"""event"",""trial"",""time""
""fullscreenenter"",""1"",""3617""
","
","
","""event"",""trial"",""time""
""fullscreenenter"",""1"",""3617""
","
",,null,run_exp/static/images/task_images/gems/13.jpg,null,,,,,,,2,,,9,,,,,13,0.170382726,0.153846154,,,,,,,
decision,220,647265,0.0-67.0-2.0,"""event"",""trial"",""time""
""fullscreenenter"",""1"",""3617""
","
","
","""event"",""trial"",""time""
""fullscreenenter"",""1"",""3617""
","
",,262.5,run_exp/static/images/task_images/land.jpg,65,,,,,,,2,,,9,,,,,,,,301868,1,1,TRUE,,,
end_of_block_continue,221,656183,0.0-68.0-0.0,"""event"",""trial"",""time""
""fullscreenenter"",""1"",""3617""
","
","
","""event"",""trial"",""time""
""fullscreenenter"",""1"",""3617""
","
",,null,run_exp/static/audio/clip_32_block_end.m4a,,,,,,,null,,,,,,,,,,,,,,,,,,
alien_welcome,222,661197,0.0-69.0-0.0,"""event"",""trial"",""time""
""fullscreenenter"",""1"",""3617""
","
","
","""event"",""trial"",""time""
""fullscreenenter"",""1"",""3617""
","
",,null,run_exp/static/images/task_images/aliens/old_aliens/planet/alien_planet-66.jpg,null,,,,,,,,,,,,,66,"6,74,30,37,23,80,62,22,28,66,19,12,54,11,50,10,41,16,18,9,60,52,75,73,46,56,43,61,3,15,78,49,70,53,51,68,44,79,25",,,,,,,,,,
land,223,661712,0.0-69.0-1.0,"""event"",""trial"",""time""
""fullscreenenter"",""1"",""3617""
","
","
","""event"",""trial"",""time""
""fullscreenenter"",""1"",""3617""
","
",,null,run_exp/static/images/task_images/land.jpg,null,,,,,,,107,,,10,,,,,,,,,,,,,,
dig,224,663719,0.0-69.0-2.0,"""event"",""trial"",""time""
""fullscreenenter"",""1"",""3617""
","
","
","""event"",""trial"",""time""
""fullscreenenter"",""1"",""3617""
","
",,,,,,,,,,,,"[{""stimulus"":""run_exp/static/images/task_images/dig.jpg"",""time"":0.3999999761581421},{""stimulus"":""run_exp/static/images/task_images/land.jpg"",""time"":673.1000000238419},{""stimulus"":""run_exp/static/images/task_images/dig.jpg"",""time"":1336.7000000476837}]",[],10,,,,,,,,,,,,,,
harvest,225,664721,0.0-69.0-3.0,"""event"",""trial"",""time""
""fullscreenenter"",""1"",""3617""
","
","
","""event"",""trial"",""time""
""fullscreenenter"",""1"",""3617""
","
",,null,run_exp/static/images/task_images/gems/107.jpg,null,,,,,,,23,,,10,,,,,107,0.211858976,0.214953271,,,,,,,
decision,226,665365,0.0-69.0-4.0,"""event"",""trial"",""time""
""fullscreenenter"",""1"",""3617""
","
","
","""event"",""trial"",""time""
""fullscreenenter"",""1"",""3617""
","
",,642.3,run_exp/static/images/task_images/land.jpg,65,,,,,,,23,,,10,,,,,,,,9176,2,0,FALSE,,,
dig,227,667734,0.0-70.0-0.0,"""event"",""trial"",""time""
""fullscreenenter"",""1"",""3617""
","
","
","""event"",""trial"",""time""
""fullscreenenter"",""1"",""3617""
","
",,,,,,,,,,,,"[{""stimulus"":""run_exp/static/images/task_images/dig.jpg"",""time"":0.2999999523162842},{""stimulus"":""run_exp/static/images/task_images/land.jpg"",""time"":790.1999999284744},{""stimulus"":""run_exp/static/images/task_images/dig.jpg"",""time"":1583}]",[],10,,,,,,,,,,,,,,
harvest,228,668737,0.0-70.0-1.0,"""event"",""trial"",""time""
""fullscreenenter"",""1"",""3617""
","
","
","""event"",""trial"",""time""
""fullscreenenter"",""1"",""3617""
","
",,null,run_exp/static/images/task_images/gems/23.jpg,null,,,,,,,4,,,10,,,,,23,0.166496173,0.173913043,,,,,,,
decision,229,669054,0.0-70.0-2.0,"""event"",""trial"",""time""
""fullscreenenter"",""1"",""3617""
","
","
","""event"",""trial"",""time""
""fullscreenenter"",""1"",""3617""
","
",,315.1,run_exp/static/images/task_images/land.jpg,76,,,,,,,4,,,10,,,,,,,,12865,2,1,TRUE,,,
travel,230,678751,0.0-71.0-0.0,"""event"",""trial"",""time""
""fullscreenenter"",""1"",""3617""
","
","
","""event"",""trial"",""time""
""fullscreenenter"",""1"",""3617""
","
",,,,,,,,,,,,"[{""stimulus"":""run_exp/static/images/task_images/rocket-01.jpg"",""time"":0},{""stimulus"":""run_exp/static/images/task_images/rocket-02.jpg"",""time"":1077.1999999284744},{""stimulus"":""run_exp/static/images/task_images/rocket-03.jpg"",""time"":2155.1999999284744},{""stimulus"":""run_exp/static/images/task_images/rocket-04.jpg"",""time"":3232},{""stimulus"":""run_exp/static/images/task_images/rocket-05.jpg"",""time"":4313.5},{""stimulus"":""run_exp/static/images/task_images/rocket-06.jpg"",""time"":5381.399999976158},{""stimulus"":""run_exp/static/images/task_images/rocket-07.jpg"",""time"":6460},{""stimulus"":""run_exp/static/images/task_images/rocket-08.jpg"",""time"":7534.399999976158},{""stimulus"":""run_exp/static/images/task_images/rocket-09.jpg"",""time"":8616.399999976158}]",[],10,,,,,,,,,,,,,,
alien_welcome,231,683755,0.0-71.0-1.0,"""event"",""trial"",""time""
""fullscreenenter"",""1"",""3617""
","
","
","""event"",""trial"",""time""
""fullscreenenter"",""1"",""3617""
","
",,null,run_exp/static/images/task_images/aliens/old_aliens/planet/alien_planet-19.jpg,null,,,,,,,,,,,,,19,"6,74,30,37,23,80,62,22,28,66,19,12,54,11,50,10,41,16,18,9,60,52,75,73,46,56,43,61,3,15,78,49,70,53,51,68,44,79,25",,,,,,,,,,
land,232,684259,0.0-71.0-2.0,"""event"",""trial"",""time""
""fullscreenenter"",""1"",""3617""
","
","
","""event"",""trial"",""time""
""fullscreenenter"",""1"",""3617""
","
",,null,run_exp/static/images/task_images/land.jpg,null,,,,,,,96,,,11,,,,,,,,,,,,,,
dig,233,686271,0.0-71.0-3.0,"""event"",""trial"",""time""
""fullscreenenter"",""1"",""3617""
","
","
","""event"",""trial"",""time""
""fullscreenenter"",""1"",""3617""
","
",,,,,,,,,,,,"[{""stimulus"":""run_exp/static/images/task_images/dig.jpg"",""time"":0.20000004768371582},{""stimulus"":""run_exp/static/images/task_images/land.jpg"",""time"":671.9000000953674},{""stimulus"":""run_exp/static/images/task_images/dig.jpg"",""time"":1339.2000000476837}]",[],11,,,,,,,,,,,,,,
harvest,234,687285,0.0-71.0-4.0,"""event"",""trial"",""time""
""fullscreenenter"",""1"",""3617""
","
","
","""event"",""trial"",""time""
""fullscreenenter"",""1"",""3617""
","
",,null,run_exp/static/images/task_images/gems/96.jpg,null,,,,,,,21,,,11,,,,,96,0.214437169,0.21875,,,,,,,
decision,235,687601,0.0-71.0-5.0,"""event"",""trial"",""time""
""fullscreenenter"",""1"",""3617""
","
","
","""event"",""trial"",""time""
""fullscreenenter"",""1"",""3617""
","
",,313.3,run_exp/static/images/task_images/land.jpg,65,,,,,,,21,,,11,,,,,,,,31412,2,0,FALSE,,,
dig,236,690302,0.0-72.0-0.0,"""event"",""trial"",""time""
""fullscreenenter"",""1"",""3617""
","
","
","""event"",""trial"",""time""
""fullscreenenter"",""1"",""3617""
","
",,,,,,,,,,,,"[{""stimulus"":""run_exp/static/images/task_images/dig.jpg"",""time"":0.30000007152557373},{""stimulus"":""run_exp/static/images/task_images/land.jpg"",""time"":903.8000000715256},{""stimulus"":""run_exp/static/images/task_images/dig.jpg"",""time"":1792.6000000238419}]",[],11,,,,,,,,,,,,,,
harvest,237,691310,0.0-72.0-1.0,"""event"",""trial"",""time""
""fullscreenenter"",""1"",""3617""
","
","
","""event"",""trial"",""time""
""fullscreenenter"",""1"",""3617""
","
",,null,run_exp/static/images/task_images/gems/21.jpg,null,,,,,,,4,,,11,,,,,21,0.208784457,0.19047619,,,,,,,
decision,238,691569,0.0-72.0-2.0,"""event"",""trial"",""time""
""fullscreenenter"",""1"",""3617""
","
","
","""event"",""trial"",""time""
""fullscreenenter"",""1"",""3617""
","
",,257.4000001,run_exp/static/images/task_images/land.jpg,76,,,,,,,4,,,11,,,,,,,,35380,2,1,TRUE,,,
travel,239,701318,0.0-73.0-0.0,"""event"",""trial"",""time""
""fullscreenenter"",""1"",""3617""
","
","
","""event"",""trial"",""time""
""fullscreenenter"",""1"",""3617""
","
",,,,,,,,,,,,"[{""stimulus"":""run_exp/static/images/task_images/rocket-01.jpg"",""time"":0.19999992847442627},{""stimulus"":""run_exp/static/images/task_images/rocket-02.jpg"",""time"":1085.0999999046326},{""stimulus"":""run_exp/static/images/task_images/rocket-03.jpg"",""time"":2175.1999999284744},{""stimulus"":""run_exp/static/images/task_images/rocket-04.jpg"",""time"":3251.899999976158},{""stimulus"":""run_exp/static/images/task_images/rocket-05.jpg"",""time"":4336.5},{""stimulus"":""run_exp/static/images/task_images/rocket-06.jpg"",""time"":5415.599999904633},{""stimulus"":""run_exp/static/images/task_images/rocket-07.jpg"",""time"":6505.599999904633},{""stimulus"":""run_exp/static/images/task_images/rocket-08.jpg"",""time"":7583.299999952316},{""stimulus"":""run_exp/static/images/task_images/rocket-09.jpg"",""time"":8668}]",[],11,,,,,,,,,,,,,,
alien_welcome,240,706321,0.0-73.0-1.0,"""event"",""trial"",""time""
""fullscreenenter"",""1"",""3617""
","
","
","""event"",""trial"",""time""
""fullscreenenter"",""1"",""3617""
","
",,null,run_exp/static/images/task_images/aliens/old_aliens/planet/alien_planet-12.jpg,null,,,,,,,,,,,,,12,"6,74,30,37,23,80,62,22,28,66,19,12,54,11,50,10,41,16,18,9,60,52,75,73,46,56,43,61,3,15,78,49,70,53,51,68,44,79,25",,,,,,,,,,
land,241,706822,0.0-73.0-2.0,"""event"",""trial"",""time""
""fullscreenenter"",""1"",""3617""
","
","
","""event"",""trial"",""time""
""fullscreenenter"",""1"",""3617""
","
",,null,run_exp/static/images/task_images/land.jpg,null,,,,,,,109,,,12,,,,,,,,,,,,,,
dig,242,708830,0.0-73.0-3.0,"""event"",""trial"",""time""
""fullscreenenter"",""1"",""3617""
","
","
","""event"",""trial"",""time""
""fullscreenenter"",""1"",""3617""
","
",,,,,,,,,,,,"[{""stimulus"":""run_exp/static/images/task_images/dig.jpg"",""time"":0.5},{""stimulus"":""run_exp/static/images/task_images/land.jpg"",""time"":682.9000000953674},{""stimulus"":""run_exp/static/images/task_images/dig.jpg"",""time"":1342.3000000715256}]",[],12,,,,,,,,,,,,,,
harvest,243,709840,0.0-73.0-4.0,"""event"",""trial"",""time""
""fullscreenenter"",""1"",""3617""
","
","
","""event"",""trial"",""time""
""fullscreenenter"",""1"",""3617""
","
",,null,run_exp/static/images/task_images/gems/109.jpg,null,,,,,,,33,,,12,,,,,109,0.299881015,0.302752294,,,,,,,
decision,244,710331,0.0-73.0-5.0,"""event"",""trial"",""time""
""fullscreenenter"",""1"",""3617""
","
","
","""event"",""trial"",""time""
""fullscreenenter"",""1"",""3617""
","
",,489.6,run_exp/static/images/task_images/land.jpg,76,,,,,,,33,,,12,,,,,,,,54142,2,0,TRUE,,,
travel,245,719846,0.0-74.0-0.0,"""event"",""trial"",""time""
""fullscreenenter"",""1"",""3617""
","
","
","""event"",""trial"",""time""
""fullscreenenter"",""1"",""3617""
","
