"trial_type","trial_index","time_elapsed","internal_node_id","interactions","blur_events","focus_events","fullscreenenter_events","fullscreenexit_events","success"
"pavlovia","0","9","0.0-0.0","""event"",""trial"",""time""
""fullscreenenter"",""1"",""1833""
","
","
","""event"",""trial"",""time""
""fullscreenenter"",""1"",""1833""
","
",""
"fullscreen","1","2791","0.0-1.0","""event"",""trial"",""time""
""fullscreenenter"",""1"",""1833""
""fullscreenexit"",""2"",""19824""
""blur"",""2"",""20759""
","""event"",""trial"",""time""
""blur"",""2"",""20759""
","
","""event"",""trial"",""time""
""fullscreenenter"",""1"",""1833""
","""event"",""trial"",""time""
""fullscreenexit"",""2"",""19824""
","true"
