trial_type,trial_index,time_elapsed,internal_node_id,interactions,blur_events,focus_events,fullscreenenter_events,fullscreenexit_events,success,rt,stimulus,key_press,prompt,subject_id,participant_id,age,gender,button_pressed,next_reward,animation_sequence,responses,planet,curr_prac_trial,n_prac_rounds,alien,aliens,reward_received,decay_rate_actual,decay_rate_exp,time_in_block,block_num,prt,last_trial_on_planet,button_html,bonus,num_failures
pavlovia,0,4,0.0-0.0,"""event"",""trial"",""time""
""fullscreenenter"",""1"",""3153""
","
","
","""event"",""trial"",""time""
""fullscreenenter"",""1"",""3153""
","
",,,,,,,,,,,,,,,,,,,,,,,,,,,,
fullscreen,1,4148,0.0-1.0,"""event"",""trial"",""time""
""fullscreenenter"",""1"",""3153""
","
","
","""event"",""trial"",""time""
""fullscreenenter"",""1"",""3153""
","
",TRUE,,,,,,,,,,,,,,,,,,,,,,,,,,,
instruc_welcome,2,13887,0.0-2.0,"""event"",""trial"",""time""
""fullscreenenter"",""1"",""3153""
","
","
","""event"",""trial"",""time""
""fullscreenenter"",""1"",""3153""
","
",,null,run_exp/static/audio/clip_1_welcome.m4a,null,"<p>Howdy! In this experiment, you’ll be an explorer traveling through space to collect space treasure.</p><p>Your mission is to collect as much treasure as possible.</p><br><br><p><img src='run_exp/static/images/task_images/opening_img-01.jpg' height='300' width='auto'></p>",8267,3945,18.36,Male,,,,,,,,,,,,,,,,,,,
audio-keyboard-response,3,30467,0.0-3.0,"""event"",""trial"",""time""
""fullscreenenter"",""1"",""3153""
","
","
","""event"",""trial"",""time""
""fullscreenenter"",""1"",""3153""
","
",,null,run_exp/static/audio/clip_2_move.m4a,null,,,,,,,,,,,,,,,,,,,,,,,,
welcome_dec,4,31540,0.0-4.0,"""event"",""trial"",""time""
""fullscreenenter"",""1"",""3153""
","
","
","""event"",""trial"",""time""
""fullscreenenter"",""1"",""3153""
","
",,1071.2,"<p>Howdy! In this experiment, you’ll be an explorer traveling through space to collect space treasure.</p><p>Your mission is to collect as much treasure as possible.</p><br><br><p><img src='run_exp/static/images/task_images/opening_img-01.jpg' height='300' width='auto'></p>",,,,,,,1,,,,,,,,,,,,,,,,,,
html-keyboard-response,5,33524,0.0-5.0,"""event"",""trial"",""time""
""fullscreenenter"",""1"",""3153""
","
","
","""event"",""trial"",""time""
""fullscreenenter"",""1"",""3153""
","
",,1982.8,"<p>Howdy! In this experiment, you’ll be an explorer traveling through space to collect space treasure.</p><p>Your mission is to collect as much treasure as possible.</p><br><br><p><img src='run_exp/static/images/task_images/opening_img-01.jpg' height='300' width='auto'></p><button class=""jspsych-html-btn-unchosen""><img src=""run_exp/static/images/task_images/planet-01.jpg"" height=""50""></button><button class=""jspsych-html-btn-chosen""><img src=""run_exp/static/images/task_images/planet-02.jpg"" height=""50""></button><p><b>[press the space bar to lock in your answer]<b><br></p>",32,,,,,,,,,,,,,,,,,,,,,,,,
instruc_goal,6,43589,0.0-6.0-0.0,"""event"",""trial"",""time""
""fullscreenenter"",""1"",""3153""
","
","
","""event"",""trial"",""time""
""fullscreenenter"",""1"",""3153""
","
",,null,run_exp/static/audio/clip_3_goal.m4a,null,"<p> As a space explorer, you’ll visit different planets to dig for space treasure, these pink gems.</p> <p> The more treasure you dig up, the more bonus money you’ll win! </p><br><br><p><img src='run_exp/static/images/task_images/pink_gem.jpg' height='300' width='auto'></p>",,,,,,,,,,,,,,,,,,,,,,,
instruc_goal,7,44086,0.0-6.0-1.0,"""event"",""trial"",""time""
""fullscreenenter"",""1"",""3153""
","
","
","""event"",""trial"",""time""
""fullscreenenter"",""1"",""3153""
","
",,493.1999999,"<p> As a space explorer, you’ll visit different planets to dig for space treasure, these pink gems.</p> <p> The more treasure you dig up, the more bonus money you’ll win! </p><br><br><p><img src='run_exp/static/images/task_images/pink_gem.jpg' height='300' width='auto'></p>",,,,,,,1,,,,,,,,,,,,,,,,,,
html-keyboard-response,8,44396,0.0-6.0-2.0,"""event"",""trial"",""time""
""fullscreenenter"",""1"",""3153""
","
","
","""event"",""trial"",""time""
""fullscreenenter"",""1"",""3153""
","
",,308.6999999,"<p> As a space explorer, you’ll visit different planets to dig for space treasure, these pink gems.</p> <p> The more treasure you dig up, the more bonus money you’ll win! </p><br><br><p><img src='run_exp/static/images/task_images/pink_gem.jpg' height='300' width='auto'></p><button class=""jspsych-html-btn-unchosen""><img src=""run_exp/static/images/task_images/planet-01.jpg"" height=""50""></button><button class=""jspsych-html-btn-chosen""><img src=""run_exp/static/images/task_images/planet-02.jpg"" height=""50""></button><p><b>[press the space bar to lock in your answer]<b><br></p>",32,,,,,,,,,,,,,,,,,,,,,,,,
instruc_dig,9,60407,0.0-7.0-0.0,"""event"",""trial"",""time""
""fullscreenenter"",""1"",""3153""
","
","
","""event"",""trial"",""time""
""fullscreenenter"",""1"",""3153""
","
",,null,run_exp/static/audio/clip_4_dig.m4a,null,,,,,,,100,,,,,,,,,,,,,,,,,
instruc_dig_try,10,61396,0.0-7.0-1.0,"""event"",""trial"",""time""
""fullscreenenter"",""1"",""3153""
","
","
","""event"",""trial"",""time""
""fullscreenenter"",""1"",""3153""
","
",,987.9,"<p> When you’ve arrived at a new planet, you will dig once. </p> <p>Then, you get to decide if you want to stay on the planet and dig again or travel to a new planet and dig there.</p> <p> To stay and dig, press the letter <strong>‘A’</strong> on your keyboard. Try pressing it now! </p><p><img src='run_exp/static/images/task_images/land.jpg'  height='700' width='auto'></p>",65,"<p> When you’ve arrived at a new planet, you will dig once. </p> <p>Then, you get to decide if you want to stay on the planet and dig again or travel to a new planet and dig there.</p> <p> To stay and dig, press the letter <strong>‘A’</strong> on your keyboard. Try pressing it now! </p><p><img src='run_exp/static/images/task_images/land.jpg'  height='700' width='auto'></p>",,,,,,100,,,,,,,,,,,,,,,,,
dig_prac,11,63412,0.0-7.0-2.0,"""event"",""trial"",""time""
""fullscreenenter"",""1"",""3153""
","
","
","""event"",""trial"",""time""
""fullscreenenter"",""1"",""3153""
","
",,,,,,,,,,,,"[{""stimulus"":""run_exp/static/images/task_images/dig.jpg"",""time"":0.20000004768371582},{""stimulus"":""run_exp/static/images/task_images/land.jpg"",""time"":672.2000000476837},{""stimulus"":""run_exp/static/images/task_images/dig.jpg"",""time"":1343.6000000238419}]",[],,,,,,,,,,,,,,,
instruc_travel,12,99647,0.0-7.0-3.0,"""event"",""trial"",""time""
""fullscreenenter"",""1"",""3153""
","
","
","""event"",""trial"",""time""
""fullscreenenter"",""1"",""3153""
","
",,null,run_exp/static/audio/clip_5_travel.m4a,null,"<p>Every time you dig up gems, there are less gems on the planet, so the more you dig on a planet the fewer gems you’ll get with each dig.</p><p>When gems are running low, you may want to travel to a new planet. </p> <p>  Planets are very far apart in this galaxy, so it will take some time to travel between them. </p> <br><p>There are lots and lots of planets for you to visit, so you won’t be able to return to any planets you’ve seen before. </p><br><p>To leave this planet and travel to a new one, press the letter <strong>‘L’</strong> on your keyboard. Try pressing it now! </p><p><img src='run_exp/static/images/task_images/rocket-01.jpg'  height='600' width='auto'></p>",,,,,,,,,,,,,,,,,,,,,,,
instruc_travel_try,13,99716,0.0-7.0-4.0,"""event"",""trial"",""time""
""fullscreenenter"",""1"",""3153""
","
","
","""event"",""trial"",""time""
""fullscreenenter"",""1"",""3153""
","
",,67.70000005,"<p>Every time you dig up gems, there are less gems on the planet, so the more you dig on a planet the fewer gems you’ll get with each dig.</p><p>When gems are running low, you may want to travel to a new planet. </p> <p>  Planets are very far apart in this galaxy, so it will take some time to travel between them. </p> <br><p>There are lots and lots of planets for you to visit, so you won’t be able to return to any planets you’ve seen before. </p><br><p>To leave this planet and travel to a new one, press the letter <strong>‘L’</strong> on your keyboard. Try pressing it now! </p><p><img src='run_exp/static/images/task_images/rocket-01.jpg'  height='600' width='auto'></p>",76,"<p>Every time you dig up gems, there are less gems on the planet, so the more you dig on a planet the fewer gems you’ll get with each dig.</p><p>When gems are running low, you may want to travel to a new planet. </p> <p>  Planets are very far apart in this galaxy, so it will take some time to travel between them. </p> <br><p>There are lots and lots of planets for you to visit, so you won’t be able to return to any planets you’ve seen before. </p><br><p>To leave this planet and travel to a new one, press the letter <strong>‘L’</strong> on your keyboard. Try pressing it now! </p><p><img src='run_exp/static/images/task_images/rocket-01.jpg'  height='600' width='auto'></p>",,,,,,,,,,,,,,,,,,,,,,,
travel_prac,14,109731,0.0-7.0-5.0,"""event"",""trial"",""time""
""fullscreenenter"",""1"",""3153""
","
","
","""event"",""trial"",""time""
""fullscreenenter"",""1"",""3153""
","
",,,,,,,,,,,,"[{""stimulus"":""run_exp/static/images/task_images/rocket-01.jpg"",""time"":0.19999992847442627},{""stimulus"":""run_exp/static/images/task_images/rocket-02.jpg"",""time"":1117.6999999284744},{""stimulus"":""run_exp/static/images/task_images/rocket-03.jpg"",""time"":2233},{""stimulus"":""run_exp/static/images/task_images/rocket-04.jpg"",""time"":3340.7999999523163},{""stimulus"":""run_exp/static/images/task_images/rocket-05.jpg"",""time"":4454.899999976158},{""stimulus"":""run_exp/static/images/task_images/rocket-06.jpg"",""time"":5559.5},{""stimulus"":""run_exp/static/images/task_images/rocket-07.jpg"",""time"":6679.099999904633},{""stimulus"":""run_exp/static/images/task_images/rocket-08.jpg"",""time"":7793.299999952316},{""stimulus"":""run_exp/static/images/task_images/rocket-09.jpg"",""time"":8894.599999904633}]",[],0,,,,,,,,,,,,,,
instruc_alien_greet,15,136907,0.0-7.0-6.0,"""event"",""trial"",""time""
""fullscreenenter"",""1"",""3153""
","
","
","""event"",""trial"",""time""
""fullscreenenter"",""1"",""3153""
","
",,null,run_exp/static/audio/clip_6_alien.m4a,null,"<p>When you arrive at a new planet, the alien who owns the treasure mine on that planet will greet you!</p><p>The better an alien takes care of their mine the easier it is to dig for gems. Some aliens take better care of their mine than others. So, you won’t get exactly the same amount of gems on each planet.</p><p>What the alien looks like does not tell you anything about how many gems there are on the planet.</p><br><p><img src=""run_exp/static/images/task_images/aliens/instructions_aliens/planet/alien_planet-1.jpg""  height=""600"" width=""auto""></p>",,,,,,,,,,,,,,,,,,,,,,,
instruc_alien_greet,16,138594,0.0-7.0-7.0,"""event"",""trial"",""time""
""fullscreenenter"",""1"",""3153""
","
","
","""event"",""trial"",""time""
""fullscreenenter"",""1"",""3153""
","
",,1686,"<p>When you arrive at a new planet, the alien who owns the treasure mine on that planet will greet you!</p><p>The better an alien takes care of their mine the easier it is to dig for gems. Some aliens take better care of their mine than others. So, you won’t get exactly the same amount of gems on each planet.</p><p>What the alien looks like does not tell you anything about how many gems there are on the planet.</p><br><p><img src=""run_exp/static/images/task_images/aliens/instructions_aliens/planet/alien_planet-1.jpg""  height=""600"" width=""auto""></p>",,,,,,,1,,,,,,,,,,,,,,,,,,
html-keyboard-response,17,138708,0.0-7.0-8.0,"""event"",""trial"",""time""
""fullscreenenter"",""1"",""3153""
","
","
","""event"",""trial"",""time""
""fullscreenenter"",""1"",""3153""
","
",,113.1999999,"<p>When you arrive at a new planet, the alien who owns the treasure mine on that planet will greet you!</p><p>The better an alien takes care of their mine the easier it is to dig for gems. Some aliens take better care of their mine than others. So, you won’t get exactly the same amount of gems on each planet.</p><p>What the alien looks like does not tell you anything about how many gems there are on the planet.</p><br><p><img src=""run_exp/static/images/task_images/aliens/instructions_aliens/planet/alien_planet-1.jpg""  height=""600"" width=""auto""></p><button class=""jspsych-html-btn-unchosen""><img src=""run_exp/static/images/task_images/planet-01.jpg"" height=""50""></button><button class=""jspsych-html-btn-chosen""><img src=""run_exp/static/images/task_images/planet-02.jpg"" height=""50""></button><p><b>[press the space bar to lock in your answer]<b><br></p>",32,,,,,,,,,,,,,,,,,,,,,,,,
time_out,18,149787,0.0-8.0-0.0,"""event"",""trial"",""time""
""fullscreenenter"",""1"",""3153""
","
","
","""event"",""trial"",""time""
""fullscreenenter"",""1"",""3153""
","
",,null,run_exp/static/audio/clip_7_timeout.m4a,null,"<p>If you don't make your choice fast enough, you’ll have to wait a few seconds before you can make another one.</p><p>You can’t dig for more gems or travel to new planets. You just have to sit and wait.</p><br><p><img src='run_exp/static/images/task_images/time_out.jpg'  height='600' width='auto'></p>",,,,,,,,,,,,,,,,,,,,,,,
time_out,19,150464,0.0-8.0-1.0,"""event"",""trial"",""time""
""fullscreenenter"",""1"",""3153""
","
","
","""event"",""trial"",""time""
""fullscreenenter"",""1"",""3153""
","
",,674.9,"<p>If you don't make your choice fast enough, you’ll have to wait a few seconds before you can make another one.</p><p>You can’t dig for more gems or travel to new planets. You just have to sit and wait.</p><br><p><img src='run_exp/static/images/task_images/time_out.jpg'  height='600' width='auto'></p>",,,,,,,1,,,,,,,,,,,,,,,,,,
html-keyboard-response,20,150532,0.0-8.0-2.0,"""event"",""trial"",""time""
""fullscreenenter"",""1"",""3153""
","
","
","""event"",""trial"",""time""
""fullscreenenter"",""1"",""3153""
","
",,68.0999999,"<p>If you don't make your choice fast enough, you’ll have to wait a few seconds before you can make another one.</p><p>You can’t dig for more gems or travel to new planets. You just have to sit and wait.</p><br><p><img src='run_exp/static/images/task_images/time_out.jpg'  height='600' width='auto'></p><button class=""jspsych-html-btn-unchosen""><img src=""run_exp/static/images/task_images/planet-01.jpg"" height=""50""></button><button class=""jspsych-html-btn-chosen""><img src=""run_exp/static/images/task_images/planet-02.jpg"" height=""50""></button><p><b>[press the space bar to lock in your answer]<b><br></p>",32,,,,,,,,,,,,,,,,,,,,,,,,
instruc_break,21,166187,0.0-9.0-0.0,"""event"",""trial"",""time""
""fullscreenenter"",""1"",""3153""
","
","
","""event"",""trial"",""time""
""fullscreenenter"",""1"",""3153""
","
",,null,run_exp/static/audio/clip_8_break.m4a,null,"<p> After digging and traveling for a while, you’ll be able to take a break at home base. </p><p>The game will last 20 minutes no matter what.</p><p>You will visit home base every 5 minutes, so, you will visit home base three times during the game.</p><br><p><img src='run_exp/static/images/task_images/home_base.jpg' height='600' width='auto'></p>",,,,,,,,,,,,,,,,,,,,,,,
instruc_break,22,166602,0.0-9.0-1.0,"""event"",""trial"",""time""
""fullscreenenter"",""1"",""3153""
","
","
","""event"",""trial"",""time""
""fullscreenenter"",""1"",""3153""
","
",,412.3000001,"<p> After digging and traveling for a while, you’ll be able to take a break at home base. </p><p>The game will last 20 minutes no matter what.</p><p>You will visit home base every 5 minutes, so, you will visit home base three times during the game.</p><br><p><img src='run_exp/static/images/task_images/home_base.jpg' height='600' width='auto'></p>",,,,,,,1,,,,,,,,,,,,,,,,,,
html-keyboard-response,23,166668,0.0-9.0-2.0,"""event"",""trial"",""time""
""fullscreenenter"",""1"",""3153""
","
","
","""event"",""trial"",""time""
""fullscreenenter"",""1"",""3153""
","
",,65.39999998,"<p> After digging and traveling for a while, you’ll be able to take a break at home base. </p><p>The game will last 20 minutes no matter what.</p><p>You will visit home base every 5 minutes, so, you will visit home base three times during the game.</p><br><p><img src='run_exp/static/images/task_images/home_base.jpg' height='600' width='auto'></p><button class=""jspsych-html-btn-unchosen""><img src=""run_exp/static/images/task_images/planet-01.jpg"" height=""50""></button><button class=""jspsych-html-btn-chosen""><img src=""run_exp/static/images/task_images/planet-02.jpg"" height=""50""></button><p><b>[press the space bar to lock in your answer]<b><br></p>",32,,,,,,,,,,,,,,,,,,,,,,,,
instruc_prac_game,24,176787,0.0-10.0-0.0,"""event"",""trial"",""time""
""fullscreenenter"",""1"",""3153""
","
","
","""event"",""trial"",""time""
""fullscreenenter"",""1"",""3153""
","
",,null,run_exp/static/audio/clip_9_practice.m4a,null,"<p> Are you ready to play a practice game? </p> <p>In this practice game, you'll be digging up barrels of gems. But, in the real game, you'll be digging up the gems themselves. </p>",,,,,,,,,,,,,,,,,,,,,,,
html-button-response,25,177704,0.0-10.0-1.0,"""event"",""trial"",""time""
""fullscreenenter"",""1"",""3153""
","
","
","""event"",""trial"",""time""
""fullscreenenter"",""1"",""3153""
","
",,915.9,"<p> Are you ready to play a practice game? </p> <p>In this practice game, you'll be digging up barrels of gems. But, in the real game, you'll be digging up the gems themselves. </p>",,,,,,,0,,,,,,,,,,,,,,,,,,
alien_welcome_prac,26,182713,0.0-11.0-0.0,"""event"",""trial"",""time""
""fullscreenenter"",""1"",""3153""
","
","
","""event"",""trial"",""time""
""fullscreenenter"",""1"",""3153""
","
",,null,run_exp/static/images/task_images/aliens/practice_aliens/planet/alien_planet-5.jpg,null,,,,,,,,,,,,,,,,,,,,,,,,
land_prac,27,183227,0.0-11.0-1.0,"""event"",""trial"",""time""
""fullscreenenter"",""1"",""3153""
","
","
","""event"",""trial"",""time""
""fullscreenenter"",""1"",""3153""
","
",,null,run_exp/static/images/task_images/land.jpg,null,,,,,,,100,,,0,,,,,,,,,,,,,,
dig_prac,28,185236,0.0-11.0-2.0,"""event"",""trial"",""time""
""fullscreenenter"",""1"",""3153""
","
","
","""event"",""trial"",""time""
""fullscreenenter"",""1"",""3153""
","
",,,,,,,,,,,,"[{""stimulus"":""run_exp/static/images/task_images/dig.jpg"",""time"":0.20000004768371582},{""stimulus"":""run_exp/static/images/task_images/land.jpg"",""time"":669},{""stimulus"":""run_exp/static/images/task_images/dig.jpg"",""time"":1338.8999999761581}]",[],,,,,,,,,,,,,,,
harvest_prac,29,186250,0.0-11.0-3.0,"""event"",""trial"",""time""
""fullscreenenter"",""1"",""3153""
","
","
","""event"",""trial"",""time""
""fullscreenenter"",""1"",""3153""
","
",,null,run_exp/static/images/task_images/barrel_text.jpg,null,,,,,,,,,,,,,,,,,,,,,,,,
decision_prac,30,186756,0.0-11.0-4.0,"""event"",""trial"",""time""
""fullscreenenter"",""1"",""3153""
","
","
","""event"",""trial"",""time""
""fullscreenenter"",""1"",""3153""
","
",,505.9,run_exp/static/images/task_images/land.jpg,65,,,,,,,,,,,1,,,,,,,,,,,,,
dig_prac,31,188769,0.0-12.0-0.0,"""event"",""trial"",""time""
""fullscreenenter"",""1"",""3153""
","
","
","""event"",""trial"",""time""
""fullscreenenter"",""1"",""3153""
","
",,,,,,,,,,,,"[{""stimulus"":""run_exp/static/images/task_images/dig.jpg"",""time"":0.10000002384185791},{""stimulus"":""run_exp/static/images/task_images/land.jpg"",""time"":669.7000000476837},{""stimulus"":""run_exp/static/images/task_images/dig.jpg"",""time"":1341.5}]",[],,,,,,,,,,,,,,,
harvest_prac,32,189774,0.0-12.0-1.0,"""event"",""trial"",""time""
""fullscreenenter"",""1"",""3153""
","
","
","""event"",""trial"",""time""
""fullscreenenter"",""1"",""3153""
","
",,null,run_exp/static/images/task_images/barrel_text.jpg,null,,,,,,,,,,,,,,,,,,,,,,,,
decision_prac,33,190108,0.0-12.0-2.0,"""event"",""trial"",""time""
""fullscreenenter"",""1"",""3153""
","
","
","""event"",""trial"",""time""
""fullscreenenter"",""1"",""3153""
","
",,332.7,run_exp/static/images/task_images/land.jpg,65,,,,,,,,,,,2,,,,,,,,,,,,,
dig_prac,34,192120,0.0-13.0-0.0,"""event"",""trial"",""time""
""fullscreenenter"",""1"",""3153""
","
","
","""event"",""trial"",""time""
""fullscreenenter"",""1"",""3153""
","
",,,,,,,,,,,,"[{""stimulus"":""run_exp/static/images/task_images/dig.jpg"",""time"":0.09999990463256836},{""stimulus"":""run_exp/static/images/task_images/land.jpg"",""time"":675.1999999284744},{""stimulus"":""run_exp/static/images/task_images/dig.jpg"",""time"":1340}]",[],,,,,,,,,,,,,,,
harvest_prac,35,193128,0.0-13.0-1.0,"""event"",""trial"",""time""
""fullscreenenter"",""1"",""3153""
","
","
","""event"",""trial"",""time""
""fullscreenenter"",""1"",""3153""
","
",,null,run_exp/static/images/task_images/barrel_text.jpg,null,,,,,,,,,,,,,,,,,,,,,,,,
decision_prac,36,193388,0.0-13.0-2.0,"""event"",""trial"",""time""
""fullscreenenter"",""1"",""3153""
","
","
","""event"",""trial"",""time""
""fullscreenenter"",""1"",""3153""
","
",,258.9,run_exp/static/images/task_images/land.jpg,65,,,,,,,,,,,3,,,,,,,,,,,,,
dig_prac,37,195405,0.0-14.0-0.0,"""event"",""trial"",""time""
""fullscreenenter"",""1"",""3153""
","
","
","""event"",""trial"",""time""
""fullscreenenter"",""1"",""3153""
","
",,,,,,,,,,,,"[{""stimulus"":""run_exp/static/images/task_images/dig.jpg"",""time"":0.10000002384185791},{""stimulus"":""run_exp/static/images/task_images/land.jpg"",""time"":671.8999999761581},{""stimulus"":""run_exp/static/images/task_images/dig.jpg"",""time"":1343.3999999761581}]",[],,,,,,,,,,,,,,,
harvest_prac,38,196417,0.0-14.0-1.0,"""event"",""trial"",""time""
""fullscreenenter"",""1"",""3153""
","
","
","""event"",""trial"",""time""
""fullscreenenter"",""1"",""3153""
","
",,null,run_exp/static/images/task_images/barrel_text.jpg,null,,,,,,,,,,,,,,,,,,,,,,,,
decision_prac,39,196668,0.0-14.0-2.0,"""event"",""trial"",""time""
""fullscreenenter"",""1"",""3153""
","
","
","""event"",""trial"",""time""
""fullscreenenter"",""1"",""3153""
","
",,250.3,run_exp/static/images/task_images/land.jpg,65,,,,,,,,,,,4,,,,,,,,,,,,,
dig_prac,40,198673,0.0-15.0-0.0,"""event"",""trial"",""time""
""fullscreenenter"",""1"",""3153""
","
","
","""event"",""trial"",""time""
""fullscreenenter"",""1"",""3153""
","
",,,,,,,,,,,,"[{""stimulus"":""run_exp/static/images/task_images/dig.jpg"",""time"":0.10000002384185791},{""stimulus"":""run_exp/static/images/task_images/land.jpg"",""time"":680.8000000715256},{""stimulus"":""run_exp/static/images/task_images/dig.jpg"",""time"":1336.2000000476837}]",[],,,,,,,,,,,,,,,
harvest_prac,41,199683,0.0-15.0-1.0,"""event"",""trial"",""time""
""fullscreenenter"",""1"",""3153""
","
","
","""event"",""trial"",""time""
""fullscreenenter"",""1"",""3153""
","
",,null,run_exp/static/images/task_images/barrel_text.jpg,null,,,,,,,,,,,,,,,,,,,,,,,,
decision_prac,42,200068,0.0-15.0-2.0,"""event"",""trial"",""time""
""fullscreenenter"",""1"",""3153""
","
","
","""event"",""trial"",""time""
""fullscreenenter"",""1"",""3153""
","
",,384.1999999,run_exp/static/images/task_images/land.jpg,65,,,,,,,,,,,,1,,,,,,,,,,,,
quiz_instruc,43,201802,0.0-16.0-0.0,"""event"",""trial"",""time""
""fullscreenenter"",""1"",""3153""
","
","
","""event"",""trial"",""time""
""fullscreenenter"",""1"",""3153""
","
",,1732.1,run_exp/static/audio/clip_10_quiz.m4a,,,,,,,0,,,,,,,,,,,,,,,,,,
instruc_repeat,44,244568,0.0-16.0-1.0,"""event"",""trial"",""time""
""fullscreenenter"",""1"",""3153""
","
","
","""event"",""trial"",""time""
""fullscreenenter"",""1"",""3153""
","
",,null,"<p> Are you ready to play a practice game? </p> <p>In this practice game, you'll be digging up barrels of gems. But, in the real game, you'll be digging up the gems themselves. </p>",null,"<p>In this game, your goal is to collect as many gems as you can. That’s how you will win bonus money. </p> <p>The entire game will last 20 minutes no matter how many gems you collect or how many planets you visit. </p><p>To stay on a planet and dig again, press the letter A on your keyboard. To leave for a new planet, press the letter L.</p><p>The more you dig on a planet, the fewer gems you’ll get with each dig which is why you might consider leaving for a new planet. </p><p>When you arrive at a new planet, you’ll be greeted by an alien. What the alien looks like does not tell you anything about how much treasure is on the planet. </p>",,,,,,,,,,,,,,,,,,,,,,,
instruc_repeat_continue,45,246522,0.0-16.0-2.0,"""event"",""trial"",""time""
""fullscreenenter"",""1"",""3153""
","
","
","""event"",""trial"",""time""
""fullscreenenter"",""1"",""3153""
","
",,1953.5,"<p> Are you ready to play a practice game? </p> <p>In this practice game, you'll be digging up barrels of gems. But, in the real game, you'll be digging up the gems themselves. </p>",,,,,,,0,,,,,,,,,,,,,,,,,,
quiz_q_1_ask,46,249648,0.0-16.0-3.0,"""event"",""trial"",""time""
""fullscreenenter"",""1"",""3153""
","
","
","""event"",""trial"",""time""
""fullscreenenter"",""1"",""3153""
","
",,3125,run_exp/static/audio/clip_11_q1_ask.m4a,,,,,,,2,,,,,,,,,,,,,,,,,,
quiz_q_1_fb_correct,47,253487,0.0-17.0-0.0,"""event"",""trial"",""time""
""fullscreenenter"",""1"",""3153""
","
","
","""event"",""trial"",""time""
""fullscreenenter"",""1"",""3153""
","
",,null,run_exp/static/audio/clip_12_q1_correct.m4a,null,<p>That’s correct. You win extra money by collecting more gems.</p>,,,,,,,,,,,,,,,,,,,,,,,
quiz_q_2_ask,48,255308,0.0-17.0-1.0,"""event"",""trial"",""time""
""fullscreenenter"",""1"",""3153""
","
","
","""event"",""trial"",""time""
""fullscreenenter"",""1"",""3153""
","
",,1819.2,run_exp/static/audio/clip_14_q2_ask.m4a,,,,,,,1,,,,,,,,,,,,,,,,,,
quiz_q_2_fb_correct,49,259307,0.0-18.0-0.0,"""event"",""trial"",""time""
""fullscreenenter"",""1"",""3153""
","
","
","""event"",""trial"",""time""
""fullscreenenter"",""1"",""3153""
","
",,null,run_exp/static/audio/clip_15_q2_correct.m4a,null,<p>That’s correct. The experiment is 20 minutes no matter what.</p>,,,,,,,,,,,,,,,,,,,,,,,
quiz_q_3_ask,50,261227,0.0-18.0-1.0,"""event"",""trial"",""time""
""fullscreenenter"",""1"",""3153""
","
","
","""event"",""trial"",""time""
""fullscreenenter"",""1"",""3153""
","
",,1919.5,run_exp/static/audio/clip_17_q3_ask.m4a,,,,,,,1,,,,,,,,,,,,,,,,,,
quiz_q_3_fb_correct,51,265207,0.0-19.0-0.0,"""event"",""trial"",""time""
""fullscreenenter"",""1"",""3153""
","
","
","""event"",""trial"",""time""
""fullscreenenter"",""1"",""3153""
","
",,null,run_exp/static/audio/clip_18_q3_correct.m4a,null,<p> That’s correct. You press the letter L to travel to a new planet.</p>,,,,,,,,,,,,,,,,,,,,,,,
quiz_q_4_ask,52,268199,0.0-19.0-1.0,"""event"",""trial"",""time""
""fullscreenenter"",""1"",""3153""
","
","
","""event"",""trial"",""time""
""fullscreenenter"",""1"",""3153""
","
",,2991.5,run_exp/static/audio/clip_20_q4_ask.m4a,,,,,,,0,,,,,,,,,,,,,,,,,,
quiz_q_4_fb_correct,53,273528,0.0-20.0-0.0,"""event"",""trial"",""time""
""fullscreenenter"",""1"",""3153""
","
","
","""event"",""trial"",""time""
""fullscreenenter"",""1"",""3153""
","
",,null,run_exp/static/audio/clip_21_q4_correct.m4a,null,<p> That’s correct. The more you dig on a planet the fewer gems you’ll get with each dig. </p>,,,,,,,,,,,,,,,,,,,,,,,
quiz_q_5_ask,54,274897,0.0-20.0-1.0,"""event"",""trial"",""time""
""fullscreenenter"",""1"",""3153""
","
","
","""event"",""trial"",""time""
""fullscreenenter"",""1"",""3153""
","
",,1368.8,run_exp/static/audio/clip_23_q5_ask.m4a,,,,,,,1,,,,,,,,,,,,,,,,,,
quiz_q_5_fb_correct,55,279907,0.0-21.0-0.0,"""event"",""trial"",""time""
""fullscreenenter"",""1"",""3153""
","
","
","""event"",""trial"",""time""
""fullscreenenter"",""1"",""3153""
","
",,null,run_exp/static/audio/clip_24_q5_correct.m4a,null,<p> That’s correct. The alien tells you nothing about how much treasure is on the planet.</p>,,,,,,,,,,,,,,,,,,,,,,,
quiz_correct,56,283367,0.0-22.0-0.0,"""event"",""trial"",""time""
""fullscreenenter"",""1"",""3153""
","
","
","""event"",""trial"",""time""
""fullscreenenter"",""1"",""3153""
","
",,null,run_exp/static/audio/clip_26_correct_quiz.m4a,null,,,,,,,,,,,,,,,,,,,,,,,,
quiz_correct_continue,57,284016,0.0-22.0-1.0,"""event"",""trial"",""time""
""fullscreenenter"",""1"",""3153""
","
","
","""event"",""trial"",""time""
""fullscreenenter"",""1"",""3153""
","
",,648,<p>Good job! You're now ready to move on to the real game!</p>,,,,,,,0,,,,,,,,,,,,,,,,,,
audio-keyboard-response,58,294126,0.0-22.0-2.0,"""event"",""trial"",""time""
""fullscreenenter"",""1"",""3153""
","
","
","""event"",""trial"",""time""
""fullscreenenter"",""1"",""3153""
","
",,null,run_exp/static/audio/clip_28_real_game.m4a,null,,,,,,,,,,,,,,,,,,,,,,,,
instruc_begin_exp_contine,59,295137,0.0-22.0-3.0,"""event"",""trial"",""time""
""fullscreenenter"",""1"",""3153""
","
","
","""event"",""trial"",""time""
""fullscreenenter"",""1"",""3153""
","
",,1009.8,"<p>Now that you know how  to dig for space treasure and travel to new planets,you can start exploring! </p><p>Do you want to go over the instructions again or get started with the real game?</p>",,,,,,,1,,,,,,1,,,,,,,,,,,,
alien_welcome,60,300142,0.0-23.0-0.0,"""event"",""trial"",""time""
""fullscreenenter"",""1"",""3153""
","
","
","""event"",""trial"",""time""
""fullscreenenter"",""1"",""3153""
","
",,null,run_exp/static/images/task_images/aliens/old_aliens/planet/alien_planet-26.jpg,null,,,,,,,,,,,,,26,"26,52,3,20,46,80,27,4,29,51,32,22,58,47,72,45,28,75,53,64,19,68,71,66,14,30,42,8,31,60,62,11,9,24",,,,,,,,,,
land,61,300644,0.0-23.0-1.0,"""event"",""trial"",""time""
""fullscreenenter"",""1"",""3153""
","
","
","""event"",""trial"",""time""
""fullscreenenter"",""1"",""3153""
","
",,null,run_exp/static/images/task_images/land.jpg,null,,,,,,,100,,,1,,,,,,,,,,,,,,
dig,62,302652,0.0-23.0-2.0,"""event"",""trial"",""time""
""fullscreenenter"",""1"",""3153""
","
","
","""event"",""trial"",""time""
""fullscreenenter"",""1"",""3153""
","
",,,,,,,,,,,,"[{""stimulus"":""run_exp/static/images/task_images/dig.jpg"",""time"":0.19999992847442627},{""stimulus"":""run_exp/static/images/task_images/land.jpg"",""time"":672.2999999523163},{""stimulus"":""run_exp/static/images/task_images/dig.jpg"",""time"":1341.6000000238419}]",[],1,,,,,,,,,,,,,,
harvest,63,303669,0.0-23.0-3.0,"""event"",""trial"",""time""
""fullscreenenter"",""1"",""3153""
","
","
","""event"",""trial"",""time""
""fullscreenenter"",""1"",""3153""
","
",,null,run_exp/static/images/task_images/gems/100.jpg,null,,,,,,,21,,,1,,,,,100,0.210826275,0.21,,,,,,,
decision,64,304171,0.0-23.0-4.0,"""event"",""trial"",""time""
""fullscreenenter"",""1"",""3153""
","
","
","""event"",""trial"",""time""
""fullscreenenter"",""1"",""3153""
","
",,501.3,run_exp/static/images/task_images/land.jpg,65,,,,,,,21,,,1,,,,,,,,9033,1,0,FALSE,,,
dig,65,306674,0.0-24.0-0.0,"""event"",""trial"",""time""
""fullscreenenter"",""1"",""3153""
","
","
","""event"",""trial"",""time""
""fullscreenenter"",""1"",""3153""
","
",,,,,,,,,,,,"[{""stimulus"":""run_exp/static/images/task_images/dig.jpg"",""time"":0.09999990463256836},{""stimulus"":""run_exp/static/images/task_images/land.jpg"",""time"":841.6999999284744},{""stimulus"":""run_exp/static/images/task_images/dig.jpg"",""time"":1666}]",[],1,,,,,,,,,,,,,,
harvest,66,307685,0.0-24.0-1.0,"""event"",""trial"",""time""
""fullscreenenter"",""1"",""3153""
","
","
","""event"",""trial"",""time""
""fullscreenenter"",""1"",""3153""
","
",,null,run_exp/static/images/task_images/gems/21.jpg,null,,,,,,,5,,,1,,,,,21,0.21701223,0.238095238,,,,,,,
decision,67,308131,0.0-24.0-2.0,"""event"",""trial"",""time""
""fullscreenenter"",""1"",""3153""
","
","
","""event"",""trial"",""time""
""fullscreenenter"",""1"",""3153""
","
",,445.5,run_exp/static/images/task_images/land.jpg,65,,,,,,,5,,,1,,,,,,,,12993,1,1,FALSE,,,
dig,68,310698,0.0-25.0-0.0,"""event"",""trial"",""time""
""fullscreenenter"",""1"",""3153""
","
","
","""event"",""trial"",""time""
""fullscreenenter"",""1"",""3153""
","
",,,,,,,,,,,,"[{""stimulus"":""run_exp/static/images/task_images/dig.jpg"",""time"":0.20000004768371582},{""stimulus"":""run_exp/static/images/task_images/land.jpg"",""time"":855.3000000715256},{""stimulus"":""run_exp/static/images/task_images/dig.jpg"",""time"":1710.6000000238419}]",[],1,,,,,,,,,,,,,,
harvest,69,311714,0.0-25.0-1.0,"""event"",""trial"",""time""
""fullscreenenter"",""1"",""3153""
","
","
","""event"",""trial"",""time""
""fullscreenenter"",""1"",""3153""
","
",,null,run_exp/static/images/task_images/gems/5.jpg,null,,,,,,,1,,,1,,,,,5,0.287645176,0.2,,,,,,,
decision,70,311764,0.0-25.0-2.0,"""event"",""trial"",""time""
""fullscreenenter"",""1"",""3153""
","
","
","""event"",""trial"",""time""
""fullscreenenter"",""1"",""3153""
","
",,48.29999995,run_exp/static/images/task_images/land.jpg,65,,,,,,,1,,,1,,,,,,,,16626,1,2,FALSE,,,
dig,71,314715,0.0-26.0-0.0,"""event"",""trial"",""time""
""fullscreenenter"",""1"",""3153""
","
","
","""event"",""trial"",""time""
""fullscreenenter"",""1"",""3153""
","
",,,,,,,,,,,,"[{""stimulus"":""run_exp/static/images/task_images/dig.jpg"",""time"":0.10000002384185791},{""stimulus"":""run_exp/static/images/task_images/land.jpg"",""time"":990.8999999761581},{""stimulus"":""run_exp/static/images/task_images/dig.jpg"",""time"":1969.7999999523163}]",[],1,,,,,,,,,,,,,,
harvest,72,315727,0.0-26.0-1.0,"""event"",""trial"",""time""
""fullscreenenter"",""1"",""3153""
","
","
","""event"",""trial"",""time""
""fullscreenenter"",""1"",""3153""
","
",,null,run_exp/static/images/task_images/gems/1.jpg,null,,,,,,,0,,,1,,,,,1,0.210065535,0,,,,,,,
decision,73,315963,0.0-26.0-2.0,"""event"",""trial"",""time""
""fullscreenenter"",""1"",""3153""
","
","
","""event"",""trial"",""time""
""fullscreenenter"",""1"",""3153""
","
",,235.4,run_exp/static/images/task_images/land.jpg,65,,,,,,,0,,,1,,,,,,,,20825,1,3,FALSE,,,
dig,74,318733,0.0-27.0-0.0,"""event"",""trial"",""time""
""fullscreenenter"",""1"",""3153""
","
","
","""event"",""trial"",""time""
""fullscreenenter"",""1"",""3153""
","
",,,,,,,,,,,,"[{""stimulus"":""run_exp/static/images/task_images/dig.jpg"",""time"":0.20000004768371582},{""stimulus"":""run_exp/static/images/task_images/land.jpg"",""time"":931.7000000476837},{""stimulus"":""run_exp/static/images/task_images/dig.jpg"",""time"":1853.2000000476837}]",[],1,,,,,,,,,,,,,,
harvest,75,319742,0.0-27.0-1.0,"""event"",""trial"",""time""
""fullscreenenter"",""1"",""3153""
","
","
","""event"",""trial"",""time""
""fullscreenenter"",""1"",""3153""
","
",,null,run_exp/static/images/task_images/gems/0.jpg,null,,,,,,,0,,,1,,,,,0,0.245643963,NaN,,,,,,,
decision,76,320101,0.0-27.0-2.0,"""event"",""trial"",""time""
""fullscreenenter"",""1"",""3153""
","
","
","""event"",""trial"",""time""
""fullscreenenter"",""1"",""3153""
","
",,357.2,run_exp/static/images/task_images/land.jpg,76,,,,,,,0,,,1,,,,,,,,24963,1,4,TRUE,,,
travel,77,329756,0.0-28.0-0.0,"""event"",""trial"",""time""
""fullscreenenter"",""1"",""3153""
","
","
","""event"",""trial"",""time""
""fullscreenenter"",""1"",""3153""
","
",,,,,,,,,,,,"[{""stimulus"":""run_exp/static/images/task_images/rocket-01.jpg"",""time"":0.20000004768371582},{""stimulus"":""run_exp/static/images/task_images/rocket-02.jpg"",""time"":1082.2000000476837},{""stimulus"":""run_exp/static/images/task_images/rocket-03.jpg"",""time"":2152.9000000953674},{""stimulus"":""run_exp/static/images/task_images/rocket-04.jpg"",""time"":3217.600000023842},{""stimulus"":""run_exp/static/images/task_images/rocket-05.jpg"",""time"":4294.200000047684},{""stimulus"":""run_exp/static/images/task_images/rocket-06.jpg"",""time"":5368.800000071526},{""stimulus"":""run_exp/static/images/task_images/rocket-07.jpg"",""time"":6428.700000047684},{""stimulus"":""run_exp/static/images/task_images/rocket-08.jpg"",""time"":7511},{""stimulus"":""run_exp/static/images/task_images/rocket-09.jpg"",""time"":8569.700000047684}]",[],1,,,,,,,,,,,,,,
alien_welcome,78,334761,0.0-28.0-1.0,"""event"",""trial"",""time""
""fullscreenenter"",""1"",""3153""
","
","
","""event"",""trial"",""time""
""fullscreenenter"",""1"",""3153""
","
",,null,run_exp/static/images/task_images/aliens/old_aliens/planet/alien_planet-52.jpg,null,,,,,,,,,,,,,52,"26,52,3,20,46,80,27,4,29,51,32,22,58,47,72,45,28,75,53,64,19,68,71,66,14,30,42,8,31,60,62,11,9,24",,,,,,,,,,
land,79,335275,0.0-28.0-2.0,"""event"",""trial"",""time""
""fullscreenenter"",""1"",""3153""
","
","
","""event"",""trial"",""time""
""fullscreenenter"",""1"",""3153""
","
",,null,run_exp/static/images/task_images/land.jpg,null,,,,,,,100,,,2,,,,,,,,,,,,,,
dig,80,337279,0.0-28.0-3.0,"""event"",""trial"",""time""
""fullscreenenter"",""1"",""3153""
","
","
","""event"",""trial"",""time""
""fullscreenenter"",""1"",""3153""
","
",,,,,,,,,,,,"[{""stimulus"":""run_exp/static/images/task_images/dig.jpg"",""time"":0.10000002384185791},{""stimulus"":""run_exp/static/images/task_images/land.jpg"",""time"":670.8999999761581},{""stimulus"":""run_exp/static/images/task_images/dig.jpg"",""time"":1339.5}]",[],2,,,,,,,,,,,,,,
harvest,81,338293,0.0-28.0-4.0,"""event"",""trial"",""time""
""fullscreenenter"",""1"",""3153""
","
","
","""event"",""trial"",""time""
""fullscreenenter"",""1"",""3153""
","
",,null,run_exp/static/images/task_images/gems/100.jpg,null,,,,,,,16,,,2,,,,,100,0.164248475,0.16,,,,,,,
decision,82,338660,0.0-28.0-5.0,"""event"",""trial"",""time""
""fullscreenenter"",""1"",""3153""
","
","
","""event"",""trial"",""time""
""fullscreenenter"",""1"",""3153""
","
",,366.5,run_exp/static/images/task_images/land.jpg,65,,,,,,,16,,,2,,,,,,,,43522,1,0,FALSE,,,
dig,83,341300,0.0-29.0-0.0,"""event"",""trial"",""time""
""fullscreenenter"",""1"",""3153""
","
","
","""event"",""trial"",""time""
""fullscreenenter"",""1"",""3153""
","
",,,,,,,,,,,,"[{""stimulus"":""run_exp/static/images/task_images/dig.jpg"",""time"":0},{""stimulus"":""run_exp/static/images/task_images/land.jpg"",""time"":892.1999999284744},{""stimulus"":""run_exp/static/images/task_images/dig.jpg"",""time"":1767.6999999284744}]",[],2,,,,,,,,,,,,,,
harvest,84,342317,0.0-29.0-1.0,"""event"",""trial"",""time""
""fullscreenenter"",""1"",""3153""
","
","
","""event"",""trial"",""time""
""fullscreenenter"",""1"",""3153""
","
",,null,run_exp/static/images/task_images/gems/16.jpg,null,,,,,,,3,,,2,,,,,16,0.216451075,0.1875,,,,,,,
decision,85,342716,0.0-29.0-2.0,"""event"",""trial"",""time""
""fullscreenenter"",""1"",""3153""
","
","
","""event"",""trial"",""time""
""fullscreenenter"",""1"",""3153""
","
",,398.5,run_exp/static/images/task_images/land.jpg,65,,,,,,,3,,,2,,,,,,,,47578,1,1,FALSE,,,
dig,86,345323,0.0-30.0-0.0,"""event"",""trial"",""time""
""fullscreenenter"",""1"",""3153""
","
","
","""event"",""trial"",""time""
""fullscreenenter"",""1"",""3153""
","
",,,,,,,,,,,,"[{""stimulus"":""run_exp/static/images/task_images/dig.jpg"",""time"":0.20000004768371582},{""stimulus"":""run_exp/static/images/task_images/land.jpg"",""time"":872.8999999761581},{""stimulus"":""run_exp/static/images/task_images/dig.jpg"",""time"":1747.1000000238419}]",[],2,,,,,,,,,,,,,,
harvest,87,346336,0.0-30.0-1.0,"""event"",""trial"",""time""
""fullscreenenter"",""1"",""3153""
","
","
","""event"",""trial"",""time""
""fullscreenenter"",""1"",""3153""
","
",,null,run_exp/static/images/task_images/gems/3.jpg,null,,,,,,,1,,,2,,,,,3,0.253752587,0.333333333,,,,,,,
decision,88,346660,0.0-30.0-2.0,"""event"",""trial"",""time""
""fullscreenenter"",""1"",""3153""
","
","
","""event"",""trial"",""time""
""fullscreenenter"",""1"",""3153""
","
",,323,run_exp/static/images/task_images/land.jpg,76,,,,,,,1,,,2,,,,,,,,51522,1,2,TRUE,,,
travel,89,356346,0.0-31.0-0.0,"""event"",""trial"",""time""
""fullscreenenter"",""1"",""3153""
","
","
","""event"",""trial"",""time""
""fullscreenenter"",""1"",""3153""
","
",,,,,,,,,,,,"[{""stimulus"":""run_exp/static/images/task_images/rocket-01.jpg"",""time"":0.10000002384185791},{""stimulus"":""run_exp/static/images/task_images/rocket-02.jpg"",""time"":1077.1999999284744},{""stimulus"":""run_exp/static/images/task_images/rocket-03.jpg"",""time"":2156.2999999523163},{""stimulus"":""run_exp/static/images/task_images/rocket-04.jpg"",""time"":3238.2999999523163},{""stimulus"":""run_exp/static/images/task_images/rocket-05.jpg"",""time"":4313.899999976158},{""stimulus"":""run_exp/static/images/task_images/rocket-06.jpg"",""time"":5388.799999952316},{""stimulus"":""run_exp/static/images/task_images/rocket-07.jpg"",""time"":6460.100000023842},{""stimulus"":""run_exp/static/images/task_images/rocket-08.jpg"",""time"":7534},{""stimulus"":""run_exp/static/images/task_images/rocket-09.jpg"",""time"":8609}]",[],2,,,,,,,,,,,,,,
alien_welcome,90,361358,0.0-31.0-1.0,"""event"",""trial"",""time""
""fullscreenenter"",""1"",""3153""
","
","
","""event"",""trial"",""time""
""fullscreenenter"",""1"",""3153""
","
",,null,run_exp/static/images/task_images/aliens/old_aliens/planet/alien_planet-3.jpg,null,,,,,,,,,,,,,3,"26,52,3,20,46,80,27,4,29,51,32,22,58,47,72,45,28,75,53,64,19,68,71,66,14,30,42,8,31,60,62,11,9,24",,,,,,,,,,
land,91,361861,0.0-31.0-2.0,"""event"",""trial"",""time""
""fullscreenenter"",""1"",""3153""
","
","
","""event"",""trial"",""time""
""fullscreenenter"",""1"",""3153""
","
",,null,run_exp/static/images/task_images/land.jpg,null,,,,,,,92,,,3,,,,,,,,,,,,,,
dig,92,363873,0.0-31.0-3.0,"""event"",""trial"",""time""
""fullscreenenter"",""1"",""3153""
","
","
","""event"",""trial"",""time""
""fullscreenenter"",""1"",""3153""
","
",,,,,,,,,,,,"[{""stimulus"":""run_exp/static/images/task_images/dig.jpg"",""time"":0.19999992847442627},{""stimulus"":""run_exp/static/images/task_images/land.jpg"",""time"":667.7999999523163},{""stimulus"":""run_exp/static/images/task_images/dig.jpg"",""time"":1344.6999999284744}]",[],3,,,,,,,,,,,,,,
harvest,93,364886,0.0-31.0-4.0,"""event"",""trial"",""time""
""fullscreenenter"",""1"",""3153""
","
","
","""event"",""trial"",""time""
""fullscreenenter"",""1"",""3153""
","
",,null,run_exp/static/images/task_images/gems/92.jpg,null,,,,,,,49,,,3,,,,,92,0.535771783,0.532608696,,,,,,,
decision,94,365276,0.0-31.0-5.0,"""event"",""trial"",""time""
""fullscreenenter"",""1"",""3153""
","
","
","""event"",""trial"",""time""
""fullscreenenter"",""1"",""3153""
","
",,389.3,run_exp/static/images/task_images/land.jpg,65,,,,,,,49,,,3,,,,,,,,70138,1,0,FALSE,,,
dig,95,367890,0.0-32.0-0.0,"""event"",""trial"",""time""
""fullscreenenter"",""1"",""3153""
","
","
","""event"",""trial"",""time""
""fullscreenenter"",""1"",""3153""
","
",,,,,,,,,,,,"[{""stimulus"":""run_exp/static/images/task_images/dig.jpg"",""time"":0.30000007152557373},{""stimulus"":""run_exp/static/images/task_images/land.jpg"",""time"":886},{""stimulus"":""run_exp/static/images/task_images/dig.jpg"",""time"":1743.7000000476837}]",[],3,,,,,,,,,,,,,,
harvest,96,368899,0.0-32.0-1.0,"""event"",""trial"",""time""
""fullscreenenter"",""1"",""3153""
","
","
","""event"",""trial"",""time""
""fullscreenenter"",""1"",""3153""
","
",,null,run_exp/static/images/task_images/gems/49.jpg,null,,,,,,,23,,,3,,,,,49,0.471966436,0.469387755,,,,,,,
decision,97,369196,0.0-32.0-2.0,"""event"",""trial"",""time""
""fullscreenenter"",""1"",""3153""
","
","
","""event"",""trial"",""time""
""fullscreenenter"",""1"",""3153""
","
",,296.1,run_exp/static/images/task_images/land.jpg,65,,,,,,,23,,,3,,,,,,,,74058,1,1,FALSE,,,
dig,98,371905,0.0-33.0-0.0,"""event"",""trial"",""time""
""fullscreenenter"",""1"",""3153""
","
","
","""event"",""trial"",""time""
""fullscreenenter"",""1"",""3153""
","
",,,,,,,,,,,,"[{""stimulus"":""run_exp/static/images/task_images/dig.jpg"",""time"":0.19999992847442627},{""stimulus"":""run_exp/static/images/task_images/land.jpg"",""time"":914.6000000238419},{""stimulus"":""run_exp/static/images/task_images/dig.jpg"",""time"":1817.5}]",[],3,,,,,,,,,,,,,,
harvest,99,372921,0.0-33.0-1.0,"""event"",""trial"",""time""
""fullscreenenter"",""1"",""3153""
","
","
","""event"",""trial"",""time""
""fullscreenenter"",""1"",""3153""
","
",,null,run_exp/static/images/task_images/gems/23.jpg,null,,,,,,,12,,,3,,,,,23,0.500892665,0.52173913,,,,,,,
decision,100,373204,0.0-33.0-2.0,"""event"",""trial"",""time""
""fullscreenenter"",""1"",""3153""
","
","
","""event"",""trial"",""time""
""fullscreenenter"",""1"",""3153""
","
",,282.6,run_exp/static/images/task_images/land.jpg,65,,,,,,,12,,,3,,,,,,,,78067,1,2,FALSE,,,
dig,101,375927,0.0-34.0-0.0,"""event"",""trial"",""time""
""fullscreenenter"",""1"",""3153""
","
","
","""event"",""trial"",""time""
""fullscreenenter"",""1"",""3153""
","
",,,,,,,,,,,,"[{""stimulus"":""run_exp/static/images/task_images/dig.jpg"",""time"":0.09999990463256836},{""stimulus"":""run_exp/static/images/task_images/land.jpg"",""time"":912.2999999523163},{""stimulus"":""run_exp/static/images/task_images/dig.jpg"",""time"":1819.1999999284744}]",[],3,,,,,,,,,,,,,,
harvest,102,376940,0.0-34.0-1.0,"""event"",""trial"",""time""
""fullscreenenter"",""1"",""3153""
","
","
","""event"",""trial"",""time""
""fullscreenenter"",""1"",""3153""
","
",,null,run_exp/static/images/task_images/gems/12.jpg,null,,,,,,,5,,,3,,,,,12,0.433788838,0.416666667,,,,,,,
decision,103,377476,0.0-34.0-2.0,"""event"",""trial"",""time""
""fullscreenenter"",""1"",""3153""
","
","
","""event"",""trial"",""time""
""fullscreenenter"",""1"",""3153""
","
",,536,run_exp/static/images/task_images/land.jpg,76,,,,,,,5,,,3,,,,,,,,82338,1,3,TRUE,,,
travel,104,386938,0.0-35.0-0.0,"""event"",""trial"",""time""
""fullscreenenter"",""1"",""3153""
","
","
","""event"",""trial"",""time""
""fullscreenenter"",""1"",""3153""
","
",,,,,,,,,,,,"[{""stimulus"":""run_exp/static/images/task_images/rocket-01.jpg"",""time"":0.20000004768371582},{""stimulus"":""run_exp/static/images/task_images/rocket-02.jpg"",""time"":1055.7000000476837},{""stimulus"":""run_exp/static/images/task_images/rocket-03.jpg"",""time"":2112.7999999523163},{""stimulus"":""run_exp/static/images/task_images/rocket-04.jpg"",""time"":3168.600000023842},{""stimulus"":""run_exp/static/images/task_images/rocket-05.jpg"",""time"":4210.799999952316},{""stimulus"":""run_exp/static/images/task_images/rocket-06.jpg"",""time"":5268.100000023842},{""stimulus"":""run_exp/static/images/task_images/rocket-07.jpg"",""time"":6314.600000023842},{""stimulus"":""run_exp/static/images/task_images/rocket-08.jpg"",""time"":7370.799999952316},{""stimulus"":""run_exp/static/images/task_images/rocket-09.jpg"",""time"":8417.600000023842}]",[],3,,,,,,,,,,,,,,
alien_welcome,105,391949,0.0-35.0-1.0,"""event"",""trial"",""time""
""fullscreenenter"",""1"",""3153""
","
","
","""event"",""trial"",""time""
""fullscreenenter"",""1"",""3153""
","
",,null,run_exp/static/images/task_images/aliens/old_aliens/planet/alien_planet-20.jpg,null,,,,,,,,,,,,,20,"26,52,3,20,46,80,27,4,29,51,32,22,58,47,72,45,28,75,53,64,19,68,71,66,14,30,42,8,31,60,62,11,9,24",,,,,,,,,,
land,106,392459,0.0-35.0-2.0,"""event"",""trial"",""time""
""fullscreenenter"",""1"",""3153""
","
","
","""event"",""trial"",""time""
""fullscreenenter"",""1"",""3153""
","
",,null,run_exp/static/images/task_images/land.jpg,null,,,,,,,98,,,4,,,,,,,,,,,,,,
dig,107,394468,0.0-35.0-3.0,"""event"",""trial"",""time""
""fullscreenenter"",""1"",""3153""
","
","
","""event"",""trial"",""time""
""fullscreenenter"",""1"",""3153""
","
",,,,,,,,,,,,"[{""stimulus"":""run_exp/static/images/task_images/dig.jpg"",""time"":0.20000004768371582},{""stimulus"":""run_exp/static/images/task_images/land.jpg"",""time"":668.3000000715256},{""stimulus"":""run_exp/static/images/task_images/dig.jpg"",""time"":1336.1000000238419}]",[],4,,,,,,,,,,,,,,
harvest,108,395481,0.0-35.0-4.0,"""event"",""trial"",""time""
""fullscreenenter"",""1"",""3153""
","
","
","""event"",""trial"",""time""
""fullscreenenter"",""1"",""3153""
","
",,null,run_exp/static/images/task_images/gems/98.jpg,null,,,,,,,44,,,4,,,,,98,0.451689649,0.448979592,,,,,,,
decision,109,395828,0.0-35.0-5.0,"""event"",""trial"",""time""
""fullscreenenter"",""1"",""3153""
","
","
","""event"",""trial"",""time""
""fullscreenenter"",""1"",""3153""
","
",,346.1,run_exp/static/images/task_images/land.jpg,65,,,,,,,44,,,4,,,,,,,,100690,1,0,FALSE,,,
dig,110,398496,0.0-36.0-0.0,"""event"",""trial"",""time""
""fullscreenenter"",""1"",""3153""
","
","
","""event"",""trial"",""time""
""fullscreenenter"",""1"",""3153""
","
",,,,,,,,,,,,"[{""stimulus"":""run_exp/static/images/task_images/dig.jpg"",""time"":0},{""stimulus"":""run_exp/static/images/task_images/land.jpg"",""time"":889.7999999523163},{""stimulus"":""run_exp/static/images/task_images/dig.jpg"",""time"":1777.6999999284744}]",[],4,,,,,,,,,,,,,,
harvest,111,399510,0.0-36.0-1.0,"""event"",""trial"",""time""
""fullscreenenter"",""1"",""3153""
","
","
","""event"",""trial"",""time""
""fullscreenenter"",""1"",""3153""
","
",,null,run_exp/static/images/task_images/gems/44.jpg,null,,,,,,,22,,,4,,,,,44,0.502726932,0.5,,,,,,,
decision,112,399797,0.0-36.0-2.0,"""event"",""trial"",""time""
""fullscreenenter"",""1"",""3153""
","
","
","""event"",""trial"",""time""
""fullscreenenter"",""1"",""3153""
","
",,286.1999999,run_exp/static/images/task_images/land.jpg,65,,,,,,,22,,,4,,,,,,,,104659,1,1,FALSE,,,
dig,113,402526,0.0-37.0-0.0,"""event"",""trial"",""time""
""fullscreenenter"",""1"",""3153""
","
","
","""event"",""trial"",""time""
""fullscreenenter"",""1"",""3153""
","
",,,,,,,,,,,,"[{""stimulus"":""run_exp/static/images/task_images/dig.jpg"",""time"":0.09999990463256836},{""stimulus"":""run_exp/static/images/task_images/land.jpg"",""time"":909.3999999761581},{""stimulus"":""run_exp/static/images/task_images/dig.jpg"",""time"":1811.1999999284744}]",[],4,,,,,,,,,,,,,,
harvest,114,403529,0.0-37.0-1.0,"""event"",""trial"",""time""
""fullscreenenter"",""1"",""3153""
","
","
","""event"",""trial"",""time""
""fullscreenenter"",""1"",""3153""
","
",,null,run_exp/static/images/task_images/gems/22.jpg,null,,,,,,,11,,,4,,,,,22,0.492739679,0.5,,,,,,,
decision,115,403820,0.0-37.0-2.0,"""event"",""trial"",""time""
""fullscreenenter"",""1"",""3153""
","
","
","""event"",""trial"",""time""
""fullscreenenter"",""1"",""3153""
","
",,290.1999999,run_exp/static/images/task_images/land.jpg,65,,,,,,,11,,,4,,,,,,,,108682,1,2,FALSE,,,
dig,116,406537,0.0-38.0-0.0,"""event"",""trial"",""time""
""fullscreenenter"",""1"",""3153""
","
","
","""event"",""trial"",""time""
""fullscreenenter"",""1"",""3153""
","
",,,,,,,,,,,,"[{""stimulus"":""run_exp/static/images/task_images/dig.jpg"",""time"":0.20000004768371582},{""stimulus"":""run_exp/static/images/task_images/land.jpg"",""time"":906.5},{""stimulus"":""run_exp/static/images/task_images/dig.jpg"",""time"":1807.8999999761581}]",[],4,,,,,,,,,,,,,,
harvest,117,407552,0.0-38.0-1.0,"""event"",""trial"",""time""
""fullscreenenter"",""1"",""3153""
","
","
","""event"",""trial"",""time""
""fullscreenenter"",""1"",""3153""
","
",,null,run_exp/static/images/task_images/gems/11.jpg,null,,,,,,,6,,,4,,,,,11,0.546613938,0.545454545,,,,,,,
decision,118,407812,0.0-38.0-2.0,"""event"",""trial"",""time""
""fullscreenenter"",""1"",""3153""
","
","
","""event"",""trial"",""time""
""fullscreenenter"",""1"",""3153""
","
",,259.8,run_exp/static/images/task_images/land.jpg,76,,,,,,,6,,,4,,,,,,,,112674,1,3,TRUE,,,
travel,119,417564,0.0-39.0-0.0,"""event"",""trial"",""time""
""fullscreenenter"",""1"",""3153""
","
","
","""event"",""trial"",""time""
""fullscreenenter"",""1"",""3153""
","
",,,,,,,,,,,,"[{""stimulus"":""run_exp/static/images/task_images/rocket-01.jpg"",""time"":0.09999990463256836},{""stimulus"":""run_exp/static/images/task_images/rocket-02.jpg"",""time"":1092.3999999761581},{""stimulus"":""run_exp/static/images/task_images/rocket-03.jpg"",""time"":2180.5},{""stimulus"":""run_exp/static/images/task_images/rocket-04.jpg"",""time"":3254.5},{""stimulus"":""run_exp/static/images/task_images/rocket-05.jpg"",""time"":4332.399999976158},{""stimulus"":""run_exp/static/images/task_images/rocket-06.jpg"",""time"":5413.399999976158},{""stimulus"":""run_exp/static/images/task_images/rocket-07.jpg"",""time"":6504.299999952316},{""stimulus"":""run_exp/static/images/task_images/rocket-08.jpg"",""time"":7575.799999952316},{""stimulus"":""run_exp/static/images/task_images/rocket-09.jpg"",""time"":8666.199999928474}]",[],4,,,,,,,,,,,,,,
alien_welcome,120,422578,0.0-39.0-1.0,"""event"",""trial"",""time""
""fullscreenenter"",""1"",""3153""
","
","
","""event"",""trial"",""time""
""fullscreenenter"",""1"",""3153""
","
",,null,run_exp/static/images/task_images/aliens/old_aliens/planet/alien_planet-46.jpg,null,,,,,,,,,,,,,46,"26,52,3,20,46,80,27,4,29,51,32,22,58,47,72,45,28,75,53,64,19,68,71,66,14,30,42,8,31,60,62,11,9,24",,,,,,,,,,
land,121,423091,0.0-39.0-2.0,"""event"",""trial"",""time""
""fullscreenenter"",""1"",""3153""
","
","
","""event"",""trial"",""time""
""fullscreenenter"",""1"",""3153""
","
",,null,run_exp/static/images/task_images/land.jpg,null,,,,,,,95,,,5,,,,,,,,,,,,,,
dig,122,425104,0.0-39.0-3.0,"""event"",""trial"",""time""
""fullscreenenter"",""1"",""3153""
","
","
","""event"",""trial"",""time""
""fullscreenenter"",""1"",""3153""
","
",,,,,,,,,,,,"[{""stimulus"":""run_exp/static/images/task_images/dig.jpg"",""time"":0.10000002384185791},{""stimulus"":""run_exp/static/images/task_images/land.jpg"",""time"":669.3999999761581},{""stimulus"":""run_exp/static/images/task_images/dig.jpg"",""time"":1341.6000000238419}]",[],5,,,,,,,,,,,,,,
harvest,123,426114,0.0-39.0-4.0,"""event"",""trial"",""time""
""fullscreenenter"",""1"",""3153""
","
","
","""event"",""trial"",""time""
""fullscreenenter"",""1"",""3153""
","
",,null,run_exp/static/images/task_images/gems/95.jpg,null,,,,,,,44,,,5,,,,,95,0.458011676,0.463157895,,,,,,,
decision,124,426428,0.0-39.0-5.0,"""event"",""trial"",""time""
""fullscreenenter"",""1"",""3153""
","
","
","""event"",""trial"",""time""
""fullscreenenter"",""1"",""3153""
","
",,312.6999999,run_exp/static/images/task_images/land.jpg,65,,,,,,,44,,,5,,,,,,,,131290,1,0,FALSE,,,
dig,125,429117,0.0-40.0-0.0,"""event"",""trial"",""time""
""fullscreenenter"",""1"",""3153""
","
","
","""event"",""trial"",""time""
""fullscreenenter"",""1"",""3153""
","
",,,,,,,,,,,,"[{""stimulus"":""run_exp/static/images/task_images/dig.jpg"",""time"":0.20000004768371582},{""stimulus"":""run_exp/static/images/task_images/land.jpg"",""time"":896.7000000476837},{""stimulus"":""run_exp/static/images/task_images/dig.jpg"",""time"":1798}]",[],5,,,,,,,,,,,,,,
harvest,126,430120,0.0-40.0-1.0,"""event"",""trial"",""time""
""fullscreenenter"",""1"",""3153""
","
","
","""event"",""trial"",""time""
""fullscreenenter"",""1"",""3153""
","
",,null,run_exp/static/images/task_images/gems/44.jpg,null,,,,,,,21,,,5,,,,,44,0.475177857,0.477272727,,,,,,,
decision,127,430412,0.0-40.0-2.0,"""event"",""trial"",""time""
""fullscreenenter"",""1"",""3153""
","
","
","""event"",""trial"",""time""
""fullscreenenter"",""1"",""3153""
","
",,291.4,run_exp/static/images/task_images/land.jpg,65,,,,,,,21,,,5,,,,,,,,135274,1,1,FALSE,,,
dig,128,433121,0.0-41.0-0.0,"""event"",""trial"",""time""
""fullscreenenter"",""1"",""3153""
","
","
","""event"",""trial"",""time""
""fullscreenenter"",""1"",""3153""
","
",,,,,,,,,,,,"[{""stimulus"":""run_exp/static/images/task_images/dig.jpg"",""time"":0.10000002384185791},{""stimulus"":""run_exp/static/images/task_images/land.jpg"",""time"":904.6999999284744},{""stimulus"":""run_exp/static/images/task_images/dig.jpg"",""time"":1808.3999999761581}]",[],5,,,,,,,,,,,,,,
harvest,129,434136,0.0-41.0-1.0,"""event"",""trial"",""time""
""fullscreenenter"",""1"",""3153""
","
","
","""event"",""trial"",""time""
""fullscreenenter"",""1"",""3153""
","
",,null,run_exp/static/images/task_images/gems/21.jpg,null,,,,,,,11,,,5,,,,,21,0.52852423,0.523809524,,,,,,,
decision,130,434412,0.0-41.0-2.0,"""event"",""trial"",""time""
""fullscreenenter"",""1"",""3153""
","
","
","""event"",""trial"",""time""
""fullscreenenter"",""1"",""3153""
","
",,275.4,run_exp/static/images/task_images/land.jpg,65,,,,,,,11,,,5,,,,,,,,139274,1,2,FALSE,,,
dig,131,437144,0.0-42.0-0.0,"""event"",""trial"",""time""
""fullscreenenter"",""1"",""3153""
","
","
","""event"",""trial"",""time""
""fullscreenenter"",""1"",""3153""
","
",,,,,,,,,,,,"[{""stimulus"":""run_exp/static/images/task_images/dig.jpg"",""time"":0.10000002384185791},{""stimulus"":""run_exp/static/images/task_images/land.jpg"",""time"":916.3999999761581},{""stimulus"":""run_exp/static/images/task_images/dig.jpg"",""time"":1817.5}]",[],5,,,,,,,,,,,,,,
harvest,132,438160,0.0-42.0-1.0,"""event"",""trial"",""time""
""fullscreenenter"",""1"",""3153""
","
","
","""event"",""trial"",""time""
""fullscreenenter"",""1"",""3153""
","
",,null,run_exp/static/images/task_images/gems/11.jpg,null,,,,,,,5,,,5,,,,,11,0.476091536,0.454545455,,,,,,,
decision,133,438172,0.0-42.0-2.0,"""event"",""trial"",""time""
""fullscreenenter"",""1"",""3153""
","
","
","""event"",""trial"",""time""
""fullscreenenter"",""1"",""3153""
","
",,11.4000001,run_exp/static/images/task_images/land.jpg,76,,,,,,,5,,,5,,,,,,,,143034,1,3,TRUE,,,
travel,134,448158,0.0-43.0-0.0,"""event"",""trial"",""time""
""fullscreenenter"",""1"",""3153""
","
","
","""event"",""trial"",""time""
""fullscreenenter"",""1"",""3153""
","
",,,,,,,,,,,,"[{""stimulus"":""run_exp/static/images/task_images/rocket-01.jpg"",""time"":0.10000002384185791},{""stimulus"":""run_exp/static/images/task_images/rocket-02.jpg"",""time"":1117.6000000238419},{""stimulus"":""run_exp/static/images/task_images/rocket-03.jpg"",""time"":2226},{""stimulus"":""run_exp/static/images/task_images/rocket-04.jpg"",""time"":3330.4000000953674},{""stimulus"":""run_exp/static/images/task_images/rocket-05.jpg"",""time"":4447.800000071526},{""stimulus"":""run_exp/static/images/task_images/rocket-06.jpg"",""time"":5552.100000023842},{""stimulus"":""run_exp/static/images/task_images/rocket-07.jpg"",""time"":6654.800000071526},{""stimulus"":""run_exp/static/images/task_images/rocket-08.jpg"",""time"":7769.100000023842},{""stimulus"":""run_exp/static/images/task_images/rocket-09.jpg"",""time"":8876.900000095367}]",[],5,,,,,,,,,,,,,,
alien_welcome,135,453174,0.0-43.0-1.0,"""event"",""trial"",""time""
""fullscreenenter"",""1"",""3153""
","
","
","""event"",""trial"",""time""
""fullscreenenter"",""1"",""3153""
","
",,null,run_exp/static/images/task_images/aliens/old_aliens/planet/alien_planet-80.jpg,null,,,,,,,,,,,,,80,"26,52,3,20,46,80,27,4,29,51,32,22,58,47,72,45,28,75,53,64,19,68,71,66,14,30,42,8,31,60,62,11,9,24",,,,,,,,,,
land,136,453687,0.0-43.0-2.0,"""event"",""trial"",""time""
""fullscreenenter"",""1"",""3153""
","
","
","""event"",""trial"",""time""
""fullscreenenter"",""1"",""3153""
","
",,null,run_exp/static/images/task_images/land.jpg,null,,,,,,,106,,,6,,,,,,,,,,,,,,
dig,137,455696,0.0-43.0-3.0,"""event"",""trial"",""time""
""fullscreenenter"",""1"",""3153""
","
","
","""event"",""trial"",""time""
""fullscreenenter"",""1"",""3153""
","
",,,,,,,,,,,,"[{""stimulus"":""run_exp/static/images/task_images/dig.jpg"",""time"":0.10000002384185791},{""stimulus"":""run_exp/static/images/task_images/land.jpg"",""time"":670.3999999761581},{""stimulus"":""run_exp/static/images/task_images/dig.jpg"",""time"":1339.3000000715256}]",[],6,,,,,,,,,,,,,,
harvest,138,456712,0.0-43.0-4.0,"""event"",""trial"",""time""
""fullscreenenter"",""1"",""3153""
","
","
","""event"",""trial"",""time""
""fullscreenenter"",""1"",""3153""
","
",,null,run_exp/static/images/task_images/gems/106.jpg,null,,,,,,,80,,,6,,,,,106,0.757451021,0.754716981,,,,,,,
decision,139,457124,0.0-43.0-5.0,"""event"",""trial"",""time""
""fullscreenenter"",""1"",""3153""
","
","
","""event"",""trial"",""time""
""fullscreenenter"",""1"",""3153""
","
",,411,run_exp/static/images/task_images/land.jpg,65,,,,,,,80,,,6,,,,,,,,161986,1,0,FALSE,,,
dig,140,459716,0.0-44.0-0.0,"""event"",""trial"",""time""
""fullscreenenter"",""1"",""3153""
","
","
","""event"",""trial"",""time""
""fullscreenenter"",""1"",""3153""
","
",,,,,,,,,,,,"[{""stimulus"":""run_exp/static/images/task_images/dig.jpg"",""time"":0},{""stimulus"":""run_exp/static/images/task_images/land.jpg"",""time"":877.7000000476837},{""stimulus"":""run_exp/static/images/task_images/dig.jpg"",""time"":1737.5}]",[],6,,,,,,,,,,,,,,
harvest,141,460724,0.0-44.0-1.0,"""event"",""trial"",""time""
""fullscreenenter"",""1"",""3153""
","
","
","""event"",""trial"",""time""
""fullscreenenter"",""1"",""3153""
","
",,null,run_exp/static/images/task_images/gems/80.jpg,null,,,,,,,68,,,6,,,,,80,0.847266874,0.85,,,,,,,
decision,142,461211,0.0-44.0-2.0,"""event"",""trial"",""time""
""fullscreenenter"",""1"",""3153""
","
","
","""event"",""trial"",""time""
""fullscreenenter"",""1"",""3153""
","
",,486.1,run_exp/static/images/task_images/land.jpg,65,,,,,,,68,,,6,,,,,,,,166073,1,1,FALSE,,,
dig,143,463729,0.0-45.0-0.0,"""event"",""trial"",""time""
""fullscreenenter"",""1"",""3153""
","
","
","""event"",""trial"",""time""
""fullscreenenter"",""1"",""3153""
","
",,,,,,,,,,,,"[{""stimulus"":""run_exp/static/images/task_images/dig.jpg"",""time"":0},{""stimulus"":""run_exp/static/images/task_images/land.jpg"",""time"":838},{""stimulus"":""run_exp/static/images/task_images/dig.jpg"",""time"":1680.9000000953674}]",[],6,,,,,,,,,,,,,,
harvest,144,464744,0.0-45.0-1.0,"""event"",""trial"",""time""
""fullscreenenter"",""1"",""3153""
","
","
","""event"",""trial"",""time""
""fullscreenenter"",""1"",""3153""
","
",,null,run_exp/static/images/task_images/gems/68.jpg,null,,,,,,,58,,,6,,,,,68,0.8545625,0.852941176,,,,,,,
decision,145,465564,0.0-45.0-2.0,"""event"",""trial"",""time""
""fullscreenenter"",""1"",""3153""
","
","
","""event"",""trial"",""time""
""fullscreenenter"",""1"",""3153""
","
",,819.1,run_exp/static/images/task_images/land.jpg,65,,,,,,,58,,,6,,,,,,,,170426,1,2,FALSE,,,
dig,146,467751,0.0-46.0-0.0,"""event"",""trial"",""time""
""fullscreenenter"",""1"",""3153""
","
","
","""event"",""trial"",""time""
""fullscreenenter"",""1"",""3153""
","
",,,,,,,,,,,,"[{""stimulus"":""run_exp/static/images/task_images/dig.jpg"",""time"":0.09999990463256836},{""stimulus"":""run_exp/static/images/task_images/land.jpg"",""time"":740.5},{""stimulus"":""run_exp/static/images/task_images/dig.jpg"",""time"":1456.6999999284744}]",[],6,,,,,,,,,,,,,,
harvest,147,468761,0.0-46.0-1.0,"""event"",""trial"",""time""
""fullscreenenter"",""1"",""3153""
","
","
","""event"",""trial"",""time""
""fullscreenenter"",""1"",""3153""
","
",,null,run_exp/static/images/task_images/gems/58.jpg,null,,,,,,,44,,,6,,,,,58,0.759788736,0.75862069,,,,,,,
decision,148,469476,0.0-46.0-2.0,"""event"",""trial"",""time""
""fullscreenenter"",""1"",""3153""
","
","
","""event"",""trial"",""time""
""fullscreenenter"",""1"",""3153""
","
",,714,run_exp/static/images/task_images/land.jpg,65,,,,,,,44,,,6,,,,,,,,174338,1,3,FALSE,,,
dig,149,471780,0.0-47.0-0.0,"""event"",""trial"",""time""
""fullscreenenter"",""1"",""3153""
","
","
","""event"",""trial"",""time""
""fullscreenenter"",""1"",""3153""
","
",,,,,,,,,,,,"[{""stimulus"":""run_exp/static/images/task_images/dig.jpg"",""time"":0},{""stimulus"":""run_exp/static/images/task_images/land.jpg"",""time"":776.7999999523163},{""stimulus"":""run_exp/static/images/task_images/dig.jpg"",""time"":1536.7999999523163}]",[],6,,,,,,,,,,,,,,
harvest,150,472790,0.0-47.0-1.0,"""event"",""trial"",""time""
""fullscreenenter"",""1"",""3153""
","
","
","""event"",""trial"",""time""
""fullscreenenter"",""1"",""3153""
","
",,null,run_exp/static/images/task_images/gems/44.jpg,null,,,,,,,37,,,6,,,,,44,0.841769646,0.840909091,,,,,,,
decision,151,473211,0.0-47.0-2.0,"""event"",""trial"",""time""
""fullscreenenter"",""1"",""3153""
","
","
","""event"",""trial"",""time""
""fullscreenenter"",""1"",""3153""
","
",,420.9000001,run_exp/static/images/task_images/land.jpg,65,,,,,,,37,,,6,,,,,,,,178074,1,4,FALSE,,,
dig,152,475798,0.0-48.0-0.0,"""event"",""trial"",""time""
""fullscreenenter"",""1"",""3153""
","
","
","""event"",""trial"",""time""
""fullscreenenter"",""1"",""3153""
","
",,,,,,,,,,,,"[{""stimulus"":""run_exp/static/images/task_images/dig.jpg"",""time"":0.10000002384185791},{""stimulus"":""run_exp/static/images/task_images/land.jpg"",""time"":869.4000000953674},{""stimulus"":""run_exp/static/images/task_images/dig.jpg"",""time"":1726.8000000715256}]",[],6,,,,,,,,,,,,,,
harvest,153,476806,0.0-48.0-1.0,"""event"",""trial"",""time""
""fullscreenenter"",""1"",""3153""
","
","
","""event"",""trial"",""time""
""fullscreenenter"",""1"",""3153""
","
",,null,run_exp/static/images/task_images/gems/37.jpg,null,,,,,,,29,,,6,,,,,37,0.773999051,0.783783784,,,,,,,
decision,154,477124,0.0-48.0-2.0,"""event"",""trial"",""time""
""fullscreenenter"",""1"",""3153""
","
","
","""event"",""trial"",""time""
""fullscreenenter"",""1"",""3153""
","
",,317.5,run_exp/static/images/task_images/land.jpg,65,,,,,,,29,,,6,,,,,,,,181986,1,5,FALSE,,,
dig,155,479823,0.0-49.0-0.0,"""event"",""trial"",""time""
""fullscreenenter"",""1"",""3153""
","
","
","""event"",""trial"",""time""
""fullscreenenter"",""1"",""3153""
","
",,,,,,,,,,,,"[{""stimulus"":""run_exp/static/images/task_images/dig.jpg"",""time"":0.09999990463256836},{""stimulus"":""run_exp/static/images/task_images/land.jpg"",""time"":905.5},{""stimulus"":""run_exp/static/images/task_images/dig.jpg"",""time"":1795.7999999523163}]",[],6,,,,,,,,,,,,,,
harvest,156,480825,0.0-49.0-1.0,"""event"",""trial"",""time""
""fullscreenenter"",""1"",""3153""
","
","
","""event"",""trial"",""time""
""fullscreenenter"",""1"",""3153""
","
",,null,run_exp/static/images/task_images/gems/29.jpg,null,,,,,,,21,,,6,,,,,29,0.732734132,0.724137931,,,,,,,
decision,157,481235,0.0-49.0-2.0,"""event"",""trial"",""time""
""fullscreenenter"",""1"",""3153""
","
","
","""event"",""trial"",""time""
""fullscreenenter"",""1"",""3153""
","
",,409.1,run_exp/static/images/task_images/land.jpg,65,,,,,,,21,,,6,,,,,,,,186097,1,6,FALSE,,,
dig,158,483835,0.0-50.0-0.0,"""event"",""trial"",""time""
""fullscreenenter"",""1"",""3153""
","
","
","""event"",""trial"",""time""
""fullscreenenter"",""1"",""3153""
","
",,,,,,,,,,,,"[{""stimulus"":""run_exp/static/images/task_images/dig.jpg"",""time"":0.10000002384185791},{""stimulus"":""run_exp/static/images/task_images/land.jpg"",""time"":864.8000000715256},{""stimulus"":""run_exp/static/images/task_images/dig.jpg"",""time"":1732.5}]",[],6,,,,,,,,,,,,,,
harvest,159,484851,0.0-50.0-1.0,"""event"",""trial"",""time""
""fullscreenenter"",""1"",""3153""
","
","
","""event"",""trial"",""time""
""fullscreenenter"",""1"",""3153""
","
",,null,run_exp/static/images/task_images/gems/21.jpg,null,,,,,,,16,,,6,,,,,21,0.77592551,0.761904762,,,,,,,
decision,160,485116,0.0-50.0-2.0,"""event"",""trial"",""time""
""fullscreenenter"",""1"",""3153""
","
","
","""event"",""trial"",""time""
""fullscreenenter"",""1"",""3153""
","
",,264.4,run_exp/static/images/task_images/land.jpg,65,,,,,,,16,,,6,,,,,,,,189978,1,7,FALSE,,,
dig,161,487865,0.0-51.0-0.0,"""event"",""trial"",""time""
""fullscreenenter"",""1"",""3153""
","
","
","""event"",""trial"",""time""
""fullscreenenter"",""1"",""3153""
","
",,,,,,,,,,,,"[{""stimulus"":""run_exp/static/images/task_images/dig.jpg"",""time"":0.10000002384185791},{""stimulus"":""run_exp/static/images/task_images/land.jpg"",""time"":919.2000000476837},{""stimulus"":""run_exp/static/images/task_images/dig.jpg"",""time"":1827.8999999761581}]",[],6,,,,,,,,,,,,,,
harvest,162,488875,0.0-51.0-1.0,"""event"",""trial"",""time""
""fullscreenenter"",""1"",""3153""
","
","
","""event"",""trial"",""time""
""fullscreenenter"",""1"",""3153""
","
",,null,run_exp/static/images/task_images/gems/16.jpg,null,,,,,,,14,,,6,,,,,16,0.845688766,0.875,,,,,,,
decision,163,489164,0.0-51.0-2.0,"""event"",""trial"",""time""
""fullscreenenter"",""1"",""3153""
","
","
","""event"",""trial"",""time""
""fullscreenenter"",""1"",""3153""
","
",,286.8,run_exp/static/images/task_images/land.jpg,65,,,,,,,14,,,6,,,,,,,,194026,1,8,FALSE,,,
dig,164,491889,0.0-52.0-0.0,"""event"",""trial"",""time""
""fullscreenenter"",""1"",""3153""
","
","
","""event"",""trial"",""time""
""fullscreenenter"",""1"",""3153""
","
",,,,,,,,,,,,"[{""stimulus"":""run_exp/static/images/task_images/dig.jpg"",""time"":0.10000002384185791},{""stimulus"":""run_exp/static/images/task_images/land.jpg"",""time"":905.3000000715256},{""stimulus"":""run_exp/static/images/task_images/dig.jpg"",""time"":1824.4000000953674}]",[],6,,,,,,,,,,,,,,
harvest,165,492893,0.0-52.0-1.0,"""event"",""trial"",""time""
""fullscreenenter"",""1"",""3153""
","
","
","""event"",""trial"",""time""
""fullscreenenter"",""1"",""3153""
","
",,null,run_exp/static/images/task_images/gems/14.jpg,null,,,,,,,12,,,6,,,,,14,0.821738753,0.857142857,,,,,,,
decision,166,493244,0.0-52.0-2.0,"""event"",""trial"",""time""
""fullscreenenter"",""1"",""3153""
","
","
","""event"",""trial"",""time""
""fullscreenenter"",""1"",""3153""
","
",,349.6,run_exp/static/images/task_images/land.jpg,65,,,,,,,12,,,6,,,,,,,,198106,1,9,FALSE,,,
dig,167,495899,0.0-53.0-0.0,"""event"",""trial"",""time""
""fullscreenenter"",""1"",""3153""
","
","
","""event"",""trial"",""time""
""fullscreenenter"",""1"",""3153""
","
",,,,,,,,,,,,"[{""stimulus"":""run_exp/static/images/task_images/dig.jpg"",""time"":0.10000002384185791},{""stimulus"":""run_exp/static/images/task_images/land.jpg"",""time"":892.1000000238419},{""stimulus"":""run_exp/static/images/task_images/dig.jpg"",""time"":1780}]",[],6,,,,,,,,,,,,,,
harvest,168,496902,0.0-53.0-1.0,"""event"",""trial"",""time""
""fullscreenenter"",""1"",""3153""
","
","
","""event"",""trial"",""time""
""fullscreenenter"",""1"",""3153""
","
",,null,run_exp/static/images/task_images/gems/12.jpg,null,,,,,,,10,,,6,,,,,12,0.863176756,0.833333333,,,,,,,
decision,169,497187,0.0-53.0-2.0,"""event"",""trial"",""time""
""fullscreenenter"",""1"",""3153""
","
","
","""event"",""trial"",""time""
""fullscreenenter"",""1"",""3153""
","
",,284.4,run_exp/static/images/task_images/land.jpg,76,,,,,,,10,,,6,,,,,,,,202049,1,10,TRUE,,,
travel,170,506917,0.0-54.0-0.0,"""event"",""trial"",""time""
""fullscreenenter"",""1"",""3153""
","
","
","""event"",""trial"",""time""
""fullscreenenter"",""1"",""3153""
","
",,,,,,,,,,,,"[{""stimulus"":""run_exp/static/images/task_images/rocket-01.jpg"",""time"":0.10000002384185791},{""stimulus"":""run_exp/static/images/task_images/rocket-02.jpg"",""time"":1081.4000000953674},{""stimulus"":""run_exp/static/images/task_images/rocket-03.jpg"",""time"":2170.7000000476837},{""stimulus"":""run_exp/static/images/task_images/rocket-04.jpg"",""time"":3240.9000000953674},{""stimulus"":""run_exp/static/images/task_images/rocket-05.jpg"",""time"":4326.700000047684},{""stimulus"":""run_exp/static/images/task_images/rocket-06.jpg"",""time"":5401.400000095367},{""stimulus"":""run_exp/static/images/task_images/rocket-07.jpg"",""time"":6476.900000095367},{""stimulus"":""run_exp/static/images/task_images/rocket-08.jpg"",""time"":7566.200000047684},{""stimulus"":""run_exp/static/images/task_images/rocket-09.jpg"",""time"":8640.400000095367}]",[],6,,,,,,,,,,,,,,
alien_welcome,171,511925,0.0-54.0-1.0,"""event"",""trial"",""time""
""fullscreenenter"",""1"",""3153""
","
","
","""event"",""trial"",""time""
""fullscreenenter"",""1"",""3153""
","
",,null,run_exp/static/images/task_images/aliens/old_aliens/planet/alien_planet-27.jpg,null,,,,,,,,,,,,,27,"26,52,3,20,46,80,27,4,29,51,32,22,58,47,72,45,28,75,53,64,19,68,71,66,14,30,42,8,31,60,62,11,9,24",,,,,,,,,,
land,172,512436,0.0-54.0-2.0,"""event"",""trial"",""time""
""fullscreenenter"",""1"",""3153""
","
","
","""event"",""trial"",""time""
""fullscreenenter"",""1"",""3153""
","
",,null,run_exp/static/images/task_images/land.jpg,null,,,,,,,112,,,7,,,,,,,,,,,,,,
dig,173,514443,0.0-54.0-3.0,"""event"",""trial"",""time""
""fullscreenenter"",""1"",""3153""
","
","
","""event"",""trial"",""time""
""fullscreenenter"",""1"",""3153""
","
",,,,,,,,,,,,"[{""stimulus"":""run_exp/static/images/task_images/dig.jpg"",""time"":0.19999992847442627},{""stimulus"":""run_exp/static/images/task_images/land.jpg"",""time"":670.3999999761581},{""stimulus"":""run_exp/static/images/task_images/dig.jpg"",""time"":1336.2999999523163}]",[],7,,,,,,,,,,,,,,
harvest,174,515446,0.0-54.0-4.0,"""event"",""trial"",""time""
""fullscreenenter"",""1"",""3153""
","
","
","""event"",""trial"",""time""
""fullscreenenter"",""1"",""3153""
","
",,null,run_exp/static/images/task_images/gems/112.jpg,null,,,,,,,87,,,7,,,,,112,0.780843787,0.776785714,,,,,,,
decision,175,517404,0.0-54.0-5.0,"""event"",""trial"",""time""
""fullscreenenter"",""1"",""3153""
","
","
","""event"",""trial"",""time""
""fullscreenenter"",""1"",""3153""
","
",,1957.4,run_exp/static/images/task_images/land.jpg,65,,,,,,,87,,,7,,,,,,,,222266,1,0,FALSE,,,
dig,176,518449,0.0-55.0-0.0,"""event"",""trial"",""time""
""fullscreenenter"",""1"",""3153""
","
","
","""event"",""trial"",""time""
""fullscreenenter"",""1"",""3153""
","
",,,,,,,,,,,,"[{""stimulus"":""run_exp/static/images/task_images/dig.jpg"",""time"":0},{""stimulus"":""run_exp/static/images/task_images/land.jpg"",""time"":359.89999997615814},{""stimulus"":""run_exp/static/images/task_images/dig.jpg"",""time"":700}]",[],7,,,,,,,,,,,,,,
harvest,177,519460,0.0-55.0-1.0,"""event"",""trial"",""time""
""fullscreenenter"",""1"",""3153""
","
","
","""event"",""trial"",""time""
""fullscreenenter"",""1"",""3153""
","
",,null,run_exp/static/images/task_images/gems/87.jpg,null,,,,,,,75,,,7,,,,,87,0.857558058,0.862068966,,,,,,,
decision,178,519868,0.0-55.0-2.0,"""event"",""trial"",""time""
""fullscreenenter"",""1"",""3153""
","
","
","""event"",""trial"",""time""
""fullscreenenter"",""1"",""3153""
","
",,407.9,run_exp/static/images/task_images/land.jpg,65,,,,,,,75,,,7,,,,,,,,224730,1,1,FALSE,,,
dig,179,522471,0.0-56.0-0.0,"""event"",""trial"",""time""
""fullscreenenter"",""1"",""3153""
","
","
","""event"",""trial"",""time""
""fullscreenenter"",""1"",""3153""
","
",,,,,,,,,,,,"[{""stimulus"":""run_exp/static/images/task_images/dig.jpg"",""time"":0.19999992847442627},{""stimulus"":""run_exp/static/images/task_images/land.jpg"",""time"":870.3999999761581},{""stimulus"":""run_exp/static/images/task_images/dig.jpg"",""time"":1731.1999999284744}]",[],7,,,,,,,,,,,,,,
harvest,180,523485,0.0-56.0-1.0,"""event"",""trial"",""time""
""fullscreenenter"",""1"",""3153""
","
","
","""event"",""trial"",""time""
""fullscreenenter"",""1"",""3153""
","
",,null,run_exp/static/images/task_images/gems/75.jpg,null,,,,,,,61,,,7,,,,,75,0.813201797,0.813333333,,,,,,,
decision,181,523708,0.0-56.0-2.0,"""event"",""trial"",""time""
""fullscreenenter"",""1"",""3153""
","
","
","""event"",""trial"",""time""
""fullscreenenter"",""1"",""3153""
","
",,221.5999999,run_exp/static/images/task_images/land.jpg,65,,,,,,,61,,,7,,,,,,,,228570,1,2,FALSE,,,
dig,182,526501,0.0-57.0-0.0,"""event"",""trial"",""time""
""fullscreenenter"",""1"",""3153""
","
","
","""event"",""trial"",""time""
""fullscreenenter"",""1"",""3153""
","
",,,,,,,,,,,,"[{""stimulus"":""run_exp/static/images/task_images/dig.jpg"",""time"":0.20000004768371582},{""stimulus"":""run_exp/static/images/task_images/land.jpg"",""time"":940.3999999761581},{""stimulus"":""run_exp/static/images/task_images/dig.jpg"",""time"":1858.8999999761581}]",[],7,,,,,,,,,,,,,,
harvest,183,527512,0.0-57.0-1.0,"""event"",""trial"",""time""
""fullscreenenter"",""1"",""3153""
","
","
","""event"",""trial"",""time""
""fullscreenenter"",""1"",""3153""
","
",,null,run_exp/static/images/task_images/gems/61.jpg,null,,,,,,,50,,,7,,,,,61,0.814671244,0.819672131,,,,,,,
decision,184,527788,0.0-57.0-2.0,"""event"",""trial"",""time""
""fullscreenenter"",""1"",""3153""
","
","
","""event"",""trial"",""time""
""fullscreenenter"",""1"",""3153""
","
",,275.3,run_exp/static/images/task_images/land.jpg,65,,,,,,,50,,,7,,,,,,,,232650,1,3,FALSE,,,
dig,185,530527,0.0-58.0-0.0,"""event"",""trial"",""time""
""fullscreenenter"",""1"",""3153""
","
","
","""event"",""trial"",""time""
""fullscreenenter"",""1"",""3153""
","
",,,,,,,,,,,,"[{""stimulus"":""run_exp/static/images/task_images/dig.jpg"",""time"":0},{""stimulus"":""run_exp/static/images/task_images/land.jpg"",""time"":918.7999999523163},{""stimulus"":""run_exp/static/images/task_images/dig.jpg"",""time"":1819}]",[],7,,,,,,,,,,,,,,
harvest,186,531542,0.0-58.0-1.0,"""event"",""trial"",""time""
""fullscreenenter"",""1"",""3153""
","
","
","""event"",""trial"",""time""
""fullscreenenter"",""1"",""3153""
","
",,null,run_exp/static/images/task_images/gems/50.jpg,null,,,,,,,38,,,7,,,,,50,0.759234353,0.76,,,,,,,
decision,187,531804,0.0-58.0-2.0,"""event"",""trial"",""time""
""fullscreenenter"",""1"",""3153""
","
","
","""event"",""trial"",""time""
""fullscreenenter"",""1"",""3153""
","
",,261,run_exp/static/images/task_images/land.jpg,65,,,,,,,38,,,7,,,,,,,,236666,1,4,FALSE,,,
dig,188,534558,0.0-59.0-0.0,"""event"",""trial"",""time""
""fullscreenenter"",""1"",""3153""
","
","
","""event"",""trial"",""time""
""fullscreenenter"",""1"",""3153""
","
",,,,,,,,,,,,"[{""stimulus"":""run_exp/static/images/task_images/dig.jpg"",""time"":0.10000002384185791},{""stimulus"":""run_exp/static/images/task_images/land.jpg"",""time"":925.7999999523163},{""stimulus"":""run_exp/static/images/task_images/dig.jpg"",""time"":1829.6000000238419}]",[],7,,,,,,,,,,,,,,
harvest,189,535573,0.0-59.0-1.0,"""event"",""trial"",""time""
""fullscreenenter"",""1"",""3153""
","
","
","""event"",""trial"",""time""
""fullscreenenter"",""1"",""3153""
","
",,null,run_exp/static/images/task_images/gems/38.jpg,null,,,,,,,32,,,7,,,,,38,0.833664646,0.842105263,,,,,,,
decision,190,535908,0.0-59.0-2.0,"""event"",""trial"",""time""
""fullscreenenter"",""1"",""3153""
","
","
","""event"",""trial"",""time""
""fullscreenenter"",""1"",""3153""
","
",,333.9,run_exp/static/images/task_images/land.jpg,65,,,,,,,32,,,7,,,,,,,,240770,1,5,FALSE,,,
dig,191,538588,0.0-60.0-0.0,"""event"",""trial"",""time""
""fullscreenenter"",""1"",""3153""
","
","
","""event"",""trial"",""time""
""fullscreenenter"",""1"",""3153""
","
",,,,,,,,,,,,"[{""stimulus"":""run_exp/static/images/task_images/dig.jpg"",""time"":0.09999990463256836},{""stimulus"":""run_exp/static/images/task_images/land.jpg"",""time"":890.8999999761581},{""stimulus"":""run_exp/static/images/task_images/dig.jpg"",""time"":1791.1999999284744}]",[],7,,,,,,,,,,,,,,
harvest,192,539591,0.0-60.0-1.0,"""event"",""trial"",""time""
""fullscreenenter"",""1"",""3153""
","
","
","""event"",""trial"",""time""
""fullscreenenter"",""1"",""3153""
","
",,null,run_exp/static/images/task_images/gems/32.jpg,null,,,,,,,25,,,7,,,,,32,0.793574398,0.78125,,,,,,,
decision,193,539892,0.0-60.0-2.0,"""event"",""trial"",""time""
""fullscreenenter"",""1"",""3153""
","
","
","""event"",""trial"",""time""
""fullscreenenter"",""1"",""3153""
","
",,300.5,run_exp/static/images/task_images/land.jpg,65,,,,,,,25,,,7,,,,,,,,244755,1,6,FALSE,,,
dig,194,542595,0.0-61.0-0.0,"""event"",""trial"",""time""
""fullscreenenter"",""1"",""3153""
","
","
","""event"",""trial"",""time""
""fullscreenenter"",""1"",""3153""
","
",,,,,,,,,,,,"[{""stimulus"":""run_exp/static/images/task_images/dig.jpg"",""time"":0},{""stimulus"":""run_exp/static/images/task_images/land.jpg"",""time"":910.8000000715256},{""stimulus"":""run_exp/static/images/task_images/dig.jpg"",""time"":1800.8000000715256}]",[],7,,,,,,,,,,,,,,
harvest,195,543606,0.0-61.0-1.0,"""event"",""trial"",""time""
""fullscreenenter"",""1"",""3153""
","
","
","""event"",""trial"",""time""
""fullscreenenter"",""1"",""3153""
","
",,null,run_exp/static/images/task_images/gems/25.jpg,null,,,,,,,22,,,7,,,,,25,0.892665309,0.88,,,,,,,
decision,196,543885,0.0-61.0-2.0,"""event"",""trial"",""time""
""fullscreenenter"",""1"",""3153""
","
","
","""event"",""trial"",""time""
""fullscreenenter"",""1"",""3153""
","
",,277.4000001,run_exp/static/images/task_images/land.jpg,65,,,,,,,22,,,7,,,,,,,,248747,1,7,FALSE,,,
dig,197,546611,0.0-62.0-0.0,"""event"",""trial"",""time""
""fullscreenenter"",""1"",""3153""
","
","
","""event"",""trial"",""time""
""fullscreenenter"",""1"",""3153""
","
",,,,,,,,,,,,"[{""stimulus"":""run_exp/static/images/task_images/dig.jpg"",""time"":0.20000004768371582},{""stimulus"":""run_exp/static/images/task_images/land.jpg"",""time"":911.8000000715256},{""stimulus"":""run_exp/static/images/task_images/dig.jpg"",""time"":1818.4000000953674}]",[],7,,,,,,,,,,,,,,
harvest,198,547625,0.0-62.0-1.0,"""event"",""trial"",""time""
""fullscreenenter"",""1"",""3153""
","
","
","""event"",""trial"",""time""
""fullscreenenter"",""1"",""3153""
","
",,null,run_exp/static/images/task_images/gems/22.jpg,null,,,,,,,17,,,7,,,,,22,0.758335917,0.772727273,,,,,,,
decision,199,547812,0.0-62.0-2.0,"""event"",""trial"",""time""
""fullscreenenter"",""1"",""3153""
","
","
","""event"",""trial"",""time""
""fullscreenenter"",""1"",""3153""
","
",,186.1999999,run_exp/static/images/task_images/land.jpg,65,,,,,,,17,,,7,,,,,,,,252674,1,8,FALSE,,,
dig,200,550634,0.0-63.0-0.0,"""event"",""trial"",""time""
""fullscreenenter"",""1"",""3153""
","
","
","""event"",""trial"",""time""
""fullscreenenter"",""1"",""3153""
","
",,,,,,,,,,,,"[{""stimulus"":""run_exp/static/images/task_images/dig.jpg"",""time"":0.19999992847442627},{""stimulus"":""run_exp/static/images/task_images/land.jpg"",""time"":940.5999999046326},{""stimulus"":""run_exp/static/images/task_images/dig.jpg"",""time"":1876.0999999046326}]",[],7,,,,,,,,,,,,,,
harvest,201,551640,0.0-63.0-1.0,"""event"",""trial"",""time""
""fullscreenenter"",""1"",""3153""
","
","
","""event"",""trial"",""time""
""fullscreenenter"",""1"",""3153""
","
",,null,run_exp/static/images/task_images/gems/17.jpg,null,,,,,,,13,,,7,,,,,17,0.748470931,0.764705882,,,,,,,
decision,202,551908,0.0-63.0-2.0,"""event"",""trial"",""time""
""fullscreenenter"",""1"",""3153""
","
","
","""event"",""trial"",""time""
""fullscreenenter"",""1"",""3153""
","
",,268.2,run_exp/static/images/task_images/land.jpg,76,,,,,,,13,,,7,,,,,,,,256771,1,9,TRUE,,,
travel,203,561645,0.0-64.0-0.0,"""event"",""trial"",""time""
""fullscreenenter"",""1"",""3153""
","
","
","""event"",""trial"",""time""
""fullscreenenter"",""1"",""3153""
","
",,,,,,,,,,,,"[{""stimulus"":""run_exp/static/images/task_images/rocket-01.jpg"",""time"":0},{""stimulus"":""run_exp/static/images/task_images/rocket-02.jpg"",""time"":1086.3999999761581},{""stimulus"":""run_exp/static/images/task_images/rocket-03.jpg"",""time"":2172.2000000476837},{""stimulus"":""run_exp/static/images/task_images/rocket-04.jpg"",""time"":3248.2999999523163},{""stimulus"":""run_exp/static/images/task_images/rocket-05.jpg"",""time"":4328.200000047684},{""stimulus"":""run_exp/static/images/task_images/rocket-06.jpg"",""time"":5420.600000023842},{""stimulus"":""run_exp/static/images/task_images/rocket-07.jpg"",""time"":6489.200000047684},{""stimulus"":""run_exp/static/images/task_images/rocket-08.jpg"",""time"":7574.100000023842},{""stimulus"":""run_exp/static/images/task_images/rocket-09.jpg"",""time"":8662.299999952316}]",[],7,,,,,,,,,,,,,,
alien_welcome,204,566657,0.0-64.0-1.0,"""event"",""trial"",""time""
""fullscreenenter"",""1"",""3153""
","
","
","""event"",""trial"",""time""
""fullscreenenter"",""1"",""3153""
","
",,null,run_exp/static/images/task_images/aliens/old_aliens/planet/alien_planet-4.jpg,null,,,,,,,,,,,,,4,"26,52,3,20,46,80,27,4,29,51,32,22,58,47,72,45,28,75,53,64,19,68,71,66,14,30,42,8,31,60,62,11,9,24",,,,,,,,,,
land,205,567167,0.0-64.0-2.0,"""event"",""trial"",""time""
""fullscreenenter"",""1"",""3153""
","
","
","""event"",""trial"",""time""
""fullscreenenter"",""1"",""3153""
","
",,null,run_exp/static/images/task_images/land.jpg,null,,,,,,,97,,,8,,,,,,,,,,,,,,
dig,206,569183,0.0-64.0-3.0,"""event"",""trial"",""time""
""fullscreenenter"",""1"",""3153""
","
","
","""event"",""trial"",""time""
""fullscreenenter"",""1"",""3153""
","
",,,,,,,,,,,,"[{""stimulus"":""run_exp/static/images/task_images/dig.jpg"",""time"":0.19999992847442627},{""stimulus"":""run_exp/static/images/task_images/land.jpg"",""time"":681.3999999761581},{""stimulus"":""run_exp/static/images/task_images/dig.jpg"",""time"":1345.5}]",[],8,,,,,,,,,,,,,,
harvest,207,570188,0.0-64.0-4.0,"""event"",""trial"",""time""
""fullscreenenter"",""1"",""3153""
","
","
","""event"",""trial"",""time""
""fullscreenenter"",""1"",""3153""
","
",,null,run_exp/static/images/task_images/gems/97.jpg,null,,,,,,,81,,,8,,,,,97,0.832619191,0.835051546,,,,,,,
decision,208,570428,0.0-64.0-5.0,"""event"",""trial"",""time""
""fullscreenenter"",""1"",""3153""
","
","
","""event"",""trial"",""time""
""fullscreenenter"",""1"",""3153""
","
",,239.0999999,run_exp/static/images/task_images/land.jpg,65,,,,,,,81,,,8,,,,,,,,275290,1,0,FALSE,,,
dig,209,573198,0.0-65.0-0.0,"""event"",""trial"",""time""
""fullscreenenter"",""1"",""3153""
","
","
","""event"",""trial"",""time""
""fullscreenenter"",""1"",""3153""
","
",,,,,,,,,,,,"[{""stimulus"":""run_exp/static/images/task_images/dig.jpg"",""time"":0.10000002384185791},{""stimulus"":""run_exp/static/images/task_images/land.jpg"",""time"":923.4000000953674},{""stimulus"":""run_exp/static/images/task_images/dig.jpg"",""time"":1855}]",[],8,,,,,,,,,,,,,,
harvest,210,574207,0.0-65.0-1.0,"""event"",""trial"",""time""
""fullscreenenter"",""1"",""3153""
","
","
","""event"",""trial"",""time""
""fullscreenenter"",""1"",""3153""
","
",,null,run_exp/static/images/task_images/gems/81.jpg,null,,,,,,,72,,,8,,,,,81,0.889532765,0.888888889,,,,,,,
decision,211,574507,0.0-65.0-2.0,"""event"",""trial"",""time""
""fullscreenenter"",""1"",""3153""
","
","
","""event"",""trial"",""time""
""fullscreenenter"",""1"",""3153""
","
",,300.1,run_exp/static/images/task_images/land.jpg,65,,,,,,,72,,,8,,,,,,,,279370,1,1,FALSE,,,
dig,212,577217,0.0-66.0-0.0,"""event"",""trial"",""time""
""fullscreenenter"",""1"",""3153""
","
","
","""event"",""trial"",""time""
""fullscreenenter"",""1"",""3153""
","
",,,,,,,,,,,,"[{""stimulus"":""run_exp/static/images/task_images/dig.jpg"",""time"":0.20000004768371582},{""stimulus"":""run_exp/static/images/task_images/land.jpg"",""time"":915.6000000238419},{""stimulus"":""run_exp/static/images/task_images/dig.jpg"",""time"":1804.8000000715256}]",[],8,,,,,,,,,,,,,,
harvest,213,578228,0.0-66.0-1.0,"""event"",""trial"",""time""
""fullscreenenter"",""1"",""3153""
","
","
","""event"",""trial"",""time""
""fullscreenenter"",""1"",""3153""
","
",,null,run_exp/static/images/task_images/gems/72.jpg,null,,,,,,,51,,,8,,,,,72,0.702705417,0.708333333,,,,,,,
decision,214,578412,0.0-66.0-2.0,"""event"",""trial"",""time""
""fullscreenenter"",""1"",""3153""
","
","
","""event"",""trial"",""time""
""fullscreenenter"",""1"",""3153""
","
",,182.4,run_exp/static/images/task_images/land.jpg,65,,,,,,,51,,,8,,,,,,,,283274,1,2,FALSE,,,
dig,215,581233,0.0-67.0-0.0,"""event"",""trial"",""time""
""fullscreenenter"",""1"",""3153""
","
","
","""event"",""trial"",""time""
""fullscreenenter"",""1"",""3153""
","
",,,,,,,,,,,,"[{""stimulus"":""run_exp/static/images/task_images/dig.jpg"",""time"":0.10000002384185791},{""stimulus"":""run_exp/static/images/task_images/land.jpg"",""time"":949},{""stimulus"":""run_exp/static/images/task_images/dig.jpg"",""time"":1883.3999999761581}]",[],8,,,,,,,,,,,,,,
harvest,216,582241,0.0-67.0-1.0,"""event"",""trial"",""time""
""fullscreenenter"",""1"",""3153""
","
","
","""event"",""trial"",""time""
""fullscreenenter"",""1"",""3153""
","
",,null,run_exp/static/images/task_images/gems/51.jpg,null,,,,,,,42,,,8,,,,,51,0.829027195,0.823529412,,,,,,,
decision,217,582484,0.0-67.0-2.0,"""event"",""trial"",""time""
""fullscreenenter"",""1"",""3153""
","
","
","""event"",""trial"",""time""
""fullscreenenter"",""1"",""3153""
","
",,241.6,run_exp/static/images/task_images/land.jpg,65,,,,,,,42,,,8,,,,,,,,287346,1,3,FALSE,,,
dig,218,585249,0.0-68.0-0.0,"""event"",""trial"",""time""
""fullscreenenter"",""1"",""3153""
","
","
","""event"",""trial"",""time""
""fullscreenenter"",""1"",""3153""
","
",,,,,,,,,,,,"[{""stimulus"":""run_exp/static/images/task_images/dig.jpg"",""time"":0.20000004768371582},{""stimulus"":""run_exp/static/images/task_images/land.jpg"",""time"":925.8999999761581},{""stimulus"":""run_exp/static/images/task_images/dig.jpg"",""time"":1846.8000000715256}]",[],8,,,,,,,,,,,,,,
harvest,219,586251,0.0-68.0-1.0,"""event"",""trial"",""time""
""fullscreenenter"",""1"",""3153""
","
","
","""event"",""trial"",""time""
""fullscreenenter"",""1"",""3153""
","
",,null,run_exp/static/images/task_images/gems/42.jpg,null,,,,,,,34,,,8,,,,,42,0.820036304,0.80952381,,,,,,,
decision,220,586548,0.0-68.0-2.0,"""event"",""trial"",""time""
""fullscreenenter"",""1"",""3153""
","
","
","""event"",""trial"",""time""
""fullscreenenter"",""1"",""3153""
","
",,295.8000001,run_exp/static/images/task_images/land.jpg,65,,,,,,,34,,,8,,,,,,,,291410,1,4,FALSE,,,
dig,221,589263,0.0-69.0-0.0,"""event"",""trial"",""time""
""fullscreenenter"",""1"",""3153""
","
","
","""event"",""trial"",""time""
""fullscreenenter"",""1"",""3153""
","
",,,,,,,,,,,,"[{""stimulus"":""run_exp/static/images/task_images/dig.jpg"",""time"":0.10000002384185791},{""stimulus"":""run_exp/static/images/task_images/land.jpg"",""time"":916.3999999761581},{""stimulus"":""run_exp/static/images/task_images/dig.jpg"",""time"":1807.6000000238419}]",[],8,,,,,,,,,,,,,,
harvest,222,590274,0.0-69.0-1.0,"""event"",""trial"",""time""
""fullscreenenter"",""1"",""3153""
","
","
","""event"",""trial"",""time""
""fullscreenenter"",""1"",""3153""
","
",,null,run_exp/static/images/task_images/gems/34.jpg,null,,,,,,,27,,,8,,,,,34,0.788222158,0.794117647,,,,,,,
decision,223,591724,0.0-69.0-2.0,"""event"",""trial"",""time""
""fullscreenenter"",""1"",""3153""
","
","
","""event"",""trial"",""time""
""fullscreenenter"",""1"",""3153""
","
",,1448.5,run_exp/static/images/task_images/land.jpg,65,,,,,,,27,,,8,,,,,,,,296586,1,5,FALSE,,,
dig,224,593289,0.0-70.0-0.0,"""event"",""trial"",""time""
""fullscreenenter"",""1"",""3153""
","
","
","""event"",""trial"",""time""
""fullscreenenter"",""1"",""3153""
","
",,,,,,,,,,,,"[{""stimulus"":""run_exp/static/images/task_images/dig.jpg"",""time"":0},{""stimulus"":""run_exp/static/images/task_images/land.jpg"",""time"":523.7999999523163},{""stimulus"":""run_exp/static/images/task_images/dig.jpg"",""time"":1035.5999999046326}]",[],8,,,,,,,,,,,,,,
harvest,225,594290,0.0-70.0-1.0,"""event"",""trial"",""time""
""fullscreenenter"",""1"",""3153""
","
","
","""event"",""trial"",""time""
""fullscreenenter"",""1"",""3153""
","
",,null,run_exp/static/images/task_images/gems/27.jpg,null,,,,,,,23,,,8,,,,,27,0.849617725,0.851851852,,,,,,,
decision,226,594756,0.0-70.0-2.0,"""event"",""trial"",""time""
""fullscreenenter"",""1"",""3153""
","
","
","""event"",""trial"",""time""
""fullscreenenter"",""1"",""3153""
","
",,464.6,run_exp/static/images/task_images/land.jpg,65,,,,,,,23,,,8,,,,,,,,299618,1,6,FALSE,,,
dig,227,597309,0.0-71.0-0.0,"""event"",""trial"",""time""
""fullscreenenter"",""1"",""3153""
","
","
","""event"",""trial"",""time""
""fullscreenenter"",""1"",""3153""
","
",,,,,,,,,,,,"[{""stimulus"":""run_exp/static/images/task_images/dig.jpg"",""time"":0.10000002384185791},{""stimulus"":""run_exp/static/images/task_images/land.jpg"",""time"":851.3000000715256},{""stimulus"":""run_exp/static/images/task_images/dig.jpg"",""time"":1691.5}]",[],8,,,,,,,,,,,,,,
harvest,228,598323,0.0-71.0-1.0,"""event"",""trial"",""time""
""fullscreenenter"",""1"",""3153""
","
","
","""event"",""trial"",""time""
""fullscreenenter"",""1"",""3153""
","
",,null,run_exp/static/images/task_images/gems/23.jpg,null,,,,,,,19,,,8,,,,,23,0.832567196,0.826086957,,,,,,,
decision,229,598579,0.0-71.0-2.0,"""event"",""trial"",""time""
""fullscreenenter"",""1"",""3153""
","
","
","""event"",""trial"",""time""
""fullscreenenter"",""1"",""3153""
","
",,255.1999999,run_exp/static/images/task_images/land.jpg,65,,,,,,,19,,,8,,,,,,,,303441,1,7,TRUE,,,
end_of_block_continue,230,601948,0.0-72.0-0.0,"""event"",""trial"",""time""
""fullscreenenter"",""1"",""3153""
","
","
","""event"",""trial"",""time""
""fullscreenenter"",""1"",""3153""
","
",,3366.4,run_exp/static/audio/clip_32_block_end.m4a,,,,,,,0,,,,,,,,,,,,,,,,,,
alien_welcome,231,606957,0.0-73.0-0.0,"""event"",""trial"",""time""
""fullscreenenter"",""1"",""3153""
","
","
","""event"",""trial"",""time""
""fullscreenenter"",""1"",""3153""
","
",,null,run_exp/static/images/task_images/aliens/old_aliens/planet/alien_planet-29.jpg,null,,,,,,,,,,,,,29,"26,52,3,20,46,80,27,4,29,51,32,22,58,47,72,45,28,75,53,64,19,68,71,66,14,30,42,8,31,60,62,11,9,24",,,,,,,,,,
land,232,607473,0.0-73.0-1.0,"""event"",""trial"",""time""
""fullscreenenter"",""1"",""3153""
","
","
","""event"",""trial"",""time""
""fullscreenenter"",""1"",""3153""
","
",,null,run_exp/static/images/task_images/land.jpg,null,,,,,,,96,,,9,,,,,,,,,,,,,,
dig,233,609479,0.0-73.0-2.0,"""event"",""trial"",""time""
""fullscreenenter"",""1"",""3153""
","
","
","""event"",""trial"",""time""
""fullscreenenter"",""1"",""3153""
","
",,,,,,,,,,,,"[{""stimulus"":""run_exp/static/images/task_images/dig.jpg"",""time"":0.10000002384185791},{""stimulus"":""run_exp/static/images/task_images/land.jpg"",""time"":680.3000000715256},{""stimulus"":""run_exp/static/images/task_images/dig.jpg"",""time"":1336.6000000238419}]",[],9,,,,,,,,,,,,,,
harvest,234,610488,0.0-73.0-3.0,"""event"",""trial"",""time""
""fullscreenenter"",""1"",""3153""
","
","
","""event"",""trial"",""time""
""fullscreenenter"",""1"",""3153""
","
",,null,run_exp/static/images/task_images/gems/96.jpg,null,,,,,,,17,,,9,,,,,96,0.177721934,0.177083333,,,,,,,
decision,235,610899,0.0-73.0-4.0,"""event"",""trial"",""time""
""fullscreenenter"",""1"",""3153""
","
","
","""event"",""trial"",""time""
""fullscreenenter"",""1"",""3153""
","
",,410.6,run_exp/static/images/task_images/land.jpg,65,,,,,,,17,,,9,,,,,,,,8950,2,0,FALSE,,,
dig,236,613502,0.0-74.0-0.0,"""event"",""trial"",""time""
""fullscreenenter"",""1"",""3153""
","
","
","""event"",""trial"",""time""
""fullscreenenter"",""1"",""3153""
","
",,,,,,,,,,,,"[{""stimulus"":""run_exp/static/images/task_images/dig.jpg"",""time"":0.10000002384185791},{""stimulus"":""run_exp/static/images/task_images/land.jpg"",""time"":873.8000000715256},{""stimulus"":""run_exp/static/images/task_images/dig.jpg"",""time"":1729.7000000476837}]",[],9,,,,,,,,,,,,,,
harvest,237,614515,0.0-74.0-1.0,"""event"",""trial"",""time""
""fullscreenenter"",""1"",""3153""
","
","
","""event"",""trial"",""time""
""fullscreenenter"",""1"",""3153""
","
",,null,run_exp/static/images/task_images/gems/17.jpg,null,,,,,,,3,,,9,,,,,17,0.180598542,0.176470588,,,,,,,
decision,238,615019,0.0-74.0-2.0,"""event"",""trial"",""time""
""fullscreenenter"",""1"",""3153""
","
","
","""event"",""trial"",""time""
""fullscreenenter"",""1"",""3153""
","
",,503.3,run_exp/static/images/task_images/land.jpg,65,,,,,,,3,,,9,,,,,,,,13069,2,1,FALSE,,,
dig,239,617527,0.0-75.0-0.0,"""event"",""trial"",""time""
""fullscreenenter"",""1"",""3153""
","
","
","""event"",""trial"",""time""
""fullscreenenter"",""1"",""3153""
","
",,,,,,,,,,,,"[{""stimulus"":""run_exp/static/images/task_images/dig.jpg"",""time"":0},{""stimulus"":""run_exp/static/images/task_images/land.jpg"",""time"":837.8999999761581},{""stimulus"":""run_exp/static/images/task_images/dig.jpg"",""time"":1665.6999999284744}]",[],9,,,,,,,,,,,,,,
harvest,240,618539,0.0-75.0-1.0,"""event"",""trial"",""time""
""fullscreenenter"",""1"",""3153""
","
","
","""event"",""trial"",""time""
""fullscreenenter"",""1"",""3153""
","
",,null,run_exp/static/images/task_images/gems/3.jpg,null,,,,,,,1,,,9,,,,,3,0.180439981,0.333333333,,,,,,,
decision,241,620116,0.0-75.0-2.0,"""event"",""trial"",""time""
""fullscreenenter"",""1"",""3153""
","
","
","""event"",""trial"",""time""
""fullscreenenter"",""1"",""3153""
","
",,1576.3,run_exp/static/images/task_images/land.jpg,65,,,,,,,1,,,9,,,,,,,,18166,2,2,FALSE,,,
dig,242,621543,0.0-76.0-0.0,"""event"",""trial"",""time""
""fullscreenenter"",""1"",""3153""
","
","
","""event"",""trial"",""time""
""fullscreenenter"",""1"",""3153""
","
",,,,,,,,,,,,"[{""stimulus"":""run_exp/static/images/task_images/dig.jpg"",""time"":0},{""stimulus"":""run_exp/static/images/task_images/land.jpg"",""time"":477.8000000715256},{""stimulus"":""run_exp/static/images/task_images/dig.jpg"",""time"":959.7000000476837}]",[],9,,,,,,,,,,,,,,
harvest,243,622558,0.0-76.0-1.0,"""event"",""trial"",""time""
""fullscreenenter"",""1"",""3153""
","
","
","""event"",""trial"",""time""
""fullscreenenter"",""1"",""3153""
","
",,null,run_exp/static/images/task_images/gems/1.jpg,null,,,,,,,0,,,9,,,,,1,0.182510432,0,,,,,,,
decision,244,623332,0.0-76.0-2.0,"""event"",""trial"",""time""
""fullscreenenter"",""1"",""3153""
","
","
","""event"",""trial"",""time""
""fullscreenenter"",""1"",""3153""
","
",,772.2,run_exp/static/images/task_images/land.jpg,76,,,,,,,0,,,9,,,,,,,,21382,2,3,TRUE,,,
travel,245,632568,0.0-77.0-0.0,"""event"",""trial"",""time""
""fullscreenenter"",""1"",""3153""
","
","
","""event"",""trial"",""time""
""fullscreenenter"",""1"",""3153""
","
",,,,,,,,,,,,"[{""stimulus"":""run_exp/static/images/task_images/rocket-01.jpg"",""time"":0.09999990463256836},{""stimulus"":""run_exp/static/images/task_images/rocket-02.jpg"",""time"":1029.6999999284744},{""stimulus"":""run_exp/static/images/task_images/rocket-03.jpg"",""time"":2063.5999999046326},{""stimulus"":""run_exp/static/images/task_images/rocket-04.jpg"",""time"":3087.5},{""stimulus"":""run_exp/static/images/task_images/rocket-05.jpg"",""time"":4108.199999928474},{""stimulus"":""run_exp/static/images/task_images/rocket-06.jpg"",""time"":5130.699999928474},{""stimulus"":""run_exp/static/images/task_images/rocket-07.jpg"",""time"":6159},{""stimulus"":""run_exp/static/images/task_images/rocket-08.jpg"",""time"":7187.099999904633},{""stimulus"":""run_exp/static/images/task_images/rocket-09.jpg"",""time"":8210.599999904633}]",[],9,,,,,,,,,,,,,,
alien_welcome,246,637571,0.0-77.0-1.0,"""event"",""trial"",""time""
""fullscreenenter"",""1"",""3153""
","
","
","""event"",""trial"",""time""
""fullscreenenter"",""1"",""3153""
","
",,null,run_exp/static/images/task_images/aliens/old_aliens/planet/alien_planet-51.jpg,null,,,,,,,,,,,,,51,"26,52,3,20,46,80,27,4,29,51,32,22,58,47,72,45,28,75,53,64,19,68,71,66,14,30,42,8,31,60,62,11,9,24",,,,,,,,,,
land,247,638087,0.0-77.0-2.0,"""event"",""trial"",""time""
""fullscreenenter"",""1"",""3153""
","
","
","""event"",""trial"",""time""
""fullscreenenter"",""1"",""3153""
","
",,null,run_exp/static/images/task_images/land.jpg,null,,,,,,,103,,,10,,,,,,,,,,,,,,
dig,248,640093,0.0-77.0-3.0,"""event"",""trial"",""time""
""fullscreenenter"",""1"",""3153""
","
","
","""event"",""trial"",""time""
""fullscreenenter"",""1"",""3153""
","
",,,,,,,,,,,,"[{""stimulus"":""run_exp/static/images/task_images/dig.jpg"",""time"":0.09999990463256836},{""stimulus"":""run_exp/static/images/task_images/land.jpg"",""time"":669.0999999046326},{""stimulus"":""run_exp/static/images/task_images/dig.jpg"",""time"":1339.8999999761581}]",[],10,,,,,,,,,,,,,,
harvest,249,641107,0.0-77.0-4.0,"""event"",""trial"",""time""
""fullscreenenter"",""1"",""3153""
","
","
","""event"",""trial"",""time""
""fullscreenenter"",""1"",""3153""
","
",,null,run_exp/static/images/task_images/gems/103.jpg,null,,,,,,,21,,,10,,,,,103,0.208056097,0.203883495,,,,,,,
decision,250,641356,0.0-77.0-5.0,"""event"",""trial"",""time""
""fullscreenenter"",""1"",""3153""
","
","
","""event"",""trial"",""time""
""fullscreenenter"",""1"",""3153""
","
",,248.3000001,run_exp/static/images/task_images/land.jpg,65,,,,,,,21,,,10,,,,,,,,39406,2,0,FALSE,,,
dig,251,644119,0.0-78.0-0.0,"""event"",""trial"",""time""
""fullscreenenter"",""1"",""3153""
","
","
","""event"",""trial"",""time""
""fullscreenenter"",""1"",""3153""
","
