trial_type,trial_index,time_elapsed,internal_node_id,interactions,blur_events,focus_events,fullscreenenter_events,fullscreenexit_events,success,rt,stimulus,key_press,prompt,subject_id,participant_id,age,gender,button_pressed,next_reward,animation_sequence,responses,planet,curr_prac_trial,n_prac_rounds,alien,aliens,reward_received,decay_rate_actual,decay_rate_exp,time_in_block,block_num,prt,last_trial_on_planet,button_html,bonus,num_failures
pavlovia,0,53,0.0-0.0,"""event"",""trial"",""time""
""fullscreenenter"",""1"",""6021""
","
","
","""event"",""trial"",""time""
""fullscreenenter"",""1"",""6021""
","
",,,,,,,,,,,,,,,,,,,,,,,,,,,,
fullscreen,1,6999,0.0-1.0,"""event"",""trial"",""time""
""fullscreenenter"",""1"",""6021""
","
","
","""event"",""trial"",""time""
""fullscreenenter"",""1"",""6021""
","
",TRUE,,,,,,,,,,,,,,,,,,,,,,,,,,,
instruc_welcome,2,17095,0.0-2.0,"""event"",""trial"",""time""
""fullscreenenter"",""1"",""6021""
","
","
","""event"",""trial"",""time""
""fullscreenenter"",""1"",""6021""
","
",,null,run_exp/static/audio/clip_1_welcome.m4a,null,"<p>Howdy! In this experiment, you’ll be an explorer traveling through space to collect space treasure.</p><p>Your mission is to collect as much treasure as possible.</p><br><br><p><img src='run_exp/static/images/task_images/opening_img-01.jpg' height='300' width='auto'></p>",9696,3535,13,Female,,,,,,,,,,,,,,,,,,,
audio-keyboard-response,3,33713,0.0-3.0,"""event"",""trial"",""time""
""fullscreenenter"",""1"",""6021""
","
","
","""event"",""trial"",""time""
""fullscreenenter"",""1"",""6021""
","
",,null,run_exp/static/audio/clip_2_move.m4a,null,,,,,,,,,,,,,,,,,,,,,,,,
welcome_dec,4,35148,0.0-4.0,"""event"",""trial"",""time""
""fullscreenenter"",""1"",""6021""
","
","
","""event"",""trial"",""time""
""fullscreenenter"",""1"",""6021""
","
",,1429.2,"<p>Howdy! In this experiment, you’ll be an explorer traveling through space to collect space treasure.</p><p>Your mission is to collect as much treasure as possible.</p><br><br><p><img src='run_exp/static/images/task_images/opening_img-01.jpg' height='300' width='auto'></p>",,,,,,,1,,,,,,,,,,,,,,,,,,
html-keyboard-response,5,39857,0.0-5.0,"""event"",""trial"",""time""
""fullscreenenter"",""1"",""6021""
","
","
","""event"",""trial"",""time""
""fullscreenenter"",""1"",""6021""
","
",,4705,"<p>Howdy! In this experiment, you’ll be an explorer traveling through space to collect space treasure.</p><p>Your mission is to collect as much treasure as possible.</p><br><br><p><img src='run_exp/static/images/task_images/opening_img-01.jpg' height='300' width='auto'></p><button class=""jspsych-html-btn-unchosen""><img src=""run_exp/static/images/task_images/planet-01.jpg"" height=""50""></button><button class=""jspsych-html-btn-chosen""><img src=""run_exp/static/images/task_images/planet-02.jpg"" height=""50""></button><p><b>[press the space bar to lock in your answer]<b><br></p>",32,,,,,,,,,,,,,,,,,,,,,,,,
instruc_goal,6,49934,0.0-6.0-0.0,"""event"",""trial"",""time""
""fullscreenenter"",""1"",""6021""
","
","
","""event"",""trial"",""time""
""fullscreenenter"",""1"",""6021""
","
",,null,run_exp/static/audio/clip_3_goal.m4a,null,"<p> As a space explorer, you’ll visit different planets to dig for space treasure, these pink gems.</p> <p> The more treasure you dig up, the more bonus money you’ll win! </p><br><br><p><img src='run_exp/static/images/task_images/pink_gem.jpg' height='300' width='auto'></p>",,,,,,,,,,,,,,,,,,,,,,,
instruc_goal,7,51729,0.0-6.0-1.0,"""event"",""trial"",""time""
""fullscreenenter"",""1"",""6021""
","
","
","""event"",""trial"",""time""
""fullscreenenter"",""1"",""6021""
","
",,1790.5,"<p> As a space explorer, you’ll visit different planets to dig for space treasure, these pink gems.</p> <p> The more treasure you dig up, the more bonus money you’ll win! </p><br><br><p><img src='run_exp/static/images/task_images/pink_gem.jpg' height='300' width='auto'></p>",,,,,,,1,,,,,,,,,,,,,,,,,,
html-keyboard-response,8,53160,0.0-6.0-2.0,"""event"",""trial"",""time""
""fullscreenenter"",""1"",""6021""
","
","
","""event"",""trial"",""time""
""fullscreenenter"",""1"",""6021""
","
",,1428.6,"<p> As a space explorer, you’ll visit different planets to dig for space treasure, these pink gems.</p> <p> The more treasure you dig up, the more bonus money you’ll win! </p><br><br><p><img src='run_exp/static/images/task_images/pink_gem.jpg' height='300' width='auto'></p><button class=""jspsych-html-btn-unchosen""><img src=""run_exp/static/images/task_images/planet-01.jpg"" height=""50""></button><button class=""jspsych-html-btn-chosen""><img src=""run_exp/static/images/task_images/planet-02.jpg"" height=""50""></button><p><b>[press the space bar to lock in your answer]<b><br></p>",32,,,,,,,,,,,,,,,,,,,,,,,,
instruc_dig,9,69173,0.0-7.0-0.0,"""event"",""trial"",""time""
""fullscreenenter"",""1"",""6021""
","
","
","""event"",""trial"",""time""
""fullscreenenter"",""1"",""6021""
","
",,null,run_exp/static/audio/clip_4_dig.m4a,null,,,,,,,100,,,,,,,,,,,,,,,,,
instruc_dig_try,10,72206,0.0-7.0-1.0,"""event"",""trial"",""time""
""fullscreenenter"",""1"",""6021""
","
","
","""event"",""trial"",""time""
""fullscreenenter"",""1"",""6021""
","
",,3029.1,"<p> When you’ve arrived at a new planet, you will dig once. </p> <p>Then, you get to decide if you want to stay on the planet and dig again or travel to a new planet and dig there.</p> <p> To stay and dig, press the letter <strong>‘A’</strong> on your keyboard. Try pressing it now! </p><p><img src='run_exp/static/images/task_images/land.jpg'  height='700' width='auto'></p>",65,"<p> When you’ve arrived at a new planet, you will dig once. </p> <p>Then, you get to decide if you want to stay on the planet and dig again or travel to a new planet and dig there.</p> <p> To stay and dig, press the letter <strong>‘A’</strong> on your keyboard. Try pressing it now! </p><p><img src='run_exp/static/images/task_images/land.jpg'  height='700' width='auto'></p>",,,,,,100,,,,,,,,,,,,,,,,,
dig_prac,11,74220,0.0-7.0-2.0,"""event"",""trial"",""time""
""fullscreenenter"",""1"",""6021""
","
","
","""event"",""trial"",""time""
""fullscreenenter"",""1"",""6021""
","
",,,,,,,,,,,,"[{""stimulus"":""run_exp/static/images/task_images/dig.jpg"",""time"":0.4000000059604645},{""stimulus"":""run_exp/static/images/task_images/land.jpg"",""time"":668.4000000059605},{""stimulus"":""run_exp/static/images/task_images/dig.jpg"",""time"":1335.2000000178814}]",[],,,,,,,,,,,,,,,
instruc_travel,12,110473,0.0-7.0-3.0,"""event"",""trial"",""time""
""fullscreenenter"",""1"",""6021""
","
","
","""event"",""trial"",""time""
""fullscreenenter"",""1"",""6021""
","
",,null,run_exp/static/audio/clip_5_travel.m4a,null,"<p>Every time you dig up gems, there are less gems on the planet, so the more you dig on a planet the fewer gems you’ll get with each dig.</p><p>When gems are running low, you may want to travel to a new planet. </p> <p>  Planets are very far apart in this galaxy, so it will take some time to travel between them. </p> <br><p>There are lots and lots of planets for you to visit, so you won’t be able to return to any planets you’ve seen before. </p><br><p>To leave this planet and travel to a new one, press the letter <strong>‘L’</strong> on your keyboard. Try pressing it now! </p><p><img src='run_exp/static/images/task_images/rocket-01.jpg'  height='600' width='auto'></p>",,,,,,,,,,,,,,,,,,,,,,,
instruc_travel_try,13,111330,0.0-7.0-4.0,"""event"",""trial"",""time""
""fullscreenenter"",""1"",""6021""
","
","
","""event"",""trial"",""time""
""fullscreenenter"",""1"",""6021""
","
",,852.1,"<p>Every time you dig up gems, there are less gems on the planet, so the more you dig on a planet the fewer gems you’ll get with each dig.</p><p>When gems are running low, you may want to travel to a new planet. </p> <p>  Planets are very far apart in this galaxy, so it will take some time to travel between them. </p> <br><p>There are lots and lots of planets for you to visit, so you won’t be able to return to any planets you’ve seen before. </p><br><p>To leave this planet and travel to a new one, press the letter <strong>‘L’</strong> on your keyboard. Try pressing it now! </p><p><img src='run_exp/static/images/task_images/rocket-01.jpg'  height='600' width='auto'></p>",76,"<p>Every time you dig up gems, there are less gems on the planet, so the more you dig on a planet the fewer gems you’ll get with each dig.</p><p>When gems are running low, you may want to travel to a new planet. </p> <p>  Planets are very far apart in this galaxy, so it will take some time to travel between them. </p> <br><p>There are lots and lots of planets for you to visit, so you won’t be able to return to any planets you’ve seen before. </p><br><p>To leave this planet and travel to a new one, press the letter <strong>‘L’</strong> on your keyboard. Try pressing it now! </p><p><img src='run_exp/static/images/task_images/rocket-01.jpg'  height='600' width='auto'></p>",,,,,,,,,,,,,,,,,,,,,,,
travel_prac,14,121332,0.0-7.0-5.0,"""event"",""trial"",""time""
""fullscreenenter"",""1"",""6021""
","
","
","""event"",""trial"",""time""
""fullscreenenter"",""1"",""6021""
","
",,,,,,,,,,,,"[{""stimulus"":""run_exp/static/images/task_images/rocket-01.jpg"",""time"":0.30000001192092896},{""stimulus"":""run_exp/static/images/task_images/rocket-02.jpg"",""time"":1113.4000000059605},{""stimulus"":""run_exp/static/images/task_images/rocket-03.jpg"",""time"":2223.699999988079},{""stimulus"":""run_exp/static/images/task_images/rocket-04.jpg"",""time"":3335.4000000059605},{""stimulus"":""run_exp/static/images/task_images/rocket-05.jpg"",""time"":4445.199999988079},{""stimulus"":""run_exp/static/images/task_images/rocket-06.jpg"",""time"":5556.699999988079},{""stimulus"":""run_exp/static/images/task_images/rocket-07.jpg"",""time"":6667.5999999940395},{""stimulus"":""run_exp/static/images/task_images/rocket-08.jpg"",""time"":7778.9000000059605},{""stimulus"":""run_exp/static/images/task_images/rocket-09.jpg"",""time"":8890.800000011921}]",[],0,,,,,,,,,,,,,,
instruc_alien_greet,15,148522,0.0-7.0-6.0,"""event"",""trial"",""time""
""fullscreenenter"",""1"",""6021""
","
","
","""event"",""trial"",""time""
""fullscreenenter"",""1"",""6021""
","
",,null,run_exp/static/audio/clip_6_alien.m4a,null,"<p>When you arrive at a new planet, the alien who owns the treasure mine on that planet will greet you!</p><p>The better an alien takes care of their mine the easier it is to dig for gems. Some aliens take better care of their mine than others. So, you won’t get exactly the same amount of gems on each planet.</p><p>What the alien looks like does not tell you anything about how many gems there are on the planet.</p><br><p><img src=""run_exp/static/images/task_images/aliens/instructions_aliens/planet/alien_planet-1.jpg""  height=""600"" width=""auto""></p>",,,,,,,,,,,,,,,,,,,,,,,
instruc_alien_greet,16,154637,0.0-7.0-7.0,"""event"",""trial"",""time""
""fullscreenenter"",""1"",""6021""
","
","
","""event"",""trial"",""time""
""fullscreenenter"",""1"",""6021""
","
",,6110.5,"<p>When you arrive at a new planet, the alien who owns the treasure mine on that planet will greet you!</p><p>The better an alien takes care of their mine the easier it is to dig for gems. Some aliens take better care of their mine than others. So, you won’t get exactly the same amount of gems on each planet.</p><p>What the alien looks like does not tell you anything about how many gems there are on the planet.</p><br><p><img src=""run_exp/static/images/task_images/aliens/instructions_aliens/planet/alien_planet-1.jpg""  height=""600"" width=""auto""></p>",,,,,,,1,,,,,,,,,,,,,,,,,,
html-keyboard-response,17,154973,0.0-7.0-8.0,"""event"",""trial"",""time""
""fullscreenenter"",""1"",""6021""
","
","
","""event"",""trial"",""time""
""fullscreenenter"",""1"",""6021""
","
",,333.7,"<p>When you arrive at a new planet, the alien who owns the treasure mine on that planet will greet you!</p><p>The better an alien takes care of their mine the easier it is to dig for gems. Some aliens take better care of their mine than others. So, you won’t get exactly the same amount of gems on each planet.</p><p>What the alien looks like does not tell you anything about how many gems there are on the planet.</p><br><p><img src=""run_exp/static/images/task_images/aliens/instructions_aliens/planet/alien_planet-1.jpg""  height=""600"" width=""auto""></p><button class=""jspsych-html-btn-unchosen""><img src=""run_exp/static/images/task_images/planet-01.jpg"" height=""50""></button><button class=""jspsych-html-btn-chosen""><img src=""run_exp/static/images/task_images/planet-02.jpg"" height=""50""></button><p><b>[press the space bar to lock in your answer]<b><br></p>",32,,,,,,,,,,,,,,,,,,,,,,,,
time_out,18,166062,0.0-8.0-0.0,"""event"",""trial"",""time""
""fullscreenenter"",""1"",""6021""
","
","
","""event"",""trial"",""time""
""fullscreenenter"",""1"",""6021""
","
",,null,run_exp/static/audio/clip_7_timeout.m4a,null,"<p>If you don't make your choice fast enough, you’ll have to wait a few seconds before you can make another one.</p><p>You can’t dig for more gems or travel to new planets. You just have to sit and wait.</p><br><p><img src='run_exp/static/images/task_images/time_out.jpg'  height='600' width='auto'></p>",,,,,,,,,,,,,,,,,,,,,,,
time_out,19,171276,0.0-8.0-1.0,"""event"",""trial"",""time""
""fullscreenenter"",""1"",""6021""
","
","
","""event"",""trial"",""time""
""fullscreenenter"",""1"",""6021""
","
",,5209.6,"<p>If you don't make your choice fast enough, you’ll have to wait a few seconds before you can make another one.</p><p>You can’t dig for more gems or travel to new planets. You just have to sit and wait.</p><br><p><img src='run_exp/static/images/task_images/time_out.jpg'  height='600' width='auto'></p>",,,,,,,1,,,,,,,,,,,,,,,,,,
html-keyboard-response,20,171943,0.0-8.0-2.0,"""event"",""trial"",""time""
""fullscreenenter"",""1"",""6021""
","
","
","""event"",""trial"",""time""
""fullscreenenter"",""1"",""6021""
","
",,664.7,"<p>If you don't make your choice fast enough, you’ll have to wait a few seconds before you can make another one.</p><p>You can’t dig for more gems or travel to new planets. You just have to sit and wait.</p><br><p><img src='run_exp/static/images/task_images/time_out.jpg'  height='600' width='auto'></p><button class=""jspsych-html-btn-unchosen""><img src=""run_exp/static/images/task_images/planet-01.jpg"" height=""50""></button><button class=""jspsych-html-btn-chosen""><img src=""run_exp/static/images/task_images/planet-02.jpg"" height=""50""></button><p><b>[press the space bar to lock in your answer]<b><br></p>",32,,,,,,,,,,,,,,,,,,,,,,,,
instruc_break,21,187623,0.0-9.0-0.0,"""event"",""trial"",""time""
""fullscreenenter"",""1"",""6021""
","
","
","""event"",""trial"",""time""
""fullscreenenter"",""1"",""6021""
","
",,null,run_exp/static/audio/clip_8_break.m4a,null,"<p> After digging and traveling for a while, you’ll be able to take a break at home base. </p><p>The game will last 20 minutes no matter what.</p><p>You will visit home base every 5 minutes, so, you will visit home base three times during the game.</p><br><p><img src='run_exp/static/images/task_images/home_base.jpg' height='600' width='auto'></p>",,,,,,,,,,,,,,,,,,,,,,,
instruc_break,22,189187,0.0-9.0-1.0,"""event"",""trial"",""time""
""fullscreenenter"",""1"",""6021""
","
","
","""event"",""trial"",""time""
""fullscreenenter"",""1"",""6021""
","
",,1560.5,"<p> After digging and traveling for a while, you’ll be able to take a break at home base. </p><p>The game will last 20 minutes no matter what.</p><p>You will visit home base every 5 minutes, so, you will visit home base three times during the game.</p><br><p><img src='run_exp/static/images/task_images/home_base.jpg' height='600' width='auto'></p>",,,,,,,1,,,,,,,,,,,,,,,,,,
html-keyboard-response,23,189554,0.0-9.0-2.0,"""event"",""trial"",""time""
""fullscreenenter"",""1"",""6021""
","
","
","""event"",""trial"",""time""
""fullscreenenter"",""1"",""6021""
","
",,365.4,"<p> After digging and traveling for a while, you’ll be able to take a break at home base. </p><p>The game will last 20 minutes no matter what.</p><p>You will visit home base every 5 minutes, so, you will visit home base three times during the game.</p><br><p><img src='run_exp/static/images/task_images/home_base.jpg' height='600' width='auto'></p><button class=""jspsych-html-btn-unchosen""><img src=""run_exp/static/images/task_images/planet-01.jpg"" height=""50""></button><button class=""jspsych-html-btn-chosen""><img src=""run_exp/static/images/task_images/planet-02.jpg"" height=""50""></button><p><b>[press the space bar to lock in your answer]<b><br></p>",32,,,,,,,,,,,,,,,,,,,,,,,,
instruc_prac_game,24,199683,0.0-10.0-0.0,"""event"",""trial"",""time""
""fullscreenenter"",""1"",""6021""
","
","
","""event"",""trial"",""time""
""fullscreenenter"",""1"",""6021""
","
",,null,run_exp/static/audio/clip_9_practice.m4a,null,"<p> Are you ready to play a practice game? </p> <p>In this practice game, you'll be digging up barrels of gems. But, in the real game, you'll be digging up the gems themselves. </p>",,,,,,,,,,,,,,,,,,,,,,,
html-button-response,25,203728,0.0-10.0-1.0,"""event"",""trial"",""time""
""fullscreenenter"",""1"",""6021""
","
","
","""event"",""trial"",""time""
""fullscreenenter"",""1"",""6021""
","
",,4041.7,"<p> Are you ready to play a practice game? </p> <p>In this practice game, you'll be digging up barrels of gems. But, in the real game, you'll be digging up the gems themselves. </p>",,,,,,,0,,,,,,,,,,,,,,,,,,
alien_welcome_prac,26,208732,0.0-11.0-0.0,"""event"",""trial"",""time""
""fullscreenenter"",""1"",""6021""
","
","
","""event"",""trial"",""time""
""fullscreenenter"",""1"",""6021""
","
",,null,run_exp/static/images/task_images/aliens/practice_aliens/planet/alien_planet-5.jpg,null,,,,,,,,,,,,,,,,,,,,,,,,
land_prac,27,209235,0.0-11.0-1.0,"""event"",""trial"",""time""
""fullscreenenter"",""1"",""6021""
","
","
","""event"",""trial"",""time""
""fullscreenenter"",""1"",""6021""
","
",,null,run_exp/static/images/task_images/land.jpg,null,,,,,,,105,,,0,,,,,,,,,,,,,,
dig_prac,28,211239,0.0-11.0-2.0,"""event"",""trial"",""time""
""fullscreenenter"",""1"",""6021""
","
","
","""event"",""trial"",""time""
""fullscreenenter"",""1"",""6021""
","
",,,,,,,,,,,,"[{""stimulus"":""run_exp/static/images/task_images/dig.jpg"",""time"":0.30000001192092896},{""stimulus"":""run_exp/static/images/task_images/land.jpg"",""time"":669},{""stimulus"":""run_exp/static/images/task_images/dig.jpg"",""time"":1336}]",[],,,,,,,,,,,,,,,
harvest_prac,29,212242,0.0-11.0-3.0,"""event"",""trial"",""time""
""fullscreenenter"",""1"",""6021""
","
","
","""event"",""trial"",""time""
""fullscreenenter"",""1"",""6021""
","
",,null,run_exp/static/images/task_images/barrel_text.jpg,null,,,,,,,,,,,,,,,,,,,,,,,,
decision_prac,30,213399,0.0-11.0-4.0,"""event"",""trial"",""time""
""fullscreenenter"",""1"",""6021""
","
","
","""event"",""trial"",""time""
""fullscreenenter"",""1"",""6021""
","
",,1155.6,run_exp/static/images/task_images/land.jpg,65,,,,,,,,,,,1,,,,,,,,,,,,,
dig_prac,31,215404,0.0-12.0-0.0,"""event"",""trial"",""time""
""fullscreenenter"",""1"",""6021""
","
","
","""event"",""trial"",""time""
""fullscreenenter"",""1"",""6021""
","
",,,,,,,,,,,,"[{""stimulus"":""run_exp/static/images/task_images/dig.jpg"",""time"":0.20000001788139343},{""stimulus"":""run_exp/static/images/task_images/land.jpg"",""time"":668.4000000059605},{""stimulus"":""run_exp/static/images/task_images/dig.jpg"",""time"":1335.6000000238419}]",[],,,,,,,,,,,,,,,
harvest_prac,32,216406,0.0-12.0-1.0,"""event"",""trial"",""time""
""fullscreenenter"",""1"",""6021""
","
","
","""event"",""trial"",""time""
""fullscreenenter"",""1"",""6021""
","
",,null,run_exp/static/images/task_images/barrel_text.jpg,null,,,,,,,,,,,,,,,,,,,,,,,,
decision_prac,33,216946,0.0-12.0-2.0,"""event"",""trial"",""time""
""fullscreenenter"",""1"",""6021""
","
","
","""event"",""trial"",""time""
""fullscreenenter"",""1"",""6021""
","
",,539.2,run_exp/static/images/task_images/land.jpg,65,,,,,,,,,,,2,,,,,,,,,,,,,
dig_prac,34,218952,0.0-13.0-0.0,"""event"",""trial"",""time""
""fullscreenenter"",""1"",""6021""
","
","
","""event"",""trial"",""time""
""fullscreenenter"",""1"",""6021""
","
",,,,,,,,,,,,"[{""stimulus"":""run_exp/static/images/task_images/dig.jpg"",""time"":0.19999998807907104},{""stimulus"":""run_exp/static/images/task_images/land.jpg"",""time"":668.5999999940395},{""stimulus"":""run_exp/static/images/task_images/dig.jpg"",""time"":1335.199999988079}]",[],,,,,,,,,,,,,,,
harvest_prac,35,219954,0.0-13.0-1.0,"""event"",""trial"",""time""
""fullscreenenter"",""1"",""6021""
","
","
","""event"",""trial"",""time""
""fullscreenenter"",""1"",""6021""
","
",,null,run_exp/static/images/task_images/barrel_text.jpg,null,,,,,,,,,,,,,,,,,,,,,,,,
decision_prac,36,220048,0.0-13.0-2.0,"""event"",""trial"",""time""
""fullscreenenter"",""1"",""6021""
","
","
","""event"",""trial"",""time""
""fullscreenenter"",""1"",""6021""
","
",,92.69999999,run_exp/static/images/task_images/land.jpg,65,,,,,,,,,,,3,,,,,,,,,,,,,
dig_prac,37,222052,0.0-14.0-0.0,"""event"",""trial"",""time""
""fullscreenenter"",""1"",""6021""
","
","
","""event"",""trial"",""time""
""fullscreenenter"",""1"",""6021""
","
",,,,,,,,,,,,"[{""stimulus"":""run_exp/static/images/task_images/dig.jpg"",""time"":0.10000002384185791},{""stimulus"":""run_exp/static/images/task_images/land.jpg"",""time"":668},{""stimulus"":""run_exp/static/images/task_images/dig.jpg"",""time"":1335.5}]",[],,,,,,,,,,,,,,,
harvest_prac,38,223054,0.0-14.0-1.0,"""event"",""trial"",""time""
""fullscreenenter"",""1"",""6021""
","
","
","""event"",""trial"",""time""
""fullscreenenter"",""1"",""6021""
","
",,null,run_exp/static/images/task_images/barrel_text.jpg,null,,,,,,,,,,,,,,,,,,,,,,,,
decision_prac,39,224066,0.0-14.0-2.0,"""event"",""trial"",""time""
""fullscreenenter"",""1"",""6021""
","
","
","""event"",""trial"",""time""
""fullscreenenter"",""1"",""6021""
","
",,1010.8,run_exp/static/images/task_images/land.jpg,65,,,,,,,,,,,4,,,,,,,,,,,,,
dig_prac,40,226072,0.0-15.0-0.0,"""event"",""trial"",""time""
""fullscreenenter"",""1"",""6021""
","
","
","""event"",""trial"",""time""
""fullscreenenter"",""1"",""6021""
","
",,,,,,,,,,,,"[{""stimulus"":""run_exp/static/images/task_images/dig.jpg"",""time"":0.30000001192092896},{""stimulus"":""run_exp/static/images/task_images/land.jpg"",""time"":669.1000000238419},{""stimulus"":""run_exp/static/images/task_images/dig.jpg"",""time"":1336}]",[],,,,,,,,,,,,,,,
harvest_prac,41,227073,0.0-15.0-1.0,"""event"",""trial"",""time""
""fullscreenenter"",""1"",""6021""
","
","
","""event"",""trial"",""time""
""fullscreenenter"",""1"",""6021""
","
",,null,run_exp/static/images/task_images/barrel_text.jpg,null,,,,,,,,,,,,,,,,,,,,,,,,
decision_prac,42,228310,0.0-15.0-2.0,"""event"",""trial"",""time""
""fullscreenenter"",""1"",""6021""
","
","
","""event"",""trial"",""time""
""fullscreenenter"",""1"",""6021""
","
",,1235.5,run_exp/static/images/task_images/land.jpg,76,,,,,,,,,,,,1,,,,,,,,,,,,
quiz_instruc,43,231017,0.0-16.0-0.0,"""event"",""trial"",""time""
""fullscreenenter"",""1"",""6021""
","
","
","""event"",""trial"",""time""
""fullscreenenter"",""1"",""6021""
","
",,2702.8,run_exp/static/audio/clip_10_quiz.m4a,,,,,,,0,,,,,,,,,,,,,,,,,,
instruc_repeat,44,273792,0.0-16.0-1.0,"""event"",""trial"",""time""
""fullscreenenter"",""1"",""6021""
","
","
","""event"",""trial"",""time""
""fullscreenenter"",""1"",""6021""
","
",,null,"<p> Are you ready to play a practice game? </p> <p>In this practice game, you'll be digging up barrels of gems. But, in the real game, you'll be digging up the gems themselves. </p>",null,"<p>In this game, your goal is to collect as many gems as you can. That’s how you will win bonus money. </p> <p>The entire game will last 20 minutes no matter how many gems you collect or how many planets you visit. </p><p>To stay on a planet and dig again, press the letter A on your keyboard. To leave for a new planet, press the letter L.</p><p>The more you dig on a planet, the fewer gems you’ll get with each dig which is why you might consider leaving for a new planet. </p><p>When you arrive at a new planet, you’ll be greeted by an alien. What the alien looks like does not tell you anything about how much treasure is on the planet. </p>",,,,,,,,,,,,,,,,,,,,,,,
instruc_repeat_continue,45,277245,0.0-16.0-2.0,"""event"",""trial"",""time""
""fullscreenenter"",""1"",""6021""
","
","
","""event"",""trial"",""time""
""fullscreenenter"",""1"",""6021""
","
",,3450.2,"<p> Are you ready to play a practice game? </p> <p>In this practice game, you'll be digging up barrels of gems. But, in the real game, you'll be digging up the gems themselves. </p>",,,,,,,0,,,,,,,,,,,,,,,,,,
quiz_q_1_ask,46,281439,0.0-16.0-3.0,"""event"",""trial"",""time""
""fullscreenenter"",""1"",""6021""
","
","
","""event"",""trial"",""time""
""fullscreenenter"",""1"",""6021""
","
",,4192.2,run_exp/static/audio/clip_11_q1_ask.m4a,,,,,,,2,,,,,,,,,,,,,,,,,,
quiz_q_1_fb_correct,47,285292,0.0-17.0-0.0,"""event"",""trial"",""time""
""fullscreenenter"",""1"",""6021""
","
","
","""event"",""trial"",""time""
""fullscreenenter"",""1"",""6021""
","
",,null,run_exp/static/audio/clip_12_q1_correct.m4a,null,<p>That’s correct. You win extra money by collecting more gems.</p>,,,,,,,,,,,,,,,,,,,,,,,
quiz_q_2_ask,48,289108,0.0-17.0-1.0,"""event"",""trial"",""time""
""fullscreenenter"",""1"",""6021""
","
","
","""event"",""trial"",""time""
""fullscreenenter"",""1"",""6021""
","
",,3811.8,run_exp/static/audio/clip_14_q2_ask.m4a,,,,,,,1,,,,,,,,,,,,,,,,,,
quiz_q_2_fb_correct,49,293113,0.0-18.0-0.0,"""event"",""trial"",""time""
""fullscreenenter"",""1"",""6021""
","
","
","""event"",""trial"",""time""
""fullscreenenter"",""1"",""6021""
","
",,null,run_exp/static/audio/clip_15_q2_correct.m4a,null,<p>That’s correct. The experiment is 20 minutes no matter what.</p>,,,,,,,,,,,,,,,,,,,,,,,
quiz_q_3_ask,50,297108,0.0-18.0-1.0,"""event"",""trial"",""time""
""fullscreenenter"",""1"",""6021""
","
","
","""event"",""trial"",""time""
""fullscreenenter"",""1"",""6021""
","
",,3992.3,run_exp/static/audio/clip_17_q3_ask.m4a,,,,,,,1,,,,,,,,,,,,,,,,,,
quiz_q_3_fb_correct,51,301093,0.0-19.0-0.0,"""event"",""trial"",""time""
""fullscreenenter"",""1"",""6021""
","
","
","""event"",""trial"",""time""
""fullscreenenter"",""1"",""6021""
","
",,null,run_exp/static/audio/clip_18_q3_correct.m4a,null,<p> That’s correct. You press the letter L to travel to a new planet.</p>,,,,,,,,,,,,,,,,,,,,,,,
quiz_q_4_ask,52,307113,0.0-19.0-1.0,"""event"",""trial"",""time""
""fullscreenenter"",""1"",""6021""
","
","
","""event"",""trial"",""time""
""fullscreenenter"",""1"",""6021""
","
",,6018.3,run_exp/static/audio/clip_20_q4_ask.m4a,,,,,,,0,,,,,,,,,,,,,,,,,,
quiz_q_4_fb_correct,53,312452,0.0-20.0-0.0,"""event"",""trial"",""time""
""fullscreenenter"",""1"",""6021""
","
","
","""event"",""trial"",""time""
""fullscreenenter"",""1"",""6021""
","
",,null,run_exp/static/audio/clip_21_q4_correct.m4a,null,<p> That’s correct. The more you dig on a planet the fewer gems you’ll get with each dig. </p>,,,,,,,,,,,,,,,,,,,,,,,
quiz_q_5_ask,54,320720,0.0-20.0-1.0,"""event"",""trial"",""time""
""fullscreenenter"",""1"",""6021""
","
","
","""event"",""trial"",""time""
""fullscreenenter"",""1"",""6021""
","
",,8261.1,run_exp/static/audio/clip_23_q5_ask.m4a,,,,,,,1,,,,,,,,,,,,,,,,,,
quiz_q_5_fb_correct,55,325732,0.0-21.0-0.0,"""event"",""trial"",""time""
""fullscreenenter"",""1"",""6021""
","
","
","""event"",""trial"",""time""
""fullscreenenter"",""1"",""6021""
","
",,null,run_exp/static/audio/clip_24_q5_correct.m4a,null,<p> That’s correct. The alien tells you nothing about how much treasure is on the planet.</p>,,,,,,,,,,,,,,,,,,,,,,,
quiz_correct,56,329213,0.0-22.0-0.0,"""event"",""trial"",""time""
""fullscreenenter"",""1"",""6021""
","
","
","""event"",""trial"",""time""
""fullscreenenter"",""1"",""6021""
","
",,null,run_exp/static/audio/clip_26_correct_quiz.m4a,null,,,,,,,,,,,,,,,,,,,,,,,,
quiz_correct_continue,57,331404,0.0-22.0-1.0,"""event"",""trial"",""time""
""fullscreenenter"",""1"",""6021""
","
","
","""event"",""trial"",""time""
""fullscreenenter"",""1"",""6021""
","
",,2189.7,<p>Good job! You're now ready to move on to the real game!</p>,,,,,,,0,,,,,,,,,,,,,,,,,,
audio-keyboard-response,58,341531,0.0-22.0-2.0,"""event"",""trial"",""time""
""fullscreenenter"",""1"",""6021""
","
","
","""event"",""trial"",""time""
""fullscreenenter"",""1"",""6021""
","
",,null,run_exp/static/audio/clip_28_real_game.m4a,null,,,,,,,,,,,,,,,,,,,,,,,,
instruc_begin_exp_contine,59,386559,0.0-22.0-3.0,"""event"",""trial"",""time""
""fullscreenenter"",""1"",""6021""
","
","
","""event"",""trial"",""time""
""fullscreenenter"",""1"",""6021""
","
",,45024.5,"<p>Now that you know how  to dig for space treasure and travel to new planets,you can start exploring! </p><p>Do you want to go over the instructions again or get started with the real game?</p>",,,,,,,1,,,,,,1,,,,,,,,,,,,
alien_welcome,60,391563,0.0-23.0-0.0,"""event"",""trial"",""time""
""fullscreenenter"",""1"",""6021""
","
","
","""event"",""trial"",""time""
""fullscreenenter"",""1"",""6021""
","
",,null,run_exp/static/images/task_images/aliens/old_aliens/planet/alien_planet-51.jpg,null,,,,,,,,,,,,,51,"51,55,79,42,32,73,41,37,54,19,50,31,11,44,77,26,20,63,38,74,53,6,68,30,45,14,43,61,76,18,66,34,35,21,75,57,27,29,24,52,10,9,67,12,3,65,49,5,2,25",,,,,,,,,,
land,61,392066,0.0-23.0-1.0,"""event"",""trial"",""time""
""fullscreenenter"",""1"",""6021""
","
","
","""event"",""trial"",""time""
""fullscreenenter"",""1"",""6021""
","
",,null,run_exp/static/images/task_images/land.jpg,null,,,,,,,105,,,1,,,,,,,,,,,,,,
dig,62,394069,0.0-23.0-2.0,"""event"",""trial"",""time""
""fullscreenenter"",""1"",""6021""
","
","
","""event"",""trial"",""time""
""fullscreenenter"",""1"",""6021""
","
",,,,,,,,,,,,"[{""stimulus"":""run_exp/static/images/task_images/dig.jpg"",""time"":0.3999999761581421},{""stimulus"":""run_exp/static/images/task_images/land.jpg"",""time"":668.7999999821186},{""stimulus"":""run_exp/static/images/task_images/dig.jpg"",""time"":1335.8999999761581}]",[],1,,,,,,,,,,,,,,
harvest,63,395072,0.0-23.0-3.0,"""event"",""trial"",""time""
""fullscreenenter"",""1"",""6021""
","
","
","""event"",""trial"",""time""
""fullscreenenter"",""1"",""6021""
","
",,null,run_exp/static/images/task_images/gems/105.jpg,null,,,,,,,28,,,1,,,,,105,0.263302443,0.266666667,,,,,,,
decision,64,395968,0.0-23.0-4.0,"""event"",""trial"",""time""
""fullscreenenter"",""1"",""6021""
","
","
","""event"",""trial"",""time""
""fullscreenenter"",""1"",""6021""
","
",,894.2,run_exp/static/images/task_images/land.jpg,65,,,,,,,28,,,1,,,,,,,,9408,1,0,FALSE,,,
dig,65,398078,0.0-24.0-0.0,"""event"",""trial"",""time""
""fullscreenenter"",""1"",""6021""
","
","
","""event"",""trial"",""time""
""fullscreenenter"",""1"",""6021""
","
",,,,,,,,,,,,"[{""stimulus"":""run_exp/static/images/task_images/dig.jpg"",""time"":0.30000001192092896},{""stimulus"":""run_exp/static/images/task_images/land.jpg"",""time"":703.5999999940395},{""stimulus"":""run_exp/static/images/task_images/dig.jpg"",""time"":1404.7000000178814}]",[],1,,,,,,,,,,,,,,
harvest,66,399079,0.0-24.0-1.0,"""event"",""trial"",""time""
""fullscreenenter"",""1"",""6021""
","
","
","""event"",""trial"",""time""
""fullscreenenter"",""1"",""6021""
","
",,null,run_exp/static/images/task_images/gems/28.jpg,null,,,,,,,5,,,1,,,,,28,0.174369571,0.178571429,,,,,,,
decision,67,399435,0.0-24.0-2.0,"""event"",""trial"",""time""
""fullscreenenter"",""1"",""6021""
","
","
","""event"",""trial"",""time""
""fullscreenenter"",""1"",""6021""
","
",,354.8,run_exp/static/images/task_images/land.jpg,65,,,,,,,5,,,1,,,,,,,,12874,1,1,FALSE,,,
dig,68,402084,0.0-25.0-0.0,"""event"",""trial"",""time""
""fullscreenenter"",""1"",""6021""
","
","
","""event"",""trial"",""time""
""fullscreenenter"",""1"",""6021""
","
",,,,,,,,,,,,"[{""stimulus"":""run_exp/static/images/task_images/dig.jpg"",""time"":0.20000001788139343},{""stimulus"":""run_exp/static/images/task_images/land.jpg"",""time"":883.5},{""stimulus"":""run_exp/static/images/task_images/dig.jpg"",""time"":1763.7000000178814}]",[],1,,,,,,,,,,,,,,
harvest,69,403087,0.0-25.0-1.0,"""event"",""trial"",""time""
""fullscreenenter"",""1"",""6021""
","
","
","""event"",""trial"",""time""
""fullscreenenter"",""1"",""6021""
","
",,null,run_exp/static/images/task_images/gems/5.jpg,null,,,,,,,1,,,1,,,,,5,0.236310826,0.2,,,,,,,
decision,70,403503,0.0-25.0-2.0,"""event"",""trial"",""time""
""fullscreenenter"",""1"",""6021""
","
","
","""event"",""trial"",""time""
""fullscreenenter"",""1"",""6021""
","
",,414.8,run_exp/static/images/task_images/land.jpg,76,,,,,,,1,,,1,,,,,,,,16942,1,2,TRUE,,,
travel,71,413092,0.0-26.0-0.0,"""event"",""trial"",""time""
""fullscreenenter"",""1"",""6021""
","
","
","""event"",""trial"",""time""
""fullscreenenter"",""1"",""6021""
","
",,,,,,,,,,,,"[{""stimulus"":""run_exp/static/images/task_images/rocket-01.jpg"",""time"":0.19999998807907104},{""stimulus"":""run_exp/static/images/task_images/rocket-02.jpg"",""time"":1066.5999999940395},{""stimulus"":""run_exp/static/images/task_images/rocket-03.jpg"",""time"":2131.699999988079},{""stimulus"":""run_exp/static/images/task_images/rocket-04.jpg"",""time"":3196.0999999940395},{""stimulus"":""run_exp/static/images/task_images/rocket-05.jpg"",""time"":4261.5},{""stimulus"":""run_exp/static/images/task_images/rocket-06.jpg"",""time"":5327},{""stimulus"":""run_exp/static/images/task_images/rocket-07.jpg"",""time"":6391.199999988079},{""stimulus"":""run_exp/static/images/task_images/rocket-08.jpg"",""time"":7456.199999988079},{""stimulus"":""run_exp/static/images/task_images/rocket-09.jpg"",""time"":8521.699999988079}]",[],1,,,,,,,,,,,,,,
alien_welcome,72,418096,0.0-26.0-1.0,"""event"",""trial"",""time""
""fullscreenenter"",""1"",""6021""
","
","
","""event"",""trial"",""time""
""fullscreenenter"",""1"",""6021""
","
",,null,run_exp/static/images/task_images/aliens/old_aliens/planet/alien_planet-55.jpg,null,,,,,,,,,,,,,55,"51,55,79,42,32,73,41,37,54,19,50,31,11,44,77,26,20,63,38,74,53,6,68,30,45,14,43,61,76,18,66,34,35,21,75,57,27,29,24,52,10,9,67,12,3,65,49,5,2,25",,,,,,,,,,
land,73,418598,0.0-26.0-2.0,"""event"",""trial"",""time""
""fullscreenenter"",""1"",""6021""
","
","
","""event"",""trial"",""time""
""fullscreenenter"",""1"",""6021""
","
",,null,run_exp/static/images/task_images/land.jpg,null,,,,,,,109,,,2,,,,,,,,,,,,,,
dig,74,420602,0.0-26.0-3.0,"""event"",""trial"",""time""
""fullscreenenter"",""1"",""6021""
","
","
","""event"",""trial"",""time""
""fullscreenenter"",""1"",""6021""
","
",,,,,,,,,,,,"[{""stimulus"":""run_exp/static/images/task_images/dig.jpg"",""time"":0.29999998211860657},{""stimulus"":""run_exp/static/images/task_images/land.jpg"",""time"":669.1999999880791},{""stimulus"":""run_exp/static/images/task_images/dig.jpg"",""time"":1336.3999999761581}]",[],2,,,,,,,,,,,,,,
harvest,75,421604,0.0-26.0-4.0,"""event"",""trial"",""time""
""fullscreenenter"",""1"",""6021""
","
","
","""event"",""trial"",""time""
""fullscreenenter"",""1"",""6021""
","
",,null,run_exp/static/images/task_images/gems/109.jpg,null,,,,,,,11,,,2,,,,,109,0.096471064,0.100917431,,,,,,,
decision,76,423704,0.0-26.0-5.0,"""event"",""trial"",""time""
""fullscreenenter"",""1"",""6021""
","
","
","""event"",""trial"",""time""
""fullscreenenter"",""1"",""6021""
","
",,2098.9,run_exp/static/images/task_images/land.jpg,76,,,,,,,11,,,2,,,,,,,,37143,1,0,TRUE,,,
travel,77,431600,0.0-27.0-0.0,"""event"",""trial"",""time""
""fullscreenenter"",""1"",""6021""
","
","
","""event"",""trial"",""time""
""fullscreenenter"",""1"",""6021""
","
",,,,,,,,,,,,"[{""stimulus"":""run_exp/static/images/task_images/rocket-01.jpg"",""time"":0.09999999403953552},{""stimulus"":""run_exp/static/images/task_images/rocket-02.jpg"",""time"":878.5999999940395},{""stimulus"":""run_exp/static/images/task_images/rocket-03.jpg"",""time"":1755.199999988079},{""stimulus"":""run_exp/static/images/task_images/rocket-04.jpg"",""time"":2632.5},{""stimulus"":""run_exp/static/images/task_images/rocket-05.jpg"",""time"":3509.7999999821186},{""stimulus"":""run_exp/static/images/task_images/rocket-06.jpg"",""time"":4386.0999999940395},{""stimulus"":""run_exp/static/images/task_images/rocket-07.jpg"",""time"":5263.299999982119},{""stimulus"":""run_exp/static/images/task_images/rocket-08.jpg"",""time"":6140.399999976158},{""stimulus"":""run_exp/static/images/task_images/rocket-09.jpg"",""time"":7017.699999988079}]",[],2,,,,,,,,,,,,,,
alien_welcome,78,436604,0.0-27.0-1.0,"""event"",""trial"",""time""
""fullscreenenter"",""1"",""6021""
","
","
","""event"",""trial"",""time""
""fullscreenenter"",""1"",""6021""
","
",,null,run_exp/static/images/task_images/aliens/old_aliens/planet/alien_planet-79.jpg,null,,,,,,,,,,,,,79,"51,55,79,42,32,73,41,37,54,19,50,31,11,44,77,26,20,63,38,74,53,6,68,30,45,14,43,61,76,18,66,34,35,21,75,57,27,29,24,52,10,9,67,12,3,65,49,5,2,25",,,,,,,,,,
land,79,437106,0.0-27.0-2.0,"""event"",""trial"",""time""
""fullscreenenter"",""1"",""6021""
","
","
","""event"",""trial"",""time""
""fullscreenenter"",""1"",""6021""
","
",,null,run_exp/static/images/task_images/land.jpg,null,,,,,,,98,,,3,,,,,,,,,,,,,,
dig,80,439110,0.0-27.0-3.0,"""event"",""trial"",""time""
""fullscreenenter"",""1"",""6021""
","
","
","""event"",""trial"",""time""
""fullscreenenter"",""1"",""6021""
","
",,,,,,,,,,,,"[{""stimulus"":""run_exp/static/images/task_images/dig.jpg"",""time"":0.29999998211860657},{""stimulus"":""run_exp/static/images/task_images/land.jpg"",""time"":669.1999999880791},{""stimulus"":""run_exp/static/images/task_images/dig.jpg"",""time"":1336.5}]",[],3,,,,,,,,,,,,,,
harvest,81,440112,0.0-27.0-4.0,"""event"",""trial"",""time""
""fullscreenenter"",""1"",""6021""
","
","
","""event"",""trial"",""time""
""fullscreenenter"",""1"",""6021""
","
",,null,run_exp/static/images/task_images/gems/98.jpg,null,,,,,,,60,,,3,,,,,98,0.607383768,0.612244898,,,,,,,
decision,82,441175,0.0-27.0-5.0,"""event"",""trial"",""time""
""fullscreenenter"",""1"",""6021""
","
","
","""event"",""trial"",""time""
""fullscreenenter"",""1"",""6021""
","
",,1061.3,run_exp/static/images/task_images/land.jpg,76,,,,,,,60,,,3,,,,,,,,54614,1,0,TRUE,,,
travel,83,450115,0.0-28.0-0.0,"""event"",""trial"",""time""
""fullscreenenter"",""1"",""6021""
","
","
","""event"",""trial"",""time""
""fullscreenenter"",""1"",""6021""
","
",,,,,,,,,,,,"[{""stimulus"":""run_exp/static/images/task_images/rocket-01.jpg"",""time"":0.19999998807907104},{""stimulus"":""run_exp/static/images/task_images/rocket-02.jpg"",""time"":994.1999999880791},{""stimulus"":""run_exp/static/images/task_images/rocket-03.jpg"",""time"":1988.0999999940395},{""stimulus"":""run_exp/static/images/task_images/rocket-04.jpg"",""time"":2980.199999988079},{""stimulus"":""run_exp/static/images/task_images/rocket-05.jpg"",""time"":3974.199999988079},{""stimulus"":""run_exp/static/images/task_images/rocket-06.jpg"",""time"":4966.199999988079},{""stimulus"":""run_exp/static/images/task_images/rocket-07.jpg"",""time"":5960},{""stimulus"":""run_exp/static/images/task_images/rocket-08.jpg"",""time"":6953.5999999940395},{""stimulus"":""run_exp/static/images/task_images/rocket-09.jpg"",""time"":7945.800000011921}]",[],3,,,,,,,,,,,,,,
alien_welcome,84,455117,0.0-28.0-1.0,"""event"",""trial"",""time""
""fullscreenenter"",""1"",""6021""
","
","
","""event"",""trial"",""time""
""fullscreenenter"",""1"",""6021""
","
",,null,run_exp/static/images/task_images/aliens/old_aliens/planet/alien_planet-42.jpg,null,,,,,,,,,,,,,42,"51,55,79,42,32,73,41,37,54,19,50,31,11,44,77,26,20,63,38,74,53,6,68,30,45,14,43,61,76,18,66,34,35,21,75,57,27,29,24,52,10,9,67,12,3,65,49,5,2,25",,,,,,,,,,
land,85,455622,0.0-28.0-2.0,"""event"",""trial"",""time""
""fullscreenenter"",""1"",""6021""
","
","
","""event"",""trial"",""time""
""fullscreenenter"",""1"",""6021""
","
",,null,run_exp/static/images/task_images/land.jpg,null,,,,,,,99,,,4,,,,,,,,,,,,,,
dig,86,457625,0.0-28.0-3.0,"""event"",""trial"",""time""
""fullscreenenter"",""1"",""6021""
","
","
","""event"",""trial"",""time""
""fullscreenenter"",""1"",""6021""
","
",,,,,,,,,,,,"[{""stimulus"":""run_exp/static/images/task_images/dig.jpg"",""time"":0.30000001192092896},{""stimulus"":""run_exp/static/images/task_images/land.jpg"",""time"":668.8000000119209},{""stimulus"":""run_exp/static/images/task_images/dig.jpg"",""time"":1336.0999999940395}]",[],4,,,,,,,,,,,,,,
harvest,87,458627,0.0-28.0-4.0,"""event"",""trial"",""time""
""fullscreenenter"",""1"",""6021""
","
","
","""event"",""trial"",""time""
""fullscreenenter"",""1"",""6021""
","
",,null,run_exp/static/images/task_images/gems/99.jpg,null,,,,,,,55,,,4,,,,,99,0.559390075,0.555555556,,,,,,,
decision,88,458675,0.0-28.0-5.0,"""event"",""trial"",""time""
""fullscreenenter"",""1"",""6021""
","
","
","""event"",""trial"",""time""
""fullscreenenter"",""1"",""6021""
","
",,47.19999999,run_exp/static/images/task_images/land.jpg,76,,,,,,,55,,,4,,,,,,,,72114,1,0,TRUE,,,
travel,89,468624,0.0-29.0-0.0,"""event"",""trial"",""time""
""fullscreenenter"",""1"",""6021""
","
","
","""event"",""trial"",""time""
""fullscreenenter"",""1"",""6021""
","
",,,,,,,,,,,,"[{""stimulus"":""run_exp/static/images/task_images/rocket-01.jpg"",""time"":0.09999999403953552},{""stimulus"":""run_exp/static/images/task_images/rocket-02.jpg"",""time"":1106.5},{""stimulus"":""run_exp/static/images/task_images/rocket-03.jpg"",""time"":2211.699999988079},{""stimulus"":""run_exp/static/images/task_images/rocket-04.jpg"",""time"":3316.4000000059605},{""stimulus"":""run_exp/static/images/task_images/rocket-05.jpg"",""time"":4421.299999982119},{""stimulus"":""run_exp/static/images/task_images/rocket-06.jpg"",""time"":5526.5},{""stimulus"":""run_exp/static/images/task_images/rocket-07.jpg"",""time"":6631.799999982119},{""stimulus"":""run_exp/static/images/task_images/rocket-08.jpg"",""time"":7736},{""stimulus"":""run_exp/static/images/task_images/rocket-09.jpg"",""time"":8841.40000000596}]",[],4,,,,,,,,,,,,,,
alien_welcome,90,473836,0.0-29.0-1.0,"""event"",""trial"",""time""
""fullscreenenter"",""1"",""6021""
","
","
","""event"",""trial"",""time""
""fullscreenenter"",""1"",""6021""
","
",,null,run_exp/static/images/task_images/aliens/old_aliens/planet/alien_planet-32.jpg,null,,,,,,,,,,,,,32,"51,55,79,42,32,73,41,37,54,19,50,31,11,44,77,26,20,63,38,74,53,6,68,30,45,14,43,61,76,18,66,34,35,21,75,57,27,29,24,52,10,9,67,12,3,65,49,5,2,25",,,,,,,,,,
land,91,474337,0.0-29.0-2.0,"""event"",""trial"",""time""
""fullscreenenter"",""1"",""6021""
","
","
","""event"",""trial"",""time""
""fullscreenenter"",""1"",""6021""
","
",,null,run_exp/static/images/task_images/land.jpg,null,,,,,,,106,,,5,,,,,,,,,,,,,,
dig,92,476341,0.0-29.0-3.0,"""event"",""trial"",""time""
""fullscreenenter"",""1"",""6021""
","
","
","""event"",""trial"",""time""
""fullscreenenter"",""1"",""6021""
","
",,,,,,,,,,,,"[{""stimulus"":""run_exp/static/images/task_images/dig.jpg"",""time"":0.29999998211860657},{""stimulus"":""run_exp/static/images/task_images/land.jpg"",""time"":668.7999999821186},{""stimulus"":""run_exp/static/images/task_images/dig.jpg"",""time"":1336.199999988079}]",[],5,,,,,,,,,,,,,,
harvest,93,477343,0.0-29.0-4.0,"""event"",""trial"",""time""
""fullscreenenter"",""1"",""6021""
","
","
","""event"",""trial"",""time""
""fullscreenenter"",""1"",""6021""
","
",,null,run_exp/static/images/task_images/gems/106.jpg,null,,,,,,,51,,,5,,,,,106,0.483625404,0.481132075,,,,,,,
decision,94,477483,0.0-29.0-5.0,"""event"",""trial"",""time""
""fullscreenenter"",""1"",""6021""
","
","
","""event"",""trial"",""time""
""fullscreenenter"",""1"",""6021""
","
",,138.3,run_exp/static/images/task_images/land.jpg,76,,,,,,,51,,,5,,,,,,,,90922,1,0,TRUE,,,
travel,95,487341,0.0-30.0-0.0,"""event"",""trial"",""time""
""fullscreenenter"",""1"",""6021""
","
","
","""event"",""trial"",""time""
""fullscreenenter"",""1"",""6021""
","
",,,,,,,,,,,,"[{""stimulus"":""run_exp/static/images/task_images/rocket-01.jpg"",""time"":0.20000001788139343},{""stimulus"":""run_exp/static/images/task_images/rocket-02.jpg"",""time"":1096.6000000238419},{""stimulus"":""run_exp/static/images/task_images/rocket-03.jpg"",""time"":2191.600000023842},{""stimulus"":""run_exp/static/images/task_images/rocket-04.jpg"",""time"":3287.100000023842},{""stimulus"":""run_exp/static/images/task_images/rocket-05.jpg"",""time"":4381.800000011921},{""stimulus"":""run_exp/static/images/task_images/rocket-06.jpg"",""time"":5476.9000000059605},{""stimulus"":""run_exp/static/images/task_images/rocket-07.jpg"",""time"":6571.5},{""stimulus"":""run_exp/static/images/task_images/rocket-08.jpg"",""time"":7666.9000000059605},{""stimulus"":""run_exp/static/images/task_images/rocket-09.jpg"",""time"":8761.200000017881}]",[],5,,,,,,,,,,,,,,
alien_welcome,96,492344,0.0-30.0-1.0,"""event"",""trial"",""time""
""fullscreenenter"",""1"",""6021""
","
","
","""event"",""trial"",""time""
""fullscreenenter"",""1"",""6021""
","
",,null,run_exp/static/images/task_images/aliens/old_aliens/planet/alien_planet-73.jpg,null,,,,,,,,,,,,,73,"51,55,79,42,32,73,41,37,54,19,50,31,11,44,77,26,20,63,38,74,53,6,68,30,45,14,43,61,76,18,66,34,35,21,75,57,27,29,24,52,10,9,67,12,3,65,49,5,2,25",,,,,,,,,,
land,97,492846,0.0-30.0-2.0,"""event"",""trial"",""time""
""fullscreenenter"",""1"",""6021""
","
","
","""event"",""trial"",""time""
""fullscreenenter"",""1"",""6021""
","
",,null,run_exp/static/images/task_images/land.jpg,null,,,,,,,97,,,6,,,,,,,,,,,,,,
dig,98,494859,0.0-30.0-3.0,"""event"",""trial"",""time""
""fullscreenenter"",""1"",""6021""
","
","
","""event"",""trial"",""time""
""fullscreenenter"",""1"",""6021""
","
",,,,,,,,,,,,"[{""stimulus"":""run_exp/static/images/task_images/dig.jpg"",""time"":0.30000001192092896},{""stimulus"":""run_exp/static/images/task_images/land.jpg"",""time"":669},{""stimulus"":""run_exp/static/images/task_images/dig.jpg"",""time"":1335.5999999940395}]",[],6,,,,,,,,,,,,,,
harvest,99,495861,0.0-30.0-4.0,"""event"",""trial"",""time""
""fullscreenenter"",""1"",""6021""
","
","
","""event"",""trial"",""time""
""fullscreenenter"",""1"",""6021""
","
",,null,run_exp/static/images/task_images/gems/97.jpg,null,,,,,,,75,,,6,,,,,97,0.771607618,0.773195876,,,,,,,
decision,100,495936,0.0-30.0-5.0,"""event"",""trial"",""time""
""fullscreenenter"",""1"",""6021""
","
","
","""event"",""trial"",""time""
""fullscreenenter"",""1"",""6021""
","
",,73.5,run_exp/static/images/task_images/land.jpg,76,,,,,,,75,,,6,,,,,,,,109375,1,0,TRUE,,,
travel,101,505859,0.0-31.0-0.0,"""event"",""trial"",""time""
""fullscreenenter"",""1"",""6021""
","
","
","""event"",""trial"",""time""
""fullscreenenter"",""1"",""6021""
","
",,,,,,,,,,,,"[{""stimulus"":""run_exp/static/images/task_images/rocket-01.jpg"",""time"":0.29999998211860657},{""stimulus"":""run_exp/static/images/task_images/rocket-02.jpg"",""time"":1104},{""stimulus"":""run_exp/static/images/task_images/rocket-03.jpg"",""time"":2206.0999999940395},{""stimulus"":""run_exp/static/images/task_images/rocket-04.jpg"",""time"":3307.2999999821186},{""stimulus"":""run_exp/static/images/task_images/rocket-05.jpg"",""time"":4409.899999976158},{""stimulus"":""run_exp/static/images/task_images/rocket-06.jpg"",""time"":5512.299999982119},{""stimulus"":""run_exp/static/images/task_images/rocket-07.jpg"",""time"":6613.899999976158},{""stimulus"":""run_exp/static/images/task_images/rocket-08.jpg"",""time"":7716.5},{""stimulus"":""run_exp/static/images/task_images/rocket-09.jpg"",""time"":8817.399999976158}]",[],6,,,,,,,,,,,,,,
alien_welcome,102,510862,0.0-31.0-1.0,"""event"",""trial"",""time""
""fullscreenenter"",""1"",""6021""
","
","
","""event"",""trial"",""time""
""fullscreenenter"",""1"",""6021""
","
",,null,run_exp/static/images/task_images/aliens/old_aliens/planet/alien_planet-41.jpg,null,,,,,,,,,,,,,41,"51,55,79,42,32,73,41,37,54,19,50,31,11,44,77,26,20,63,38,74,53,6,68,30,45,14,43,61,76,18,66,34,35,21,75,57,27,29,24,52,10,9,67,12,3,65,49,5,2,25",,,,,,,,,,
land,103,511365,0.0-31.0-2.0,"""event"",""trial"",""time""
""fullscreenenter"",""1"",""6021""
","
","
","""event"",""trial"",""time""
""fullscreenenter"",""1"",""6021""
","
",,null,run_exp/static/images/task_images/land.jpg,null,,,,,,,102,,,7,,,,,,,,,,,,,,
dig,104,513369,0.0-31.0-3.0,"""event"",""trial"",""time""
""fullscreenenter"",""1"",""6021""
","
","
","""event"",""trial"",""time""
""fullscreenenter"",""1"",""6021""
","
",,,,,,,,,,,,"[{""stimulus"":""run_exp/static/images/task_images/dig.jpg"",""time"":0.19999998807907104},{""stimulus"":""run_exp/static/images/task_images/land.jpg"",""time"":668.7999999821186},{""stimulus"":""run_exp/static/images/task_images/dig.jpg"",""time"":1336.5999999940395}]",[],7,,,,,,,,,,,,,,
harvest,105,514371,0.0-31.0-4.0,"""event"",""trial"",""time""
""fullscreenenter"",""1"",""6021""
","
","
","""event"",""trial"",""time""
""fullscreenenter"",""1"",""6021""
","
",,null,run_exp/static/images/task_images/gems/102.jpg,null,,,,,,,85,,,7,,,,,102,0.835978785,0.833333333,,,,,,,
decision,106,514447,0.0-31.0-5.0,"""event"",""trial"",""time""
""fullscreenenter"",""1"",""6021""
","
","
","""event"",""trial"",""time""
""fullscreenenter"",""1"",""6021""
","
",,72,run_exp/static/images/task_images/land.jpg,76,,,,,,,85,,,7,,,,,,,,127886,1,0,TRUE,,,
travel,107,524378,0.0-32.0-0.0,"""event"",""trial"",""time""
""fullscreenenter"",""1"",""6021""
","
","
","""event"",""trial"",""time""
""fullscreenenter"",""1"",""6021""
","
",,,,,,,,,,,,"[{""stimulus"":""run_exp/static/images/task_images/rocket-01.jpg"",""time"":0.19999998807907104},{""stimulus"":""run_exp/static/images/task_images/rocket-02.jpg"",""time"":1104.199999988079},{""stimulus"":""run_exp/static/images/task_images/rocket-03.jpg"",""time"":2207.4000000059605},{""stimulus"":""run_exp/static/images/task_images/rocket-04.jpg"",""time"":3310.5999999940395},{""stimulus"":""run_exp/static/images/task_images/rocket-05.jpg"",""time"":4413.5999999940395},{""stimulus"":""run_exp/static/images/task_images/rocket-06.jpg"",""time"":5516.300000011921},{""stimulus"":""run_exp/static/images/task_images/rocket-07.jpg"",""time"":6619.199999988079},{""stimulus"":""run_exp/static/images/task_images/rocket-08.jpg"",""time"":7723.5},{""stimulus"":""run_exp/static/images/task_images/rocket-09.jpg"",""time"":8825.699999988079}]",[],7,,,,,,,,,,,,,,
alien_welcome,108,529381,0.0-32.0-1.0,"""event"",""trial"",""time""
""fullscreenenter"",""1"",""6021""
","
","
","""event"",""trial"",""time""
""fullscreenenter"",""1"",""6021""
","
",,null,run_exp/static/images/task_images/aliens/old_aliens/planet/alien_planet-37.jpg,null,,,,,,,,,,,,,37,"51,55,79,42,32,73,41,37,54,19,50,31,11,44,77,26,20,63,38,74,53,6,68,30,45,14,43,61,76,18,66,34,35,21,75,57,27,29,24,52,10,9,67,12,3,65,49,5,2,25",,,,,,,,,,
land,109,529883,0.0-32.0-2.0,"""event"",""trial"",""time""
""fullscreenenter"",""1"",""6021""
","
","
","""event"",""trial"",""time""
""fullscreenenter"",""1"",""6021""
","
",,null,run_exp/static/images/task_images/land.jpg,null,,,,,,,99,,,8,,,,,,,,,,,,,,
dig,110,531888,0.0-32.0-3.0,"""event"",""trial"",""time""
""fullscreenenter"",""1"",""6021""
","
","
","""event"",""trial"",""time""
""fullscreenenter"",""1"",""6021""
","
",,,,,,,,,,,,"[{""stimulus"":""run_exp/static/images/task_images/dig.jpg"",""time"":0.19999998807907104},{""stimulus"":""run_exp/static/images/task_images/land.jpg"",""time"":668.5999999940395},{""stimulus"":""run_exp/static/images/task_images/dig.jpg"",""time"":1335.3999999761581}]",[],8,,,,,,,,,,,,,,
harvest,111,532889,0.0-32.0-4.0,"""event"",""trial"",""time""
""fullscreenenter"",""1"",""6021""
","
","
","""event"",""trial"",""time""
""fullscreenenter"",""1"",""6021""
","
",,null,run_exp/static/images/task_images/gems/99.jpg,null,,,,,,,74,,,8,,,,,99,0.743078404,0.747474747,,,,,,,
decision,112,534159,0.0-32.0-5.0,"""event"",""trial"",""time""
""fullscreenenter"",""1"",""6021""
","
","
","""event"",""trial"",""time""
""fullscreenenter"",""1"",""6021""
","
",,1268,run_exp/static/images/task_images/land.jpg,76,,,,,,,74,,,8,,,,,,,,147598,1,0,TRUE,,,
travel,113,542894,0.0-33.0-0.0,"""event"",""trial"",""time""
""fullscreenenter"",""1"",""6021""
","
","
","""event"",""trial"",""time""
""fullscreenenter"",""1"",""6021""
","
",,,,,,,,,,,,"[{""stimulus"":""run_exp/static/images/task_images/rocket-01.jpg"",""time"":0.19999998807907104},{""stimulus"":""run_exp/static/images/task_images/rocket-02.jpg"",""time"":971.5},{""stimulus"":""run_exp/static/images/task_images/rocket-03.jpg"",""time"":1943},{""stimulus"":""run_exp/static/images/task_images/rocket-04.jpg"",""time"":2911.699999988079},{""stimulus"":""run_exp/static/images/task_images/rocket-05.jpg"",""time"":3881.5},{""stimulus"":""run_exp/static/images/task_images/rocket-06.jpg"",""time"":4852.5},{""stimulus"":""run_exp/static/images/task_images/rocket-07.jpg"",""time"":5822},{""stimulus"":""run_exp/static/images/task_images/rocket-08.jpg"",""time"":6793.399999976158},{""stimulus"":""run_exp/static/images/task_images/rocket-09.jpg"",""time"":7762.699999988079}]",[],8,,,,,,,,,,,,,,
alien_welcome,114,547896,0.0-33.0-1.0,"""event"",""trial"",""time""
""fullscreenenter"",""1"",""6021""
","
","
","""event"",""trial"",""time""
""fullscreenenter"",""1"",""6021""
","
",,null,run_exp/static/images/task_images/aliens/old_aliens/planet/alien_planet-54.jpg,null,,,,,,,,,,,,,54,"51,55,79,42,32,73,41,37,54,19,50,31,11,44,77,26,20,63,38,74,53,6,68,30,45,14,43,61,76,18,66,34,35,21,75,57,27,29,24,52,10,9,67,12,3,65,49,5,2,25",,,,,,,,,,
land,115,548398,0.0-33.0-2.0,"""event"",""trial"",""time""
""fullscreenenter"",""1"",""6021""
","
","
","""event"",""trial"",""time""
""fullscreenenter"",""1"",""6021""
","
",,null,run_exp/static/images/task_images/land.jpg,null,,,,,,,102,,,9,,,,,,,,,,,,,,
dig,116,550402,0.0-33.0-3.0,"""event"",""trial"",""time""
""fullscreenenter"",""1"",""6021""
","
","
","""event"",""trial"",""time""
""fullscreenenter"",""1"",""6021""
","
",,,,,,,,,,,,"[{""stimulus"":""run_exp/static/images/task_images/dig.jpg"",""time"":0.30000001192092896},{""stimulus"":""run_exp/static/images/task_images/land.jpg"",""time"":668.5999999940395},{""stimulus"":""run_exp/static/images/task_images/dig.jpg"",""time"":1336.5999999940395}]",[],9,,,,,,,,,,,,,,
harvest,117,551404,0.0-33.0-4.0,"""event"",""trial"",""time""
""fullscreenenter"",""1"",""6021""
","
","
","""event"",""trial"",""time""
""fullscreenenter"",""1"",""6021""
","
",,null,run_exp/static/images/task_images/gems/102.jpg,null,,,,,,,15,,,9,,,,,102,0.143336172,0.147058824,,,,,,,
decision,118,551859,0.0-33.0-5.0,"""event"",""trial"",""time""
""fullscreenenter"",""1"",""6021""
","
","
","""event"",""trial"",""time""
""fullscreenenter"",""1"",""6021""
","
",,454.5,run_exp/static/images/task_images/land.jpg,76,,,,,,,15,,,9,,,,,,,,165298,1,0,TRUE,,,
travel,119,561404,0.0-34.0-0.0,"""event"",""trial"",""time""
""fullscreenenter"",""1"",""6021""
","
","
","""event"",""trial"",""time""
""fullscreenenter"",""1"",""6021""
","
",,,,,,,,,,,,"[{""stimulus"":""run_exp/static/images/task_images/rocket-01.jpg"",""time"":0.20000001788139343},{""stimulus"":""run_exp/static/images/task_images/rocket-02.jpg"",""time"":1061.2000000178814},{""stimulus"":""run_exp/static/images/task_images/rocket-03.jpg"",""time"":2121.5},{""stimulus"":""run_exp/static/images/task_images/rocket-04.jpg"",""time"":3181.300000011921},{""stimulus"":""run_exp/static/images/task_images/rocket-05.jpg"",""time"":4241.300000011921},{""stimulus"":""run_exp/static/images/task_images/rocket-06.jpg"",""time"":5301.4000000059605},{""stimulus"":""run_exp/static/images/task_images/rocket-07.jpg"",""time"":6362.100000023842},{""stimulus"":""run_exp/static/images/task_images/rocket-08.jpg"",""time"":7421.300000011921},{""stimulus"":""run_exp/static/images/task_images/rocket-09.jpg"",""time"":8482.90000000596}]",[],9,,,,,,,,,,,,,,
alien_welcome,120,566406,0.0-34.0-1.0,"""event"",""trial"",""time""
""fullscreenenter"",""1"",""6021""
","
","
","""event"",""trial"",""time""
""fullscreenenter"",""1"",""6021""
","
",,null,run_exp/static/images/task_images/aliens/old_aliens/planet/alien_planet-19.jpg,null,,,,,,,,,,,,,19,"51,55,79,42,32,73,41,37,54,19,50,31,11,44,77,26,20,63,38,74,53,6,68,30,45,14,43,61,76,18,66,34,35,21,75,57,27,29,24,52,10,9,67,12,3,65,49,5,2,25",,,,,,,,,,
land,121,566908,0.0-34.0-2.0,"""event"",""trial"",""time""
""fullscreenenter"",""1"",""6021""
","
","
","""event"",""trial"",""time""
""fullscreenenter"",""1"",""6021""
","
",,null,run_exp/static/images/task_images/land.jpg,null,,,,,,,98,,,10,,,,,,,,,,,,,,
dig,122,568911,0.0-34.0-3.0,"""event"",""trial"",""time""
""fullscreenenter"",""1"",""6021""
","
","
","""event"",""trial"",""time""
""fullscreenenter"",""1"",""6021""
","
",,,,,,,,,,,,"[{""stimulus"":""run_exp/static/images/task_images/dig.jpg"",""time"":0.30000001192092896},{""stimulus"":""run_exp/static/images/task_images/land.jpg"",""time"":668.4000000059605},{""stimulus"":""run_exp/static/images/task_images/dig.jpg"",""time"":1335.199999988079}]",[],10,,,,,,,,,,,,,,
harvest,123,569913,0.0-34.0-4.0,"""event"",""trial"",""time""
""fullscreenenter"",""1"",""6021""
","
","
","""event"",""trial"",""time""
""fullscreenenter"",""1"",""6021""
","
",,null,run_exp/static/images/task_images/gems/98.jpg,null,,,,,,,19,,,10,,,,,98,0.192190716,0.193877551,,,,,,,
decision,124,569931,0.0-34.0-5.0,"""event"",""trial"",""time""
""fullscreenenter"",""1"",""6021""
","
","
","""event"",""trial"",""time""
""fullscreenenter"",""1"",""6021""
","
",,16.69999999,run_exp/static/images/task_images/land.jpg,76,,,,,,,19,,,10,,,,,,,,183370,1,0,TRUE,,,
travel,125,579916,0.0-35.0-0.0,"""event"",""trial"",""time""
""fullscreenenter"",""1"",""6021""
","
","
","""event"",""trial"",""time""
""fullscreenenter"",""1"",""6021""
","
",,,,,,,,,,,,"[{""stimulus"":""run_exp/static/images/task_images/rocket-01.jpg"",""time"":0.09999999403953552},{""stimulus"":""run_exp/static/images/task_images/rocket-02.jpg"",""time"":1111.8999999761581},{""stimulus"":""run_exp/static/images/task_images/rocket-03.jpg"",""time"":2219.399999976158},{""stimulus"":""run_exp/static/images/task_images/rocket-04.jpg"",""time"":3328.2999999821186},{""stimulus"":""run_exp/static/images/task_images/rocket-05.jpg"",""time"":4437.5999999940395},{""stimulus"":""run_exp/static/images/task_images/rocket-06.jpg"",""time"":5547.5},{""stimulus"":""run_exp/static/images/task_images/rocket-07.jpg"",""time"":6655.399999976158},{""stimulus"":""run_exp/static/images/task_images/rocket-08.jpg"",""time"":7764.5999999940395},{""stimulus"":""run_exp/static/images/task_images/rocket-09.jpg"",""time"":8874.199999988079}]",[],10,,,,,,,,,,,,,,
alien_welcome,126,584918,0.0-35.0-1.0,"""event"",""trial"",""time""
""fullscreenenter"",""1"",""6021""
","
","
","""event"",""trial"",""time""
""fullscreenenter"",""1"",""6021""
","
",,null,run_exp/static/images/task_images/aliens/old_aliens/planet/alien_planet-50.jpg,null,,,,,,,,,,,,,50,"51,55,79,42,32,73,41,37,54,19,50,31,11,44,77,26,20,63,38,74,53,6,68,30,45,14,43,61,76,18,66,34,35,21,75,57,27,29,24,52,10,9,67,12,3,65,49,5,2,25",,,,,,,,,,
land,127,585420,0.0-35.0-2.0,"""event"",""trial"",""time""
""fullscreenenter"",""1"",""6021""
","
","
","""event"",""trial"",""time""
""fullscreenenter"",""1"",""6021""
","
",,null,run_exp/static/images/task_images/land.jpg,null,,,,,,,102,,,11,,,,,,,,,,,,,,
dig,128,587424,0.0-35.0-3.0,"""event"",""trial"",""time""
""fullscreenenter"",""1"",""6021""
","
","
","""event"",""trial"",""time""
""fullscreenenter"",""1"",""6021""
","
",,,,,,,,,,,,"[{""stimulus"":""run_exp/static/images/task_images/dig.jpg"",""time"":0.29999998211860657},{""stimulus"":""run_exp/static/images/task_images/land.jpg"",""time"":669},{""stimulus"":""run_exp/static/images/task_images/dig.jpg"",""time"":1338.5999999940395}]",[],11,,,,,,,,,,,,,,
harvest,129,588425,0.0-35.0-4.0,"""event"",""trial"",""time""
""fullscreenenter"",""1"",""6021""
","
","
","""event"",""trial"",""time""
""fullscreenenter"",""1"",""6021""
","
",,null,run_exp/static/images/task_images/gems/102.jpg,null,,,,,,,19,,,11,,,,,102,0.184141123,0.18627451,,,,,,,
decision,130,589967,0.0-35.0-5.0,"""event"",""trial"",""time""
""fullscreenenter"",""1"",""6021""
","
","
","""event"",""trial"",""time""
""fullscreenenter"",""1"",""6021""
","
",,1539.9,run_exp/static/images/task_images/land.jpg,76,,,,,,,19,,,11,,,,,,,,203406,1,0,TRUE,,,
travel,131,598432,0.0-36.0-0.0,"""event"",""trial"",""time""
""fullscreenenter"",""1"",""6021""
","
","
","""event"",""trial"",""time""
""fullscreenenter"",""1"",""6021""
","
",,,,,,,,,,,,"[{""stimulus"":""run_exp/static/images/task_images/rocket-01.jpg"",""time"":0.19999998807907104},{""stimulus"":""run_exp/static/images/task_images/rocket-02.jpg"",""time"":941.5999999940395},{""stimulus"":""run_exp/static/images/task_images/rocket-03.jpg"",""time"":1881.5},{""stimulus"":""run_exp/static/images/task_images/rocket-04.jpg"",""time"":2821.699999988079},{""stimulus"":""run_exp/static/images/task_images/rocket-05.jpg"",""time"":3761.0999999940395},{""stimulus"":""run_exp/static/images/task_images/rocket-06.jpg"",""time"":4701.199999988079},{""stimulus"":""run_exp/static/images/task_images/rocket-07.jpg"",""time"":5642.5},{""stimulus"":""run_exp/static/images/task_images/rocket-08.jpg"",""time"":6581.299999982119},{""stimulus"":""run_exp/static/images/task_images/rocket-09.jpg"",""time"":7522}]",[],11,,,,,,,,,,,,,,
alien_welcome,132,603435,0.0-36.0-1.0,"""event"",""trial"",""time""
""fullscreenenter"",""1"",""6021""
","
","
","""event"",""trial"",""time""
""fullscreenenter"",""1"",""6021""
","
",,null,run_exp/static/images/task_images/aliens/old_aliens/planet/alien_planet-31.jpg,null,,,,,,,,,,,,,31,"51,55,79,42,32,73,41,37,54,19,50,31,11,44,77,26,20,63,38,74,53,6,68,30,45,14,43,61,76,18,66,34,35,21,75,57,27,29,24,52,10,9,67,12,3,65,49,5,2,25",,,,,,,,,,
land,133,603937,0.0-36.0-2.0,"""event"",""trial"",""time""
""fullscreenenter"",""1"",""6021""
","
","
","""event"",""trial"",""time""
""fullscreenenter"",""1"",""6021""
","
",,null,run_exp/static/images/task_images/land.jpg,null,,,,,,,102,,,12,,,,,,,,,,,,,,
dig,134,605941,0.0-36.0-3.0,"""event"",""trial"",""time""
""fullscreenenter"",""1"",""6021""
","
","
","""event"",""trial"",""time""
""fullscreenenter"",""1"",""6021""
","
",,,,,,,,,,,,"[{""stimulus"":""run_exp/static/images/task_images/dig.jpg"",""time"":0.29999998211860657},{""stimulus"":""run_exp/static/images/task_images/land.jpg"",""time"":669.3999999761581},{""stimulus"":""run_exp/static/images/task_images/dig.jpg"",""time"":1335.7999999821186}]",[],12,,,,,,,,,,,,,,
harvest,135,606943,0.0-36.0-4.0,"""event"",""trial"",""time""
""fullscreenenter"",""1"",""6021""
","
","
","""event"",""trial"",""time""
""fullscreenenter"",""1"",""6021""
","
",,null,run_exp/static/images/task_images/gems/102.jpg,null,,,,,,,28,,,12,,,,,102,0.276108826,0.274509804,,,,,,,
decision,136,607151,0.0-36.0-5.0,"""event"",""trial"",""time""
""fullscreenenter"",""1"",""6021""
","
","
","""event"",""trial"",""time""
""fullscreenenter"",""1"",""6021""
","
",,207.2,run_exp/static/images/task_images/land.jpg,76,,,,,,,28,,,12,,,,,,,,220591,1,0,TRUE,,,
travel,137,616948,0.0-37.0-0.0,"""event"",""trial"",""time""
""fullscreenenter"",""1"",""6021""
","
","
","""event"",""trial"",""time""
""fullscreenenter"",""1"",""6021""
","
",,,,,,,,,,,,"[{""stimulus"":""run_exp/static/images/task_images/rocket-01.jpg"",""time"":0.20000001788139343},{""stimulus"":""run_exp/static/images/task_images/rocket-02.jpg"",""time"":1091},{""stimulus"":""run_exp/static/images/task_images/rocket-03.jpg"",""time"":2178.0999999940395},{""stimulus"":""run_exp/static/images/task_images/rocket-04.jpg"",""time"":3266.7000000178814},{""stimulus"":""run_exp/static/images/task_images/rocket-05.jpg"",""time"":4353.200000017881},{""stimulus"":""run_exp/static/images/task_images/rocket-06.jpg"",""time"":5441.200000017881},{""stimulus"":""run_exp/static/images/task_images/rocket-07.jpg"",""time"":6530.700000017881},{""stimulus"":""run_exp/static/images/task_images/rocket-08.jpg"",""time"":7618.4000000059605},{""stimulus"":""run_exp/static/images/task_images/rocket-09.jpg"",""time"":8706.5}]",[],12,,,,,,,,,,,,,,
alien_welcome,138,621951,0.0-37.0-1.0,"""event"",""trial"",""time""
""fullscreenenter"",""1"",""6021""
","
","
","""event"",""trial"",""time""
""fullscreenenter"",""1"",""6021""
","
",,null,run_exp/static/images/task_images/aliens/old_aliens/planet/alien_planet-11.jpg,null,,,,,,,,,,,,,11,"51,55,79,42,32,73,41,37,54,19,50,31,11,44,77,26,20,63,38,74,53,6,68,30,45,14,43,61,76,18,66,34,35,21,75,57,27,29,24,52,10,9,67,12,3,65,49,5,2,25",,,,,,,,,,
land,139,622454,0.0-37.0-2.0,"""event"",""trial"",""time""
""fullscreenenter"",""1"",""6021""
","
","
","""event"",""trial"",""time""
""fullscreenenter"",""1"",""6021""
","
",,null,run_exp/static/images/task_images/land.jpg,null,,,,,,,96,,,13,,,,,,,,,,,,,,
dig,140,624457,0.0-37.0-3.0,"""event"",""trial"",""time""
""fullscreenenter"",""1"",""6021""
","
","
","""event"",""trial"",""time""
""fullscreenenter"",""1"",""6021""
","
",,,,,,,,,,,,"[{""stimulus"":""run_exp/static/images/task_images/dig.jpg"",""time"":0.20000001788139343},{""stimulus"":""run_exp/static/images/task_images/land.jpg"",""time"":668.9000000059605},{""stimulus"":""run_exp/static/images/task_images/dig.jpg"",""time"":1336}]",[],13,,,,,,,,,,,,,,
harvest,141,625459,0.0-37.0-4.0,"""event"",""trial"",""time""
""fullscreenenter"",""1"",""6021""
","
","
","""event"",""trial"",""time""
""fullscreenenter"",""1"",""6021""
","
",,null,run_exp/static/images/task_images/gems/96.jpg,null,,,,,,,23,,,13,,,,,96,0.240895448,0.239583333,,,,,,,
decision,142,625804,0.0-37.0-5.0,"""event"",""trial"",""time""
""fullscreenenter"",""1"",""6021""
","
","
","""event"",""trial"",""time""
""fullscreenenter"",""1"",""6021""
","
",,344.1,run_exp/static/images/task_images/land.jpg,76,,,,,,,23,,,13,,,,,,,,239243,1,0,TRUE,,,
travel,143,635456,0.0-38.0-0.0,"""event"",""trial"",""time""
""fullscreenenter"",""1"",""6021""
","
","
","""event"",""trial"",""time""
""fullscreenenter"",""1"",""6021""
","
",,,,,,,,,,,,"[{""stimulus"":""run_exp/static/images/task_images/rocket-01.jpg"",""time"":0.20000001788139343},{""stimulus"":""run_exp/static/images/task_images/rocket-02.jpg"",""time"":1073.800000011921},{""stimulus"":""run_exp/static/images/task_images/rocket-03.jpg"",""time"":2145.4000000059605},{""stimulus"":""run_exp/static/images/task_images/rocket-04.jpg"",""time"":3217.800000011921},{""stimulus"":""run_exp/static/images/task_images/rocket-05.jpg"",""time"":4290.200000017881},{""stimulus"":""run_exp/static/images/task_images/rocket-06.jpg"",""time"":5362},{""stimulus"":""run_exp/static/images/task_images/rocket-07.jpg"",""time"":6433.5999999940395},{""stimulus"":""run_exp/static/images/task_images/rocket-08.jpg"",""time"":7505.200000017881},{""stimulus"":""run_exp/static/images/task_images/rocket-09.jpg"",""time"":8578.700000017881}]",[],13,,,,,,,,,,,,,,
alien_welcome,144,640460,0.0-38.0-1.0,"""event"",""trial"",""time""
""fullscreenenter"",""1"",""6021""
","
","
","""event"",""trial"",""time""
""fullscreenenter"",""1"",""6021""
","
",,null,run_exp/static/images/task_images/aliens/old_aliens/planet/alien_planet-44.jpg,null,,,,,,,,,,,,,44,"51,55,79,42,32,73,41,37,54,19,50,31,11,44,77,26,20,63,38,74,53,6,68,30,45,14,43,61,76,18,66,34,35,21,75,57,27,29,24,52,10,9,67,12,3,65,49,5,2,25",,,,,,,,,,
land,145,640962,0.0-38.0-2.0,"""event"",""trial"",""time""
""fullscreenenter"",""1"",""6021""
","
","
","""event"",""trial"",""time""
""fullscreenenter"",""1"",""6021""
","
",,null,run_exp/static/images/task_images/land.jpg,null,,,,,,,105,,,14,,,,,,,,,,,,,,
dig,146,642966,0.0-38.0-3.0,"""event"",""trial"",""time""
""fullscreenenter"",""1"",""6021""
","
","
","""event"",""trial"",""time""
""fullscreenenter"",""1"",""6021""
","
",,,,,,,,,,,,"[{""stimulus"":""run_exp/static/images/task_images/dig.jpg"",""time"":0.30000001192092896},{""stimulus"":""run_exp/static/images/task_images/land.jpg"",""time"":668.5999999940395},{""stimulus"":""run_exp/static/images/task_images/dig.jpg"",""time"":1335.699999988079}]",[],14,,,,,,,,,,,,,,
harvest,147,643968,0.0-38.0-4.0,"""event"",""trial"",""time""
""fullscreenenter"",""1"",""6021""
","
","
","""event"",""trial"",""time""
""fullscreenenter"",""1"",""6021""
","
",,null,run_exp/static/images/task_images/gems/105.jpg,null,,,,,,,83,,,14,,,,,105,0.792456313,0.79047619,,,,,,,
decision,148,644182,0.0-38.0-5.0,"""event"",""trial"",""time""
""fullscreenenter"",""1"",""6021""
","
","
","""event"",""trial"",""time""
""fullscreenenter"",""1"",""6021""
","
",,212.3,run_exp/static/images/task_images/land.jpg,76,,,,,,,83,,,14,,,,,,,,257621,1,0,TRUE,,,
travel,149,653971,0.0-39.0-0.0,"""event"",""trial"",""time""
""fullscreenenter"",""1"",""6021""
","
","
","""event"",""trial"",""time""
""fullscreenenter"",""1"",""6021""
","
",,,,,,,,,,,,"[{""stimulus"":""run_exp/static/images/task_images/rocket-01.jpg"",""time"":0.30000001192092896},{""stimulus"":""run_exp/static/images/task_images/rocket-02.jpg"",""time"":1088.9000000059605},{""stimulus"":""run_exp/static/images/task_images/rocket-03.jpg"",""time"":2175.9000000059605},{""stimulus"":""run_exp/static/images/task_images/rocket-04.jpg"",""time"":3262.800000011921},{""stimulus"":""run_exp/static/images/task_images/rocket-05.jpg"",""time"":4350.0999999940395},{""stimulus"":""run_exp/static/images/task_images/rocket-06.jpg"",""time"":5438.0999999940395},{""stimulus"":""run_exp/static/images/task_images/rocket-07.jpg"",""time"":6525.9000000059605},{""stimulus"":""run_exp/static/images/task_images/rocket-08.jpg"",""time"":7611.0999999940395},{""stimulus"":""run_exp/static/images/task_images/rocket-09.jpg"",""time"":8698.40000000596}]",[],14,,,,,,,,,,,,,,
alien_welcome,150,658974,0.0-39.0-1.0,"""event"",""trial"",""time""
""fullscreenenter"",""1"",""6021""
","
","
","""event"",""trial"",""time""
""fullscreenenter"",""1"",""6021""
","
",,null,run_exp/static/images/task_images/aliens/old_aliens/planet/alien_planet-77.jpg,null,,,,,,,,,,,,,77,"51,55,79,42,32,73,41,37,54,19,50,31,11,44,77,26,20,63,38,74,53,6,68,30,45,14,43,61,76,18,66,34,35,21,75,57,27,29,24,52,10,9,67,12,3,65,49,5,2,25",,,,,,,,,,
land,151,659476,0.0-39.0-2.0,"""event"",""trial"",""time""
""fullscreenenter"",""1"",""6021""
","
","
","""event"",""trial"",""time""
""fullscreenenter"",""1"",""6021""
","
",,null,run_exp/static/images/task_images/land.jpg,null,,,,,,,102,,,15,,,,,,,,,,,,,,
dig,152,661479,0.0-39.0-3.0,"""event"",""trial"",""time""
""fullscreenenter"",""1"",""6021""
","
","
","""event"",""trial"",""time""
""fullscreenenter"",""1"",""6021""
","
",,,,,,,,,,,,"[{""stimulus"":""run_exp/static/images/task_images/dig.jpg"",""time"":0.3999999761581421},{""stimulus"":""run_exp/static/images/task_images/land.jpg"",""time"":669},{""stimulus"":""run_exp/static/images/task_images/dig.jpg"",""time"":1335.199999988079}]",[],15,,,,,,,,,,,,,,
harvest,153,662481,0.0-39.0-4.0,"""event"",""trial"",""time""
""fullscreenenter"",""1"",""6021""
","
","
","""event"",""trial"",""time""
""fullscreenenter"",""1"",""6021""
","
",,null,run_exp/static/images/task_images/gems/102.jpg,null,,,,,,,95,,,15,,,,,102,0.930527871,0.931372549,,,,,,,
decision,154,664193,0.0-39.0-5.0,"""event"",""trial"",""time""
""fullscreenenter"",""1"",""6021""
","
","
","""event"",""trial"",""time""
""fullscreenenter"",""1"",""6021""
","
",,1710.9,run_exp/static/images/task_images/land.jpg,76,,,,,,,95,,,15,,,,,,,,277632,1,0,TRUE,,,
travel,155,672486,0.0-40.0-0.0,"""event"",""trial"",""time""
""fullscreenenter"",""1"",""6021""
","
","
","""event"",""trial"",""time""
""fullscreenenter"",""1"",""6021""
","
",,,,,,,,,,,,"[{""stimulus"":""run_exp/static/images/task_images/rocket-01.jpg"",""time"":0.29999998211860657},{""stimulus"":""run_exp/static/images/task_images/rocket-02.jpg"",""time"":922.5},{""stimulus"":""run_exp/static/images/task_images/rocket-03.jpg"",""time"":1843.8999999761581},{""stimulus"":""run_exp/static/images/task_images/rocket-04.jpg"",""time"":2764.5},{""stimulus"":""run_exp/static/images/task_images/rocket-05.jpg"",""time"":3685.5},{""stimulus"":""run_exp/static/images/task_images/rocket-06.jpg"",""time"":4607.399999976158},{""stimulus"":""run_exp/static/images/task_images/rocket-07.jpg"",""time"":5527.899999976158},{""stimulus"":""run_exp/static/images/task_images/rocket-08.jpg"",""time"":6449.399999976158},{""stimulus"":""run_exp/static/images/task_images/rocket-09.jpg"",""time"":7370.399999976158}]",[],15,,,,,,,,,,,,,,
alien_welcome,156,677489,0.0-40.0-1.0,"""event"",""trial"",""time""
""fullscreenenter"",""1"",""6021""
","
","
","""event"",""trial"",""time""
""fullscreenenter"",""1"",""6021""
","
",,null,run_exp/static/images/task_images/aliens/old_aliens/planet/alien_planet-26.jpg,null,,,,,,,,,,,,,26,"51,55,79,42,32,73,41,37,54,19,50,31,11,44,77,26,20,63,38,74,53,6,68,30,45,14,43,61,76,18,66,34,35,21,75,57,27,29,24,52,10,9,67,12,3,65,49,5,2,25",,,,,,,,,,
land,157,677991,0.0-40.0-2.0,"""event"",""trial"",""time""
""fullscreenenter"",""1"",""6021""
","
","
","""event"",""trial"",""time""
""fullscreenenter"",""1"",""6021""
","
",,null,run_exp/static/images/task_images/land.jpg,null,,,,,,,108,,,16,,,,,,,,,,,,,,
dig,158,679996,0.0-40.0-3.0,"""event"",""trial"",""time""
""fullscreenenter"",""1"",""6021""
","
","
","""event"",""trial"",""time""
""fullscreenenter"",""1"",""6021""
","
",,,,,,,,,,,,"[{""stimulus"":""run_exp/static/images/task_images/dig.jpg"",""time"":0.30000001192092896},{""stimulus"":""run_exp/static/images/task_images/land.jpg"",""time"":668.6999999880791},{""stimulus"":""run_exp/static/images/task_images/dig.jpg"",""time"":1335.9000000059605}]",[],16,,,,,,,,,,,,,,
harvest,159,680998,0.0-40.0-4.0,"""event"",""trial"",""time""
""fullscreenenter"",""1"",""6021""
","
","
","""event"",""trial"",""time""
""fullscreenenter"",""1"",""6021""
","
",,null,run_exp/static/images/task_images/gems/108.jpg,null,,,,,,,48,,,16,,,,,108,0.441939121,0.444444444,,,,,,,
decision,160,681045,0.0-40.0-5.0,"""event"",""trial"",""time""
""fullscreenenter"",""1"",""6021""
","
","
","""event"",""trial"",""time""
""fullscreenenter"",""1"",""6021""
","
",,45.69999999,run_exp/static/images/task_images/land.jpg,76,,,,,,,48,,,16,,,,,,,,294484,1,0,TRUE,,,
travel,161,691003,0.0-41.0-0.0,"""event"",""trial"",""time""
""fullscreenenter"",""1"",""6021""
","
","
","""event"",""trial"",""time""
""fullscreenenter"",""1"",""6021""
","
",,,,,,,,,,,,"[{""stimulus"":""run_exp/static/images/task_images/rocket-01.jpg"",""time"":0.20000001788139343},{""stimulus"":""run_exp/static/images/task_images/rocket-02.jpg"",""time"":1107.4000000059605},{""stimulus"":""run_exp/static/images/task_images/rocket-03.jpg"",""time"":2214.800000011921},{""stimulus"":""run_exp/static/images/task_images/rocket-04.jpg"",""time"":3319.0999999940395},{""stimulus"":""run_exp/static/images/task_images/rocket-05.jpg"",""time"":4425.5},{""stimulus"":""run_exp/static/images/task_images/rocket-06.jpg"",""time"":5532.0999999940395},{""stimulus"":""run_exp/static/images/task_images/rocket-07.jpg"",""time"":6638.300000011921},{""stimulus"":""run_exp/static/images/task_images/rocket-08.jpg"",""time"":7744.5999999940395},{""stimulus"":""run_exp/static/images/task_images/rocket-09.jpg"",""time"":8849.700000017881}]",[],16,,,,,,,,,,,,,,
alien_welcome,162,696005,0.0-41.0-1.0,"""event"",""trial"",""time""
""fullscreenenter"",""1"",""6021""
","
","
","""event"",""trial"",""time""
""fullscreenenter"",""1"",""6021""
","
",,null,run_exp/static/images/task_images/aliens/old_aliens/planet/alien_planet-20.jpg,null,,,,,,,,,,,,,20,"51,55,79,42,32,73,41,37,54,19,50,31,11,44,77,26,20,63,38,74,53,6,68,30,45,14,43,61,76,18,66,34,35,21,75,57,27,29,24,52,10,9,67,12,3,65,49,5,2,25",,,,,,,,,,
land,163,696507,0.0-41.0-2.0,"""event"",""trial"",""time""
""fullscreenenter"",""1"",""6021""
","
","
","""event"",""trial"",""time""
""fullscreenenter"",""1"",""6021""
","
",,null,run_exp/static/images/task_images/land.jpg,null,,,,,,,96,,,17,,,,,,,,,,,,,,
dig,164,698511,0.0-41.0-3.0,"""event"",""trial"",""time""
""fullscreenenter"",""1"",""6021""
","
","
","""event"",""trial"",""time""
""fullscreenenter"",""1"",""6021""
","
",,,,,,,,,,,,"[{""stimulus"":""run_exp/static/images/task_images/dig.jpg"",""time"":0.30000001192092896},{""stimulus"":""run_exp/static/images/task_images/land.jpg"",""time"":668.8000000119209},{""stimulus"":""run_exp/static/images/task_images/dig.jpg"",""time"":1336.0999999940395}]",[],17,,,,,,,,,,,,,,
harvest,165,699513,0.0-41.0-4.0,"""event"",""trial"",""time""
""fullscreenenter"",""1"",""6021""
","
","
","""event"",""trial"",""time""
""fullscreenenter"",""1"",""6021""
","
",,null,run_exp/static/images/task_images/gems/96.jpg,null,,,,,,,80,,,17,,,,,96,0.837970135,0.833333333,,,,,,,
decision,166,702515,0.0-41.0-5.0,"""event"",""trial"",""time""
""fullscreenenter"",""1"",""6021""
","
","
","""event"",""trial"",""time""
""fullscreenenter"",""1"",""6021""
","
",,null,run_exp/static/images/task_images/land.jpg,null,,,,,,,80,,,17,,,,,,,,315954,1,0,TRUE,,,
end_of_block_continue,167,711451,0.0-42.0-0.0,"""event"",""trial"",""time""
""fullscreenenter"",""1"",""6021""
","
","
","""event"",""trial"",""time""
""fullscreenenter"",""1"",""6021""
","
",,null,run_exp/static/audio/clip_32_block_end.m4a,,,,,,,null,,,,,,,,,,,,,,,,,,
alien_welcome,168,716458,0.0-43.0-0.0,"""event"",""trial"",""time""
""fullscreenenter"",""1"",""6021""
","
","
","""event"",""trial"",""time""
""fullscreenenter"",""1"",""6021""
","
",,null,run_exp/static/images/task_images/aliens/old_aliens/planet/alien_planet-63.jpg,null,,,,,,,,,,,,,63,"51,55,79,42,32,73,41,37,54,19,50,31,11,44,77,26,20,63,38,74,53,6,68,30,45,14,43,61,76,18,66,34,35,21,75,57,27,29,24,52,10,9,67,12,3,65,49,5,2,25",,,,,,,,,,
land,169,716960,0.0-43.0-1.0,"""event"",""trial"",""time""
""fullscreenenter"",""1"",""6021""
","
","
","""event"",""trial"",""time""
""fullscreenenter"",""1"",""6021""
","
",,null,run_exp/static/images/task_images/land.jpg,null,,,,,,,107,,,18,,,,,,,,,,,,,,
dig,170,718964,0.0-43.0-2.0,"""event"",""trial"",""time""
""fullscreenenter"",""1"",""6021""
","
","
","""event"",""trial"",""time""
""fullscreenenter"",""1"",""6021""
","
",,,,,,,,,,,,"[{""stimulus"":""run_exp/static/images/task_images/dig.jpg"",""time"":0.29999998211860657},{""stimulus"":""run_exp/static/images/task_images/land.jpg"",""time"":668.6999999880791},{""stimulus"":""run_exp/static/images/task_images/dig.jpg"",""time"":1335.8999999761581}]",[],18,,,,,,,,,,,,,,
harvest,171,719966,0.0-43.0-3.0,"""event"",""trial"",""time""
""fullscreenenter"",""1"",""6021""
","
","
","""event"",""trial"",""time""
""fullscreenenter"",""1"",""6021""
","
",,null,run_exp/static/images/task_images/gems/107.jpg,null,,,,,,,25,,,18,,,,,107,0.2330522,0.23364486,,,,,,,
decision,172,722820,0.0-43.0-4.0,"""event"",""trial"",""time""
""fullscreenenter"",""1"",""6021""
","
","
","""event"",""trial"",""time""
""fullscreenenter"",""1"",""6021""
","
",,2852.2,run_exp/static/images/task_images/land.jpg,65,,,,,,,25,,,18,,,,,,,,11365,2,0,FALSE,,,
dig,173,722972,0.0-44.0-0.0,"""event"",""trial"",""time""
""fullscreenenter"",""1"",""6021""
","
","
","""event"",""trial"",""time""
""fullscreenenter"",""1"",""6021""
","
",,,,,,,,,,,,"[{""stimulus"":""run_exp/static/images/task_images/dig.jpg"",""time"":0.19999998807907104},{""stimulus"":""run_exp/static/images/task_images/land.jpg"",""time"":50.69999998807907},{""stimulus"":""run_exp/static/images/task_images/dig.jpg"",""time"":100.09999999403954}]",[],18,,,,,,,,,,,,,,
harvest,174,723975,0.0-44.0-1.0,"""event"",""trial"",""time""
""fullscreenenter"",""1"",""6021""
","
","
","""event"",""trial"",""time""
""fullscreenenter"",""1"",""6021""
","
",,null,run_exp/static/images/task_images/gems/25.jpg,null,,,,,,,9,,,18,,,,,25,0.3749604,0.36,,,,,,,
decision,175,725325,0.0-44.0-2.0,"""event"",""trial"",""time""
""fullscreenenter"",""1"",""6021""
","
","
","""event"",""trial"",""time""
""fullscreenenter"",""1"",""6021""
","
",,1348.3,run_exp/static/images/task_images/land.jpg,76,,,,,,,9,,,18,,,,,,,,13870,2,1,TRUE,,,
travel,176,733977,0.0-45.0-0.0,"""event"",""trial"",""time""
""fullscreenenter"",""1"",""6021""
","
","
","""event"",""trial"",""time""
""fullscreenenter"",""1"",""6021""
","
",,,,,,,,,,,,"[{""stimulus"":""run_exp/static/images/task_images/rocket-01.jpg"",""time"":0.10000002384185791},{""stimulus"":""run_exp/static/images/task_images/rocket-02.jpg"",""time"":962.7000000178814},{""stimulus"":""run_exp/static/images/task_images/rocket-03.jpg"",""time"":1923.800000011921},{""stimulus"":""run_exp/static/images/task_images/rocket-04.jpg"",""time"":2884.800000011921},{""stimulus"":""run_exp/static/images/task_images/rocket-05.jpg"",""time"":3846.2000000178814},{""stimulus"":""run_exp/static/images/task_images/rocket-06.jpg"",""time"":4805.9000000059605},{""stimulus"":""run_exp/static/images/task_images/rocket-07.jpg"",""time"":5766.800000011921},{""stimulus"":""run_exp/static/images/task_images/rocket-08.jpg"",""time"":6728.800000011921},{""stimulus"":""run_exp/static/images/task_images/rocket-09.jpg"",""time"":7689.600000023842}]",[],18,,,,,,,,,,,,,,
alien_welcome,177,738980,0.0-45.0-1.0,"""event"",""trial"",""time""
""fullscreenenter"",""1"",""6021""
","
","
","""event"",""trial"",""time""
""fullscreenenter"",""1"",""6021""
","
",,null,run_exp/static/images/task_images/aliens/old_aliens/planet/alien_planet-38.jpg,null,,,,,,,,,,,,,38,"51,55,79,42,32,73,41,37,54,19,50,31,11,44,77,26,20,63,38,74,53,6,68,30,45,14,43,61,76,18,66,34,35,21,75,57,27,29,24,52,10,9,67,12,3,65,49,5,2,25",,,,,,,,,,
land,178,739482,0.0-45.0-2.0,"""event"",""trial"",""time""
""fullscreenenter"",""1"",""6021""
","
","
","""event"",""trial"",""time""
""fullscreenenter"",""1"",""6021""
","
",,null,run_exp/static/images/task_images/land.jpg,null,,,,,,,106,,,19,,,,,,,,,,,,,,
dig,179,741486,0.0-45.0-3.0,"""event"",""trial"",""time""
""fullscreenenter"",""1"",""6021""
","
","
","""event"",""trial"",""time""
""fullscreenenter"",""1"",""6021""
","
",,,,,,,,,,,,"[{""stimulus"":""run_exp/static/images/task_images/dig.jpg"",""time"":0.30000001192092896},{""stimulus"":""run_exp/static/images/task_images/land.jpg"",""time"":669.2000000178814},{""stimulus"":""run_exp/static/images/task_images/dig.jpg"",""time"":1335.7000000178814}]",[],19,,,,,,,,,,,,,,
harvest,180,742488,0.0-45.0-4.0,"""event"",""trial"",""time""
""fullscreenenter"",""1"",""6021""
","
","
","""event"",""trial"",""time""
""fullscreenenter"",""1"",""6021""
","
",,null,run_exp/static/images/task_images/gems/106.jpg,null,,,,,,,30,,,19,,,,,106,0.285704474,0.283018868,,,,,,,
decision,181,742921,0.0-45.0-5.0,"""event"",""trial"",""time""
""fullscreenenter"",""1"",""6021""
","
","
","""event"",""trial"",""time""
""fullscreenenter"",""1"",""6021""
","
",,432.1,run_exp/static/images/task_images/land.jpg,76,,,,,,,30,,,19,,,,,,,,31467,2,0,TRUE,,,
travel,182,752493,0.0-46.0-0.0,"""event"",""trial"",""time""
""fullscreenenter"",""1"",""6021""
","
","
","""event"",""trial"",""time""
""fullscreenenter"",""1"",""6021""
","
",,,,,,,,,,,,"[{""stimulus"":""run_exp/static/images/task_images/rocket-01.jpg"",""time"":0.19999998807907104},{""stimulus"":""run_exp/static/images/task_images/rocket-02.jpg"",""time"":1064.5},{""stimulus"":""run_exp/static/images/task_images/rocket-03.jpg"",""time"":2128.2999999821186},{""stimulus"":""run_exp/static/images/task_images/rocket-04.jpg"",""time"":3191.199999988079},{""stimulus"":""run_exp/static/images/task_images/rocket-05.jpg"",""time"":4253.199999988079},{""stimulus"":""run_exp/static/images/task_images/rocket-06.jpg"",""time"":5316.5},{""stimulus"":""run_exp/static/images/task_images/rocket-07.jpg"",""time"":6379.699999988079},{""stimulus"":""run_exp/static/images/task_images/rocket-08.jpg"",""time"":7442.4000000059605},{""stimulus"":""run_exp/static/images/task_images/rocket-09.jpg"",""time"":8506.199999988079}]",[],19,,,,,,,,,,,,,,
alien_welcome,183,757509,0.0-46.0-1.0,"""event"",""trial"",""time""
""fullscreenenter"",""1"",""6021""
","
","
","""event"",""trial"",""time""
""fullscreenenter"",""1"",""6021""
","
",,null,run_exp/static/images/task_images/aliens/old_aliens/planet/alien_planet-74.jpg,null,,,,,,,,,,,,,74,"51,55,79,42,32,73,41,37,54,19,50,31,11,44,77,26,20,63,38,74,53,6,68,30,45,14,43,61,76,18,66,34,35,21,75,57,27,29,24,52,10,9,67,12,3,65,49,5,2,25",,,,,,,,,,
land,184,758012,0.0-46.0-2.0,"""event"",""trial"",""time""
""fullscreenenter"",""1"",""6021""
","
","
","""event"",""trial"",""time""
""fullscreenenter"",""1"",""6021""
","
",,null,run_exp/static/images/task_images/land.jpg,null,,,,,,,108,,,20,,,,,,,,,,,,,,
dig,185,760016,0.0-46.0-3.0,"""event"",""trial"",""time""
""fullscreenenter"",""1"",""6021""
","
","
","""event"",""trial"",""time""
""fullscreenenter"",""1"",""6021""
","
",,,,,,,,,,,,"[{""stimulus"":""run_exp/static/images/task_images/dig.jpg"",""time"":0.30000001192092896},{""stimulus"":""run_exp/static/images/task_images/land.jpg"",""time"":668.9000000059605},{""stimulus"":""run_exp/static/images/task_images/dig.jpg"",""time"":1335.4000000059605}]",[],20,,,,,,,,,,,,,,
harvest,186,761017,0.0-46.0-4.0,"""event"",""trial"",""time""
""fullscreenenter"",""1"",""6021""
","
","
","""event"",""trial"",""time""
""fullscreenenter"",""1"",""6021""
","
",,null,run_exp/static/images/task_images/gems/108.jpg,null,,,,,,,24,,,20,,,,,108,0.224085526,0.222222222,,,,,,,
decision,187,763121,0.0-46.0-5.0,"""event"",""trial"",""time""
""fullscreenenter"",""1"",""6021""
","
","
","""event"",""trial"",""time""
""fullscreenenter"",""1"",""6021""
","
",,2103.2,run_exp/static/images/task_images/land.jpg,65,,,,,,,24,,,20,,,,,,,,51667,2,0,FALSE,,,
dig,188,764020,0.0-47.0-0.0,"""event"",""trial"",""time""
""fullscreenenter"",""1"",""6021""
","
","
","""event"",""trial"",""time""
""fullscreenenter"",""1"",""6021""
","
",,,,,,,,,,,,"[{""stimulus"":""run_exp/static/images/task_images/dig.jpg"",""time"":0.30000001192092896},{""stimulus"":""run_exp/static/images/task_images/land.jpg"",""time"":299.80000001192093},{""stimulus"":""run_exp/static/images/task_images/dig.jpg"",""time"":597.7000000178814}]",[],20,,,,,,,,,,,,,,
harvest,189,765022,0.0-47.0-1.0,"""event"",""trial"",""time""
""fullscreenenter"",""1"",""6021""
","
","
","""event"",""trial"",""time""
""fullscreenenter"",""1"",""6021""
","
",,null,run_exp/static/images/task_images/gems/24.jpg,null,,,,,,,6,,,20,,,,,24,0.235346034,0.25,,,,,,,
decision,190,766483,0.0-47.0-2.0,"""event"",""trial"",""time""
""fullscreenenter"",""1"",""6021""
","
","
","""event"",""trial"",""time""
""fullscreenenter"",""1"",""6021""
","
",,1459.8,run_exp/static/images/task_images/land.jpg,76,,,,,,,6,,,20,,,,,,,,55028,2,1,TRUE,,,
travel,191,775020,0.0-48.0-0.0,"""event"",""trial"",""time""
""fullscreenenter"",""1"",""6021""
","
","
","""event"",""trial"",""time""
""fullscreenenter"",""1"",""6021""
","
",,,,,,,,,,,,"[{""stimulus"":""run_exp/static/images/task_images/rocket-01.jpg"",""time"":0.19999998807907104},{""stimulus"":""run_exp/static/images/task_images/rocket-02.jpg"",""time"":949.6999999880791},{""stimulus"":""run_exp/static/images/task_images/rocket-03.jpg"",""time"":1897.7999999821186},{""stimulus"":""run_exp/static/images/task_images/rocket-04.jpg"",""time"":2846.0999999940395},{""stimulus"":""run_exp/static/images/task_images/rocket-05.jpg"",""time"":3803.0999999940395},{""stimulus"":""run_exp/static/images/task_images/rocket-06.jpg"",""time"":4742.199999988079},{""stimulus"":""run_exp/static/images/task_images/rocket-07.jpg"",""time"":5689.799999982119},{""stimulus"":""run_exp/static/images/task_images/rocket-08.jpg"",""time"":6637.799999982119},{""stimulus"":""run_exp/static/images/task_images/rocket-09.jpg"",""time"":7586}]",[],20,,,,,,,,,,,,,,
alien_welcome,192,780023,0.0-48.0-1.0,"""event"",""trial"",""time""
""fullscreenenter"",""1"",""6021""
","
","
","""event"",""trial"",""time""
""fullscreenenter"",""1"",""6021""
","
",,null,run_exp/static/images/task_images/aliens/old_aliens/planet/alien_planet-53.jpg,null,,,,,,,,,,,,,53,"51,55,79,42,32,73,41,37,54,19,50,31,11,44,77,26,20,63,38,74,53,6,68,30,45,14,43,61,76,18,66,34,35,21,75,57,27,29,24,52,10,9,67,12,3,65,49,5,2,25",,,,,,,,,,
land,193,780526,0.0-48.0-2.0,"""event"",""trial"",""time""
""fullscreenenter"",""1"",""6021""
","
","
","""event"",""trial"",""time""
""fullscreenenter"",""1"",""6021""
","
",,null,run_exp/static/images/task_images/land.jpg,null,,,,,,,97,,,21,,,,,,,,,,,,,,
dig,194,782530,0.0-48.0-3.0,"""event"",""trial"",""time""
""fullscreenenter"",""1"",""6021""
","
","
","""event"",""trial"",""time""
""fullscreenenter"",""1"",""6021""
","
",,,,,,,,,,,,"[{""stimulus"":""run_exp/static/images/task_images/dig.jpg"",""time"":0.30000001192092896},{""stimulus"":""run_exp/static/images/task_images/land.jpg"",""time"":669.5},{""stimulus"":""run_exp/static/images/task_images/dig.jpg"",""time"":1336.1000000238419}]",[],21,,,,,,,,,,,,,,
harvest,195,783533,0.0-48.0-4.0,"""event"",""trial"",""time""
""fullscreenenter"",""1"",""6021""
","
","
","""event"",""trial"",""time""
""fullscreenenter"",""1"",""6021""
","
",,null,run_exp/static/images/task_images/gems/97.jpg,null,,,,,,,77,,,21,,,,,97,0.788689694,0.793814433,,,,,,,
decision,196,784846,0.0-48.0-5.0,"""event"",""trial"",""time""
""fullscreenenter"",""1"",""6021""
","
","
","""event"",""trial"",""time""
""fullscreenenter"",""1"",""6021""
","
",,1311.7,run_exp/static/images/task_images/land.jpg,65,,,,,,,77,,,21,,,,,,,,73391,2,0,FALSE,,,
dig,197,786536,0.0-49.0-0.0,"""event"",""trial"",""time""
""fullscreenenter"",""1"",""6021""
","
","
","""event"",""trial"",""time""
""fullscreenenter"",""1"",""6021""
","
",,,,,,,,,,,,"[{""stimulus"":""run_exp/static/images/task_images/dig.jpg"",""time"":0.20000001788139343},{""stimulus"":""run_exp/static/images/task_images/land.jpg"",""time"":563.9000000059605},{""stimulus"":""run_exp/static/images/task_images/dig.jpg"",""time"":1126.6000000238419}]",[],21,,,,,,,,,,,,,,
harvest,198,787538,0.0-49.0-1.0,"""event"",""trial"",""time""
""fullscreenenter"",""1"",""6021""
","
","
","""event"",""trial"",""time""
""fullscreenenter"",""1"",""6021""
","
",,null,run_exp/static/images/task_images/gems/77.jpg,null,,,,,,,66,,,21,,,,,77,0.853602713,0.857142857,,,,,,,
decision,199,788834,0.0-49.0-2.0,"""event"",""trial"",""time""
""fullscreenenter"",""1"",""6021""
","
","
","""event"",""trial"",""time""
""fullscreenenter"",""1"",""6021""
","
",,1294.9,run_exp/static/images/task_images/land.jpg,76,,,,,,,66,,,21,,,,,,,,77379,2,1,TRUE,,,
travel,200,797540,0.0-50.0-0.0,"""event"",""trial"",""time""
""fullscreenenter"",""1"",""6021""
","
","
","""event"",""trial"",""time""
""fullscreenenter"",""1"",""6021""
","
",,,,,,,,,,,,"[{""stimulus"":""run_exp/static/images/task_images/rocket-01.jpg"",""time"":0.09999999403953552},{""stimulus"":""run_exp/static/images/task_images/rocket-02.jpg"",""time"":968.9000000059605},{""stimulus"":""run_exp/static/images/task_images/rocket-03.jpg"",""time"":1935},{""stimulus"":""run_exp/static/images/task_images/rocket-04.jpg"",""time"":2902.4000000059605},{""stimulus"":""run_exp/static/images/task_images/rocket-05.jpg"",""time"":3869.4000000059605},{""stimulus"":""run_exp/static/images/task_images/rocket-06.jpg"",""time"":4835.700000017881},{""stimulus"":""run_exp/static/images/task_images/rocket-07.jpg"",""time"":5803.700000017881},{""stimulus"":""run_exp/static/images/task_images/rocket-08.jpg"",""time"":6770},{""stimulus"":""run_exp/static/images/task_images/rocket-09.jpg"",""time"":7737.700000017881}]",[],21,,,,,,,,,,,,,,
alien_welcome,201,802543,0.0-50.0-1.0,"""event"",""trial"",""time""
""fullscreenenter"",""1"",""6021""
","
","
","""event"",""trial"",""time""
""fullscreenenter"",""1"",""6021""
","
",,null,run_exp/static/images/task_images/aliens/old_aliens/planet/alien_planet-6.jpg,null,,,,,,,,,,,,,6,"51,55,79,42,32,73,41,37,54,19,50,31,11,44,77,26,20,63,38,74,53,6,68,30,45,14,43,61,76,18,66,34,35,21,75,57,27,29,24,52,10,9,67,12,3,65,49,5,2,25",,,,,,,,,,
land,202,803046,0.0-50.0-2.0,"""event"",""trial"",""time""
""fullscreenenter"",""1"",""6021""
","
","
","""event"",""trial"",""time""
""fullscreenenter"",""1"",""6021""
","
",,null,run_exp/static/images/task_images/land.jpg,null,,,,,,,106,,,22,,,,,,,,,,,,,,
dig,203,805050,0.0-50.0-3.0,"""event"",""trial"",""time""
""fullscreenenter"",""1"",""6021""
","
","
","""event"",""trial"",""time""
""fullscreenenter"",""1"",""6021""
","
",,,,,,,,,,,,"[{""stimulus"":""run_exp/static/images/task_images/dig.jpg"",""time"":0.4000000059604645},{""stimulus"":""run_exp/static/images/task_images/land.jpg"",""time"":680.2000000178814},{""stimulus"":""run_exp/static/images/task_images/dig.jpg"",""time"":1336.300000011921}]",[],22,,,,,,,,,,,,,,
harvest,204,806052,0.0-50.0-4.0,"""event"",""trial"",""time""
""fullscreenenter"",""1"",""6021""
","
","
","""event"",""trial"",""time""
""fullscreenenter"",""1"",""6021""
","
",,null,run_exp/static/images/task_images/gems/106.jpg,null,,,,,,,90,,,22,,,,,106,0.84580533,0.849056604,,,,,,,
decision,205,806330,0.0-50.0-5.0,"""event"",""trial"",""time""
""fullscreenenter"",""1"",""6021""
","
","
","""event"",""trial"",""time""
""fullscreenenter"",""1"",""6021""
","
",,276,run_exp/static/images/task_images/land.jpg,65,,,,,,,90,,,22,,,,,,,,94875,2,0,FALSE,,,
dig,206,809059,0.0-51.0-0.0,"""event"",""trial"",""time""
""fullscreenenter"",""1"",""6021""
","
","
","""event"",""trial"",""time""
""fullscreenenter"",""1"",""6021""
","
",,,,,,,,,,,,"[{""stimulus"":""run_exp/static/images/task_images/dig.jpg"",""time"":0.29999998211860657},{""stimulus"":""run_exp/static/images/task_images/land.jpg"",""time"":910},{""stimulus"":""run_exp/static/images/task_images/dig.jpg"",""time"":1817.699999988079}]",[],22,,,,,,,,,,,,,,
harvest,207,810062,0.0-51.0-1.0,"""event"",""trial"",""time""
""fullscreenenter"",""1"",""6021""
","
","
","""event"",""trial"",""time""
""fullscreenenter"",""1"",""6021""
","
",,null,run_exp/static/images/task_images/gems/90.jpg,null,,,,,,,72,,,22,,,,,90,0.80195217,0.8,,,,,,,
decision,208,810124,0.0-51.0-2.0,"""event"",""trial"",""time""
""fullscreenenter"",""1"",""6021""
","
","
","""event"",""trial"",""time""
""fullscreenenter"",""1"",""6021""
","
",,60,run_exp/static/images/task_images/land.jpg,76,,,,,,,72,,,22,,,,,,,,98669,2,1,TRUE,,,
travel,209,820065,0.0-52.0-0.0,"""event"",""trial"",""time""
""fullscreenenter"",""1"",""6021""
","
","
","""event"",""trial"",""time""
""fullscreenenter"",""1"",""6021""
","
",,,,,,,,,,,,"[{""stimulus"":""run_exp/static/images/task_images/rocket-01.jpg"",""time"":0.30000001192092896},{""stimulus"":""run_exp/static/images/task_images/rocket-02.jpg"",""time"":1105.5},{""stimulus"":""run_exp/static/images/task_images/rocket-03.jpg"",""time"":2209.800000011921},{""stimulus"":""run_exp/static/images/task_images/rocket-04.jpg"",""time"":3314.300000011921},{""stimulus"":""run_exp/static/images/task_images/rocket-05.jpg"",""time"":4418.300000011921},{""stimulus"":""run_exp/static/images/task_images/rocket-06.jpg"",""time"":5522.800000011921},{""stimulus"":""run_exp/static/images/task_images/rocket-07.jpg"",""time"":6625.200000017881},{""stimulus"":""run_exp/static/images/task_images/rocket-08.jpg"",""time"":7729.300000011921},{""stimulus"":""run_exp/static/images/task_images/rocket-09.jpg"",""time"":8834}]",[],22,,,,,,,,,,,,,,
alien_welcome,210,825067,0.0-52.0-1.0,"""event"",""trial"",""time""
""fullscreenenter"",""1"",""6021""
","
","
","""event"",""trial"",""time""
""fullscreenenter"",""1"",""6021""
","
",,null,run_exp/static/images/task_images/aliens/old_aliens/planet/alien_planet-68.jpg,null,,,,,,,,,,,,,68,"51,55,79,42,32,73,41,37,54,19,50,31,11,44,77,26,20,63,38,74,53,6,68,30,45,14,43,61,76,18,66,34,35,21,75,57,27,29,24,52,10,9,67,12,3,65,49,5,2,25",,,,,,,,,,
land,211,825570,0.0-52.0-2.0,"""event"",""trial"",""time""
""fullscreenenter"",""1"",""6021""
","
","
","""event"",""trial"",""time""
""fullscreenenter"",""1"",""6021""
","
",,null,run_exp/static/images/task_images/land.jpg,null,,,,,,,105,,,23,,,,,,,,,,,,,,
dig,212,827574,0.0-52.0-3.0,"""event"",""trial"",""time""
""fullscreenenter"",""1"",""6021""
","
","
","""event"",""trial"",""time""
""fullscreenenter"",""1"",""6021""
","
",,,,,,,,,,,,"[{""stimulus"":""run_exp/static/images/task_images/dig.jpg"",""time"":0.30000001192092896},{""stimulus"":""run_exp/static/images/task_images/land.jpg"",""time"":669},{""stimulus"":""run_exp/static/images/task_images/dig.jpg"",""time"":1336}]",[],23,,,,,,,,,,,,,,
harvest,213,828576,0.0-52.0-4.0,"""event"",""trial"",""time""
""fullscreenenter"",""1"",""6021""
","
","
","""event"",""trial"",""time""
""fullscreenenter"",""1"",""6021""
","
",,null,run_exp/static/images/task_images/gems/105.jpg,null,,,,,,,89,,,23,,,,,105,0.843719154,0.847619048,,,,,,,
decision,214,831577,0.0-52.0-5.0,"""event"",""trial"",""time""
""fullscreenenter"",""1"",""6021""
","
","
","""event"",""trial"",""time""
""fullscreenenter"",""1"",""6021""
","
",,null,run_exp/static/images/task_images/land.jpg,null,,,,,,,89,,,23,,,,,,,,120122,2,0,FALSE,,,
time_out,215,833581,0.0-53.0-0.0,"""event"",""trial"",""time""
""fullscreenenter"",""1"",""6021""
","
","
","""event"",""trial"",""time""
""fullscreenenter"",""1"",""6021""
","
",,null,run_exp/static/images/task_images/time_out.jpg,null,,,,,,,89,,,,,,,,,,,,,,,,,
decision,216,835129,0.0-53.0-1.0,"""event"",""trial"",""time""
""fullscreenenter"",""1"",""6021""
","
","
","""event"",""trial"",""time""
""fullscreenenter"",""1"",""6021""
","
",,1546,run_exp/static/images/task_images/land.jpg,65,,,,,,,89,,,23,,,,,,,,123674,2,0,FALSE,,,
dig,217,836588,0.0-54.0-0.0,"""event"",""trial"",""time""
""fullscreenenter"",""1"",""6021""
","
","
","""event"",""trial"",""time""
""fullscreenenter"",""1"",""6021""
","
",,,,,,,,,,,,"[{""stimulus"":""run_exp/static/images/task_images/dig.jpg"",""time"":0.20000001788139343},{""stimulus"":""run_exp/static/images/task_images/land.jpg"",""time"":485.30000001192093},{""stimulus"":""run_exp/static/images/task_images/dig.jpg"",""time"":970.4000000059605}]",[],23,,,,,,,,,,,,,,
harvest,218,837590,0.0-54.0-1.0,"""event"",""trial"",""time""
""fullscreenenter"",""1"",""6021""
","
","
","""event"",""trial"",""time""
""fullscreenenter"",""1"",""6021""
","
",,null,run_exp/static/images/task_images/gems/89.jpg,null,,,,,,,75,,,23,,,,,89,0.842455197,0.842696629,,,,,,,
decision,219,837804,0.0-54.0-2.0,"""event"",""trial"",""time""
""fullscreenenter"",""1"",""6021""
","
","
","""event"",""trial"",""time""
""fullscreenenter"",""1"",""6021""
","
",,212.2,run_exp/static/images/task_images/land.jpg,76,,,,,,,75,,,23,,,,,,,,126349,2,1,TRUE,,,
travel,220,847592,0.0-55.0-0.0,"""event"",""trial"",""time""
""fullscreenenter"",""1"",""6021""
","
","
","""event"",""trial"",""time""
""fullscreenenter"",""1"",""6021""
","
",,,,,,,,,,,,"[{""stimulus"":""run_exp/static/images/task_images/rocket-01.jpg"",""time"":0.19999998807907104},{""stimulus"":""run_exp/static/images/task_images/rocket-02.jpg"",""time"":1088.2999999821186},{""stimulus"":""run_exp/static/images/task_images/rocket-03.jpg"",""time"":2175},{""stimulus"":""run_exp/static/images/task_images/rocket-04.jpg"",""time"":3262.5},{""stimulus"":""run_exp/static/images/task_images/rocket-05.jpg"",""time"":4348.799999982119},{""stimulus"":""run_exp/static/images/task_images/rocket-06.jpg"",""time"":5436.9000000059605},{""stimulus"":""run_exp/static/images/task_images/rocket-07.jpg"",""time"":6523.699999988079},{""stimulus"":""run_exp/static/images/task_images/rocket-08.jpg"",""time"":7610.4000000059605},{""stimulus"":""run_exp/static/images/task_images/rocket-09.jpg"",""time"":8698.199999988079}]",[],23,,,,,,,,,,,,,,
alien_welcome,221,852595,0.0-55.0-1.0,"""event"",""trial"",""time""
""fullscreenenter"",""1"",""6021""
","
","
