trial_type,trial_index,time_elapsed,internal_node_id,interactions,blur_events,focus_events,fullscreenenter_events,fullscreenexit_events,success,rt,stimulus,key_press,prompt,subject_id,participant_id,age,gender,button_pressed,next_reward,animation_sequence,responses,planet,curr_prac_trial,n_prac_rounds,alien,aliens,reward_received,decay_rate_actual,decay_rate_exp,time_in_block,block_num,prt,last_trial_on_planet,button_html,bonus,num_failures
pavlovia,0,9,0.0-0.0,"""event"",""trial"",""time""
""focus"",""0"",""0""
""blur"",""0"",""0""
""focus"",""0"",""0""
""blur"",""0"",""0""
""focus"",""0"",""0""
""fullscreenenter"",""1"",""2264""
","""event"",""trial"",""time""
""blur"",""0"",""0""
""blur"",""0"",""0""
","""event"",""trial"",""time""
""focus"",""0"",""0""
""focus"",""0"",""0""
""focus"",""0"",""0""
","""event"",""trial"",""time""
""fullscreenenter"",""1"",""2264""
","
",,,,,,,,,,,,,,,,,,,,,,,,,,,,
fullscreen,1,3251,0.0-1.0,"""event"",""trial"",""time""
""focus"",""0"",""0""
""blur"",""0"",""0""
""focus"",""0"",""0""
""blur"",""0"",""0""
""focus"",""0"",""0""
""fullscreenenter"",""1"",""2264""
""blur"",""2"",""5645""
""focus"",""2"",""11938""
","""event"",""trial"",""time""
""blur"",""0"",""0""
""blur"",""0"",""0""
""blur"",""2"",""5645""
","""event"",""trial"",""time""
""focus"",""0"",""0""
""focus"",""0"",""0""
""focus"",""0"",""0""
""focus"",""2"",""11938""
","""event"",""trial"",""time""
""fullscreenenter"",""1"",""2264""
","
",TRUE,,,,,,,,,,,,,,,,,,,,,,,,,,,
instruc_welcome,2,13064,0.0-2.0,"""event"",""trial"",""time""
""focus"",""0"",""0""
""blur"",""0"",""0""
""focus"",""0"",""0""
""blur"",""0"",""0""
""focus"",""0"",""0""
""fullscreenenter"",""1"",""2264""
""blur"",""2"",""5645""
""focus"",""2"",""11938""
","""event"",""trial"",""time""
""blur"",""0"",""0""
""blur"",""0"",""0""
""blur"",""2"",""5645""
","""event"",""trial"",""time""
""focus"",""0"",""0""
""focus"",""0"",""0""
""focus"",""0"",""0""
""focus"",""2"",""11938""
","""event"",""trial"",""time""
""fullscreenenter"",""1"",""2264""
","
",,null,run_exp/static/audio/clip_1_welcome.m4a,null,"<p>Howdy! In this experiment, you’ll be an explorer traveling through space to collect space treasure.</p><p>Your mission is to collect as much treasure as possible.</p><br><br><p><img src='run_exp/static/images/task_images/opening_img-01.jpg' height='300' width='auto'></p>",9207,592,24.33,Male,,,,,,,,,,,,,,,,,,,
audio-keyboard-response,3,29727,0.0-3.0,"""event"",""trial"",""time""
""focus"",""0"",""0""
""blur"",""0"",""0""
""focus"",""0"",""0""
""blur"",""0"",""0""
""focus"",""0"",""0""
""fullscreenenter"",""1"",""2264""
""blur"",""2"",""5645""
""focus"",""2"",""11938""
","""event"",""trial"",""time""
""blur"",""0"",""0""
""blur"",""0"",""0""
""blur"",""2"",""5645""
","""event"",""trial"",""time""
""focus"",""0"",""0""
""focus"",""0"",""0""
""focus"",""0"",""0""
""focus"",""2"",""11938""
","""event"",""trial"",""time""
""fullscreenenter"",""1"",""2264""
","
",,null,run_exp/static/audio/clip_2_move.m4a,null,,,,,,,,,,,,,,,,,,,,,,,,
welcome_dec,4,30650,0.0-4.0,"""event"",""trial"",""time""
""focus"",""0"",""0""
""blur"",""0"",""0""
""focus"",""0"",""0""
""blur"",""0"",""0""
""focus"",""0"",""0""
""fullscreenenter"",""1"",""2264""
""blur"",""2"",""5645""
""focus"",""2"",""11938""
","""event"",""trial"",""time""
""blur"",""0"",""0""
""blur"",""0"",""0""
""blur"",""2"",""5645""
","""event"",""trial"",""time""
""focus"",""0"",""0""
""focus"",""0"",""0""
""focus"",""0"",""0""
""focus"",""2"",""11938""
","""event"",""trial"",""time""
""fullscreenenter"",""1"",""2264""
","
",,913,"<p>Howdy! In this experiment, you’ll be an explorer traveling through space to collect space treasure.</p><p>Your mission is to collect as much treasure as possible.</p><br><br><p><img src='run_exp/static/images/task_images/opening_img-01.jpg' height='300' width='auto'></p>",,,,,,,1,,,,,,,,,,,,,,,,,,
html-keyboard-response,5,31951,0.0-5.0,"""event"",""trial"",""time""
""focus"",""0"",""0""
""blur"",""0"",""0""
""focus"",""0"",""0""
""blur"",""0"",""0""
""focus"",""0"",""0""
""fullscreenenter"",""1"",""2264""
""blur"",""2"",""5645""
""focus"",""2"",""11938""
","""event"",""trial"",""time""
""blur"",""0"",""0""
""blur"",""0"",""0""
""blur"",""2"",""5645""
","""event"",""trial"",""time""
""focus"",""0"",""0""
""focus"",""0"",""0""
""focus"",""0"",""0""
""focus"",""2"",""11938""
","""event"",""trial"",""time""
""fullscreenenter"",""1"",""2264""
","
",,1299,"<p>Howdy! In this experiment, you’ll be an explorer traveling through space to collect space treasure.</p><p>Your mission is to collect as much treasure as possible.</p><br><br><p><img src='run_exp/static/images/task_images/opening_img-01.jpg' height='300' width='auto'></p><button class=""jspsych-html-btn-unchosen""><img src=""run_exp/static/images/task_images/planet-01.jpg"" height=""50""></button><button class=""jspsych-html-btn-chosen""><img src=""run_exp/static/images/task_images/planet-02.jpg"" height=""50""></button><p><b>[press the space bar to lock in your answer]<b><br></p>",32,,,,,,,,,,,,,,,,,,,,,,,,
instruc_goal,6,42065,0.0-6.0-0.0,"""event"",""trial"",""time""
""focus"",""0"",""0""
""blur"",""0"",""0""
""focus"",""0"",""0""
""blur"",""0"",""0""
""focus"",""0"",""0""
""fullscreenenter"",""1"",""2264""
""blur"",""2"",""5645""
""focus"",""2"",""11938""
","""event"",""trial"",""time""
""blur"",""0"",""0""
""blur"",""0"",""0""
""blur"",""2"",""5645""
","""event"",""trial"",""time""
""focus"",""0"",""0""
""focus"",""0"",""0""
""focus"",""0"",""0""
""focus"",""2"",""11938""
","""event"",""trial"",""time""
""fullscreenenter"",""1"",""2264""
","
",,null,run_exp/static/audio/clip_3_goal.m4a,null,"<p> As a space explorer, you’ll visit different planets to dig for space treasure, these pink gems.</p> <p> The more treasure you dig up, the more bonus money you’ll win! </p><br><br><p><img src='run_exp/static/images/task_images/pink_gem.jpg' height='300' width='auto'></p>",,,,,,,,,,,,,,,,,,,,,,,
instruc_goal,7,48250,0.0-6.0-1.0,"""event"",""trial"",""time""
""focus"",""0"",""0""
""blur"",""0"",""0""
""focus"",""0"",""0""
""blur"",""0"",""0""
""focus"",""0"",""0""
""fullscreenenter"",""1"",""2264""
""blur"",""2"",""5645""
""focus"",""2"",""11938""
","""event"",""trial"",""time""
""blur"",""0"",""0""
""blur"",""0"",""0""
""blur"",""2"",""5645""
","""event"",""trial"",""time""
""focus"",""0"",""0""
""focus"",""0"",""0""
""focus"",""0"",""0""
""focus"",""2"",""11938""
","""event"",""trial"",""time""
""fullscreenenter"",""1"",""2264""
","
",,6184,"<p> As a space explorer, you’ll visit different planets to dig for space treasure, these pink gems.</p> <p> The more treasure you dig up, the more bonus money you’ll win! </p><br><br><p><img src='run_exp/static/images/task_images/pink_gem.jpg' height='300' width='auto'></p>",,,,,,,1,,,,,,,,,,,,,,,,,,
html-keyboard-response,8,49151,0.0-6.0-2.0,"""event"",""trial"",""time""
""focus"",""0"",""0""
""blur"",""0"",""0""
""focus"",""0"",""0""
""blur"",""0"",""0""
""focus"",""0"",""0""
""fullscreenenter"",""1"",""2264""
""blur"",""2"",""5645""
""focus"",""2"",""11938""
""blur"",""9"",""57663""
""focus"",""9"",""58657""
","""event"",""trial"",""time""
""blur"",""0"",""0""
""blur"",""0"",""0""
""blur"",""2"",""5645""
""blur"",""9"",""57663""
","""event"",""trial"",""time""
""focus"",""0"",""0""
""focus"",""0"",""0""
""focus"",""0"",""0""
""focus"",""2"",""11938""
""focus"",""9"",""58657""
","""event"",""trial"",""time""
""fullscreenenter"",""1"",""2264""
","
",,901,"<p> As a space explorer, you’ll visit different planets to dig for space treasure, these pink gems.</p> <p> The more treasure you dig up, the more bonus money you’ll win! </p><br><br><p><img src='run_exp/static/images/task_images/pink_gem.jpg' height='300' width='auto'></p><button class=""jspsych-html-btn-unchosen""><img src=""run_exp/static/images/task_images/planet-01.jpg"" height=""50""></button><button class=""jspsych-html-btn-chosen""><img src=""run_exp/static/images/task_images/planet-02.jpg"" height=""50""></button><p><b>[press the space bar to lock in your answer]<b><br></p>",32,,,,,,,,,,,,,,,,,,,,,,,,
instruc_dig,9,65218,0.0-7.0-0.0,"""event"",""trial"",""time""
""focus"",""0"",""0""
""blur"",""0"",""0""
""focus"",""0"",""0""
""blur"",""0"",""0""
""focus"",""0"",""0""
""fullscreenenter"",""1"",""2264""
""blur"",""2"",""5645""
""focus"",""2"",""11938""
""blur"",""9"",""57663""
""focus"",""9"",""58657""
","""event"",""trial"",""time""
""blur"",""0"",""0""
""blur"",""0"",""0""
""blur"",""2"",""5645""
""blur"",""9"",""57663""
","""event"",""trial"",""time""
""focus"",""0"",""0""
""focus"",""0"",""0""
""focus"",""0"",""0""
""focus"",""2"",""11938""
""focus"",""9"",""58657""
","""event"",""trial"",""time""
""fullscreenenter"",""1"",""2264""
","
",,null,run_exp/static/audio/clip_4_dig.m4a,null,,,,,,,100,,,,,,,,,,,,,,,,,
instruc_dig_try,10,66784,0.0-7.0-1.0,"""event"",""trial"",""time""
""focus"",""0"",""0""
""blur"",""0"",""0""
""focus"",""0"",""0""
""blur"",""0"",""0""
""focus"",""0"",""0""
""fullscreenenter"",""1"",""2264""
""blur"",""2"",""5645""
""focus"",""2"",""11938""
""blur"",""9"",""57663""
""focus"",""9"",""58657""
","""event"",""trial"",""time""
""blur"",""0"",""0""
""blur"",""0"",""0""
""blur"",""2"",""5645""
""blur"",""9"",""57663""
","""event"",""trial"",""time""
""focus"",""0"",""0""
""focus"",""0"",""0""
""focus"",""0"",""0""
""focus"",""2"",""11938""
""focus"",""9"",""58657""
","""event"",""trial"",""time""
""fullscreenenter"",""1"",""2264""
","
",,1565,"<p> When you’ve arrived at a new planet, you will dig once. </p> <p>Then, you get to decide if you want to stay on the planet and dig again or travel to a new planet and dig there.</p> <p> To stay and dig, press the letter <strong>‘A’</strong> on your keyboard. Try pressing it now! </p><p><img src='run_exp/static/images/task_images/land.jpg'  height='700' width='auto'></p>",65,"<p> When you’ve arrived at a new planet, you will dig once. </p> <p>Then, you get to decide if you want to stay on the planet and dig again or travel to a new planet and dig there.</p> <p> To stay and dig, press the letter <strong>‘A’</strong> on your keyboard. Try pressing it now! </p><p><img src='run_exp/static/images/task_images/land.jpg'  height='700' width='auto'></p>",,,,,,100,,,,,,,,,,,,,,,,,
dig_prac,11,68820,0.0-7.0-2.0,"""event"",""trial"",""time""
""focus"",""0"",""0""
""blur"",""0"",""0""
""focus"",""0"",""0""
""blur"",""0"",""0""
""focus"",""0"",""0""
""fullscreenenter"",""1"",""2264""
""blur"",""2"",""5645""
""focus"",""2"",""11938""
""blur"",""9"",""57663""
""focus"",""9"",""58657""
","""event"",""trial"",""time""
""blur"",""0"",""0""
""blur"",""0"",""0""
""blur"",""2"",""5645""
""blur"",""9"",""57663""
","""event"",""trial"",""time""
""focus"",""0"",""0""
""focus"",""0"",""0""
""focus"",""0"",""0""
""focus"",""2"",""11938""
""focus"",""9"",""58657""
","""event"",""trial"",""time""
""fullscreenenter"",""1"",""2264""
","
",,,,,,,,,,,,"[{""stimulus"":""run_exp/static/images/task_images/dig.jpg"",""time"":0},{""stimulus"":""run_exp/static/images/task_images/land.jpg"",""time"":668},{""stimulus"":""run_exp/static/images/task_images/dig.jpg"",""time"":1341}]",[],,,,,,,,,,,,,,,
instruc_travel,12,105110,0.0-7.0-3.0,"""event"",""trial"",""time""
""focus"",""0"",""0""
""blur"",""0"",""0""
""focus"",""0"",""0""
""blur"",""0"",""0""
""focus"",""0"",""0""
""fullscreenenter"",""1"",""2264""
""blur"",""2"",""5645""
""focus"",""2"",""11938""
""blur"",""9"",""57663""
""focus"",""9"",""58657""
","""event"",""trial"",""time""
""blur"",""0"",""0""
""blur"",""0"",""0""
""blur"",""2"",""5645""
""blur"",""9"",""57663""
","""event"",""trial"",""time""
""focus"",""0"",""0""
""focus"",""0"",""0""
""focus"",""0"",""0""
""focus"",""2"",""11938""
""focus"",""9"",""58657""
","""event"",""trial"",""time""
""fullscreenenter"",""1"",""2264""
","
",,null,run_exp/static/audio/clip_5_travel.m4a,null,"<p>Every time you dig up gems, there are less gems on the planet, so the more you dig on a planet the fewer gems you’ll get with each dig.</p><p>When gems are running low, you may want to travel to a new planet. </p> <p>  Planets are very far apart in this galaxy, so it will take some time to travel between them. </p> <br><p>There are lots and lots of planets for you to visit, so you won’t be able to return to any planets you’ve seen before. </p><br><p>To leave this planet and travel to a new one, press the letter <strong>‘L’</strong> on your keyboard. Try pressing it now! </p><p><img src='run_exp/static/images/task_images/rocket-01.jpg'  height='600' width='auto'></p>",,,,,,,,,,,,,,,,,,,,,,,
instruc_travel_try,13,105853,0.0-7.0-4.0,"""event"",""trial"",""time""
""focus"",""0"",""0""
""blur"",""0"",""0""
""focus"",""0"",""0""
""blur"",""0"",""0""
""focus"",""0"",""0""
""fullscreenenter"",""1"",""2264""
""blur"",""2"",""5645""
""focus"",""2"",""11938""
""blur"",""9"",""57663""
""focus"",""9"",""58657""
","""event"",""trial"",""time""
""blur"",""0"",""0""
""blur"",""0"",""0""
""blur"",""2"",""5645""
""blur"",""9"",""57663""
","""event"",""trial"",""time""
""focus"",""0"",""0""
""focus"",""0"",""0""
""focus"",""0"",""0""
""focus"",""2"",""11938""
""focus"",""9"",""58657""
","""event"",""trial"",""time""
""fullscreenenter"",""1"",""2264""
","
",,743,"<p>Every time you dig up gems, there are less gems on the planet, so the more you dig on a planet the fewer gems you’ll get with each dig.</p><p>When gems are running low, you may want to travel to a new planet. </p> <p>  Planets are very far apart in this galaxy, so it will take some time to travel between them. </p> <br><p>There are lots and lots of planets for you to visit, so you won’t be able to return to any planets you’ve seen before. </p><br><p>To leave this planet and travel to a new one, press the letter <strong>‘L’</strong> on your keyboard. Try pressing it now! </p><p><img src='run_exp/static/images/task_images/rocket-01.jpg'  height='600' width='auto'></p>",76,"<p>Every time you dig up gems, there are less gems on the planet, so the more you dig on a planet the fewer gems you’ll get with each dig.</p><p>When gems are running low, you may want to travel to a new planet. </p> <p>  Planets are very far apart in this galaxy, so it will take some time to travel between them. </p> <br><p>There are lots and lots of planets for you to visit, so you won’t be able to return to any planets you’ve seen before. </p><br><p>To leave this planet and travel to a new one, press the letter <strong>‘L’</strong> on your keyboard. Try pressing it now! </p><p><img src='run_exp/static/images/task_images/rocket-01.jpg'  height='600' width='auto'></p>",,,,,,,,,,,,,,,,,,,,,,,
travel_prac,14,115866,0.0-7.0-5.0,"""event"",""trial"",""time""
""focus"",""0"",""0""
""blur"",""0"",""0""
""focus"",""0"",""0""
""blur"",""0"",""0""
""focus"",""0"",""0""
""fullscreenenter"",""1"",""2264""
""blur"",""2"",""5645""
""focus"",""2"",""11938""
""blur"",""9"",""57663""
""focus"",""9"",""58657""
","""event"",""trial"",""time""
""blur"",""0"",""0""
""blur"",""0"",""0""
""blur"",""2"",""5645""
""blur"",""9"",""57663""
","""event"",""trial"",""time""
""focus"",""0"",""0""
""focus"",""0"",""0""
""focus"",""0"",""0""
""focus"",""2"",""11938""
""focus"",""9"",""58657""
","""event"",""trial"",""time""
""fullscreenenter"",""1"",""2264""
","
",,,,,,,,,,,,"[{""stimulus"":""run_exp/static/images/task_images/rocket-01.jpg"",""time"":0},{""stimulus"":""run_exp/static/images/task_images/rocket-02.jpg"",""time"":1112},{""stimulus"":""run_exp/static/images/task_images/rocket-03.jpg"",""time"":2227},{""stimulus"":""run_exp/static/images/task_images/rocket-04.jpg"",""time"":3337},{""stimulus"":""run_exp/static/images/task_images/rocket-05.jpg"",""time"":4448},{""stimulus"":""run_exp/static/images/task_images/rocket-06.jpg"",""time"":5560},{""stimulus"":""run_exp/static/images/task_images/rocket-07.jpg"",""time"":6672},{""stimulus"":""run_exp/static/images/task_images/rocket-08.jpg"",""time"":7784},{""stimulus"":""run_exp/static/images/task_images/rocket-09.jpg"",""time"":8898}]",[],0,,,,,,,,,,,,,,
instruc_alien_greet,15,143131,0.0-7.0-6.0,"""event"",""trial"",""time""
""focus"",""0"",""0""
""blur"",""0"",""0""
""focus"",""0"",""0""
""blur"",""0"",""0""
""focus"",""0"",""0""
""fullscreenenter"",""1"",""2264""
""blur"",""2"",""5645""
""focus"",""2"",""11938""
""blur"",""9"",""57663""
""focus"",""9"",""58657""
","""event"",""trial"",""time""
""blur"",""0"",""0""
""blur"",""0"",""0""
""blur"",""2"",""5645""
""blur"",""9"",""57663""
","""event"",""trial"",""time""
""focus"",""0"",""0""
""focus"",""0"",""0""
""focus"",""0"",""0""
""focus"",""2"",""11938""
""focus"",""9"",""58657""
","""event"",""trial"",""time""
""fullscreenenter"",""1"",""2264""
","
",,null,run_exp/static/audio/clip_6_alien.m4a,null,"<p>When you arrive at a new planet, the alien who owns the treasure mine on that planet will greet you!</p><p>The better an alien takes care of their mine the easier it is to dig for gems. Some aliens take better care of their mine than others. So, you won’t get exactly the same amount of gems on each planet.</p><p>What the alien looks like does not tell you anything about how many gems there are on the planet.</p><br><p><img src=""run_exp/static/images/task_images/aliens/instructions_aliens/planet/alien_planet-1.jpg""  height=""600"" width=""auto""></p>",,,,,,,,,,,,,,,,,,,,,,,
instruc_alien_greet,16,146534,0.0-7.0-7.0,"""event"",""trial"",""time""
""focus"",""0"",""0""
""blur"",""0"",""0""
""focus"",""0"",""0""
""blur"",""0"",""0""
""focus"",""0"",""0""
""fullscreenenter"",""1"",""2264""
""blur"",""2"",""5645""
""focus"",""2"",""11938""
""blur"",""9"",""57663""
""focus"",""9"",""58657""
","""event"",""trial"",""time""
""blur"",""0"",""0""
""blur"",""0"",""0""
""blur"",""2"",""5645""
""blur"",""9"",""57663""
","""event"",""trial"",""time""
""focus"",""0"",""0""
""focus"",""0"",""0""
""focus"",""0"",""0""
""focus"",""2"",""11938""
""focus"",""9"",""58657""
","""event"",""trial"",""time""
""fullscreenenter"",""1"",""2264""
","
",,3402,"<p>When you arrive at a new planet, the alien who owns the treasure mine on that planet will greet you!</p><p>The better an alien takes care of their mine the easier it is to dig for gems. Some aliens take better care of their mine than others. So, you won’t get exactly the same amount of gems on each planet.</p><p>What the alien looks like does not tell you anything about how many gems there are on the planet.</p><br><p><img src=""run_exp/static/images/task_images/aliens/instructions_aliens/planet/alien_planet-1.jpg""  height=""600"" width=""auto""></p>",,,,,,,1,,,,,,,,,,,,,,,,,,
html-keyboard-response,17,147276,0.0-7.0-8.0,"""event"",""trial"",""time""
""focus"",""0"",""0""
""blur"",""0"",""0""
""focus"",""0"",""0""
""blur"",""0"",""0""
""focus"",""0"",""0""
""fullscreenenter"",""1"",""2264""
""blur"",""2"",""5645""
""focus"",""2"",""11938""
""blur"",""9"",""57663""
""focus"",""9"",""58657""
","""event"",""trial"",""time""
""blur"",""0"",""0""
""blur"",""0"",""0""
""blur"",""2"",""5645""
""blur"",""9"",""57663""
","""event"",""trial"",""time""
""focus"",""0"",""0""
""focus"",""0"",""0""
""focus"",""0"",""0""
""focus"",""2"",""11938""
""focus"",""9"",""58657""
","""event"",""trial"",""time""
""fullscreenenter"",""1"",""2264""
","
",,741,"<p>When you arrive at a new planet, the alien who owns the treasure mine on that planet will greet you!</p><p>The better an alien takes care of their mine the easier it is to dig for gems. Some aliens take better care of their mine than others. So, you won’t get exactly the same amount of gems on each planet.</p><p>What the alien looks like does not tell you anything about how many gems there are on the planet.</p><br><p><img src=""run_exp/static/images/task_images/aliens/instructions_aliens/planet/alien_planet-1.jpg""  height=""600"" width=""auto""></p><button class=""jspsych-html-btn-unchosen""><img src=""run_exp/static/images/task_images/planet-01.jpg"" height=""50""></button><button class=""jspsych-html-btn-chosen""><img src=""run_exp/static/images/task_images/planet-02.jpg"" height=""50""></button><p><b>[press the space bar to lock in your answer]<b><br></p>",32,,,,,,,,,,,,,,,,,,,,,,,,
time_out,18,158413,0.0-8.0-0.0,"""event"",""trial"",""time""
""focus"",""0"",""0""
""blur"",""0"",""0""
""focus"",""0"",""0""
""blur"",""0"",""0""
""focus"",""0"",""0""
""fullscreenenter"",""1"",""2264""
""blur"",""2"",""5645""
""focus"",""2"",""11938""
""blur"",""9"",""57663""
""focus"",""9"",""58657""
","""event"",""trial"",""time""
""blur"",""0"",""0""
""blur"",""0"",""0""
""blur"",""2"",""5645""
""blur"",""9"",""57663""
","""event"",""trial"",""time""
""focus"",""0"",""0""
""focus"",""0"",""0""
""focus"",""0"",""0""
""focus"",""2"",""11938""
""focus"",""9"",""58657""
","""event"",""trial"",""time""
""fullscreenenter"",""1"",""2264""
","
",,null,run_exp/static/audio/clip_7_timeout.m4a,null,"<p>If you don't make your choice fast enough, you’ll have to wait a few seconds before you can make another one.</p><p>You can’t dig for more gems or travel to new planets. You just have to sit and wait.</p><br><p><img src='run_exp/static/images/task_images/time_out.jpg'  height='600' width='auto'></p>",,,,,,,,,,,,,,,,,,,,,,,
time_out,19,161068,0.0-8.0-1.0,"""event"",""trial"",""time""
""focus"",""0"",""0""
""blur"",""0"",""0""
""focus"",""0"",""0""
""blur"",""0"",""0""
""focus"",""0"",""0""
""fullscreenenter"",""1"",""2264""
""blur"",""2"",""5645""
""focus"",""2"",""11938""
""blur"",""9"",""57663""
""focus"",""9"",""58657""
","""event"",""trial"",""time""
""blur"",""0"",""0""
""blur"",""0"",""0""
""blur"",""2"",""5645""
""blur"",""9"",""57663""
","""event"",""trial"",""time""
""focus"",""0"",""0""
""focus"",""0"",""0""
""focus"",""0"",""0""
""focus"",""2"",""11938""
""focus"",""9"",""58657""
","""event"",""trial"",""time""
""fullscreenenter"",""1"",""2264""
","
",,2655,"<p>If you don't make your choice fast enough, you’ll have to wait a few seconds before you can make another one.</p><p>You can’t dig for more gems or travel to new planets. You just have to sit and wait.</p><br><p><img src='run_exp/static/images/task_images/time_out.jpg'  height='600' width='auto'></p>",,,,,,,1,,,,,,,,,,,,,,,,,,
html-keyboard-response,20,162476,0.0-8.0-2.0,"""event"",""trial"",""time""
""focus"",""0"",""0""
""blur"",""0"",""0""
""focus"",""0"",""0""
""blur"",""0"",""0""
""focus"",""0"",""0""
""fullscreenenter"",""1"",""2264""
""blur"",""2"",""5645""
""focus"",""2"",""11938""
""blur"",""9"",""57663""
""focus"",""9"",""58657""
","""event"",""trial"",""time""
""blur"",""0"",""0""
""blur"",""0"",""0""
""blur"",""2"",""5645""
""blur"",""9"",""57663""
","""event"",""trial"",""time""
""focus"",""0"",""0""
""focus"",""0"",""0""
""focus"",""0"",""0""
""focus"",""2"",""11938""
""focus"",""9"",""58657""
","""event"",""trial"",""time""
""fullscreenenter"",""1"",""2264""
","
",,1406,"<p>If you don't make your choice fast enough, you’ll have to wait a few seconds before you can make another one.</p><p>You can’t dig for more gems or travel to new planets. You just have to sit and wait.</p><br><p><img src='run_exp/static/images/task_images/time_out.jpg'  height='600' width='auto'></p><button class=""jspsych-html-btn-unchosen""><img src=""run_exp/static/images/task_images/planet-01.jpg"" height=""50""></button><button class=""jspsych-html-btn-chosen""><img src=""run_exp/static/images/task_images/planet-02.jpg"" height=""50""></button><p><b>[press the space bar to lock in your answer]<b><br></p>",32,,,,,,,,,,,,,,,,,,,,,,,,
instruc_break,21,178221,0.0-9.0-0.0,"""event"",""trial"",""time""
""focus"",""0"",""0""
""blur"",""0"",""0""
""focus"",""0"",""0""
""blur"",""0"",""0""
""focus"",""0"",""0""
""fullscreenenter"",""1"",""2264""
""blur"",""2"",""5645""
""focus"",""2"",""11938""
""blur"",""9"",""57663""
""focus"",""9"",""58657""
","""event"",""trial"",""time""
""blur"",""0"",""0""
""blur"",""0"",""0""
""blur"",""2"",""5645""
""blur"",""9"",""57663""
","""event"",""trial"",""time""
""focus"",""0"",""0""
""focus"",""0"",""0""
""focus"",""0"",""0""
""focus"",""2"",""11938""
""focus"",""9"",""58657""
","""event"",""trial"",""time""
""fullscreenenter"",""1"",""2264""
","
",,null,run_exp/static/audio/clip_8_break.m4a,null,"<p> After digging and traveling for a while, you’ll be able to take a break at home base. </p><p>The game will last 20 minutes no matter what.</p><p>You will visit home base every 5 minutes, so, you will visit home base three times during the game.</p><br><p><img src='run_exp/static/images/task_images/home_base.jpg' height='600' width='auto'></p>",,,,,,,,,,,,,,,,,,,,,,,
instruc_break,22,179901,0.0-9.0-1.0,"""event"",""trial"",""time""
""focus"",""0"",""0""
""blur"",""0"",""0""
""focus"",""0"",""0""
""blur"",""0"",""0""
""focus"",""0"",""0""
""fullscreenenter"",""1"",""2264""
""blur"",""2"",""5645""
""focus"",""2"",""11938""
""blur"",""9"",""57663""
""focus"",""9"",""58657""
","""event"",""trial"",""time""
""blur"",""0"",""0""
""blur"",""0"",""0""
""blur"",""2"",""5645""
""blur"",""9"",""57663""
","""event"",""trial"",""time""
""focus"",""0"",""0""
""focus"",""0"",""0""
""focus"",""0"",""0""
""focus"",""2"",""11938""
""focus"",""9"",""58657""
","""event"",""trial"",""time""
""fullscreenenter"",""1"",""2264""
","
",,1679,"<p> After digging and traveling for a while, you’ll be able to take a break at home base. </p><p>The game will last 20 minutes no matter what.</p><p>You will visit home base every 5 minutes, so, you will visit home base three times during the game.</p><br><p><img src='run_exp/static/images/task_images/home_base.jpg' height='600' width='auto'></p>",,,,,,,1,,,,,,,,,,,,,,,,,,
html-keyboard-response,23,180406,0.0-9.0-2.0,"""event"",""trial"",""time""
""focus"",""0"",""0""
""blur"",""0"",""0""
""focus"",""0"",""0""
""blur"",""0"",""0""
""focus"",""0"",""0""
""fullscreenenter"",""1"",""2264""
""blur"",""2"",""5645""
""focus"",""2"",""11938""
""blur"",""9"",""57663""
""focus"",""9"",""58657""
","""event"",""trial"",""time""
""blur"",""0"",""0""
""blur"",""0"",""0""
""blur"",""2"",""5645""
""blur"",""9"",""57663""
","""event"",""trial"",""time""
""focus"",""0"",""0""
""focus"",""0"",""0""
""focus"",""0"",""0""
""focus"",""2"",""11938""
""focus"",""9"",""58657""
","""event"",""trial"",""time""
""fullscreenenter"",""1"",""2264""
","
",,504,"<p> After digging and traveling for a while, you’ll be able to take a break at home base. </p><p>The game will last 20 minutes no matter what.</p><p>You will visit home base every 5 minutes, so, you will visit home base three times during the game.</p><br><p><img src='run_exp/static/images/task_images/home_base.jpg' height='600' width='auto'></p><button class=""jspsych-html-btn-unchosen""><img src=""run_exp/static/images/task_images/planet-01.jpg"" height=""50""></button><button class=""jspsych-html-btn-chosen""><img src=""run_exp/static/images/task_images/planet-02.jpg"" height=""50""></button><p><b>[press the space bar to lock in your answer]<b><br></p>",32,,,,,,,,,,,,,,,,,,,,,,,,
instruc_prac_game,24,190583,0.0-10.0-0.0,"""event"",""trial"",""time""
""focus"",""0"",""0""
""blur"",""0"",""0""
""focus"",""0"",""0""
""blur"",""0"",""0""
""focus"",""0"",""0""
""fullscreenenter"",""1"",""2264""
""blur"",""2"",""5645""
""focus"",""2"",""11938""
""blur"",""9"",""57663""
""focus"",""9"",""58657""
","""event"",""trial"",""time""
""blur"",""0"",""0""
""blur"",""0"",""0""
""blur"",""2"",""5645""
""blur"",""9"",""57663""
","""event"",""trial"",""time""
""focus"",""0"",""0""
""focus"",""0"",""0""
""focus"",""0"",""0""
""focus"",""2"",""11938""
""focus"",""9"",""58657""
","""event"",""trial"",""time""
""fullscreenenter"",""1"",""2264""
","
",,null,run_exp/static/audio/clip_9_practice.m4a,null,"<p> Are you ready to play a practice game? </p> <p>In this practice game, you'll be digging up barrels of gems. But, in the real game, you'll be digging up the gems themselves. </p>",,,,,,,,,,,,,,,,,,,,,,,
html-button-response,25,192418,0.0-10.0-1.0,"""event"",""trial"",""time""
""focus"",""0"",""0""
""blur"",""0"",""0""
""focus"",""0"",""0""
""blur"",""0"",""0""
""focus"",""0"",""0""
""fullscreenenter"",""1"",""2264""
""blur"",""2"",""5645""
""focus"",""2"",""11938""
""blur"",""9"",""57663""
""focus"",""9"",""58657""
","""event"",""trial"",""time""
""blur"",""0"",""0""
""blur"",""0"",""0""
""blur"",""2"",""5645""
""blur"",""9"",""57663""
","""event"",""trial"",""time""
""focus"",""0"",""0""
""focus"",""0"",""0""
""focus"",""0"",""0""
""focus"",""2"",""11938""
""focus"",""9"",""58657""
","""event"",""trial"",""time""
""fullscreenenter"",""1"",""2264""
","
",,1835,"<p> Are you ready to play a practice game? </p> <p>In this practice game, you'll be digging up barrels of gems. But, in the real game, you'll be digging up the gems themselves. </p>",,,,,,,0,,,,,,,,,,,,,,,,,,
alien_welcome_prac,26,197424,0.0-11.0-0.0,"""event"",""trial"",""time""
""focus"",""0"",""0""
""blur"",""0"",""0""
""focus"",""0"",""0""
""blur"",""0"",""0""
""focus"",""0"",""0""
""fullscreenenter"",""1"",""2264""
""blur"",""2"",""5645""
""focus"",""2"",""11938""
""blur"",""9"",""57663""
""focus"",""9"",""58657""
","""event"",""trial"",""time""
""blur"",""0"",""0""
""blur"",""0"",""0""
""blur"",""2"",""5645""
""blur"",""9"",""57663""
","""event"",""trial"",""time""
""focus"",""0"",""0""
""focus"",""0"",""0""
""focus"",""0"",""0""
""focus"",""2"",""11938""
""focus"",""9"",""58657""
","""event"",""trial"",""time""
""fullscreenenter"",""1"",""2264""
","
",,null,run_exp/static/images/task_images/aliens/practice_aliens/planet/alien_planet-5.jpg,null,,,,,,,,,,,,,,,,,,,,,,,,
land_prac,27,197925,0.0-11.0-1.0,"""event"",""trial"",""time""
""focus"",""0"",""0""
""blur"",""0"",""0""
""focus"",""0"",""0""
""blur"",""0"",""0""
""focus"",""0"",""0""
""fullscreenenter"",""1"",""2264""
""blur"",""2"",""5645""
""focus"",""2"",""11938""
""blur"",""9"",""57663""
""focus"",""9"",""58657""
","""event"",""trial"",""time""
""blur"",""0"",""0""
""blur"",""0"",""0""
""blur"",""2"",""5645""
""blur"",""9"",""57663""
","""event"",""trial"",""time""
""focus"",""0"",""0""
""focus"",""0"",""0""
""focus"",""0"",""0""
""focus"",""2"",""11938""
""focus"",""9"",""58657""
","""event"",""trial"",""time""
""fullscreenenter"",""1"",""2264""
","
",,null,run_exp/static/images/task_images/land.jpg,null,,,,,,,95,,,0,,,,,,,,,,,,,,
dig_prac,28,199932,0.0-11.0-2.0,"""event"",""trial"",""time""
""focus"",""0"",""0""
""blur"",""0"",""0""
""focus"",""0"",""0""
""blur"",""0"",""0""
""focus"",""0"",""0""
""fullscreenenter"",""1"",""2264""
""blur"",""2"",""5645""
""focus"",""2"",""11938""
""blur"",""9"",""57663""
""focus"",""9"",""58657""
","""event"",""trial"",""time""
""blur"",""0"",""0""
""blur"",""0"",""0""
""blur"",""2"",""5645""
""blur"",""9"",""57663""
","""event"",""trial"",""time""
""focus"",""0"",""0""
""focus"",""0"",""0""
""focus"",""0"",""0""
""focus"",""2"",""11938""
""focus"",""9"",""58657""
","""event"",""trial"",""time""
""fullscreenenter"",""1"",""2264""
","
",,,,,,,,,,,,"[{""stimulus"":""run_exp/static/images/task_images/dig.jpg"",""time"":0},{""stimulus"":""run_exp/static/images/task_images/land.jpg"",""time"":669},{""stimulus"":""run_exp/static/images/task_images/dig.jpg"",""time"":1336}]",[],,,,,,,,,,,,,,,
harvest_prac,29,200933,0.0-11.0-3.0,"""event"",""trial"",""time""
""focus"",""0"",""0""
""blur"",""0"",""0""
""focus"",""0"",""0""
""blur"",""0"",""0""
""focus"",""0"",""0""
""fullscreenenter"",""1"",""2264""
""blur"",""2"",""5645""
""focus"",""2"",""11938""
""blur"",""9"",""57663""
""focus"",""9"",""58657""
","""event"",""trial"",""time""
""blur"",""0"",""0""
""blur"",""0"",""0""
""blur"",""2"",""5645""
""blur"",""9"",""57663""
","""event"",""trial"",""time""
""focus"",""0"",""0""
""focus"",""0"",""0""
""focus"",""0"",""0""
""focus"",""2"",""11938""
""focus"",""9"",""58657""
","""event"",""trial"",""time""
""fullscreenenter"",""1"",""2264""
","
",,null,run_exp/static/images/task_images/barrel_text.jpg,null,,,,,,,,,,,,,,,,,,,,,,,,
decision_prac,30,202804,0.0-11.0-4.0,"""event"",""trial"",""time""
""focus"",""0"",""0""
""blur"",""0"",""0""
""focus"",""0"",""0""
""blur"",""0"",""0""
""focus"",""0"",""0""
""fullscreenenter"",""1"",""2264""
""blur"",""2"",""5645""
""focus"",""2"",""11938""
""blur"",""9"",""57663""
""focus"",""9"",""58657""
","""event"",""trial"",""time""
""blur"",""0"",""0""
""blur"",""0"",""0""
""blur"",""2"",""5645""
""blur"",""9"",""57663""
","""event"",""trial"",""time""
""focus"",""0"",""0""
""focus"",""0"",""0""
""focus"",""0"",""0""
""focus"",""2"",""11938""
""focus"",""9"",""58657""
","""event"",""trial"",""time""
""fullscreenenter"",""1"",""2264""
","
",,1872,run_exp/static/images/task_images/land.jpg,65,,,,,,,,,,,1,,,,,,,,,,,,,
dig_prac,31,204815,0.0-12.0-0.0,"""event"",""trial"",""time""
""focus"",""0"",""0""
""blur"",""0"",""0""
""focus"",""0"",""0""
""blur"",""0"",""0""
""focus"",""0"",""0""
""fullscreenenter"",""1"",""2264""
""blur"",""2"",""5645""
""focus"",""2"",""11938""
""blur"",""9"",""57663""
""focus"",""9"",""58657""
","""event"",""trial"",""time""
""blur"",""0"",""0""
""blur"",""0"",""0""
""blur"",""2"",""5645""
""blur"",""9"",""57663""
","""event"",""trial"",""time""
""focus"",""0"",""0""
""focus"",""0"",""0""
""focus"",""0"",""0""
""focus"",""2"",""11938""
""focus"",""9"",""58657""
","""event"",""trial"",""time""
""fullscreenenter"",""1"",""2264""
","
",,,,,,,,,,,,"[{""stimulus"":""run_exp/static/images/task_images/dig.jpg"",""time"":0},{""stimulus"":""run_exp/static/images/task_images/land.jpg"",""time"":669},{""stimulus"":""run_exp/static/images/task_images/dig.jpg"",""time"":1340}]",[],,,,,,,,,,,,,,,
harvest_prac,32,205816,0.0-12.0-1.0,"""event"",""trial"",""time""
""focus"",""0"",""0""
""blur"",""0"",""0""
""focus"",""0"",""0""
""blur"",""0"",""0""
""focus"",""0"",""0""
""fullscreenenter"",""1"",""2264""
""blur"",""2"",""5645""
""focus"",""2"",""11938""
""blur"",""9"",""57663""
""focus"",""9"",""58657""
","""event"",""trial"",""time""
""blur"",""0"",""0""
""blur"",""0"",""0""
""blur"",""2"",""5645""
""blur"",""9"",""57663""
","""event"",""trial"",""time""
""focus"",""0"",""0""
""focus"",""0"",""0""
""focus"",""0"",""0""
""focus"",""2"",""11938""
""focus"",""9"",""58657""
","""event"",""trial"",""time""
""fullscreenenter"",""1"",""2264""
","
",,null,run_exp/static/images/task_images/barrel_text.jpg,null,,,,,,,,,,,,,,,,,,,,,,,,
decision_prac,33,206628,0.0-12.0-2.0,"""event"",""trial"",""time""
""focus"",""0"",""0""
""blur"",""0"",""0""
""focus"",""0"",""0""
""blur"",""0"",""0""
""focus"",""0"",""0""
""fullscreenenter"",""1"",""2264""
""blur"",""2"",""5645""
""focus"",""2"",""11938""
""blur"",""9"",""57663""
""focus"",""9"",""58657""
","""event"",""trial"",""time""
""blur"",""0"",""0""
""blur"",""0"",""0""
""blur"",""2"",""5645""
""blur"",""9"",""57663""
","""event"",""trial"",""time""
""focus"",""0"",""0""
""focus"",""0"",""0""
""focus"",""0"",""0""
""focus"",""2"",""11938""
""focus"",""9"",""58657""
","""event"",""trial"",""time""
""fullscreenenter"",""1"",""2264""
","
",,811,run_exp/static/images/task_images/land.jpg,65,,,,,,,,,,,2,,,,,,,,,,,,,
dig_prac,34,208634,0.0-13.0-0.0,"""event"",""trial"",""time""
""focus"",""0"",""0""
""blur"",""0"",""0""
""focus"",""0"",""0""
""blur"",""0"",""0""
""focus"",""0"",""0""
""fullscreenenter"",""1"",""2264""
""blur"",""2"",""5645""
""focus"",""2"",""11938""
""blur"",""9"",""57663""
""focus"",""9"",""58657""
","""event"",""trial"",""time""
""blur"",""0"",""0""
""blur"",""0"",""0""
""blur"",""2"",""5645""
""blur"",""9"",""57663""
","""event"",""trial"",""time""
""focus"",""0"",""0""
""focus"",""0"",""0""
""focus"",""0"",""0""
""focus"",""2"",""11938""
""focus"",""9"",""58657""
","""event"",""trial"",""time""
""fullscreenenter"",""1"",""2264""
","
",,,,,,,,,,,,"[{""stimulus"":""run_exp/static/images/task_images/dig.jpg"",""time"":0},{""stimulus"":""run_exp/static/images/task_images/land.jpg"",""time"":668},{""stimulus"":""run_exp/static/images/task_images/dig.jpg"",""time"":1335}]",[],,,,,,,,,,,,,,,
harvest_prac,35,209635,0.0-13.0-1.0,"""event"",""trial"",""time""
""focus"",""0"",""0""
""blur"",""0"",""0""
""focus"",""0"",""0""
""blur"",""0"",""0""
""focus"",""0"",""0""
""fullscreenenter"",""1"",""2264""
""blur"",""2"",""5645""
""focus"",""2"",""11938""
""blur"",""9"",""57663""
""focus"",""9"",""58657""
","""event"",""trial"",""time""
""blur"",""0"",""0""
""blur"",""0"",""0""
""blur"",""2"",""5645""
""blur"",""9"",""57663""
","""event"",""trial"",""time""
""focus"",""0"",""0""
""focus"",""0"",""0""
""focus"",""0"",""0""
""focus"",""2"",""11938""
""focus"",""9"",""58657""
","""event"",""trial"",""time""
""fullscreenenter"",""1"",""2264""
","
",,null,run_exp/static/images/task_images/barrel_text.jpg,null,,,,,,,,,,,,,,,,,,,,,,,,
decision_prac,36,210118,0.0-13.0-2.0,"""event"",""trial"",""time""
""focus"",""0"",""0""
""blur"",""0"",""0""
""focus"",""0"",""0""
""blur"",""0"",""0""
""focus"",""0"",""0""
""fullscreenenter"",""1"",""2264""
""blur"",""2"",""5645""
""focus"",""2"",""11938""
""blur"",""9"",""57663""
""focus"",""9"",""58657""
","""event"",""trial"",""time""
""blur"",""0"",""0""
""blur"",""0"",""0""
""blur"",""2"",""5645""
""blur"",""9"",""57663""
","""event"",""trial"",""time""
""focus"",""0"",""0""
""focus"",""0"",""0""
""focus"",""0"",""0""
""focus"",""2"",""11938""
""focus"",""9"",""58657""
","""event"",""trial"",""time""
""fullscreenenter"",""1"",""2264""
","
",,482,run_exp/static/images/task_images/land.jpg,65,,,,,,,,,,,3,,,,,,,,,,,,,
dig_prac,37,212129,0.0-14.0-0.0,"""event"",""trial"",""time""
""focus"",""0"",""0""
""blur"",""0"",""0""
""focus"",""0"",""0""
""blur"",""0"",""0""
""focus"",""0"",""0""
""fullscreenenter"",""1"",""2264""
""blur"",""2"",""5645""
""focus"",""2"",""11938""
""blur"",""9"",""57663""
""focus"",""9"",""58657""
","""event"",""trial"",""time""
""blur"",""0"",""0""
""blur"",""0"",""0""
""blur"",""2"",""5645""
""blur"",""9"",""57663""
","""event"",""trial"",""time""
""focus"",""0"",""0""
""focus"",""0"",""0""
""focus"",""0"",""0""
""focus"",""2"",""11938""
""focus"",""9"",""58657""
","""event"",""trial"",""time""
""fullscreenenter"",""1"",""2264""
","
",,,,,,,,,,,,"[{""stimulus"":""run_exp/static/images/task_images/dig.jpg"",""time"":1},{""stimulus"":""run_exp/static/images/task_images/land.jpg"",""time"":669},{""stimulus"":""run_exp/static/images/task_images/dig.jpg"",""time"":1337}]",[],,,,,,,,,,,,,,,
harvest_prac,38,213134,0.0-14.0-1.0,"""event"",""trial"",""time""
""focus"",""0"",""0""
""blur"",""0"",""0""
""focus"",""0"",""0""
""blur"",""0"",""0""
""focus"",""0"",""0""
""fullscreenenter"",""1"",""2264""
""blur"",""2"",""5645""
""focus"",""2"",""11938""
""blur"",""9"",""57663""
""focus"",""9"",""58657""
","""event"",""trial"",""time""
""blur"",""0"",""0""
""blur"",""0"",""0""
""blur"",""2"",""5645""
""blur"",""9"",""57663""
","""event"",""trial"",""time""
""focus"",""0"",""0""
""focus"",""0"",""0""
""focus"",""0"",""0""
""focus"",""2"",""11938""
""focus"",""9"",""58657""
","""event"",""trial"",""time""
""fullscreenenter"",""1"",""2264""
","
",,null,run_exp/static/images/task_images/barrel_text.jpg,null,,,,,,,,,,,,,,,,,,,,,,,,
decision_prac,39,213665,0.0-14.0-2.0,"""event"",""trial"",""time""
""focus"",""0"",""0""
""blur"",""0"",""0""
""focus"",""0"",""0""
""blur"",""0"",""0""
""focus"",""0"",""0""
""fullscreenenter"",""1"",""2264""
""blur"",""2"",""5645""
""focus"",""2"",""11938""
""blur"",""9"",""57663""
""focus"",""9"",""58657""
","""event"",""trial"",""time""
""blur"",""0"",""0""
""blur"",""0"",""0""
""blur"",""2"",""5645""
""blur"",""9"",""57663""
","""event"",""trial"",""time""
""focus"",""0"",""0""
""focus"",""0"",""0""
""focus"",""0"",""0""
""focus"",""2"",""11938""
""focus"",""9"",""58657""
","""event"",""trial"",""time""
""fullscreenenter"",""1"",""2264""
","
",,530,run_exp/static/images/task_images/land.jpg,65,,,,,,,,,,,4,,,,,,,,,,,,,
dig_prac,40,215674,0.0-15.0-0.0,"""event"",""trial"",""time""
""focus"",""0"",""0""
""blur"",""0"",""0""
""focus"",""0"",""0""
""blur"",""0"",""0""
""focus"",""0"",""0""
""fullscreenenter"",""1"",""2264""
""blur"",""2"",""5645""
""focus"",""2"",""11938""
""blur"",""9"",""57663""
""focus"",""9"",""58657""
","""event"",""trial"",""time""
""blur"",""0"",""0""
""blur"",""0"",""0""
""blur"",""2"",""5645""
""blur"",""9"",""57663""
","""event"",""trial"",""time""
""focus"",""0"",""0""
""focus"",""0"",""0""
""focus"",""0"",""0""
""focus"",""2"",""11938""
""focus"",""9"",""58657""
","""event"",""trial"",""time""
""fullscreenenter"",""1"",""2264""
","
",,,,,,,,,,,,"[{""stimulus"":""run_exp/static/images/task_images/dig.jpg"",""time"":0},{""stimulus"":""run_exp/static/images/task_images/land.jpg"",""time"":667},{""stimulus"":""run_exp/static/images/task_images/dig.jpg"",""time"":1335}]",[],,,,,,,,,,,,,,,
harvest_prac,41,216674,0.0-15.0-1.0,"""event"",""trial"",""time""
""focus"",""0"",""0""
""blur"",""0"",""0""
""focus"",""0"",""0""
""blur"",""0"",""0""
""focus"",""0"",""0""
""fullscreenenter"",""1"",""2264""
""blur"",""2"",""5645""
""focus"",""2"",""11938""
""blur"",""9"",""57663""
""focus"",""9"",""58657""
","""event"",""trial"",""time""
""blur"",""0"",""0""
""blur"",""0"",""0""
""blur"",""2"",""5645""
""blur"",""9"",""57663""
","""event"",""trial"",""time""
""focus"",""0"",""0""
""focus"",""0"",""0""
""focus"",""0"",""0""
""focus"",""2"",""11938""
""focus"",""9"",""58657""
","""event"",""trial"",""time""
""fullscreenenter"",""1"",""2264""
","
",,null,run_exp/static/images/task_images/barrel_text.jpg,null,,,,,,,,,,,,,,,,,,,,,,,,
decision_prac,42,217080,0.0-15.0-2.0,"""event"",""trial"",""time""
""focus"",""0"",""0""
""blur"",""0"",""0""
""focus"",""0"",""0""
""blur"",""0"",""0""
""focus"",""0"",""0""
""fullscreenenter"",""1"",""2264""
""blur"",""2"",""5645""
""focus"",""2"",""11938""
""blur"",""9"",""57663""
""focus"",""9"",""58657""
","""event"",""trial"",""time""
""blur"",""0"",""0""
""blur"",""0"",""0""
""blur"",""2"",""5645""
""blur"",""9"",""57663""
","""event"",""trial"",""time""
""focus"",""0"",""0""
""focus"",""0"",""0""
""focus"",""0"",""0""
""focus"",""2"",""11938""
""focus"",""9"",""58657""
","""event"",""trial"",""time""
""fullscreenenter"",""1"",""2264""
","
",,405,run_exp/static/images/task_images/land.jpg,65,,,,,,,,,,,,1,,,,,,,,,,,,
quiz_instruc,43,220319,0.0-16.0-0.0,"""event"",""trial"",""time""
""focus"",""0"",""0""
""blur"",""0"",""0""
""focus"",""0"",""0""
""blur"",""0"",""0""
""focus"",""0"",""0""
""fullscreenenter"",""1"",""2264""
""blur"",""2"",""5645""
""focus"",""2"",""11938""
""blur"",""9"",""57663""
""focus"",""9"",""58657""
","""event"",""trial"",""time""
""blur"",""0"",""0""
""blur"",""0"",""0""
""blur"",""2"",""5645""
""blur"",""9"",""57663""
","""event"",""trial"",""time""
""focus"",""0"",""0""
""focus"",""0"",""0""
""focus"",""0"",""0""
""focus"",""2"",""11938""
""focus"",""9"",""58657""
","""event"",""trial"",""time""
""fullscreenenter"",""1"",""2264""
","
",,3238,run_exp/static/audio/clip_10_quiz.m4a,,,,,,,0,,,,,,,,,,,,,,,,,,
instruc_repeat,44,263083,0.0-16.0-1.0,"""event"",""trial"",""time""
""focus"",""0"",""0""
""blur"",""0"",""0""
""focus"",""0"",""0""
""blur"",""0"",""0""
""focus"",""0"",""0""
""fullscreenenter"",""1"",""2264""
""blur"",""2"",""5645""
""focus"",""2"",""11938""
""blur"",""9"",""57663""
""focus"",""9"",""58657""
","""event"",""trial"",""time""
""blur"",""0"",""0""
""blur"",""0"",""0""
""blur"",""2"",""5645""
""blur"",""9"",""57663""
","""event"",""trial"",""time""
""focus"",""0"",""0""
""focus"",""0"",""0""
""focus"",""0"",""0""
""focus"",""2"",""11938""
""focus"",""9"",""58657""
","""event"",""trial"",""time""
""fullscreenenter"",""1"",""2264""
","
",,null,"<p> Are you ready to play a practice game? </p> <p>In this practice game, you'll be digging up barrels of gems. But, in the real game, you'll be digging up the gems themselves. </p>",null,"<p>In this game, your goal is to collect as many gems as you can. That’s how you will win bonus money. </p> <p>The entire game will last 20 minutes no matter how many gems you collect or how many planets you visit. </p><p>To stay on a planet and dig again, press the letter A on your keyboard. To leave for a new planet, press the letter L.</p><p>The more you dig on a planet, the fewer gems you’ll get with each dig which is why you might consider leaving for a new planet. </p><p>When you arrive at a new planet, you’ll be greeted by an alien. What the alien looks like does not tell you anything about how much treasure is on the planet. </p>",,,,,,,,,,,,,,,,,,,,,,,
instruc_repeat_continue,45,265171,0.0-16.0-2.0,"""event"",""trial"",""time""
""focus"",""0"",""0""
""blur"",""0"",""0""
""focus"",""0"",""0""
""blur"",""0"",""0""
""focus"",""0"",""0""
""fullscreenenter"",""1"",""2264""
""blur"",""2"",""5645""
""focus"",""2"",""11938""
""blur"",""9"",""57663""
""focus"",""9"",""58657""
","""event"",""trial"",""time""
""blur"",""0"",""0""
""blur"",""0"",""0""
""blur"",""2"",""5645""
""blur"",""9"",""57663""
","""event"",""trial"",""time""
""focus"",""0"",""0""
""focus"",""0"",""0""
""focus"",""0"",""0""
""focus"",""2"",""11938""
""focus"",""9"",""58657""
","""event"",""trial"",""time""
""fullscreenenter"",""1"",""2264""
","
",,2087,"<p> Are you ready to play a practice game? </p> <p>In this practice game, you'll be digging up barrels of gems. But, in the real game, you'll be digging up the gems themselves. </p>",,,,,,,0,,,,,,,,,,,,,,,,,,
quiz_q_1_ask,46,268323,0.0-16.0-3.0,"""event"",""trial"",""time""
""focus"",""0"",""0""
""blur"",""0"",""0""
""focus"",""0"",""0""
""blur"",""0"",""0""
""focus"",""0"",""0""
""fullscreenenter"",""1"",""2264""
""blur"",""2"",""5645""
""focus"",""2"",""11938""
""blur"",""9"",""57663""
""focus"",""9"",""58657""
","""event"",""trial"",""time""
""blur"",""0"",""0""
""blur"",""0"",""0""
""blur"",""2"",""5645""
""blur"",""9"",""57663""
","""event"",""trial"",""time""
""focus"",""0"",""0""
""focus"",""0"",""0""
""focus"",""0"",""0""
""focus"",""2"",""11938""
""focus"",""9"",""58657""
","""event"",""trial"",""time""
""fullscreenenter"",""1"",""2264""
","
",,3151,run_exp/static/audio/clip_11_q1_ask.m4a,,,,,,,2,,,,,,,,,,,,,,,,,,
quiz_q_1_fb_correct,47,272278,0.0-17.0-0.0,"""event"",""trial"",""time""
""focus"",""0"",""0""
""blur"",""0"",""0""
""focus"",""0"",""0""
""blur"",""0"",""0""
""focus"",""0"",""0""
""fullscreenenter"",""1"",""2264""
""blur"",""2"",""5645""
""focus"",""2"",""11938""
""blur"",""9"",""57663""
""focus"",""9"",""58657""
","""event"",""trial"",""time""
""blur"",""0"",""0""
""blur"",""0"",""0""
""blur"",""2"",""5645""
""blur"",""9"",""57663""
","""event"",""trial"",""time""
""focus"",""0"",""0""
""focus"",""0"",""0""
""focus"",""0"",""0""
""focus"",""2"",""11938""
""focus"",""9"",""58657""
","""event"",""trial"",""time""
""fullscreenenter"",""1"",""2264""
","
",,null,run_exp/static/audio/clip_12_q1_correct.m4a,null,<p>That’s correct. You win extra money by collecting more gems.</p>,,,,,,,,,,,,,,,,,,,,,,,
quiz_q_2_ask,48,275422,0.0-17.0-1.0,"""event"",""trial"",""time""
""focus"",""0"",""0""
""blur"",""0"",""0""
""focus"",""0"",""0""
""blur"",""0"",""0""
""focus"",""0"",""0""
""fullscreenenter"",""1"",""2264""
""blur"",""2"",""5645""
""focus"",""2"",""11938""
""blur"",""9"",""57663""
""focus"",""9"",""58657""
","""event"",""trial"",""time""
""blur"",""0"",""0""
""blur"",""0"",""0""
""blur"",""2"",""5645""
""blur"",""9"",""57663""
","""event"",""trial"",""time""
""focus"",""0"",""0""
""focus"",""0"",""0""
""focus"",""0"",""0""
""focus"",""2"",""11938""
""focus"",""9"",""58657""
","""event"",""trial"",""time""
""fullscreenenter"",""1"",""2264""
","
",,3144,run_exp/static/audio/clip_14_q2_ask.m4a,,,,,,,1,,,,,,,,,,,,,,,,,,
quiz_q_2_fb_correct,49,279540,0.0-18.0-0.0,"""event"",""trial"",""time""
""focus"",""0"",""0""
""blur"",""0"",""0""
""focus"",""0"",""0""
""blur"",""0"",""0""
""focus"",""0"",""0""
""fullscreenenter"",""1"",""2264""
""blur"",""2"",""5645""
""focus"",""2"",""11938""
""blur"",""9"",""57663""
""focus"",""9"",""58657""
","""event"",""trial"",""time""
""blur"",""0"",""0""
""blur"",""0"",""0""
""blur"",""2"",""5645""
""blur"",""9"",""57663""
","""event"",""trial"",""time""
""focus"",""0"",""0""
""focus"",""0"",""0""
""focus"",""0"",""0""
""focus"",""2"",""11938""
""focus"",""9"",""58657""
","""event"",""trial"",""time""
""fullscreenenter"",""1"",""2264""
","
",,null,run_exp/static/audio/clip_15_q2_correct.m4a,null,<p>That’s correct. The experiment is 20 minutes no matter what.</p>,,,,,,,,,,,,,,,,,,,,,,,
quiz_q_3_ask,50,299371,0.0-18.0-1.0,"""event"",""trial"",""time""
""focus"",""0"",""0""
""blur"",""0"",""0""
""focus"",""0"",""0""
""blur"",""0"",""0""
""focus"",""0"",""0""
""fullscreenenter"",""1"",""2264""
""blur"",""2"",""5645""
""focus"",""2"",""11938""
""blur"",""9"",""57663""
""focus"",""9"",""58657""
","""event"",""trial"",""time""
""blur"",""0"",""0""
""blur"",""0"",""0""
""blur"",""2"",""5645""
""blur"",""9"",""57663""
","""event"",""trial"",""time""
""focus"",""0"",""0""
""focus"",""0"",""0""
""focus"",""0"",""0""
""focus"",""2"",""11938""
""focus"",""9"",""58657""
","""event"",""trial"",""time""
""fullscreenenter"",""1"",""2264""
","
",,19830,run_exp/static/audio/clip_17_q3_ask.m4a,,,,,,,1,,,,,,,,,,,,,,,,,,
quiz_q_3_fb_correct,51,303418,0.0-19.0-0.0,"""event"",""trial"",""time""
""focus"",""0"",""0""
""blur"",""0"",""0""
""focus"",""0"",""0""
""blur"",""0"",""0""
""focus"",""0"",""0""
""fullscreenenter"",""1"",""2264""
""blur"",""2"",""5645""
""focus"",""2"",""11938""
""blur"",""9"",""57663""
""focus"",""9"",""58657""
","""event"",""trial"",""time""
""blur"",""0"",""0""
""blur"",""0"",""0""
""blur"",""2"",""5645""
""blur"",""9"",""57663""
","""event"",""trial"",""time""
""focus"",""0"",""0""
""focus"",""0"",""0""
""focus"",""0"",""0""
""focus"",""2"",""11938""
""focus"",""9"",""58657""
","""event"",""trial"",""time""
""fullscreenenter"",""1"",""2264""
","
",,null,run_exp/static/audio/clip_18_q3_correct.m4a,null,<p> That’s correct. You press the letter L to travel to a new planet.</p>,,,,,,,,,,,,,,,,,,,,,,,
quiz_q_4_ask,52,308754,0.0-19.0-1.0,"""event"",""trial"",""time""
""focus"",""0"",""0""
""blur"",""0"",""0""
""focus"",""0"",""0""
""blur"",""0"",""0""
""focus"",""0"",""0""
""fullscreenenter"",""1"",""2264""
""blur"",""2"",""5645""
""focus"",""2"",""11938""
""blur"",""9"",""57663""
""focus"",""9"",""58657""
","""event"",""trial"",""time""
""blur"",""0"",""0""
""blur"",""0"",""0""
""blur"",""2"",""5645""
""blur"",""9"",""57663""
","""event"",""trial"",""time""
""focus"",""0"",""0""
""focus"",""0"",""0""
""focus"",""0"",""0""
""focus"",""2"",""11938""
""focus"",""9"",""58657""
","""event"",""trial"",""time""
""fullscreenenter"",""1"",""2264""
","
",,5335,run_exp/static/audio/clip_20_q4_ask.m4a,,,,,,,0,,,,,,,,,,,,,,,,,,
quiz_q_4_fb_correct,53,314089,0.0-20.0-0.0,"""event"",""trial"",""time""
""focus"",""0"",""0""
""blur"",""0"",""0""
""focus"",""0"",""0""
""blur"",""0"",""0""
""focus"",""0"",""0""
""fullscreenenter"",""1"",""2264""
""blur"",""2"",""5645""
""focus"",""2"",""11938""
""blur"",""9"",""57663""
""focus"",""9"",""58657""
","""event"",""trial"",""time""
""blur"",""0"",""0""
""blur"",""0"",""0""
""blur"",""2"",""5645""
""blur"",""9"",""57663""
","""event"",""trial"",""time""
""focus"",""0"",""0""
""focus"",""0"",""0""
""focus"",""0"",""0""
""focus"",""2"",""11938""
""focus"",""9"",""58657""
","""event"",""trial"",""time""
""fullscreenenter"",""1"",""2264""
","
",,null,run_exp/static/audio/clip_21_q4_correct.m4a,null,<p> That’s correct. The more you dig on a planet the fewer gems you’ll get with each dig. </p>,,,,,,,,,,,,,,,,,,,,,,,
quiz_q_5_ask,54,320338,0.0-20.0-1.0,"""event"",""trial"",""time""
""focus"",""0"",""0""
""blur"",""0"",""0""
""focus"",""0"",""0""
""blur"",""0"",""0""
""focus"",""0"",""0""
""fullscreenenter"",""1"",""2264""
""blur"",""2"",""5645""
""focus"",""2"",""11938""
""blur"",""9"",""57663""
""focus"",""9"",""58657""
","""event"",""trial"",""time""
""blur"",""0"",""0""
""blur"",""0"",""0""
""blur"",""2"",""5645""
""blur"",""9"",""57663""
","""event"",""trial"",""time""
""focus"",""0"",""0""
""focus"",""0"",""0""
""focus"",""0"",""0""
""focus"",""2"",""11938""
""focus"",""9"",""58657""
","""event"",""trial"",""time""
""fullscreenenter"",""1"",""2264""
","
",,6248,run_exp/static/audio/clip_23_q5_ask.m4a,,,,,,,0,,,,,,,,,,,,,,,,,,
quiz_q_5_fb_incorrect,55,326153,0.0-21.0-0.0,"""event"",""trial"",""time""
""focus"",""0"",""0""
""blur"",""0"",""0""
""focus"",""0"",""0""
""blur"",""0"",""0""
""focus"",""0"",""0""
""fullscreenenter"",""1"",""2264""
""blur"",""2"",""5645""
""focus"",""2"",""11938""
""blur"",""9"",""57663""
""focus"",""9"",""58657""
","""event"",""trial"",""time""
""blur"",""0"",""0""
""blur"",""0"",""0""
""blur"",""2"",""5645""
""blur"",""9"",""57663""
","""event"",""trial"",""time""
""focus"",""0"",""0""
""focus"",""0"",""0""
""focus"",""0"",""0""
""focus"",""2"",""11938""
""focus"",""9"",""58657""
","""event"",""trial"",""time""
""fullscreenenter"",""1"",""2264""
","
",,null,run_exp/static/audio/clip_25_q5_incorrect.m4a,null,<p>That’s incorrect. The alien tells you nothing about how much treasure is on the planet.</p>,,,,,,,,,,,,,,,,,,,,,,,
quiz_incorrect,56,331797,0.0-22.0-0.0,"""event"",""trial"",""time""
""focus"",""0"",""0""
""blur"",""0"",""0""
""focus"",""0"",""0""
""blur"",""0"",""0""
""focus"",""0"",""0""
""fullscreenenter"",""1"",""2264""
""blur"",""2"",""5645""
""focus"",""2"",""11938""
""blur"",""9"",""57663""
""focus"",""9"",""58657""
","""event"",""trial"",""time""
""blur"",""0"",""0""
""blur"",""0"",""0""
""blur"",""2"",""5645""
""blur"",""9"",""57663""
","""event"",""trial"",""time""
""focus"",""0"",""0""
""focus"",""0"",""0""
""focus"",""0"",""0""
""focus"",""2"",""11938""
""focus"",""9"",""58657""
","""event"",""trial"",""time""
""fullscreenenter"",""1"",""2264""
","
",,null,run_exp/static/audio/clip_27_incorrect_quiz.m4a,null,,,,,,,,,,,,,,,,,,,,,,,,
quiz_incorrect_continue,57,333338,0.0-22.0-1.0,"""event"",""trial"",""time""
""focus"",""0"",""0""
""blur"",""0"",""0""
""focus"",""0"",""0""
""blur"",""0"",""0""
""focus"",""0"",""0""
""fullscreenenter"",""1"",""2264""
""blur"",""2"",""5645""
""focus"",""2"",""11938""
""blur"",""9"",""57663""
""focus"",""9"",""58657""
","""event"",""trial"",""time""
""blur"",""0"",""0""
""blur"",""0"",""0""
""blur"",""2"",""5645""
""blur"",""9"",""57663""
","""event"",""trial"",""time""
""focus"",""0"",""0""
""focus"",""0"",""0""
""focus"",""0"",""0""
""focus"",""2"",""11938""
""focus"",""9"",""58657""
","""event"",""trial"",""time""
""fullscreenenter"",""1"",""2264""
","
",,1540,"<p>Oops, you missed some questions.</p><p>Now that you’ve heard the correct answers. Try the quiz again!</p>",,,,,,,0,,,,,,,,,,,,,,,,,,
quiz_q_1_ask,58,335687,0.0-22.0-2.0,"""event"",""trial"",""time""
""focus"",""0"",""0""
""blur"",""0"",""0""
""focus"",""0"",""0""
""blur"",""0"",""0""
""focus"",""0"",""0""
""fullscreenenter"",""1"",""2264""
""blur"",""2"",""5645""
""focus"",""2"",""11938""
""blur"",""9"",""57663""
""focus"",""9"",""58657""
","""event"",""trial"",""time""
""blur"",""0"",""0""
""blur"",""0"",""0""
""blur"",""2"",""5645""
""blur"",""9"",""57663""
","""event"",""trial"",""time""
""focus"",""0"",""0""
""focus"",""0"",""0""
""focus"",""0"",""0""
""focus"",""2"",""11938""
""focus"",""9"",""58657""
","""event"",""trial"",""time""
""fullscreenenter"",""1"",""2264""
","
",,2349,run_exp/static/audio/clip_11_q1_ask.m4a,,,,,,,2,,,,,,,,,,,,,,,,,,
quiz_q_1_fb_correct,59,339542,0.0-23.0-0.0,"""event"",""trial"",""time""
""focus"",""0"",""0""
""blur"",""0"",""0""
""focus"",""0"",""0""
""blur"",""0"",""0""
""focus"",""0"",""0""
""fullscreenenter"",""1"",""2264""
""blur"",""2"",""5645""
""focus"",""2"",""11938""
""blur"",""9"",""57663""
""focus"",""9"",""58657""
","""event"",""trial"",""time""
""blur"",""0"",""0""
""blur"",""0"",""0""
""blur"",""2"",""5645""
""blur"",""9"",""57663""
","""event"",""trial"",""time""
""focus"",""0"",""0""
""focus"",""0"",""0""
""focus"",""0"",""0""
""focus"",""2"",""11938""
""focus"",""9"",""58657""
","""event"",""trial"",""time""
""fullscreenenter"",""1"",""2264""
","
",,null,run_exp/static/audio/clip_12_q1_correct.m4a,null,<p>That’s correct. You win extra money by collecting more gems.</p>,,,,,,,,,,,,,,,,,,,,,,,
quiz_q_2_ask,60,341038,0.0-23.0-1.0,"""event"",""trial"",""time""
""focus"",""0"",""0""
""blur"",""0"",""0""
""focus"",""0"",""0""
""blur"",""0"",""0""
""focus"",""0"",""0""
""fullscreenenter"",""1"",""2264""
""blur"",""2"",""5645""
""focus"",""2"",""11938""
""blur"",""9"",""57663""
""focus"",""9"",""58657""
","""event"",""trial"",""time""
""blur"",""0"",""0""
""blur"",""0"",""0""
""blur"",""2"",""5645""
""blur"",""9"",""57663""
","""event"",""trial"",""time""
""focus"",""0"",""0""
""focus"",""0"",""0""
""focus"",""0"",""0""
""focus"",""2"",""11938""
""focus"",""9"",""58657""
","""event"",""trial"",""time""
""fullscreenenter"",""1"",""2264""
","
",,1495,run_exp/static/audio/clip_14_q2_ask.m4a,,,,,,,1,,,,,,,,,,,,,,,,,,
quiz_q_2_fb_correct,61,345149,0.0-24.0-0.0,"""event"",""trial"",""time""
""focus"",""0"",""0""
""blur"",""0"",""0""
""focus"",""0"",""0""
""blur"",""0"",""0""
""focus"",""0"",""0""
""fullscreenenter"",""1"",""2264""
""blur"",""2"",""5645""
""focus"",""2"",""11938""
""blur"",""9"",""57663""
""focus"",""9"",""58657""
","""event"",""trial"",""time""
""blur"",""0"",""0""
""blur"",""0"",""0""
""blur"",""2"",""5645""
""blur"",""9"",""57663""
","""event"",""trial"",""time""
""focus"",""0"",""0""
""focus"",""0"",""0""
""focus"",""0"",""0""
""focus"",""2"",""11938""
""focus"",""9"",""58657""
","""event"",""trial"",""time""
""fullscreenenter"",""1"",""2264""
","
",,null,run_exp/static/audio/clip_15_q2_correct.m4a,null,<p>That’s correct. The experiment is 20 minutes no matter what.</p>,,,,,,,,,,,,,,,,,,,,,,,
quiz_q_3_ask,62,346855,0.0-24.0-1.0,"""event"",""trial"",""time""
""focus"",""0"",""0""
""blur"",""0"",""0""
""focus"",""0"",""0""
""blur"",""0"",""0""
""focus"",""0"",""0""
""fullscreenenter"",""1"",""2264""
""blur"",""2"",""5645""
""focus"",""2"",""11938""
""blur"",""9"",""57663""
""focus"",""9"",""58657""
","""event"",""trial"",""time""
""blur"",""0"",""0""
""blur"",""0"",""0""
""blur"",""2"",""5645""
""blur"",""9"",""57663""
","""event"",""trial"",""time""
""focus"",""0"",""0""
""focus"",""0"",""0""
""focus"",""0"",""0""
""focus"",""2"",""11938""
""focus"",""9"",""58657""
","""event"",""trial"",""time""
""fullscreenenter"",""1"",""2264""
","
",,1704,run_exp/static/audio/clip_17_q3_ask.m4a,,,,,,,1,,,,,,,,,,,,,,,,,,
quiz_q_3_fb_correct,63,350843,0.0-25.0-0.0,"""event"",""trial"",""time""
""focus"",""0"",""0""
""blur"",""0"",""0""
""focus"",""0"",""0""
""blur"",""0"",""0""
""focus"",""0"",""0""
""fullscreenenter"",""1"",""2264""
""blur"",""2"",""5645""
""focus"",""2"",""11938""
""blur"",""9"",""57663""
""focus"",""9"",""58657""
","""event"",""trial"",""time""
""blur"",""0"",""0""
""blur"",""0"",""0""
""blur"",""2"",""5645""
""blur"",""9"",""57663""
","""event"",""trial"",""time""
""focus"",""0"",""0""
""focus"",""0"",""0""
""focus"",""0"",""0""
""focus"",""2"",""11938""
""focus"",""9"",""58657""
","""event"",""trial"",""time""
""fullscreenenter"",""1"",""2264""
","
",,null,run_exp/static/audio/clip_18_q3_correct.m4a,null,<p> That’s correct. You press the letter L to travel to a new planet.</p>,,,,,,,,,,,,,,,,,,,,,,,
quiz_q_4_ask,64,353088,0.0-25.0-1.0,"""event"",""trial"",""time""
""focus"",""0"",""0""
""blur"",""0"",""0""
""focus"",""0"",""0""
""blur"",""0"",""0""
""focus"",""0"",""0""
""fullscreenenter"",""1"",""2264""
""blur"",""2"",""5645""
""focus"",""2"",""11938""
""blur"",""9"",""57663""
""focus"",""9"",""58657""
","""event"",""trial"",""time""
""blur"",""0"",""0""
""blur"",""0"",""0""
""blur"",""2"",""5645""
""blur"",""9"",""57663""
","""event"",""trial"",""time""
""focus"",""0"",""0""
""focus"",""0"",""0""
""focus"",""0"",""0""
""focus"",""2"",""11938""
""focus"",""9"",""58657""
","""event"",""trial"",""time""
""fullscreenenter"",""1"",""2264""
","
",,2246,run_exp/static/audio/clip_20_q4_ask.m4a,,,,,,,0,,,,,,,,,,,,,,,,,,
quiz_q_4_fb_correct,65,358527,0.0-26.0-0.0,"""event"",""trial"",""time""
""focus"",""0"",""0""
""blur"",""0"",""0""
""focus"",""0"",""0""
""blur"",""0"",""0""
""focus"",""0"",""0""
""fullscreenenter"",""1"",""2264""
""blur"",""2"",""5645""
""focus"",""2"",""11938""
""blur"",""9"",""57663""
""focus"",""9"",""58657""
","""event"",""trial"",""time""
""blur"",""0"",""0""
""blur"",""0"",""0""
""blur"",""2"",""5645""
""blur"",""9"",""57663""
","""event"",""trial"",""time""
""focus"",""0"",""0""
""focus"",""0"",""0""
""focus"",""0"",""0""
""focus"",""2"",""11938""
""focus"",""9"",""58657""
","""event"",""trial"",""time""
""fullscreenenter"",""1"",""2264""
","
",,null,run_exp/static/audio/clip_21_q4_correct.m4a,null,<p> That’s correct. The more you dig on a planet the fewer gems you’ll get with each dig. </p>,,,,,,,,,,,,,,,,,,,,,,,
quiz_q_5_ask,66,360105,0.0-26.0-1.0,"""event"",""trial"",""time""
""focus"",""0"",""0""
""blur"",""0"",""0""
""focus"",""0"",""0""
""blur"",""0"",""0""
""focus"",""0"",""0""
""fullscreenenter"",""1"",""2264""
""blur"",""2"",""5645""
""focus"",""2"",""11938""
""blur"",""9"",""57663""
""focus"",""9"",""58657""
","""event"",""trial"",""time""
""blur"",""0"",""0""
""blur"",""0"",""0""
""blur"",""2"",""5645""
""blur"",""9"",""57663""
","""event"",""trial"",""time""
""focus"",""0"",""0""
""focus"",""0"",""0""
""focus"",""0"",""0""
""focus"",""2"",""11938""
""focus"",""9"",""58657""
","""event"",""trial"",""time""
""fullscreenenter"",""1"",""2264""
","
",,1577,run_exp/static/audio/clip_23_q5_ask.m4a,,,,,,,1,,,,,,,,,,,,,,,,,,
quiz_q_5_fb_correct,67,365116,0.0-27.0-0.0,"""event"",""trial"",""time""
""focus"",""0"",""0""
""blur"",""0"",""0""
""focus"",""0"",""0""
""blur"",""0"",""0""
""focus"",""0"",""0""
""fullscreenenter"",""1"",""2264""
""blur"",""2"",""5645""
""focus"",""2"",""11938""
""blur"",""9"",""57663""
""focus"",""9"",""58657""
","""event"",""trial"",""time""
""blur"",""0"",""0""
""blur"",""0"",""0""
""blur"",""2"",""5645""
""blur"",""9"",""57663""
","""event"",""trial"",""time""
""focus"",""0"",""0""
""focus"",""0"",""0""
""focus"",""0"",""0""
""focus"",""2"",""11938""
""focus"",""9"",""58657""
","""event"",""trial"",""time""
""fullscreenenter"",""1"",""2264""
","
",,null,run_exp/static/audio/clip_24_q5_correct.m4a,null,<p> That’s correct. The alien tells you nothing about how much treasure is on the planet.</p>,,,,,,,,,,,,,,,,,,,,,,,
quiz_correct,68,368649,0.0-28.0-0.0,"""event"",""trial"",""time""
""focus"",""0"",""0""
""blur"",""0"",""0""
""focus"",""0"",""0""
""blur"",""0"",""0""
""focus"",""0"",""0""
""fullscreenenter"",""1"",""2264""
""blur"",""2"",""5645""
""focus"",""2"",""11938""
""blur"",""9"",""57663""
""focus"",""9"",""58657""
","""event"",""trial"",""time""
""blur"",""0"",""0""
""blur"",""0"",""0""
""blur"",""2"",""5645""
""blur"",""9"",""57663""
","""event"",""trial"",""time""
""focus"",""0"",""0""
""focus"",""0"",""0""
""focus"",""0"",""0""
""focus"",""2"",""11938""
""focus"",""9"",""58657""
","""event"",""trial"",""time""
""fullscreenenter"",""1"",""2264""
","
",,null,run_exp/static/audio/clip_26_correct_quiz.m4a,null,,,,,,,,,,,,,,,,,,,,,,,,
quiz_correct_continue,69,369838,0.0-28.0-1.0,"""event"",""trial"",""time""
""focus"",""0"",""0""
""blur"",""0"",""0""
""focus"",""0"",""0""
""blur"",""0"",""0""
""focus"",""0"",""0""
""fullscreenenter"",""1"",""2264""
""blur"",""2"",""5645""
""focus"",""2"",""11938""
""blur"",""9"",""57663""
""focus"",""9"",""58657""
","""event"",""trial"",""time""
""blur"",""0"",""0""
""blur"",""0"",""0""
""blur"",""2"",""5645""
""blur"",""9"",""57663""
","""event"",""trial"",""time""
""focus"",""0"",""0""
""focus"",""0"",""0""
""focus"",""0"",""0""
""focus"",""2"",""11938""
""focus"",""9"",""58657""
","""event"",""trial"",""time""
""fullscreenenter"",""1"",""2264""
","
",,1189,<p>Good job! You're now ready to move on to the real game!</p>,,,,,,,0,,,,,,,,,,,,,,,,,,
audio-keyboard-response,70,380030,0.0-28.0-2.0,"""event"",""trial"",""time""
""focus"",""0"",""0""
""blur"",""0"",""0""
""focus"",""0"",""0""
""blur"",""0"",""0""
""focus"",""0"",""0""
""fullscreenenter"",""1"",""2264""
""blur"",""2"",""5645""
""focus"",""2"",""11938""
""blur"",""9"",""57663""
""focus"",""9"",""58657""
","""event"",""trial"",""time""
""blur"",""0"",""0""
""blur"",""0"",""0""
""blur"",""2"",""5645""
""blur"",""9"",""57663""
","""event"",""trial"",""time""
""focus"",""0"",""0""
""focus"",""0"",""0""
""focus"",""0"",""0""
""focus"",""2"",""11938""
""focus"",""9"",""58657""
","""event"",""trial"",""time""
""fullscreenenter"",""1"",""2264""
","
",,null,run_exp/static/audio/clip_28_real_game.m4a,null,,,,,,,,,,,,,,,,,,,,,,,,
instruc_begin_exp_contine,71,381372,0.0-28.0-3.0,"""event"",""trial"",""time""
""focus"",""0"",""0""
""blur"",""0"",""0""
""focus"",""0"",""0""
""blur"",""0"",""0""
""focus"",""0"",""0""
""fullscreenenter"",""1"",""2264""
""blur"",""2"",""5645""
""focus"",""2"",""11938""
""blur"",""9"",""57663""
""focus"",""9"",""58657""
","""event"",""trial"",""time""
""blur"",""0"",""0""
""blur"",""0"",""0""
""blur"",""2"",""5645""
""blur"",""9"",""57663""
","""event"",""trial"",""time""
""focus"",""0"",""0""
""focus"",""0"",""0""
""focus"",""0"",""0""
""focus"",""2"",""11938""
""focus"",""9"",""58657""
","""event"",""trial"",""time""
""fullscreenenter"",""1"",""2264""
","
",,1341,"<p>Now that you know how  to dig for space treasure and travel to new planets,you can start exploring! </p><p>Do you want to go over the instructions again or get started with the real game?</p>",,,,,,,1,,,,,,1,,,,,,,,,,,,
alien_welcome,72,386375,0.0-29.0-0.0,"""event"",""trial"",""time""
""focus"",""0"",""0""
""blur"",""0"",""0""
""focus"",""0"",""0""
""blur"",""0"",""0""
""focus"",""0"",""0""
""fullscreenenter"",""1"",""2264""
""blur"",""2"",""5645""
""focus"",""2"",""11938""
""blur"",""9"",""57663""
""focus"",""9"",""58657""
","""event"",""trial"",""time""
""blur"",""0"",""0""
""blur"",""0"",""0""
""blur"",""2"",""5645""
""blur"",""9"",""57663""
","""event"",""trial"",""time""
""focus"",""0"",""0""
""focus"",""0"",""0""
""focus"",""0"",""0""
""focus"",""2"",""11938""
""focus"",""9"",""58657""
","""event"",""trial"",""time""
""fullscreenenter"",""1"",""2264""
","
",,null,run_exp/static/images/task_images/aliens/old_aliens/planet/alien_planet-26.jpg,null,,,,,,,,,,,,,26,"26,23,80,72,37,33,65,64,13,3,12,40,16,44,70,42,39,1,52,45,67,43,62,25,4,63,20,50,22,58,60,79,59,57,34,51,15,74,73,14,53,19,69,75,32,61,29,48,24,38,56,31,7,9,41,27,8,21,36",,,,,,,,,,
land,73,386876,0.0-29.0-1.0,"""event"",""trial"",""time""
""focus"",""0"",""0""
""blur"",""0"",""0""
""focus"",""0"",""0""
""blur"",""0"",""0""
""focus"",""0"",""0""
""fullscreenenter"",""1"",""2264""
""blur"",""2"",""5645""
""focus"",""2"",""11938""
""blur"",""9"",""57663""
""focus"",""9"",""58657""
","""event"",""trial"",""time""
""blur"",""0"",""0""
""blur"",""0"",""0""
""blur"",""2"",""5645""
""blur"",""9"",""57663""
","""event"",""trial"",""time""
""focus"",""0"",""0""
""focus"",""0"",""0""
""focus"",""0"",""0""
""focus"",""2"",""11938""
""focus"",""9"",""58657""
","""event"",""trial"",""time""
""fullscreenenter"",""1"",""2264""
","
",,null,run_exp/static/images/task_images/land.jpg,null,,,,,,,97,,,1,,,,,,,,,,,,,,
dig,74,388888,0.0-29.0-2.0,"""event"",""trial"",""time""
""focus"",""0"",""0""
""blur"",""0"",""0""
""focus"",""0"",""0""
""blur"",""0"",""0""
""focus"",""0"",""0""
""fullscreenenter"",""1"",""2264""
""blur"",""2"",""5645""
""focus"",""2"",""11938""
""blur"",""9"",""57663""
""focus"",""9"",""58657""
","""event"",""trial"",""time""
""blur"",""0"",""0""
""blur"",""0"",""0""
""blur"",""2"",""5645""
""blur"",""9"",""57663""
","""event"",""trial"",""time""
""focus"",""0"",""0""
""focus"",""0"",""0""
""focus"",""0"",""0""
""focus"",""2"",""11938""
""focus"",""9"",""58657""
","""event"",""trial"",""time""
""fullscreenenter"",""1"",""2264""
","
",,,,,,,,,,,,"[{""stimulus"":""run_exp/static/images/task_images/dig.jpg"",""time"":0},{""stimulus"":""run_exp/static/images/task_images/land.jpg"",""time"":669},{""stimulus"":""run_exp/static/images/task_images/dig.jpg"",""time"":1337}]",[],1,,,,,,,,,,,,,,
harvest,75,389892,0.0-29.0-3.0,"""event"",""trial"",""time""
""focus"",""0"",""0""
""blur"",""0"",""0""
""focus"",""0"",""0""
""blur"",""0"",""0""
""focus"",""0"",""0""
""fullscreenenter"",""1"",""2264""
""blur"",""2"",""5645""
""focus"",""2"",""11938""
""blur"",""9"",""57663""
""focus"",""9"",""58657""
","""event"",""trial"",""time""
""blur"",""0"",""0""
""blur"",""0"",""0""
""blur"",""2"",""5645""
""blur"",""9"",""57663""
","""event"",""trial"",""time""
""focus"",""0"",""0""
""focus"",""0"",""0""
""focus"",""0"",""0""
""focus"",""2"",""11938""
""focus"",""9"",""58657""
","""event"",""trial"",""time""
""fullscreenenter"",""1"",""2264""
","
",,null,run_exp/static/images/task_images/gems/97.jpg,null,,,,,,,18,,,1,,,,,97,0.187015176,0.18556701,,,,,,,
decision,76,390970,0.0-29.0-4.0,"""event"",""trial"",""time""
""focus"",""0"",""0""
""blur"",""0"",""0""
""focus"",""0"",""0""
""blur"",""0"",""0""
""focus"",""0"",""0""
""fullscreenenter"",""1"",""2264""
""blur"",""2"",""5645""
""focus"",""2"",""11938""
""blur"",""9"",""57663""
""focus"",""9"",""58657""
","""event"",""trial"",""time""
""blur"",""0"",""0""
""blur"",""0"",""0""
""blur"",""2"",""5645""
""blur"",""9"",""57663""
","""event"",""trial"",""time""
""focus"",""0"",""0""
""focus"",""0"",""0""
""focus"",""0"",""0""
""focus"",""2"",""11938""
""focus"",""9"",""58657""
","""event"",""trial"",""time""
""fullscreenenter"",""1"",""2264""
","
",,1075,run_exp/static/images/task_images/land.jpg,65,,,,,,,18,,,1,,,,,,,,9596,1,0,FALSE,,,
dig,77,392903,0.0-30.0-0.0,"""event"",""trial"",""time""
""focus"",""0"",""0""
""blur"",""0"",""0""
""focus"",""0"",""0""
""blur"",""0"",""0""
""focus"",""0"",""0""
""fullscreenenter"",""1"",""2264""
""blur"",""2"",""5645""
""focus"",""2"",""11938""
""blur"",""9"",""57663""
""focus"",""9"",""58657""
","""event"",""trial"",""time""
""blur"",""0"",""0""
""blur"",""0"",""0""
""blur"",""2"",""5645""
""blur"",""9"",""57663""
","""event"",""trial"",""time""
""focus"",""0"",""0""
""focus"",""0"",""0""
""focus"",""0"",""0""
""focus"",""2"",""11938""
""focus"",""9"",""58657""
","""event"",""trial"",""time""
""fullscreenenter"",""1"",""2264""
","
",,,,,,,,,,,,"[{""stimulus"":""run_exp/static/images/task_images/dig.jpg"",""time"":0},{""stimulus"":""run_exp/static/images/task_images/land.jpg"",""time"":641},{""stimulus"":""run_exp/static/images/task_images/dig.jpg"",""time"":1285}]",[],1,,,,,,,,,,,,,,
harvest,78,393907,0.0-30.0-1.0,"""event"",""trial"",""time""
""focus"",""0"",""0""
""blur"",""0"",""0""
""focus"",""0"",""0""
""blur"",""0"",""0""
""focus"",""0"",""0""
""fullscreenenter"",""1"",""2264""
""blur"",""2"",""5645""
""focus"",""2"",""11938""
""blur"",""9"",""57663""
""focus"",""9"",""58657""
","""event"",""trial"",""time""
""blur"",""0"",""0""
""blur"",""0"",""0""
""blur"",""2"",""5645""
""blur"",""9"",""57663""
","""event"",""trial"",""time""
""focus"",""0"",""0""
""focus"",""0"",""0""
""focus"",""0"",""0""
""focus"",""2"",""11938""
""focus"",""9"",""58657""
","""event"",""trial"",""time""
""fullscreenenter"",""1"",""2264""
","
",,null,run_exp/static/images/task_images/gems/18.jpg,null,,,,,,,3,,,1,,,,,18,0.158662415,0.166666667,,,,,,,
decision,79,394438,0.0-30.0-2.0,"""event"",""trial"",""time""
""focus"",""0"",""0""
""blur"",""0"",""0""
""focus"",""0"",""0""
""blur"",""0"",""0""
""focus"",""0"",""0""
""fullscreenenter"",""1"",""2264""
""blur"",""2"",""5645""
""focus"",""2"",""11938""
""blur"",""9"",""57663""
""focus"",""9"",""58657""
","""event"",""trial"",""time""
""blur"",""0"",""0""
""blur"",""0"",""0""
""blur"",""2"",""5645""
""blur"",""9"",""57663""
","""event"",""trial"",""time""
""focus"",""0"",""0""
""focus"",""0"",""0""
""focus"",""0"",""0""
""focus"",""2"",""11938""
""focus"",""9"",""58657""
","""event"",""trial"",""time""
""fullscreenenter"",""1"",""2264""
","
",,530,run_exp/static/images/task_images/land.jpg,65,,,,,,,3,,,1,,,,,,,,13064,1,1,FALSE,,,
dig,80,396920,0.0-31.0-0.0,"""event"",""trial"",""time""
""focus"",""0"",""0""
""blur"",""0"",""0""
""focus"",""0"",""0""
""blur"",""0"",""0""
""focus"",""0"",""0""
""fullscreenenter"",""1"",""2264""
""blur"",""2"",""5645""
""focus"",""2"",""11938""
""blur"",""9"",""57663""
""focus"",""9"",""58657""
","""event"",""trial"",""time""
""blur"",""0"",""0""
""blur"",""0"",""0""
""blur"",""2"",""5645""
""blur"",""9"",""57663""
","""event"",""trial"",""time""
""focus"",""0"",""0""
""focus"",""0"",""0""
""focus"",""0"",""0""
""focus"",""2"",""11938""
""focus"",""9"",""58657""
","""event"",""trial"",""time""
""fullscreenenter"",""1"",""2264""
","
",,,,,,,,,,,,"[{""stimulus"":""run_exp/static/images/task_images/dig.jpg"",""time"":0},{""stimulus"":""run_exp/static/images/task_images/land.jpg"",""time"":829},{""stimulus"":""run_exp/static/images/task_images/dig.jpg"",""time"":1654}]",[],1,,,,,,,,,,,,,,
harvest,81,397921,0.0-31.0-1.0,"""event"",""trial"",""time""
""focus"",""0"",""0""
""blur"",""0"",""0""
""focus"",""0"",""0""
""blur"",""0"",""0""
""focus"",""0"",""0""
""fullscreenenter"",""1"",""2264""
""blur"",""2"",""5645""
""focus"",""2"",""11938""
""blur"",""9"",""57663""
""focus"",""9"",""58657""
","""event"",""trial"",""time""
""blur"",""0"",""0""
""blur"",""0"",""0""
""blur"",""2"",""5645""
""blur"",""9"",""57663""
","""event"",""trial"",""time""
""focus"",""0"",""0""
""focus"",""0"",""0""
""focus"",""0"",""0""
""focus"",""2"",""11938""
""focus"",""9"",""58657""
","""event"",""trial"",""time""
""fullscreenenter"",""1"",""2264""
","
",,null,run_exp/static/images/task_images/gems/3.jpg,null,,,,,,,1,,,1,,,,,3,0.239523543,0.333333333,,,,,,,
decision,82,399744,0.0-31.0-2.0,"""event"",""trial"",""time""
""focus"",""0"",""0""
""blur"",""0"",""0""
""focus"",""0"",""0""
""blur"",""0"",""0""
""focus"",""0"",""0""
""fullscreenenter"",""1"",""2264""
""blur"",""2"",""5645""
""focus"",""2"",""11938""
""blur"",""9"",""57663""
""focus"",""9"",""58657""
","""event"",""trial"",""time""
""blur"",""0"",""0""
""blur"",""0"",""0""
""blur"",""2"",""5645""
""blur"",""9"",""57663""
","""event"",""trial"",""time""
""focus"",""0"",""0""
""focus"",""0"",""0""
""focus"",""0"",""0""
""focus"",""2"",""11938""
""focus"",""9"",""58657""
","""event"",""trial"",""time""
""fullscreenenter"",""1"",""2264""
","
",,1820,run_exp/static/images/task_images/land.jpg,65,,,,,,,1,,,1,,,,,,,,18370,1,2,FALSE,,,
dig,83,400934,0.0-32.0-0.0,"""event"",""trial"",""time""
""focus"",""0"",""0""
""blur"",""0"",""0""
""focus"",""0"",""0""
""blur"",""0"",""0""
""focus"",""0"",""0""
""fullscreenenter"",""1"",""2264""
""blur"",""2"",""5645""
""focus"",""2"",""11938""
""blur"",""9"",""57663""
""focus"",""9"",""58657""
","""event"",""trial"",""time""
""blur"",""0"",""0""
""blur"",""0"",""0""
""blur"",""2"",""5645""
""blur"",""9"",""57663""
","""event"",""trial"",""time""
""focus"",""0"",""0""
""focus"",""0"",""0""
""focus"",""0"",""0""
""focus"",""2"",""11938""
""focus"",""9"",""58657""
","""event"",""trial"",""time""
""fullscreenenter"",""1"",""2264""
","
",,,,,,,,,,,,"[{""stimulus"":""run_exp/static/images/task_images/dig.jpg"",""time"":0},{""stimulus"":""run_exp/static/images/task_images/land.jpg"",""time"":397},{""stimulus"":""run_exp/static/images/task_images/dig.jpg"",""time"":790}]",[],1,,,,,,,,,,,,,,
harvest,84,401935,0.0-32.0-1.0,"""event"",""trial"",""time""
""focus"",""0"",""0""
""blur"",""0"",""0""
""focus"",""0"",""0""
""blur"",""0"",""0""
""focus"",""0"",""0""
""fullscreenenter"",""1"",""2264""
""blur"",""2"",""5645""
""focus"",""2"",""11938""
""blur"",""9"",""57663""
""focus"",""9"",""58657""
","""event"",""trial"",""time""
""blur"",""0"",""0""
""blur"",""0"",""0""
""blur"",""2"",""5645""
""blur"",""9"",""57663""
","""event"",""trial"",""time""
""focus"",""0"",""0""
""focus"",""0"",""0""
""focus"",""0"",""0""
""focus"",""2"",""11938""
""focus"",""9"",""58657""
","""event"",""trial"",""time""
""fullscreenenter"",""1"",""2264""
","
",,null,run_exp/static/images/task_images/gems/1.jpg,null,,,,,,,0,,,1,,,,,1,0.190656208,0,,,,,,,
decision,85,403439,0.0-32.0-2.0,"""event"",""trial"",""time""
""focus"",""0"",""0""
""blur"",""0"",""0""
""focus"",""0"",""0""
""blur"",""0"",""0""
""focus"",""0"",""0""
""fullscreenenter"",""1"",""2264""
""blur"",""2"",""5645""
""focus"",""2"",""11938""
""blur"",""9"",""57663""
""focus"",""9"",""58657""
","""event"",""trial"",""time""
""blur"",""0"",""0""
""blur"",""0"",""0""
""blur"",""2"",""5645""
""blur"",""9"",""57663""
","""event"",""trial"",""time""
""focus"",""0"",""0""
""focus"",""0"",""0""
""focus"",""0"",""0""
""focus"",""2"",""11938""
""focus"",""9"",""58657""
","""event"",""trial"",""time""
""fullscreenenter"",""1"",""2264""
","
",,1503,run_exp/static/images/task_images/land.jpg,76,,,,,,,0,,,1,,,,,,,,22065,1,3,TRUE,,,
travel,86,411955,0.0-33.0-0.0,"""event"",""trial"",""time""
""focus"",""0"",""0""
""blur"",""0"",""0""
""focus"",""0"",""0""
""blur"",""0"",""0""
""focus"",""0"",""0""
""fullscreenenter"",""1"",""2264""
""blur"",""2"",""5645""
""focus"",""2"",""11938""
""blur"",""9"",""57663""
""focus"",""9"",""58657""
","""event"",""trial"",""time""
""blur"",""0"",""0""
""blur"",""0"",""0""
""blur"",""2"",""5645""
""blur"",""9"",""57663""
","""event"",""trial"",""time""
""focus"",""0"",""0""
""focus"",""0"",""0""
""focus"",""0"",""0""
""focus"",""2"",""11938""
""focus"",""9"",""58657""
","""event"",""trial"",""time""
""fullscreenenter"",""1"",""2264""
","
",,,,,,,,,,,,"[{""stimulus"":""run_exp/static/images/task_images/rocket-01.jpg"",""time"":0},{""stimulus"":""run_exp/static/images/task_images/rocket-02.jpg"",""time"":949},{""stimulus"":""run_exp/static/images/task_images/rocket-03.jpg"",""time"":1896},{""stimulus"":""run_exp/static/images/task_images/rocket-04.jpg"",""time"":2841},{""stimulus"":""run_exp/static/images/task_images/rocket-05.jpg"",""time"":3785},{""stimulus"":""run_exp/static/images/task_images/rocket-06.jpg"",""time"":4729},{""stimulus"":""run_exp/static/images/task_images/rocket-07.jpg"",""time"":5677},{""stimulus"":""run_exp/static/images/task_images/rocket-08.jpg"",""time"":6623},{""stimulus"":""run_exp/static/images/task_images/rocket-09.jpg"",""time"":7567}]",[],1,,,,,,,,,,,,,,
alien_welcome,87,416956,0.0-33.0-1.0,"""event"",""trial"",""time""
""focus"",""0"",""0""
""blur"",""0"",""0""
""focus"",""0"",""0""
""blur"",""0"",""0""
""focus"",""0"",""0""
""fullscreenenter"",""1"",""2264""
""blur"",""2"",""5645""
""focus"",""2"",""11938""
""blur"",""9"",""57663""
""focus"",""9"",""58657""
","""event"",""trial"",""time""
""blur"",""0"",""0""
""blur"",""0"",""0""
""blur"",""2"",""5645""
""blur"",""9"",""57663""
","""event"",""trial"",""time""
""focus"",""0"",""0""
""focus"",""0"",""0""
""focus"",""0"",""0""
""focus"",""2"",""11938""
""focus"",""9"",""58657""
","""event"",""trial"",""time""
""fullscreenenter"",""1"",""2264""
","
",,null,run_exp/static/images/task_images/aliens/old_aliens/planet/alien_planet-23.jpg,null,,,,,,,,,,,,,23,"26,23,80,72,37,33,65,64,13,3,12,40,16,44,70,42,39,1,52,45,67,43,62,25,4,63,20,50,22,58,60,79,59,57,34,51,15,74,73,14,53,19,69,75,32,61,29,48,24,38,56,31,7,9,41,27,8,21,36",,,,,,,,,,
land,88,417461,0.0-33.0-2.0,"""event"",""trial"",""time""
""focus"",""0"",""0""
""blur"",""0"",""0""
""focus"",""0"",""0""
""blur"",""0"",""0""
""focus"",""0"",""0""
""fullscreenenter"",""1"",""2264""
""blur"",""2"",""5645""
""focus"",""2"",""11938""
""blur"",""9"",""57663""
""focus"",""9"",""58657""
","""event"",""trial"",""time""
""blur"",""0"",""0""
""blur"",""0"",""0""
""blur"",""2"",""5645""
""blur"",""9"",""57663""
","""event"",""trial"",""time""
""focus"",""0"",""0""
""focus"",""0"",""0""
""focus"",""0"",""0""
""focus"",""2"",""11938""
""focus"",""9"",""58657""
","""event"",""trial"",""time""
""fullscreenenter"",""1"",""2264""
","
",,null,run_exp/static/images/task_images/land.jpg,null,,,,,,,96,,,2,,,,,,,,,,,,,,
dig,89,419473,0.0-33.0-3.0,"""event"",""trial"",""time""
""focus"",""0"",""0""
""blur"",""0"",""0""
""focus"",""0"",""0""
""blur"",""0"",""0""
""focus"",""0"",""0""
""fullscreenenter"",""1"",""2264""
""blur"",""2"",""5645""
""focus"",""2"",""11938""
""blur"",""9"",""57663""
""focus"",""9"",""58657""
","""event"",""trial"",""time""
""blur"",""0"",""0""
""blur"",""0"",""0""
""blur"",""2"",""5645""
""blur"",""9"",""57663""
","""event"",""trial"",""time""
""focus"",""0"",""0""
""focus"",""0"",""0""
""focus"",""0"",""0""
""focus"",""2"",""11938""
""focus"",""9"",""58657""
","""event"",""trial"",""time""
""fullscreenenter"",""1"",""2264""
","
",,,,,,,,,,,,"[{""stimulus"":""run_exp/static/images/task_images/dig.jpg"",""time"":0},{""stimulus"":""run_exp/static/images/task_images/land.jpg"",""time"":669},{""stimulus"":""run_exp/static/images/task_images/dig.jpg"",""time"":1336}]",[],2,,,,,,,,,,,,,,
harvest,90,420478,0.0-33.0-4.0,"""event"",""trial"",""time""
""focus"",""0"",""0""
""blur"",""0"",""0""
""focus"",""0"",""0""
""blur"",""0"",""0""
""focus"",""0"",""0""
""fullscreenenter"",""1"",""2264""
""blur"",""2"",""5645""
""focus"",""2"",""11938""
""blur"",""9"",""57663""
""focus"",""9"",""58657""
","""event"",""trial"",""time""
""blur"",""0"",""0""
""blur"",""0"",""0""
""blur"",""2"",""5645""
""blur"",""9"",""57663""
","""event"",""trial"",""time""
""focus"",""0"",""0""
""focus"",""0"",""0""
""focus"",""0"",""0""
""focus"",""2"",""11938""
""focus"",""9"",""58657""
","""event"",""trial"",""time""
""fullscreenenter"",""1"",""2264""
","
",,null,run_exp/static/images/task_images/gems/96.jpg,null,,,,,,,26,,,2,,,,,96,0.273274444,0.270833333,,,,,,,
decision,91,420998,0.0-33.0-5.0,"""event"",""trial"",""time""
""focus"",""0"",""0""
""blur"",""0"",""0""
""focus"",""0"",""0""
""blur"",""0"",""0""
""focus"",""0"",""0""
""fullscreenenter"",""1"",""2264""
""blur"",""2"",""5645""
""focus"",""2"",""11938""
""blur"",""9"",""57663""
""focus"",""9"",""58657""
","""event"",""trial"",""time""
""blur"",""0"",""0""
""blur"",""0"",""0""
""blur"",""2"",""5645""
""blur"",""9"",""57663""
","""event"",""trial"",""time""
""focus"",""0"",""0""
""focus"",""0"",""0""
""focus"",""0"",""0""
""focus"",""2"",""11938""
""focus"",""9"",""58657""
","""event"",""trial"",""time""
""fullscreenenter"",""1"",""2264""
","
",,521,run_exp/static/images/task_images/land.jpg,65,,,,,,,26,,,2,,,,,,,,39625,1,0,FALSE,,,
dig,92,423486,0.0-34.0-0.0,"""event"",""trial"",""time""
""focus"",""0"",""0""
""blur"",""0"",""0""
""focus"",""0"",""0""
""blur"",""0"",""0""
""focus"",""0"",""0""
""fullscreenenter"",""1"",""2264""
""blur"",""2"",""5645""
""focus"",""2"",""11938""
""blur"",""9"",""57663""
""focus"",""9"",""58657""
","""event"",""trial"",""time""
""blur"",""0"",""0""
""blur"",""0"",""0""
""blur"",""2"",""5645""
""blur"",""9"",""57663""
","""event"",""trial"",""time""
""focus"",""0"",""0""
""focus"",""0"",""0""
""focus"",""0"",""0""
""focus"",""2"",""11938""
""focus"",""9"",""58657""
","""event"",""trial"",""time""
""fullscreenenter"",""1"",""2264""
","
",,,,,,,,,,,,"[{""stimulus"":""run_exp/static/images/task_images/dig.jpg"",""time"":0},{""stimulus"":""run_exp/static/images/task_images/land.jpg"",""time"":827},{""stimulus"":""run_exp/static/images/task_images/dig.jpg"",""time"":1655}]",[],2,,,,,,,,,,,,,,
harvest,93,424490,0.0-34.0-1.0,"""event"",""trial"",""time""
""focus"",""0"",""0""
""blur"",""0"",""0""
""focus"",""0"",""0""
""blur"",""0"",""0""
""focus"",""0"",""0""
""fullscreenenter"",""1"",""2264""
""blur"",""2"",""5645""
""focus"",""2"",""11938""
""blur"",""9"",""57663""
""focus"",""9"",""58657""
","""event"",""trial"",""time""
""blur"",""0"",""0""
""blur"",""0"",""0""
""blur"",""2"",""5645""
""blur"",""9"",""57663""
","""event"",""trial"",""time""
""focus"",""0"",""0""
""focus"",""0"",""0""
""focus"",""0"",""0""
""focus"",""2"",""11938""
""focus"",""9"",""58657""
","""event"",""trial"",""time""
""fullscreenenter"",""1"",""2264""
","
",,null,run_exp/static/images/task_images/gems/26.jpg,null,,,,,,,5,,,2,,,,,26,0.181502904,0.192307692,,,,,,,
decision,94,424923,0.0-34.0-2.0,"""event"",""trial"",""time""
""focus"",""0"",""0""
""blur"",""0"",""0""
""focus"",""0"",""0""
""blur"",""0"",""0""
""focus"",""0"",""0""
""fullscreenenter"",""1"",""2264""
""blur"",""2"",""5645""
""focus"",""2"",""11938""
""blur"",""9"",""57663""
""focus"",""9"",""58657""
","""event"",""trial"",""time""
""blur"",""0"",""0""
""blur"",""0"",""0""
""blur"",""2"",""5645""
""blur"",""9"",""57663""
","""event"",""trial"",""time""
""focus"",""0"",""0""
""focus"",""0"",""0""
""focus"",""0"",""0""
""focus"",""2"",""11938""
""focus"",""9"",""58657""
","""event"",""trial"",""time""
""fullscreenenter"",""1"",""2264""
","
",,431,run_exp/static/images/task_images/land.jpg,65,,,,,,,5,,,2,,,,,,,,43549,1,1,FALSE,,,
dig,95,427502,0.0-35.0-0.0,"""event"",""trial"",""time""
""focus"",""0"",""0""
""blur"",""0"",""0""
""focus"",""0"",""0""
""blur"",""0"",""0""
""focus"",""0"",""0""
""fullscreenenter"",""1"",""2264""
""blur"",""2"",""5645""
""focus"",""2"",""11938""
""blur"",""9"",""57663""
""focus"",""9"",""58657""
","""event"",""trial"",""time""
""blur"",""0"",""0""
""blur"",""0"",""0""
""blur"",""2"",""5645""
""blur"",""9"",""57663""
","""event"",""trial"",""time""
""focus"",""0"",""0""
""focus"",""0"",""0""
""focus"",""0"",""0""
""focus"",""2"",""11938""
""focus"",""9"",""58657""
","""event"",""trial"",""time""
""fullscreenenter"",""1"",""2264""
","
",,,,,,,,,,,,"[{""stimulus"":""run_exp/static/images/task_images/dig.jpg"",""time"":1},{""stimulus"":""run_exp/static/images/task_images/land.jpg"",""time"":857},{""stimulus"":""run_exp/static/images/task_images/dig.jpg"",""time"":1717}]",[],2,,,,,,,,,,,,,,
harvest,96,428503,0.0-35.0-1.0,"""event"",""trial"",""time""
""focus"",""0"",""0""
""blur"",""0"",""0""
""focus"",""0"",""0""
""blur"",""0"",""0""
""focus"",""0"",""0""
""fullscreenenter"",""1"",""2264""
""blur"",""2"",""5645""
""focus"",""2"",""11938""
""blur"",""9"",""57663""
""focus"",""9"",""58657""
","""event"",""trial"",""time""
""blur"",""0"",""0""
""blur"",""0"",""0""
""blur"",""2"",""5645""
""blur"",""9"",""57663""
","""event"",""trial"",""time""
""focus"",""0"",""0""
""focus"",""0"",""0""
""focus"",""0"",""0""
""focus"",""2"",""11938""
""focus"",""9"",""58657""
","""event"",""trial"",""time""
""fullscreenenter"",""1"",""2264""
","
",,null,run_exp/static/images/task_images/gems/5.jpg,null,,,,,,,1,,,2,,,,,5,0.148580273,0.2,,,,,,,
decision,97,428968,0.0-35.0-2.0,"""event"",""trial"",""time""
""focus"",""0"",""0""
""blur"",""0"",""0""
""focus"",""0"",""0""
""blur"",""0"",""0""
""focus"",""0"",""0""
""fullscreenenter"",""1"",""2264""
""blur"",""2"",""5645""
""focus"",""2"",""11938""
""blur"",""9"",""57663""
""focus"",""9"",""58657""
","""event"",""trial"",""time""
""blur"",""0"",""0""
""blur"",""0"",""0""
""blur"",""2"",""5645""
""blur"",""9"",""57663""
","""event"",""trial"",""time""
""focus"",""0"",""0""
""focus"",""0"",""0""
""focus"",""0"",""0""
""focus"",""2"",""11938""
""focus"",""9"",""58657""
","""event"",""trial"",""time""
""fullscreenenter"",""1"",""2264""
","
",,464,run_exp/static/images/task_images/land.jpg,65,,,,,,,1,,,2,,,,,,,,47594,1,2,FALSE,,,
dig,98,431519,0.0-36.0-0.0,"""event"",""trial"",""time""
""focus"",""0"",""0""
""blur"",""0"",""0""
""focus"",""0"",""0""
""blur"",""0"",""0""
""focus"",""0"",""0""
""fullscreenenter"",""1"",""2264""
""blur"",""2"",""5645""
""focus"",""2"",""11938""
""blur"",""9"",""57663""
""focus"",""9"",""58657""
","""event"",""trial"",""time""
""blur"",""0"",""0""
""blur"",""0"",""0""
""blur"",""2"",""5645""
""blur"",""9"",""57663""
","""event"",""trial"",""time""
""focus"",""0"",""0""
""focus"",""0"",""0""
""focus"",""0"",""0""
""focus"",""2"",""11938""
""focus"",""9"",""58657""
","""event"",""trial"",""time""
""fullscreenenter"",""1"",""2264""
","
",,,,,,,,,,,,"[{""stimulus"":""run_exp/static/images/task_images/dig.jpg"",""time"":0},{""stimulus"":""run_exp/static/images/task_images/land.jpg"",""time"":849},{""stimulus"":""run_exp/static/images/task_images/dig.jpg"",""time"":1697}]",[],2,,,,,,,,,,,,,,
harvest,99,432522,0.0-36.0-1.0,"""event"",""trial"",""time""
""focus"",""0"",""0""
""blur"",""0"",""0""
""focus"",""0"",""0""
""blur"",""0"",""0""
""focus"",""0"",""0""
""fullscreenenter"",""1"",""2264""
""blur"",""2"",""5645""
""focus"",""2"",""11938""
""blur"",""9"",""57663""
""focus"",""9"",""58657""
","""event"",""trial"",""time""
""blur"",""0"",""0""
""blur"",""0"",""0""
""blur"",""2"",""5645""
""blur"",""9"",""57663""
","""event"",""trial"",""time""
""focus"",""0"",""0""
""focus"",""0"",""0""
""focus"",""0"",""0""
""focus"",""2"",""11938""
""focus"",""9"",""58657""
","""event"",""trial"",""time""
""fullscreenenter"",""1"",""2264""
","
",,null,run_exp/static/images/task_images/gems/1.jpg,null,,,,,,,0,,,2,,,,,1,0.177748115,0,,,,,,,
decision,100,433254,0.0-36.0-2.0,"""event"",""trial"",""time""
""focus"",""0"",""0""
""blur"",""0"",""0""
""focus"",""0"",""0""
""blur"",""0"",""0""
""focus"",""0"",""0""
""fullscreenenter"",""1"",""2264""
""blur"",""2"",""5645""
""focus"",""2"",""11938""
""blur"",""9"",""57663""
""focus"",""9"",""58657""
","""event"",""trial"",""time""
""blur"",""0"",""0""
""blur"",""0"",""0""
""blur"",""2"",""5645""
""blur"",""9"",""57663""
","""event"",""trial"",""time""
""focus"",""0"",""0""
""focus"",""0"",""0""
""focus"",""0"",""0""
""focus"",""2"",""11938""
""focus"",""9"",""58657""
","""event"",""trial"",""time""
""fullscreenenter"",""1"",""2264""
","
",,731,run_exp/static/images/task_images/land.jpg,76,,,,,,,0,,,2,,,,,,,,51880,1,3,TRUE,,,
travel,101,442537,0.0-37.0-0.0,"""event"",""trial"",""time""
""focus"",""0"",""0""
""blur"",""0"",""0""
""focus"",""0"",""0""
""blur"",""0"",""0""
""focus"",""0"",""0""
""fullscreenenter"",""1"",""2264""
""blur"",""2"",""5645""
""focus"",""2"",""11938""
""blur"",""9"",""57663""
""focus"",""9"",""58657""
","""event"",""trial"",""time""
""blur"",""0"",""0""
""blur"",""0"",""0""
""blur"",""2"",""5645""
""blur"",""9"",""57663""
","""event"",""trial"",""time""
""focus"",""0"",""0""
""focus"",""0"",""0""
""focus"",""0"",""0""
""focus"",""2"",""11938""
""focus"",""9"",""58657""
","""event"",""trial"",""time""
""fullscreenenter"",""1"",""2264""
","
",,,,,,,,,,,,"[{""stimulus"":""run_exp/static/images/task_images/rocket-01.jpg"",""time"":0},{""stimulus"":""run_exp/static/images/task_images/rocket-02.jpg"",""time"":1031},{""stimulus"":""run_exp/static/images/task_images/rocket-03.jpg"",""time"":2061},{""stimulus"":""run_exp/static/images/task_images/rocket-04.jpg"",""time"":3093},{""stimulus"":""run_exp/static/images/task_images/rocket-05.jpg"",""time"":4123},{""stimulus"":""run_exp/static/images/task_images/rocket-06.jpg"",""time"":5153},{""stimulus"":""run_exp/static/images/task_images/rocket-07.jpg"",""time"":6184},{""stimulus"":""run_exp/static/images/task_images/rocket-08.jpg"",""time"":7213},{""stimulus"":""run_exp/static/images/task_images/rocket-09.jpg"",""time"":8246}]",[],2,,,,,,,,,,,,,,
alien_welcome,102,447538,0.0-37.0-1.0,"""event"",""trial"",""time""
""focus"",""0"",""0""
""blur"",""0"",""0""
""focus"",""0"",""0""
""blur"",""0"",""0""
""focus"",""0"",""0""
""fullscreenenter"",""1"",""2264""
""blur"",""2"",""5645""
""focus"",""2"",""11938""
""blur"",""9"",""57663""
""focus"",""9"",""58657""
","""event"",""trial"",""time""
""blur"",""0"",""0""
""blur"",""0"",""0""
""blur"",""2"",""5645""
""blur"",""9"",""57663""
","""event"",""trial"",""time""
""focus"",""0"",""0""
""focus"",""0"",""0""
""focus"",""0"",""0""
""focus"",""2"",""11938""
""focus"",""9"",""58657""
","""event"",""trial"",""time""
""fullscreenenter"",""1"",""2264""
","
",,null,run_exp/static/images/task_images/aliens/old_aliens/planet/alien_planet-80.jpg,null,,,,,,,,,,,,,80,"26,23,80,72,37,33,65,64,13,3,12,40,16,44,70,42,39,1,52,45,67,43,62,25,4,63,20,50,22,58,60,79,59,57,34,51,15,74,73,14,53,19,69,75,32,61,29,48,24,38,56,31,7,9,41,27,8,21,36",,,,,,,,,,
land,103,448041,0.0-37.0-2.0,"""event"",""trial"",""time""
""focus"",""0"",""0""
""blur"",""0"",""0""
""focus"",""0"",""0""
""blur"",""0"",""0""
""focus"",""0"",""0""
""fullscreenenter"",""1"",""2264""
""blur"",""2"",""5645""
""focus"",""2"",""11938""
""blur"",""9"",""57663""
""focus"",""9"",""58657""
","""event"",""trial"",""time""
""blur"",""0"",""0""
""blur"",""0"",""0""
""blur"",""2"",""5645""
""blur"",""9"",""57663""
","""event"",""trial"",""time""
""focus"",""0"",""0""
""focus"",""0"",""0""
""focus"",""0"",""0""
""focus"",""2"",""11938""
""focus"",""9"",""58657""
","""event"",""trial"",""time""
""fullscreenenter"",""1"",""2264""
","
",,null,run_exp/static/images/task_images/land.jpg,null,,,,,,,97,,,3,,,,,,,,,,,,,,
dig,104,450052,0.0-37.0-3.0,"""event"",""trial"",""time""
""focus"",""0"",""0""
""blur"",""0"",""0""
""focus"",""0"",""0""
""blur"",""0"",""0""
""focus"",""0"",""0""
""fullscreenenter"",""1"",""2264""
""blur"",""2"",""5645""
""focus"",""2"",""11938""
""blur"",""9"",""57663""
""focus"",""9"",""58657""
","""event"",""trial"",""time""
""blur"",""0"",""0""
""blur"",""0"",""0""
""blur"",""2"",""5645""
""blur"",""9"",""57663""
","""event"",""trial"",""time""
""focus"",""0"",""0""
""focus"",""0"",""0""
""focus"",""0"",""0""
""focus"",""2"",""11938""
""focus"",""9"",""58657""
","""event"",""trial"",""time""
""fullscreenenter"",""1"",""2264""
","
",,,,,,,,,,,,"[{""stimulus"":""run_exp/static/images/task_images/dig.jpg"",""time"":0},{""stimulus"":""run_exp/static/images/task_images/land.jpg"",""time"":668},{""stimulus"":""run_exp/static/images/task_images/dig.jpg"",""time"":1335}]",[],3,,,,,,,,,,,,,,
harvest,105,451052,0.0-37.0-4.0,"""event"",""trial"",""time""
""focus"",""0"",""0""
""blur"",""0"",""0""
""focus"",""0"",""0""
""blur"",""0"",""0""
""focus"",""0"",""0""
""fullscreenenter"",""1"",""2264""
""blur"",""2"",""5645""
""focus"",""2"",""11938""
""blur"",""9"",""57663""
""focus"",""9"",""58657""
","""event"",""trial"",""time""
""blur"",""0"",""0""
""blur"",""0"",""0""
""blur"",""2"",""5645""
""blur"",""9"",""57663""
","""event"",""trial"",""time""
""focus"",""0"",""0""
""focus"",""0"",""0""
""focus"",""0"",""0""
""focus"",""2"",""11938""
""focus"",""9"",""58657""
","""event"",""trial"",""time""
""fullscreenenter"",""1"",""2264""
","
",,null,run_exp/static/images/task_images/gems/97.jpg,null,,,,,,,51,,,3,,,,,97,0.524767972,0.525773196,,,,,,,
decision,106,451398,0.0-37.0-5.0,"""event"",""trial"",""time""
""focus"",""0"",""0""
""blur"",""0"",""0""
""focus"",""0"",""0""
""blur"",""0"",""0""
""focus"",""0"",""0""
""fullscreenenter"",""1"",""2264""
""blur"",""2"",""5645""
""focus"",""2"",""11938""
""blur"",""9"",""57663""
""focus"",""9"",""58657""
","""event"",""trial"",""time""
""blur"",""0"",""0""
""blur"",""0"",""0""
""blur"",""2"",""5645""
""blur"",""9"",""57663""
","""event"",""trial"",""time""
""focus"",""0"",""0""
""focus"",""0"",""0""
""focus"",""0"",""0""
""focus"",""2"",""11938""
""focus"",""9"",""58657""
","""event"",""trial"",""time""
""fullscreenenter"",""1"",""2264""
","
",,345,run_exp/static/images/task_images/land.jpg,65,,,,,,,51,,,3,,,,,,,,70024,1,0,FALSE,,,
dig,107,454062,0.0-38.0-0.0,"""event"",""trial"",""time""
""focus"",""0"",""0""
""blur"",""0"",""0""
""focus"",""0"",""0""
""blur"",""0"",""0""
""focus"",""0"",""0""
""fullscreenenter"",""1"",""2264""
""blur"",""2"",""5645""
""focus"",""2"",""11938""
""blur"",""9"",""57663""
""focus"",""9"",""58657""
","""event"",""trial"",""time""
""blur"",""0"",""0""
""blur"",""0"",""0""
""blur"",""2"",""5645""
""blur"",""9"",""57663""
","""event"",""trial"",""time""
""focus"",""0"",""0""
""focus"",""0"",""0""
""focus"",""0"",""0""
""focus"",""2"",""11938""
""focus"",""9"",""58657""
","""event"",""trial"",""time""
""fullscreenenter"",""1"",""2264""
","
",,,,,,,,,,,,"[{""stimulus"":""run_exp/static/images/task_images/dig.jpg"",""time"":0},{""stimulus"":""run_exp/static/images/task_images/land.jpg"",""time"":886},{""stimulus"":""run_exp/static/images/task_images/dig.jpg"",""time"":1774}]",[],3,,,,,,,,,,,,,,
harvest,108,455067,0.0-38.0-1.0,"""event"",""trial"",""time""
""focus"",""0"",""0""
""blur"",""0"",""0""
""focus"",""0"",""0""
""blur"",""0"",""0""
""focus"",""0"",""0""
""fullscreenenter"",""1"",""2264""
""blur"",""2"",""5645""
""focus"",""2"",""11938""
""blur"",""9"",""57663""
""focus"",""9"",""58657""
","""event"",""trial"",""time""
""blur"",""0"",""0""
""blur"",""0"",""0""
""blur"",""2"",""5645""
""blur"",""9"",""57663""
","""event"",""trial"",""time""
""focus"",""0"",""0""
""focus"",""0"",""0""
""focus"",""0"",""0""
""focus"",""2"",""11938""
""focus"",""9"",""58657""
","""event"",""trial"",""time""
""fullscreenenter"",""1"",""2264""
","
",,null,run_exp/static/images/task_images/gems/51.jpg,null,,,,,,,23,,,3,,,,,51,0.458285284,0.450980392,,,,,,,
decision,109,455675,0.0-38.0-2.0,"""event"",""trial"",""time""
""focus"",""0"",""0""
""blur"",""0"",""0""
""focus"",""0"",""0""
""blur"",""0"",""0""
""focus"",""0"",""0""
""fullscreenenter"",""1"",""2264""
""blur"",""2"",""5645""
""focus"",""2"",""11938""
""blur"",""9"",""57663""
""focus"",""9"",""58657""
","""event"",""trial"",""time""
""blur"",""0"",""0""
""blur"",""0"",""0""
""blur"",""2"",""5645""
""blur"",""9"",""57663""
","""event"",""trial"",""time""
""focus"",""0"",""0""
""focus"",""0"",""0""
""focus"",""0"",""0""
""focus"",""2"",""11938""
""focus"",""9"",""58657""
","""event"",""trial"",""time""
""fullscreenenter"",""1"",""2264""
","
",,608,run_exp/static/images/task_images/land.jpg,65,,,,,,,23,,,3,,,,,,,,74301,1,1,FALSE,,,
dig,110,458078,0.0-39.0-0.0,"""event"",""trial"",""time""
""focus"",""0"",""0""
""blur"",""0"",""0""
""focus"",""0"",""0""
""blur"",""0"",""0""
""focus"",""0"",""0""
""fullscreenenter"",""1"",""2264""
""blur"",""2"",""5645""
""focus"",""2"",""11938""
""blur"",""9"",""57663""
""focus"",""9"",""58657""
","""event"",""trial"",""time""
""blur"",""0"",""0""
""blur"",""0"",""0""
""blur"",""2"",""5645""
""blur"",""9"",""57663""
","""event"",""trial"",""time""
""focus"",""0"",""0""
""focus"",""0"",""0""
""focus"",""0"",""0""
""focus"",""2"",""11938""
""focus"",""9"",""58657""
","""event"",""trial"",""time""
""fullscreenenter"",""1"",""2264""
","
",,,,,,,,,,,,"[{""stimulus"":""run_exp/static/images/task_images/dig.jpg"",""time"":0},{""stimulus"":""run_exp/static/images/task_images/land.jpg"",""time"":798},{""stimulus"":""run_exp/static/images/task_images/dig.jpg"",""time"":1600}]",[],3,,,,,,,,,,,,,,
harvest,111,459082,0.0-39.0-1.0,"""event"",""trial"",""time""
""focus"",""0"",""0""
""blur"",""0"",""0""
""focus"",""0"",""0""
""blur"",""0"",""0""
""focus"",""0"",""0""
""fullscreenenter"",""1"",""2264""
""blur"",""2"",""5645""
""focus"",""2"",""11938""
""blur"",""9"",""57663""
""focus"",""9"",""58657""
","""event"",""trial"",""time""
""blur"",""0"",""0""
""blur"",""0"",""0""
""blur"",""2"",""5645""
""blur"",""9"",""57663""
","""event"",""trial"",""time""
""focus"",""0"",""0""
""focus"",""0"",""0""
""focus"",""0"",""0""
""focus"",""2"",""11938""
""focus"",""9"",""58657""
","""event"",""trial"",""time""
""fullscreenenter"",""1"",""2264""
","
",,null,run_exp/static/images/task_images/gems/23.jpg,null,,,,,,,13,,,3,,,,,23,0.544158901,0.565217391,,,,,,,
decision,112,459642,0.0-39.0-2.0,"""event"",""trial"",""time""
""focus"",""0"",""0""
""blur"",""0"",""0""
""focus"",""0"",""0""
""blur"",""0"",""0""
""focus"",""0"",""0""
""fullscreenenter"",""1"",""2264""
""blur"",""2"",""5645""
""focus"",""2"",""11938""
""blur"",""9"",""57663""
""focus"",""9"",""58657""
","""event"",""trial"",""time""
""blur"",""0"",""0""
""blur"",""0"",""0""
""blur"",""2"",""5645""
""blur"",""9"",""57663""
","""event"",""trial"",""time""
""focus"",""0"",""0""
""focus"",""0"",""0""
""focus"",""0"",""0""
""focus"",""2"",""11938""
""focus"",""9"",""58657""
","""event"",""trial"",""time""
""fullscreenenter"",""1"",""2264""
","
",,560,run_exp/static/images/task_images/land.jpg,65,,,,,,,13,,,3,,,,,,,,78268,1,2,FALSE,,,
dig,113,462092,0.0-40.0-0.0,"""event"",""trial"",""time""
""focus"",""0"",""0""
""blur"",""0"",""0""
""focus"",""0"",""0""
""blur"",""0"",""0""
""focus"",""0"",""0""
