trial_type,trial_index,time_elapsed,internal_node_id,success,rt,stimulus,key_press,prompt,subject_id,age,gender,button_pressed,next_reward,animation_sequence,responses,planet,curr_prac_trial,n_prac_rounds,alien,aliens,reward_received,decay_rate_actual,decay_rate_exp,time_in_block,block_num,prt,last_trial_on_planet,button_html,bonus,num_failures
pavlovia,0,8,0.0-0.0,,,,,,,,,,,,,,,,,,,,,,,,,,,
fullscreen,1,8245,0.0-1.0,TRUE,,,,,,,,,,,,,,,,,,,,,,,,,,
instruc_welcome,2,17996,0.0-2.0,,null,run_exp/static/audio/clip_1_welcome.m4a,null,"<p>Howdy! In this experiment, you’ll be an explorer traveling through space to collect space treasure.</p><p>Your mission is to collect as much treasure as possible.</p><br><br><p><img src='run_exp/static/images/task_images/opening_img-01.jpg' height='300' width='auto'></p>",ScZlWtJmDLGDRVe_a5Ke5UddwllDBGZ_MLRP_0w9OYVyOUqYaGlo,8.48,female,,,,,,,,,,,,,,,,,,,
audio-keyboard-response,3,34579,0.0-3.0,,null,run_exp/static/audio/clip_2_move.m4a,null,,,,,,,,,,,,,,,,,,,,,,,
welcome_dec,4,45438,0.0-4.0,,10855,"<p>Howdy! In this experiment, you’ll be an explorer traveling through space to collect space treasure.</p><p>Your mission is to collect as much treasure as possible.</p><br><br><p><img src='run_exp/static/images/task_images/opening_img-01.jpg' height='300' width='auto'></p>",,,,,,1,,,,,,,,,,,,,,,,,,
html-keyboard-response,5,47988,0.0-5.0,,2547,"<p>Howdy! In this experiment, you’ll be an explorer traveling through space to collect space treasure.</p><p>Your mission is to collect as much treasure as possible.</p><br><br><p><img src='run_exp/static/images/task_images/opening_img-01.jpg' height='300' width='auto'></p><button class=""jspsych-html-btn-unchosen""><img src=""run_exp/static/images/task_images/planet-01.jpg"" height=""50""></button><button class=""jspsych-html-btn-chosen""><img src=""run_exp/static/images/task_images/planet-02.jpg"" height=""50""></button><p><b>[press the space bar to lock in your answer]<b><br></p>",32,,,,,,,,,,,,,,,,,,,,,,,
instruc_goal,6,58036,0.0-6.0-0.0,,null,run_exp/static/audio/clip_3_goal.m4a,null,"<p> As a space explorer, you’ll visit different planets to dig for space treasure, these pink gems.</p> <p> The more treasure you dig up, the more bonus money you’ll win! </p><br><br><p><img src='run_exp/static/images/task_images/pink_gem.jpg' height='300' width='auto'></p>",,,,,,,,,,,,,,,,,,,,,,
instruc_goal,7,60606,0.0-6.0-1.0,,2564,"<p> As a space explorer, you’ll visit different planets to dig for space treasure, these pink gems.</p> <p> The more treasure you dig up, the more bonus money you’ll win! </p><br><br><p><img src='run_exp/static/images/task_images/pink_gem.jpg' height='300' width='auto'></p>",,,,,,1,,,,,,,,,,,,,,,,,,
html-keyboard-response,8,62663,0.0-6.0-2.0,,2055,"<p> As a space explorer, you’ll visit different planets to dig for space treasure, these pink gems.</p> <p> The more treasure you dig up, the more bonus money you’ll win! </p><br><br><p><img src='run_exp/static/images/task_images/pink_gem.jpg' height='300' width='auto'></p><button class=""jspsych-html-btn-unchosen""><img src=""run_exp/static/images/task_images/planet-01.jpg"" height=""50""></button><button class=""jspsych-html-btn-chosen""><img src=""run_exp/static/images/task_images/planet-02.jpg"" height=""50""></button><p><b>[press the space bar to lock in your answer]<b><br></p>",32,,,,,,,,,,,,,,,,,,,,,,,
instruc_dig,9,78664,0.0-7.0-0.0,,null,run_exp/static/audio/clip_4_dig.m4a,null,,,,,,100,,,,,,,,,,,,,,,,,
instruc_dig_try,10,79888,0.0-7.0-1.0,,1220,"<p> When you’ve arrived at a new planet, you will dig once. </p> <p>Then, you get to decide if you want to stay on the planet and dig again or travel to a new planet and dig there.</p> <p> To stay and dig, press the letter <strong>‘A’</strong> on your keyboard. Try pressing it now! </p><p><img src='run_exp/static/images/task_images/land.jpg'  height='700' width='auto'></p>",65,"<p> When you’ve arrived at a new planet, you will dig once. </p> <p>Then, you get to decide if you want to stay on the planet and dig again or travel to a new planet and dig there.</p> <p> To stay and dig, press the letter <strong>‘A’</strong> on your keyboard. Try pressing it now! </p><p><img src='run_exp/static/images/task_images/land.jpg'  height='700' width='auto'></p>",,,,,100,,,,,,,,,,,,,,,,,
dig_prac,11,81956,0.0-7.0-2.0,,,,,,,,,,,"[{""stimulus"":""run_exp/static/images/task_images/dig.jpg"",""time"":0},{""stimulus"":""run_exp/static/images/task_images/land.jpg"",""time"":671},{""stimulus"":""run_exp/static/images/task_images/dig.jpg"",""time"":1339}]",[],,,,,,,,,,,,,,,
instruc_travel,12,118189,0.0-7.0-3.0,,null,run_exp/static/audio/clip_5_travel.m4a,null,"<p>Every time you dig up gems, there are less gems on the planet, so the more you dig on a planet the fewer gems you’ll get with each dig.</p><p>When gems are running low, you may want to travel to a new planet. </p> <p>  Planets are very far apart in this galaxy, so it will take some time to travel between them. </p> <br><p>There are lots and lots of planets for you to visit, so you won’t be able to return to any planets you’ve seen before. </p><br><p>To leave this planet and travel to a new one, press the letter <strong>‘L’</strong> on your keyboard. Try pressing it now! </p><p><img src='run_exp/static/images/task_images/rocket-01.jpg'  height='600' width='auto'></p>",,,,,,,,,,,,,,,,,,,,,,
instruc_travel_try,13,119107,0.0-7.0-4.0,,916,"<p>Every time you dig up gems, there are less gems on the planet, so the more you dig on a planet the fewer gems you’ll get with each dig.</p><p>When gems are running low, you may want to travel to a new planet. </p> <p>  Planets are very far apart in this galaxy, so it will take some time to travel between them. </p> <br><p>There are lots and lots of planets for you to visit, so you won’t be able to return to any planets you’ve seen before. </p><br><p>To leave this planet and travel to a new one, press the letter <strong>‘L’</strong> on your keyboard. Try pressing it now! </p><p><img src='run_exp/static/images/task_images/rocket-01.jpg'  height='600' width='auto'></p>",76,"<p>Every time you dig up gems, there are less gems on the planet, so the more you dig on a planet the fewer gems you’ll get with each dig.</p><p>When gems are running low, you may want to travel to a new planet. </p> <p>  Planets are very far apart in this galaxy, so it will take some time to travel between them. </p> <br><p>There are lots and lots of planets for you to visit, so you won’t be able to return to any planets you’ve seen before. </p><br><p>To leave this planet and travel to a new one, press the letter <strong>‘L’</strong> on your keyboard. Try pressing it now! </p><p><img src='run_exp/static/images/task_images/rocket-01.jpg'  height='600' width='auto'></p>",,,,,,,,,,,,,,,,,,,,,,
travel_prac,14,129150,0.0-7.0-5.0,,,,,,,,,,,"[{""stimulus"":""run_exp/static/images/task_images/rocket-01.jpg"",""time"":1},{""stimulus"":""run_exp/static/images/task_images/rocket-02.jpg"",""time"":1114},{""stimulus"":""run_exp/static/images/task_images/rocket-03.jpg"",""time"":2229},{""stimulus"":""run_exp/static/images/task_images/rocket-04.jpg"",""time"":3345},{""stimulus"":""run_exp/static/images/task_images/rocket-05.jpg"",""time"":4461},{""stimulus"":""run_exp/static/images/task_images/rocket-06.jpg"",""time"":5575},{""stimulus"":""run_exp/static/images/task_images/rocket-07.jpg"",""time"":6691},{""stimulus"":""run_exp/static/images/task_images/rocket-08.jpg"",""time"":7803},{""stimulus"":""run_exp/static/images/task_images/rocket-09.jpg"",""time"":8920}]",[],0,,,,,,,,,,,,,,
instruc_alien_greet,15,156364,0.0-7.0-6.0,,null,run_exp/static/audio/clip_6_alien.m4a,null,"<p>When you arrive at a new planet, the alien who owns the treasure mine on that planet will greet you!</p><p>The better an alien takes care of their mine the easier it is to dig for gems. Some aliens take better care of their mine than others. So, you won’t get exactly the same amount of gems on each planet.</p><p>What the alien looks like does not tell you anything about how many gems there are on the planet.</p><br><p><img src=""run_exp/static/images/task_images/aliens/instructions_aliens/planet/alien_planet-1.jpg""  height=""600"" width=""auto""></p>",,,,,,,,,,,,,,,,,,,,,,
instruc_alien_greet,16,166412,0.0-7.0-7.0,,10046,"<p>When you arrive at a new planet, the alien who owns the treasure mine on that planet will greet you!</p><p>The better an alien takes care of their mine the easier it is to dig for gems. Some aliens take better care of their mine than others. So, you won’t get exactly the same amount of gems on each planet.</p><p>What the alien looks like does not tell you anything about how many gems there are on the planet.</p><br><p><img src=""run_exp/static/images/task_images/aliens/instructions_aliens/planet/alien_planet-1.jpg""  height=""600"" width=""auto""></p>",,,,,,1,,,,,,,,,,,,,,,,,,
html-keyboard-response,17,166932,0.0-7.0-8.0,,518,"<p>When you arrive at a new planet, the alien who owns the treasure mine on that planet will greet you!</p><p>The better an alien takes care of their mine the easier it is to dig for gems. Some aliens take better care of their mine than others. So, you won’t get exactly the same amount of gems on each planet.</p><p>What the alien looks like does not tell you anything about how many gems there are on the planet.</p><br><p><img src=""run_exp/static/images/task_images/aliens/instructions_aliens/planet/alien_planet-1.jpg""  height=""600"" width=""auto""></p><button class=""jspsych-html-btn-unchosen""><img src=""run_exp/static/images/task_images/planet-01.jpg"" height=""50""></button><button class=""jspsych-html-btn-chosen""><img src=""run_exp/static/images/task_images/planet-02.jpg"" height=""50""></button><p><b>[press the space bar to lock in your answer]<b><br></p>",32,,,,,,,,,,,,,,,,,,,,,,,
time_out,18,178012,0.0-8.0-0.0,,null,run_exp/static/audio/clip_7_timeout.m4a,null,"<p>If you don't make your choice fast enough, you’ll have to wait a few seconds before you can make another one.</p><p>You can’t dig for more gems or travel to new planets. You just have to sit and wait.</p><br><p><img src='run_exp/static/images/task_images/time_out.jpg'  height='600' width='auto'></p>",,,,,,,,,,,,,,,,,,,,,,
time_out,19,180150,0.0-8.0-1.0,,2136,"<p>If you don't make your choice fast enough, you’ll have to wait a few seconds before you can make another one.</p><p>You can’t dig for more gems or travel to new planets. You just have to sit and wait.</p><br><p><img src='run_exp/static/images/task_images/time_out.jpg'  height='600' width='auto'></p>",,,,,,1,,,,,,,,,,,,,,,,,,
html-keyboard-response,20,183102,0.0-8.0-2.0,,2951,"<p>If you don't make your choice fast enough, you’ll have to wait a few seconds before you can make another one.</p><p>You can’t dig for more gems or travel to new planets. You just have to sit and wait.</p><br><p><img src='run_exp/static/images/task_images/time_out.jpg'  height='600' width='auto'></p><button class=""jspsych-html-btn-unchosen""><img src=""run_exp/static/images/task_images/planet-01.jpg"" height=""50""></button><button class=""jspsych-html-btn-chosen""><img src=""run_exp/static/images/task_images/planet-02.jpg"" height=""50""></button><p><b>[press the space bar to lock in your answer]<b><br></p>",32,,,,,,,,,,,,,,,,,,,,,,,
instruc_break,21,198783,0.0-9.0-0.0,,null,run_exp/static/audio/clip_8_break.m4a,null,"<p> After digging and traveling for a while, you’ll be able to take a break at home base. </p><p>The game will last 20 minutes no matter what.</p><p>You will visit home base every 5 minutes, so, you will visit home base three times during the game.</p><br><p><img src='run_exp/static/images/task_images/home_base.jpg' height='600' width='auto'></p>",,,,,,,,,,,,,,,,,,,,,,
instruc_break,22,203486,0.0-9.0-1.0,,4701,"<p> After digging and traveling for a while, you’ll be able to take a break at home base. </p><p>The game will last 20 minutes no matter what.</p><p>You will visit home base every 5 minutes, so, you will visit home base three times during the game.</p><br><p><img src='run_exp/static/images/task_images/home_base.jpg' height='600' width='auto'></p>",,,,,,1,,,,,,,,,,,,,,,,,,
html-keyboard-response,23,204259,0.0-9.0-2.0,,770,"<p> After digging and traveling for a while, you’ll be able to take a break at home base. </p><p>The game will last 20 minutes no matter what.</p><p>You will visit home base every 5 minutes, so, you will visit home base three times during the game.</p><br><p><img src='run_exp/static/images/task_images/home_base.jpg' height='600' width='auto'></p><button class=""jspsych-html-btn-unchosen""><img src=""run_exp/static/images/task_images/planet-01.jpg"" height=""50""></button><button class=""jspsych-html-btn-chosen""><img src=""run_exp/static/images/task_images/planet-02.jpg"" height=""50""></button><p><b>[press the space bar to lock in your answer]<b><br></p>",32,,,,,,,,,,,,,,,,,,,,,,,
instruc_prac_game,24,214368,0.0-10.0-0.0,,null,run_exp/static/audio/clip_9_practice.m4a,null,"<p> Are you ready to play a practice game? </p> <p>In this practice game, you'll be digging up barrels of gems. But, in the real game, you'll be digging up the gems themselves. </p>",,,,,,,,,,,,,,,,,,,,,,
html-button-response,25,216222,0.0-10.0-1.0,,1852,"<p> Are you ready to play a practice game? </p> <p>In this practice game, you'll be digging up barrels of gems. But, in the real game, you'll be digging up the gems themselves. </p>",,,,,,0,,,,,,,,,,,,,,,,,,
alien_welcome_prac,26,221229,0.0-11.0-0.0,,null,run_exp/static/images/task_images/aliens/practice_aliens/planet/alien_planet-5.jpg,null,,,,,,,,,,,,,,,,,,,,,,,
land_prac,27,221736,0.0-11.0-1.0,,null,run_exp/static/images/task_images/land.jpg,null,,,,,,100,,,0,,,,,,,,,,,,,,
dig_prac,28,223756,0.0-11.0-2.0,,,,,,,,,,,"[{""stimulus"":""run_exp/static/images/task_images/dig.jpg"",""time"":1},{""stimulus"":""run_exp/static/images/task_images/land.jpg"",""time"":671},{""stimulus"":""run_exp/static/images/task_images/dig.jpg"",""time"":1342}]",[],,,,,,,,,,,,,,,
harvest_prac,29,224759,0.0-11.0-3.0,,null,run_exp/static/images/task_images/barrel_text.jpg,null,,,,,,,,,,,,,,,,,,,,,,,
decision_prac,30,227762,0.0-11.0-4.0,,null,run_exp/static/images/task_images/land.jpg,null,,,,,,,,,,1,,,,,,,,,,,,,
time_out,31,229769,0.0-12.0-0.0,,null,run_exp/static/images/task_images/time_out.jpg,null,,,,,,,,,,,,,,,,,,,,,,,
decision_prac,32,231177,0.0-12.0-1.0,,1407,run_exp/static/images/task_images/land.jpg,65,,,,,,,,,,2,,,,,,,,,,,,,
dig_prac,33,233199,0.0-13.0-0.0,,,,,,,,,,,"[{""stimulus"":""run_exp/static/images/task_images/dig.jpg"",""time"":1},{""stimulus"":""run_exp/static/images/task_images/land.jpg"",""time"":669},{""stimulus"":""run_exp/static/images/task_images/dig.jpg"",""time"":1339}]",[],,,,,,,,,,,,,,,
harvest_prac,34,234201,0.0-13.0-1.0,,null,run_exp/static/images/task_images/barrel_text.jpg,null,,,,,,,,,,,,,,,,,,,,,,,
decision_prac,35,234680,0.0-13.0-2.0,,476,run_exp/static/images/task_images/land.jpg,65,,,,,,,,,,3,,,,,,,,,,,,,
dig_prac,36,236705,0.0-14.0-0.0,,,,,,,,,,,"[{""stimulus"":""run_exp/static/images/task_images/dig.jpg"",""time"":0},{""stimulus"":""run_exp/static/images/task_images/land.jpg"",""time"":672},{""stimulus"":""run_exp/static/images/task_images/dig.jpg"",""time"":1345}]",[],,,,,,,,,,,,,,,
harvest_prac,37,237709,0.0-14.0-1.0,,null,run_exp/static/images/task_images/barrel_text.jpg,null,,,,,,,,,,,,,,,,,,,,,,,
decision_prac,38,238151,0.0-14.0-2.0,,440,run_exp/static/images/task_images/land.jpg,65,,,,,,,,,,4,,,,,,,,,,,,,
dig_prac,39,240169,0.0-15.0-0.0,,,,,,,,,,,"[{""stimulus"":""run_exp/static/images/task_images/dig.jpg"",""time"":0},{""stimulus"":""run_exp/static/images/task_images/land.jpg"",""time"":670},{""stimulus"":""run_exp/static/images/task_images/dig.jpg"",""time"":1338}]",[],,,,,,,,,,,,,,,
harvest_prac,40,241176,0.0-15.0-1.0,,null,run_exp/static/images/task_images/barrel_text.jpg,null,,,,,,,,,,,,,,,,,,,,,,,
decision_prac,41,241294,0.0-15.0-2.0,,116,run_exp/static/images/task_images/land.jpg,65,,,,,,,,,,,1,,,,,,,,,,,,
quiz_instruc,42,252480,0.0-16.0-0.0,,11182,run_exp/static/audio/clip_10_quiz.m4a,,,,,,0,,,,,,,,,,,,,,,,,,
instruc_repeat,43,295235,0.0-16.0-1.0,,null,"<p> Are you ready to play a practice game? </p> <p>In this practice game, you'll be digging up barrels of gems. But, in the real game, you'll be digging up the gems themselves. </p>",null,"<p>In this game, your goal is to collect as many gems as you can. That’s how you will win bonus money. </p> <p>The entire game will last 20 minutes no matter how many gems you collect or how many planets you visit. </p><p>To stay on a planet and dig again, press the letter A on your keyboard. To leave for a new planet, press the letter L.</p><p>The more you dig on a planet, the fewer gems you’ll get with each dig which is why you might consider leaving for a new planet. </p><p>When you arrive at a new planet, you’ll be greeted by an alien. What the alien looks like does not tell you anything about how much treasure is on the planet. </p>",,,,,,,,,,,,,,,,,,,,,,
instruc_repeat_continue,44,298611,0.0-16.0-2.0,,3376,"<p> Are you ready to play a practice game? </p> <p>In this practice game, you'll be digging up barrels of gems. But, in the real game, you'll be digging up the gems themselves. </p>",,,,,,0,,,,,,,,,,,,,,,,,,
quiz_q_1_ask,45,307221,0.0-16.0-3.0,,8609,run_exp/static/audio/clip_11_q1_ask.m4a,,,,,,2,,,,,,,,,,,,,,,,,,
quiz_q_1_fb_correct,46,311059,0.0-17.0-0.0,,null,run_exp/static/audio/clip_12_q1_corrrect.m4a,null,<p>That’s correct. You win extra money by collecting more gems.</p>,,,,,,,,,,,,,,,,,,,,,,
quiz_q_2_ask,47,319210,0.0-17.0-1.0,,8148,run_exp/static/audio/clip_14_q2_ask.m4a,,,,,,1,,,,,,,,,,,,,,,,,,
quiz_q_2_fb_correct,48,323212,0.0-18.0-0.0,,null,run_exp/static/audio/clip_15_q2_correct.m4a,null,<p>That’s correct. The experiment is 20 minutes no matter what.</p>,,,,,,,,,,,,,,,,,,,,,,
quiz_q_3_ask,49,328652,0.0-18.0-1.0,,5439,run_exp/static/audio/clip_17_q3_ask.m4a,,,,,,1,,,,,,,,,,,,,,,,,,
quiz_q_3_fb_correct,50,332631,0.0-19.0-0.0,,null,run_exp/static/audio/clip_18_q3_correct.m4a,null,<p> That’s correct. You press the letter L to travel to a new planet.</p>,,,,,,,,,,,,,,,,,,,,,,
quiz_q_4_ask,51,338476,0.0-19.0-1.0,,5843,run_exp/static/audio/clip_20_q4_ask.m4a,,,,,,0,,,,,,,,,,,,,,,,,,
quiz_q_4_fb_correct,52,343832,0.0-20.0-0.0,,null,run_exp/static/audio/clip_21_q4_correct.m4a,null,<p> That’s correct. The more you dig on a planet the fewer gems you’ll get with each dig. </p>,,,,,,,,,,,,,,,,,,,,,,
quiz_q_5_ask,53,347457,0.0-20.0-1.0,,3624,run_exp/static/audio/clip_23_q5_ask.m4a,,,,,,1,,,,,,,,,,,,,,,,,,
quiz_q_5_fb_correct,54,352450,0.0-21.0-0.0,,null,run_exp/static/audio/clip_24_q5_correct.m4a,null,<p> That’s correct. The alien tells you nothing about how much treasure is on the planet.</p>,,,,,,,,,,,,,,,,,,,,,,
quiz_correct,55,355910,0.0-22.0-0.0,,null,run_exp/static/audio/clip_26_correct_quiz.m4a,null,,,,,,,,,,,,,,,,,,,,,,,
quiz_correct_continue,56,358008,0.0-22.0-1.0,,2097,<p>Good job! You're now ready to move on to the real game!</p>,,,,,,0,,,,,,,,,,,,,,,,,,
audio-keyboard-response,57,368120,0.0-22.0-2.0,,null,run_exp/static/audio/clip_28_real_game.m4a,null,,,,,,,,,,,,,,,,,,,,,,,
instruc_begin_exp_contine,58,370813,0.0-22.0-3.0,,2692,"<p>Now that you know how  to dig for space treasure and travel to new planets,you can start exploring! </p><p>Do you want to go over the instructions again or get started with the real game?</p>",,,,,,1,,,,,,1,,,,,,,,,,,,
alien_welcome,59,375817,0.0-23.0-0.0,,null,run_exp/static/images/task_images/aliens/old_aliens/planet/alien_planet-71.jpg,null,,,,,,,,,,,,71,"71,19,6,47,73,66,30,56,1,77,65,10,78,75,29,23,32,11,31,16,50,52,37,44,74,70,76,55",,,,,,,,,,
land,60,376323,0.0-23.0-1.0,,null,run_exp/static/images/task_images/land.jpg,null,,,,,,106,,,1,,,,,,,,,,,,,,
dig,61,378342,0.0-23.0-2.0,,,,,,,,,,,"[{""stimulus"":""run_exp/static/images/task_images/dig.jpg"",""time"":0},{""stimulus"":""run_exp/static/images/task_images/land.jpg"",""time"":668},{""stimulus"":""run_exp/static/images/task_images/dig.jpg"",""time"":1337}]",[],1,,,,,,,,,,,,,,
harvest,62,379347,0.0-23.0-3.0,,null,run_exp/static/images/task_images/gems/106.jpg,null,,,,,,23,,,1,,,,,106,0.2211779,0.216981132,,,,,,,
decision,63,379768,0.0-23.0-4.0,,419,run_exp/static/images/task_images/land.jpg,65,,,,,,23,,,1,,,,,,,,8954,1,0,FALSE,,,
dig,64,382372,0.0-24.0-0.0,,,,,,,,,,,"[{""stimulus"":""run_exp/static/images/task_images/dig.jpg"",""time"":1},{""stimulus"":""run_exp/static/images/task_images/land.jpg"",""time"":864},{""stimulus"":""run_exp/static/images/task_images/dig.jpg"",""time"":1729}]",[],1,,,,,,,,,,,,,,
harvest,65,383378,0.0-24.0-1.0,,null,run_exp/static/images/task_images/gems/23.jpg,null,,,,,,6,,,1,,,,,23,0.256317781,0.260869565,,,,,,,
decision,66,383666,0.0-24.0-2.0,,287,run_exp/static/images/task_images/land.jpg,65,,,,,,6,,,1,,,,,,,,12851,1,1,FALSE,,,
dig,67,386407,0.0-25.0-0.0,,,,,,,,,,,"[{""stimulus"":""run_exp/static/images/task_images/dig.jpg"",""time"":1},{""stimulus"":""run_exp/static/images/task_images/land.jpg"",""time"":916},{""stimulus"":""run_exp/static/images/task_images/dig.jpg"",""time"":1823}]",[],1,,,,,,,,,,,,,,
harvest,68,387412,0.0-25.0-1.0,,null,run_exp/static/images/task_images/gems/6.jpg,null,,,,,,1,,,1,,,,,6,0.236897809,0.166666667,,,,,,,
decision,69,387742,0.0-25.0-2.0,,330,run_exp/static/images/task_images/land.jpg,65,,,,,,1,,,1,,,,,,,,16928,1,2,FALSE,,,
dig,70,390434,0.0-26.0-0.0,,,,,,,,,,,"[{""stimulus"":""run_exp/static/images/task_images/dig.jpg"",""time"":1},{""stimulus"":""run_exp/static/images/task_images/land.jpg"",""time"":895},{""stimulus"":""run_exp/static/images/task_images/dig.jpg"",""time"":1790}]",[],1,,,,,,,,,,,,,,
harvest,71,391438,0.0-26.0-1.0,,null,run_exp/static/images/task_images/gems/1.jpg,null,,,,,,0,,,1,,,,,1,0.171934929,0,,,,,,,
decision,72,392559,0.0-26.0-2.0,,1121,run_exp/static/images/task_images/land.jpg,76,,,,,,0,,,1,,,,,,,,21744,1,3,TRUE,,,
travel,73,401506,0.0-27.0-0.0,,,,,,,,,,,"[{""stimulus"":""run_exp/static/images/task_images/rocket-01.jpg"",""time"":0},{""stimulus"":""run_exp/static/images/task_images/rocket-02.jpg"",""time"":987},{""stimulus"":""run_exp/static/images/task_images/rocket-03.jpg"",""time"":1978},{""stimulus"":""run_exp/static/images/task_images/rocket-04.jpg"",""time"":2969},{""stimulus"":""run_exp/static/images/task_images/rocket-05.jpg"",""time"":3958},{""stimulus"":""run_exp/static/images/task_images/rocket-06.jpg"",""time"":4947},{""stimulus"":""run_exp/static/images/task_images/rocket-07.jpg"",""time"":5949},{""stimulus"":""run_exp/static/images/task_images/rocket-08.jpg"",""time"":6939},{""stimulus"":""run_exp/static/images/task_images/rocket-09.jpg"",""time"":7930}]",[],1,,,,,,,,,,,,,,
alien_welcome,74,406510,0.0-27.0-1.0,,null,run_exp/static/images/task_images/aliens/old_aliens/planet/alien_planet-19.jpg,null,,,,,,,,,,,,19,"71,19,6,47,73,66,30,56,1,77,65,10,78,75,29,23,32,11,31,16,50,52,37,44,74,70,76,55",,,,,,,,,,
land,75,407016,0.0-27.0-2.0,,null,run_exp/static/images/task_images/land.jpg,null,,,,,,95,,,2,,,,,,,,,,,,,,
dig,76,409034,0.0-27.0-3.0,,,,,,,,,,,"[{""stimulus"":""run_exp/static/images/task_images/dig.jpg"",""time"":0},{""stimulus"":""run_exp/static/images/task_images/land.jpg"",""time"":669},{""stimulus"":""run_exp/static/images/task_images/dig.jpg"",""time"":1340}]",[],2,,,,,,,,,,,,,,
harvest,77,410040,0.0-27.0-4.0,,null,run_exp/static/images/task_images/gems/95.jpg,null,,,,,,22,,,2,,,,,95,0.235676617,0.231578947,,,,,,,
decision,78,410293,0.0-27.0-5.0,,252,run_exp/static/images/task_images/land.jpg,65,,,,,,22,,,2,,,,,,,,39478,1,0,FALSE,,,
dig,79,413058,0.0-28.0-0.0,,,,,,,,,,,"[{""stimulus"":""run_exp/static/images/task_images/dig.jpg"",""time"":0},{""stimulus"":""run_exp/static/images/task_images/land.jpg"",""time"":922},{""stimulus"":""run_exp/static/images/task_images/dig.jpg"",""time"":1840}]",[],2,,,,,,,,,,,,,,
harvest,80,414065,0.0-28.0-1.0,,null,run_exp/static/images/task_images/gems/22.jpg,null,,,,,,5,,,2,,,,,22,0.23456447,0.227272727,,,,,,,
decision,81,414289,0.0-28.0-2.0,,224,run_exp/static/images/task_images/land.jpg,65,,,,,,5,,,2,,,,,,,,43474,1,1,FALSE,,,
dig,82,417082,0.0-29.0-0.0,,,,,,,,,,,"[{""stimulus"":""run_exp/static/images/task_images/dig.jpg"",""time"":0},{""stimulus"":""run_exp/static/images/task_images/land.jpg"",""time"":929},{""stimulus"":""run_exp/static/images/task_images/dig.jpg"",""time"":1858}]",[],2,,,,,,,,,,,,,,
harvest,83,418083,0.0-29.0-1.0,,null,run_exp/static/images/task_images/gems/5.jpg,null,,,,,,1,,,2,,,,,5,0.210330581,0.2,,,,,,,
decision,84,418414,0.0-29.0-2.0,,327,run_exp/static/images/task_images/land.jpg,65,,,,,,1,,,2,,,,,,,,47599,1,2,FALSE,,,
dig,85,421104,0.0-30.0-0.0,,,,,,,,,,,"[{""stimulus"":""run_exp/static/images/task_images/dig.jpg"",""time"":0},{""stimulus"":""run_exp/static/images/task_images/land.jpg"",""time"":893},{""stimulus"":""run_exp/static/images/task_images/dig.jpg"",""time"":1786}]",[],2,,,,,,,,,,,,,,
harvest,86,422107,0.0-30.0-1.0,,null,run_exp/static/images/task_images/gems/1.jpg,null,,,,,,0,,,2,,,,,1,0.278637149,0,,,,,,,
decision,87,422154,0.0-30.0-2.0,,46,run_exp/static/images/task_images/land.jpg,76,,,,,,0,,,2,,,,,,,,51339,1,3,TRUE,,,
travel,88,432146,0.0-31.0-0.0,,,,,,,,,,,"[{""stimulus"":""run_exp/static/images/task_images/rocket-01.jpg"",""time"":0},{""stimulus"":""run_exp/static/images/task_images/rocket-02.jpg"",""time"":1111},{""stimulus"":""run_exp/static/images/task_images/rocket-03.jpg"",""time"":2221},{""stimulus"":""run_exp/static/images/task_images/rocket-04.jpg"",""time"":3330},{""stimulus"":""run_exp/static/images/task_images/rocket-05.jpg"",""time"":4437},{""stimulus"":""run_exp/static/images/task_images/rocket-06.jpg"",""time"":5546},{""stimulus"":""run_exp/static/images/task_images/rocket-07.jpg"",""time"":6653},{""stimulus"":""run_exp/static/images/task_images/rocket-08.jpg"",""time"":7761},{""stimulus"":""run_exp/static/images/task_images/rocket-09.jpg"",""time"":8870}]",[],2,,,,,,,,,,,,,,
alien_welcome,89,437147,0.0-31.0-1.0,,null,run_exp/static/images/task_images/aliens/old_aliens/planet/alien_planet-6.jpg,null,,,,,,,,,,,,6,"71,19,6,47,73,66,30,56,1,77,65,10,78,75,29,23,32,11,31,16,50,52,37,44,74,70,76,55",,,,,,,,,,
land,90,437649,0.0-31.0-2.0,,null,run_exp/static/images/task_images/land.jpg,null,,,,,,105,,,3,,,,,,,,,,,,,,
dig,91,439669,0.0-31.0-3.0,,,,,,,,,,,"[{""stimulus"":""run_exp/static/images/task_images/dig.jpg"",""time"":0},{""stimulus"":""run_exp/static/images/task_images/land.jpg"",""time"":670},{""stimulus"":""run_exp/static/images/task_images/dig.jpg"",""time"":1341}]",[],3,,,,,,,,,,,,,,
harvest,92,440675,0.0-31.0-4.0,,null,run_exp/static/images/task_images/gems/105.jpg,null,,,,,,58,,,3,,,,,105,0.548545859,0.552380952,,,,,,,
decision,93,440717,0.0-31.0-5.0,,41,run_exp/static/images/task_images/land.jpg,65,,,,,,58,,,3,,,,,,,,69903,1,0,FALSE,,,
dig,94,443698,0.0-32.0-0.0,,,,,,,,,,,"[{""stimulus"":""run_exp/static/images/task_images/dig.jpg"",""time"":0},{""stimulus"":""run_exp/static/images/task_images/land.jpg"",""time"":990},{""stimulus"":""run_exp/static/images/task_images/dig.jpg"",""time"":1981}]",[],3,,,,,,,,,,,,,,
harvest,95,444700,0.0-32.0-1.0,,null,run_exp/static/images/task_images/gems/58.jpg,null,,,,,,31,,,3,,,,,58,0.526674925,0.534482759,,,,,,,
decision,96,444810,0.0-32.0-2.0,,110,run_exp/static/images/task_images/land.jpg,65,,,,,,31,,,3,,,,,,,,73996,1,1,FALSE,,,
dig,97,447715,0.0-33.0-0.0,,,,,,,,,,,"[{""stimulus"":""run_exp/static/images/task_images/dig.jpg"",""time"":0},{""stimulus"":""run_exp/static/images/task_images/land.jpg"",""time"":968},{""stimulus"":""run_exp/static/images/task_images/dig.jpg"",""time"":1931}]",[],3,,,,,,,,,,,,,,
harvest,98,448717,0.0-33.0-1.0,,null,run_exp/static/images/task_images/gems/31.jpg,null,,,,,,15,,,3,,,,,31,0.482553125,0.483870968,,,,,,,
decision,99,449304,0.0-33.0-2.0,,586,run_exp/static/images/task_images/land.jpg,65,,,,,,15,,,3,,,,,,,,78490,1,2,FALSE,,,
dig,100,451733,0.0-34.0-0.0,,,,,,,,,,,"[{""stimulus"":""run_exp/static/images/task_images/dig.jpg"",""time"":0},{""stimulus"":""run_exp/static/images/task_images/land.jpg"",""time"":805},{""stimulus"":""run_exp/static/images/task_images/dig.jpg"",""time"":1614}]",[],3,,,,,,,,,,,,,,
harvest,101,452735,0.0-34.0-1.0,,null,run_exp/static/images/task_images/gems/15.jpg,null,,,,,,7,,,3,,,,,15,0.474919063,0.466666667,,,,,,,
decision,102,452846,0.0-34.0-2.0,,109,run_exp/static/images/task_images/land.jpg,76,,,,,,7,,,3,,,,,,,,82031,1,3,TRUE,,,
travel,103,462773,0.0-35.0-0.0,,,,,,,,,,,"[{""stimulus"":""run_exp/static/images/task_images/rocket-01.jpg"",""time"":0},{""stimulus"":""run_exp/static/images/task_images/rocket-02.jpg"",""time"":1102},{""stimulus"":""run_exp/static/images/task_images/rocket-03.jpg"",""time"":2202},{""stimulus"":""run_exp/static/images/task_images/rocket-04.jpg"",""time"":3306},{""stimulus"":""run_exp/static/images/task_images/rocket-05.jpg"",""time"":4410},{""stimulus"":""run_exp/static/images/task_images/rocket-06.jpg"",""time"":5510},{""stimulus"":""run_exp/static/images/task_images/rocket-07.jpg"",""time"":6610},{""stimulus"":""run_exp/static/images/task_images/rocket-08.jpg"",""time"":7712},{""stimulus"":""run_exp/static/images/task_images/rocket-09.jpg"",""time"":8813}]",[],3,,,,,,,,,,,,,,
alien_welcome,104,467778,0.0-35.0-1.0,,null,run_exp/static/images/task_images/aliens/old_aliens/planet/alien_planet-47.jpg,null,,,,,,,,,,,,47,"71,19,6,47,73,66,30,56,1,77,65,10,78,75,29,23,32,11,31,16,50,52,37,44,74,70,76,55",,,,,,,,,,
land,105,468285,0.0-35.0-2.0,,null,run_exp/static/images/task_images/land.jpg,null,,,,,,98,,,4,,,,,,,,,,,,,,
dig,106,470306,0.0-35.0-3.0,,,,,,,,,,,"[{""stimulus"":""run_exp/static/images/task_images/dig.jpg"",""time"":0},{""stimulus"":""run_exp/static/images/task_images/land.jpg"",""time"":668},{""stimulus"":""run_exp/static/images/task_images/dig.jpg"",""time"":1340}]",[],4,,,,,,,,,,,,,,
harvest,107,471307,0.0-35.0-4.0,,null,run_exp/static/images/task_images/gems/98.jpg,null,,,,,,54,,,4,,,,,98,0.546537419,0.551020408,,,,,,,
decision,108,471587,0.0-35.0-5.0,,278,run_exp/static/images/task_images/land.jpg,65,,,,,,54,,,4,,,,,,,,100772,1,0,FALSE,,,
dig,109,474326,0.0-36.0-0.0,,,,,,,,,,,"[{""stimulus"":""run_exp/static/images/task_images/dig.jpg"",""time"":0},{""stimulus"":""run_exp/static/images/task_images/land.jpg"",""time"":909},{""stimulus"":""run_exp/static/images/task_images/dig.jpg"",""time"":1821}]",[],4,,,,,,,,,,,,,,
harvest,110,475331,0.0-36.0-1.0,,null,run_exp/static/images/task_images/gems/54.jpg,null,,,,,,24,,,4,,,,,54,0.438435349,0.444444444,,,,,,,
decision,111,475691,0.0-36.0-2.0,,358,run_exp/static/images/task_images/land.jpg,65,,,,,,24,,,4,,,,,,,,104876,1,1,FALSE,,,
dig,112,478348,0.0-37.0-0.0,,,,,,,,,,,"[{""stimulus"":""run_exp/static/images/task_images/dig.jpg"",""time"":1},{""stimulus"":""run_exp/static/images/task_images/land.jpg"",""time"":883},{""stimulus"":""run_exp/static/images/task_images/dig.jpg"",""time"":1766}]",[],4,,,,,,,,,,,,,,
harvest,113,479349,0.0-37.0-1.0,,null,run_exp/static/images/task_images/gems/24.jpg,null,,,,,,13,,,4,,,,,24,0.557851417,0.541666667,,,,,,,
decision,114,479503,0.0-37.0-2.0,,152,run_exp/static/images/task_images/land.jpg,65,,,,,,13,,,4,,,,,,,,108688,1,2,FALSE,,,
dig,115,482372,0.0-38.0-0.0,,,,,,,,,,,"[{""stimulus"":""run_exp/static/images/task_images/dig.jpg"",""time"":0},{""stimulus"":""run_exp/static/images/task_images/land.jpg"",""time"":954},{""stimulus"":""run_exp/static/images/task_images/dig.jpg"",""time"":1907}]",[],4,,,,,,,,,,,,,,
harvest,116,483377,0.0-38.0-1.0,,null,run_exp/static/images/task_images/gems/13.jpg,null,,,,,,6,,,4,,,,,13,0.463301734,0.461538462,,,,,,,
decision,117,483572,0.0-38.0-2.0,,194,run_exp/static/images/task_images/land.jpg,65,,,,,,6,,,4,,,,,,,,112757,1,3,FALSE,,,
dig,118,486398,0.0-39.0-0.0,,,,,,,,,,,"[{""stimulus"":""run_exp/static/images/task_images/dig.jpg"",""time"":0},{""stimulus"":""run_exp/static/images/task_images/land.jpg"",""time"":938},{""stimulus"":""run_exp/static/images/task_images/dig.jpg"",""time"":1878}]",[],4,,,,,,,,,,,,,,
harvest,119,487400,0.0-39.0-1.0,,null,run_exp/static/images/task_images/gems/6.jpg,null,,,,,,4,,,4,,,,,6,0.589250405,0.666666667,,,,,,,
decision,120,487488,0.0-39.0-2.0,,85,run_exp/static/images/task_images/land.jpg,65,,,,,,4,,,4,,,,,,,,116673,1,4,FALSE,,,
dig,121,490424,0.0-40.0-0.0,,,,,,,,,,,"[{""stimulus"":""run_exp/static/images/task_images/dig.jpg"",""time"":0},{""stimulus"":""run_exp/static/images/task_images/land.jpg"",""time"":977},{""stimulus"":""run_exp/static/images/task_images/dig.jpg"",""time"":1950}]",[],4,,,,,,,,,,,,,,
harvest,122,491427,0.0-40.0-1.0,,null,run_exp/static/images/task_images/gems/4.jpg,null,,,,,,2,,,4,,,,,4,0.55424874,0.5,,,,,,,
decision,123,492024,0.0-40.0-2.0,,595,run_exp/static/images/task_images/land.jpg,76,,,,,,2,,,4,,,,,,,,121209,1,5,TRUE,,,
travel,124,501460,0.0-41.0-0.0,,,,,,,,,,,"[{""stimulus"":""run_exp/static/images/task_images/rocket-01.jpg"",""time"":0},{""stimulus"":""run_exp/static/images/task_images/rocket-02.jpg"",""time"":1048},{""stimulus"":""run_exp/static/images/task_images/rocket-03.jpg"",""time"":2096},{""stimulus"":""run_exp/static/images/task_images/rocket-04.jpg"",""time"":3144},{""stimulus"":""run_exp/static/images/task_images/rocket-05.jpg"",""time"":4189},{""stimulus"":""run_exp/static/images/task_images/rocket-06.jpg"",""time"":5235},{""stimulus"":""run_exp/static/images/task_images/rocket-07.jpg"",""time"":6281},{""stimulus"":""run_exp/static/images/task_images/rocket-08.jpg"",""time"":7330},{""stimulus"":""run_exp/static/images/task_images/rocket-09.jpg"",""time"":8380}]",[],4,,,,,,,,,,,,,,
alien_welcome,125,506463,0.0-41.0-1.0,,null,run_exp/static/images/task_images/aliens/old_aliens/planet/alien_planet-73.jpg,null,,,,,,,,,,,,73,"71,19,6,47,73,66,30,56,1,77,65,10,78,75,29,23,32,11,31,16,50,52,37,44,74,70,76,55",,,,,,,,,,
land,126,506966,0.0-41.0-2.0,,null,run_exp/static/images/task_images/land.jpg,null,,,,,,101,,,5,,,,,,,,,,,,,,
dig,127,508985,0.0-41.0-3.0,,,,,,,,,,,"[{""stimulus"":""run_exp/static/images/task_images/dig.jpg"",""time"":0},{""stimulus"":""run_exp/static/images/task_images/land.jpg"",""time"":670},{""stimulus"":""run_exp/static/images/task_images/dig.jpg"",""time"":1341}]",[],5,,,,,,,,,,,,,,
harvest,128,509987,0.0-41.0-4.0,,null,run_exp/static/images/task_images/gems/101.jpg,null,,,,,,54,,,5,,,,,101,0.530803175,0.534653465,,,,,,,
decision,129,510344,0.0-41.0-5.0,,356,run_exp/static/images/task_images/land.jpg,65,,,,,,54,,,5,,,,,,,,139530,1,0,FALSE,,,
dig,130,513006,0.0-42.0-0.0,,,,,,,,,,,"[{""stimulus"":""run_exp/static/images/task_images/dig.jpg"",""time"":0},{""stimulus"":""run_exp/static/images/task_images/land.jpg"",""time"":886},{""stimulus"":""run_exp/static/images/task_images/dig.jpg"",""time"":1769}]",[],5,,,,,,,,,,,,,,
harvest,131,514010,0.0-42.0-1.0,,null,run_exp/static/images/task_images/gems/54.jpg,null,,,,,,25,,,5,,,,,54,0.467395157,0.462962963,,,,,,,
decision,132,514266,0.0-42.0-2.0,,256,run_exp/static/images/task_images/land.jpg,65,,,,,,25,,,5,,,,,,,,143452,1,1,FALSE,,,
dig,133,517027,0.0-43.0-0.0,,,,,,,,,,,"[{""stimulus"":""run_exp/static/images/task_images/dig.jpg"",""time"":1},{""stimulus"":""run_exp/static/images/task_images/land.jpg"",""time"":918},{""stimulus"":""run_exp/static/images/task_images/dig.jpg"",""time"":1836}]",[],5,,,,,,,,,,,,,,
harvest,134,518030,0.0-43.0-1.0,,null,run_exp/static/images/task_images/gems/25.jpg,null,,,,,,14,,,5,,,,,25,0.554313776,0.56,,,,,,,
decision,135,518262,0.0-43.0-2.0,,232,run_exp/static/images/task_images/land.jpg,65,,,,,,14,,,5,,,,,,,,147447,1,2,FALSE,,,
dig,136,521052,0.0-44.0-0.0,,,,,,,,,,,"[{""stimulus"":""run_exp/static/images/task_images/dig.jpg"",""time"":0},{""stimulus"":""run_exp/static/images/task_images/land.jpg"",""time"":932},{""stimulus"":""run_exp/static/images/task_images/dig.jpg"",""time"":1859}]",[],5,,,,,,,,,,,,,,
harvest,137,522055,0.0-44.0-1.0,,null,run_exp/static/images/task_images/gems/14.jpg,null,,,,,,7,,,5,,,,,14,0.51976443,0.5,,,,,,,
decision,138,522173,0.0-44.0-2.0,,118,run_exp/static/images/task_images/land.jpg,65,,,,,,7,,,5,,,,,,,,151359,1,3,FALSE,,,
dig,139,525072,0.0-45.0-0.0,,,,,,,,,,,"[{""stimulus"":""run_exp/static/images/task_images/dig.jpg"",""time"":0},{""stimulus"":""run_exp/static/images/task_images/land.jpg"",""time"":964},{""stimulus"":""run_exp/static/images/task_images/dig.jpg"",""time"":1928}]",[],5,,,,,,,,,,,,,,
harvest,140,526074,0.0-45.0-1.0,,null,run_exp/static/images/task_images/gems/7.jpg,null,,,,,,3,,,5,,,,,7,0.463115719,0.428571429,,,,,,,
decision,141,526099,0.0-45.0-2.0,,24,run_exp/static/images/task_images/land.jpg,65,,,,,,3,,,5,,,,,,,,155284,1,4,FALSE,,,
dig,142,529094,0.0-46.0-0.0,,,,,,,,,,,"[{""stimulus"":""run_exp/static/images/task_images/dig.jpg"",""time"":0},{""stimulus"":""run_exp/static/images/task_images/land.jpg"",""time"":997},{""stimulus"":""run_exp/static/images/task_images/dig.jpg"",""time"":1993}]",[],5,,,,,,,,,,,,,,
harvest,143,530097,0.0-46.0-1.0,,null,run_exp/static/images/task_images/gems/3.jpg,null,,,,,,1,,,5,,,,,3,0.491665395,0.333333333,,,,,,,
decision,144,530942,0.0-46.0-2.0,,844,run_exp/static/images/task_images/land.jpg,76,,,,,,1,,,5,,,,,,,,160129,1,5,TRUE,,,
travel,145,540132,0.0-47.0-0.0,,,,,,,,,,,"[{""stimulus"":""run_exp/static/images/task_images/rocket-01.jpg"",""time"":0},{""stimulus"":""run_exp/static/images/task_images/rocket-02.jpg"",""time"":1019},{""stimulus"":""run_exp/static/images/task_images/rocket-03.jpg"",""time"":2040},{""stimulus"":""run_exp/static/images/task_images/rocket-04.jpg"",""time"":3059},{""stimulus"":""run_exp/static/images/task_images/rocket-05.jpg"",""time"":4078},{""stimulus"":""run_exp/static/images/task_images/rocket-06.jpg"",""time"":5098},{""stimulus"":""run_exp/static/images/task_images/rocket-07.jpg"",""time"":6120},{""stimulus"":""run_exp/static/images/task_images/rocket-08.jpg"",""time"":7138},{""stimulus"":""run_exp/static/images/task_images/rocket-09.jpg"",""time"":8158}]",[],5,,,,,,,,,,,,,,
alien_welcome,146,545138,0.0-47.0-1.0,,null,run_exp/static/images/task_images/aliens/old_aliens/planet/alien_planet-66.jpg,null,,,,,,,,,,,,66,"71,19,6,47,73,66,30,56,1,77,65,10,78,75,29,23,32,11,31,16,50,52,37,44,74,70,76,55",,,,,,,,,,
land,147,545644,0.0-47.0-2.0,,null,run_exp/static/images/task_images/land.jpg,null,,,,,,98,,,6,,,,,,,,,,,,,,
dig,148,547665,0.0-47.0-3.0,,,,,,,,,,,"[{""stimulus"":""run_exp/static/images/task_images/dig.jpg"",""time"":1},{""stimulus"":""run_exp/static/images/task_images/land.jpg"",""time"":669},{""stimulus"":""run_exp/static/images/task_images/dig.jpg"",""time"":1340}]",[],6,,,,,,,,,,,,,,
harvest,149,548670,0.0-47.0-4.0,,null,run_exp/static/images/task_images/gems/98.jpg,null,,,,,,70,,,6,,,,,98,0.711579116,0.714285714,,,,,,,
decision,150,548877,0.0-47.0-5.0,,206,run_exp/static/images/task_images/land.jpg,65,,,,,,70,,,6,,,,,,,,178062,1,0,FALSE,,,
dig,151,551694,0.0-48.0-0.0,,,,,,,,,,,"[{""stimulus"":""run_exp/static/images/task_images/dig.jpg"",""time"":1},{""stimulus"":""run_exp/static/images/task_images/land.jpg"",""time"":936},{""stimulus"":""run_exp/static/images/task_images/dig.jpg"",""time"":1869}]",[],6,,,,,,,,,,,,,,
harvest,152,552694,0.0-48.0-1.0,,null,run_exp/static/images/task_images/gems/70.jpg,null,,,,,,55,,,6,,,,,70,0.78981542,0.785714286,,,,,,,
decision,153,552892,0.0-48.0-2.0,,197,run_exp/static/images/task_images/land.jpg,65,,,,,,55,,,6,,,,,,,,182077,1,1,FALSE,,,
dig,154,555712,0.0-49.0-0.0,,,,,,,,,,,"[{""stimulus"":""run_exp/static/images/task_images/dig.jpg"",""time"":0},{""stimulus"":""run_exp/static/images/task_images/land.jpg"",""time"":939},{""stimulus"":""run_exp/static/images/task_images/dig.jpg"",""time"":1874}]",[],6,,,,,,,,,,,,,,
harvest,155,556713,0.0-49.0-1.0,,null,run_exp/static/images/task_images/gems/55.jpg,null,,,,,,45,,,6,,,,,55,0.814530719,0.818181818,,,,,,,
decision,156,556924,0.0-49.0-2.0,,210,run_exp/static/images/task_images/land.jpg,65,,,,,,45,,,6,,,,,,,,186110,1,2,FALSE,,,
dig,157,559731,0.0-50.0-0.0,,,,,,,,,,,"[{""stimulus"":""run_exp/static/images/task_images/dig.jpg"",""time"":0},{""stimulus"":""run_exp/static/images/task_images/land.jpg"",""time"":930},{""stimulus"":""run_exp/static/images/task_images/dig.jpg"",""time"":1863}]",[],6,,,,,,,,,,,,,,
harvest,158,560736,0.0-50.0-1.0,,null,run_exp/static/images/task_images/gems/45.jpg,null,,,,,,38,,,6,,,,,45,0.854788373,0.844444444,,,,,,,
decision,159,560767,0.0-50.0-2.0,,30,run_exp/static/images/task_images/land.jpg,65,,,,,,38,,,6,,,,,,,,189952,1,3,FALSE,,,
dig,160,563753,0.0-51.0-0.0,,,,,,,,,,,"[{""stimulus"":""run_exp/static/images/task_images/dig.jpg"",""time"":0},{""stimulus"":""run_exp/static/images/task_images/land.jpg"",""time"":992},{""stimulus"":""run_exp/static/images/task_images/dig.jpg"",""time"":1985}]",[],6,,,,,,,,,,,,,,
harvest,161,564772,0.0-51.0-1.0,,null,run_exp/static/images/task_images/gems/38.jpg,null,,,,,,31,,,6,,,,,38,0.824080554,0.815789474,,,,,,,
decision,162,565030,0.0-51.0-2.0,,256,run_exp/static/images/task_images/land.jpg,65,,,,,,31,,,6,,,,,,,,194215,1,4,FALSE,,,
dig,163,567790,0.0-52.0-0.0,,,,,,,,,,,"[{""stimulus"":""run_exp/static/images/task_images/dig.jpg"",""time"":1},{""stimulus"":""run_exp/static/images/task_images/land.jpg"",""time"":917},{""stimulus"":""run_exp/static/images/task_images/dig.jpg"",""time"":1833}]",[],6,,,,,,,,,,,,,,
harvest,164,568797,0.0-52.0-1.0,,null,run_exp/static/images/task_images/gems/31.jpg,null,,,,,,26,,,6,,,,,31,0.84948959,0.838709677,,,,,,,
decision,165,568990,0.0-52.0-2.0,,192,run_exp/static/images/task_images/land.jpg,65,,,,,,26,,,6,,,,,,,,198175,1,5,FALSE,,,
dig,166,571818,0.0-53.0-0.0,,,,,,,,,,,"[{""stimulus"":""run_exp/static/images/task_images/dig.jpg"",""time"":0},{""stimulus"":""run_exp/static/images/task_images/land.jpg"",""time"":938},{""stimulus"":""run_exp/static/images/task_images/dig.jpg"",""time"":1878}]",[],6,,,,,,,,,,,,,,
harvest,167,572824,0.0-53.0-1.0,,null,run_exp/static/images/task_images/gems/26.jpg,null,,,,,,21,,,6,,,,,26,0.807307767,0.807692308,,,,,,,
decision,168,572997,0.0-53.0-2.0,,172,run_exp/static/images/task_images/land.jpg,65,,,,,,21,,,6,,,,,,,,202182,1,6,FALSE,,,
dig,169,575846,0.0-54.0-0.0,,,,,,,,,,,"[{""stimulus"":""run_exp/static/images/task_images/dig.jpg"",""time"":0},{""stimulus"":""run_exp/static/images/task_images/land.jpg"",""time"":944},{""stimulus"":""run_exp/static/images/task_images/dig.jpg"",""time"":1889}]",[],6,,,,,,,,,,,,,,
harvest,170,576849,0.0-54.0-1.0,,null,run_exp/static/images/task_images/gems/21.jpg,null,,,,,,18,,,6,,,,,21,0.842429658,0.857142857,,,,,,,
decision,171,576988,0.0-54.0-2.0,,137,run_exp/static/images/task_images/land.jpg,65,,,,,,18,,,6,,,,,,,,206173,1,7,FALSE,,,
dig,172,579868,0.0-55.0-0.0,,,,,,,,,,,"[{""stimulus"":""run_exp/static/images/task_images/dig.jpg"",""time"":0},{""stimulus"":""run_exp/static/images/task_images/land.jpg"",""time"":957},{""stimulus"":""run_exp/static/images/task_images/dig.jpg"",""time"":1914}]",[],6,,,,,,,,,,,,,,
harvest,173,580870,0.0-55.0-1.0,,null,run_exp/static/images/task_images/gems/18.jpg,null,,,,,,15,,,6,,,,,18,0.846876565,0.833333333,,,,,,,
decision,174,580899,0.0-55.0-2.0,,28,run_exp/static/images/task_images/land.jpg,65,,,,,,15,,,6,,,,,,,,210084,1,8,FALSE,,,
dig,175,583886,0.0-56.0-0.0,,,,,,,,,,,"[{""stimulus"":""run_exp/static/images/task_images/dig.jpg"",""time"":0},{""stimulus"":""run_exp/static/images/task_images/land.jpg"",""time"":992},{""stimulus"":""run_exp/static/images/task_images/dig.jpg"",""time"":1986}]",[],6,,,,,,,,,,,,,,
harvest,176,584887,0.0-56.0-1.0,,null,run_exp/static/images/task_images/gems/15.jpg,null,,,,,,12,,,6,,,,,15,0.816548187,0.8,,,,,,,
decision,177,585144,0.0-56.0-2.0,,256,run_exp/static/images/task_images/land.jpg,65,,,,,,12,,,6,,,,,,,,214329,1,9,FALSE,,,
dig,178,587909,0.0-57.0-0.0,,,,,,,,,,,"[{""stimulus"":""run_exp/static/images/task_images/dig.jpg"",""time"":0},{""stimulus"":""run_exp/static/images/task_images/land.jpg"",""time"":919},{""stimulus"":""run_exp/static/images/task_images/dig.jpg"",""time"":1838}]",[],6,,,,,,,,,,,,,,
harvest,179,588913,0.0-57.0-1.0,,null,run_exp/static/images/task_images/gems/12.jpg,null,,,,,,10,,,6,,,,,12,0.866880408,0.833333333,,,,,,,
decision,180,589011,0.0-57.0-2.0,,97,run_exp/static/images/task_images/land.jpg,65,,,,,,10,,,6,,,,,,,,218196,1,10,FALSE,,,
dig,181,591933,0.0-58.0-0.0,,,,,,,,,,,"[{""stimulus"":""run_exp/static/images/task_images/dig.jpg"",""time"":0},{""stimulus"":""run_exp/static/images/task_images/land.jpg"",""time"":972},{""stimulus"":""run_exp/static/images/task_images/dig.jpg"",""time"":1944}]",[],6,,,,,,,,,,,,,,
harvest,182,592938,0.0-58.0-1.0,,null,run_exp/static/images/task_images/gems/10.jpg,null,,,,,,8,,,6,,,,,10,0.799035731,0.8,,,,,,,
decision,183,592996,0.0-58.0-2.0,,57,run_exp/static/images/task_images/land.jpg,65,,,,,,8,,,6,,,,,,,,222181,1,11,FALSE,,,
dig,184,595954,0.0-59.0-0.0,,,,,,,,,,,"[{""stimulus"":""run_exp/static/images/task_images/dig.jpg"",""time"":0},{""stimulus"":""run_exp/static/images/task_images/land.jpg"",""time"":983},{""stimulus"":""run_exp/static/images/task_images/dig.jpg"",""time"":1965}]",[],6,,,,,,,,,,,,,,
harvest,185,596955,0.0-59.0-1.0,,null,run_exp/static/images/task_images/gems/8.jpg,null,,,,,,6,,,6,,,,,8,0.797212544,0.75,,,,,,,
decision,186,597308,0.0-59.0-2.0,,353,run_exp/static/images/task_images/land.jpg,65,,,,,,6,,,6,,,,,,,,226493,1,12,FALSE,,,
dig,187,599973,0.0-60.0-0.0,,,,,,,,,,,"[{""stimulus"":""run_exp/static/images/task_images/dig.jpg"",""time"":0},{""stimulus"":""run_exp/static/images/task_images/land.jpg"",""time"":888},{""stimulus"":""run_exp/static/images/task_images/dig.jpg"",""time"":1773}]",[],6,,,,,,,,,,,,,,
harvest,188,600974,0.0-60.0-1.0,,null,run_exp/static/images/task_images/gems/6.jpg,null,,,,,,5,,,6,,,,,6,0.793863819,0.833333333,,,,,,,
decision,189,601145,0.0-60.0-2.0,,170,run_exp/static/images/task_images/land.jpg,76,,,,,,5,,,6,,,,,,,,230331,1,13,TRUE,,,
travel,190,611004,0.0-61.0-0.0,,,,,,,,,,,"[{""stimulus"":""run_exp/static/images/task_images/rocket-01.jpg"",""time"":0},{""stimulus"":""run_exp/static/images/task_images/rocket-02.jpg"",""time"":1093},{""stimulus"":""run_exp/static/images/task_images/rocket-03.jpg"",""time"":2188},{""stimulus"":""run_exp/static/images/task_images/rocket-04.jpg"",""time"":3282},{""stimulus"":""run_exp/static/images/task_images/rocket-05.jpg"",""time"":4377},{""stimulus"":""run_exp/static/images/task_images/rocket-06.jpg"",""time"":5470},{""stimulus"":""run_exp/static/images/task_images/rocket-07.jpg"",""time"":6562},{""stimulus"":""run_exp/static/images/task_images/rocket-08.jpg"",""time"":7658},{""stimulus"":""run_exp/static/images/task_images/rocket-09.jpg"",""time"":8755}]",[],6,,,,,,,,,,,,,,
alien_welcome,191,616007,0.0-61.0-1.0,,null,run_exp/static/images/task_images/aliens/old_aliens/planet/alien_planet-30.jpg,null,,,,,,,,,,,,30,"71,19,6,47,73,66,30,56,1,77,65,10,78,75,29,23,32,11,31,16,50,52,37,44,74,70,76,55",,,,,,,,,,
land,192,616513,0.0-61.0-2.0,,null,run_exp/static/images/task_images/land.jpg,null,,,,,,95,,,7,,,,,,,,,,,,,,
dig,193,618532,0.0-61.0-3.0,,,,,,,,,,,"[{""stimulus"":""run_exp/static/images/task_images/dig.jpg"",""time"":0},{""stimulus"":""run_exp/static/images/task_images/land.jpg"",""time"":669},{""stimulus"":""run_exp/static/images/task_images/dig.jpg"",""time"":1341}]",[],7,,,,,,,,,,,,,,
harvest,194,619536,0.0-61.0-4.0,,null,run_exp/static/images/task_images/gems/95.jpg,null,,,,,,82,,,7,,,,,95,0.867227838,0.863157895,,,,,,,
decision,195,619777,0.0-61.0-5.0,,240,run_exp/static/images/task_images/land.jpg,65,,,,,,82,,,7,,,,,,,,248962,1,0,FALSE,,,
dig,196,622555,0.0-62.0-0.0,,,,,,,,,,,"[{""stimulus"":""run_exp/static/images/task_images/dig.jpg"",""time"":0},{""stimulus"":""run_exp/static/images/task_images/land.jpg"",""time"":921},{""stimulus"":""run_exp/static/images/task_images/dig.jpg"",""time"":1844}]",[],7,,,,,,,,,,,,,,
harvest,197,623561,0.0-62.0-1.0,,null,run_exp/static/images/task_images/gems/82.jpg,null,,,,,,67,,,7,,,,,82,0.822203846,0.817073171,,,,,,,
decision,198,623863,0.0-62.0-2.0,,301,run_exp/static/images/task_images/land.jpg,65,,,,,,67,,,7,,,,,,,,253048,1,1,FALSE,,,
dig,199,626579,0.0-63.0-0.0,,,,,,,,,,,"[{""stimulus"":""run_exp/static/images/task_images/dig.jpg"",""time"":0},{""stimulus"":""run_exp/static/images/task_images/land.jpg"",""time"":900},{""stimulus"":""run_exp/static/images/task_images/dig.jpg"",""time"":1803}]",[],7,,,,,,,,,,,,,,
harvest,200,627583,0.0-63.0-1.0,,null,run_exp/static/images/task_images/gems/67.jpg,null,,,,,,55,,,7,,,,,67,0.828299274,0.820895522,,,,,,,
decision,201,627941,0.0-63.0-2.0,,358,run_exp/static/images/task_images/land.jpg,65,,,,,,55,,,7,,,,,,,,257126,1,2,FALSE,,,
dig,202,630597,0.0-64.0-0.0,,,,,,,,,,,"[{""stimulus"":""run_exp/static/images/task_images/dig.jpg"",""time"":0},{""stimulus"":""run_exp/static/images/task_images/land.jpg"",""time"":882},{""stimulus"":""run_exp/static/images/task_images/dig.jpg"",""time"":1764}]",[],7,,,,,,,,,,,,,,
harvest,203,631599,0.0-64.0-1.0,,null,run_exp/static/images/task_images/gems/55.jpg,null,,,,,,45,,,7,,,,,55,0.823611171,0.818181818,,,,,,,
decision,204,631626,0.0-64.0-2.0,,26,run_exp/static/images/task_images/land.jpg,65,,,,,,45,,,7,,,,,,,,260812,1,3,FALSE,,,
dig,205,634627,0.0-65.0-0.0,,,,,,,,,,,"[{""stimulus"":""run_exp/static/images/task_images/dig.jpg"",""time"":0},{""stimulus"":""run_exp/static/images/task_images/land.jpg"",""time"":994},{""stimulus"":""run_exp/static/images/task_images/dig.jpg"",""time"":1989}]",[],7,,,,,,,,,,,,,,
harvest,206,635644,0.0-65.0-1.0,,null,run_exp/static/images/task_images/gems/45.jpg,null,,,,,,35,,,7,,,,,45,0.782335974,0.777777778,,,,,,,
decision,207,636050,0.0-65.0-2.0,,406,run_exp/static/images/task_images/land.jpg,65,,,,,,35,,,7,,,,,,,,265235,1,4,FALSE,,,
dig,208,638663,0.0-66.0-0.0,,,,,,,,,,,"[{""stimulus"":""run_exp/static/images/task_images/dig.jpg"",""time"":0},{""stimulus"":""run_exp/static/images/task_images/land.jpg"",""time"":867},{""stimulus"":""run_exp/static/images/task_images/dig.jpg"",""time"":1736}]",[],7,,,,,,,,,,,,,,
harvest,209,639669,0.0-66.0-1.0,,null,run_exp/static/images/task_images/gems/35.jpg,null,,,,,,29,,,7,,,,,35,0.838108372,0.828571429,,,,,,,
decision,210,640589,0.0-66.0-2.0,,918,run_exp/static/images/task_images/land.jpg,65,,,,,,29,,,7,,,,,,,,269774,1,5,FALSE,,,
dig,211,642688,0.0-67.0-0.0,,,,,,,,,,,"[{""stimulus"":""run_exp/static/images/task_images/dig.jpg"",""time"":0},{""stimulus"":""run_exp/static/images/task_images/land.jpg"",""time"":698},{""stimulus"":""run_exp/static/images/task_images/dig.jpg"",""time"":1393}]",[],7,,,,,,,,,,,,,,
harvest,212,643689,0.0-67.0-1.0,,null,run_exp/static/images/task_images/gems/29.jpg,null,,,,,,22,,,7,,,,,29,0.773877202,0.75862069,,,,,,,
decision,213,643694,0.0-67.0-2.0,,3,run_exp/static/images/task_images/land.jpg,65,,,,,,22,,,7,,,,,,,,272879,1,6,FALSE,,,
dig,214,646716,0.0-68.0-0.0,,,,,,,,,,,"[{""stimulus"":""run_exp/static/images/task_images/dig.jpg"",""time"":0},{""stimulus"":""run_exp/static/images/task_images/land.jpg"",""time"":1002},{""stimulus"":""run_exp/static/images/task_images/dig.jpg"",""time"":2006}]",[],7,,,,,,,,,,,,,,
harvest,215,647719,0.0-68.0-1.0,,null,run_exp/static/images/task_images/gems/22.jpg,null,,,,,,18,,,7,,,,,22,0.820037681,0.818181818,,,,,,,
decision,216,647934,0.0-68.0-2.0,,215,run_exp/static/images/task_images/land.jpg,65,,,,,,18,,,7,,,,,,,,277120,1,7,FALSE,,,
dig,217,650733,0.0-69.0-0.0,,,,,,,,,,,"[{""stimulus"":""run_exp/static/images/task_images/dig.jpg"",""time"":0},{""stimulus"":""run_exp/static/images/task_images/land.jpg"",""time"":930},{""stimulus"":""run_exp/static/images/task_images/dig.jpg"",""time"":1859}]",[],7,,,,,,,,,,,,,,
harvest,218,651735,0.0-69.0-1.0,,null,run_exp/static/images/task_images/gems/18.jpg,null,,,,,,15,,,7,,,,,18,0.8168157,0.833333333,,,,,,,
decision,219,652135,0.0-69.0-2.0,,397,run_exp/static/images/task_images/land.jpg,65,,,,,,15,,,7,,,,,,,,281320,1,8,FALSE,,,
dig,220,654759,0.0-70.0-0.0,,,,,,,,,,,"[{""stimulus"":""run_exp/static/images/task_images/dig.jpg"",""time"":0},{""stimulus"":""run_exp/static/images/task_images/land.jpg"",""time"":870},{""stimulus"":""run_exp/static/images/task_images/dig.jpg"",""time"":1743}]",[],7,,,,,,,,,,,,,,
harvest,221,655761,0.0-70.0-1.0,,null,run_exp/static/images/task_images/gems/15.jpg,null,,,,,,13,,,7,,,,,15,0.872948674,0.866666667,,,,,,,
decision,222,656230,0.0-70.0-2.0,,468,run_exp/static/images/task_images/land.jpg,65,,,,,,13,,,7,,,,,,,,285415,1,9,FALSE,,,
dig,223,658777,0.0-71.0-0.0,,,,,,,,,,,"[{""stimulus"":""run_exp/static/images/task_images/dig.jpg"",""time"":1},{""stimulus"":""run_exp/static/images/task_images/land.jpg"",""time"":845},{""stimulus"":""run_exp/static/images/task_images/dig.jpg"",""time"":1693}]",[],7,,,,,,,,,,,,,,
harvest,224,659778,0.0-71.0-1.0,,null,run_exp/static/images/task_images/gems/13.jpg,null,,,,,,11,,,7,,,,,13,0.865699191,0.846153846,,,,,,,
decision,225,659982,0.0-71.0-2.0,,203,run_exp/static/images/task_images/land.jpg,65,,,,,,11,,,7,,,,,,,,289167,1,10,FALSE,,,
dig,226,662796,0.0-72.0-0.0,,,,,,,,,,,"[{""stimulus"":""run_exp/static/images/task_images/dig.jpg"",""time"":1},{""stimulus"":""run_exp/static/images/task_images/land.jpg"",""time"":934},{""stimulus"":""run_exp/static/images/task_images/dig.jpg"",""time"":1871}]",[],7,,,,,,,,,,,,,,
harvest,227,663800,0.0-72.0-1.0,,null,run_exp/static/images/task_images/gems/11.jpg,null,,,,,,9,,,7,,,,,11,0.808138343,0.818181818,,,,,,,
decision,228,663936,0.0-72.0-2.0,,134,run_exp/static/images/task_images/land.jpg,65,,,,,,9,,,7,,,,,,,,293121,1,11,FALSE,,,
dig,229,666824,0.0-73.0-0.0,,,,,,,,,,,"[{""stimulus"":""run_exp/static/images/task_images/dig.jpg"",""time"":1},{""stimulus"":""run_exp/static/images/task_images/land.jpg"",""time"":959},{""stimulus"":""run_exp/static/images/task_images/dig.jpg"",""time"":1919}]",[],7,,,,,,,,,,,,,,
harvest,230,667828,0.0-73.0-1.0,,null,run_exp/static/images/task_images/gems/9.jpg,null,,,,,,8,,,7,,,,,9,0.843605301,0.888888889,,,,,,,
decision,231,668153,0.0-73.0-2.0,,325,run_exp/static/images/task_images/land.jpg,76,,,,,,8,,,7,,,,,,,,297339,1,12,TRUE,,,
travel,232,677857,0.0-74.0-0.0,,,,,,,,,,,"[{""stimulus"":""run_exp/static/images/task_images/rocket-01.jpg"",""time"":0},{""stimulus"":""run_exp/static/images/task_images/rocket-02.jpg"",""time"":1080},{""stimulus"":""run_exp/static/images/task_images/rocket-03.jpg"",""time"":2155},{""stimulus"":""run_exp/static/images/task_images/rocket-04.jpg"",""time"":3233},{""stimulus"":""run_exp/static/images/task_images/rocket-05.jpg"",""time"":4310},{""stimulus"":""run_exp/static/images/task_images/rocket-06.jpg"",""time"":5387},{""stimulus"":""run_exp/static/images/task_images/rocket-07.jpg"",""time"":6462},{""stimulus"":""run_exp/static/images/task_images/rocket-08.jpg"",""time"":7538},{""stimulus"":""run_exp/static/images/task_images/rocket-09.jpg"",""time"":8614}]",[],7,,,,,,,,,,,,,,
alien_welcome,233,682859,0.0-74.0-1.0,,null,run_exp/static/images/task_images/aliens/old_aliens/planet/alien_planet-56.jpg,null,,,,,,,,,,,,56,"71,19,6,47,73,66,30,56,1,77,65,10,78,75,29,23,32,11,31,16,50,52,37,44,74,70,76,55",,,,,,,,,,
land,234,683364,0.0-74.0-2.0,,null,run_exp/static/images/task_images/land.jpg,null,,,,,,98,,,8,,,,,,,,,,,,,,
dig,235,685387,0.0-74.0-3.0,,,,,,,,,,,"[{""stimulus"":""run_exp/static/images/task_images/dig.jpg"",""time"":0},{""stimulus"":""run_exp/static/images/task_images/land.jpg"",""time"":670},{""stimulus"":""run_exp/static/images/task_images/dig.jpg"",""time"":1342}]",[],8,,,,,,,,,,,,,,
harvest,236,686393,0.0-74.0-4.0,,null,run_exp/static/images/task_images/gems/98.jpg,null,,,,,,74,,,8,,,,,98,0.758559835,0.755102041,,,,,,,
decision,237,686544,0.0-74.0-5.0,,150,run_exp/static/images/task_images/land.jpg,65,,,,,,74,,,8,,,,,,,,315729,1,0,TRUE,,,
end_of_block_continue,238,695441,0.0-75.0-0.0,,null,run_exp/static/audio/clip_32_block_end.m4a,,,,,,null,,,,,,,,,,,,,,,,,,
alien_welcome,239,700455,0.0-76.0-0.0,,null,run_exp/static/images/task_images/aliens/old_aliens/planet/alien_planet-1.jpg,null,,,,,,,,,,,,1,"71,19,6,47,73,66,30,56,1,77,65,10,78,75,29,23,32,11,31,16,50,52,37,44,74,70,76,55",,,,,,,,,,
land,240,700960,0.0-76.0-1.0,,null,run_exp/static/images/task_images/land.jpg,null,,,,,,103,,,9,,,,,,,,,,,,,,
dig,241,702980,0.0-76.0-2.0,,,,,,,,,,,"[{""stimulus"":""run_exp/static/images/task_images/dig.jpg"",""time"":0},{""stimulus"":""run_exp/static/images/task_images/land.jpg"",""time"":673},{""stimulus"":""run_exp/static/images/task_images/dig.jpg"",""time"":1341}]",[],9,,,,,,,,,,,,,,
harvest,242,703982,0.0-76.0-3.0,,null,run_exp/static/images/task_images/gems/103.jpg,null,,,,,,13,,,9,,,,,103,0.12926458,0.126213592,,,,,,,
decision,243,704196,0.0-76.0-4.0,,211,run_exp/static/images/task_images/land.jpg,65,,,,,,13,,,9,,,,,,,,8748,2,0,FALSE,,,
dig,244,707008,0.0-77.0-0.0,,,,,,,,,,,"[{""stimulus"":""run_exp/static/images/task_images/dig.jpg"",""time"":0},{""stimulus"":""run_exp/static/images/task_images/land.jpg"",""time"":932},{""stimulus"":""run_exp/static/images/task_images/dig.jpg"",""time"":1866}]",[],9,,,,,,,,,,,,,,
harvest,245,708014,0.0-77.0-1.0,,null,run_exp/static/images/task_images/gems/13.jpg,null,,,,,,2,,,9,,,,,13,0.15931949,0.153846154,,,,,,,
decision,246,708369,0.0-77.0-2.0,,354,run_exp/static/images/task_images/land.jpg,65,,,,,,2,,,9,,,,,,,,12921,2,1,FALSE,,,
dig,247,711031,0.0-78.0-0.0,,,,,,,,,,,"[{""stimulus"":""run_exp/static/images/task_images/dig.jpg"",""time"":0},{""stimulus"":""run_exp/static/images/task_images/land.jpg"",""time"":883},{""stimulus"":""run_exp/static/images/task_images/dig.jpg"",""time"":1767}]",[],9,,,,,,,,,,,,,,
harvest,248,712034,0.0-78.0-1.0,,null,run_exp/static/images/task_images/gems/2.jpg,null,,,,,,1,,,9,,,,,2,0.300205079,0.5,,,,,,,
decision,249,712481,0.0-78.0-2.0,,446,run_exp/static/images/task_images/land.jpg,65,,,,,,1,,,9,,,,,,,,17034,2,2,FALSE,,,
dig,250,715065,0.0-79.0-0.0,,,,,,,,,,,"[{""stimulus"":""run_exp/static/images/task_images/dig.jpg"",""time"":0},{""stimulus"":""run_exp/static/images/task_images/land.jpg"",""time"":852},{""stimulus"":""run_exp/static/images/task_images/dig.jpg"",""time"":1704}]",[],9,,,,,,,,,,,,,,
harvest,251,716071,0.0-79.0-1.0,,null,run_exp/static/images/task_images/gems/1.jpg,null,,,,,,0,,,9,,,,,1,0.234096518,0,,,,,,,
decision,252,717083,0.0-79.0-2.0,,1010,run_exp/static/images/task_images/land.jpg,76,,,,,,0,,,9,,,,,,,,21635,2,3,TRUE,,,
travel,253,726097,0.0-80.0-0.0,,,,,,,,,,,"[{""stimulus"":""run_exp/static/images/task_images/rocket-01.jpg"",""time"":0},{""stimulus"":""run_exp/static/images/task_images/rocket-02.jpg"",""time"":1002},{""stimulus"":""run_exp/static/images/task_images/rocket-03.jpg"",""time"":2001},{""stimulus"":""run_exp/static/images/task_images/rocket-04.jpg"",""time"":2999},{""stimulus"":""run_exp/static/images/task_images/rocket-05.jpg"",""time"":4001},{""stimulus"":""run_exp/static/images/task_images/rocket-06.jpg"",""time"":5003},{""stimulus"":""run_exp/static/images/task_images/rocket-07.jpg"",""time"":6004},{""stimulus"":""run_exp/static/images/task_images/rocket-08.jpg"",""time"":7004},{""stimulus"":""run_exp/static/images/task_images/rocket-09.jpg"",""time"":8003}]",[],9,,,,,,,,,,,,,,
alien_welcome,254,731100,0.0-80.0-1.0,,null,run_exp/static/images/task_images/aliens/old_aliens/planet/alien_planet-77.jpg,null,,,,,,,,,,,,77,"71,19,6,47,73,66,30,56,1,77,65,10,78,75,29,23,32,11,31,16,50,52,37,44,74,70,76,55",,,,,,,,,,
land,255,731605,0.0-80.0-2.0,,null,run_exp/static/images/task_images/land.jpg,null,,,,,,102,,,10,,,,,,,,,,,,,,
dig,256,733625,0.0-80.0-3.0,,,,,,,,,,,"[{""stimulus"":""run_exp/static/images/task_images/dig.jpg"",""time"":0},{""stimulus"":""run_exp/static/images/task_images/land.jpg"",""time"":670},{""stimulus"":""run_exp/static/images/task_images/dig.jpg"",""time"":1342}]",[],10,,,,,,,,,,,,,,
harvest,257,734630,0.0-80.0-4.0,,null,run_exp/static/images/task_images/gems/102.jpg,null,,,,,,20,,,10,,,,,102,0.193981937,0.196078431,,,,,,,
decision,258,734741,0.0-80.0-5.0,,110,run_exp/static/images/task_images/land.jpg,65,,,,,,20,,,10,,,,,,,,39293,2,0,FALSE,,,
dig,259,737648,0.0-81.0-0.0,,,,,,,,,,,"[{""stimulus"":""run_exp/static/images/task_images/dig.jpg"",""time"":1},{""stimulus"":""run_exp/static/images/task_images/land.jpg"",""time"":968},{""stimulus"":""run_exp/static/images/task_images/dig.jpg"",""time"":1932}]",[],10,,,,,,,,,,,,,,
harvest,260,738655,0.0-81.0-1.0,,null,run_exp/static/images/task_images/gems/20.jpg,null,,,,,,4,,,10,,,,,20,0.211259223,0.2,,,,,,,
decision,261,738661,0.0-81.0-2.0,,5,run_exp/static/images/task_images/land.jpg,65,,,,,,4,,,10,,,,,,,,43213,2,1,FALSE,,,
dig,262,741681,0.0-82.0-0.0,,,,,,,,,,,"[{""stimulus"":""run_exp/static/images/task_images/dig.jpg"",""time"":1},{""stimulus"":""run_exp/static/images/task_images/land.jpg"",""time"":1004},{""stimulus"":""run_exp/static/images/task_images/dig.jpg"",""time"":2006}]",[],10,,,,,,,,,,,,,,
harvest,263,742687,0.0-82.0-1.0,,null,run_exp/static/images/task_images/gems/4.jpg,null,,,,,,1,,,10,,,,,4,0.233035379,0.25,,,,,,,
decision,264,742901,0.0-82.0-2.0,,213,run_exp/static/images/task_images/land.jpg,65,,,,,,1,,,10,,,,,,,,47453,2,2,FALSE,,,
dig,265,745708,0.0-83.0-0.0,,,,,,,,,,,"[{""stimulus"":""run_exp/static/images/task_images/dig.jpg"",""time"":0},{""stimulus"":""run_exp/static/images/task_images/land.jpg"",""time"":934},{""stimulus"":""run_exp/static/images/task_images/dig.jpg"",""time"":1865}]",[],10,,,,,,,,,,,,,,
harvest,266,746713,0.0-83.0-1.0,,null,run_exp/static/images/task_images/gems/1.jpg,null,,,,,,0,,,10,,,,,1,0.227307684,0,,,,,,,
decision,267,747001,0.0-83.0-2.0,,288,run_exp/static/images/task_images/land.jpg,76,,,,,,0,,,10,,,,,,,,51553,2,3,TRUE,,,
travel,268,756742,0.0-84.0-0.0,,,,,,,,,,,"[{""stimulus"":""run_exp/static/images/task_images/rocket-01.jpg"",""time"":1},{""stimulus"":""run_exp/static/images/task_images/rocket-02.jpg"",""time"":1080},{""stimulus"":""run_exp/static/images/task_images/rocket-03.jpg"",""time"":2164},{""stimulus"":""run_exp/static/images/task_images/rocket-04.jpg"",""time"":3244},{""stimulus"":""run_exp/static/images/task_images/rocket-05.jpg"",""time"":4325},{""stimulus"":""run_exp/static/images/task_images/rocket-06.jpg"",""time"":5405},{""stimulus"":""run_exp/static/images/task_images/rocket-07.jpg"",""time"":6485},{""stimulus"":""run_exp/static/images/task_images/rocket-08.jpg"",""time"":7569},{""stimulus"":""run_exp/static/images/task_images/rocket-09.jpg"",""time"":8648}]",[],10,,,,,,,,,,,,,,
alien_welcome,269,761747,0.0-84.0-1.0,,null,run_exp/static/images/task_images/aliens/old_aliens/planet/alien_planet-65.jpg,null,,,,,,,,,,,,65,"71,19,6,47,73,66,30,56,1,77,65,10,78,75,29,23,32,11,31,16,50,52,37,44,74,70,76,55",,,,,,,,,,
land,270,762251,0.0-84.0-2.0,,null,run_exp/static/images/task_images/land.jpg,null,,,,,,99,,,11,,,,,,,,,,,,,,
dig,271,764271,0.0-84.0-3.0,,,,,,,,,,,"[{""stimulus"":""run_exp/static/images/task_images/dig.jpg"",""time"":0},{""stimulus"":""run_exp/static/images/task_images/land.jpg"",""time"":671},{""stimulus"":""run_exp/static/images/task_images/dig.jpg"",""time"":1343}]",[],11,,,,,,,,,,,,,,
harvest,272,765273,0.0-84.0-4.0,,null,run_exp/static/images/task_images/gems/99.jpg,null,,,,,,15,,,11,,,,,99,0.154023434,0.151515152,,,,,,,
decision,273,765502,0.0-84.0-5.0,,229,run_exp/static/images/task_images/land.jpg,65,,,,,,15,,,11,,,,,,,,70055,2,0,FALSE,,,
dig,274,768293,0.0-85.0-0.0,,,,,,,,,,,"[{""stimulus"":""run_exp/static/images/task_images/dig.jpg"",""time"":0},{""stimulus"":""run_exp/static/images/task_images/land.jpg"",""time"":927},{""stimulus"":""run_exp/static/images/task_images/dig.jpg"",""time"":1851}]",[],11,,,,,,,,,,,,,,
harvest,275,769295,0.0-85.0-1.0,,null,run_exp/static/images/task_images/gems/15.jpg,null,,,,,,3,,,11,,,,,15,0.229762479,0.2,,,,,,,
decision,276,769346,0.0-85.0-2.0,,50,run_exp/static/images/task_images/land.jpg,65,,,,,,3,,,11,,,,,,,,73899,2,1,FALSE,,,
dig,277,772314,0.0-86.0-0.0,,,,,,,,,,,"[{""stimulus"":""run_exp/static/images/task_images/dig.jpg"",""time"":0},{""stimulus"":""run_exp/static/images/task_images/land.jpg"",""time"":986},{""stimulus"":""run_exp/static/images/task_images/dig.jpg"",""time"":1969}]",[],11,,,,,,,,,,,,,,
harvest,278,773318,0.0-86.0-1.0,,null,run_exp/static/images/task_images/gems/3.jpg,null,,,,,,0,,,11,,,,,3,0.153174977,0,,,,,,,
decision,279,773533,0.0-86.0-2.0,,213,run_exp/static/images/task_images/land.jpg,65,,,,,,0,,,11,,,,,,,,78085,2,2,FALSE,,,
dig,280,776342,0.0-87.0-0.0,,,,,,,,,,,"[{""stimulus"":""run_exp/static/images/task_images/dig.jpg"",""time"":0},{""stimulus"":""run_exp/static/images/task_images/land.jpg"",""time"":932},{""stimulus"":""run_exp/static/images/task_images/dig.jpg"",""time"":1865}]",[],11,,,,,,,,,,,,,,
harvest,281,777344,0.0-87.0-1.0,,null,run_exp/static/images/task_images/gems/0.jpg,null,,,,,,0,,,11,,,,,0,0.250108879,NaN,,,,,,,
decision,282,778149,0.0-87.0-2.0,,804,run_exp/static/images/task_images/land.jpg,76,,,,,,0,,,11,,,,,,,,82701,2,3,TRUE,,,
travel,283,787377,0.0-88.0-0.0,,,,,,,,,,,"[{""stimulus"":""run_exp/static/images/task_images/rocket-01.jpg"",""time"":0},{""stimulus"":""run_exp/static/images/task_images/rocket-02.jpg"",""time"":1026},{""stimulus"":""run_exp/static/images/task_images/rocket-03.jpg"",""time"":2049},{""stimulus"":""run_exp/static/images/task_images/rocket-04.jpg"",""time"":3072},{""stimulus"":""run_exp/static/images/task_images/rocket-05.jpg"",""time"":4094},{""stimulus"":""run_exp/static/images/task_images/rocket-06.jpg"",""time"":5118},{""stimulus"":""run_exp/static/images/task_images/rocket-07.jpg"",""time"":6139},{""stimulus"":""run_exp/static/images/task_images/rocket-08.jpg"",""time"":7164},{""stimulus"":""run_exp/static/images/task_images/rocket-09.jpg"",""time"":8189}]",[],11,,,,,,,,,,,,,,
alien_welcome,284,792380,0.0-88.0-1.0,,null,run_exp/static/images/task_images/aliens/old_aliens/planet/alien_planet-10.jpg,null,,,,,,,,,,,,10,"71,19,6,47,73,66,30,56,1,77,65,10,78,75,29,23,32,11,31,16,50,52,37,44,74,70,76,55",,,,,,,,,,
land,285,792882,0.0-88.0-2.0,,null,run_exp/static/images/task_images/land.jpg,null,,,,,,93,,,12,,,,,,,,,,,,,,
dig,286,794908,0.0-88.0-3.0,,,,,,,,,,,"[{""stimulus"":""run_exp/static/images/task_images/dig.jpg"",""time"":0},{""stimulus"":""run_exp/static/images/task_images/land.jpg"",""time"":671},{""stimulus"":""run_exp/static/images/task_images/dig.jpg"",""time"":1343}]",[],12,,,,,,,,,,,,,,
harvest,287,795913,0.0-88.0-4.0,,null,run_exp/static/images/task_images/gems/93.jpg,null,,,,,,71,,,12,,,,,93,0.764882161,0.76344086,,,,,,,
decision,288,796943,0.0-88.0-5.0,,1029,run_exp/static/images/task_images/land.jpg,65,,,,,,71,,,12,,,,,,,,101496,2,0,FALSE,,,
dig,289,798936,0.0-89.0-0.0,,,,,,,,,,,"[{""stimulus"":""run_exp/static/images/task_images/dig.jpg"",""time"":0},{""stimulus"":""run_exp/static/images/task_images/land.jpg"",""time"":661},{""stimulus"":""run_exp/static/images/task_images/dig.jpg"",""time"":1322}]",[],12,,,,,,,,,,,,,,
harvest,290,799938,0.0-89.0-1.0,,null,run_exp/static/images/task_images/gems/71.jpg,null,,,,,,61,,,12,,,,,71,0.85383746,0.85915493,,,,,,,
decision,291,800050,0.0-89.0-2.0,,110,run_exp/static/images/task_images/land.jpg,65,,,,,,61,,,12,,,,,,,,104602,2,1,FALSE,,,
dig,292,802963,0.0-90.0-0.0,,,,,,,,,,,"[{""stimulus"":""run_exp/static/images/task_images/dig.jpg"",""time"":0},{""stimulus"":""run_exp/static/images/task_images/land.jpg"",""time"":967},{""stimulus"":""run_exp/static/images/task_images/dig.jpg"",""time"":1935}]",[],12,,,,,,,,,,,,,,
harvest,293,803966,0.0-90.0-1.0,,null,run_exp/static/images/task_images/gems/61.jpg,null,,,,,,53,,,12,,,,,61,0.860835473,0.868852459,,,,,,,
decision,294,804301,0.0-90.0-2.0,,333,run_exp/static/images/task_images/land.jpg,65,,,,,,53,,,12,,,,,,,,108854,2,2,FALSE,,,
dig,295,806996,0.0-91.0-0.0,,,,,,,,,,,"[{""stimulus"":""run_exp/static/images/task_images/dig.jpg"",""time"":0},{""stimulus"":""run_exp/static/images/task_images/land.jpg"",""time"":894},{""stimulus"":""run_exp/static/images/task_images/dig.jpg"",""time"":1788}]",[],12,,,,,,,,,,,,,,
harvest,296,808003,0.0-91.0-1.0,,null,run_exp/static/images/task_images/gems/53.jpg,null,,,,,,47,,,12,,,,,53,0.884185951,0.886792453,,,,,,,
decision,297,808290,0.0-91.0-2.0,,286,run_exp/static/images/task_images/land.jpg,65,,,,,,47,,,12,,,,,,,,112843,2,3,FALSE,,,
dig,298,811025,0.0-92.0-0.0,,,,,,,,,,,"[{""stimulus"":""run_exp/static/images/task_images/dig.jpg"",""time"":1},{""stimulus"":""run_exp/static/images/task_images/land.jpg"",""time"":907},{""stimulus"":""run_exp/static/images/task_images/dig.jpg"",""time"":1816}]",[],12,,,,,,,,,,,,,,
harvest,299,812028,0.0-92.0-1.0,,null,run_exp/static/images/task_images/gems/47.jpg,null,,,,,,40,,,12,,,,,47,0.846023112,0.85106383,,,,,,,
decision,300,812066,0.0-92.0-2.0,,37,run_exp/static/images/task_images/land.jpg,65,,,,,,40,,,12,,,,,,,,116618,2,4,FALSE,,,
dig,301,815051,0.0-93.0-0.0,,,,,,,,,,,"[{""stimulus"":""run_exp/static/images/task_images/dig.jpg"",""time"":0},{""stimulus"":""run_exp/static/images/task_images/land.jpg"",""time"":991},{""stimulus"":""run_exp/static/images/task_images/dig.jpg"",""time"":1983}]",[],12,,,,,,,,,,,,,,
harvest,302,816053,0.0-93.0-1.0,,null,run_exp/static/images/task_images/gems/40.jpg,null,,,,,,32,,,12,,,,,40,0.791775739,0.8,,,,,,,
decision,303,816129,0.0-93.0-2.0,,76,run_exp/static/images/task_images/land.jpg,65,,,,,,32,,,12,,,,,,,,120681,2,5,FALSE,,,
dig,304,819068,0.0-94.0-0.0,,,,,,,,,,,"[{""stimulus"":""run_exp/static/images/task_images/dig.jpg"",""time"":0},{""stimulus"":""run_exp/static/images/task_images/land.jpg"",""time"":975},{""stimulus"":""run_exp/static/images/task_images/dig.jpg"",""time"":1954}]",[],12,,,,,,,,,,,,,,
harvest,305,820070,0.0-94.0-1.0,,null,run_exp/static/images/task_images/gems/32.jpg,null,,,,,,28,,,12,,,,,32,0.875325778,0.875,,,,,,,
decision,306,820143,0.0-94.0-2.0,,71,run_exp/static/images/task_images/land.jpg,65,,,,,,28,,,12,,,,,,,,124695,2,6,FALSE,,,
dig,307,823090,0.0-95.0-0.0,,,,,,,,,,,"[{""stimulus"":""run_exp/static/images/task_images/dig.jpg"",""time"":0},{""stimulus"":""run_exp/static/images/task_images/land.jpg"",""time"":977},{""stimulus"":""run_exp/static/images/task_images/dig.jpg"",""time"":1958}]",[],12,,,,,,,,,,,,,,
harvest,308,824094,0.0-95.0-1.0,,null,run_exp/static/images/task_images/gems/28.jpg,null,,,,,,22,,,12,,,,,28,0.780220047,0.785714286,,,,,,,
decision,309,824638,0.0-95.0-2.0,,543,run_exp/static/images/task_images/land.jpg,65,,,,,,22,,,12,,,,,,,,129190,2,7,FALSE,,,
dig,310,827118,0.0-96.0-0.0,,,,,,,,,,,"[{""stimulus"":""run_exp/static/images/task_images/dig.jpg"",""time"":0},{""stimulus"":""run_exp/static/images/task_images/land.jpg"",""time"":825},{""stimulus"":""run_exp/static/images/task_images/dig.jpg"",""time"":1647}]",[],12,,,,,,,,,,,,,,
harvest,311,828121,0.0-96.0-1.0,,null,run_exp/static/images/task_images/gems/22.jpg,null,,,,,,18,,,12,,,,,22,0.819738365,0.818181818,,,,,,,
decision,312,828293,0.0-96.0-2.0,,173,run_exp/static/images/task_images/land.jpg,65,,,,,,18,,,12,,,,,,,,132846,2,8,FALSE,,,
dig,313,831139,0.0-97.0-0.0,,,,,,,,,,,"[{""stimulus"":""run_exp/static/images/task_images/dig.jpg"",""time"":1},{""stimulus"":""run_exp/static/images/task_images/land.jpg"",""time"":946},{""stimulus"":""run_exp/static/images/task_images/dig.jpg"",""time"":1889}]",[],12,,,,,,,,,,,,,,
harvest,314,832142,0.0-97.0-1.0,,null,run_exp/static/images/task_images/gems/18.jpg,null,,,,,,15,,,12,,,,,18,0.811841753,0.833333333,,,,,,,
decision,315,832375,0.0-97.0-2.0,,232,run_exp/static/images/task_images/land.jpg,65,,,,,,15,,,12,,,,,,,,136927,2,9,FALSE,,,
dig,316,835159,0.0-98.0-0.0,,,,,,,,,,,"[{""stimulus"":""run_exp/static/images/task_images/dig.jpg"",""time"":0},{""stimulus"":""run_exp/static/images/task_images/land.jpg"",""time"":925},{""stimulus"":""run_exp/static/images/task_images/dig.jpg"",""time"":1847}]",[],12,,,,,,,,,,,,,,
harvest,317,836160,0.0-98.0-1.0,,null,run_exp/static/images/task_images/gems/15.jpg,null,,,,,,13,,,12,,,,,15,0.833425986,0.866666667,,,,,,,
decision,318,836372,0.0-98.0-2.0,,211,run_exp/static/images/task_images/land.jpg,65,,,,,,13,,,12,,,,,,,,140924,2,10,FALSE,,,
dig,319,839185,0.0-99.0-0.0,,,,,,,,,,,"[{""stimulus"":""run_exp/static/images/task_images/dig.jpg"",""time"":0},{""stimulus"":""run_exp/static/images/task_images/land.jpg"",""time"":932},{""stimulus"":""run_exp/static/images/task_images/dig.jpg"",""time"":1863}]",[],12,,,,,,,,,,,,,,
harvest,320,840188,0.0-99.0-1.0,,null,run_exp/static/images/task_images/gems/13.jpg,null,,,,,,10,,,12,,,,,13,0.784098625,0.769230769,,,,,,,
decision,321,840438,0.0-99.0-2.0,,248,run_exp/static/images/task_images/land.jpg,65,,,,,,10,,,12,,,,,,,,144990,2,11,FALSE,,,
dig,322,843206,0.0-100.0-0.0,,,,,,,,,,,"[{""stimulus"":""run_exp/static/images/task_images/dig.jpg"",""time"":0},{""stimulus"":""run_exp/static/images/task_images/land.jpg"",""time"":919},{""stimulus"":""run_exp/static/images/task_images/dig.jpg"",""time"":1836}]",[],12,,,,,,,,,,,,,,
harvest,323,844208,0.0-100.0-1.0,,null,run_exp/static/images/task_images/gems/10.jpg,null,,,,,,8,,,12,,,,,10,0.814424452,0.8,,,,,,,
decision,324,844257,0.0-100.0-2.0,,48,run_exp/static/images/task_images/land.jpg,76,,,,,,8,,,12,,,,,,,,148810,2,12,TRUE,,,
travel,325,854240,0.0-101.0-0.0,,,,,,,,,,,"[{""stimulus"":""run_exp/static/images/task_images/rocket-01.jpg"",""time"":1},{""stimulus"":""run_exp/static/images/task_images/rocket-02.jpg"",""time"":1110},{""stimulus"":""run_exp/static/images/task_images/rocket-03.jpg"",""time"":2220},{""stimulus"":""run_exp/static/images/task_images/rocket-04.jpg"",""time"":3327},{""stimulus"":""run_exp/static/images/task_images/rocket-05.jpg"",""time"":4437},{""stimulus"":""run_exp/static/images/task_images/rocket-06.jpg"",""time"":5547},{""stimulus"":""run_exp/static/images/task_images/rocket-07.jpg"",""time"":6653},{""stimulus"":""run_exp/static/images/task_images/rocket-08.jpg"",""time"":7760},{""stimulus"":""run_exp/static/images/task_images/rocket-09.jpg"",""time"":8866}]",[],12,,,,,,,,,,,,,,
alien_welcome,326,859246,0.0-101.0-1.0,,null,run_exp/static/images/task_images/aliens/old_aliens/planet/alien_planet-78.jpg,null,,,,,,,,,,,,78,"71,19,6,47,73,66,30,56,1,77,65,10,78,75,29,23,32,11,31,16,50,52,37,44,74,70,76,55",,,,,,,,,,
land,327,859752,0.0-101.0-2.0,,null,run_exp/static/images/task_images/land.jpg,null,,,,,,99,,,13,,,,,,,,,,,,,,
dig,328,861768,0.0-101.0-3.0,,,,,,,,,,,"[{""stimulus"":""run_exp/static/images/task_images/dig.jpg"",""time"":0},{""stimulus"":""run_exp/static/images/task_images/land.jpg"",""time"":668},{""stimulus"":""run_exp/static/images/task_images/dig.jpg"",""time"":1339}]",[],13,,,,,,,,,,,,,,
harvest,329,862773,0.0-101.0-4.0,,null,run_exp/static/images/task_images/gems/99.jpg,null,,,,,,89,,,13,,,,,99,0.902504517,0.898989899,,,,,,,
decision,330,862858,0.0-101.0-5.0,,84,run_exp/static/images/task_images/land.jpg,65,,,,,,89,,,13,,,,,,,,167410,2,0,FALSE,,,
dig,331,865796,0.0-102.0-0.0,,,,,,,,,,,"[{""stimulus"":""run_exp/static/images/task_images/dig.jpg"",""time"":0},{""stimulus"":""run_exp/static/images/task_images/land.jpg"",""time"":975},{""stimulus"":""run_exp/static/images/task_images/dig.jpg"",""time"":1952}]",[],13,,,,,,,,,,,,,,
harvest,332,866799,0.0-102.0-1.0,,null,run_exp/static/images/task_images/gems/89.jpg,null,,,,,,69,,,13,,,,,89,0.773621846,0.775280899,,,,,,,
decision,333,866843,0.0-102.0-2.0,,43,run_exp/static/images/task_images/land.jpg,65,,,,,,69,,,13,,,,,,,,171396,2,1,FALSE,,,
dig,334,869814,0.0-103.0-0.0,,,,,,,,,,,"[{""stimulus"":""run_exp/static/images/task_images/dig.jpg"",""time"":0},{""stimulus"":""run_exp/static/images/task_images/land.jpg"",""time"":986},{""stimulus"":""run_exp/static/images/task_images/dig.jpg"",""time"":1972}]",[],13,,,,,,,,,,,,,,
harvest,335,870818,0.0-103.0-1.0,,null,run_exp/static/images/task_images/gems/69.jpg,null,,,,,,54,,,13,,,,,69,0.784399925,0.782608696,,,,,,,
decision,336,871002,0.0-103.0-2.0,,182,run_exp/static/images/task_images/land.jpg,65,,,,,,54,,,13,,,,,,,,175554,2,2,FALSE,,,
dig,337,873837,0.0-104.0-0.0,,,,,,,,,,,"[{""stimulus"":""run_exp/static/images/task_images/dig.jpg"",""time"":0},{""stimulus"":""run_exp/static/images/task_images/land.jpg"",""time"":941},{""stimulus"":""run_exp/static/images/task_images/dig.jpg"",""time"":1882}]",[],13,,,,,,,,,,,,,,
harvest,338,874842,0.0-104.0-1.0,,null,run_exp/static/images/task_images/gems/54.jpg,null,,,,,,45,,,13,,,,,54,0.833005428,0.833333333,,,,,,,
decision,339,875227,0.0-104.0-2.0,,383,run_exp/static/images/task_images/land.jpg,65,,,,,,45,,,13,,,,,,,,179779,2,3,FALSE,,,
dig,340,877872,0.0-105.0-0.0,,,,,,,,,,,"[{""stimulus"":""run_exp/static/images/task_images/dig.jpg"",""time"":1},{""stimulus"":""run_exp/static/images/task_images/land.jpg"",""time"":878},{""stimulus"":""run_exp/static/images/task_images/dig.jpg"",""time"":1755}]",[],13,,,,,,,,,,,,,,
harvest,341,878876,0.0-105.0-1.0,,null,run_exp/static/images/task_images/gems/45.jpg,null,,,,,,31,,,13,,,,,45,0.694973134,0.688888889,,,,,,,
decision,342,878916,0.0-105.0-2.0,,38,run_exp/static/images/task_images/land.jpg,65,,,,,,31,,,13,,,,,,,,183468,2,4,FALSE,,,
dig,343,881900,0.0-106.0-0.0,,,,,,,,,,,"[{""stimulus"":""run_exp/static/images/task_images/dig.jpg"",""time"":1},{""stimulus"":""run_exp/static/images/task_images/land.jpg"",""time"":993},{""stimulus"":""run_exp/static/images/task_images/dig.jpg"",""time"":1984}]",[],13,,,,,,,,,,,,,,
harvest,344,882903,0.0-106.0-1.0,,null,run_exp/static/images/task_images/gems/31.jpg,null,,,,,,25,,,13,,,,,31,0.814440181,0.806451613,,,,,,,
decision,345,883048,0.0-106.0-2.0,,143,run_exp/static/images/task_images/land.jpg,65,,,,,,25,,,13,,,,,,,,187600,2,5,FALSE,,,
dig,346,885929,0.0-107.0-0.0,,,,,,,,,,,"[{""stimulus"":""run_exp/static/images/task_images/dig.jpg"",""time"":0},{""stimulus"":""run_exp/static/images/task_images/land.jpg"",""time"":958},{""stimulus"":""run_exp/static/images/task_images/dig.jpg"",""time"":1911}]",[],13,,,,,,,,,,,,,,
harvest,347,886934,0.0-107.0-1.0,,null,run_exp/static/images/task_images/gems/25.jpg,null,,,,,,17,,,13,,,,,25,0.691212498,0.68,,,,,,,
decision,348,886985,0.0-107.0-2.0,,51,run_exp/static/images/task_images/land.jpg,65,,,,,,17,,,13,,,,,,,,191538,2,6,FALSE,,,
dig,349,889956,0.0-108.0-0.0,,,,,,,,,,,"[{""stimulus"":""run_exp/static/images/task_images/dig.jpg"",""time"":0},{""stimulus"":""run_exp/static/images/task_images/land.jpg"",""time"":984},{""stimulus"":""run_exp/static/images/task_images/dig.jpg"",""time"":1971}]",[],13,,,,,,,,,,,,,,
harvest,350,890959,0.0-108.0-1.0,,null,run_exp/static/images/task_images/gems/17.jpg,null,,,,,,13,,,13,,,,,17,0.77208762,0.764705882,,,,,,,
decision,351,891402,0.0-108.0-2.0,,443,run_exp/static/images/task_images/land.jpg,65,,,,,,13,,,13,,,,,,,,195955,2,7,FALSE,,,
dig,352,893981,0.0-109.0-0.0,,,,,,,,,,,"[{""stimulus"":""run_exp/static/images/task_images/dig.jpg"",""time"":0},{""stimulus"":""run_exp/static/images/task_images/land.jpg"",""time"":855},{""stimulus"":""run_exp/static/images/task_images/dig.jpg"",""time"":1713}]",[],13,,,,,,,,,,,,,,
harvest,353,894985,0.0-109.0-1.0,,null,run_exp/static/images/task_images/gems/13.jpg,null,,,,,,8,,,13,,,,,13,0.648089283,0.615384615,,,,,,,
decision,354,895003,0.0-109.0-2.0,,15,run_exp/static/images/task_images/land.jpg,65,,,,,,8,,,13,,,,,,,,199555,2,8,FALSE,,,
dig,355,898004,0.0-110.0-0.0,,,,,,,,,,,"[{""stimulus"":""run_exp/static/images/task_images/dig.jpg"",""time"":1},{""stimulus"":""run_exp/static/images/task_images/land.jpg"",""time"":998},{""stimulus"":""run_exp/static/images/task_images/dig.jpg"",""time"":1994}]",[],13,,,,,,,,,,,,,,
harvest,356,899008,0.0-110.0-1.0,,null,run_exp/static/images/task_images/gems/8.jpg,null,,,,,,6,,,13,,,,,8,0.790059078,0.75,,,,,,,
decision,357,899042,0.0-110.0-2.0,,31,run_exp/static/images/task_images/land.jpg,65,,,,,,6,,,13,,,,,,,,203594,2,9,FALSE,,,
dig,358,902029,0.0-111.0-0.0,,,,,,,,,,,"[{""stimulus"":""run_exp/static/images/task_images/dig.jpg"",""time"":0},{""stimulus"":""run_exp/static/images/task_images/land.jpg"",""time"":992},{""stimulus"":""run_exp/static/images/task_images/dig.jpg"",""time"":1985}]",[],13,,,,,,,,,,,,,,
harvest,359,903030,0.0-111.0-1.0,,null,run_exp/static/images/task_images/gems/6.jpg,null,,,,,,5,,,13,,,,,6,0.858479466,0.833333333,,,,,,,
decision,360,903230,0.0-111.0-2.0,,199,run_exp/static/images/task_images/land.jpg,65,,,,,,5,,,13,,,,,,,,207782,2,10,FALSE,,,
dig,361,906053,0.0-112.0-0.0,,,,,,,,,,,"[{""stimulus"":""run_exp/static/images/task_images/dig.jpg"",""time"":0},{""stimulus"":""run_exp/static/images/task_images/land.jpg"",""time"":936},{""stimulus"":""run_exp/static/images/task_images/dig.jpg"",""time"":1873}]",[],13,,,,,,,,,,,,,,
harvest,362,907055,0.0-112.0-1.0,,null,run_exp/static/images/task_images/gems/5.jpg,null,,,,,,4,,,13,,,,,5,0.792807044,0.8,,,,,,,
decision,363,907379,0.0-112.0-2.0,,323,run_exp/static/images/task_images/land.jpg,76,,,,,,4,,,13,,,,,,,,211932,2,11,TRUE,,,
travel,364,917092,0.0-113.0-0.0,,,,,,,,,,,"[{""stimulus"":""run_exp/static/images/task_images/rocket-01.jpg"",""time"":0},{""stimulus"":""run_exp/static/images/task_images/rocket-02.jpg"",""time"":1078},{""stimulus"":""run_exp/static/images/task_images/rocket-03.jpg"",""time"":2155},{""stimulus"":""run_exp/static/images/task_images/rocket-04.jpg"",""time"":3230},{""stimulus"":""run_exp/static/images/task_images/rocket-05.jpg"",""time"":4306},{""stimulus"":""run_exp/static/images/task_images/rocket-06.jpg"",""time"":5385},{""stimulus"":""run_exp/static/images/task_images/rocket-07.jpg"",""time"":6465},{""stimulus"":""run_exp/static/images/task_images/rocket-08.jpg"",""time"":7540},{""stimulus"":""run_exp/static/images/task_images/rocket-09.jpg"",""time"":8620}]",[],13,,,,,,,,,,,,,,
alien_welcome,365,922096,0.0-113.0-1.0,,null,run_exp/static/images/task_images/aliens/old_aliens/planet/alien_planet-75.jpg,null,,,,,,,,,,,,75,"71,19,6,47,73,66,30,56,1,77,65,10,78,75,29,23,32,11,31,16,50,52,37,44,74,70,76,55",,,,,,,,,,
land,366,922601,0.0-113.0-2.0,,null,run_exp/static/images/task_images/land.jpg,null,,,,,,101,,,14,,,,,,,,,,,,,,
dig,367,924620,0.0-113.0-3.0,,,,,,,,,,,"[{""stimulus"":""run_exp/static/images/task_images/dig.jpg"",""time"":0},{""stimulus"":""run_exp/static/images/task_images/land.jpg"",""time"":669},{""stimulus"":""run_exp/static/images/task_images/dig.jpg"",""time"":1338}]",[],14,,,,,,,,,,,,,,
harvest,368,925626,0.0-113.0-4.0,,null,run_exp/static/images/task_images/gems/101.jpg,null,,,,,,87,,,14,,,,,101,0.864416911,0.861386139,,,,,,,
decision,369,925682,0.0-113.0-5.0,,56,run_exp/static/images/task_images/land.jpg,65,,,,,,87,,,14,,,,,,,,230234,2,0,FALSE,,,
dig,370,928650,0.0-114.0-0.0,,,,,,,,,,,"[{""stimulus"":""run_exp/static/images/task_images/dig.jpg"",""time"":0},{""stimulus"":""run_exp/static/images/task_images/land.jpg"",""time"":983},{""stimulus"":""run_exp/static/images/task_images/dig.jpg"",""time"":1969}]",[],14,,,,,,,,,,,,,,
harvest,371,929655,0.0-114.0-1.0,,null,run_exp/static/images/task_images/gems/87.jpg,null,,,,,,62,,,14,,,,,87,0.717900068,0.712643678,,,,,,,
decision,372,932254,0.0-114.0-2.0,,2597,run_exp/static/images/task_images/land.jpg,65,,,,,,62,,,14,,,,,,,,236807,2,1,FALSE,,,
dig,373,932681,0.0-115.0-0.0,,,,,,,,,,,"[{""stimulus"":""run_exp/static/images/task_images/dig.jpg"",""time"":0},{""stimulus"":""run_exp/static/images/task_images/land.jpg"",""time"":137},{""stimulus"":""run_exp/static/images/task_images/dig.jpg"",""time"":273}]",[],14,,,,,,,,,,,,,,
harvest,374,933686,0.0-115.0-1.0,,null,run_exp/static/images/task_images/gems/62.jpg,null,,,,,,48,,,14,,,,,62,0.779665595,0.774193548,,,,,,,
decision,375,933842,0.0-115.0-2.0,,155,run_exp/static/images/task_images/land.jpg,65,,,,,,48,,,14,,,,,,,,238394,2,2,FALSE,,,
dig,376,936706,0.0-116.0-0.0,,,,,,,,,,,"[{""stimulus"":""run_exp/static/images/task_images/dig.jpg"",""time"":0},{""stimulus"":""run_exp/static/images/task_images/land.jpg"",""time"":948},{""stimulus"":""run_exp/static/images/task_images/dig.jpg"",""time"":1901}]",[],14,,,,,,,,,,,,,,
harvest,377,937709,0.0-116.0-1.0,,null,run_exp/static/images/task_images/gems/48.jpg,null,,,,,,38,,,14,,,,,48,0.784909906,0.791666667,,,,,,,
decision,378,937932,0.0-116.0-2.0,,221,run_exp/static/images/task_images/land.jpg,65,,,,,,38,,,14,,,,,,,,242484,2,3,FALSE,,,
dig,379,940736,0.0-117.0-0.0,,,,,,,,,,,"[{""stimulus"":""run_exp/static/images/task_images/dig.jpg"",""time"":0},{""stimulus"":""run_exp/static/images/task_images/land.jpg"",""time"":932},{""stimulus"":""run_exp/static/images/task_images/dig.jpg"",""time"":1863}]",[],14,,,,,,,,,,,,,,
harvest,380,941741,0.0-117.0-1.0,,null,run_exp/static/images/task_images/gems/38.jpg,null,,,,,,30,,,14,,,,,38,0.78331679,0.789473684,,,,,,,
decision,381,941973,0.0-117.0-2.0,,231,run_exp/static/images/task_images/land.jpg,65,,,,,,30,,,14,,,,,,,,246526,2,4,FALSE,,,
dig,382,944760,0.0-118.0-0.0,,,,,,,,,,,"[{""stimulus"":""run_exp/static/images/task_images/dig.jpg"",""time"":0},{""stimulus"":""run_exp/static/images/task_images/land.jpg"",""time"":927},{""stimulus"":""run_exp/static/images/task_images/dig.jpg"",""time"":1850}]",[],14,,,,,,,,,,,,,,
harvest,383,945762,0.0-118.0-1.0,,null,run_exp/static/images/task_images/gems/30.jpg,null,,,,,,23,,,14,,,,,30,0.775157416,0.766666667,,,,,,,
decision,384,945941,0.0-118.0-2.0,,177,run_exp/static/images/task_images/land.jpg,65,,,,,,23,,,14,,,,,,,,250493,2,5,FALSE,,,
dig,385,948787,0.0-119.0-0.0,,,,,,,,,,,"[{""stimulus"":""run_exp/static/images/task_images/dig.jpg"",""time"":0},{""stimulus"":""run_exp/static/images/task_images/land.jpg"",""time"":941},{""stimulus"":""run_exp/static/images/task_images/dig.jpg"",""time"":1887}]",[],14,,,,,,,,,,,,,,
harvest,386,949793,0.0-119.0-1.0,,null,run_exp/static/images/task_images/gems/23.jpg,null,,,,,,20,,,14,,,,,23,0.878325703,0.869565217,,,,,,,
decision,387,950004,0.0-119.0-2.0,,210,run_exp/static/images/task_images/land.jpg,65,,,,,,20,,,14,,,,,,,,254556,2,6,FALSE,,,
dig,388,952815,0.0-120.0-0.0,,,,,,,,,,,"[{""stimulus"":""run_exp/static/images/task_images/dig.jpg"",""time"":0},{""stimulus"":""run_exp/static/images/task_images/land.jpg"",""time"":932},{""stimulus"":""run_exp/static/images/task_images/dig.jpg"",""time"":1864}]",[],14,,,,,,,,,,,,,,
harvest,389,953817,0.0-120.0-1.0,,null,run_exp/static/images/task_images/gems/20.jpg,null,,,,,,16,,,14,,,,,20,0.79874055,0.8,,,,,,,
decision,390,953819,0.0-120.0-2.0,,1,run_exp/static/images/task_images/land.jpg,65,,,,,,16,,,14,,,,,,,,258371,2,7,FALSE,,,
dig,391,956839,0.0-121.0-0.0,,,,,,,,,,,"[{""stimulus"":""run_exp/static/images/task_images/dig.jpg"",""time"":0},{""stimulus"":""run_exp/static/images/task_images/land.jpg"",""time"":1000},{""stimulus"":""run_exp/static/images/task_images/dig.jpg"",""time"":2003}]",[],14,,,,,,,,,,,,,,
harvest,392,957843,0.0-121.0-1.0,,null,run_exp/static/images/task_images/gems/16.jpg,null,,,,,,14,,,14,,,,,16,0.870618382,0.875,,,,,,,
decision,393,957850,0.0-121.0-2.0,,6,run_exp/static/images/task_images/land.jpg,65,,,,,,14,,,14,,,,,,,,262403,2,8,FALSE,,,
dig,394,960864,0.0-122.0-0.0,,,,,,,,,,,"[{""stimulus"":""run_exp/static/images/task_images/dig.jpg"",""time"":0},{""stimulus"":""run_exp/static/images/task_images/land.jpg"",""time"":1002},{""stimulus"":""run_exp/static/images/task_images/dig.jpg"",""time"":2001}]",[],14,,,,,,,,,,,,,,
harvest,395,961868,0.0-122.0-1.0,,null,run_exp/static/images/task_images/gems/14.jpg,null,,,,,,10,,,14,,,,,14,0.722443179,0.714285714,,,,,,,
decision,396,961970,0.0-122.0-2.0,,102,run_exp/static/images/task_images/land.jpg,65,,,,,,10,,,14,,,,,,,,266523,2,9,FALSE,,,
dig,397,964903,0.0-123.0-0.0,,,,,,,,,,,"[{""stimulus"":""run_exp/static/images/task_images/dig.jpg"",""time"":1},{""stimulus"":""run_exp/static/images/task_images/land.jpg"",""time"":971},{""stimulus"":""run_exp/static/images/task_images/dig.jpg"",""time"":1941}]",[],14,,,,,,,,,,,,,,
harvest,398,965908,0.0-123.0-1.0,,null,run_exp/static/images/task_images/gems/10.jpg,null,,,,,,7,,,14,,,,,10,0.745580152,0.7,,,,,,,
decision,399,966318,0.0-123.0-2.0,,409,run_exp/static/images/task_images/land.jpg,65,,,,,,7,,,14,,,,,,,,270870,2,10,FALSE,,,
dig,400,968932,0.0-124.0-0.0,,,,,,,,,,,"[{""stimulus"":""run_exp/static/images/task_images/dig.jpg"",""time"":0},{""stimulus"":""run_exp/static/images/task_images/land.jpg"",""time"":866},{""stimulus"":""run_exp/static/images/task_images/dig.jpg"",""time"":1734}]",[],14,,,,,,,,,,,,,,
harvest,401,969936,0.0-124.0-1.0,,null,run_exp/static/images/task_images/gems/7.jpg,null,,,,,,6,,,14,,,,,7,0.867626284,0.857142857,,,,,,,
decision,402,970048,0.0-124.0-2.0,,110,run_exp/static/images/task_images/land.jpg,65,,,,,,6,,,14,,,,,,,,274600,2,11,FALSE,,,
dig,403,972958,0.0-125.0-0.0,,,,,,,,,,,"[{""stimulus"":""run_exp/static/images/task_images/dig.jpg"",""time"":0},{""stimulus"":""run_exp/static/images/task_images/land.jpg"",""time"":967},{""stimulus"":""run_exp/static/images/task_images/dig.jpg"",""time"":1935}]",[],14,,,,,,,,,,,,,,
harvest,404,973962,0.0-125.0-1.0,,null,run_exp/static/images/task_images/gems/6.jpg,null,,,,,,5,,,14,,,,,6,0.774633072,0.833333333,,,,,,,
decision,405,975135,0.0-125.0-2.0,,1171,run_exp/static/images/task_images/land.jpg,76,,,,,,5,,,14,,,,,,,,279687,2,12,TRUE,,,
travel,406,983996,0.0-126.0-0.0,,,,,,,,,,,"[{""stimulus"":""run_exp/static/images/task_images/rocket-01.jpg"",""time"":1},{""stimulus"":""run_exp/static/images/task_images/rocket-02.jpg"",""time"":984},{""stimulus"":""run_exp/static/images/task_images/rocket-03.jpg"",""time"":1964},{""stimulus"":""run_exp/static/images/task_images/rocket-04.jpg"",""time"":2946},{""stimulus"":""run_exp/static/images/task_images/rocket-05.jpg"",""time"":3931},{""stimulus"":""run_exp/static/images/task_images/rocket-06.jpg"",""time"":4914},{""stimulus"":""run_exp/static/images/task_images/rocket-07.jpg"",""time"":5898},{""stimulus"":""run_exp/static/images/task_images/rocket-08.jpg"",""time"":6880},{""stimulus"":""run_exp/static/images/task_images/rocket-09.jpg"",""time"":7862}]",[],14,,,,,,,,,,,,,,
alien_welcome,407,989001,0.0-126.0-1.0,,null,run_exp/static/images/task_images/aliens/old_aliens/planet/alien_planet-29.jpg,null,,,,,,,,,,,,29,"71,19,6,47,73,66,30,56,1,77,65,10,78,75,29,23,32,11,31,16,50,52,37,44,74,70,76,55",,,,,,,,,,
land,408,989507,0.0-126.0-2.0,,null,run_exp/static/images/task_images/land.jpg,null,,,,,,91,,,15,,,,,,,,,,,,,,
dig,409,991528,0.0-126.0-3.0,,,,,,,,,,,"[{""stimulus"":""run_exp/static/images/task_images/dig.jpg"",""time"":0},{""stimulus"":""run_exp/static/images/task_images/land.jpg"",""time"":668},{""stimulus"":""run_exp/static/images/task_images/dig.jpg"",""time"":1340}]",[],15,,,,,,,,,,,,,,
harvest,410,992533,0.0-126.0-4.0,,null,run_exp/static/images/task_images/gems/91.jpg,null,,,,,,77,,,15,,,,,91,0.851316243,0.846153846,,,,,,,
decision,411,992649,0.0-126.0-5.0,,116,run_exp/static/images/task_images/land.jpg,65,,,,,,77,,,15,,,,,,,,297202,2,0,FALSE,,,
dig,412,995555,0.0-127.0-0.0,,,,,,,,,,,"[{""stimulus"":""run_exp/static/images/task_images/dig.jpg"",""time"":1},{""stimulus"":""run_exp/static/images/task_images/land.jpg"",""time"":963},{""stimulus"":""run_exp/static/images/task_images/dig.jpg"",""time"":1930}]",[],15,,,,,,,,,,,,,,
harvest,413,996559,0.0-127.0-1.0,,null,run_exp/static/images/task_images/gems/77.jpg,null,,,,,,65,,,15,,,,,77,0.846211815,0.844155844,,,,,,,
decision,414,996649,0.0-127.0-2.0,,89,run_exp/static/images/task_images/land.jpg,65,,,,,,65,,,15,,,,,,,,301202,2,1,TRUE,,,
end_of_block_continue,415,1005553,0.0-128.0-0.0,,null,run_exp/static/audio/clip_32_block_end.m4a,,,,,,null,,,,,,,,,,,,,,,,,,
alien_welcome,416,1010567,0.0-129.0-0.0,,null,run_exp/static/images/task_images/aliens/old_aliens/planet/alien_planet-23.jpg,null,,,,,,,,,,,,23,"71,19,6,47,73,66,30,56,1,77,65,10,78,75,29,23,32,11,31,16,50,52,37,44,74,70,76,55",,,,,,,,,,
land,417,1011072,0.0-129.0-1.0,,null,run_exp/static/images/task_images/land.jpg,null,,,,,,99,,,16,,,,,,,,,,,,,,
dig,418,1013091,0.0-129.0-2.0,,,,,,,,,,,"[{""stimulus"":""run_exp/static/images/task_images/dig.jpg"",""time"":0},{""stimulus"":""run_exp/static/images/task_images/land.jpg"",""time"":669},{""stimulus"":""run_exp/static/images/task_images/dig.jpg"",""time"":1339}]",[],16,,,,,,,,,,,,,,
harvest,419,1014097,0.0-129.0-3.0,,null,run_exp/static/images/task_images/gems/99.jpg,null,,,,,,47,,,16,,,,,99,0.476791379,0.474747475,,,,,,,
decision,420,1014366,0.0-129.0-4.0,,268,run_exp/static/images/task_images/land.jpg,65,,,,,,47,,,16,,,,,,,,8804,3,0,FALSE,,,
dig,421,1017129,0.0-130.0-0.0,,,,,,,,,,,"[{""stimulus"":""run_exp/static/images/task_images/dig.jpg"",""time"":0},{""stimulus"":""run_exp/static/images/task_images/land.jpg"",""time"":913},{""stimulus"":""run_exp/static/images/task_images/dig.jpg"",""time"":1826}]",[],16,,,,,,,,,,,,,,
harvest,422,1018134,0.0-130.0-1.0,,null,run_exp/static/images/task_images/gems/47.jpg,null,,,,,,21,,,16,,,,,47,0.440812006,0.446808511,,,,,,,
decision,423,1018783,0.0-130.0-2.0,,648,run_exp/static/images/task_images/land.jpg,65,,,,,,21,,,16,,,,,,,,13221,3,1,FALSE,,,
dig,424,1021154,0.0-131.0-0.0,,,,,,,,,,,"[{""stimulus"":""run_exp/static/images/task_images/dig.jpg"",""time"":0},{""stimulus"":""run_exp/static/images/task_images/land.jpg"",""time"":786},{""stimulus"":""run_exp/static/images/task_images/dig.jpg"",""time"":1571}]",[],16,,,,,,,,,,,,,,
harvest,425,1022157,0.0-131.0-1.0,,null,run_exp/static/images/task_images/gems/21.jpg,null,,,,,,11,,,16,,,,,21,0.503421512,0.523809524,,,,,,,
decision,426,1022807,0.0-131.0-2.0,,649,run_exp/static/images/task_images/land.jpg,65,,,,,,11,,,16,,,,,,,,17244,3,2,FALSE,,,
dig,427,1025178,0.0-132.0-0.0,,,,,,,,,,,"[{""stimulus"":""run_exp/static/images/task_images/dig.jpg"",""time"":0},{""stimulus"":""run_exp/static/images/task_images/land.jpg"",""time"":787},{""stimulus"":""run_exp/static/images/task_images/dig.jpg"",""time"":1572}]",[],16,,,,,,,,,,,,,,
harvest,428,1026183,0.0-132.0-1.0,,null,run_exp/static/images/task_images/gems/11.jpg,null,,,,,,6,,,16,,,,,11,0.518950107,0.545454545,,,,,,,
decision,429,1026575,0.0-132.0-2.0,,390,run_exp/static/images/task_images/land.jpg,65,,,,,,6,,,16,,,,,,,,21012,3,3,FALSE,,,
dig,430,1029207,0.0-133.0-0.0,,,,,,,,,,,"[{""stimulus"":""run_exp/static/images/task_images/dig.jpg"",""time"":0},{""stimulus"":""run_exp/static/images/task_images/land.jpg"",""time"":872},{""stimulus"":""run_exp/static/images/task_images/dig.jpg"",""time"":1745}]",[],16,,,,,,,,,,,,,,
harvest,431,1030213,0.0-133.0-1.0,,null,run_exp/static/images/task_images/gems/6.jpg,null,,,,,,3,,,16,,,,,6,0.423265017,0.5,,,,,,,
decision,432,1030606,0.0-133.0-2.0,,393,run_exp/static/images/task_images/land.jpg,65,,,,,,3,,,16,,,,,,,,25043,3,4,FALSE,,,
dig,433,1033235,0.0-134.0-0.0,,,,,,,,,,,"[{""stimulus"":""run_exp/static/images/task_images/dig.jpg"",""time"":0},{""stimulus"":""run_exp/static/images/task_images/land.jpg"",""time"":872},{""stimulus"":""run_exp/static/images/task_images/dig.jpg"",""time"":1745}]",[],16,,,,,,,,,,,,,,
harvest,434,1034239,0.0-134.0-1.0,,null,run_exp/static/images/task_images/gems/3.jpg,null,,,,,,2,,,16,,,,,3,0.601188994,0.666666667,,,,,,,
decision,435,1035206,0.0-134.0-2.0,,965,run_exp/static/images/task_images/land.jpg,76,,,,,,2,,,16,,,,,,,,29644,3,5,TRUE,,,
travel,436,1044268,0.0-135.0-0.0,,,,,,,,,,,"[{""stimulus"":""run_exp/static/images/task_images/rocket-01.jpg"",""time"":0},{""stimulus"":""run_exp/static/images/task_images/rocket-02.jpg"",""time"":1009},{""stimulus"":""run_exp/static/images/task_images/rocket-03.jpg"",""time"":2012},{""stimulus"":""run_exp/static/images/task_images/rocket-04.jpg"",""time"":3016},{""stimulus"":""run_exp/static/images/task_images/rocket-05.jpg"",""time"":4019},{""stimulus"":""run_exp/static/images/task_images/rocket-06.jpg"",""time"":5023},{""stimulus"":""run_exp/static/images/task_images/rocket-07.jpg"",""time"":6027},{""stimulus"":""run_exp/static/images/task_images/rocket-08.jpg"",""time"":7034},{""stimulus"":""run_exp/static/images/task_images/rocket-09.jpg"",""time"":8041}]",[],16,,,,,,,,,,,,,,
alien_welcome,437,1049273,0.0-135.0-1.0,,null,run_exp/static/images/task_images/aliens/old_aliens/planet/alien_planet-32.jpg,null,,,,,,,,,,,,32,"71,19,6,47,73,66,30,56,1,77,65,10,78,75,29,23,32,11,31,16,50,52,37,44,74,70,76,55",,,,,,,,,,
land,438,1049778,0.0-135.0-2.0,,null,run_exp/static/images/task_images/land.jpg,null,,,,,,110,,,17,,,,,,,,,,,,,,
dig,439,1051795,0.0-135.0-3.0,,,,,,,,,,,"[{""stimulus"":""run_exp/static/images/task_images/dig.jpg"",""time"":0},{""stimulus"":""run_exp/static/images/task_images/land.jpg"",""time"":669},{""stimulus"":""run_exp/static/images/task_images/dig.jpg"",""time"":1341}]",[],17,,,,,,,,,,,,,,
harvest,440,1052799,0.0-135.0-4.0,,null,run_exp/static/images/task_images/gems/110.jpg,null,,,,,,95,,,17,,,,,110,0.862886328,0.863636364,,,,,,,
decision,441,1052978,0.0-135.0-5.0,,177,run_exp/static/images/task_images/land.jpg,65,,,,,,95,,,17,,,,,,,,47415,3,0,FALSE,,,
dig,442,1055829,0.0-136.0-0.0,,,,,,,,,,,"[{""stimulus"":""run_exp/static/images/task_images/dig.jpg"",""time"":0},{""stimulus"":""run_exp/static/images/task_images/land.jpg"",""time"":946},{""stimulus"":""run_exp/static/images/task_images/dig.jpg"",""time"":1891}]",[],17,,,,,,,,,,,,,,
harvest,443,1056835,0.0-136.0-1.0,,null,run_exp/static/images/task_images/gems/95.jpg,null,,,,,,80,,,17,,,,,95,0.837966191,0.842105263,,,,,,,
decision,444,1057764,0.0-136.0-2.0,,926,run_exp/static/images/task_images/land.jpg,65,,,,,,80,,,17,,,,,,,,52201,3,1,FALSE,,,
dig,445,1059869,0.0-137.0-0.0,,,,,,,,,,,"[{""stimulus"":""run_exp/static/images/task_images/dig.jpg"",""time"":0},{""stimulus"":""run_exp/static/images/task_images/land.jpg"",""time"":697},{""stimulus"":""run_exp/static/images/task_images/dig.jpg"",""time"":1390}]",[],17,,,,,,,,,,,,,,
harvest,446,1060876,0.0-137.0-1.0,,null,run_exp/static/images/task_images/gems/80.jpg,null,,,,,,64,,,17,,,,,80,0.79606883,0.8,,,,,,,
decision,447,1060984,0.0-137.0-2.0,,106,run_exp/static/images/task_images/land.jpg,65,,,,,,64,,,17,,,,,,,,55422,3,2,FALSE,,,
dig,448,1063902,0.0-138.0-0.0,,,,,,,,,,,"[{""stimulus"":""run_exp/static/images/task_images/dig.jpg"",""time"":0},{""stimulus"":""run_exp/static/images/task_images/land.jpg"",""time"":969},{""stimulus"":""run_exp/static/images/task_images/dig.jpg"",""time"":1937}]",[],17,,,,,,,,,,,,,,
harvest,449,1064903,0.0-138.0-1.0,,null,run_exp/static/images/task_images/gems/64.jpg,null,,,,,,56,,,17,,,,,64,0.882607934,0.875,,,,,,,
decision,450,1065072,0.0-138.0-2.0,,168,run_exp/static/images/task_images/land.jpg,65,,,,,,56,,,17,,,,,,,,59510,3,3,FALSE,,,
dig,451,1067925,0.0-139.0-0.0,,,,,,,,,,,"[{""stimulus"":""run_exp/static/images/task_images/dig.jpg"",""time"":0},{""stimulus"":""run_exp/static/images/task_images/land.jpg"",""time"":947},{""stimulus"":""run_exp/static/images/task_images/dig.jpg"",""time"":1891}]",[],17,,,,,,,,,,,,,,
harvest,452,1068927,0.0-139.0-1.0,,null,run_exp/static/images/task_images/gems/56.jpg,null,,,,,,47,,,17,,,,,56,0.844981627,0.839285714,,,,,,,
decision,453,1069161,0.0-139.0-2.0,,231,run_exp/static/images/task_images/land.jpg,65,,,,,,47,,,17,,,,,,,,63598,3,4,FALSE,,,
dig,454,1071949,0.0-140.0-0.0,,,,,,,,,,,"[{""stimulus"":""run_exp/static/images/task_images/dig.jpg"",""time"":1},{""stimulus"":""run_exp/static/images/task_images/land.jpg"",""time"":925},{""stimulus"":""run_exp/static/images/task_images/dig.jpg"",""time"":1851}]",[],17,,,,,,,,,,,,,,
harvest,455,1072955,0.0-140.0-1.0,,null,run_exp/static/images/task_images/gems/47.jpg,null,,,,,,41,,,17,,,,,47,0.869219717,0.872340426,,,,,,,
decision,456,1073001,0.0-140.0-2.0,,43,run_exp/static/images/task_images/land.jpg,65,,,,,,41,,,17,,,,,,,,67438,3,5,FALSE,,,
