trial_type,trial_index,time_elapsed,internal_node_id,interactions,blur_events,focus_events,fullscreenenter_events,fullscreenexit_events,success,rt,stimulus,key_press,prompt,subject_id,participant_id,age,gender,button_pressed,next_reward,animation_sequence,responses,planet,curr_prac_trial,n_prac_rounds,alien,aliens,reward_received,decay_rate_actual,decay_rate_exp,time_in_block,block_num,prt,last_trial_on_planet,button_html,bonus,num_failures
pavlovia,0,11,0.0-0.0,"""event"",""trial"",""time""
""fullscreenenter"",""1"",""77778""
","
","
","""event"",""trial"",""time""
""fullscreenenter"",""1"",""77778""
","
",,,,,,,,,,,,,,,,,,,,,,,,,,,,
fullscreen,1,78760,0.0-1.0,"""event"",""trial"",""time""
""fullscreenenter"",""1"",""77778""
","
","
","""event"",""trial"",""time""
""fullscreenenter"",""1"",""77778""
","
",TRUE,,,,,,,,,,,,,,,,,,,,,,,,,,,
instruc_welcome,2,88745,0.0-2.0,"""event"",""trial"",""time""
""fullscreenenter"",""1"",""77778""
","
","
","""event"",""trial"",""time""
""fullscreenenter"",""1"",""77778""
","
",,null,run_exp/static/audio/clip_1_welcome.m4a,null,"<p>Howdy! In this experiment, you’ll be an explorer traveling through space to collect space treasure.</p><p>Your mission is to collect as much treasure as possible.</p><br><br><p><img src='run_exp/static/images/task_images/opening_img-01.jpg' height='300' width='auto'></p>",10252,4754,18.17,Male,,,,,,,,,,,,,,,,,,,
audio-keyboard-response,3,105344,0.0-3.0,"""event"",""trial"",""time""
""fullscreenenter"",""1"",""77778""
","
","
","""event"",""trial"",""time""
""fullscreenenter"",""1"",""77778""
","
",,null,run_exp/static/audio/clip_2_move.m4a,null,,,,,,,,,,,,,,,,,,,,,,,,
welcome_dec,4,106554,0.0-4.0,"""event"",""trial"",""time""
""fullscreenenter"",""1"",""77778""
","
","
","""event"",""trial"",""time""
""fullscreenenter"",""1"",""77778""
","
",,1205.8,"<p>Howdy! In this experiment, you’ll be an explorer traveling through space to collect space treasure.</p><p>Your mission is to collect as much treasure as possible.</p><br><br><p><img src='run_exp/static/images/task_images/opening_img-01.jpg' height='300' width='auto'></p>",,,,,,,1,,,,,,,,,,,,,,,,,,
html-keyboard-response,5,107094,0.0-5.0,"""event"",""trial"",""time""
""fullscreenenter"",""1"",""77778""
","
","
","""event"",""trial"",""time""
""fullscreenenter"",""1"",""77778""
","
",,538.7999997,"<p>Howdy! In this experiment, you’ll be an explorer traveling through space to collect space treasure.</p><p>Your mission is to collect as much treasure as possible.</p><br><br><p><img src='run_exp/static/images/task_images/opening_img-01.jpg' height='300' width='auto'></p><button class=""jspsych-html-btn-unchosen""><img src=""run_exp/static/images/task_images/planet-01.jpg"" height=""50""></button><button class=""jspsych-html-btn-chosen""><img src=""run_exp/static/images/task_images/planet-02.jpg"" height=""50""></button><p><b>[press the space bar to lock in your answer]<b><br></p>",32,,,,,,,,,,,,,,,,,,,,,,,,
instruc_goal,6,117164,0.0-6.0-0.0,"""event"",""trial"",""time""
""fullscreenenter"",""1"",""77778""
","
","
","""event"",""trial"",""time""
""fullscreenenter"",""1"",""77778""
","
",,null,run_exp/static/audio/clip_3_goal.m4a,null,"<p> As a space explorer, you’ll visit different planets to dig for space treasure, these pink gems.</p> <p> The more treasure you dig up, the more bonus money you’ll win! </p><br><br><p><img src='run_exp/static/images/task_images/pink_gem.jpg' height='300' width='auto'></p>",,,,,,,,,,,,,,,,,,,,,,,
instruc_goal,7,118991,0.0-6.0-1.0,"""event"",""trial"",""time""
""fullscreenenter"",""1"",""77778""
","
","
","""event"",""trial"",""time""
""fullscreenenter"",""1"",""77778""
","
",,1824.4,"<p> As a space explorer, you’ll visit different planets to dig for space treasure, these pink gems.</p> <p> The more treasure you dig up, the more bonus money you’ll win! </p><br><br><p><img src='run_exp/static/images/task_images/pink_gem.jpg' height='300' width='auto'></p>",,,,,,,1,,,,,,,,,,,,,,,,,,
html-keyboard-response,8,119381,0.0-6.0-2.0,"""event"",""trial"",""time""
""fullscreenenter"",""1"",""77778""
","
","
","""event"",""trial"",""time""
""fullscreenenter"",""1"",""77778""
","
",,389.3000002,"<p> As a space explorer, you’ll visit different planets to dig for space treasure, these pink gems.</p> <p> The more treasure you dig up, the more bonus money you’ll win! </p><br><br><p><img src='run_exp/static/images/task_images/pink_gem.jpg' height='300' width='auto'></p><button class=""jspsych-html-btn-unchosen""><img src=""run_exp/static/images/task_images/planet-01.jpg"" height=""50""></button><button class=""jspsych-html-btn-chosen""><img src=""run_exp/static/images/task_images/planet-02.jpg"" height=""50""></button><p><b>[press the space bar to lock in your answer]<b><br></p>",32,,,,,,,,,,,,,,,,,,,,,,,,
instruc_dig,9,135384,0.0-7.0-0.0,"""event"",""trial"",""time""
""fullscreenenter"",""1"",""77778""
","
","
","""event"",""trial"",""time""
""fullscreenenter"",""1"",""77778""
","
",,null,run_exp/static/audio/clip_4_dig.m4a,null,,,,,,,100,,,,,,,,,,,,,,,,,
instruc_dig_try,10,136232,0.0-7.0-1.0,"""event"",""trial"",""time""
""fullscreenenter"",""1"",""77778""
","
","
","""event"",""trial"",""time""
""fullscreenenter"",""1"",""77778""
","
",,845.7999997,"<p> When you’ve arrived at a new planet, you will dig once. </p> <p>Then, you get to decide if you want to stay on the planet and dig again or travel to a new planet and dig there.</p> <p> To stay and dig, press the letter <strong>‘A’</strong> on your keyboard. Try pressing it now! </p><p><img src='run_exp/static/images/task_images/land.jpg'  height='700' width='auto'></p>",65,"<p> When you’ve arrived at a new planet, you will dig once. </p> <p>Then, you get to decide if you want to stay on the planet and dig again or travel to a new planet and dig there.</p> <p> To stay and dig, press the letter <strong>‘A’</strong> on your keyboard. Try pressing it now! </p><p><img src='run_exp/static/images/task_images/land.jpg'  height='700' width='auto'></p>",,,,,,100,,,,,,,,,,,,,,,,,
dig_prac,11,138239,0.0-7.0-2.0,"""event"",""trial"",""time""
""fullscreenenter"",""1"",""77778""
","
","
","""event"",""trial"",""time""
""fullscreenenter"",""1"",""77778""
","
",,,,,,,,,,,,"[{""stimulus"":""run_exp/static/images/task_images/dig.jpg"",""time"":0.3000001907348633},{""stimulus"":""run_exp/static/images/task_images/land.jpg"",""time"":670},{""stimulus"":""run_exp/static/images/task_images/dig.jpg"",""time"":1335.9000000953674}]",[],,,,,,,,,,,,,,,
instruc_travel,12,174545,0.0-7.0-3.0,"""event"",""trial"",""time""
""fullscreenenter"",""1"",""77778""
","
","
","""event"",""trial"",""time""
""fullscreenenter"",""1"",""77778""
","
",,null,run_exp/static/audio/clip_5_travel.m4a,null,"<p>Every time you dig up gems, there are less gems on the planet, so the more you dig on a planet the fewer gems you’ll get with each dig.</p><p>When gems are running low, you may want to travel to a new planet. </p> <p>  Planets are very far apart in this galaxy, so it will take some time to travel between them. </p> <br><p>There are lots and lots of planets for you to visit, so you won’t be able to return to any planets you’ve seen before. </p><br><p>To leave this planet and travel to a new one, press the letter <strong>‘L’</strong> on your keyboard. Try pressing it now! </p><p><img src='run_exp/static/images/task_images/rocket-01.jpg'  height='600' width='auto'></p>",,,,,,,,,,,,,,,,,,,,,,,
instruc_travel_try,13,174601,0.0-7.0-4.0,"""event"",""trial"",""time""
""fullscreenenter"",""1"",""77778""
","
","
","""event"",""trial"",""time""
""fullscreenenter"",""1"",""77778""
","
",,49.4000001,"<p>Every time you dig up gems, there are less gems on the planet, so the more you dig on a planet the fewer gems you’ll get with each dig.</p><p>When gems are running low, you may want to travel to a new planet. </p> <p>  Planets are very far apart in this galaxy, so it will take some time to travel between them. </p> <br><p>There are lots and lots of planets for you to visit, so you won’t be able to return to any planets you’ve seen before. </p><br><p>To leave this planet and travel to a new one, press the letter <strong>‘L’</strong> on your keyboard. Try pressing it now! </p><p><img src='run_exp/static/images/task_images/rocket-01.jpg'  height='600' width='auto'></p>",76,"<p>Every time you dig up gems, there are less gems on the planet, so the more you dig on a planet the fewer gems you’ll get with each dig.</p><p>When gems are running low, you may want to travel to a new planet. </p> <p>  Planets are very far apart in this galaxy, so it will take some time to travel between them. </p> <br><p>There are lots and lots of planets for you to visit, so you won’t be able to return to any planets you’ve seen before. </p><br><p>To leave this planet and travel to a new one, press the letter <strong>‘L’</strong> on your keyboard. Try pressing it now! </p><p><img src='run_exp/static/images/task_images/rocket-01.jpg'  height='600' width='auto'></p>",,,,,,,,,,,,,,,,,,,,,,,
travel_prac,14,184605,0.0-7.0-5.0,"""event"",""trial"",""time""
""fullscreenenter"",""1"",""77778""
","
","
","""event"",""trial"",""time""
""fullscreenenter"",""1"",""77778""
","
",,,,,,,,,,,,"[{""stimulus"":""run_exp/static/images/task_images/rocket-01.jpg"",""time"":0.5},{""stimulus"":""run_exp/static/images/task_images/rocket-02.jpg"",""time"":1114.2000002861023},{""stimulus"":""run_exp/static/images/task_images/rocket-03.jpg"",""time"":2224.7000002861023},{""stimulus"":""run_exp/static/images/task_images/rocket-04.jpg"",""time"":3336.0999999046326},{""stimulus"":""run_exp/static/images/task_images/rocket-05.jpg"",""time"":4461.900000095367},{""stimulus"":""run_exp/static/images/task_images/rocket-06.jpg"",""time"":5558.5},{""stimulus"":""run_exp/static/images/task_images/rocket-07.jpg"",""time"":6669.300000190735},{""stimulus"":""run_exp/static/images/task_images/rocket-08.jpg"",""time"":7780},{""stimulus"":""run_exp/static/images/task_images/rocket-09.jpg"",""time"":8891.400000095367}]",[],0,,,,,,,,,,,,,,
instruc_alien_greet,15,211795,0.0-7.0-6.0,"""event"",""trial"",""time""
""fullscreenenter"",""1"",""77778""
","
","
","""event"",""trial"",""time""
""fullscreenenter"",""1"",""77778""
","
",,null,run_exp/static/audio/clip_6_alien.m4a,null,"<p>When you arrive at a new planet, the alien who owns the treasure mine on that planet will greet you!</p><p>The better an alien takes care of their mine the easier it is to dig for gems. Some aliens take better care of their mine than others. So, you won’t get exactly the same amount of gems on each planet.</p><p>What the alien looks like does not tell you anything about how many gems there are on the planet.</p><br><p><img src=""run_exp/static/images/task_images/aliens/instructions_aliens/planet/alien_planet-1.jpg""  height=""600"" width=""auto""></p>",,,,,,,,,,,,,,,,,,,,,,,
instruc_alien_greet,16,216374,0.0-7.0-7.0,"""event"",""trial"",""time""
""fullscreenenter"",""1"",""77778""
","
","
","""event"",""trial"",""time""
""fullscreenenter"",""1"",""77778""
","
",,4570.1,"<p>When you arrive at a new planet, the alien who owns the treasure mine on that planet will greet you!</p><p>The better an alien takes care of their mine the easier it is to dig for gems. Some aliens take better care of their mine than others. So, you won’t get exactly the same amount of gems on each planet.</p><p>What the alien looks like does not tell you anything about how many gems there are on the planet.</p><br><p><img src=""run_exp/static/images/task_images/aliens/instructions_aliens/planet/alien_planet-1.jpg""  height=""600"" width=""auto""></p>",,,,,,,1,,,,,,,,,,,,,,,,,,
html-keyboard-response,17,216822,0.0-7.0-8.0,"""event"",""trial"",""time""
""fullscreenenter"",""1"",""77778""
","
","
","""event"",""trial"",""time""
""fullscreenenter"",""1"",""77778""
","
",,442.8000002,"<p>When you arrive at a new planet, the alien who owns the treasure mine on that planet will greet you!</p><p>The better an alien takes care of their mine the easier it is to dig for gems. Some aliens take better care of their mine than others. So, you won’t get exactly the same amount of gems on each planet.</p><p>What the alien looks like does not tell you anything about how many gems there are on the planet.</p><br><p><img src=""run_exp/static/images/task_images/aliens/instructions_aliens/planet/alien_planet-1.jpg""  height=""600"" width=""auto""></p><button class=""jspsych-html-btn-unchosen""><img src=""run_exp/static/images/task_images/planet-01.jpg"" height=""50""></button><button class=""jspsych-html-btn-chosen""><img src=""run_exp/static/images/task_images/planet-02.jpg"" height=""50""></button><p><b>[press the space bar to lock in your answer]<b><br></p>",32,,,,,,,,,,,,,,,,,,,,,,,,
time_out,18,227955,0.0-8.0-0.0,"""event"",""trial"",""time""
""fullscreenenter"",""1"",""77778""
","
","
","""event"",""trial"",""time""
""fullscreenenter"",""1"",""77778""
","
",,null,run_exp/static/audio/clip_7_timeout.m4a,null,"<p>If you don't make your choice fast enough, you’ll have to wait a few seconds before you can make another one.</p><p>You can’t dig for more gems or travel to new planets. You just have to sit and wait.</p><br><p><img src='run_exp/static/images/task_images/time_out.jpg'  height='600' width='auto'></p>",,,,,,,,,,,,,,,,,,,,,,,
time_out,19,238284,0.0-8.0-1.0,"""event"",""trial"",""time""
""fullscreenenter"",""1"",""77778""
","
","
","""event"",""trial"",""time""
""fullscreenenter"",""1"",""77778""
","
",,10321.9,"<p>If you don't make your choice fast enough, you’ll have to wait a few seconds before you can make another one.</p><p>You can’t dig for more gems or travel to new planets. You just have to sit and wait.</p><br><p><img src='run_exp/static/images/task_images/time_out.jpg'  height='600' width='auto'></p>",,,,,,,1,,,,,,,,,,,,,,,,,,
html-keyboard-response,20,238779,0.0-8.0-2.0,"""event"",""trial"",""time""
""fullscreenenter"",""1"",""77778""
","
","
","""event"",""trial"",""time""
""fullscreenenter"",""1"",""77778""
","
",,490.5999999,"<p>If you don't make your choice fast enough, you’ll have to wait a few seconds before you can make another one.</p><p>You can’t dig for more gems or travel to new planets. You just have to sit and wait.</p><br><p><img src='run_exp/static/images/task_images/time_out.jpg'  height='600' width='auto'></p><button class=""jspsych-html-btn-unchosen""><img src=""run_exp/static/images/task_images/planet-01.jpg"" height=""50""></button><button class=""jspsych-html-btn-chosen""><img src=""run_exp/static/images/task_images/planet-02.jpg"" height=""50""></button><p><b>[press the space bar to lock in your answer]<b><br></p>",32,,,,,,,,,,,,,,,,,,,,,,,,
instruc_break,21,254455,0.0-9.0-0.0,"""event"",""trial"",""time""
""fullscreenenter"",""1"",""77778""
","
","
","""event"",""trial"",""time""
""fullscreenenter"",""1"",""77778""
","
",,null,run_exp/static/audio/clip_8_break.m4a,null,"<p> After digging and traveling for a while, you’ll be able to take a break at home base. </p><p>The game will last 20 minutes no matter what.</p><p>You will visit home base every 5 minutes, so, you will visit home base three times during the game.</p><br><p><img src='run_exp/static/images/task_images/home_base.jpg' height='600' width='auto'></p>",,,,,,,,,,,,,,,,,,,,,,,
instruc_break,22,257396,0.0-9.0-1.0,"""event"",""trial"",""time""
""fullscreenenter"",""1"",""77778""
","
","
","""event"",""trial"",""time""
""fullscreenenter"",""1"",""77778""
","
",,2932.4,"<p> After digging and traveling for a while, you’ll be able to take a break at home base. </p><p>The game will last 20 minutes no matter what.</p><p>You will visit home base every 5 minutes, so, you will visit home base three times during the game.</p><br><p><img src='run_exp/static/images/task_images/home_base.jpg' height='600' width='auto'></p>",,,,,,,1,,,,,,,,,,,,,,,,,,
html-keyboard-response,23,257871,0.0-9.0-2.0,"""event"",""trial"",""time""
""fullscreenenter"",""1"",""77778""
","
","
","""event"",""trial"",""time""
""fullscreenenter"",""1"",""77778""
","
",,471.5,"<p> After digging and traveling for a while, you’ll be able to take a break at home base. </p><p>The game will last 20 minutes no matter what.</p><p>You will visit home base every 5 minutes, so, you will visit home base three times during the game.</p><br><p><img src='run_exp/static/images/task_images/home_base.jpg' height='600' width='auto'></p><button class=""jspsych-html-btn-unchosen""><img src=""run_exp/static/images/task_images/planet-01.jpg"" height=""50""></button><button class=""jspsych-html-btn-chosen""><img src=""run_exp/static/images/task_images/planet-02.jpg"" height=""50""></button><p><b>[press the space bar to lock in your answer]<b><br></p>",32,,,,,,,,,,,,,,,,,,,,,,,,
instruc_prac_game,24,268036,0.0-10.0-0.0,"""event"",""trial"",""time""
""fullscreenenter"",""1"",""77778""
","
","
","""event"",""trial"",""time""
""fullscreenenter"",""1"",""77778""
","
",,null,run_exp/static/audio/clip_9_practice.m4a,null,"<p> Are you ready to play a practice game? </p> <p>In this practice game, you'll be digging up barrels of gems. But, in the real game, you'll be digging up the gems themselves. </p>",,,,,,,,,,,,,,,,,,,,,,,
html-button-response,25,302271,0.0-10.0-1.0,"""event"",""trial"",""time""
""fullscreenenter"",""1"",""77778""
","
","
","""event"",""trial"",""time""
""fullscreenenter"",""1"",""77778""
","
",,34229.5,"<p> Are you ready to play a practice game? </p> <p>In this practice game, you'll be digging up barrels of gems. But, in the real game, you'll be digging up the gems themselves. </p>",,,,,,,0,,,,,,,,,,,,,,,,,,
alien_welcome_prac,26,307281,0.0-11.0-0.0,"""event"",""trial"",""time""
""fullscreenenter"",""1"",""77778""
","
","
","""event"",""trial"",""time""
""fullscreenenter"",""1"",""77778""
","
",,null,run_exp/static/images/task_images/aliens/practice_aliens/planet/alien_planet-5.jpg,null,,,,,,,,,,,,,,,,,,,,,,,,
land_prac,27,307784,0.0-11.0-1.0,"""event"",""trial"",""time""
""fullscreenenter"",""1"",""77778""
","
","
","""event"",""trial"",""time""
""fullscreenenter"",""1"",""77778""
","
",,null,run_exp/static/images/task_images/land.jpg,null,,,,,,,107,,,0,,,,,,,,,,,,,,
dig_prac,28,309804,0.0-11.0-2.0,"""event"",""trial"",""time""
""fullscreenenter"",""1"",""77778""
","
","
","""event"",""trial"",""time""
""fullscreenenter"",""1"",""77778""
","
",,,,,,,,,,,,"[{""stimulus"":""run_exp/static/images/task_images/dig.jpg"",""time"":0.5},{""stimulus"":""run_exp/static/images/task_images/land.jpg"",""time"":669.5999999046326},{""stimulus"":""run_exp/static/images/task_images/dig.jpg"",""time"":1337}]",[],,,,,,,,,,,,,,,
harvest_prac,29,310808,0.0-11.0-3.0,"""event"",""trial"",""time""
""fullscreenenter"",""1"",""77778""
","
","
","""event"",""trial"",""time""
""fullscreenenter"",""1"",""77778""
","
",,null,run_exp/static/images/task_images/barrel_text.jpg,null,,,,,,,,,,,,,,,,,,,,,,,,
decision_prac,30,312107,0.0-11.0-4.0,"""event"",""trial"",""time""
""fullscreenenter"",""1"",""77778""
","
","
","""event"",""trial"",""time""
""fullscreenenter"",""1"",""77778""
","
",,1297.8,run_exp/static/images/task_images/land.jpg,65,,,,,,,,,,,1,,,,,,,,,,,,,
dig_prac,31,314119,0.0-12.0-0.0,"""event"",""trial"",""time""
""fullscreenenter"",""1"",""77778""
","
","
","""event"",""trial"",""time""
""fullscreenenter"",""1"",""77778""
","
",,,,,,,,,,,,"[{""stimulus"":""run_exp/static/images/task_images/dig.jpg"",""time"":0.40000009536743164},{""stimulus"":""run_exp/static/images/task_images/land.jpg"",""time"":670},{""stimulus"":""run_exp/static/images/task_images/dig.jpg"",""time"":1336.1000003814697}]",[],,,,,,,,,,,,,,,
harvest_prac,32,315133,0.0-12.0-1.0,"""event"",""trial"",""time""
""fullscreenenter"",""1"",""77778""
","
","
","""event"",""trial"",""time""
""fullscreenenter"",""1"",""77778""
","
",,null,run_exp/static/images/task_images/barrel_text.jpg,null,,,,,,,,,,,,,,,,,,,,,,,,
decision_prac,33,315354,0.0-12.0-2.0,"""event"",""trial"",""time""
""fullscreenenter"",""1"",""77778""
","
","
","""event"",""trial"",""time""
""fullscreenenter"",""1"",""77778""
","
",,218.8999996,run_exp/static/images/task_images/land.jpg,65,,,,,,,,,,,2,,,,,,,,,,,,,
dig_prac,34,317363,0.0-13.0-0.0,"""event"",""trial"",""time""
""fullscreenenter"",""1"",""77778""
","
","
","""event"",""trial"",""time""
""fullscreenenter"",""1"",""77778""
","
",,,,,,,,,,,,"[{""stimulus"":""run_exp/static/images/task_images/dig.jpg"",""time"":0.40000009536743164},{""stimulus"":""run_exp/static/images/task_images/land.jpg"",""time"":670.1000003814697},{""stimulus"":""run_exp/static/images/task_images/dig.jpg"",""time"":1337.9000000953674}]",[],,,,,,,,,,,,,,,
harvest_prac,35,318366,0.0-13.0-1.0,"""event"",""trial"",""time""
""fullscreenenter"",""1"",""77778""
","
","
","""event"",""trial"",""time""
""fullscreenenter"",""1"",""77778""
","
",,null,run_exp/static/images/task_images/barrel_text.jpg,null,,,,,,,,,,,,,,,,,,,,,,,,
decision_prac,36,318779,0.0-13.0-2.0,"""event"",""trial"",""time""
""fullscreenenter"",""1"",""77778""
","
","
","""event"",""trial"",""time""
""fullscreenenter"",""1"",""77778""
","
",,410.7000003,run_exp/static/images/task_images/land.jpg,65,,,,,,,,,,,3,,,,,,,,,,,,,
dig_prac,37,320791,0.0-14.0-0.0,"""event"",""trial"",""time""
""fullscreenenter"",""1"",""77778""
","
","
","""event"",""trial"",""time""
""fullscreenenter"",""1"",""77778""
","
",,,,,,,,,,,,"[{""stimulus"":""run_exp/static/images/task_images/dig.jpg"",""time"":0.40000009536743164},{""stimulus"":""run_exp/static/images/task_images/land.jpg"",""time"":669.8000001907349},{""stimulus"":""run_exp/static/images/task_images/dig.jpg"",""time"":1338}]",[],,,,,,,,,,,,,,,
harvest_prac,38,321794,0.0-14.0-1.0,"""event"",""trial"",""time""
""fullscreenenter"",""1"",""77778""
","
","
","""event"",""trial"",""time""
""fullscreenenter"",""1"",""77778""
","
",,null,run_exp/static/images/task_images/barrel_text.jpg,null,,,,,,,,,,,,,,,,,,,,,,,,
decision_prac,39,322071,0.0-14.0-2.0,"""event"",""trial"",""time""
""fullscreenenter"",""1"",""77778""
","
","
","""event"",""trial"",""time""
""fullscreenenter"",""1"",""77778""
","
",,275.0999999,run_exp/static/images/task_images/land.jpg,65,,,,,,,,,,,4,,,,,,,,,,,,,
dig_prac,40,324081,0.0-15.0-0.0,"""event"",""trial"",""time""
""fullscreenenter"",""1"",""77778""
","
","
","""event"",""trial"",""time""
""fullscreenenter"",""1"",""77778""
","
",,,,,,,,,,,,"[{""stimulus"":""run_exp/static/images/task_images/dig.jpg"",""time"":0.5},{""stimulus"":""run_exp/static/images/task_images/land.jpg"",""time"":669.1999998092651},{""stimulus"":""run_exp/static/images/task_images/dig.jpg"",""time"":1336.6999998092651}]",[],,,,,,,,,,,,,,,
harvest_prac,41,325084,0.0-15.0-1.0,"""event"",""trial"",""time""
""fullscreenenter"",""1"",""77778""
","
","
","""event"",""trial"",""time""
""fullscreenenter"",""1"",""77778""
","
",,null,run_exp/static/images/task_images/barrel_text.jpg,null,,,,,,,,,,,,,,,,,,,,,,,,
decision_prac,42,325675,0.0-15.0-2.0,"""event"",""trial"",""time""
""fullscreenenter"",""1"",""77778""
","
","
","""event"",""trial"",""time""
""fullscreenenter"",""1"",""77778""
","
",,588.4000001,run_exp/static/images/task_images/land.jpg,65,,,,,,,,,,,,1,,,,,,,,,,,,
quiz_instruc,43,328706,0.0-16.0-0.0,"""event"",""trial"",""time""
""fullscreenenter"",""1"",""77778""
","
","
","""event"",""trial"",""time""
""fullscreenenter"",""1"",""77778""
","
",,3024.5,run_exp/static/audio/clip_10_quiz.m4a,,,,,,,0,,,,,,,,,,,,,,,,,,
instruc_repeat,44,371500,0.0-16.0-1.0,"""event"",""trial"",""time""
""fullscreenenter"",""1"",""77778""
","
","
","""event"",""trial"",""time""
""fullscreenenter"",""1"",""77778""
","
",,null,"<p> Are you ready to play a practice game? </p> <p>In this practice game, you'll be digging up barrels of gems. But, in the real game, you'll be digging up the gems themselves. </p>",null,"<p>In this game, your goal is to collect as many gems as you can. That’s how you will win bonus money. </p> <p>The entire game will last 20 minutes no matter how many gems you collect or how many planets you visit. </p><p>To stay on a planet and dig again, press the letter A on your keyboard. To leave for a new planet, press the letter L.</p><p>The more you dig on a planet, the fewer gems you’ll get with each dig which is why you might consider leaving for a new planet. </p><p>When you arrive at a new planet, you’ll be greeted by an alien. What the alien looks like does not tell you anything about how much treasure is on the planet. </p>",,,,,,,,,,,,,,,,,,,,,,,
instruc_repeat_continue,45,372722,0.0-16.0-2.0,"""event"",""trial"",""time""
""fullscreenenter"",""1"",""77778""
","
","
","""event"",""trial"",""time""
""fullscreenenter"",""1"",""77778""
","
",,1218.8,"<p> Are you ready to play a practice game? </p> <p>In this practice game, you'll be digging up barrels of gems. But, in the real game, you'll be digging up the gems themselves. </p>",,,,,,,0,,,,,,,,,,,,,,,,,,
quiz_q_1_ask,46,376370,0.0-16.0-3.0,"""event"",""trial"",""time""
""fullscreenenter"",""1"",""77778""
","
","
","""event"",""trial"",""time""
""fullscreenenter"",""1"",""77778""
","
",,3645.3,run_exp/static/audio/clip_11_q1_ask.m4a,,,,,,,2,,,,,,,,,,,,,,,,,,
quiz_q_1_fb_correct,47,380260,0.0-17.0-0.0,"""event"",""trial"",""time""
""fullscreenenter"",""1"",""77778""
","
","
","""event"",""trial"",""time""
""fullscreenenter"",""1"",""77778""
","
",,null,run_exp/static/audio/clip_12_q1_correct.m4a,null,<p>That’s correct. You win extra money by collecting more gems.</p>,,,,,,,,,,,,,,,,,,,,,,,
quiz_q_2_ask,48,385590,0.0-17.0-1.0,"""event"",""trial"",""time""
""fullscreenenter"",""1"",""77778""
","
","
","""event"",""trial"",""time""
""fullscreenenter"",""1"",""77778""
","
",,5326.4,run_exp/static/audio/clip_14_q2_ask.m4a,,,,,,,1,,,,,,,,,,,,,,,,,,
quiz_q_2_fb_correct,49,389638,0.0-18.0-0.0,"""event"",""trial"",""time""
""fullscreenenter"",""1"",""77778""
","
","
","""event"",""trial"",""time""
""fullscreenenter"",""1"",""77778""
","
",,null,run_exp/static/audio/clip_15_q2_correct.m4a,null,<p>That’s correct. The experiment is 20 minutes no matter what.</p>,,,,,,,,,,,,,,,,,,,,,,,
quiz_q_3_ask,50,392160,0.0-18.0-1.0,"""event"",""trial"",""time""
""fullscreenenter"",""1"",""77778""
","
","
","""event"",""trial"",""time""
""fullscreenenter"",""1"",""77778""
","
",,2519.9,run_exp/static/audio/clip_17_q3_ask.m4a,,,,,,,1,,,,,,,,,,,,,,,,,,
quiz_q_3_fb_correct,51,396179,0.0-19.0-0.0,"""event"",""trial"",""time""
""fullscreenenter"",""1"",""77778""
","
","
","""event"",""trial"",""time""
""fullscreenenter"",""1"",""77778""
","
",,null,run_exp/static/audio/clip_18_q3_correct.m4a,null,<p> That’s correct. You press the letter L to travel to a new planet.</p>,,,,,,,,,,,,,,,,,,,,,,,
quiz_q_4_ask,52,403497,0.0-19.0-1.0,"""event"",""trial"",""time""
""fullscreenenter"",""1"",""77778""
","
","
","""event"",""trial"",""time""
""fullscreenenter"",""1"",""77778""
","
",,7314.4,run_exp/static/audio/clip_20_q4_ask.m4a,,,,,,,0,,,,,,,,,,,,,,,,,,
quiz_q_4_fb_correct,53,408859,0.0-20.0-0.0,"""event"",""trial"",""time""
""fullscreenenter"",""1"",""77778""
","
","
","""event"",""trial"",""time""
""fullscreenenter"",""1"",""77778""
","
",,null,run_exp/static/audio/clip_21_q4_correct.m4a,null,<p> That’s correct. The more you dig on a planet the fewer gems you’ll get with each dig. </p>,,,,,,,,,,,,,,,,,,,,,,,
quiz_q_5_ask,54,410893,0.0-20.0-1.0,"""event"",""trial"",""time""
""fullscreenenter"",""1"",""77778""
","
","
","""event"",""trial"",""time""
""fullscreenenter"",""1"",""77778""
","
",,2026.7,run_exp/static/audio/clip_23_q5_ask.m4a,,,,,,,1,,,,,,,,,,,,,,,,,,
quiz_q_5_fb_correct,55,415939,0.0-21.0-0.0,"""event"",""trial"",""time""
""fullscreenenter"",""1"",""77778""
","
","
","""event"",""trial"",""time""
""fullscreenenter"",""1"",""77778""
","
",,null,run_exp/static/audio/clip_24_q5_correct.m4a,null,<p> That’s correct. The alien tells you nothing about how much treasure is on the planet.</p>,,,,,,,,,,,,,,,,,,,,,,,
quiz_correct,56,419439,0.0-22.0-0.0,"""event"",""trial"",""time""
""fullscreenenter"",""1"",""77778""
","
","
","""event"",""trial"",""time""
""fullscreenenter"",""1"",""77778""
","
",,null,run_exp/static/audio/clip_26_correct_quiz.m4a,null,,,,,,,,,,,,,,,,,,,,,,,,
quiz_correct_continue,57,579547,0.0-22.0-1.0,"""event"",""trial"",""time""
""fullscreenenter"",""1"",""77778""
","
","
","""event"",""trial"",""time""
""fullscreenenter"",""1"",""77778""
","
",,160105.7,<p>Good job! You're now ready to move on to the real game!</p>,,,,,,,0,,,,,,,,,,,,,,,,,,
audio-keyboard-response,58,589883,0.0-22.0-2.0,"""event"",""trial"",""time""
""fullscreenenter"",""1"",""77778""
","
","
","""event"",""trial"",""time""
""fullscreenenter"",""1"",""77778""
","
",,null,run_exp/static/audio/clip_28_real_game.m4a,null,,,,,,,,,,,,,,,,,,,,,,,,
instruc_begin_exp_contine,59,591076,0.0-22.0-3.0,"""event"",""trial"",""time""
""fullscreenenter"",""1"",""77778""
","
","
","""event"",""trial"",""time""
""fullscreenenter"",""1"",""77778""
","
",,1188.7,"<p>Now that you know how  to dig for space treasure and travel to new planets,you can start exploring! </p><p>Do you want to go over the instructions again or get started with the real game?</p>",,,,,,,1,,,,,,1,,,,,,,,,,,,
alien_welcome,60,596084,0.0-23.0-0.0,"""event"",""trial"",""time""
""fullscreenenter"",""1"",""77778""
","
","
","""event"",""trial"",""time""
""fullscreenenter"",""1"",""77778""
","
",,null,run_exp/static/images/task_images/aliens/old_aliens/planet/alien_planet-8.jpg,null,,,,,,,,,,,,,8,"8,19,3,37,30,29,56,77,40,72,33,49,9,44,45,65,21,71,6,7,1,38,32,10,55,26,61,13,48,54,20,36,28,14,5,75,60,27,69,15,59,64,22,35,23",,,,,,,,,,
land,61,596588,0.0-23.0-1.0,"""event"",""trial"",""time""
""fullscreenenter"",""1"",""77778""
","
","
","""event"",""trial"",""time""
""fullscreenenter"",""1"",""77778""
","
",,null,run_exp/static/images/task_images/land.jpg,null,,,,,,,97,,,1,,,,,,,,,,,,,,
dig,62,598595,0.0-23.0-2.0,"""event"",""trial"",""time""
""fullscreenenter"",""1"",""77778""
","
","
","""event"",""trial"",""time""
""fullscreenenter"",""1"",""77778""
","
",,,,,,,,,,,,"[{""stimulus"":""run_exp/static/images/task_images/dig.jpg"",""time"":0.5999999046325684},{""stimulus"":""run_exp/static/images/task_images/land.jpg"",""time"":670.5999999046326},{""stimulus"":""run_exp/static/images/task_images/dig.jpg"",""time"":1337.0999999046326}]",[],1,,,,,,,,,,,,,,
harvest,63,599597,0.0-23.0-3.0,"""event"",""trial"",""time""
""fullscreenenter"",""1"",""77778""
","
","
","""event"",""trial"",""time""
""fullscreenenter"",""1"",""77778""
","
",,null,run_exp/static/images/task_images/gems/97.jpg,null,,,,,,,21,,,1,,,,,97,0.21525432,0.216494845,,,,,,,
decision,64,600325,0.0-23.0-4.0,"""event"",""trial"",""time""
""fullscreenenter"",""1"",""77778""
","
","
","""event"",""trial"",""time""
""fullscreenenter"",""1"",""77778""
","
",,723.7999997,run_exp/static/images/task_images/land.jpg,65,,,,,,,21,,,1,,,,,,,,9246,1,0,FALSE,,,
dig,65,602608,0.0-24.0-0.0,"""event"",""trial"",""time""
""fullscreenenter"",""1"",""77778""
","
","
","""event"",""trial"",""time""
""fullscreenenter"",""1"",""77778""
","
",,,,,,,,,,,,"[{""stimulus"":""run_exp/static/images/task_images/dig.jpg"",""time"":0.5},{""stimulus"":""run_exp/static/images/task_images/land.jpg"",""time"":760.7999997138977},{""stimulus"":""run_exp/static/images/task_images/dig.jpg"",""time"":1520.1999998092651}]",[],1,,,,,,,,,,,,,,
harvest,66,603611,0.0-24.0-1.0,"""event"",""trial"",""time""
""fullscreenenter"",""1"",""77778""
","
","
","""event"",""trial"",""time""
""fullscreenenter"",""1"",""77778""
","
",,null,run_exp/static/images/task_images/gems/21.jpg,null,,,,,,,3,,,1,,,,,21,0.129048561,0.142857143,,,,,,,
decision,67,604943,0.0-24.0-2.0,"""event"",""trial"",""time""
""fullscreenenter"",""1"",""77778""
","
","
","""event"",""trial"",""time""
""fullscreenenter"",""1"",""77778""
","
",,1331,run_exp/static/images/task_images/land.jpg,65,,,,,,,3,,,1,,,,,,,,13863,1,1,FALSE,,,
dig,68,606615,0.0-25.0-0.0,"""event"",""trial"",""time""
""fullscreenenter"",""1"",""77778""
","
","
","""event"",""trial"",""time""
""fullscreenenter"",""1"",""77778""
","
",,,,,,,,,,,,"[{""stimulus"":""run_exp/static/images/task_images/dig.jpg"",""time"":0.09999990463256836},{""stimulus"":""run_exp/static/images/task_images/land.jpg"",""time"":557.5},{""stimulus"":""run_exp/static/images/task_images/dig.jpg"",""time"":1114.1999998092651}]",[],1,,,,,,,,,,,,,,
harvest,69,607617,0.0-25.0-1.0,"""event"",""trial"",""time""
""fullscreenenter"",""1"",""77778""
","
","
","""event"",""trial"",""time""
""fullscreenenter"",""1"",""77778""
","
",,null,run_exp/static/images/task_images/gems/3.jpg,null,,,,,,,1,,,1,,,,,3,0.210321651,0.333333333,,,,,,,
decision,70,607947,0.0-25.0-2.0,"""event"",""trial"",""time""
""fullscreenenter"",""1"",""77778""
","
","
","""event"",""trial"",""time""
""fullscreenenter"",""1"",""77778""
","
",,327.4000001,run_exp/static/images/task_images/land.jpg,76,,,,,,,1,,,1,,,,,,,,16868,1,2,TRUE,,,
travel,71,617625,0.0-26.0-0.0,"""event"",""trial"",""time""
""fullscreenenter"",""1"",""77778""
","
","
","""event"",""trial"",""time""
""fullscreenenter"",""1"",""77778""
","
",,,,,,,,,,,,"[{""stimulus"":""run_exp/static/images/task_images/rocket-01.jpg"",""time"":0.6999998092651367},{""stimulus"":""run_exp/static/images/task_images/rocket-02.jpg"",""time"":1077.2999997138977},{""stimulus"":""run_exp/static/images/task_images/rocket-03.jpg"",""time"":2150.7999997138977},{""stimulus"":""run_exp/static/images/task_images/rocket-04.jpg"",""time"":3224.5},{""stimulus"":""run_exp/static/images/task_images/rocket-05.jpg"",""time"":4299.199999809265},{""stimulus"":""run_exp/static/images/task_images/rocket-06.jpg"",""time"":5373.39999961853},{""stimulus"":""run_exp/static/images/task_images/rocket-07.jpg"",""time"":6447.099999904633},{""stimulus"":""run_exp/static/images/task_images/rocket-08.jpg"",""time"":7521},{""stimulus"":""run_exp/static/images/task_images/rocket-09.jpg"",""time"":8594.39999961853}]",[],1,,,,,,,,,,,,,,
alien_welcome,72,622628,0.0-26.0-1.0,"""event"",""trial"",""time""
""fullscreenenter"",""1"",""77778""
","
","
","""event"",""trial"",""time""
""fullscreenenter"",""1"",""77778""
","
",,null,run_exp/static/images/task_images/aliens/old_aliens/planet/alien_planet-19.jpg,null,,,,,,,,,,,,,19,"8,19,3,37,30,29,56,77,40,72,33,49,9,44,45,65,21,71,6,7,1,38,32,10,55,26,61,13,48,54,20,36,28,14,5,75,60,27,69,15,59,64,22,35,23",,,,,,,,,,
land,73,623131,0.0-26.0-2.0,"""event"",""trial"",""time""
""fullscreenenter"",""1"",""77778""
","
","
","""event"",""trial"",""time""
""fullscreenenter"",""1"",""77778""
","
",,null,run_exp/static/images/task_images/land.jpg,null,,,,,,,97,,,2,,,,,,,,,,,,,,
dig,74,625137,0.0-26.0-3.0,"""event"",""trial"",""time""
""fullscreenenter"",""1"",""77778""
","
","
","""event"",""trial"",""time""
""fullscreenenter"",""1"",""77778""
","
",,,,,,,,,,,,"[{""stimulus"":""run_exp/static/images/task_images/dig.jpg"",""time"":0.5},{""stimulus"":""run_exp/static/images/task_images/land.jpg"",""time"":673.4000000953674},{""stimulus"":""run_exp/static/images/task_images/dig.jpg"",""time"":1336.2999997138977}]",[],2,,,,,,,,,,,,,,
harvest,75,626140,0.0-26.0-4.0,"""event"",""trial"",""time""
""fullscreenenter"",""1"",""77778""
","
","
","""event"",""trial"",""time""
""fullscreenenter"",""1"",""77778""
","
",,null,run_exp/static/images/task_images/gems/97.jpg,null,,,,,,,13,,,2,,,,,97,0.131889778,0.134020619,,,,,,,
decision,76,627058,0.0-26.0-5.0,"""event"",""trial"",""time""
""fullscreenenter"",""1"",""77778""
","
","
","""event"",""trial"",""time""
""fullscreenenter"",""1"",""77778""
","
",,916.1000004,run_exp/static/images/task_images/land.jpg,65,,,,,,,13,,,2,,,,,,,,35979,1,0,FALSE,,,
dig,77,629154,0.0-27.0-0.0,"""event"",""trial"",""time""
""fullscreenenter"",""1"",""77778""
","
","
","""event"",""trial"",""time""
""fullscreenenter"",""1"",""77778""
","
",,,,,,,,,,,,"[{""stimulus"":""run_exp/static/images/task_images/dig.jpg"",""time"":0.6999998092651367},{""stimulus"":""run_exp/static/images/task_images/land.jpg"",""time"":698},{""stimulus"":""run_exp/static/images/task_images/dig.jpg"",""time"":1391.4000000953674}]",[],2,,,,,,,,,,,,,,
harvest,78,630156,0.0-27.0-1.0,"""event"",""trial"",""time""
""fullscreenenter"",""1"",""77778""
","
","
","""event"",""trial"",""time""
""fullscreenenter"",""1"",""77778""
","
",,null,run_exp/static/images/task_images/gems/13.jpg,null,,,,,,,3,,,2,,,,,13,0.241250164,0.230769231,,,,,,,
decision,79,631291,0.0-27.0-2.0,"""event"",""trial"",""time""
""fullscreenenter"",""1"",""77778""
","
","
","""event"",""trial"",""time""
""fullscreenenter"",""1"",""77778""
","
",,1131.8,run_exp/static/images/task_images/land.jpg,65,,,,,,,3,,,2,,,,,,,,40211,1,1,FALSE,,,
dig,80,633165,0.0-28.0-0.0,"""event"",""trial"",""time""
""fullscreenenter"",""1"",""77778""
","
","
","""event"",""trial"",""time""
""fullscreenenter"",""1"",""77778""
","
",,,,,,,,,,,,"[{""stimulus"":""run_exp/static/images/task_images/dig.jpg"",""time"":0.39999961853027344},{""stimulus"":""run_exp/static/images/task_images/land.jpg"",""time"":625},{""stimulus"":""run_exp/static/images/task_images/dig.jpg"",""time"":1246.3999996185303}]",[],2,,,,,,,,,,,,,,
harvest,81,634169,0.0-28.0-1.0,"""event"",""trial"",""time""
""fullscreenenter"",""1"",""77778""
","
","
","""event"",""trial"",""time""
""fullscreenenter"",""1"",""77778""
","
",,null,run_exp/static/images/task_images/gems/3.jpg,null,,,,,,,1,,,2,,,,,3,0.187727924,0.333333333,,,,,,,
decision,82,634671,0.0-28.0-2.0,"""event"",""trial"",""time""
""fullscreenenter"",""1"",""77778""
","
","
","""event"",""trial"",""time""
""fullscreenenter"",""1"",""77778""
","
",,499.9000001,run_exp/static/images/task_images/land.jpg,76,,,,,,,1,,,2,,,,,,,,43591,1,2,TRUE,,,
travel,83,644175,0.0-29.0-0.0,"""event"",""trial"",""time""
""fullscreenenter"",""1"",""77778""
","
","
","""event"",""trial"",""time""
""fullscreenenter"",""1"",""77778""
","
",,,,,,,,,,,,"[{""stimulus"":""run_exp/static/images/task_images/rocket-01.jpg"",""time"":0.40000009536743164},{""stimulus"":""run_exp/static/images/task_images/rocket-02.jpg"",""time"":1057.8000001907349},{""stimulus"":""run_exp/static/images/task_images/rocket-03.jpg"",""time"":2112.0999999046326},{""stimulus"":""run_exp/static/images/task_images/rocket-04.jpg"",""time"":3167},{""stimulus"":""run_exp/static/images/task_images/rocket-05.jpg"",""time"":4236.900000095367},{""stimulus"":""run_exp/static/images/task_images/rocket-06.jpg"",""time"":5277.699999809265},{""stimulus"":""run_exp/static/images/task_images/rocket-07.jpg"",""time"":6332.5},{""stimulus"":""run_exp/static/images/task_images/rocket-08.jpg"",""time"":7387.900000095367},{""stimulus"":""run_exp/static/images/task_images/rocket-09.jpg"",""time"":8442.800000190735}]",[],2,,,,,,,,,,,,,,
alien_welcome,84,649178,0.0-29.0-1.0,"""event"",""trial"",""time""
""fullscreenenter"",""1"",""77778""
","
","
","""event"",""trial"",""time""
""fullscreenenter"",""1"",""77778""
","
",,null,run_exp/static/images/task_images/aliens/old_aliens/planet/alien_planet-3.jpg,null,,,,,,,,,,,,,3,"8,19,3,37,30,29,56,77,40,72,33,49,9,44,45,65,21,71,6,7,1,38,32,10,55,26,61,13,48,54,20,36,28,14,5,75,60,27,69,15,59,64,22,35,23",,,,,,,,,,
land,85,649681,0.0-29.0-2.0,"""event"",""trial"",""time""
""fullscreenenter"",""1"",""77778""
","
","
","""event"",""trial"",""time""
""fullscreenenter"",""1"",""77778""
","
",,null,run_exp/static/images/task_images/land.jpg,null,,,,,,,102,,,3,,,,,,,,,,,,,,
dig,86,651686,0.0-29.0-3.0,"""event"",""trial"",""time""
""fullscreenenter"",""1"",""77778""
","
","
","""event"",""trial"",""time""
""fullscreenenter"",""1"",""77778""
","
",,,,,,,,,,,,"[{""stimulus"":""run_exp/static/images/task_images/dig.jpg"",""time"":0.5},{""stimulus"":""run_exp/static/images/task_images/land.jpg"",""time"":669.8000001907349},{""stimulus"":""run_exp/static/images/task_images/dig.jpg"",""time"":1336.5}]",[],3,,,,,,,,,,,,,,
harvest,87,652689,0.0-29.0-4.0,"""event"",""trial"",""time""
""fullscreenenter"",""1"",""77778""
","
","
","""event"",""trial"",""time""
""fullscreenenter"",""1"",""77778""
","
",,null,run_exp/static/images/task_images/gems/102.jpg,null,,,,,,,49,,,3,,,,,102,0.481419766,0.480392157,,,,,,,
decision,88,652796,0.0-29.0-5.0,"""event"",""trial"",""time""
""fullscreenenter"",""1"",""77778""
","
","
","""event"",""trial"",""time""
""fullscreenenter"",""1"",""77778""
","
",,103.7999997,run_exp/static/images/task_images/land.jpg,65,,,,,,,49,,,3,,,,,,,,61716,1,0,FALSE,,,
dig,89,655700,0.0-30.0-0.0,"""event"",""trial"",""time""
""fullscreenenter"",""1"",""77778""
","
","
","""event"",""trial"",""time""
""fullscreenenter"",""1"",""77778""
","
",,,,,,,,,,,,"[{""stimulus"":""run_exp/static/images/task_images/dig.jpg"",""time"":0.6000003814697266},{""stimulus"":""run_exp/static/images/task_images/land.jpg"",""time"":968.5},{""stimulus"":""run_exp/static/images/task_images/dig.jpg"",""time"":1933}]",[],3,,,,,,,,,,,,,,
harvest,90,656704,0.0-30.0-1.0,"""event"",""trial"",""time""
""fullscreenenter"",""1"",""77778""
","
","
","""event"",""trial"",""time""
""fullscreenenter"",""1"",""77778""
","
",,null,run_exp/static/images/task_images/gems/49.jpg,null,,,,,,,22,,,3,,,,,49,0.451657895,0.448979592,,,,,,,
decision,91,658771,0.0-30.0-2.0,"""event"",""trial"",""time""
""fullscreenenter"",""1"",""77778""
","
","
","""event"",""trial"",""time""
""fullscreenenter"",""1"",""77778""
","
",,2063,run_exp/static/images/task_images/land.jpg,65,,,,,,,22,,,3,,,,,,,,67691,1,1,FALSE,,,
dig,92,659718,0.0-31.0-0.0,"""event"",""trial"",""time""
""fullscreenenter"",""1"",""77778""
","
","
","""event"",""trial"",""time""
""fullscreenenter"",""1"",""77778""
","
",,,,,,,,,,,,"[{""stimulus"":""run_exp/static/images/task_images/dig.jpg"",""time"":0.5999999046325684},{""stimulus"":""run_exp/static/images/task_images/land.jpg"",""time"":315.8999996185303},{""stimulus"":""run_exp/static/images/task_images/dig.jpg"",""time"":626.6999998092651}]",[],3,,,,,,,,,,,,,,
harvest,93,660721,0.0-31.0-1.0,"""event"",""trial"",""time""
""fullscreenenter"",""1"",""77778""
","
","
","""event"",""trial"",""time""
""fullscreenenter"",""1"",""77778""
","
",,null,run_exp/static/images/task_images/gems/22.jpg,null,,,,,,,12,,,3,,,,,22,0.552159546,0.545454545,,,,,,,
decision,94,661800,0.0-31.0-2.0,"""event"",""trial"",""time""
""fullscreenenter"",""1"",""77778""
","
","
","""event"",""trial"",""time""
""fullscreenenter"",""1"",""77778""
","
",,1075.3,run_exp/static/images/task_images/land.jpg,76,,,,,,,12,,,3,,,,,,,,70720,1,2,TRUE,,,
travel,95,670731,0.0-32.0-0.0,"""event"",""trial"",""time""
""fullscreenenter"",""1"",""77778""
","
","
","""event"",""trial"",""time""
""fullscreenenter"",""1"",""77778""
","
",,,,,,,,,,,,"[{""stimulus"":""run_exp/static/images/task_images/rocket-01.jpg"",""time"":0.6999998092651367},{""stimulus"":""run_exp/static/images/task_images/rocket-02.jpg"",""time"":993.7999997138977},{""stimulus"":""run_exp/static/images/task_images/rocket-03.jpg"",""time"":1984.2999997138977},{""stimulus"":""run_exp/static/images/task_images/rocket-04.jpg"",""time"":2976.2999997138977},{""stimulus"":""run_exp/static/images/task_images/rocket-05.jpg"",""time"":3967},{""stimulus"":""run_exp/static/images/task_images/rocket-06.jpg"",""time"":4957.39999961853},{""stimulus"":""run_exp/static/images/task_images/rocket-07.jpg"",""time"":5948.89999961853},{""stimulus"":""run_exp/static/images/task_images/rocket-08.jpg"",""time"":6940},{""stimulus"":""run_exp/static/images/task_images/rocket-09.jpg"",""time"":7930.699999809265}]",[],3,,,,,,,,,,,,,,
alien_welcome,96,675735,0.0-32.0-1.0,"""event"",""trial"",""time""
""fullscreenenter"",""1"",""77778""
","
","
","""event"",""trial"",""time""
""fullscreenenter"",""1"",""77778""
","
",,null,run_exp/static/images/task_images/aliens/old_aliens/planet/alien_planet-37.jpg,null,,,,,,,,,,,,,37,"8,19,3,37,30,29,56,77,40,72,33,49,9,44,45,65,21,71,6,7,1,38,32,10,55,26,61,13,48,54,20,36,28,14,5,75,60,27,69,15,59,64,22,35,23",,,,,,,,,,
land,97,676238,0.0-32.0-2.0,"""event"",""trial"",""time""
""fullscreenenter"",""1"",""77778""
","
","
","""event"",""trial"",""time""
""fullscreenenter"",""1"",""77778""
","
",,null,run_exp/static/images/task_images/land.jpg,null,,,,,,,101,,,4,,,,,,,,,,,,,,
dig,98,678243,0.0-32.0-3.0,"""event"",""trial"",""time""
""fullscreenenter"",""1"",""77778""
","
","
","""event"",""trial"",""time""
""fullscreenenter"",""1"",""77778""
","
",,,,,,,,,,,,"[{""stimulus"":""run_exp/static/images/task_images/dig.jpg"",""time"":0.5},{""stimulus"":""run_exp/static/images/task_images/land.jpg"",""time"":669.5},{""stimulus"":""run_exp/static/images/task_images/dig.jpg"",""time"":1336.8999996185303}]",[],4,,,,,,,,,,,,,,
harvest,99,679245,0.0-32.0-4.0,"""event"",""trial"",""time""
""fullscreenenter"",""1"",""77778""
","
","
","""event"",""trial"",""time""
""fullscreenenter"",""1"",""77778""
","
",,null,run_exp/static/images/task_images/gems/101.jpg,null,,,,,,,56,,,4,,,,,101,0.556919405,0.554455446,,,,,,,
decision,100,679525,0.0-32.0-5.0,"""event"",""trial"",""time""
""fullscreenenter"",""1"",""77778""
","
","
","""event"",""trial"",""time""
""fullscreenenter"",""1"",""77778""
","
",,278.3000002,run_exp/static/images/task_images/land.jpg,65,,,,,,,56,,,4,,,,,,,,88445,1,0,FALSE,,,
dig,101,682255,0.0-33.0-0.0,"""event"",""trial"",""time""
""fullscreenenter"",""1"",""77778""
","
","
","""event"",""trial"",""time""
""fullscreenenter"",""1"",""77778""
","
",,,,,,,,,,,,"[{""stimulus"":""run_exp/static/images/task_images/dig.jpg"",""time"":0.40000009536743164},{""stimulus"":""run_exp/static/images/task_images/land.jpg"",""time"":910.4000000953674},{""stimulus"":""run_exp/static/images/task_images/dig.jpg"",""time"":1816.3000001907349}]",[],4,,,,,,,,,,,,,,
harvest,102,683257,0.0-33.0-1.0,"""event"",""trial"",""time""
""fullscreenenter"",""1"",""77778""
","
","
","""event"",""trial"",""time""
""fullscreenenter"",""1"",""77778""
","
",,null,run_exp/static/images/task_images/gems/56.jpg,null,,,,,,,31,,,4,,,,,56,0.547793864,0.553571429,,,,,,,
decision,103,683568,0.0-33.0-2.0,"""event"",""trial"",""time""
""fullscreenenter"",""1"",""77778""
","
","
","""event"",""trial"",""time""
""fullscreenenter"",""1"",""77778""
","
",,308.3000002,run_exp/static/images/task_images/land.jpg,65,,,,,,,31,,,4,,,,,,,,92488,1,1,FALSE,,,
dig,104,686268,0.0-34.0-0.0,"""event"",""trial"",""time""
""fullscreenenter"",""1"",""77778""
","
","
","""event"",""trial"",""time""
""fullscreenenter"",""1"",""77778""
","
",,,,,,,,,,,,"[{""stimulus"":""run_exp/static/images/task_images/dig.jpg"",""time"":0.39999961853027344},{""stimulus"":""run_exp/static/images/task_images/land.jpg"",""time"":899.8999996185303},{""stimulus"":""run_exp/static/images/task_images/dig.jpg"",""time"":1797.5}]",[],4,,,,,,,,,,,,,,
harvest,105,687270,0.0-34.0-1.0,"""event"",""trial"",""time""
""fullscreenenter"",""1"",""77778""
","
","
","""event"",""trial"",""time""
""fullscreenenter"",""1"",""77778""
","
",,null,run_exp/static/images/task_images/gems/31.jpg,null,,,,,,,17,,,4,,,,,31,0.551919647,0.548387097,,,,,,,
decision,106,687508,0.0-34.0-2.0,"""event"",""trial"",""time""
""fullscreenenter"",""1"",""77778""
","
","
","""event"",""trial"",""time""
""fullscreenenter"",""1"",""77778""
","
",,236.4000001,run_exp/static/images/task_images/land.jpg,76,,,,,,,17,,,4,,,,,,,,96428,1,2,TRUE,,,
travel,107,697273,0.0-35.0-0.0,"""event"",""trial"",""time""
""fullscreenenter"",""1"",""77778""
","
","
","""event"",""trial"",""time""
""fullscreenenter"",""1"",""77778""
","
",,,,,,,,,,,,"[{""stimulus"":""run_exp/static/images/task_images/rocket-01.jpg"",""time"":0.5},{""stimulus"":""run_exp/static/images/task_images/rocket-02.jpg"",""time"":1087.4000000953674},{""stimulus"":""run_exp/static/images/task_images/rocket-03.jpg"",""time"":2170.9000000953674},{""stimulus"":""run_exp/static/images/task_images/rocket-04.jpg"",""time"":3254.4000000953674},{""stimulus"":""run_exp/static/images/task_images/rocket-05.jpg"",""time"":4338.300000190735},{""stimulus"":""run_exp/static/images/task_images/rocket-06.jpg"",""time"":5424.10000038147},{""stimulus"":""run_exp/static/images/task_images/rocket-07.jpg"",""time"":6506.800000190735},{""stimulus"":""run_exp/static/images/task_images/rocket-08.jpg"",""time"":7591.10000038147},{""stimulus"":""run_exp/static/images/task_images/rocket-09.jpg"",""time"":8674.900000095367}]",[],4,,,,,,,,,,,,,,
alien_welcome,108,702277,0.0-35.0-1.0,"""event"",""trial"",""time""
""fullscreenenter"",""1"",""77778""
","
","
","""event"",""trial"",""time""
""fullscreenenter"",""1"",""77778""
","
",,null,run_exp/static/images/task_images/aliens/old_aliens/planet/alien_planet-30.jpg,null,,,,,,,,,,,,,30,"8,19,3,37,30,29,56,77,40,72,33,49,9,44,45,65,21,71,6,7,1,38,32,10,55,26,61,13,48,54,20,36,28,14,5,75,60,27,69,15,59,64,22,35,23",,,,,,,,,,
land,109,702780,0.0-35.0-2.0,"""event"",""trial"",""time""
""fullscreenenter"",""1"",""77778""
","
","
","""event"",""trial"",""time""
""fullscreenenter"",""1"",""77778""
","
",,null,run_exp/static/images/task_images/land.jpg,null,,,,,,,106,,,5,,,,,,,,,,,,,,
dig,110,704786,0.0-35.0-3.0,"""event"",""trial"",""time""
""fullscreenenter"",""1"",""77778""
","
","
","""event"",""trial"",""time""
""fullscreenenter"",""1"",""77778""
","
",,,,,,,,,,,,"[{""stimulus"":""run_exp/static/images/task_images/dig.jpg"",""time"":0.5},{""stimulus"":""run_exp/static/images/task_images/land.jpg"",""time"":669.5999999046326},{""stimulus"":""run_exp/static/images/task_images/dig.jpg"",""time"":1336.5}]",[],5,,,,,,,,,,,,,,
harvest,111,705791,0.0-35.0-4.0,"""event"",""trial"",""time""
""fullscreenenter"",""1"",""77778""
","
","
","""event"",""trial"",""time""
""fullscreenenter"",""1"",""77778""
","
",,null,run_exp/static/images/task_images/gems/106.jpg,null,,,,,,,51,,,5,,,,,106,0.484061539,0.481132075,,,,,,,
decision,112,706178,0.0-35.0-5.0,"""event"",""trial"",""time""
""fullscreenenter"",""1"",""77778""
","
","
","""event"",""trial"",""time""
""fullscreenenter"",""1"",""77778""
","
",,384.4000001,run_exp/static/images/task_images/land.jpg,65,,,,,,,51,,,5,,,,,,,,115098,1,0,FALSE,,,
dig,113,708802,0.0-36.0-0.0,"""event"",""trial"",""time""
""fullscreenenter"",""1"",""77778""
","
","
","""event"",""trial"",""time""
""fullscreenenter"",""1"",""77778""
","
",,,,,,,,,,,,"[{""stimulus"":""run_exp/static/images/task_images/dig.jpg"",""time"":0.5},{""stimulus"":""run_exp/static/images/task_images/land.jpg"",""time"":873.1000003814697},{""stimulus"":""run_exp/static/images/task_images/dig.jpg"",""time"":1745}]",[],5,,,,,,,,,,,,,,
harvest,114,709804,0.0-36.0-1.0,"""event"",""trial"",""time""
""fullscreenenter"",""1"",""77778""
","
","
","""event"",""trial"",""time""
""fullscreenenter"",""1"",""77778""
","
",,null,run_exp/static/images/task_images/gems/51.jpg,null,,,,,,,25,,,5,,,,,51,0.4904824,0.490196078,,,,,,,
decision,115,709907,0.0-36.0-2.0,"""event"",""trial"",""time""
""fullscreenenter"",""1"",""77778""
","
","
","""event"",""trial"",""time""
""fullscreenenter"",""1"",""77778""
","
",,98.69999981,run_exp/static/images/task_images/land.jpg,65,,,,,,,25,,,5,,,,,,,,118827,1,1,FALSE,,,
dig,116,712816,0.0-37.0-0.0,"""event"",""trial"",""time""
""fullscreenenter"",""1"",""77778""
","
","
","""event"",""trial"",""time""
""fullscreenenter"",""1"",""77778""
","
",,,,,,,,,,,,"[{""stimulus"":""run_exp/static/images/task_images/dig.jpg"",""time"":0.5},{""stimulus"":""run_exp/static/images/task_images/land.jpg"",""time"":970.0999999046326},{""stimulus"":""run_exp/static/images/task_images/dig.jpg"",""time"":1936.4000000953674}]",[],5,,,,,,,,,,,,,,
harvest,117,713827,0.0-37.0-1.0,"""event"",""trial"",""time""
""fullscreenenter"",""1"",""77778""
","
","
","""event"",""trial"",""time""
""fullscreenenter"",""1"",""77778""
","
",,null,run_exp/static/images/task_images/gems/25.jpg,null,,,,,,,9,,,5,,,,,25,0.364539616,0.36,,,,,,,
decision,118,714034,0.0-37.0-2.0,"""event"",""trial"",""time""
""fullscreenenter"",""1"",""77778""
","
","
","""event"",""trial"",""time""
""fullscreenenter"",""1"",""77778""
","
",,204.0999999,run_exp/static/images/task_images/land.jpg,76,,,,,,,9,,,5,,,,,,,,122954,1,2,TRUE,,,
travel,119,723835,0.0-38.0-0.0,"""event"",""trial"",""time""
""fullscreenenter"",""1"",""77778""
","
","
","""event"",""trial"",""time""
""fullscreenenter"",""1"",""77778""
","
",,,,,,,,,,,,"[{""stimulus"":""run_exp/static/images/task_images/rocket-01.jpg"",""time"":0.6999998092651367},{""stimulus"":""run_exp/static/images/task_images/rocket-02.jpg"",""time"":1091.0999999046326},{""stimulus"":""run_exp/static/images/task_images/rocket-03.jpg"",""time"":2179.699999809265},{""stimulus"":""run_exp/static/images/task_images/rocket-04.jpg"",""time"":3267.2999997138977},{""stimulus"":""run_exp/static/images/task_images/rocket-05.jpg"",""time"":4355},{""stimulus"":""run_exp/static/images/task_images/rocket-06.jpg"",""time"":5443.89999961853},{""stimulus"":""run_exp/static/images/task_images/rocket-07.jpg"",""time"":6530.699999809265},{""stimulus"":""run_exp/static/images/task_images/rocket-08.jpg"",""time"":7618.599999904633},{""stimulus"":""run_exp/static/images/task_images/rocket-09.jpg"",""time"":8707.89999961853}]",[],5,,,,,,,,,,,,,,
alien_welcome,120,728840,0.0-38.0-1.0,"""event"",""trial"",""time""
""fullscreenenter"",""1"",""77778""
","
","
","""event"",""trial"",""time""
""fullscreenenter"",""1"",""77778""
","
",,null,run_exp/static/images/task_images/aliens/old_aliens/planet/alien_planet-29.jpg,null,,,,,,,,,,,,,29,"8,19,3,37,30,29,56,77,40,72,33,49,9,44,45,65,21,71,6,7,1,38,32,10,55,26,61,13,48,54,20,36,28,14,5,75,60,27,69,15,59,64,22,35,23",,,,,,,,,,
land,121,729344,0.0-38.0-2.0,"""event"",""trial"",""time""
""fullscreenenter"",""1"",""77778""
","
","
","""event"",""trial"",""time""
""fullscreenenter"",""1"",""77778""
","
",,null,run_exp/static/images/task_images/land.jpg,null,,,,,,,98,,,6,,,,,,,,,,,,,,
dig,122,731350,0.0-38.0-3.0,"""event"",""trial"",""time""
""fullscreenenter"",""1"",""77778""
","
","
","""event"",""trial"",""time""
""fullscreenenter"",""1"",""77778""
","
",,,,,,,,,,,,"[{""stimulus"":""run_exp/static/images/task_images/dig.jpg"",""time"":0.40000009536743164},{""stimulus"":""run_exp/static/images/task_images/land.jpg"",""time"":669.7999997138977},{""stimulus"":""run_exp/static/images/task_images/dig.jpg"",""time"":1336.5999999046326}]",[],6,,,,,,,,,,,,,,
harvest,123,732353,0.0-38.0-4.0,"""event"",""trial"",""time""
""fullscreenenter"",""1"",""77778""
","
","
","""event"",""trial"",""time""
""fullscreenenter"",""1"",""77778""
","
",,null,run_exp/static/images/task_images/gems/98.jpg,null,,,,,,,83,,,6,,,,,98,0.847389538,0.846938776,,,,,,,
decision,124,732939,0.0-38.0-5.0,"""event"",""trial"",""time""
""fullscreenenter"",""1"",""77778""
","
","
","""event"",""trial"",""time""
""fullscreenenter"",""1"",""77778""
","
",,582.5,run_exp/static/images/task_images/land.jpg,65,,,,,,,83,,,6,,,,,,,,141859,1,0,FALSE,,,
dig,125,735362,0.0-39.0-0.0,"""event"",""trial"",""time""
""fullscreenenter"",""1"",""77778""
","
","
","""event"",""trial"",""time""
""fullscreenenter"",""1"",""77778""
","
",,,,,,,,,,,,"[{""stimulus"":""run_exp/static/images/task_images/dig.jpg"",""time"":0.40000009536743164},{""stimulus"":""run_exp/static/images/task_images/land.jpg"",""time"":807.6999998092651},{""stimulus"":""run_exp/static/images/task_images/dig.jpg"",""time"":1612.1999998092651}]",[],6,,,,,,,,,,,,,,
harvest,126,736365,0.0-39.0-1.0,"""event"",""trial"",""time""
""fullscreenenter"",""1"",""77778""
","
","
","""event"",""trial"",""time""
""fullscreenenter"",""1"",""77778""
","
",,null,run_exp/static/images/task_images/gems/83.jpg,null,,,,,,,70,,,6,,,,,83,0.843660648,0.843373494,,,,,,,
decision,127,736737,0.0-39.0-2.0,"""event"",""trial"",""time""
""fullscreenenter"",""1"",""77778""
","
","
","""event"",""trial"",""time""
""fullscreenenter"",""1"",""77778""
","
",,370.2000003,run_exp/static/images/task_images/land.jpg,65,,,,,,,70,,,6,,,,,,,,145657,1,1,FALSE,,,
dig,128,739375,0.0-40.0-0.0,"""event"",""trial"",""time""
""fullscreenenter"",""1"",""77778""
","
","
","""event"",""trial"",""time""
""fullscreenenter"",""1"",""77778""
","
",,,,,,,,,,,,"[{""stimulus"":""run_exp/static/images/task_images/dig.jpg"",""time"":0.40000009536743164},{""stimulus"":""run_exp/static/images/task_images/land.jpg"",""time"":878.0999999046326},{""stimulus"":""run_exp/static/images/task_images/dig.jpg"",""time"":1754.6999998092651}]",[],6,,,,,,,,,,,,,,
harvest,129,740378,0.0-40.0-1.0,"""event"",""trial"",""time""
""fullscreenenter"",""1"",""77778""
","
","
","""event"",""trial"",""time""
""fullscreenenter"",""1"",""77778""
","
",,null,run_exp/static/images/task_images/gems/70.jpg,null,,,,,,,56,,,6,,,,,70,0.803732937,0.8,,,,,,,
decision,130,740538,0.0-40.0-2.0,"""event"",""trial"",""time""
""fullscreenenter"",""1"",""77778""
","
","
","""event"",""trial"",""time""
""fullscreenenter"",""1"",""77778""
","
",,157.5999999,run_exp/static/images/task_images/land.jpg,65,,,,,,,56,,,6,,,,,,,,149459,1,2,FALSE,,,
dig,131,743388,0.0-41.0-0.0,"""event"",""trial"",""time""
""fullscreenenter"",""1"",""77778""
","
","
","""event"",""trial"",""time""
""fullscreenenter"",""1"",""77778""
","
",,,,,,,,,,,,"[{""stimulus"":""run_exp/static/images/task_images/dig.jpg"",""time"":0.40000009536743164},{""stimulus"":""run_exp/static/images/task_images/land.jpg"",""time"":950.3000001907349},{""stimulus"":""run_exp/static/images/task_images/dig.jpg"",""time"":1896.2000002861023}]",[],6,,,,,,,,,,,,,,
harvest,132,744391,0.0-41.0-1.0,"""event"",""trial"",""time""
""fullscreenenter"",""1"",""77778""
","
","
","""event"",""trial"",""time""
""fullscreenenter"",""1"",""77778""
","
",,null,run_exp/static/images/task_images/gems/56.jpg,null,,,,,,,41,,,6,,,,,56,0.737233232,0.732142857,,,,,,,
decision,133,744545,0.0-41.0-2.0,"""event"",""trial"",""time""
""fullscreenenter"",""1"",""77778""
","
","
","""event"",""trial"",""time""
""fullscreenenter"",""1"",""77778""
","
",,150.7000003,run_exp/static/images/task_images/land.jpg,65,,,,,,,41,,,6,,,,,,,,153465,1,3,FALSE,,,
dig,134,747401,0.0-42.0-0.0,"""event"",""trial"",""time""
""fullscreenenter"",""1"",""77778""
","
","
","""event"",""trial"",""time""
""fullscreenenter"",""1"",""77778""
","
",,,,,,,,,,,,"[{""stimulus"":""run_exp/static/images/task_images/dig.jpg"",""time"":0.5},{""stimulus"":""run_exp/static/images/task_images/land.jpg"",""time"":951.8000001907349},{""stimulus"":""run_exp/static/images/task_images/dig.jpg"",""time"":1900.8000001907349}]",[],6,,,,,,,,,,,,,,
harvest,135,748405,0.0-42.0-1.0,"""event"",""trial"",""time""
""fullscreenenter"",""1"",""77778""
","
","
","""event"",""trial"",""time""
""fullscreenenter"",""1"",""77778""
","
",,null,run_exp/static/images/task_images/gems/41.jpg,null,,,,,,,34,,,6,,,,,41,0.82354426,0.829268293,,,,,,,
decision,136,748700,0.0-42.0-2.0,"""event"",""trial"",""time""
""fullscreenenter"",""1"",""77778""
","
","
","""event"",""trial"",""time""
""fullscreenenter"",""1"",""77778""
","
",,290.6999998,run_exp/static/images/task_images/land.jpg,65,,,,,,,34,,,6,,,,,,,,157620,1,4,FALSE,,,
dig,137,751418,0.0-43.0-0.0,"""event"",""trial"",""time""
""fullscreenenter"",""1"",""77778""
","
","
","""event"",""trial"",""time""
""fullscreenenter"",""1"",""77778""
","
",,,,,,,,,,,,"[{""stimulus"":""run_exp/static/images/task_images/dig.jpg"",""time"":0.6000003814697266},{""stimulus"":""run_exp/static/images/task_images/land.jpg"",""time"":905.6000003814697},{""stimulus"":""run_exp/static/images/task_images/dig.jpg"",""time"":1808.6000003814697}]",[],6,,,,,,,,,,,,,,
harvest,138,752422,0.0-43.0-1.0,"""event"",""trial"",""time""
""fullscreenenter"",""1"",""77778""
","
","
","""event"",""trial"",""time""
""fullscreenenter"",""1"",""77778""
","
",,null,run_exp/static/images/task_images/gems/34.jpg,null,,,,,,,26,,,6,,,,,34,0.750329405,0.764705882,,,,,,,
decision,139,753291,0.0-43.0-2.0,"""event"",""trial"",""time""
""fullscreenenter"",""1"",""77778""
","
","
","""event"",""trial"",""time""
""fullscreenenter"",""1"",""77778""
","
",,866.3999996,run_exp/static/images/task_images/land.jpg,76,,,,,,,26,,,6,,,,,,,,162211,1,5,TRUE,,,
travel,140,762425,0.0-44.0-0.0,"""event"",""trial"",""time""
""fullscreenenter"",""1"",""77778""
","
","
","""event"",""trial"",""time""
""fullscreenenter"",""1"",""77778""
","
",,,,,,,,,,,,"[{""stimulus"":""run_exp/static/images/task_images/rocket-01.jpg"",""time"":0.5},{""stimulus"":""run_exp/static/images/task_images/rocket-02.jpg"",""time"":1015.9000000953674},{""stimulus"":""run_exp/static/images/task_images/rocket-03.jpg"",""time"":2030.3000001907349},{""stimulus"":""run_exp/static/images/task_images/rocket-04.jpg"",""time"":3045.5},{""stimulus"":""run_exp/static/images/task_images/rocket-05.jpg"",""time"":4057.9000000953674},{""stimulus"":""run_exp/static/images/task_images/rocket-06.jpg"",""time"":5072.599999904633},{""stimulus"":""run_exp/static/images/task_images/rocket-07.jpg"",""time"":6086.699999809265},{""stimulus"":""run_exp/static/images/task_images/rocket-08.jpg"",""time"":7099.900000095367},{""stimulus"":""run_exp/static/images/task_images/rocket-09.jpg"",""time"":8115}]",[],6,,,,,,,,,,,,,,
alien_welcome,141,767428,0.0-44.0-1.0,"""event"",""trial"",""time""
""fullscreenenter"",""1"",""77778""
","
","
","""event"",""trial"",""time""
""fullscreenenter"",""1"",""77778""
","
",,null,run_exp/static/images/task_images/aliens/old_aliens/planet/alien_planet-56.jpg,null,,,,,,,,,,,,,56,"8,19,3,37,30,29,56,77,40,72,33,49,9,44,45,65,21,71,6,7,1,38,32,10,55,26,61,13,48,54,20,36,28,14,5,75,60,27,69,15,59,64,22,35,23",,,,,,,,,,
land,142,767930,0.0-44.0-2.0,"""event"",""trial"",""time""
""fullscreenenter"",""1"",""77778""
","
","
","""event"",""trial"",""time""
""fullscreenenter"",""1"",""77778""
","
",,null,run_exp/static/images/task_images/land.jpg,null,,,,,,,95,,,7,,,,,,,,,,,,,,
dig,143,769936,0.0-44.0-3.0,"""event"",""trial"",""time""
""fullscreenenter"",""1"",""77778""
","
","
","""event"",""trial"",""time""
""fullscreenenter"",""1"",""77778""
","
",,,,,,,,,,,,"[{""stimulus"":""run_exp/static/images/task_images/dig.jpg"",""time"":0.5},{""stimulus"":""run_exp/static/images/task_images/land.jpg"",""time"":670.7000002861023},{""stimulus"":""run_exp/static/images/task_images/dig.jpg"",""time"":1336.3000001907349}]",[],7,,,,,,,,,,,,,,
harvest,144,770939,0.0-44.0-4.0,"""event"",""trial"",""time""
""fullscreenenter"",""1"",""77778""
","
","
","""event"",""trial"",""time""
""fullscreenenter"",""1"",""77778""
","
",,null,run_exp/static/images/task_images/gems/95.jpg,null,,,,,,,72,,,7,,,,,95,0.758819894,0.757894737,,,,,,,
decision,145,771052,0.0-44.0-5.0,"""event"",""trial"",""time""
""fullscreenenter"",""1"",""77778""
","
","
","""event"",""trial"",""time""
""fullscreenenter"",""1"",""77778""
","
",,109.6000004,run_exp/static/images/task_images/land.jpg,65,,,,,,,72,,,7,,,,,,,,179972,1,0,FALSE,,,
dig,146,773955,0.0-45.0-0.0,"""event"",""trial"",""time""
""fullscreenenter"",""1"",""77778""
","
","
","""event"",""trial"",""time""
""fullscreenenter"",""1"",""77778""
","
",,,,,,,,,,,,"[{""stimulus"":""run_exp/static/images/task_images/dig.jpg"",""time"":0.6999998092651367},{""stimulus"":""run_exp/static/images/task_images/land.jpg"",""time"":965.5},{""stimulus"":""run_exp/static/images/task_images/dig.jpg"",""time"":1929.0999999046326}]",[],7,,,,,,,,,,,,,,
harvest,147,774957,0.0-45.0-1.0,"""event"",""trial"",""time""
""fullscreenenter"",""1"",""77778""
","
","
","""event"",""trial"",""time""
""fullscreenenter"",""1"",""77778""
","
",,null,run_exp/static/images/task_images/gems/72.jpg,null,,,,,,,57,,,7,,,,,72,0.793637338,0.791666667,,,,,,,
decision,148,776818,0.0-45.0-2.0,"""event"",""trial"",""time""
""fullscreenenter"",""1"",""77778""
","
","
","""event"",""trial"",""time""
""fullscreenenter"",""1"",""77778""
","
",,1858,run_exp/static/images/task_images/land.jpg,65,,,,,,,57,,,7,,,,,,,,185738,1,1,FALSE,,,
dig,149,777966,0.0-46.0-0.0,"""event"",""trial"",""time""
""fullscreenenter"",""1"",""77778""
","
","
","""event"",""trial"",""time""
""fullscreenenter"",""1"",""77778""
","
",,,,,,,,,,,,"[{""stimulus"":""run_exp/static/images/task_images/dig.jpg"",""time"":0.40000009536743164},{""stimulus"":""run_exp/static/images/task_images/land.jpg"",""time"":382.59999990463257},{""stimulus"":""run_exp/static/images/task_images/dig.jpg"",""time"":762}]",[],7,,,,,,,,,,,,,,
harvest,150,778968,0.0-46.0-1.0,"""event"",""trial"",""time""
""fullscreenenter"",""1"",""77778""
","
","
","""event"",""trial"",""time""
""fullscreenenter"",""1"",""77778""
","
",,null,run_exp/static/images/task_images/gems/57.jpg,null,,,,,,,44,,,7,,,,,57,0.773859434,0.771929825,,,,,,,
decision,151,779403,0.0-46.0-2.0,"""event"",""trial"",""time""
""fullscreenenter"",""1"",""77778""
","
","
","""event"",""trial"",""time""
""fullscreenenter"",""1"",""77778""
","
",,433.4000001,run_exp/static/images/task_images/land.jpg,65,,,,,,,44,,,7,,,,,,,,188324,1,2,FALSE,,,
dig,152,781977,0.0-47.0-0.0,"""event"",""trial"",""time""
""fullscreenenter"",""1"",""77778""
","
","
","""event"",""trial"",""time""
""fullscreenenter"",""1"",""77778""
","
",,,,,,,,,,,,"[{""stimulus"":""run_exp/static/images/task_images/dig.jpg"",""time"":0.5},{""stimulus"":""run_exp/static/images/task_images/land.jpg"",""time"":857.2000002861023},{""stimulus"":""run_exp/static/images/task_images/dig.jpg"",""time"":1713.2000002861023}]",[],7,,,,,,,,,,,,,,
harvest,153,782980,0.0-47.0-1.0,"""event"",""trial"",""time""
""fullscreenenter"",""1"",""77778""
","
","
","""event"",""trial"",""time""
""fullscreenenter"",""1"",""77778""
","
",,null,run_exp/static/images/task_images/gems/44.jpg,null,,,,,,,34,,,7,,,,,44,0.781833139,0.772727273,,,,,,,
decision,154,785150,0.0-47.0-2.0,"""event"",""trial"",""time""
""fullscreenenter"",""1"",""77778""
","
","
","""event"",""trial"",""time""
""fullscreenenter"",""1"",""77778""
","
",,2167.5,run_exp/static/images/task_images/land.jpg,65,,,,,,,34,,,7,,,,,,,,194070,1,3,FALSE,,,
dig,155,785994,0.0-48.0-0.0,"""event"",""trial"",""time""
""fullscreenenter"",""1"",""77778""
","
","
","""event"",""trial"",""time""
""fullscreenenter"",""1"",""77778""
","
",,,,,,,,,,,,"[{""stimulus"":""run_exp/static/images/task_images/dig.jpg"",""time"":0.5},{""stimulus"":""run_exp/static/images/task_images/land.jpg"",""time"":278.8999996185303},{""stimulus"":""run_exp/static/images/task_images/dig.jpg"",""time"":557.2999997138977}]",[],7,,,,,,,,,,,,,,
harvest,156,786996,0.0-48.0-1.0,"""event"",""trial"",""time""
""fullscreenenter"",""1"",""77778""
","
","
","""event"",""trial"",""time""
""fullscreenenter"",""1"",""77778""
","
",,null,run_exp/static/images/task_images/gems/34.jpg,null,,,,,,,27,,,7,,,,,34,0.779525044,0.794117647,,,,,,,
decision,157,787363,0.0-48.0-2.0,"""event"",""trial"",""time""
""fullscreenenter"",""1"",""77778""
","
","
","""event"",""trial"",""time""
""fullscreenenter"",""1"",""77778""
","
",,364.5,run_exp/static/images/task_images/land.jpg,76,,,,,,,27,,,7,,,,,,,,196283,1,4,TRUE,,,
travel,158,797003,0.0-49.0-0.0,"""event"",""trial"",""time""
""fullscreenenter"",""1"",""77778""
","
","
","""event"",""trial"",""time""
""fullscreenenter"",""1"",""77778""
","
",,,,,,,,,,,,"[{""stimulus"":""run_exp/static/images/task_images/rocket-01.jpg"",""time"":0.5999999046325684},{""stimulus"":""run_exp/static/images/task_images/rocket-02.jpg"",""time"":1073.0999999046326},{""stimulus"":""run_exp/static/images/task_images/rocket-03.jpg"",""time"":2143.0999999046326},{""stimulus"":""run_exp/static/images/task_images/rocket-04.jpg"",""time"":3213.2999997138977},{""stimulus"":""run_exp/static/images/task_images/rocket-05.jpg"",""time"":4283.799999713898},{""stimulus"":""run_exp/static/images/task_images/rocket-06.jpg"",""time"":5352.900000095367},{""stimulus"":""run_exp/static/images/task_images/rocket-07.jpg"",""time"":6423.5},{""stimulus"":""run_exp/static/images/task_images/rocket-08.jpg"",""time"":7493.599999904633},{""stimulus"":""run_exp/static/images/task_images/rocket-09.jpg"",""time"":8563.900000095367}]",[],7,,,,,,,,,,,,,,
alien_welcome,159,802007,0.0-49.0-1.0,"""event"",""trial"",""time""
""fullscreenenter"",""1"",""77778""
","
","
","""event"",""trial"",""time""
""fullscreenenter"",""1"",""77778""
","
",,null,run_exp/static/images/task_images/aliens/old_aliens/planet/alien_planet-77.jpg,null,,,,,,,,,,,,,77,"8,19,3,37,30,29,56,77,40,72,33,49,9,44,45,65,21,71,6,7,1,38,32,10,55,26,61,13,48,54,20,36,28,14,5,75,60,27,69,15,59,64,22,35,23",,,,,,,,,,
land,160,802510,0.0-49.0-2.0,"""event"",""trial"",""time""
""fullscreenenter"",""1"",""77778""
","
","
","""event"",""trial"",""time""
""fullscreenenter"",""1"",""77778""
","
",,null,run_exp/static/images/task_images/land.jpg,null,,,,,,,103,,,8,,,,,,,,,,,,,,
dig,161,804516,0.0-49.0-3.0,"""event"",""trial"",""time""
""fullscreenenter"",""1"",""77778""
","
","
","""event"",""trial"",""time""
""fullscreenenter"",""1"",""77778""
","
",,,,,,,,,,,,"[{""stimulus"":""run_exp/static/images/task_images/dig.jpg"",""time"":0.5},{""stimulus"":""run_exp/static/images/task_images/land.jpg"",""time"":670.5},{""stimulus"":""run_exp/static/images/task_images/dig.jpg"",""time"":1336.7000002861023}]",[],8,,,,,,,,,,,,,,
harvest,162,805519,0.0-49.0-4.0,"""event"",""trial"",""time""
""fullscreenenter"",""1"",""77778""
","
","
","""event"",""trial"",""time""
""fullscreenenter"",""1"",""77778""
","
",,null,run_exp/static/images/task_images/gems/103.jpg,null,,,,,,,87,,,8,,,,,103,0.845512193,0.844660194,,,,,,,
decision,163,805528,0.0-49.0-5.0,"""event"",""trial"",""time""
""fullscreenenter"",""1"",""77778""
","
","
","""event"",""trial"",""time""
""fullscreenenter"",""1"",""77778""
","
",,6.099999905,run_exp/static/images/task_images/land.jpg,65,,,,,,,87,,,8,,,,,,,,214448,1,0,FALSE,,,
dig,164,808531,0.0-50.0-0.0,"""event"",""trial"",""time""
""fullscreenenter"",""1"",""77778""
","
","
","""event"",""trial"",""time""
""fullscreenenter"",""1"",""77778""
","
",,,,,,,,,,,,"[{""stimulus"":""run_exp/static/images/task_images/dig.jpg"",""time"":1},{""stimulus"":""run_exp/static/images/task_images/land.jpg"",""time"":1002},{""stimulus"":""run_exp/static/images/task_images/dig.jpg"",""time"":1998.2999997138977}]",[],8,,,,,,,,,,,,,,
harvest,165,809535,0.0-50.0-1.0,"""event"",""trial"",""time""
""fullscreenenter"",""1"",""77778""
","
","
","""event"",""trial"",""time""
""fullscreenenter"",""1"",""77778""
","
",,null,run_exp/static/images/task_images/gems/87.jpg,null,,,,,,,72,,,8,,,,,87,0.822250598,0.827586207,,,,,,,
decision,166,809603,0.0-50.0-2.0,"""event"",""trial"",""time""
""fullscreenenter"",""1"",""77778""
","
","
","""event"",""trial"",""time""
""fullscreenenter"",""1"",""77778""
","
",,64.19999981,run_exp/static/images/task_images/land.jpg,65,,,,,,,72,,,8,,,,,,,,218523,1,1,FALSE,,,
dig,167,812548,0.0-51.0-0.0,"""event"",""trial"",""time""
""fullscreenenter"",""1"",""77778""
","
","
","""event"",""trial"",""time""
""fullscreenenter"",""1"",""77778""
","
",,,,,,,,,,,,"[{""stimulus"":""run_exp/static/images/task_images/dig.jpg"",""time"":0.5},{""stimulus"":""run_exp/static/images/task_images/land.jpg"",""time"":981.1999998092651},{""stimulus"":""run_exp/static/images/task_images/dig.jpg"",""time"":1958.6999998092651}]",[],8,,,,,,,,,,,,,,
harvest,168,813551,0.0-51.0-1.0,"""event"",""trial"",""time""
""fullscreenenter"",""1"",""77778""
","
","
","""event"",""trial"",""time""
""fullscreenenter"",""1"",""77778""
","
",,null,run_exp/static/images/task_images/gems/72.jpg,null,,,,,,,60,,,8,,,,,72,0.83202079,0.833333333,,,,,,,
decision,169,814016,0.0-51.0-2.0,"""event"",""trial"",""time""
""fullscreenenter"",""1"",""77778""
","
","
","""event"",""trial"",""time""
""fullscreenenter"",""1"",""77778""
","
",,462.7000003,run_exp/static/images/task_images/land.jpg,65,,,,,,,60,,,8,,,,,,,,222936,1,2,FALSE,,,
dig,170,816561,0.0-52.0-0.0,"""event"",""trial"",""time""
""fullscreenenter"",""1"",""77778""
","
","
","""event"",""trial"",""time""
""fullscreenenter"",""1"",""77778""
","
",,,,,,,,,,,,"[{""stimulus"":""run_exp/static/images/task_images/dig.jpg"",""time"":0.5},{""stimulus"":""run_exp/static/images/task_images/land.jpg"",""time"":848.7000002861023},{""stimulus"":""run_exp/static/images/task_images/dig.jpg"",""time"":1692.8000001907349}]",[],8,,,,,,,,,,,,,,
harvest,171,817564,0.0-52.0-1.0,"""event"",""trial"",""time""
""fullscreenenter"",""1"",""77778""
","
","
","""event"",""trial"",""time""
""fullscreenenter"",""1"",""77778""
","
",,null,run_exp/static/images/task_images/gems/60.jpg,null,,,,,,,53,,,8,,,,,60,0.875312555,0.883333333,,,,,,,
decision,172,817696,0.0-52.0-2.0,"""event"",""trial"",""time""
""fullscreenenter"",""1"",""77778""
","
","
","""event"",""trial"",""time""
""fullscreenenter"",""1"",""77778""
","
",,130,run_exp/static/images/task_images/land.jpg,76,,,,,,,53,,,8,,,,,,,,226616,1,3,TRUE,,,
travel,173,827570,0.0-53.0-0.0,"""event"",""trial"",""time""
""fullscreenenter"",""1"",""77778""
","
","
","""event"",""trial"",""time""
""fullscreenenter"",""1"",""77778""
","
",,,,,,,,,,,,"[{""stimulus"":""run_exp/static/images/task_images/rocket-01.jpg"",""time"":0.5},{""stimulus"":""run_exp/static/images/task_images/rocket-02.jpg"",""time"":1099.5},{""stimulus"":""run_exp/static/images/task_images/rocket-03.jpg"",""time"":2196.0999999046326},{""stimulus"":""run_exp/static/images/task_images/rocket-04.jpg"",""time"":3291.699999809265},{""stimulus"":""run_exp/static/images/task_images/rocket-05.jpg"",""time"":4387.599999904633},{""stimulus"":""run_exp/static/images/task_images/rocket-06.jpg"",""time"":5489.599999904633},{""stimulus"":""run_exp/static/images/task_images/rocket-07.jpg"",""time"":6580.5},{""stimulus"":""run_exp/static/images/task_images/rocket-08.jpg"",""time"":7675.199999809265},{""stimulus"":""run_exp/static/images/task_images/rocket-09.jpg"",""time"":8770.900000095367}]",[],8,,,,,,,,,,,,,,
alien_welcome,174,832574,0.0-53.0-1.0,"""event"",""trial"",""time""
""fullscreenenter"",""1"",""77778""
","
","
","""event"",""trial"",""time""
""fullscreenenter"",""1"",""77778""
","
",,null,run_exp/static/images/task_images/aliens/old_aliens/planet/alien_planet-40.jpg,null,,,,,,,,,,,,,40,"8,19,3,37,30,29,56,77,40,72,33,49,9,44,45,65,21,71,6,7,1,38,32,10,55,26,61,13,48,54,20,36,28,14,5,75,60,27,69,15,59,64,22,35,23",,,,,,,,,,
land,175,833078,0.0-53.0-2.0,"""event"",""trial"",""time""
""fullscreenenter"",""1"",""77778""
","
","
","""event"",""trial"",""time""
""fullscreenenter"",""1"",""77778""
","
",,null,run_exp/static/images/task_images/land.jpg,null,,,,,,,96,,,9,,,,,,,,,,,,,,
dig,176,835084,0.0-53.0-3.0,"""event"",""trial"",""time""
""fullscreenenter"",""1"",""77778""
","
","
","""event"",""trial"",""time""
""fullscreenenter"",""1"",""77778""
","
",,,,,,,,,,,,"[{""stimulus"":""run_exp/static/images/task_images/dig.jpg"",""time"":0.40000009536743164},{""stimulus"":""run_exp/static/images/task_images/land.jpg"",""time"":669.2000002861023},{""stimulus"":""run_exp/static/images/task_images/dig.jpg"",""time"":1336.0999999046326}]",[],9,,,,,,,,,,,,,,
harvest,177,836087,0.0-53.0-4.0,"""event"",""trial"",""time""
""fullscreenenter"",""1"",""77778""
","
","
","""event"",""trial"",""time""
""fullscreenenter"",""1"",""77778""
","
",,null,run_exp/static/images/task_images/gems/96.jpg,null,,,,,,,16,,,9,,,,,96,0.169946837,0.166666667,,,,,,,
decision,178,836216,0.0-53.0-5.0,"""event"",""trial"",""time""
""fullscreenenter"",""1"",""77778""
","
","
","""event"",""trial"",""time""
""fullscreenenter"",""1"",""77778""
","
",,126.3000002,run_exp/static/images/task_images/land.jpg,65,,,,,,,16,,,9,,,,,,,,245136,1,0,FALSE,,,
dig,179,839096,0.0-54.0-0.0,"""event"",""trial"",""time""
""fullscreenenter"",""1"",""77778""
","
","
","""event"",""trial"",""time""
""fullscreenenter"",""1"",""77778""
","
",,,,,,,,,,,,"[{""stimulus"":""run_exp/static/images/task_images/dig.jpg"",""time"":0.5},{""stimulus"":""run_exp/static/images/task_images/land.jpg"",""time"":960.2000002861023},{""stimulus"":""run_exp/static/images/task_images/dig.jpg"",""time"":1916.0999999046326}]",[],9,,,,,,,,,,,,,,
harvest,180,840099,0.0-54.0-1.0,"""event"",""trial"",""time""
""fullscreenenter"",""1"",""77778""
","
","
","""event"",""trial"",""time""
""fullscreenenter"",""1"",""77778""
","
",,null,run_exp/static/images/task_images/gems/16.jpg,null,,,,,,,3,,,9,,,,,16,0.171911072,0.1875,,,,,,,
decision,181,840208,0.0-54.0-2.0,"""event"",""trial"",""time""
""fullscreenenter"",""1"",""77778""
","
","
","""event"",""trial"",""time""
""fullscreenenter"",""1"",""77778""
","
",,107.0999999,run_exp/static/images/task_images/land.jpg,76,,,,,,,3,,,9,,,,,,,,249128,1,1,TRUE,,,
travel,182,850115,0.0-55.0-0.0,"""event"",""trial"",""time""
""fullscreenenter"",""1"",""77778""
","
","
","""event"",""trial"",""time""
""fullscreenenter"",""1"",""77778""
","
",,,,,,,,,,,,"[{""stimulus"":""run_exp/static/images/task_images/rocket-01.jpg"",""time"":0.5},{""stimulus"":""run_exp/static/images/task_images/rocket-02.jpg"",""time"":1102.0999999046326},{""stimulus"":""run_exp/static/images/task_images/rocket-03.jpg"",""time"":2201.300000190735},{""stimulus"":""run_exp/static/images/task_images/rocket-04.jpg"",""time"":3300.300000190735},{""stimulus"":""run_exp/static/images/task_images/rocket-05.jpg"",""time"":4398.5},{""stimulus"":""run_exp/static/images/task_images/rocket-06.jpg"",""time"":5498.200000286102},{""stimulus"":""run_exp/static/images/task_images/rocket-07.jpg"",""time"":6596.300000190735},{""stimulus"":""run_exp/static/images/task_images/rocket-08.jpg"",""time"":7710.300000190735},{""stimulus"":""run_exp/static/images/task_images/rocket-09.jpg"",""time"":8794.400000095367}]",[],9,,,,,,,,,,,,,,
alien_welcome,183,855118,0.0-55.0-1.0,"""event"",""trial"",""time""
""fullscreenenter"",""1"",""77778""
","
","
","""event"",""trial"",""time""
""fullscreenenter"",""1"",""77778""
","
",,null,run_exp/static/images/task_images/aliens/old_aliens/planet/alien_planet-72.jpg,null,,,,,,,,,,,,,72,"8,19,3,37,30,29,56,77,40,72,33,49,9,44,45,65,21,71,6,7,1,38,32,10,55,26,61,13,48,54,20,36,28,14,5,75,60,27,69,15,59,64,22,35,23",,,,,,,,,,
land,184,855621,0.0-55.0-2.0,"""event"",""trial"",""time""
""fullscreenenter"",""1"",""77778""
","
","
","""event"",""trial"",""time""
""fullscreenenter"",""1"",""77778""
","
",,null,run_exp/static/images/task_images/land.jpg,null,,,,,,,100,,,10,,,,,,,,,,,,,,
dig,185,857639,0.0-55.0-3.0,"""event"",""trial"",""time""
""fullscreenenter"",""1"",""77778""
","
","
","""event"",""trial"",""time""
""fullscreenenter"",""1"",""77778""
","
",,,,,,,,,,,,"[{""stimulus"":""run_exp/static/images/task_images/dig.jpg"",""time"":0.40000009536743164},{""stimulus"":""run_exp/static/images/task_images/land.jpg"",""time"":670.4000000953674},{""stimulus"":""run_exp/static/images/task_images/dig.jpg"",""time"":1336.3000001907349}]",[],10,,,,,,,,,,,,,,
harvest,186,858642,0.0-55.0-4.0,"""event"",""trial"",""time""
""fullscreenenter"",""1"",""77778""
","
","
","""event"",""trial"",""time""
""fullscreenenter"",""1"",""77778""
","
",,null,run_exp/static/images/task_images/gems/100.jpg,null,,,,,,,20,,,10,,,,,100,0.200225134,0.2,,,,,,,
decision,187,858941,0.0-55.0-5.0,"""event"",""trial"",""time""
""fullscreenenter"",""1"",""77778""
","
","
","""event"",""trial"",""time""
""fullscreenenter"",""1"",""77778""
","
",,296.5,run_exp/static/images/task_images/land.jpg,65,,,,,,,20,,,10,,,,,,,,267861,1,0,FALSE,,,
dig,188,861653,0.0-56.0-0.0,"""event"",""trial"",""time""
""fullscreenenter"",""1"",""77778""
","
","
","""event"",""trial"",""time""
""fullscreenenter"",""1"",""77778""
","
",,,,,,,,,,,,"[{""stimulus"":""run_exp/static/images/task_images/dig.jpg"",""time"":0.40000009536743164},{""stimulus"":""run_exp/static/images/task_images/land.jpg"",""time"":903},{""stimulus"":""run_exp/static/images/task_images/dig.jpg"",""time"":1805.2999997138977}]",[],10,,,,,,,,,,,,,,
harvest,189,862656,0.0-56.0-1.0,"""event"",""trial"",""time""
""fullscreenenter"",""1"",""77778""
","
","
","""event"",""trial"",""time""
""fullscreenenter"",""1"",""77778""
","
",,null,run_exp/static/images/task_images/gems/20.jpg,null,,,,,,,4,,,10,,,,,20,0.200952124,0.2,,,,,,,
decision,190,862838,0.0-56.0-2.0,"""event"",""trial"",""time""
""fullscreenenter"",""1"",""77778""
","
","
","""event"",""trial"",""time""
""fullscreenenter"",""1"",""77778""
","
",,179.5999999,run_exp/static/images/task_images/land.jpg,76,,,,,,,4,,,10,,,,,,,,271758,1,1,TRUE,,,
travel,191,872667,0.0-57.0-0.0,"""event"",""trial"",""time""
""fullscreenenter"",""1"",""77778""
","
","
","""event"",""trial"",""time""
""fullscreenenter"",""1"",""77778""
","
",,,,,,,,,,,,"[{""stimulus"":""run_exp/static/images/task_images/rocket-01.jpg"",""time"":0.40000009536743164},{""stimulus"":""run_exp/static/images/task_images/rocket-02.jpg"",""time"":1094.3000001907349},{""stimulus"":""run_exp/static/images/task_images/rocket-03.jpg"",""time"":2184.800000190735},{""stimulus"":""run_exp/static/images/task_images/rocket-04.jpg"",""time"":3275.0999999046326},{""stimulus"":""run_exp/static/images/task_images/rocket-05.jpg"",""time"":4366.5},{""stimulus"":""run_exp/static/images/task_images/rocket-06.jpg"",""time"":5457.800000190735},{""stimulus"":""run_exp/static/images/task_images/rocket-07.jpg"",""time"":6548.900000095367},{""stimulus"":""run_exp/static/images/task_images/rocket-08.jpg"",""time"":7639.400000095367},{""stimulus"":""run_exp/static/images/task_images/rocket-09.jpg"",""time"":8731.099999904633}]",[],10,,,,,,,,,,,,,,
alien_welcome,192,877671,0.0-57.0-1.0,"""event"",""trial"",""time""
""fullscreenenter"",""1"",""77778""
","
","
","""event"",""trial"",""time""
""fullscreenenter"",""1"",""77778""
","
",,null,run_exp/static/images/task_images/aliens/old_aliens/planet/alien_planet-33.jpg,null,,,,,,,,,,,,,33,"8,19,3,37,30,29,56,77,40,72,33,49,9,44,45,65,21,71,6,7,1,38,32,10,55,26,61,13,48,54,20,36,28,14,5,75,60,27,69,15,59,64,22,35,23",,,,,,,,,,
land,193,878174,0.0-57.0-2.0,"""event"",""trial"",""time""
""fullscreenenter"",""1"",""77778""
","
","
","""event"",""trial"",""time""
""fullscreenenter"",""1"",""77778""
","
",,null,run_exp/static/images/task_images/land.jpg,null,,,,,,,101,,,11,,,,,,,,,,,,,,
dig,194,880188,0.0-57.0-3.0,"""event"",""trial"",""time""
""fullscreenenter"",""1"",""77778""
","
","
","""event"",""trial"",""time""
""fullscreenenter"",""1"",""77778""
","
",,,,,,,,,,,,"[{""stimulus"":""run_exp/static/images/task_images/dig.jpg"",""time"":0.5},{""stimulus"":""run_exp/static/images/task_images/land.jpg"",""time"":669.4000000953674},{""stimulus"":""run_exp/static/images/task_images/dig.jpg"",""time"":1336.2999997138977}]",[],11,,,,,,,,,,,,,,
harvest,195,881191,0.0-57.0-4.0,"""event"",""trial"",""time""
""fullscreenenter"",""1"",""77778""
","
","
","""event"",""trial"",""time""
""fullscreenenter"",""1"",""77778""
","
",,null,run_exp/static/images/task_images/gems/101.jpg,null,,,,,,,18,,,11,,,,,101,0.173602157,0.178217822,,,,,,,
decision,196,881586,0.0-57.0-5.0,"""event"",""trial"",""time""
""fullscreenenter"",""1"",""77778""
","
","
","""event"",""trial"",""time""
""fullscreenenter"",""1"",""77778""
","
",,391.9000001,run_exp/static/images/task_images/land.jpg,65,,,,,,,18,,,11,,,,,,,,290506,1,0,FALSE,,,
dig,197,884203,0.0-58.0-0.0,"""event"",""trial"",""time""
""fullscreenenter"",""1"",""77778""
","
","
","""event"",""trial"",""time""
""fullscreenenter"",""1"",""77778""
","
",,,,,,,,,,,,"[{""stimulus"":""run_exp/static/images/task_images/dig.jpg"",""time"":0.5},{""stimulus"":""run_exp/static/images/task_images/land.jpg"",""time"":871.9000000953674},{""stimulus"":""run_exp/static/images/task_images/dig.jpg"",""time"":1740.8000001907349}]",[],11,,,,,,,,,,,,,,
harvest,198,885206,0.0-58.0-1.0,"""event"",""trial"",""time""
""fullscreenenter"",""1"",""77778""
","
","
","""event"",""trial"",""time""
""fullscreenenter"",""1"",""77778""
","
",,null,run_exp/static/images/task_images/gems/18.jpg,null,,,,,,,3,,,11,,,,,18,0.14747333,0.166666667,,,,,,,
decision,199,885917,0.0-58.0-2.0,"""event"",""trial"",""time""
""fullscreenenter"",""1"",""77778""
","
","
","""event"",""trial"",""time""
""fullscreenenter"",""1"",""77778""
","
",,708.0999999,run_exp/static/images/task_images/land.jpg,76,,,,,,,3,,,11,,,,,,,,294837,1,1,TRUE,,,
travel,200,895216,0.0-59.0-0.0,"""event"",""trial"",""time""
""fullscreenenter"",""1"",""77778""
","
","
","""event"",""trial"",""time""
""fullscreenenter"",""1"",""77778""
","
",,,,,,,,,,,,"[{""stimulus"":""run_exp/static/images/task_images/rocket-01.jpg"",""time"":0.5},{""stimulus"":""run_exp/static/images/task_images/rocket-02.jpg"",""time"":1034.2000002861023},{""stimulus"":""run_exp/static/images/task_images/rocket-03.jpg"",""time"":2066.4000000953674},{""stimulus"":""run_exp/static/images/task_images/rocket-04.jpg"",""time"":3098.7000002861023},{""stimulus"":""run_exp/static/images/task_images/rocket-05.jpg"",""time"":4130.599999904633},{""stimulus"":""run_exp/static/images/task_images/rocket-06.jpg"",""time"":5163.300000190735},{""stimulus"":""run_exp/static/images/task_images/rocket-07.jpg"",""time"":6195},{""stimulus"":""run_exp/static/images/task_images/rocket-08.jpg"",""time"":7226.599999904633},{""stimulus"":""run_exp/static/images/task_images/rocket-09.jpg"",""time"":8258.800000190735}]",[],11,,,,,,,,,,,,,,
alien_welcome,201,900220,0.0-59.0-1.0,"""event"",""trial"",""time""
""fullscreenenter"",""1"",""77778""
","
","
","""event"",""trial"",""time""
""fullscreenenter"",""1"",""77778""
","
",,null,run_exp/static/images/task_images/aliens/old_aliens/planet/alien_planet-49.jpg,null,,,,,,,,,,,,,49,"8,19,3,37,30,29,56,77,40,72,33,49,9,44,45,65,21,71,6,7,1,38,32,10,55,26,61,13,48,54,20,36,28,14,5,75,60,27,69,15,59,64,22,35,23",,,,,,,,,,
land,202,900724,0.0-59.0-2.0,"""event"",""trial"",""time""
""fullscreenenter"",""1"",""77778""
","
","
","""event"",""trial"",""time""
""fullscreenenter"",""1"",""77778""
","
",,null,run_exp/static/images/task_images/land.jpg,null,,,,,,,101,,,12,,,,,,,,,,,,,,
dig,203,902731,0.0-59.0-3.0,"""event"",""trial"",""time""
""fullscreenenter"",""1"",""77778""
","
","
","""event"",""trial"",""time""
""fullscreenenter"",""1"",""77778""
","
",,,,,,,,,,,,"[{""stimulus"":""run_exp/static/images/task_images/dig.jpg"",""time"":0.5},{""stimulus"":""run_exp/static/images/task_images/land.jpg"",""time"":670.2999997138977},{""stimulus"":""run_exp/static/images/task_images/dig.jpg"",""time"":1338.2999997138977}]",[],12,,,,,,,,,,,,,,
harvest,204,903735,0.0-59.0-4.0,"""event"",""trial"",""time""
""fullscreenenter"",""1"",""77778""
","
","
","""event"",""trial"",""time""
""fullscreenenter"",""1"",""77778""
","
",,null,run_exp/static/images/task_images/gems/101.jpg,null,,,,,,,22,,,12,,,,,101,0.215663379,0.217821782,,,,,,,
decision,205,904056,0.0-59.0-5.0,"""event"",""trial"",""time""
""fullscreenenter"",""1"",""77778""
","
","
","""event"",""trial"",""time""
""fullscreenenter"",""1"",""77778""
","
",,320,run_exp/static/images/task_images/land.jpg,65,,,,,,,22,,,12,,,,,,,,312976,1,0,TRUE,,,
end_of_block_continue,206,912903,0.0-60.0-0.0,"""event"",""trial"",""time""
""fullscreenenter"",""1"",""77778""
","
","
","""event"",""trial"",""time""
""fullscreenenter"",""1"",""77778""
","
",,null,run_exp/static/audio/clip_32_block_end.m4a,,,,,,,null,,,,,,,,,,,,,,,,,,
alien_welcome,207,917922,0.0-61.0-0.0,"""event"",""trial"",""time""
""fullscreenenter"",""1"",""77778""
","
","
","""event"",""trial"",""time""
""fullscreenenter"",""1"",""77778""
","
",,null,run_exp/static/images/task_images/aliens/old_aliens/planet/alien_planet-9.jpg,null,,,,,,,,,,,,,9,"8,19,3,37,30,29,56,77,40,72,33,49,9,44,45,65,21,71,6,7,1,38,32,10,55,26,61,13,48,54,20,36,28,14,5,75,60,27,69,15,59,64,22,35,23",,,,,,,,,,
land,208,918425,0.0-61.0-1.0,"""event"",""trial"",""time""
""fullscreenenter"",""1"",""77778""
","
","
","""event"",""trial"",""time""
""fullscreenenter"",""1"",""77778""
","
",,null,run_exp/static/images/task_images/land.jpg,null,,,,,,,98,,,13,,,,,,,,,,,,,,
dig,209,920430,0.0-61.0-2.0,"""event"",""trial"",""time""
""fullscreenenter"",""1"",""77778""
","
","
","""event"",""trial"",""time""
""fullscreenenter"",""1"",""77778""
","
",,,,,,,,,,,,"[{""stimulus"":""run_exp/static/images/task_images/dig.jpg"",""time"":0.5},{""stimulus"":""run_exp/static/images/task_images/land.jpg"",""time"":669.5},{""stimulus"":""run_exp/static/images/task_images/dig.jpg"",""time"":1335.7999997138977}]",[],13,,,,,,,,,,,,,,
harvest,210,921433,0.0-61.0-3.0,"""event"",""trial"",""time""
""fullscreenenter"",""1"",""77778""
","
","
","""event"",""trial"",""time""
""fullscreenenter"",""1"",""77778""
","
",,null,run_exp/static/images/task_images/gems/98.jpg,null,,,,,,,23,,,13,,,,,98,0.230411902,0.234693878,,,,,,,
decision,211,921798,0.0-61.0-4.0,"""event"",""trial"",""time""
""fullscreenenter"",""1"",""77778""
","
","
","""event"",""trial"",""time""
""fullscreenenter"",""1"",""77778""
","
",,363.8000002,run_exp/static/images/task_images/land.jpg,65,,,,,,,23,,,13,,,,,,,,8880,2,0,FALSE,,,
dig,212,924436,0.0-62.0-0.0,"""event"",""trial"",""time""
""fullscreenenter"",""1"",""77778""
","
","
","""event"",""trial"",""time""
""fullscreenenter"",""1"",""77778""
","
",,,,,,,,,,,,"[{""stimulus"":""run_exp/static/images/task_images/dig.jpg"",""time"":0.09999990463256836},{""stimulus"":""run_exp/static/images/task_images/land.jpg"",""time"":880.1999998092651},{""stimulus"":""run_exp/static/images/task_images/dig.jpg"",""time"":1758.4000000953674}]",[],13,,,,,,,,,,,,,,
harvest,213,925439,0.0-62.0-1.0,"""event"",""trial"",""time""
""fullscreenenter"",""1"",""77778""
","
","
","""event"",""trial"",""time""
""fullscreenenter"",""1"",""77778""
","
",,null,run_exp/static/images/task_images/gems/23.jpg,null,,,,,,,4,,,13,,,,,23,0.187822022,0.173913043,,,,,,,
decision,214,925906,0.0-62.0-2.0,"""event"",""trial"",""time""
""fullscreenenter"",""1"",""77778""
","
","
","""event"",""trial"",""time""
""fullscreenenter"",""1"",""77778""
","
",,465.0999999,run_exp/static/images/task_images/land.jpg,76,,,,,,,4,,,13,,,,,,,,12988,2,1,TRUE,,,
travel,215,935448,0.0-63.0-0.0,"""event"",""trial"",""time""
""fullscreenenter"",""1"",""77778""
","
","
","""event"",""trial"",""time""
""fullscreenenter"",""1"",""77778""
","
",,,,,,,,,,,,"[{""stimulus"":""run_exp/static/images/task_images/rocket-01.jpg"",""time"":0.5},{""stimulus"":""run_exp/static/images/task_images/rocket-02.jpg"",""time"":1061.9000000953674},{""stimulus"":""run_exp/static/images/task_images/rocket-03.jpg"",""time"":2120.9000000953674},{""stimulus"":""run_exp/static/images/task_images/rocket-04.jpg"",""time"":3179.5},{""stimulus"":""run_exp/static/images/task_images/rocket-05.jpg"",""time"":4239},{""stimulus"":""run_exp/static/images/task_images/rocket-06.jpg"",""time"":5297.300000190735},{""stimulus"":""run_exp/static/images/task_images/rocket-07.jpg"",""time"":6357.099999904633},{""stimulus"":""run_exp/static/images/task_images/rocket-08.jpg"",""time"":7415.5},{""stimulus"":""run_exp/static/images/task_images/rocket-09.jpg"",""time"":8474.599999904633}]",[],13,,,,,,,,,,,,,,
alien_welcome,216,940451,0.0-63.0-1.0,"""event"",""trial"",""time""
""fullscreenenter"",""1"",""77778""
","
","
","""event"",""trial"",""time""
""fullscreenenter"",""1"",""77778""
","
",,null,run_exp/static/images/task_images/aliens/old_aliens/planet/alien_planet-44.jpg,null,,,,,,,,,,,,,44,"8,19,3,37,30,29,56,77,40,72,33,49,9,44,45,65,21,71,6,7,1,38,32,10,55,26,61,13,48,54,20,36,28,14,5,75,60,27,69,15,59,64,22,35,23",,,,,,,,,,
land,217,940955,0.0-63.0-2.0,"""event"",""trial"",""time""
""fullscreenenter"",""1"",""77778""
","
","
","""event"",""trial"",""time""
""fullscreenenter"",""1"",""77778""
","
",,null,run_exp/static/images/task_images/land.jpg,null,,,,,,,100,,,14,,,,,,,,,,,,,,
dig,218,942960,0.0-63.0-3.0,"""event"",""trial"",""time""
""fullscreenenter"",""1"",""77778""
","
","
","""event"",""trial"",""time""
""fullscreenenter"",""1"",""77778""
","
",,,,,,,,,,,,"[{""stimulus"":""run_exp/static/images/task_images/dig.jpg"",""time"":0.40000009536743164},{""stimulus"":""run_exp/static/images/task_images/land.jpg"",""time"":669.7999997138977},{""stimulus"":""run_exp/static/images/task_images/dig.jpg"",""time"":1336.7999997138977}]",[],14,,,,,,,,,,,,,,
harvest,219,943963,0.0-63.0-4.0,"""event"",""trial"",""time""
""fullscreenenter"",""1"",""77778""
","
","
","""event"",""trial"",""time""
""fullscreenenter"",""1"",""77778""
","
",,null,run_exp/static/images/task_images/gems/100.jpg,null,,,,,,,20,,,14,,,,,100,0.200222358,0.2,,,,,,,
decision,220,944608,0.0-63.0-5.0,"""event"",""trial"",""time""
""fullscreenenter"",""1"",""77778""
","
","
","""event"",""trial"",""time""
""fullscreenenter"",""1"",""77778""
","
",,643.0999999,run_exp/static/images/task_images/land.jpg,65,,,,,,,20,,,14,,,,,,,,31690,2,0,FALSE,,,
dig,221,946966,0.0-64.0-0.0,"""event"",""trial"",""time""
""fullscreenenter"",""1"",""77778""
","
","
","""event"",""trial"",""time""
""fullscreenenter"",""1"",""77778""
","
",,,,,,,,,,,,"[{""stimulus"":""run_exp/static/images/task_images/dig.jpg"",""time"":0.10000038146972656},{""stimulus"":""run_exp/static/images/task_images/land.jpg"",""time"":787.1000003814697},{""stimulus"":""run_exp/static/images/task_images/dig.jpg"",""time"":1578.9000000953674}]",[],14,,,,,,,,,,,,,,
harvest,222,947968,0.0-64.0-1.0,"""event"",""trial"",""time""
""fullscreenenter"",""1"",""77778""
","
","
","""event"",""trial"",""time""
""fullscreenenter"",""1"",""77778""
","
",,null,run_exp/static/images/task_images/gems/20.jpg,null,,,,,,,4,,,14,,,,,20,0.18886529,0.2,,,,,,,
decision,223,948346,0.0-64.0-2.0,"""event"",""trial"",""time""
""fullscreenenter"",""1"",""77778""
","
","
","""event"",""trial"",""time""
""fullscreenenter"",""1"",""77778""
","
",,375.9000001,run_exp/static/images/task_images/land.jpg,76,,,,,,,4,,,14,,,,,,,,35428,2,1,TRUE,,,
travel,224,957976,0.0-65.0-0.0,"""event"",""trial"",""time""
""fullscreenenter"",""1"",""77778""
","
","
","""event"",""trial"",""time""
""fullscreenenter"",""1"",""77778""
","
",,,,,,,,,,,,"[{""stimulus"":""run_exp/static/images/task_images/rocket-01.jpg"",""time"":0.40000009536743164},{""stimulus"":""run_exp/static/images/task_images/rocket-02.jpg"",""time"":1072},{""stimulus"":""run_exp/static/images/task_images/rocket-03.jpg"",""time"":2140.9000000953674},{""stimulus"":""run_exp/static/images/task_images/rocket-04.jpg"",""time"":3209.800000190735},{""stimulus"":""run_exp/static/images/task_images/rocket-05.jpg"",""time"":4277.900000095367},{""stimulus"":""run_exp/static/images/task_images/rocket-06.jpg"",""time"":5347.5},{""stimulus"":""run_exp/static/images/task_images/rocket-07.jpg"",""time"":6417.900000095367},{""stimulus"":""run_exp/static/images/task_images/rocket-08.jpg"",""time"":7485.5},{""stimulus"":""run_exp/static/images/task_images/rocket-09.jpg"",""time"":8555.099999904633}]",[],14,,,,,,,,,,,,,,
alien_welcome,225,962980,0.0-65.0-1.0,"""event"",""trial"",""time""
""fullscreenenter"",""1"",""77778""
","
","
","""event"",""trial"",""time""
""fullscreenenter"",""1"",""77778""
","
",,null,run_exp/static/images/task_images/aliens/old_aliens/planet/alien_planet-45.jpg,null,,,,,,,,,,,,,45,"8,19,3,37,30,29,56,77,40,72,33,49,9,44,45,65,21,71,6,7,1,38,32,10,55,26,61,13,48,54,20,36,28,14,5,75,60,27,69,15,59,64,22,35,23",,,,,,,,,,
land,226,963485,0.0-65.0-2.0,"""event"",""trial"",""time""
""fullscreenenter"",""1"",""77778""
","
","
","""event"",""trial"",""time""
""fullscreenenter"",""1"",""77778""
","
",,null,run_exp/static/images/task_images/land.jpg,null,,,,,,,97,,,15,,,,,,,,,,,,,,
dig,227,965493,0.0-65.0-3.0,"""event"",""trial"",""time""
""fullscreenenter"",""1"",""77778""
","
","
","""event"",""trial"",""time""
""fullscreenenter"",""1"",""77778""
","
",,,,,,,,,,,,"[{""stimulus"":""run_exp/static/images/task_images/dig.jpg"",""time"":0.40000009536743164},{""stimulus"":""run_exp/static/images/task_images/land.jpg"",""time"":669.4000000953674},{""stimulus"":""run_exp/static/images/task_images/dig.jpg"",""time"":1336.6999998092651}]",[],15,,,,,,,,,,,,,,
harvest,228,966496,0.0-65.0-4.0,"""event"",""trial"",""time""
""fullscreenenter"",""1"",""77778""
","
","
","""event"",""trial"",""time""
""fullscreenenter"",""1"",""77778""
","
",,null,run_exp/static/images/task_images/gems/97.jpg,null,,,,,,,25,,,15,,,,,97,0.257806122,0.257731959,,,,,,,
decision,229,966829,0.0-65.0-5.0,"""event"",""trial"",""time""
""fullscreenenter"",""1"",""77778""
","
","
","""event"",""trial"",""time""
""fullscreenenter"",""1"",""77778""
","
",,329.8000002,run_exp/static/images/task_images/land.jpg,65,,,,,,,25,,,15,,,,,,,,53911,2,0,FALSE,,,
dig,230,969510,0.0-66.0-0.0,"""event"",""trial"",""time""
""fullscreenenter"",""1"",""77778""
","
","
","""event"",""trial"",""time""
""fullscreenenter"",""1"",""77778""
","
",,,,,,,,,,,,"[{""stimulus"":""run_exp/static/images/task_images/dig.jpg"",""time"":0.5999999046325684},{""stimulus"":""run_exp/static/images/task_images/land.jpg"",""time"":892.6999998092651},{""stimulus"":""run_exp/static/images/task_images/dig.jpg"",""time"":1783.1999998092651}]",[],15,,,,,,,,,,,,,,
harvest,231,970513,0.0-66.0-1.0,"""event"",""trial"",""time""
""fullscreenenter"",""1"",""77778""
","
","
","""event"",""trial"",""time""
""fullscreenenter"",""1"",""77778""
","
",,null,run_exp/static/images/task_images/gems/25.jpg,null,,,,,,,2,,,15,,,,,25,0.096702661,0.08,,,,,,,
decision,232,970903,0.0-66.0-2.0,"""event"",""trial"",""time""
""fullscreenenter"",""1"",""77778""
","
","
","""event"",""trial"",""time""
""fullscreenenter"",""1"",""77778""
","
",,386.6999998,run_exp/static/images/task_images/land.jpg,76,,,,,,,2,,,15,,,,,,,,57985,2,1,TRUE,,,
travel,233,980525,0.0-67.0-0.0,"""event"",""trial"",""time""
""fullscreenenter"",""1"",""77778""
","
","
","""event"",""trial"",""time""
""fullscreenenter"",""1"",""77778""
","
",,,,,,,,,,,,"[{""stimulus"":""run_exp/static/images/task_images/rocket-01.jpg"",""time"":0.40000009536743164},{""stimulus"":""run_exp/static/images/task_images/rocket-02.jpg"",""time"":1070.5999999046326},{""stimulus"":""run_exp/static/images/task_images/rocket-03.jpg"",""time"":2137.9000000953674},{""stimulus"":""run_exp/static/images/task_images/rocket-04.jpg"",""time"":3206.5999999046326},{""stimulus"":""run_exp/static/images/task_images/rocket-05.jpg"",""time"":4274.300000190735},{""stimulus"":""run_exp/static/images/task_images/rocket-06.jpg"",""time"":5342.800000190735},{""stimulus"":""run_exp/static/images/task_images/rocket-07.jpg"",""time"":6410.800000190735},{""stimulus"":""run_exp/static/images/task_images/rocket-08.jpg"",""time"":7478.599999904633},{""stimulus"":""run_exp/static/images/task_images/rocket-09.jpg"",""time"":8546.599999904633}]",[],15,,,,,,,,,,,,,,
alien_welcome,234,985529,0.0-67.0-1.0,"""event"",""trial"",""time""
""fullscreenenter"",""1"",""77778""
","
","
","""event"",""trial"",""time""
""fullscreenenter"",""1"",""77778""
","
",,null,run_exp/static/images/task_images/aliens/old_aliens/planet/alien_planet-65.jpg,null,,,,,,,,,,,,,65,"8,19,3,37,30,29,56,77,40,72,33,49,9,44,45,65,21,71,6,7,1,38,32,10,55,26,61,13,48,54,20,36,28,14,5,75,60,27,69,15,59,64,22,35,23",,,,,,,,,,
land,235,986032,0.0-67.0-2.0,"""event"",""trial"",""time""
""fullscreenenter"",""1"",""77778""
","
","
","""event"",""trial"",""time""
""fullscreenenter"",""1"",""77778""
","
",,null,run_exp/static/images/task_images/land.jpg,null,,,,,,,91,,,16,,,,,,,,,,,,,,
dig,236,988039,0.0-67.0-3.0,"""event"",""trial"",""time""
""fullscreenenter"",""1"",""77778""
","
","
","""event"",""trial"",""time""
""fullscreenenter"",""1"",""77778""
","
",,,,,,,,,,,,"[{""stimulus"":""run_exp/static/images/task_images/dig.jpg"",""time"":0.8000001907348633},{""stimulus"":""run_exp/static/images/task_images/land.jpg"",""time"":670.2000002861023},{""stimulus"":""run_exp/static/images/task_images/dig.jpg"",""time"":1337}]",[],16,,,,,,,,,,,,,,
harvest,237,989042,0.0-67.0-4.0,"""event"",""trial"",""time""
""fullscreenenter"",""1"",""77778""
","
","
","""event"",""trial"",""time""
""fullscreenenter"",""1"",""77778""
","
