trial_type,trial_index,time_elapsed,internal_node_id,success,rt,stimulus,key_press,prompt,subject_id,age,gender,button_pressed,next_reward,animation_sequence,responses,planet,curr_prac_trial,n_prac_rounds,alien,aliens,reward_received,decay_rate_actual,decay_rate_exp,time_in_block,block_num,prt,last_trial_on_planet,button_html,bonus,num_failures
pavlovia,0,3,0.0-0.0,,,,,,,,,,,,,,,,,,,,,,,,,,,
fullscreen,1,3692,0.0-1.0,TRUE,,,,,,,,,,,,,,,,,,,,,,,,,,
instruc_welcome,2,13386,0.0-2.0,,null,run_exp/static/audio/clip_1_welcome.m4a,null,"<p>Howdy! In this experiment, you’ll be an explorer traveling through space to collect space treasure.</p><p>Your mission is to collect as much treasure as possible.</p><br><br><p><img src='run_exp/static/images/task_images/opening_img-01.jpg' height='300' width='auto'></p>",QFth44Y2vlatbHS_1Y3uCvx5VSxv8Zo_MLRP_3KSn4ydviZD50Lc,15.57,male,,,,,,,,,,,,,,,,,,,
audio-keyboard-response,3,29924,0.0-3.0,,null,run_exp/static/audio/clip_2_move.m4a,null,,,,,,,,,,,,,,,,,,,,,,,
welcome_dec,4,31061,0.0-4.0,,1135,"<p>Howdy! In this experiment, you’ll be an explorer traveling through space to collect space treasure.</p><p>Your mission is to collect as much treasure as possible.</p><br><br><p><img src='run_exp/static/images/task_images/opening_img-01.jpg' height='300' width='auto'></p>",,,,,,1,,,,,,,,,,,,,,,,,,
html-keyboard-response,5,32075,0.0-5.0,,1014,"<p>Howdy! In this experiment, you’ll be an explorer traveling through space to collect space treasure.</p><p>Your mission is to collect as much treasure as possible.</p><br><br><p><img src='run_exp/static/images/task_images/opening_img-01.jpg' height='300' width='auto'></p><button class=""jspsych-html-btn-unchosen""><img src=""run_exp/static/images/task_images/planet-01.jpg"" height=""50""></button><button class=""jspsych-html-btn-chosen""><img src=""run_exp/static/images/task_images/planet-02.jpg"" height=""50""></button><p><b>[press the space bar to lock in your answer]<b><br></p>",32,,,,,,,,,,,,,,,,,,,,,,,
instruc_goal,6,42085,0.0-6.0-0.0,,null,run_exp/static/audio/clip_3_goal.m4a,null,"<p> As a space explorer, you’ll visit different planets to dig for space treasure, these pink gems.</p> <p> The more treasure you dig up, the more bonus money you’ll win! </p><br><br><p><img src='run_exp/static/images/task_images/pink_gem.jpg' height='300' width='auto'></p>",,,,,,,,,,,,,,,,,,,,,,
instruc_goal,7,44735,0.0-6.0-1.0,,2649,"<p> As a space explorer, you’ll visit different planets to dig for space treasure, these pink gems.</p> <p> The more treasure you dig up, the more bonus money you’ll win! </p><br><br><p><img src='run_exp/static/images/task_images/pink_gem.jpg' height='300' width='auto'></p>",,,,,,1,,,,,,,,,,,,,,,,,,
html-keyboard-response,8,45503,0.0-6.0-2.0,,766,"<p> As a space explorer, you’ll visit different planets to dig for space treasure, these pink gems.</p> <p> The more treasure you dig up, the more bonus money you’ll win! </p><br><br><p><img src='run_exp/static/images/task_images/pink_gem.jpg' height='300' width='auto'></p><button class=""jspsych-html-btn-unchosen""><img src=""run_exp/static/images/task_images/planet-01.jpg"" height=""50""></button><button class=""jspsych-html-btn-chosen""><img src=""run_exp/static/images/task_images/planet-02.jpg"" height=""50""></button><p><b>[press the space bar to lock in your answer]<b><br></p>",32,,,,,,,,,,,,,,,,,,,,,,,
instruc_dig,9,61467,0.0-7.0-0.0,,null,run_exp/static/audio/clip_4_dig.m4a,null,,,,,,100,,,,,,,,,,,,,,,,,
instruc_dig_try,10,62015,0.0-7.0-1.0,,546,"<p> When you’ve arrived at a new planet, you will dig once. </p> <p>Then, you get to decide if you want to stay on the planet and dig again or travel to a new planet and dig there.</p> <p> To stay and dig, press the letter <strong>‘A’</strong> on your keyboard. Try pressing it now! </p><p><img src='run_exp/static/images/task_images/land.jpg'  height='700' width='auto'></p>",65,"<p> When you’ve arrived at a new planet, you will dig once. </p> <p>Then, you get to decide if you want to stay on the planet and dig again or travel to a new planet and dig there.</p> <p> To stay and dig, press the letter <strong>‘A’</strong> on your keyboard. Try pressing it now! </p><p><img src='run_exp/static/images/task_images/land.jpg'  height='700' width='auto'></p>",,,,,100,,,,,,,,,,,,,,,,,
dig_prac,11,64055,0.0-7.0-2.0,,,,,,,,,,,"[{""stimulus"":""run_exp/static/images/task_images/dig.jpg"",""time"":0},{""stimulus"":""run_exp/static/images/task_images/land.jpg"",""time"":676},{""stimulus"":""run_exp/static/images/task_images/dig.jpg"",""time"":1347}]",[],,,,,,,,,,,,,,,
instruc_travel,12,100244,0.0-7.0-3.0,,null,run_exp/static/audio/clip_5_travel.m4a,null,"<p>Every time you dig up gems, there are less gems on the planet, so the more you dig on a planet the fewer gems you’ll get with each dig.</p><p>When gems are running low, you may want to travel to a new planet. </p> <p>  Planets are very far apart in this galaxy, so it will take some time to travel between them. </p> <br><p>There are lots and lots of planets for you to visit, so you won’t be able to return to any planets you’ve seen before. </p><br><p>To leave this planet and travel to a new one, press the letter <strong>‘L’</strong> on your keyboard. Try pressing it now! </p><p><img src='run_exp/static/images/task_images/rocket-01.jpg'  height='600' width='auto'></p>",,,,,,,,,,,,,,,,,,,,,,
instruc_travel_try,13,102996,0.0-7.0-4.0,,2751,"<p>Every time you dig up gems, there are less gems on the planet, so the more you dig on a planet the fewer gems you’ll get with each dig.</p><p>When gems are running low, you may want to travel to a new planet. </p> <p>  Planets are very far apart in this galaxy, so it will take some time to travel between them. </p> <br><p>There are lots and lots of planets for you to visit, so you won’t be able to return to any planets you’ve seen before. </p><br><p>To leave this planet and travel to a new one, press the letter <strong>‘L’</strong> on your keyboard. Try pressing it now! </p><p><img src='run_exp/static/images/task_images/rocket-01.jpg'  height='600' width='auto'></p>",76,"<p>Every time you dig up gems, there are less gems on the planet, so the more you dig on a planet the fewer gems you’ll get with each dig.</p><p>When gems are running low, you may want to travel to a new planet. </p> <p>  Planets are very far apart in this galaxy, so it will take some time to travel between them. </p> <br><p>There are lots and lots of planets for you to visit, so you won’t be able to return to any planets you’ve seen before. </p><br><p>To leave this planet and travel to a new one, press the letter <strong>‘L’</strong> on your keyboard. Try pressing it now! </p><p><img src='run_exp/static/images/task_images/rocket-01.jpg'  height='600' width='auto'></p>",,,,,,,,,,,,,,,,,,,,,,
travel_prac,14,113091,0.0-7.0-5.0,,,,,,,,,,,"[{""stimulus"":""run_exp/static/images/task_images/rocket-01.jpg"",""time"":0},{""stimulus"":""run_exp/static/images/task_images/rocket-02.jpg"",""time"":1122},{""stimulus"":""run_exp/static/images/task_images/rocket-03.jpg"",""time"":2250},{""stimulus"":""run_exp/static/images/task_images/rocket-04.jpg"",""time"":3367},{""stimulus"":""run_exp/static/images/task_images/rocket-05.jpg"",""time"":4494},{""stimulus"":""run_exp/static/images/task_images/rocket-06.jpg"",""time"":5612},{""stimulus"":""run_exp/static/images/task_images/rocket-07.jpg"",""time"":6730},{""stimulus"":""run_exp/static/images/task_images/rocket-08.jpg"",""time"":7847},{""stimulus"":""run_exp/static/images/task_images/rocket-09.jpg"",""time"":8975}]",[],0,,,,,,,,,,,,,,
instruc_alien_greet,15,140258,0.0-7.0-6.0,,null,run_exp/static/audio/clip_6_alien.m4a,null,"<p>When you arrive at a new planet, the alien who owns the treasure mine on that planet will greet you!</p><p>The better an alien takes care of their mine the easier it is to dig for gems. Some aliens take better care of their mine than others. So, you won’t get exactly the same amount of gems on each planet.</p><p>What the alien looks like does not tell you anything about how many gems there are on the planet.</p><br><p><img src=""run_exp/static/images/task_images/aliens/instructions_aliens/planet/alien_planet-1.jpg""  height=""600"" width=""auto""></p>",,,,,,,,,,,,,,,,,,,,,,
instruc_alien_greet,16,142356,0.0-7.0-7.0,,2097,"<p>When you arrive at a new planet, the alien who owns the treasure mine on that planet will greet you!</p><p>The better an alien takes care of their mine the easier it is to dig for gems. Some aliens take better care of their mine than others. So, you won’t get exactly the same amount of gems on each planet.</p><p>What the alien looks like does not tell you anything about how many gems there are on the planet.</p><br><p><img src=""run_exp/static/images/task_images/aliens/instructions_aliens/planet/alien_planet-1.jpg""  height=""600"" width=""auto""></p>",,,,,,1,,,,,,,,,,,,,,,,,,
html-keyboard-response,17,143173,0.0-7.0-8.0,,817,"<p>When you arrive at a new planet, the alien who owns the treasure mine on that planet will greet you!</p><p>The better an alien takes care of their mine the easier it is to dig for gems. Some aliens take better care of their mine than others. So, you won’t get exactly the same amount of gems on each planet.</p><p>What the alien looks like does not tell you anything about how many gems there are on the planet.</p><br><p><img src=""run_exp/static/images/task_images/aliens/instructions_aliens/planet/alien_planet-1.jpg""  height=""600"" width=""auto""></p><button class=""jspsych-html-btn-unchosen""><img src=""run_exp/static/images/task_images/planet-01.jpg"" height=""50""></button><button class=""jspsych-html-btn-chosen""><img src=""run_exp/static/images/task_images/planet-02.jpg"" height=""50""></button><p><b>[press the space bar to lock in your answer]<b><br></p>",32,,,,,,,,,,,,,,,,,,,,,,,
time_out,18,154206,0.0-8.0-0.0,,null,run_exp/static/audio/clip_7_timeout.m4a,null,"<p>If you don't make your choice fast enough, you’ll have to wait a few seconds before you can make another one.</p><p>You can’t dig for more gems or travel to new planets. You just have to sit and wait.</p><br><p><img src='run_exp/static/images/task_images/time_out.jpg'  height='600' width='auto'></p>",,,,,,,,,,,,,,,,,,,,,,
time_out,19,155579,0.0-8.0-1.0,,1372,"<p>If you don't make your choice fast enough, you’ll have to wait a few seconds before you can make another one.</p><p>You can’t dig for more gems or travel to new planets. You just have to sit and wait.</p><br><p><img src='run_exp/static/images/task_images/time_out.jpg'  height='600' width='auto'></p>",,,,,,1,,,,,,,,,,,,,,,,,,
html-keyboard-response,20,157361,0.0-8.0-2.0,,1783,"<p>If you don't make your choice fast enough, you’ll have to wait a few seconds before you can make another one.</p><p>You can’t dig for more gems or travel to new planets. You just have to sit and wait.</p><br><p><img src='run_exp/static/images/task_images/time_out.jpg'  height='600' width='auto'></p><button class=""jspsych-html-btn-unchosen""><img src=""run_exp/static/images/task_images/planet-01.jpg"" height=""50""></button><button class=""jspsych-html-btn-chosen""><img src=""run_exp/static/images/task_images/planet-02.jpg"" height=""50""></button><p><b>[press the space bar to lock in your answer]<b><br></p>",32,,,,,,,,,,,,,,,,,,,,,,,
instruc_break,21,173010,0.0-9.0-0.0,,null,run_exp/static/audio/clip_8_break.m4a,null,"<p> After digging and traveling for a while, you’ll be able to take a break at home base. </p><p>The game will last 20 minutes no matter what.</p><p>You will visit home base every 5 minutes, so, you will visit home base three times during the game.</p><br><p><img src='run_exp/static/images/task_images/home_base.jpg' height='600' width='auto'></p>",,,,,,,,,,,,,,,,,,,,,,
instruc_break,22,174291,0.0-9.0-1.0,,1281,"<p> After digging and traveling for a while, you’ll be able to take a break at home base. </p><p>The game will last 20 minutes no matter what.</p><p>You will visit home base every 5 minutes, so, you will visit home base three times during the game.</p><br><p><img src='run_exp/static/images/task_images/home_base.jpg' height='600' width='auto'></p>",,,,,,1,,,,,,,,,,,,,,,,,,
html-keyboard-response,23,174735,0.0-9.0-2.0,,442,"<p> After digging and traveling for a while, you’ll be able to take a break at home base. </p><p>The game will last 20 minutes no matter what.</p><p>You will visit home base every 5 minutes, so, you will visit home base three times during the game.</p><br><p><img src='run_exp/static/images/task_images/home_base.jpg' height='600' width='auto'></p><button class=""jspsych-html-btn-unchosen""><img src=""run_exp/static/images/task_images/planet-01.jpg"" height=""50""></button><button class=""jspsych-html-btn-chosen""><img src=""run_exp/static/images/task_images/planet-02.jpg"" height=""50""></button><p><b>[press the space bar to lock in your answer]<b><br></p>",32,,,,,,,,,,,,,,,,,,,,,,,
instruc_prac_game,24,184815,0.0-10.0-0.0,,null,run_exp/static/audio/clip_9_practice.m4a,null,"<p> Are you ready to play a practice game? </p> <p>In this practice game, you'll be digging up barrels of gems. But, in the real game, you'll be digging up the gems themselves. </p>",,,,,,,,,,,,,,,,,,,,,,
html-button-response,25,188466,0.0-10.0-1.0,,3651,"<p> Are you ready to play a practice game? </p> <p>In this practice game, you'll be digging up barrels of gems. But, in the real game, you'll be digging up the gems themselves. </p>",,,,,,0,,,,,,,,,,,,,,,,,,
alien_welcome_prac,26,193468,0.0-11.0-0.0,,null,run_exp/static/images/task_images/aliens/practice_aliens/planet/alien_planet-5.jpg,null,,,,,,,,,,,,,,,,,,,,,,,
land_prac,27,193976,0.0-11.0-1.0,,null,run_exp/static/images/task_images/land.jpg,null,,,,,,100,,,0,,,,,,,,,,,,,,
dig_prac,28,196008,0.0-11.0-2.0,,,,,,,,,,,"[{""stimulus"":""run_exp/static/images/task_images/dig.jpg"",""time"":0},{""stimulus"":""run_exp/static/images/task_images/land.jpg"",""time"":675},{""stimulus"":""run_exp/static/images/task_images/dig.jpg"",""time"":1356}]",[],,,,,,,,,,,,,,,
harvest_prac,29,197023,0.0-11.0-3.0,,null,run_exp/static/images/task_images/barrel_text.jpg,null,,,,,,,,,,,,,,,,,,,,,,,
decision_prac,30,198390,0.0-11.0-4.0,,1367,run_exp/static/images/task_images/land.jpg,65,,,,,,,,,,1,,,,,,,,,,,,,
dig_prac,31,200427,0.0-12.0-0.0,,,,,,,,,,,"[{""stimulus"":""run_exp/static/images/task_images/dig.jpg"",""time"":0},{""stimulus"":""run_exp/static/images/task_images/land.jpg"",""time"":681},{""stimulus"":""run_exp/static/images/task_images/dig.jpg"",""time"":1361}]",[],,,,,,,,,,,,,,,
harvest_prac,32,201443,0.0-12.0-1.0,,null,run_exp/static/images/task_images/barrel_text.jpg,null,,,,,,,,,,,,,,,,,,,,,,,
decision_prac,33,202070,0.0-12.0-2.0,,626,run_exp/static/images/task_images/land.jpg,65,,,,,,,,,,2,,,,,,,,,,,,,
dig_prac,34,204105,0.0-13.0-0.0,,,,,,,,,,,"[{""stimulus"":""run_exp/static/images/task_images/dig.jpg"",""time"":0},{""stimulus"":""run_exp/static/images/task_images/land.jpg"",""time"":668},{""stimulus"":""run_exp/static/images/task_images/dig.jpg"",""time"":1350}]",[],,,,,,,,,,,,,,,
harvest_prac,35,205110,0.0-13.0-1.0,,null,run_exp/static/images/task_images/barrel_text.jpg,null,,,,,,,,,,,,,,,,,,,,,,,
decision_prac,36,205523,0.0-13.0-2.0,,412,run_exp/static/images/task_images/land.jpg,65,,,,,,,,,,3,,,,,,,,,,,,,
dig_prac,37,207569,0.0-14.0-0.0,,,,,,,,,,,"[{""stimulus"":""run_exp/static/images/task_images/dig.jpg"",""time"":0},{""stimulus"":""run_exp/static/images/task_images/land.jpg"",""time"":679},{""stimulus"":""run_exp/static/images/task_images/dig.jpg"",""time"":1360}]",[],,,,,,,,,,,,,,,
harvest_prac,38,208573,0.0-14.0-1.0,,null,run_exp/static/images/task_images/barrel_text.jpg,null,,,,,,,,,,,,,,,,,,,,,,,
decision_prac,39,209730,0.0-14.0-2.0,,1155,run_exp/static/images/task_images/land.jpg,65,,,,,,,,,,4,,,,,,,,,,,,,
dig_prac,40,211764,0.0-15.0-0.0,,,,,,,,,,,"[{""stimulus"":""run_exp/static/images/task_images/dig.jpg"",""time"":0},{""stimulus"":""run_exp/static/images/task_images/land.jpg"",""time"":678},{""stimulus"":""run_exp/static/images/task_images/dig.jpg"",""time"":1349}]",[],,,,,,,,,,,,,,,
harvest_prac,41,212780,0.0-15.0-1.0,,null,run_exp/static/images/task_images/barrel_text.jpg,null,,,,,,,,,,,,,,,,,,,,,,,
decision_prac,42,213059,0.0-15.0-2.0,,278,run_exp/static/images/task_images/land.jpg,65,,,,,,,,,,,1,,,,,,,,,,,,
quiz_instruc,43,217478,0.0-16.0-0.0,,4418,run_exp/static/audio/clip_10_quiz.m4a,,,,,,0,,,,,,,,,,,,,,,,,,
instruc_repeat,44,260193,0.0-16.0-1.0,,null,"<p> Are you ready to play a practice game? </p> <p>In this practice game, you'll be digging up barrels of gems. But, in the real game, you'll be digging up the gems themselves. </p>",null,"<p>In this game, your goal is to collect as many gems as you can. That’s how you will win bonus money. </p> <p>The entire game will last 20 minutes no matter how many gems you collect or how many planets you visit. </p><p>To stay on a planet and dig again, press the letter A on your keyboard. To leave for a new planet, press the letter L.</p><p>The more you dig on a planet, the fewer gems you’ll get with each dig which is why you might consider leaving for a new planet. </p><p>When you arrive at a new planet, you’ll be greeted by an alien. What the alien looks like does not tell you anything about how much treasure is on the planet. </p>",,,,,,,,,,,,,,,,,,,,,,
instruc_repeat_continue,45,261965,0.0-16.0-2.0,,1772,"<p> Are you ready to play a practice game? </p> <p>In this practice game, you'll be digging up barrels of gems. But, in the real game, you'll be digging up the gems themselves. </p>",,,,,,0,,,,,,,,,,,,,,,,,,
quiz_q_1_ask,46,265521,0.0-16.0-3.0,,3556,run_exp/static/audio/clip_11_q1_ask.m4a,,,,,,2,,,,,,,,,,,,,,,,,,
quiz_q_1_fb_correct,47,269325,0.0-17.0-0.0,,null,run_exp/static/audio/clip_12_q1_corrrect.m4a,null,<p>That’s correct. You win extra money by collecting more gems.</p>,,,,,,,,,,,,,,,,,,,,,,
quiz_q_2_ask,48,273179,0.0-17.0-1.0,,3853,run_exp/static/audio/clip_14_q2_ask.m4a,,,,,,1,,,,,,,,,,,,,,,,,,
quiz_q_2_fb_correct,49,277138,0.0-18.0-0.0,,null,run_exp/static/audio/clip_15_q2_correct.m4a,null,<p>That’s correct. The experiment is 20 minutes no matter what.</p>,,,,,,,,,,,,,,,,,,,,,,
quiz_q_3_ask,50,280812,0.0-18.0-1.0,,3674,run_exp/static/audio/clip_17_q3_ask.m4a,,,,,,1,,,,,,,,,,,,,,,,,,
quiz_q_3_fb_correct,51,284747,0.0-19.0-0.0,,null,run_exp/static/audio/clip_18_q3_correct.m4a,null,<p> That’s correct. You press the letter L to travel to a new planet.</p>,,,,,,,,,,,,,,,,,,,,,,
quiz_q_4_ask,52,287750,0.0-19.0-1.0,,3002,run_exp/static/audio/clip_20_q4_ask.m4a,,,,,,0,,,,,,,,,,,,,,,,,,
quiz_q_4_fb_correct,53,293025,0.0-20.0-0.0,,null,run_exp/static/audio/clip_21_q4_correct.m4a,null,<p> That’s correct. The more you dig on a planet the fewer gems you’ll get with each dig. </p>,,,,,,,,,,,,,,,,,,,,,,
quiz_q_5_ask,54,299600,0.0-20.0-1.0,,6575,run_exp/static/audio/clip_23_q5_ask.m4a,,,,,,1,,,,,,,,,,,,,,,,,,
quiz_q_5_fb_correct,55,304556,0.0-21.0-0.0,,null,run_exp/static/audio/clip_24_q5_correct.m4a,null,<p> That’s correct. The alien tells you nothing about how much treasure is on the planet.</p>,,,,,,,,,,,,,,,,,,,,,,
quiz_correct,56,307970,0.0-22.0-0.0,,null,run_exp/static/audio/clip_26_correct_quiz.m4a,null,,,,,,,,,,,,,,,,,,,,,,,
quiz_correct_continue,57,309615,0.0-22.0-1.0,,1645,<p>Good job! You're now ready to move on to the real game!</p>,,,,,,0,,,,,,,,,,,,,,,,,,
audio-keyboard-response,58,319693,0.0-22.0-2.0,,null,run_exp/static/audio/clip_28_real_game.m4a,null,,,,,,,,,,,,,,,,,,,,,,,
instruc_begin_exp_contine,59,320959,0.0-22.0-3.0,,1266,"<p>Now that you know how  to dig for space treasure and travel to new planets,you can start exploring! </p><p>Do you want to go over the instructions again or get started with the real game?</p>",,,,,,1,,,,,,1,,,,,,,,,,,,
alien_welcome,60,325979,0.0-23.0-0.0,,null,run_exp/static/images/task_images/aliens/old_aliens/planet/alien_planet-28.jpg,null,,,,,,,,,,,,28,"28,44,49,20,8,38,13,64,78,70,27,5,40,18,74,71,39,47,61,23,36,17,59,72,1,11,68,7,16,31,77,55,37,21,4,25,48,2,67,51,3,66,35,52,12",,,,,,,,,,
land,61,326482,0.0-23.0-1.0,,null,run_exp/static/images/task_images/land.jpg,null,,,,,,104,,,1,,,,,,,,,,,,,,
dig,62,328508,0.0-23.0-2.0,,,,,,,,,,,"[{""stimulus"":""run_exp/static/images/task_images/dig.jpg"",""time"":0},{""stimulus"":""run_exp/static/images/task_images/land.jpg"",""time"":680},{""stimulus"":""run_exp/static/images/task_images/dig.jpg"",""time"":1351}]",[],1,,,,,,,,,,,,,,
harvest,63,329513,0.0-23.0-3.0,,null,run_exp/static/images/task_images/gems/104.jpg,null,,,,,,22,,,1,,,,,104,0.21496999,0.211538462,,,,,,,
decision,64,329948,0.0-23.0-4.0,,434,run_exp/static/images/task_images/land.jpg,65,,,,,,22,,,1,,,,,,,,8989,1,0,FALSE,,,
dig,65,332541,0.0-24.0-0.0,,,,,,,,,,,"[{""stimulus"":""run_exp/static/images/task_images/dig.jpg"",""time"":0},{""stimulus"":""run_exp/static/images/task_images/land.jpg"",""time"":860},{""stimulus"":""run_exp/static/images/task_images/dig.jpg"",""time"":1724}]",[],1,,,,,,,,,,,,,,
harvest,66,333557,0.0-24.0-1.0,,null,run_exp/static/images/task_images/gems/22.jpg,null,,,,,,6,,,1,,,,,22,0.250322639,0.272727273,,,,,,,
decision,67,333638,0.0-24.0-2.0,,82,run_exp/static/images/task_images/land.jpg,65,,,,,,6,,,1,,,,,,,,12679,1,1,FALSE,,,
dig,68,336584,0.0-25.0-0.0,,,,,,,,,,,"[{""stimulus"":""run_exp/static/images/task_images/dig.jpg"",""time"":0},{""stimulus"":""run_exp/static/images/task_images/land.jpg"",""time"":992},{""stimulus"":""run_exp/static/images/task_images/dig.jpg"",""time"":1967}]",[],1,,,,,,,,,,,,,,
harvest,69,337600,0.0-25.0-1.0,,null,run_exp/static/images/task_images/gems/6.jpg,null,,,,,,2,,,1,,,,,6,0.283430215,0.333333333,,,,,,,
decision,70,337626,0.0-25.0-2.0,,26,run_exp/static/images/task_images/land.jpg,65,,,,,,2,,,1,,,,,,,,16667,1,2,FALSE,,,
dig,71,340628,0.0-26.0-0.0,,,,,,,,,,,"[{""stimulus"":""run_exp/static/images/task_images/dig.jpg"",""time"":0},{""stimulus"":""run_exp/static/images/task_images/land.jpg"",""time"":1006},{""stimulus"":""run_exp/static/images/task_images/dig.jpg"",""time"":2000}]",[],1,,,,,,,,,,,,,,
harvest,72,341642,0.0-26.0-1.0,,null,run_exp/static/images/task_images/gems/2.jpg,null,,,,,,0,,,1,,,,,2,0.16858252,0,,,,,,,
decision,73,342640,0.0-26.0-2.0,,997,run_exp/static/images/task_images/land.jpg,76,,,,,,0,,,1,,,,,,,,21681,1,3,TRUE,,,
travel,74,351771,0.0-27.0-0.0,,,,,,,,,,,"[{""stimulus"":""run_exp/static/images/task_images/rocket-01.jpg"",""time"":0},{""stimulus"":""run_exp/static/images/task_images/rocket-02.jpg"",""time"":1010},{""stimulus"":""run_exp/static/images/task_images/rocket-03.jpg"",""time"":2025},{""stimulus"":""run_exp/static/images/task_images/rocket-04.jpg"",""time"":3042},{""stimulus"":""run_exp/static/images/task_images/rocket-05.jpg"",""time"":4048},{""stimulus"":""run_exp/static/images/task_images/rocket-06.jpg"",""time"":5063},{""stimulus"":""run_exp/static/images/task_images/rocket-07.jpg"",""time"":6079},{""stimulus"":""run_exp/static/images/task_images/rocket-08.jpg"",""time"":7095},{""stimulus"":""run_exp/static/images/task_images/rocket-09.jpg"",""time"":8111}]",[],1,,,,,,,,,,,,,,
alien_welcome,75,356780,0.0-27.0-1.0,,null,run_exp/static/images/task_images/aliens/old_aliens/planet/alien_planet-44.jpg,null,,,,,,,,,,,,44,"28,44,49,20,8,38,13,64,78,70,27,5,40,18,74,71,39,47,61,23,36,17,59,72,1,11,68,7,16,31,77,55,37,21,4,25,48,2,67,51,3,66,35,52,12",,,,,,,,,,
land,76,357288,0.0-27.0-2.0,,null,run_exp/static/images/task_images/land.jpg,null,,,,,,100,,,2,,,,,,,,,,,,,,
dig,77,359300,0.0-27.0-3.0,,,,,,,,,,,"[{""stimulus"":""run_exp/static/images/task_images/dig.jpg"",""time"":0},{""stimulus"":""run_exp/static/images/task_images/land.jpg"",""time"":668},{""stimulus"":""run_exp/static/images/task_images/dig.jpg"",""time"":1338}]",[],2,,,,,,,,,,,,,,
harvest,78,360305,0.0-27.0-4.0,,null,run_exp/static/images/task_images/gems/100.jpg,null,,,,,,20,,,2,,,,,100,0.198685489,0.2,,,,,,,
decision,79,360781,0.0-27.0-5.0,,475,run_exp/static/images/task_images/land.jpg,65,,,,,,20,,,2,,,,,,,,39822,1,0,FALSE,,,
dig,80,363342,0.0-28.0-0.0,,,,,,,,,,,"[{""stimulus"":""run_exp/static/images/task_images/dig.jpg"",""time"":0},{""stimulus"":""run_exp/static/images/task_images/land.jpg"",""time"":851},{""stimulus"":""run_exp/static/images/task_images/dig.jpg"",""time"":1695}]",[],2,,,,,,,,,,,,,,
harvest,81,364359,0.0-28.0-1.0,,null,run_exp/static/images/task_images/gems/20.jpg,null,,,,,,3,,,2,,,,,20,0.171394834,0.15,,,,,,,
decision,82,364435,0.0-28.0-2.0,,77,run_exp/static/images/task_images/land.jpg,65,,,,,,3,,,2,,,,,,,,43476,1,1,FALSE,,,
dig,83,367375,0.0-29.0-0.0,,,,,,,,,,,"[{""stimulus"":""run_exp/static/images/task_images/dig.jpg"",""time"":0},{""stimulus"":""run_exp/static/images/task_images/land.jpg"",""time"":977},{""stimulus"":""run_exp/static/images/task_images/dig.jpg"",""time"":1962}]",[],2,,,,,,,,,,,,,,
harvest,84,368381,0.0-29.0-1.0,,null,run_exp/static/images/task_images/gems/3.jpg,null,,,,,,0,,,2,,,,,3,0.118190897,0,,,,,,,
decision,85,368580,0.0-29.0-2.0,,198,run_exp/static/images/task_images/land.jpg,76,,,,,,0,,,2,,,,,,,,47621,1,2,TRUE,,,
travel,86,378479,0.0-30.0-0.0,,,,,,,,,,,"[{""stimulus"":""run_exp/static/images/task_images/rocket-01.jpg"",""time"":0},{""stimulus"":""run_exp/static/images/task_images/rocket-02.jpg"",""time"":1099},{""stimulus"":""run_exp/static/images/task_images/rocket-03.jpg"",""time"":2206},{""stimulus"":""run_exp/static/images/task_images/rocket-04.jpg"",""time"":3303},{""stimulus"":""run_exp/static/images/task_images/rocket-05.jpg"",""time"":4400},{""stimulus"":""run_exp/static/images/task_images/rocket-06.jpg"",""time"":5508},{""stimulus"":""run_exp/static/images/task_images/rocket-07.jpg"",""time"":6605},{""stimulus"":""run_exp/static/images/task_images/rocket-08.jpg"",""time"":7702},{""stimulus"":""run_exp/static/images/task_images/rocket-09.jpg"",""time"":8800}]",[],2,,,,,,,,,,,,,,
alien_welcome,87,383487,0.0-30.0-1.0,,null,run_exp/static/images/task_images/aliens/old_aliens/planet/alien_planet-49.jpg,null,,,,,,,,,,,,49,"28,44,49,20,8,38,13,64,78,70,27,5,40,18,74,71,39,47,61,23,36,17,59,72,1,11,68,7,16,31,77,55,37,21,4,25,48,2,67,51,3,66,35,52,12",,,,,,,,,,
land,88,383995,0.0-30.0-2.0,,null,run_exp/static/images/task_images/land.jpg,null,,,,,,106,,,3,,,,,,,,,,,,,,
dig,89,386027,0.0-30.0-3.0,,,,,,,,,,,"[{""stimulus"":""run_exp/static/images/task_images/dig.jpg"",""time"":0},{""stimulus"":""run_exp/static/images/task_images/land.jpg"",""time"":687},{""stimulus"":""run_exp/static/images/task_images/dig.jpg"",""time"":1358}]",[],3,,,,,,,,,,,,,,
harvest,90,387042,0.0-30.0-4.0,,null,run_exp/static/images/task_images/gems/106.jpg,null,,,,,,49,,,3,,,,,106,0.4630824,0.462264151,,,,,,,
decision,91,387176,0.0-30.0-5.0,,134,run_exp/static/images/task_images/land.jpg,65,,,,,,49,,,3,,,,,,,,66217,1,0,FALSE,,,
dig,92,390089,0.0-31.0-0.0,,,,,,,,,,,"[{""stimulus"":""run_exp/static/images/task_images/dig.jpg"",""time"":0},{""stimulus"":""run_exp/static/images/task_images/land.jpg"",""time"":961},{""stimulus"":""run_exp/static/images/task_images/dig.jpg"",""time"":1936}]",[],3,,,,,,,,,,,,,,
harvest,93,391106,0.0-31.0-1.0,,null,run_exp/static/images/task_images/gems/49.jpg,null,,,,,,28,,,3,,,,,49,0.574935693,0.571428571,,,,,,,
decision,94,391246,0.0-31.0-2.0,,138,run_exp/static/images/task_images/land.jpg,65,,,,,,28,,,3,,,,,,,,70287,1,1,FALSE,,,
dig,95,394123,0.0-32.0-0.0,,,,,,,,,,,"[{""stimulus"":""run_exp/static/images/task_images/dig.jpg"",""time"":0},{""stimulus"":""run_exp/static/images/task_images/land.jpg"",""time"":956},{""stimulus"":""run_exp/static/images/task_images/dig.jpg"",""time"":1909}]",[],3,,,,,,,,,,,,,,
harvest,96,395129,0.0-32.0-1.0,,null,run_exp/static/images/task_images/gems/28.jpg,null,,,,,,17,,,3,,,,,28,0.62305795,0.607142857,,,,,,,
decision,97,395255,0.0-32.0-2.0,,127,run_exp/static/images/task_images/land.jpg,76,,,,,,17,,,3,,,,,,,,74296,1,2,TRUE,,,
travel,98,405166,0.0-33.0-0.0,,,,,,,,,,,"[{""stimulus"":""run_exp/static/images/task_images/rocket-01.jpg"",""time"":0},{""stimulus"":""run_exp/static/images/task_images/rocket-02.jpg"",""time"":1098},{""stimulus"":""run_exp/static/images/task_images/rocket-03.jpg"",""time"":2195},{""stimulus"":""run_exp/static/images/task_images/rocket-04.jpg"",""time"":3303},{""stimulus"":""run_exp/static/images/task_images/rocket-05.jpg"",""time"":4400},{""stimulus"":""run_exp/static/images/task_images/rocket-06.jpg"",""time"":5507},{""stimulus"":""run_exp/static/images/task_images/rocket-07.jpg"",""time"":6605},{""stimulus"":""run_exp/static/images/task_images/rocket-08.jpg"",""time"":7702},{""stimulus"":""run_exp/static/images/task_images/rocket-09.jpg"",""time"":8810}]",[],3,,,,,,,,,,,,,,
alien_welcome,99,410184,0.0-33.0-1.0,,null,run_exp/static/images/task_images/aliens/old_aliens/planet/alien_planet-20.jpg,null,,,,,,,,,,,,20,"28,44,49,20,8,38,13,64,78,70,27,5,40,18,74,71,39,47,61,23,36,17,59,72,1,11,68,7,16,31,77,55,37,21,4,25,48,2,67,51,3,66,35,52,12",,,,,,,,,,
land,100,410693,0.0-33.0-2.0,,null,run_exp/static/images/task_images/land.jpg,null,,,,,,105,,,4,,,,,,,,,,,,,,
dig,101,412723,0.0-33.0-3.0,,,,,,,,,,,"[{""stimulus"":""run_exp/static/images/task_images/dig.jpg"",""time"":1},{""stimulus"":""run_exp/static/images/task_images/land.jpg"",""time"":688},{""stimulus"":""run_exp/static/images/task_images/dig.jpg"",""time"":1358}]",[],4,,,,,,,,,,,,,,
harvest,102,413727,0.0-33.0-4.0,,null,run_exp/static/images/task_images/gems/105.jpg,null,,,,,,47,,,4,,,,,105,0.450563057,0.447619048,,,,,,,
decision,103,413897,0.0-33.0-5.0,,170,run_exp/static/images/task_images/land.jpg,65,,,,,,47,,,4,,,,,,,,92938,1,0,FALSE,,,
dig,104,416756,0.0-34.0-0.0,,,,,,,,,,,"[{""stimulus"":""run_exp/static/images/task_images/dig.jpg"",""time"":0},{""stimulus"":""run_exp/static/images/task_images/land.jpg"",""time"":947},{""stimulus"":""run_exp/static/images/task_images/dig.jpg"",""time"":1902}]",[],4,,,,,,,,,,,,,,
harvest,105,417773,0.0-34.0-1.0,,null,run_exp/static/images/task_images/gems/47.jpg,null,,,,,,20,,,4,,,,,47,0.42272619,0.425531915,,,,,,,
decision,106,417977,0.0-34.0-2.0,,204,run_exp/static/images/task_images/land.jpg,65,,,,,,20,,,4,,,,,,,,97018,1,1,FALSE,,,
dig,107,420800,0.0-35.0-0.0,,,,,,,,,,,"[{""stimulus"":""run_exp/static/images/task_images/dig.jpg"",""time"":0},{""stimulus"":""run_exp/static/images/task_images/land.jpg"",""time"":951},{""stimulus"":""run_exp/static/images/task_images/dig.jpg"",""time"":1886}]",[],4,,,,,,,,,,,,,,
harvest,108,421806,0.0-35.0-1.0,,null,run_exp/static/images/task_images/gems/20.jpg,null,,,,,,10,,,4,,,,,20,0.490097083,0.5,,,,,,,
decision,109,421940,0.0-35.0-2.0,,135,run_exp/static/images/task_images/land.jpg,65,,,,,,10,,,4,,,,,,,,100981,1,2,FALSE,,,
dig,110,424854,0.0-36.0-0.0,,,,,,,,,,,"[{""stimulus"":""run_exp/static/images/task_images/dig.jpg"",""time"":0},{""stimulus"":""run_exp/static/images/task_images/land.jpg"",""time"":969},{""stimulus"":""run_exp/static/images/task_images/dig.jpg"",""time"":1934}]",[],4,,,,,,,,,,,,,,
harvest,111,425860,0.0-36.0-1.0,,null,run_exp/static/images/task_images/gems/10.jpg,null,,,,,,5,,,4,,,,,10,0.455556423,0.5,,,,,,,
decision,112,425877,0.0-36.0-2.0,,19,run_exp/static/images/task_images/land.jpg,76,,,,,,5,,,4,,,,,,,,104918,1,3,TRUE,,,
travel,113,435987,0.0-37.0-0.0,,,,,,,,,,,"[{""stimulus"":""run_exp/static/images/task_images/rocket-01.jpg"",""time"":0},{""stimulus"":""run_exp/static/images/task_images/rocket-02.jpg"",""time"":1125},{""stimulus"":""run_exp/static/images/task_images/rocket-03.jpg"",""time"":2254},{""stimulus"":""run_exp/static/images/task_images/rocket-04.jpg"",""time"":3371},{""stimulus"":""run_exp/static/images/task_images/rocket-05.jpg"",""time"":4488},{""stimulus"":""run_exp/static/images/task_images/rocket-06.jpg"",""time"":5616},{""stimulus"":""run_exp/static/images/task_images/rocket-07.jpg"",""time"":6734},{""stimulus"":""run_exp/static/images/task_images/rocket-08.jpg"",""time"":7861},{""stimulus"":""run_exp/static/images/task_images/rocket-09.jpg"",""time"":8989}]",[],4,,,,,,,,,,,,,,
alien_welcome,114,441006,0.0-37.0-1.0,,null,run_exp/static/images/task_images/aliens/old_aliens/planet/alien_planet-8.jpg,null,,,,,,,,,,,,8,"28,44,49,20,8,38,13,64,78,70,27,5,40,18,74,71,39,47,61,23,36,17,59,72,1,11,68,7,16,31,77,55,37,21,4,25,48,2,67,51,3,66,35,52,12",,,,,,,,,,
land,115,441514,0.0-37.0-2.0,,null,run_exp/static/images/task_images/land.jpg,null,,,,,,101,,,5,,,,,,,,,,,,,,
dig,116,443556,0.0-37.0-3.0,,,,,,,,,,,"[{""stimulus"":""run_exp/static/images/task_images/dig.jpg"",""time"":0},{""stimulus"":""run_exp/static/images/task_images/land.jpg"",""time"":688},{""stimulus"":""run_exp/static/images/task_images/dig.jpg"",""time"":1359}]",[],5,,,,,,,,,,,,,,
harvest,117,444571,0.0-37.0-4.0,,null,run_exp/static/images/task_images/gems/101.jpg,null,,,,,,53,,,5,,,,,101,0.527100661,0.524752475,,,,,,,
decision,118,444631,0.0-37.0-5.0,,58,run_exp/static/images/task_images/land.jpg,65,,,,,,53,,,5,,,,,,,,123672,1,0,FALSE,,,
dig,119,447608,0.0-38.0-0.0,,,,,,,,,,,"[{""stimulus"":""run_exp/static/images/task_images/dig.jpg"",""time"":0},{""stimulus"":""run_exp/static/images/task_images/land.jpg"",""time"":994},{""stimulus"":""run_exp/static/images/task_images/dig.jpg"",""time"":1980}]",[],5,,,,,,,,,,,,,,
harvest,120,448625,0.0-38.0-1.0,,null,run_exp/static/images/task_images/gems/53.jpg,null,,,,,,23,,,5,,,,,53,0.43001417,0.433962264,,,,,,,
decision,121,448755,0.0-38.0-2.0,,129,run_exp/static/images/task_images/land.jpg,76,,,,,,23,,,5,,,,,,,,127796,1,1,TRUE,,,
travel,122,458692,0.0-39.0-0.0,,,,,,,,,,,"[{""stimulus"":""run_exp/static/images/task_images/rocket-01.jpg"",""time"":0},{""stimulus"":""run_exp/static/images/task_images/rocket-02.jpg"",""time"":1107},{""stimulus"":""run_exp/static/images/task_images/rocket-03.jpg"",""time"":2213},{""stimulus"":""run_exp/static/images/task_images/rocket-04.jpg"",""time"":3320},{""stimulus"":""run_exp/static/images/task_images/rocket-05.jpg"",""time"":4428},{""stimulus"":""run_exp/static/images/task_images/rocket-06.jpg"",""time"":5532},{""stimulus"":""run_exp/static/images/task_images/rocket-07.jpg"",""time"":6633},{""stimulus"":""run_exp/static/images/task_images/rocket-08.jpg"",""time"":7729},{""stimulus"":""run_exp/static/images/task_images/rocket-09.jpg"",""time"":8836}]",[],5,,,,,,,,,,,,,,
alien_welcome,123,463708,0.0-39.0-1.0,,null,run_exp/static/images/task_images/aliens/old_aliens/planet/alien_planet-38.jpg,null,,,,,,,,,,,,38,"28,44,49,20,8,38,13,64,78,70,27,5,40,18,74,71,39,47,61,23,36,17,59,72,1,11,68,7,16,31,77,55,37,21,4,25,48,2,67,51,3,66,35,52,12",,,,,,,,,,
land,124,464208,0.0-39.0-2.0,,null,run_exp/static/images/task_images/land.jpg,null,,,,,,103,,,6,,,,,,,,,,,,,,
dig,125,466220,0.0-39.0-3.0,,,,,,,,,,,"[{""stimulus"":""run_exp/static/images/task_images/dig.jpg"",""time"":0},{""stimulus"":""run_exp/static/images/task_images/land.jpg"",""time"":668},{""stimulus"":""run_exp/static/images/task_images/dig.jpg"",""time"":1338}]",[],6,,,,,,,,,,,,,,
harvest,126,467237,0.0-39.0-4.0,,null,run_exp/static/images/task_images/gems/103.jpg,null,,,,,,82,,,6,,,,,103,0.799212781,0.796116505,,,,,,,
decision,127,467339,0.0-39.0-5.0,,102,run_exp/static/images/task_images/land.jpg,65,,,,,,82,,,6,,,,,,,,146380,1,0,FALSE,,,
dig,128,470271,0.0-40.0-0.0,,,,,,,,,,,"[{""stimulus"":""run_exp/static/images/task_images/dig.jpg"",""time"":0},{""stimulus"":""run_exp/static/images/task_images/land.jpg"",""time"":971},{""stimulus"":""run_exp/static/images/task_images/dig.jpg"",""time"":1956}]",[],6,,,,,,,,,,,,,,
harvest,129,471277,0.0-40.0-1.0,,null,run_exp/static/images/task_images/gems/82.jpg,null,,,,,,69,,,6,,,,,82,0.841688577,0.841463415,,,,,,,
decision,130,471288,0.0-40.0-2.0,,10,run_exp/static/images/task_images/land.jpg,65,,,,,,69,,,6,,,,,,,,150329,1,1,FALSE,,,
dig,131,474316,0.0-41.0-0.0,,,,,,,,,,,"[{""stimulus"":""run_exp/static/images/task_images/dig.jpg"",""time"":0},{""stimulus"":""run_exp/static/images/task_images/land.jpg"",""time"":1003},{""stimulus"":""run_exp/static/images/task_images/dig.jpg"",""time"":2010}]",[],6,,,,,,,,,,,,,,
harvest,132,475322,0.0-41.0-1.0,,null,run_exp/static/images/task_images/gems/69.jpg,null,,,,,,58,,,6,,,,,69,0.84187481,0.84057971,,,,,,,
decision,133,475375,0.0-41.0-2.0,,53,run_exp/static/images/task_images/land.jpg,65,,,,,,58,,,6,,,,,,,,154416,1,2,FALSE,,,
dig,134,478350,0.0-42.0-0.0,,,,,,,,,,,"[{""stimulus"":""run_exp/static/images/task_images/dig.jpg"",""time"":0},{""stimulus"":""run_exp/static/images/task_images/land.jpg"",""time"":990},{""stimulus"":""run_exp/static/images/task_images/dig.jpg"",""time"":1986}]",[],6,,,,,,,,,,,,,,
harvest,135,479355,0.0-42.0-1.0,,null,run_exp/static/images/task_images/gems/58.jpg,null,,,,,,45,,,6,,,,,58,0.778395276,0.775862069,,,,,,,
decision,136,479485,0.0-42.0-2.0,,130,run_exp/static/images/task_images/land.jpg,65,,,,,,45,,,6,,,,,,,,158526,1,3,FALSE,,,
dig,137,482413,0.0-43.0-0.0,,,,,,,,,,,"[{""stimulus"":""run_exp/static/images/task_images/dig.jpg"",""time"":0},{""stimulus"":""run_exp/static/images/task_images/land.jpg"",""time"":974},{""stimulus"":""run_exp/static/images/task_images/dig.jpg"",""time"":1949}]",[],6,,,,,,,,,,,,,,
harvest,138,483417,0.0-43.0-1.0,,null,run_exp/static/images/task_images/gems/45.jpg,null,,,,,,38,,,6,,,,,45,0.851024064,0.844444444,,,,,,,
decision,139,483782,0.0-43.0-2.0,,365,run_exp/static/images/task_images/land.jpg,65,,,,,,38,,,6,,,,,,,,162823,1,4,FALSE,,,
dig,140,486466,0.0-44.0-0.0,,,,,,,,,,,"[{""stimulus"":""run_exp/static/images/task_images/dig.jpg"",""time"":0},{""stimulus"":""run_exp/static/images/task_images/land.jpg"",""time"":892},{""stimulus"":""run_exp/static/images/task_images/dig.jpg"",""time"":1786}]",[],6,,,,,,,,,,,,,,
harvest,141,487483,0.0-44.0-1.0,,null,run_exp/static/images/task_images/gems/38.jpg,null,,,,,,33,,,6,,,,,38,0.876790645,0.868421053,,,,,,,
decision,142,487552,0.0-44.0-2.0,,69,run_exp/static/images/task_images/land.jpg,76,,,,,,33,,,6,,,,,,,,166593,1,5,TRUE,,,
travel,143,497590,0.0-45.0-0.0,,,,,,,,,,,"[{""stimulus"":""run_exp/static/images/task_images/rocket-01.jpg"",""time"":0},{""stimulus"":""run_exp/static/images/task_images/rocket-02.jpg"",""time"":1115},{""stimulus"":""run_exp/static/images/task_images/rocket-03.jpg"",""time"":2228},{""stimulus"":""run_exp/static/images/task_images/rocket-04.jpg"",""time"":3339},{""stimulus"":""run_exp/static/images/task_images/rocket-05.jpg"",""time"":4457},{""stimulus"":""run_exp/static/images/task_images/rocket-06.jpg"",""time"":5574},{""stimulus"":""run_exp/static/images/task_images/rocket-07.jpg"",""time"":6681},{""stimulus"":""run_exp/static/images/task_images/rocket-08.jpg"",""time"":7799},{""stimulus"":""run_exp/static/images/task_images/rocket-09.jpg"",""time"":8917}]",[],6,,,,,,,,,,,,,,
alien_welcome,144,502599,0.0-45.0-1.0,,null,run_exp/static/images/task_images/aliens/old_aliens/planet/alien_planet-13.jpg,null,,,,,,,,,,,,13,"28,44,49,20,8,38,13,64,78,70,27,5,40,18,74,71,39,47,61,23,36,17,59,72,1,11,68,7,16,31,77,55,37,21,4,25,48,2,67,51,3,66,35,52,12",,,,,,,,,,
land,145,503106,0.0-45.0-2.0,,null,run_exp/static/images/task_images/land.jpg,null,,,,,,103,,,7,,,,,,,,,,,,,,
dig,146,505138,0.0-45.0-3.0,,,,,,,,,,,"[{""stimulus"":""run_exp/static/images/task_images/dig.jpg"",""time"":0},{""stimulus"":""run_exp/static/images/task_images/land.jpg"",""time"":686},{""stimulus"":""run_exp/static/images/task_images/dig.jpg"",""time"":1357}]",[],7,,,,,,,,,,,,,,
harvest,147,506154,0.0-45.0-4.0,,null,run_exp/static/images/task_images/gems/103.jpg,null,,,,,,86,,,7,,,,,103,0.836960994,0.834951456,,,,,,,
decision,148,506390,0.0-45.0-5.0,,236,run_exp/static/images/task_images/land.jpg,65,,,,,,86,,,7,,,,,,,,185431,1,0,FALSE,,,
dig,149,509192,0.0-46.0-0.0,,,,,,,,,,,"[{""stimulus"":""run_exp/static/images/task_images/dig.jpg"",""time"":0},{""stimulus"":""run_exp/static/images/task_images/land.jpg"",""time"":925},{""stimulus"":""run_exp/static/images/task_images/dig.jpg"",""time"":1863}]",[],7,,,,,,,,,,,,,,
harvest,150,510197,0.0-46.0-1.0,,null,run_exp/static/images/task_images/gems/86.jpg,null,,,,,,70,,,7,,,,,86,0.818727052,0.813953488,,,,,,,
decision,151,510599,0.0-46.0-2.0,,400,run_exp/static/images/task_images/land.jpg,65,,,,,,70,,,7,,,,,,,,189640,1,1,FALSE,,,
dig,152,513232,0.0-47.0-0.0,,,,,,,,,,,"[{""stimulus"":""run_exp/static/images/task_images/dig.jpg"",""time"":0},{""stimulus"":""run_exp/static/images/task_images/land.jpg"",""time"":886},{""stimulus"":""run_exp/static/images/task_images/dig.jpg"",""time"":1759}]",[],7,,,,,,,,,,,,,,
harvest,153,514251,0.0-47.0-1.0,,null,run_exp/static/images/task_images/gems/70.jpg,null,,,,,,53,,,7,,,,,70,0.76121556,0.757142857,,,,,,,
decision,154,514394,0.0-47.0-2.0,,144,run_exp/static/images/task_images/land.jpg,65,,,,,,53,,,7,,,,,,,,193435,1,2,FALSE,,,
dig,155,517288,0.0-48.0-0.0,,,,,,,,,,,"[{""stimulus"":""run_exp/static/images/task_images/dig.jpg"",""time"":1},{""stimulus"":""run_exp/static/images/task_images/land.jpg"",""time"":971},{""stimulus"":""run_exp/static/images/task_images/dig.jpg"",""time"":1926}]",[],7,,,,,,,,,,,,,,
harvest,156,518304,0.0-48.0-1.0,,null,run_exp/static/images/task_images/gems/53.jpg,null,,,,,,43,,,7,,,,,53,0.803334241,0.811320755,,,,,,,
decision,157,518351,0.0-48.0-2.0,,47,run_exp/static/images/task_images/land.jpg,65,,,,,,43,,,7,,,,,,,,197392,1,3,FALSE,,,
dig,158,521341,0.0-49.0-0.0,,,,,,,,,,,"[{""stimulus"":""run_exp/static/images/task_images/dig.jpg"",""time"":0},{""stimulus"":""run_exp/static/images/task_images/land.jpg"",""time"":995},{""stimulus"":""run_exp/static/images/task_images/dig.jpg"",""time"":1991}]",[],7,,,,,,,,,,,,,,
harvest,159,522356,0.0-49.0-1.0,,null,run_exp/static/images/task_images/gems/43.jpg,null,,,,,,32,,,7,,,,,43,0.741923167,0.744186047,,,,,,,
decision,160,522408,0.0-49.0-2.0,,50,run_exp/static/images/task_images/land.jpg,76,,,,,,32,,,7,,,,,,,,201449,1,4,TRUE,,,
travel,161,532476,0.0-50.0-0.0,,,,,,,,,,,"[{""stimulus"":""run_exp/static/images/task_images/rocket-01.jpg"",""time"":0},{""stimulus"":""run_exp/static/images/task_images/rocket-02.jpg"",""time"":1124},{""stimulus"":""run_exp/static/images/task_images/rocket-03.jpg"",""time"":2251},{""stimulus"":""run_exp/static/images/task_images/rocket-04.jpg"",""time"":3369},{""stimulus"":""run_exp/static/images/task_images/rocket-05.jpg"",""time"":4476},{""stimulus"":""run_exp/static/images/task_images/rocket-06.jpg"",""time"":5593},{""stimulus"":""run_exp/static/images/task_images/rocket-07.jpg"",""time"":6711},{""stimulus"":""run_exp/static/images/task_images/rocket-08.jpg"",""time"":7819},{""stimulus"":""run_exp/static/images/task_images/rocket-09.jpg"",""time"":8937}]",[],7,,,,,,,,,,,,,,
alien_welcome,162,537484,0.0-50.0-1.0,,null,run_exp/static/images/task_images/aliens/old_aliens/planet/alien_planet-64.jpg,null,,,,,,,,,,,,64,"28,44,49,20,8,38,13,64,78,70,27,5,40,18,74,71,39,47,61,23,36,17,59,72,1,11,68,7,16,31,77,55,37,21,4,25,48,2,67,51,3,66,35,52,12",,,,,,,,,,
land,163,538002,0.0-50.0-2.0,,null,run_exp/static/images/task_images/land.jpg,null,,,,,,97,,,8,,,,,,,,,,,,,,
dig,164,540024,0.0-50.0-3.0,,,,,,,,,,,"[{""stimulus"":""run_exp/static/images/task_images/dig.jpg"",""time"":0},{""stimulus"":""run_exp/static/images/task_images/land.jpg"",""time"":668},{""stimulus"":""run_exp/static/images/task_images/dig.jpg"",""time"":1349}]",[],8,,,,,,,,,,,,,,
harvest,165,541039,0.0-50.0-4.0,,null,run_exp/static/images/task_images/gems/97.jpg,null,,,,,,81,,,8,,,,,97,0.839263768,0.835051546,,,,,,,
decision,166,541414,0.0-50.0-5.0,,375,run_exp/static/images/task_images/land.jpg,65,,,,,,81,,,8,,,,,,,,220455,1,0,FALSE,,,
dig,167,544086,0.0-51.0-0.0,,,,,,,,,,,"[{""stimulus"":""run_exp/static/images/task_images/dig.jpg"",""time"":0},{""stimulus"":""run_exp/static/images/task_images/land.jpg"",""time"":881},{""stimulus"":""run_exp/static/images/task_images/dig.jpg"",""time"":1775}]",[],8,,,,,,,,,,,,,,
harvest,168,545092,0.0-51.0-1.0,,null,run_exp/static/images/task_images/gems/81.jpg,null,,,,,,65,,,8,,,,,81,0.79887183,0.802469136,,,,,,,
decision,169,545285,0.0-51.0-2.0,,192,run_exp/static/images/task_images/land.jpg,65,,,,,,65,,,8,,,,,,,,224326,1,1,FALSE,,,
dig,170,548140,0.0-52.0-0.0,,,,,,,,,,,"[{""stimulus"":""run_exp/static/images/task_images/dig.jpg"",""time"":0},{""stimulus"":""run_exp/static/images/task_images/land.jpg"",""time"":942},{""stimulus"":""run_exp/static/images/task_images/dig.jpg"",""time"":1897}]",[],8,,,,,,,,,,,,,,
harvest,171,549156,0.0-52.0-1.0,,null,run_exp/static/images/task_images/gems/65.jpg,null,,,,,,54,,,8,,,,,65,0.826176022,0.830769231,,,,,,,
decision,172,549340,0.0-52.0-2.0,,184,run_exp/static/images/task_images/land.jpg,65,,,,,,54,,,8,,,,,,,,228381,1,2,FALSE,,,
dig,173,552192,0.0-53.0-0.0,,,,,,,,,,,"[{""stimulus"":""run_exp/static/images/task_images/dig.jpg"",""time"":0},{""stimulus"":""run_exp/static/images/task_images/land.jpg"",""time"":950},{""stimulus"":""run_exp/static/images/task_images/dig.jpg"",""time"":1895}]",[],8,,,,,,,,,,,,,,
harvest,174,553210,0.0-53.0-1.0,,null,run_exp/static/images/task_images/gems/54.jpg,null,,,,,,40,,,8,,,,,54,0.7405166,0.740740741,,,,,,,
decision,175,553397,0.0-53.0-2.0,,187,run_exp/static/images/task_images/land.jpg,76,,,,,,40,,,8,,,,,,,,232438,1,3,TRUE,,,
travel,176,563296,0.0-54.0-0.0,,,,,,,,,,,"[{""stimulus"":""run_exp/static/images/task_images/rocket-01.jpg"",""time"":0},{""stimulus"":""run_exp/static/images/task_images/rocket-02.jpg"",""time"":1109},{""stimulus"":""run_exp/static/images/task_images/rocket-03.jpg"",""time"":2206},{""stimulus"":""run_exp/static/images/task_images/rocket-04.jpg"",""time"":3314},{""stimulus"":""run_exp/static/images/task_images/rocket-05.jpg"",""time"":4411},{""stimulus"":""run_exp/static/images/task_images/rocket-06.jpg"",""time"":5507},{""stimulus"":""run_exp/static/images/task_images/rocket-07.jpg"",""time"":6605},{""stimulus"":""run_exp/static/images/task_images/rocket-08.jpg"",""time"":7703},{""stimulus"":""run_exp/static/images/task_images/rocket-09.jpg"",""time"":8800}]",[],8,,,,,,,,,,,,,,
alien_welcome,177,568315,0.0-54.0-1.0,,null,run_exp/static/images/task_images/aliens/old_aliens/planet/alien_planet-78.jpg,null,,,,,,,,,,,,78,"28,44,49,20,8,38,13,64,78,70,27,5,40,18,74,71,39,47,61,23,36,17,59,72,1,11,68,7,16,31,77,55,37,21,4,25,48,2,67,51,3,66,35,52,12",,,,,,,,,,
land,178,568824,0.0-54.0-2.0,,null,run_exp/static/images/task_images/land.jpg,null,,,,,,103,,,9,,,,,,,,,,,,,,
dig,179,570876,0.0-54.0-3.0,,,,,,,,,,,"[{""stimulus"":""run_exp/static/images/task_images/dig.jpg"",""time"":0},{""stimulus"":""run_exp/static/images/task_images/land.jpg"",""time"":688},{""stimulus"":""run_exp/static/images/task_images/dig.jpg"",""time"":1368}]",[],9,,,,,,,,,,,,,,
harvest,180,571891,0.0-54.0-4.0,,null,run_exp/static/images/task_images/gems/103.jpg,null,,,,,,17,,,9,,,,,103,0.169077972,0.165048544,,,,,,,
decision,181,571974,0.0-54.0-5.0,,82,run_exp/static/images/task_images/land.jpg,65,,,,,,17,,,9,,,,,,,,251015,1,0,FALSE,,,
dig,182,574918,0.0-55.0-0.0,,,,,,,,,,,"[{""stimulus"":""run_exp/static/images/task_images/dig.jpg"",""time"":0},{""stimulus"":""run_exp/static/images/task_images/land.jpg"",""time"":990},{""stimulus"":""run_exp/static/images/task_images/dig.jpg"",""time"":1966}]",[],9,,,,,,,,,,,,,,
harvest,183,575934,0.0-55.0-1.0,,null,run_exp/static/images/task_images/gems/17.jpg,null,,,,,,3,,,9,,,,,17,0.162092695,0.176470588,,,,,,,
decision,184,575991,0.0-55.0-2.0,,56,run_exp/static/images/task_images/land.jpg,76,,,,,,3,,,9,,,,,,,,255032,1,1,TRUE,,,
travel,185,586010,0.0-56.0-0.0,,,,,,,,,,,"[{""stimulus"":""run_exp/static/images/task_images/rocket-01.jpg"",""time"":0},{""stimulus"":""run_exp/static/images/task_images/rocket-02.jpg"",""time"":1119},{""stimulus"":""run_exp/static/images/task_images/rocket-03.jpg"",""time"":2236},{""stimulus"":""run_exp/static/images/task_images/rocket-04.jpg"",""time"":3343},{""stimulus"":""run_exp/static/images/task_images/rocket-05.jpg"",""time"":4450},{""stimulus"":""run_exp/static/images/task_images/rocket-06.jpg"",""time"":5567},{""stimulus"":""run_exp/static/images/task_images/rocket-07.jpg"",""time"":6675},{""stimulus"":""run_exp/static/images/task_images/rocket-08.jpg"",""time"":7783},{""stimulus"":""run_exp/static/images/task_images/rocket-09.jpg"",""time"":8900}]",[],9,,,,,,,,,,,,,,
alien_welcome,186,591020,0.0-56.0-1.0,,null,run_exp/static/images/task_images/aliens/old_aliens/planet/alien_planet-70.jpg,null,,,,,,,,,,,,70,"28,44,49,20,8,38,13,64,78,70,27,5,40,18,74,71,39,47,61,23,36,17,59,72,1,11,68,7,16,31,77,55,37,21,4,25,48,2,67,51,3,66,35,52,12",,,,,,,,,,
land,187,591522,0.0-56.0-2.0,,null,run_exp/static/images/task_images/land.jpg,null,,,,,,99,,,10,,,,,,,,,,,,,,
dig,188,593550,0.0-56.0-3.0,,,,,,,,,,,"[{""stimulus"":""run_exp/static/images/task_images/dig.jpg"",""time"":0},{""stimulus"":""run_exp/static/images/task_images/land.jpg"",""time"":684},{""stimulus"":""run_exp/static/images/task_images/dig.jpg"",""time"":1355}]",[],10,,,,,,,,,,,,,,
harvest,189,594552,0.0-56.0-4.0,,null,run_exp/static/images/task_images/gems/99.jpg,null,,,,,,21,,,10,,,,,99,0.215324129,0.212121212,,,,,,,
decision,190,594738,0.0-56.0-5.0,,185,run_exp/static/images/task_images/land.jpg,65,,,,,,21,,,10,,,,,,,,273779,1,0,FALSE,,,
dig,191,597593,0.0-57.0-0.0,,,,,,,,,,,"[{""stimulus"":""run_exp/static/images/task_images/dig.jpg"",""time"":0},{""stimulus"":""run_exp/static/images/task_images/land.jpg"",""time"":942},{""stimulus"":""run_exp/static/images/task_images/dig.jpg"",""time"":1897}]",[],10,,,,,,,,,,,,,,
harvest,192,598598,0.0-57.0-1.0,,null,run_exp/static/images/task_images/gems/21.jpg,null,,,,,,5,,,10,,,,,21,0.253840718,0.238095238,,,,,,,
decision,193,598664,0.0-57.0-2.0,,65,run_exp/static/images/task_images/land.jpg,76,,,,,,5,,,10,,,,,,,,277705,1,1,TRUE,,,
travel,194,608686,0.0-58.0-0.0,,,,,,,,,,,"[{""stimulus"":""run_exp/static/images/task_images/rocket-01.jpg"",""time"":0},{""stimulus"":""run_exp/static/images/task_images/rocket-02.jpg"",""time"":1119},{""stimulus"":""run_exp/static/images/task_images/rocket-03.jpg"",""time"":2227},{""stimulus"":""run_exp/static/images/task_images/rocket-04.jpg"",""time"":3345},{""stimulus"":""run_exp/static/images/task_images/rocket-05.jpg"",""time"":4462},{""stimulus"":""run_exp/static/images/task_images/rocket-06.jpg"",""time"":5579},{""stimulus"":""run_exp/static/images/task_images/rocket-07.jpg"",""time"":6686},{""stimulus"":""run_exp/static/images/task_images/rocket-08.jpg"",""time"":7804},{""stimulus"":""run_exp/static/images/task_images/rocket-09.jpg"",""time"":8911}]",[],10,,,,,,,,,,,,,,
alien_welcome,195,613695,0.0-58.0-1.0,,null,run_exp/static/images/task_images/aliens/old_aliens/planet/alien_planet-27.jpg,null,,,,,,,,,,,,27,"28,44,49,20,8,38,13,64,78,70,27,5,40,18,74,71,39,47,61,23,36,17,59,72,1,11,68,7,16,31,77,55,37,21,4,25,48,2,67,51,3,66,35,52,12",,,,,,,,,,
land,196,614213,0.0-58.0-2.0,,null,run_exp/static/images/task_images/land.jpg,null,,,,,,95,,,11,,,,,,,,,,,,,,
dig,197,616234,0.0-58.0-3.0,,,,,,,,,,,"[{""stimulus"":""run_exp/static/images/task_images/dig.jpg"",""time"":0},{""stimulus"":""run_exp/static/images/task_images/land.jpg"",""time"":668},{""stimulus"":""run_exp/static/images/task_images/dig.jpg"",""time"":1348}]",[],11,,,,,,,,,,,,,,
harvest,198,617250,0.0-58.0-4.0,,null,run_exp/static/images/task_images/gems/95.jpg,null,,,,,,18,,,11,,,,,95,0.185028454,0.189473684,,,,,,,
decision,199,617355,0.0-58.0-5.0,,104,run_exp/static/images/task_images/land.jpg,65,,,,,,18,,,11,,,,,,,,296396,1,0,FALSE,,,
dig,200,620287,0.0-59.0-0.0,,,,,,,,,,,"[{""stimulus"":""run_exp/static/images/task_images/dig.jpg"",""time"":0},{""stimulus"":""run_exp/static/images/task_images/land.jpg"",""time"":968},{""stimulus"":""run_exp/static/images/task_images/dig.jpg"",""time"":1954}]",[],11,,,,,,,,,,,,,,
harvest,201,621304,0.0-59.0-1.0,,null,run_exp/static/images/task_images/gems/18.jpg,null,,,,,,3,,,11,,,,,18,0.188499932,0.166666667,,,,,,,
decision,202,621415,0.0-59.0-2.0,,111,run_exp/static/images/task_images/land.jpg,76,,,,,,3,,,11,,,,,,,,300456,1,1,TRUE,,,
end_of_block_continue,203,624677,0.0-60.0-0.0,,3261,run_exp/static/audio/clip_32_block_end.m4a,,,,,,0,,,,,,,,,,,,,,,,,,
alien_welcome,204,629684,0.0-61.0-0.0,,null,run_exp/static/images/task_images/aliens/old_aliens/planet/alien_planet-5.jpg,null,,,,,,,,,,,,5,"28,44,49,20,8,38,13,64,78,70,27,5,40,18,74,71,39,47,61,23,36,17,59,72,1,11,68,7,16,31,77,55,37,21,4,25,48,2,67,51,3,66,35,52,12",,,,,,,,,,
land,205,630192,0.0-61.0-1.0,,null,run_exp/static/images/task_images/land.jpg,null,,,,,,104,,,12,,,,,,,,,,,,,,
dig,206,632233,0.0-61.0-2.0,,,,,,,,,,,"[{""stimulus"":""run_exp/static/images/task_images/dig.jpg"",""time"":0},{""stimulus"":""run_exp/static/images/task_images/land.jpg"",""time"":682},{""stimulus"":""run_exp/static/images/task_images/dig.jpg"",""time"":1368}]",[],12,,,,,,,,,,,,,,
harvest,207,633240,0.0-61.0-3.0,,null,run_exp/static/images/task_images/gems/104.jpg,null,,,,,,22,,,12,,,,,104,0.215837692,0.211538462,,,,,,,
decision,208,633354,0.0-61.0-4.0,,113,run_exp/static/images/task_images/land.jpg,65,,,,,,22,,,12,,,,,,,,8676,2,0,FALSE,,,
dig,209,636268,0.0-62.0-0.0,,,,,,,,,,,"[{""stimulus"":""run_exp/static/images/task_images/dig.jpg"",""time"":0},{""stimulus"":""run_exp/static/images/task_images/land.jpg"",""time"":970},{""stimulus"":""run_exp/static/images/task_images/dig.jpg"",""time"":1945}]",[],12,,,,,,,,,,,,,,
harvest,210,637283,0.0-62.0-1.0,,null,run_exp/static/images/task_images/gems/22.jpg,null,,,,,,7,,,12,,,,,22,0.301079706,0.318181818,,,,,,,
decision,211,637439,0.0-62.0-2.0,,156,run_exp/static/images/task_images/land.jpg,76,,,,,,7,,,12,,,,,,,,12761,2,1,TRUE,,,
travel,212,647351,0.0-63.0-0.0,,,,,,,,,,,"[{""stimulus"":""run_exp/static/images/task_images/rocket-01.jpg"",""time"":0},{""stimulus"":""run_exp/static/images/task_images/rocket-02.jpg"",""time"":1109},{""stimulus"":""run_exp/static/images/task_images/rocket-03.jpg"",""time"":2207},{""stimulus"":""run_exp/static/images/task_images/rocket-04.jpg"",""time"":3313},{""stimulus"":""run_exp/static/images/task_images/rocket-05.jpg"",""time"":4411},{""stimulus"":""run_exp/static/images/task_images/rocket-06.jpg"",""time"":5508},{""stimulus"":""run_exp/static/images/task_images/rocket-07.jpg"",""time"":6615},{""stimulus"":""run_exp/static/images/task_images/rocket-08.jpg"",""time"":7713},{""stimulus"":""run_exp/static/images/task_images/rocket-09.jpg"",""time"":8810}]",[],12,,,,,,,,,,,,,,
alien_welcome,213,652358,0.0-63.0-1.0,,null,run_exp/static/images/task_images/aliens/old_aliens/planet/alien_planet-40.jpg,null,,,,,,,,,,,,40,"28,44,49,20,8,38,13,64,78,70,27,5,40,18,74,71,39,47,61,23,36,17,59,72,1,11,68,7,16,31,77,55,37,21,4,25,48,2,67,51,3,66,35,52,12",,,,,,,,,,
land,214,652867,0.0-63.0-2.0,,null,run_exp/static/images/task_images/land.jpg,null,,,,,,103,,,13,,,,,,,,,,,,,,
dig,215,654898,0.0-63.0-3.0,,,,,,,,,,,"[{""stimulus"":""run_exp/static/images/task_images/dig.jpg"",""time"":0},{""stimulus"":""run_exp/static/images/task_images/land.jpg"",""time"":677},{""stimulus"":""run_exp/static/images/task_images/dig.jpg"",""time"":1359}]",[],13,,,,,,,,,,,,,,
harvest,216,655903,0.0-63.0-4.0,,null,run_exp/static/images/task_images/gems/103.jpg,null,,,,,,16,,,13,,,,,103,0.152331399,0.155339806,,,,,,,
decision,217,656066,0.0-63.0-5.0,,163,run_exp/static/images/task_images/land.jpg,65,,,,,,16,,,13,,,,,,,,31388,2,0,FALSE,,,
dig,218,658952,0.0-64.0-0.0,,,,,,,,,,,"[{""stimulus"":""run_exp/static/images/task_images/dig.jpg"",""time"":0},{""stimulus"":""run_exp/static/images/task_images/land.jpg"",""time"":961},{""stimulus"":""run_exp/static/images/task_images/dig.jpg"",""time"":1922}]",[],13,,,,,,,,,,,,,,
harvest,219,659958,0.0-64.0-1.0,,null,run_exp/static/images/task_images/gems/16.jpg,null,,,,,,3,,,13,,,,,16,0.197735767,0.1875,,,,,,,
decision,220,659976,0.0-64.0-2.0,,19,run_exp/static/images/task_images/land.jpg,76,,,,,,3,,,13,,,,,,,,35298,2,1,TRUE,,,
travel,221,670056,0.0-65.0-0.0,,,,,,,,,,,"[{""stimulus"":""run_exp/static/images/task_images/rocket-01.jpg"",""time"":0},{""stimulus"":""run_exp/static/images/task_images/rocket-02.jpg"",""time"":1115},{""stimulus"":""run_exp/static/images/task_images/rocket-03.jpg"",""time"":2243},{""stimulus"":""run_exp/static/images/task_images/rocket-04.jpg"",""time"":3360},{""stimulus"":""run_exp/static/images/task_images/rocket-05.jpg"",""time"":4478},{""stimulus"":""run_exp/static/images/task_images/rocket-06.jpg"",""time"":5595},{""stimulus"":""run_exp/static/images/task_images/rocket-07.jpg"",""time"":6722},{""stimulus"":""run_exp/static/images/task_images/rocket-08.jpg"",""time"":7841},{""stimulus"":""run_exp/static/images/task_images/rocket-09.jpg"",""time"":8958}]",[],13,,,,,,,,,,,,,,
alien_welcome,222,675064,0.0-65.0-1.0,,null,run_exp/static/images/task_images/aliens/old_aliens/planet/alien_planet-18.jpg,null,,,,,,,,,,,,18,"28,44,49,20,8,38,13,64,78,70,27,5,40,18,74,71,39,47,61,23,36,17,59,72,1,11,68,7,16,31,77,55,37,21,4,25,48,2,67,51,3,66,35,52,12",,,,,,,,,,
land,223,675572,0.0-65.0-2.0,,null,run_exp/static/images/task_images/land.jpg,null,,,,,,95,,,14,,,,,,,,,,,,,,
dig,224,677623,0.0-65.0-3.0,,,,,,,,,,,"[{""stimulus"":""run_exp/static/images/task_images/dig.jpg"",""time"":0},{""stimulus"":""run_exp/static/images/task_images/land.jpg"",""time"":687},{""stimulus"":""run_exp/static/images/task_images/dig.jpg"",""time"":1369}]",[],14,,,,,,,,,,,,,,
harvest,225,678639,0.0-65.0-4.0,,null,run_exp/static/images/task_images/gems/95.jpg,null,,,,,,11,,,14,,,,,95,0.113752427,0.115789474,,,,,,,
decision,226,678794,0.0-65.0-5.0,,154,run_exp/static/images/task_images/land.jpg,65,,,,,,11,,,14,,,,,,,,54116,2,0,FALSE,,,
dig,227,681666,0.0-66.0-0.0,,,,,,,,,,,"[{""stimulus"":""run_exp/static/images/task_images/dig.jpg"",""time"":1},{""stimulus"":""run_exp/static/images/task_images/land.jpg"",""time"":959},{""stimulus"":""run_exp/static/images/task_images/dig.jpg"",""time"":1914}]",[],14,,,,,,,,,,,,,,
harvest,228,682683,0.0-66.0-1.0,,null,run_exp/static/images/task_images/gems/11.jpg,null,,,,,,2,,,14,,,,,11,0.149971419,0.181818182,,,,,,,
decision,229,682787,0.0-66.0-2.0,,104,run_exp/static/images/task_images/land.jpg,76,,,,,,2,,,14,,,,,,,,58109,2,1,TRUE,,,
travel,230,692811,0.0-67.0-0.0,,,,,,,,,,,"[{""stimulus"":""run_exp/static/images/task_images/rocket-01.jpg"",""time"":0},{""stimulus"":""run_exp/static/images/task_images/rocket-02.jpg"",""time"":1099},{""stimulus"":""run_exp/static/images/task_images/rocket-03.jpg"",""time"":2207},{""stimulus"":""run_exp/static/images/task_images/rocket-04.jpg"",""time"":3326},{""stimulus"":""run_exp/static/images/task_images/rocket-05.jpg"",""time"":4442},{""stimulus"":""run_exp/static/images/task_images/rocket-06.jpg"",""time"":5560},{""stimulus"":""run_exp/static/images/task_images/rocket-07.jpg"",""time"":6677},{""stimulus"":""run_exp/static/images/task_images/rocket-08.jpg"",""time"":7794},{""stimulus"":""run_exp/static/images/task_images/rocket-09.jpg"",""time"":8912}]",[],14,,,,,,,,,,,,,,
alien_welcome,231,697819,0.0-67.0-1.0,,null,run_exp/static/images/task_images/aliens/old_aliens/planet/alien_planet-74.jpg,null,,,,,,,,,,,,74,"28,44,49,20,8,38,13,64,78,70,27,5,40,18,74,71,39,47,61,23,36,17,59,72,1,11,68,7,16,31,77,55,37,21,4,25,48,2,67,51,3,66,35,52,12",,,,,,,,,,
land,232,698327,0.0-67.0-2.0,,null,run_exp/static/images/task_images/land.jpg,null,,,,,,107,,,15,,,,,,,,,,,,,,
dig,233,700348,0.0-67.0-3.0,,,,,,,,,,,"[{""stimulus"":""run_exp/static/images/task_images/dig.jpg"",""time"":0},{""stimulus"":""run_exp/static/images/task_images/land.jpg"",""time"":669},{""stimulus"":""run_exp/static/images/task_images/dig.jpg"",""time"":1339}]",[],15,,,,,,,,,,,,,,
harvest,234,701364,0.0-67.0-4.0,,null,run_exp/static/images/task_images/gems/107.jpg,null,,,,,,73,,,15,,,,,107,0.681634765,0.682242991,,,,,,,
decision,235,701414,0.0-67.0-5.0,,49,run_exp/static/images/task_images/land.jpg,65,,,,,,73,,,15,,,,,,,,76736,2,0,FALSE,,,
dig,236,704412,0.0-68.0-0.0,,,,,,,,,,,"[{""stimulus"":""run_exp/static/images/task_images/dig.jpg"",""time"":0},{""stimulus"":""run_exp/static/images/task_images/land.jpg"",""time"":1004},{""stimulus"":""run_exp/static/images/task_images/dig.jpg"",""time"":1999}]",[],15,,,,,,,,,,,,,,
harvest,237,705427,0.0-68.0-1.0,,null,run_exp/static/images/task_images/gems/73.jpg,null,,,,,,62,,,15,,,,,73,0.843842624,0.849315068,,,,,,,
decision,238,705545,0.0-68.0-2.0,,117,run_exp/static/images/task_images/land.jpg,65,,,,,,62,,,15,,,,,,,,80867,2,1,FALSE,,,
dig,239,708475,0.0-69.0-0.0,,,,,,,,,,,"[{""stimulus"":""run_exp/static/images/task_images/dig.jpg"",""time"":0},{""stimulus"":""run_exp/static/images/task_images/land.jpg"",""time"":975},{""stimulus"":""run_exp/static/images/task_images/dig.jpg"",""time"":1951}]",[],15,,,,,,,,,,,,,,
harvest,240,709490,0.0-69.0-1.0,,null,run_exp/static/images/task_images/gems/62.jpg,null,,,,,,52,,,15,,,,,62,0.843509665,0.838709677,,,,,,,
decision,241,709661,0.0-69.0-2.0,,169,run_exp/static/images/task_images/land.jpg,65,,,,,,52,,,15,,,,,,,,84983,2,2,FALSE,,,
dig,242,712519,0.0-70.0-0.0,,,,,,,,,,,"[{""stimulus"":""run_exp/static/images/task_images/dig.jpg"",""time"":1},{""stimulus"":""run_exp/static/images/task_images/land.jpg"",""time"":955},{""stimulus"":""run_exp/static/images/task_images/dig.jpg"",""time"":1910}]",[],15,,,,,,,,,,,,,,
harvest,243,713524,0.0-70.0-1.0,,null,run_exp/static/images/task_images/gems/52.jpg,null,,,,,,43,,,15,,,,,52,0.818160714,0.826923077,,,,,,,
decision,244,713525,0.0-70.0-2.0,,1,run_exp/static/images/task_images/land.jpg,65,,,,,,43,,,15,,,,,,,,88847,2,3,FALSE,,,
dig,245,716559,0.0-71.0-0.0,,,,,,,,,,,"[{""stimulus"":""run_exp/static/images/task_images/dig.jpg"",""time"":0},{""stimulus"":""run_exp/static/images/task_images/land.jpg"",""time"":1011},{""stimulus"":""run_exp/static/images/task_images/dig.jpg"",""time"":2017}]",[],15,,,,,,,,,,,,,,
harvest,246,717578,0.0-71.0-1.0,,null,run_exp/static/images/task_images/gems/43.jpg,null,,,,,,37,,,15,,,,,43,0.855932609,0.860465116,,,,,,,
decision,247,717681,0.0-71.0-2.0,,103,run_exp/static/images/task_images/land.jpg,65,,,,,,37,,,15,,,,,,,,93003,2,4,FALSE,,,
dig,248,720616,0.0-72.0-0.0,,,,,,,,,,,"[{""stimulus"":""run_exp/static/images/task_images/dig.jpg"",""time"":0},{""stimulus"":""run_exp/static/images/task_images/land.jpg"",""time"":980},{""stimulus"":""run_exp/static/images/task_images/dig.jpg"",""time"":1955}]",[],15,,,,,,,,,,,,,,
harvest,249,721632,0.0-72.0-1.0,,null,run_exp/static/images/task_images/gems/37.jpg,null,,,,,,31,,,15,,,,,37,0.826371314,0.837837838,,,,,,,
decision,250,721666,0.0-72.0-2.0,,34,run_exp/static/images/task_images/land.jpg,76,,,,,,31,,,15,,,,,,,,96988,2,5,TRUE,,,
travel,251,731689,0.0-73.0-0.0,,,,,,,,,,,"[{""stimulus"":""run_exp/static/images/task_images/rocket-01.jpg"",""time"":0},{""stimulus"":""run_exp/static/images/task_images/rocket-02.jpg"",""time"":1109},{""stimulus"":""run_exp/static/images/task_images/rocket-03.jpg"",""time"":2226},{""stimulus"":""run_exp/static/images/task_images/rocket-04.jpg"",""time"":3344},{""stimulus"":""run_exp/static/images/task_images/rocket-05.jpg"",""time"":4461},{""stimulus"":""run_exp/static/images/task_images/rocket-06.jpg"",""time"":5569},{""stimulus"":""run_exp/static/images/task_images/rocket-07.jpg"",""time"":6687},{""stimulus"":""run_exp/static/images/task_images/rocket-08.jpg"",""time"":7805},{""stimulus"":""run_exp/static/images/task_images/rocket-09.jpg"",""time"":8912}]",[],15,,,,,,,,,,,,,,
alien_welcome,252,736697,0.0-73.0-1.0,,null,run_exp/static/images/task_images/aliens/old_aliens/planet/alien_planet-71.jpg,null,,,,,,,,,,,,71,"28,44,49,20,8,38,13,64,78,70,27,5,40,18,74,71,39,47,61,23,36,17,59,72,1,11,68,7,16,31,77,55,37,21,4,25,48,2,67,51,3,66,35,52,12",,,,,,,,,,
land,253,737204,0.0-73.0-2.0,,null,run_exp/static/images/task_images/land.jpg,null,,,,,,96,,,16,,,,,,,,,,,,,,
dig,254,739237,0.0-73.0-3.0,,,,,,,,,,,"[{""stimulus"":""run_exp/static/images/task_images/dig.jpg"",""time"":0},{""stimulus"":""run_exp/static/images/task_images/land.jpg"",""time"":668},{""stimulus"":""run_exp/static/images/task_images/dig.jpg"",""time"":1358}]",[],16,,,,,,,,,,,,,,
harvest,255,740242,0.0-73.0-4.0,,null,run_exp/static/images/task_images/gems/96.jpg,null,,,,,,82,,,16,,,,,96,0.858321639,0.854166667,,,,,,,
decision,256,740373,0.0-73.0-5.0,,131,run_exp/static/images/task_images/land.jpg,65,,,,,,82,,,16,,,,,,,,115695,2,0,FALSE,,,
dig,257,743269,0.0-74.0-0.0,,,,,,,,,,,"[{""stimulus"":""run_exp/static/images/task_images/dig.jpg"",""time"":0},{""stimulus"":""run_exp/static/images/task_images/land.jpg"",""time"":961},{""stimulus"":""run_exp/static/images/task_images/dig.jpg"",""time"":1926}]",[],16,,,,,,,,,,,,,,
harvest,258,744285,0.0-74.0-1.0,,null,run_exp/static/images/task_images/gems/82.jpg,null,,,,,,70,,,16,,,,,82,0.852227683,0.853658537,,,,,,,
decision,259,744406,0.0-74.0-2.0,,121,run_exp/static/images/task_images/land.jpg,65,,,,,,70,,,16,,,,,,,,119728,2,1,FALSE,,,
dig,260,747322,0.0-75.0-0.0,,,,,,,,,,,"[{""stimulus"":""run_exp/static/images/task_images/dig.jpg"",""time"":0},{""stimulus"":""run_exp/static/images/task_images/land.jpg"",""time"":972},{""stimulus"":""run_exp/static/images/task_images/dig.jpg"",""time"":1937}]",[],16,,,,,,,,,,,,,,
harvest,261,748339,0.0-75.0-1.0,,null,run_exp/static/images/task_images/gems/70.jpg,null,,,,,,59,,,16,,,,,70,0.847588741,0.842857143,,,,,,,
decision,262,748367,0.0-75.0-2.0,,29,run_exp/static/images/task_images/land.jpg,65,,,,,,59,,,16,,,,,,,,123689,2,2,FALSE,,,
dig,263,751375,0.0-76.0-0.0,,,,,,,,,,,"[{""stimulus"":""run_exp/static/images/task_images/dig.jpg"",""time"":0},{""stimulus"":""run_exp/static/images/task_images/land.jpg"",""time"":1003},{""stimulus"":""run_exp/static/images/task_images/dig.jpg"",""time"":1998}]",[],16,,,,,,,,,,,,,,
harvest,264,752381,0.0-76.0-1.0,,null,run_exp/static/images/task_images/gems/59.jpg,null,,,,,,47,,,16,,,,,59,0.803275339,0.796610169,,,,,,,
decision,265,752567,0.0-76.0-2.0,,184,run_exp/static/images/task_images/land.jpg,65,,,,,,47,,,16,,,,,,,,127889,2,3,FALSE,,,
dig,266,755419,0.0-77.0-0.0,,,,,,,,,,,"[{""stimulus"":""run_exp/static/images/task_images/dig.jpg"",""time"":0},{""stimulus"":""run_exp/static/images/task_images/land.jpg"",""time"":948},{""stimulus"":""run_exp/static/images/task_images/dig.jpg"",""time"":1902}]",[],16,,,,,,,,,,,,,,
harvest,267,756425,0.0-77.0-1.0,,null,run_exp/static/images/task_images/gems/47.jpg,null,,,,,,39,,,16,,,,,47,0.821893879,0.829787234,,,,,,,
decision,268,756677,0.0-77.0-2.0,,254,run_exp/static/images/task_images/land.jpg,65,,,,,,39,,,16,,,,,,,,131999,2,4,FALSE,,,
dig,269,759463,0.0-78.0-0.0,,,,,,,,,,,"[{""stimulus"":""run_exp/static/images/task_images/dig.jpg"",""time"":0},{""stimulus"":""run_exp/static/images/task_images/land.jpg"",""time"":930},{""stimulus"":""run_exp/static/images/task_images/dig.jpg"",""time"":1846}]",[],16,,,,,,,,,,,,,,
harvest,270,760478,0.0-78.0-1.0,,null,run_exp/static/images/task_images/gems/39.jpg,null,,,,,,30,,,16,,,,,39,0.761902687,0.769230769,,,,,,,
decision,271,760664,0.0-78.0-2.0,,185,run_exp/static/images/task_images/land.jpg,76,,,,,,30,,,16,,,,,,,,135986,2,5,TRUE,,,
travel,272,770566,0.0-79.0-0.0,,,,,,,,,,,"[{""stimulus"":""run_exp/static/images/task_images/rocket-01.jpg"",""time"":1},{""stimulus"":""run_exp/static/images/task_images/rocket-02.jpg"",""time"":1091},{""stimulus"":""run_exp/static/images/task_images/rocket-03.jpg"",""time"":2187},{""stimulus"":""run_exp/static/images/task_images/rocket-04.jpg"",""time"":3285},{""stimulus"":""run_exp/static/images/task_images/rocket-05.jpg"",""time"":4393},{""stimulus"":""run_exp/static/images/task_images/rocket-06.jpg"",""time"":5490},{""stimulus"":""run_exp/static/images/task_images/rocket-07.jpg"",""time"":6597},{""stimulus"":""run_exp/static/images/task_images/rocket-08.jpg"",""time"":7693},{""stimulus"":""run_exp/static/images/task_images/rocket-09.jpg"",""time"":8792}]",[],16,,,,,,,,,,,,,,
alien_welcome,273,775574,0.0-79.0-1.0,,null,run_exp/static/images/task_images/aliens/old_aliens/planet/alien_planet-39.jpg,null,,,,,,,,,,,,39,"28,44,49,20,8,38,13,64,78,70,27,5,40,18,74,71,39,47,61,23,36,17,59,72,1,11,68,7,16,31,77,55,37,21,4,25,48,2,67,51,3,66,35,52,12",,,,,,,,,,
land,274,776083,0.0-79.0-2.0,,null,run_exp/static/images/task_images/land.jpg,null,,,,,,111,,,17,,,,,,,,,,,,,,
dig,275,778114,0.0-79.0-3.0,,,,,,,,,,,"[{""stimulus"":""run_exp/static/images/task_images/dig.jpg"",""time"":1},{""stimulus"":""run_exp/static/images/task_images/land.jpg"",""time"":687},{""stimulus"":""run_exp/static/images/task_images/dig.jpg"",""time"":1358}]",[],17,,,,,,,,,,,,,,
harvest,276,779129,0.0-79.0-4.0,,null,run_exp/static/images/task_images/gems/111.jpg,null,,,,,,85,,,17,,,,,111,0.769106487,0.765765766,,,,,,,
decision,277,779149,0.0-79.0-5.0,,20,run_exp/static/images/task_images/land.jpg,65,,,,,,85,,,17,,,,,,,,154471,2,0,FALSE,,,
dig,278,782167,0.0-80.0-0.0,,,,,,,,,,,"[{""stimulus"":""run_exp/static/images/task_images/dig.jpg"",""time"":0},{""stimulus"":""run_exp/static/images/task_images/land.jpg"",""time"":1012},{""stimulus"":""run_exp/static/images/task_images/dig.jpg"",""time"":2008}]",[],17,,,,,,,,,,,,,,
harvest,279,783183,0.0-80.0-1.0,,null,run_exp/static/images/task_images/gems/85.jpg,null,,,,,,70,,,17,,,,,85,0.822612939,0.823529412,,,,,,,
decision,280,783373,0.0-80.0-2.0,,190,run_exp/static/images/task_images/land.jpg,65,,,,,,70,,,17,,,,,,,,158695,2,1,FALSE,,,
dig,281,786230,0.0-81.0-0.0,,,,,,,,,,,"[{""stimulus"":""run_exp/static/images/task_images/dig.jpg"",""time"":0},{""stimulus"":""run_exp/static/images/task_images/land.jpg"",""time"":954},{""stimulus"":""run_exp/static/images/task_images/dig.jpg"",""time"":1898}]",[],17,,,,,,,,,,,,,,
harvest,282,787246,0.0-81.0-1.0,,null,run_exp/static/images/task_images/gems/70.jpg,null,,,,,,55,,,17,,,,,70,0.792785639,0.785714286,,,,,,,
decision,283,787274,0.0-81.0-2.0,,27,run_exp/static/images/task_images/land.jpg,65,,,,,,55,,,17,,,,,,,,162596,2,2,FALSE,,,
dig,284,790293,0.0-82.0-0.0,,,,,,,,,,,"[{""stimulus"":""run_exp/static/images/task_images/dig.jpg"",""time"":0},{""stimulus"":""run_exp/static/images/task_images/land.jpg"",""time"":1005},{""stimulus"":""run_exp/static/images/task_images/dig.jpg"",""time"":2011}]",[],17,,,,,,,,,,,,,,
harvest,285,791309,0.0-82.0-1.0,,null,run_exp/static/images/task_images/gems/55.jpg,null,,,,,,44,,,17,,,,,55,0.797202573,0.8,,,,,,,
decision,286,791437,0.0-82.0-2.0,,128,run_exp/static/images/task_images/land.jpg,65,,,,,,44,,,17,,,,,,,,166759,2,3,FALSE,,,
dig,287,794357,0.0-83.0-0.0,,,,,,,,,,,"[{""stimulus"":""run_exp/static/images/task_images/dig.jpg"",""time"":0},{""stimulus"":""run_exp/static/images/task_images/land.jpg"",""time"":966},{""stimulus"":""run_exp/static/images/task_images/dig.jpg"",""time"":1942}]",[],17,,,,,,,,,,,,,,
harvest,288,795363,0.0-83.0-1.0,,null,run_exp/static/images/task_images/gems/44.jpg,null,,,,,,32,,,17,,,,,44,0.733232759,0.727272727,,,,,,,
decision,289,795437,0.0-83.0-2.0,,74,run_exp/static/images/task_images/land.jpg,76,,,,,,32,,,17,,,,,,,,170759,2,4,TRUE,,,
travel,290,805471,0.0-84.0-0.0,,,,,,,,,,,"[{""stimulus"":""run_exp/static/images/task_images/rocket-01.jpg"",""time"":0},{""stimulus"":""run_exp/static/images/task_images/rocket-02.jpg"",""time"":1110},{""stimulus"":""run_exp/static/images/task_images/rocket-03.jpg"",""time"":2227},{""stimulus"":""run_exp/static/images/task_images/rocket-04.jpg"",""time"":3346},{""stimulus"":""run_exp/static/images/task_images/rocket-05.jpg"",""time"":4462},{""stimulus"":""run_exp/static/images/task_images/rocket-06.jpg"",""time"":5570},{""stimulus"":""run_exp/static/images/task_images/rocket-07.jpg"",""time"":6687},{""stimulus"":""run_exp/static/images/task_images/rocket-08.jpg"",""time"":7804},{""stimulus"":""run_exp/static/images/task_images/rocket-09.jpg"",""time"":8912}]",[],17,,,,,,,,,,,,,,
alien_welcome,291,810489,0.0-84.0-1.0,,null,run_exp/static/images/task_images/aliens/old_aliens/planet/alien_planet-47.jpg,null,,,,,,,,,,,,47,"28,44,49,20,8,38,13,64,78,70,27,5,40,18,74,71,39,47,61,23,36,17,59,72,1,11,68,7,16,31,77,55,37,21,4,25,48,2,67,51,3,66,35,52,12",,,,,,,,,,
land,292,810998,0.0-84.0-2.0,,null,run_exp/static/images/task_images/land.jpg,null,,,,,,111,,,18,,,,,,,,,,,,,,
dig,293,813029,0.0-84.0-3.0,,,,,,,,,,,"[{""stimulus"":""run_exp/static/images/task_images/dig.jpg"",""time"":0},{""stimulus"":""run_exp/static/images/task_images/land.jpg"",""time"":668},{""stimulus"":""run_exp/static/images/task_images/dig.jpg"",""time"":1349}]",[],18,,,,,,,,,,,,,,
harvest,294,814045,0.0-84.0-4.0,,null,run_exp/static/images/task_images/gems/111.jpg,null,,,,,,79,,,18,,,,,111,0.708878975,0.711711712,,,,,,,
decision,295,814055,0.0-84.0-5.0,,10,run_exp/static/images/task_images/land.jpg,65,,,,,,79,,,18,,,,,,,,189377,2,0,FALSE,,,
dig,296,817093,0.0-85.0-0.0,,,,,,,,,,,"[{""stimulus"":""run_exp/static/images/task_images/dig.jpg"",""time"":0},{""stimulus"":""run_exp/static/images/task_images/land.jpg"",""time"":1002},{""stimulus"":""run_exp/static/images/task_images/dig.jpg"",""time"":2018}]",[],18,,,,,,,,,,,,,,
harvest,297,818095,0.0-85.0-1.0,,null,run_exp/static/images/task_images/gems/79.jpg,null,,,,,,64,,,18,,,,,79,0.80975905,0.810126582,,,,,,,
decision,298,818190,0.0-85.0-2.0,,95,run_exp/static/images/task_images/land.jpg,65,,,,,,64,,,18,,,,,,,,193512,2,1,FALSE,,,
dig,299,821146,0.0-86.0-0.0,,,,,,,,,,,"[{""stimulus"":""run_exp/static/images/task_images/dig.jpg"",""time"":0},{""stimulus"":""run_exp/static/images/task_images/land.jpg"",""time"":981},{""stimulus"":""run_exp/static/images/task_images/dig.jpg"",""time"":1966}]",[],18,,,,,,,,,,,,,,
harvest,300,822153,0.0-86.0-1.0,,null,run_exp/static/images/task_images/gems/64.jpg,null,,,,,,57,,,18,,,,,64,0.897934119,0.890625,,,,,,,
decision,301,822306,0.0-86.0-2.0,,153,run_exp/static/images/task_images/land.jpg,65,,,,,,57,,,18,,,,,,,,197628,2,2,FALSE,,,
dig,302,825200,0.0-87.0-0.0,,,,,,,,,,,"[{""stimulus"":""run_exp/static/images/task_images/dig.jpg"",""time"":0},{""stimulus"":""run_exp/static/images/task_images/land.jpg"",""time"":969},{""stimulus"":""run_exp/static/images/task_images/dig.jpg"",""time"":1924}]",[],18,,,,,,,,,,,,,,
harvest,303,826204,0.0-87.0-1.0,,null,run_exp/static/images/task_images/gems/57.jpg,null,,,,,,46,,,18,,,,,57,0.811077063,0.807017544,,,,,,,
decision,304,826334,0.0-87.0-2.0,,129,run_exp/static/images/task_images/land.jpg,65,,,,,,46,,,18,,,,,,,,201656,2,3,FALSE,,,
dig,305,829232,0.0-88.0-0.0,,,,,,,,,,,"[{""stimulus"":""run_exp/static/images/task_images/dig.jpg"",""time"":0},{""stimulus"":""run_exp/static/images/task_images/land.jpg"",""time"":963},{""stimulus"":""run_exp/static/images/task_images/dig.jpg"",""time"":1929}]",[],18,,,,,,,,,,,,,,
harvest,306,830239,0.0-88.0-1.0,,null,run_exp/static/images/task_images/gems/46.jpg,null,,,,,,38,,,18,,,,,46,0.82683169,0.826086957,,,,,,,
decision,307,830341,0.0-88.0-2.0,,102,run_exp/static/images/task_images/land.jpg,76,,,,,,38,,,18,,,,,,,,205664,2,4,TRUE,,,
travel,308,840356,0.0-89.0-0.0,,,,,,,,,,,"[{""stimulus"":""run_exp/static/images/task_images/rocket-01.jpg"",""time"":0},{""stimulus"":""run_exp/static/images/task_images/rocket-02.jpg"",""time"":1101},{""stimulus"":""run_exp/static/images/task_images/rocket-03.jpg"",""time"":2219},{""stimulus"":""run_exp/static/images/task_images/rocket-04.jpg"",""time"":3333},{""stimulus"":""run_exp/static/images/task_images/rocket-05.jpg"",""time"":4443},{""stimulus"":""run_exp/static/images/task_images/rocket-06.jpg"",""time"":5561},{""stimulus"":""run_exp/static/images/task_images/rocket-07.jpg"",""time"":6679},{""stimulus"":""run_exp/static/images/task_images/rocket-08.jpg"",""time"":7786},{""stimulus"":""run_exp/static/images/task_images/rocket-09.jpg"",""time"":8904}]",[],18,,,,,,,,,,,,,,
alien_welcome,309,845364,0.0-89.0-1.0,,null,run_exp/static/images/task_images/aliens/old_aliens/planet/alien_planet-61.jpg,null,,,,,,,,,,,,61,"28,44,49,20,8,38,13,64,78,70,27,5,40,18,74,71,39,47,61,23,36,17,59,72,1,11,68,7,16,31,77,55,37,21,4,25,48,2,67,51,3,66,35,52,12",,,,,,,,,,
land,310,845883,0.0-89.0-2.0,,null,run_exp/static/images/task_images/land.jpg,null,,,,,,105,,,19,,,,,,,,,,,,,,
dig,311,847925,0.0-89.0-3.0,,,,,,,,,,,"[{""stimulus"":""run_exp/static/images/task_images/dig.jpg"",""time"":0},{""stimulus"":""run_exp/static/images/task_images/land.jpg"",""time"":687},{""stimulus"":""run_exp/static/images/task_images/dig.jpg"",""time"":1357}]",[],19,,,,,,,,,,,,,,
harvest,312,848941,0.0-89.0-4.0,,null,run_exp/static/images/task_images/gems/105.jpg,null,,,,,,88,,,19,,,,,105,0.833500084,0.838095238,,,,,,,
decision,313,849126,0.0-89.0-5.0,,185,run_exp/static/images/task_images/land.jpg,65,,,,,,88,,,19,,,,,,,,224449,2,0,FALSE,,,
dig,314,851978,0.0-90.0-0.0,,,,,,,,,,,"[{""stimulus"":""run_exp/static/images/task_images/dig.jpg"",""time"":0},{""stimulus"":""run_exp/static/images/task_images/land.jpg"",""time"":948},{""stimulus"":""run_exp/static/images/task_images/dig.jpg"",""time"":1891}]",[],19,,,,,,,,,,,,,,
harvest,315,852983,0.0-90.0-1.0,,null,run_exp/static/images/task_images/gems/88.jpg,null,,,,,,70,,,19,,,,,88,0.797737435,0.795454545,,,,,,,
decision,316,853148,0.0-90.0-2.0,,164,run_exp/static/images/task_images/land.jpg,65,,,,,,70,,,19,,,,,,,,228470,2,1,FALSE,,,
dig,317,856021,0.0-91.0-0.0,,,,,,,,,,,"[{""stimulus"":""run_exp/static/images/task_images/dig.jpg"",""time"":0},{""stimulus"":""run_exp/static/images/task_images/land.jpg"",""time"":959},{""stimulus"":""run_exp/static/images/task_images/dig.jpg"",""time"":1913}]",[],19,,,,,,,,,,,,,,
harvest,318,857036,0.0-91.0-1.0,,null,run_exp/static/images/task_images/gems/70.jpg,null,,,,,,62,,,19,,,,,70,0.884797983,0.885714286,,,,,,,
decision,319,857081,0.0-91.0-2.0,,43,run_exp/static/images/task_images/land.jpg,65,,,,,,62,,,19,,,,,,,,232403,2,2,FALSE,,,
dig,320,860044,0.0-92.0-0.0,,,,,,,,,,,"[{""stimulus"":""run_exp/static/images/task_images/dig.jpg"",""time"":0},{""stimulus"":""run_exp/static/images/task_images/land.jpg"",""time"":989},{""stimulus"":""run_exp/static/images/task_images/dig.jpg"",""time"":1974}]",[],19,,,,,,,,,,,,,,
harvest,321,861049,0.0-92.0-1.0,,null,run_exp/static/images/task_images/gems/62.jpg,null,,,,,,53,,,19,,,,,62,0.857490616,0.85483871,,,,,,,
decision,322,861157,0.0-92.0-2.0,,108,run_exp/static/images/task_images/land.jpg,65,,,,,,53,,,19,,,,,,,,236479,2,3,FALSE,,,
dig,323,864077,0.0-93.0-0.0,,,,,,,,,,,"[{""stimulus"":""run_exp/static/images/task_images/dig.jpg"",""time"":0},{""stimulus"":""run_exp/static/images/task_images/land.jpg"",""time"":976},{""stimulus"":""run_exp/static/images/task_images/dig.jpg"",""time"":1941}]",[],19,,,,,,,,,,,,,,
harvest,324,865083,0.0-93.0-1.0,,null,run_exp/static/images/task_images/gems/53.jpg,null,,,,,,47,,,19,,,,,53,0.895268134,0.886792453,,,,,,,
decision,325,865482,0.0-93.0-2.0,,399,run_exp/static/images/task_images/land.jpg,65,,,,,,47,,,19,,,,,,,,240804,2,4,FALSE,,,
dig,326,868129,0.0-94.0-0.0,,,,,,,,,,,"[{""stimulus"":""run_exp/static/images/task_images/dig.jpg"",""time"":0},{""stimulus"":""run_exp/static/images/task_images/land.jpg"",""time"":887},{""stimulus"":""run_exp/static/images/task_images/dig.jpg"",""time"":1770}]",[],19,,,,,,,,,,,,,,
harvest,327,869147,0.0-94.0-1.0,,null,run_exp/static/images/task_images/gems/47.jpg,null,,,,,,38,,,19,,,,,47,0.818289571,0.808510638,,,,,,,
decision,328,869237,0.0-94.0-2.0,,89,run_exp/static/images/task_images/land.jpg,76,,,,,,38,,,19,,,,,,,,244559,2,5,TRUE,,,
travel,329,879254,0.0-95.0-0.0,,,,,,,,,,,"[{""stimulus"":""run_exp/static/images/task_images/rocket-01.jpg"",""time"":0},{""stimulus"":""run_exp/static/images/task_images/rocket-02.jpg"",""time"":1105},{""stimulus"":""run_exp/static/images/task_images/rocket-03.jpg"",""time"":2211},{""stimulus"":""run_exp/static/images/task_images/rocket-04.jpg"",""time"":3329},{""stimulus"":""run_exp/static/images/task_images/rocket-05.jpg"",""time"":4447},{""stimulus"":""run_exp/static/images/task_images/rocket-06.jpg"",""time"":5554},{""stimulus"":""run_exp/static/images/task_images/rocket-07.jpg"",""time"":6672},{""stimulus"":""run_exp/static/images/task_images/rocket-08.jpg"",""time"":7789},{""stimulus"":""run_exp/static/images/task_images/rocket-09.jpg"",""time"":8906}]",[],19,,,,,,,,,,,,,,
alien_welcome,330,884262,0.0-95.0-1.0,,null,run_exp/static/images/task_images/aliens/old_aliens/planet/alien_planet-23.jpg,null,,,,,,,,,,,,23,"28,44,49,20,8,38,13,64,78,70,27,5,40,18,74,71,39,47,61,23,36,17,59,72,1,11,68,7,16,31,77,55,37,21,4,25,48,2,67,51,3,66,35,52,12",,,,,,,,,,
land,331,884770,0.0-95.0-2.0,,null,run_exp/static/images/task_images/land.jpg,null,,,,,,97,,,20,,,,,,,,,,,,,,
dig,332,886781,0.0-95.0-3.0,,,,,,,,,,,"[{""stimulus"":""run_exp/static/images/task_images/dig.jpg"",""time"":0},{""stimulus"":""run_exp/static/images/task_images/land.jpg"",""time"":667},{""stimulus"":""run_exp/static/images/task_images/dig.jpg"",""time"":1337}]",[],20,,,,,,,,,,,,,,
harvest,333,887797,0.0-95.0-4.0,,null,run_exp/static/images/task_images/gems/97.jpg,null,,,,,,51,,,20,,,,,97,0.525013037,0.525773196,,,,,,,
decision,334,887869,0.0-95.0-5.0,,72,run_exp/static/images/task_images/land.jpg,65,,,,,,51,,,20,,,,,,,,263191,2,0,FALSE,,,
dig,335,890835,0.0-96.0-0.0,,,,,,,,,,,"[{""stimulus"":""run_exp/static/images/task_images/dig.jpg"",""time"":0},{""stimulus"":""run_exp/static/images/task_images/land.jpg"",""time"":981},{""stimulus"":""run_exp/static/images/task_images/dig.jpg"",""time"":1966}]",[],20,,,,,,,,,,,,,,
harvest,336,891851,0.0-96.0-1.0,,null,run_exp/static/images/task_images/gems/51.jpg,null,,,,,,25,,,20,,,,,51,0.48857221,0.490196078,,,,,,,
decision,337,892224,0.0-96.0-2.0,,374,run_exp/static/images/task_images/land.jpg,76,,,,,,25,,,20,,,,,,,,267546,2,1,TRUE,,,
travel,338,901938,0.0-97.0-0.0,,,,,,,,,,,"[{""stimulus"":""run_exp/static/images/task_images/rocket-01.jpg"",""time"":0},{""stimulus"":""run_exp/static/images/task_images/rocket-02.jpg"",""time"":1074},{""stimulus"":""run_exp/static/images/task_images/rocket-03.jpg"",""time"":2151},{""stimulus"":""run_exp/static/images/task_images/rocket-04.jpg"",""time"":3238},{""stimulus"":""run_exp/static/images/task_images/rocket-05.jpg"",""time"":4315},{""stimulus"":""run_exp/static/images/task_images/rocket-06.jpg"",""time"":5392},{""stimulus"":""run_exp/static/images/task_images/rocket-07.jpg"",""time"":6479},{""stimulus"":""run_exp/static/images/task_images/rocket-08.jpg"",""time"":7556},{""stimulus"":""run_exp/static/images/task_images/rocket-09.jpg"",""time"":8633}]",[],20,,,,,,,,,,,,,,
alien_welcome,339,906947,0.0-97.0-1.0,,null,run_exp/static/images/task_images/aliens/old_aliens/planet/alien_planet-36.jpg,null,,,,,,,,,,,,36,"28,44,49,20,8,38,13,64,78,70,27,5,40,18,74,71,39,47,61,23,36,17,59,72,1,11,68,7,16,31,77,55,37,21,4,25,48,2,67,51,3,66,35,52,12",,,,,,,,,,
land,340,907464,0.0-97.0-2.0,,null,run_exp/static/images/task_images/land.jpg,null,,,,,,99,,,21,,,,,,,,,,,,,,
dig,341,909487,0.0-97.0-3.0,,,,,,,,,,,"[{""stimulus"":""run_exp/static/images/task_images/dig.jpg"",""time"":0},{""stimulus"":""run_exp/static/images/task_images/land.jpg"",""time"":668},{""stimulus"":""run_exp/static/images/task_images/dig.jpg"",""time"":1347}]",[],21,,,,,,,,,,,,,,
harvest,342,910497,0.0-97.0-4.0,,null,run_exp/static/images/task_images/gems/99.jpg,null,,,,,,81,,,21,,,,,99,0.814661886,0.818181818,,,,,,,
decision,343,910584,0.0-97.0-5.0,,85,run_exp/static/images/task_images/land.jpg,65,,,,,,81,,,21,,,,,,,,285906,2,0,FALSE,,,
dig,344,913515,0.0-98.0-0.0,,,,,,,,,,,"[{""stimulus"":""run_exp/static/images/task_images/dig.jpg"",""time"":0},{""stimulus"":""run_exp/static/images/task_images/land.jpg"",""time"":981},{""stimulus"":""run_exp/static/images/task_images/dig.jpg"",""time"":1956}]",[],21,,,,,,,,,,,,,,
harvest,345,914535,0.0-98.0-1.0,,null,run_exp/static/images/task_images/gems/81.jpg,null,,,,,,66,,,21,,,,,81,0.810602552,0.814814815,,,,,,,
decision,346,914538,0.0-98.0-2.0,,2,run_exp/static/images/task_images/land.jpg,65,,,,,,66,,,21,,,,,,,,289860,2,1,FALSE,,,
dig,347,917573,0.0-99.0-0.0,,,,,,,,,,,"[{""stimulus"":""run_exp/static/images/task_images/dig.jpg"",""time"":0},{""stimulus"":""run_exp/static/images/task_images/land.jpg"",""time"":1009},{""stimulus"":""run_exp/static/images/task_images/dig.jpg"",""time"":2025}]",[],21,,,,,,,,,,,,,,
harvest,348,918574,0.0-99.0-1.0,,null,run_exp/static/images/task_images/gems/66.jpg,null,,,,,,47,,,21,,,,,66,0.716255269,0.712121212,,,,,,,
decision,349,918767,0.0-99.0-2.0,,194,run_exp/static/images/task_images/land.jpg,65,,,,,,47,,,21,,,,,,,,294089,2,2,FALSE,,,
dig,350,921626,0.0-100.0-0.0,,,,,,,,,,,"[{""stimulus"":""run_exp/static/images/task_images/dig.jpg"",""time"":0},{""stimulus"":""run_exp/static/images/task_images/land.jpg"",""time"":954},{""stimulus"":""run_exp/static/images/task_images/dig.jpg"",""time"":1910}]",[],21,,,,,,,,,,,,,,
harvest,351,922632,0.0-100.0-1.0,,null,run_exp/static/images/task_images/gems/47.jpg,null,,,,,,36,,,21,,,,,47,0.760634049,0.765957447,,,,,,,
decision,352,922692,0.0-100.0-2.0,,60,run_exp/static/images/task_images/land.jpg,76,,,,,,36,,,21,,,,,,,,298014,2,3,TRUE,,,
travel,353,932730,0.0-101.0-0.0,,,,,,,,,,,"[{""stimulus"":""run_exp/static/images/task_images/rocket-01.jpg"",""time"":0},{""stimulus"":""run_exp/static/images/task_images/rocket-02.jpg"",""time"":1113},{""stimulus"":""run_exp/static/images/task_images/rocket-03.jpg"",""time"":2231},{""stimulus"":""run_exp/static/images/task_images/rocket-04.jpg"",""time"":3358},{""stimulus"":""run_exp/static/images/task_images/rocket-05.jpg"",""time"":4470},{""stimulus"":""run_exp/static/images/task_images/rocket-06.jpg"",""time"":5593},{""stimulus"":""run_exp/static/images/task_images/rocket-07.jpg"",""time"":6699},{""stimulus"":""run_exp/static/images/task_images/rocket-08.jpg"",""time"":7819},{""stimulus"":""run_exp/static/images/task_images/rocket-09.jpg"",""time"":8925}]",[],21,,,,,,,,,,,,,,
alien_welcome,354,937748,0.0-101.0-1.0,,null,run_exp/static/images/task_images/aliens/old_aliens/planet/alien_planet-17.jpg,null,,,,,,,,,,,,17,"28,44,49,20,8,38,13,64,78,70,27,5,40,18,74,71,39,47,61,23,36,17,59,72,1,11,68,7,16,31,77,55,37,21,4,25,48,2,67,51,3,66,35,52,12",,,,,,,,,,
land,355,938254,0.0-101.0-2.0,,null,run_exp/static/images/task_images/land.jpg,null,,,,,,107,,,22,,,,,,,,,,,,,,
dig,356,940278,0.0-101.0-3.0,,,,,,,,,,,"[{""stimulus"":""run_exp/static/images/task_images/dig.jpg"",""time"":0},{""stimulus"":""run_exp/static/images/task_images/land.jpg"",""time"":679},{""stimulus"":""run_exp/static/images/task_images/dig.jpg"",""time"":1350}]",[],22,,,,,,,,,,,,,,
harvest,357,941281,0.0-101.0-4.0,,null,run_exp/static/images/task_images/gems/107.jpg,null,,,,,,85,,,22,,,,,107,0.789759891,0.794392523,,,,,,,
decision,358,941311,0.0-101.0-5.0,,29,run_exp/static/images/task_images/land.jpg,65,,,,,,85,,,22,,,,,,,,316633,2,0,TRUE,,,
end_of_block_continue,359,944026,0.0-102.0-0.0,,2713,run_exp/static/audio/clip_32_block_end.m4a,,,,,,0,,,,,,,,,,,,,,,,,,
alien_welcome,360,949044,0.0-103.0-0.0,,null,run_exp/static/images/task_images/aliens/old_aliens/planet/alien_planet-59.jpg,null,,,,,,,,,,,,59,"28,44,49,20,8,38,13,64,78,70,27,5,40,18,74,71,39,47,61,23,36,17,59,72,1,11,68,7,16,31,77,55,37,21,4,25,48,2,67,51,3,66,35,52,12",,,,,,,,,,
land,361,949563,0.0-103.0-1.0,,null,run_exp/static/images/task_images/land.jpg,null,,,,,,100,,,23,,,,,,,,,,,,,,
dig,362,951615,0.0-103.0-2.0,,,,,,,,,,,"[{""stimulus"":""run_exp/static/images/task_images/dig.jpg"",""time"":0},{""stimulus"":""run_exp/static/images/task_images/land.jpg"",""time"":688},{""stimulus"":""run_exp/static/images/task_images/dig.jpg"",""time"":1370}]",[],23,,,,,,,,,,,,,,
harvest,363,952630,0.0-103.0-3.0,,null,run_exp/static/images/task_images/gems/100.jpg,null,,,,,,44,,,23,,,,,100,0.442327199,0.44,,,,,,,
decision,364,953189,0.0-103.0-4.0,,558,run_exp/static/images/task_images/land.jpg,65,,,,,,44,,,23,,,,,,,,9161,3,0,FALSE,,,
dig,365,955679,0.0-104.0-0.0,,,,,,,,,,,"[{""stimulus"":""run_exp/static/images/task_images/dig.jpg"",""time"":0},{""stimulus"":""run_exp/static/images/task_images/land.jpg"",""time"":818},{""stimulus"":""run_exp/static/images/task_images/dig.jpg"",""time"":1652}]",[],23,,,,,,,,,,,,,,
harvest,366,956694,0.0-104.0-1.0,,null,run_exp/static/images/task_images/gems/44.jpg,null,,,,,,23,,,23,,,,,44,0.526672674,0.522727273,,,,,,,
decision,367,956857,0.0-104.0-2.0,,161,run_exp/static/images/task_images/land.jpg,76,,,,,,23,,,23,,,,,,,,12829,3,1,TRUE,,,
travel,368,966772,0.0-105.0-0.0,,,,,,,,,,,"[{""stimulus"":""run_exp/static/images/task_images/rocket-01.jpg"",""time"":0},{""stimulus"":""run_exp/static/images/task_images/rocket-02.jpg"",""time"":1112},{""stimulus"":""run_exp/static/images/task_images/rocket-03.jpg"",""time"":2210},{""stimulus"":""run_exp/static/images/task_images/rocket-04.jpg"",""time"":3307},{""stimulus"":""run_exp/static/images/task_images/rocket-05.jpg"",""time"":4414},{""stimulus"":""run_exp/static/images/task_images/rocket-06.jpg"",""time"":5511},{""stimulus"":""run_exp/static/images/task_images/rocket-07.jpg"",""time"":6609},{""stimulus"":""run_exp/static/images/task_images/rocket-08.jpg"",""time"":7706},{""stimulus"":""run_exp/static/images/task_images/rocket-09.jpg"",""time"":8803}]",[],23,,,,,,,,,,,,,,
alien_welcome,369,971781,0.0-105.0-1.0,,null,run_exp/static/images/task_images/aliens/old_aliens/planet/alien_planet-72.jpg,null,,,,,,,,,,,,72,"28,44,49,20,8,38,13,64,78,70,27,5,40,18,74,71,39,47,61,23,36,17,59,72,1,11,68,7,16,31,77,55,37,21,4,25,48,2,67,51,3,66,35,52,12",,,,,,,,,,
land,370,972288,0.0-105.0-2.0,,null,run_exp/static/images/task_images/land.jpg,null,,,,,,105,,,24,,,,,,,,,,,,,,
dig,371,974329,0.0-105.0-3.0,,,,,,,,,,,"[{""stimulus"":""run_exp/static/images/task_images/dig.jpg"",""time"":0},{""stimulus"":""run_exp/static/images/task_images/land.jpg"",""time"":688},{""stimulus"":""run_exp/static/images/task_images/dig.jpg"",""time"":1368}]",[],24,,,,,,,,,,,,,,
harvest,372,975335,0.0-105.0-4.0,,null,run_exp/static/images/task_images/gems/105.jpg,null,,,,,,88,,,24,,,,,105,0.835474511,0.838095238,,,,,,,
decision,373,975541,0.0-105.0-5.0,,205,run_exp/static/images/task_images/land.jpg,65,,,,,,88,,,24,,,,,,,,31513,3,0,FALSE,,,
dig,374,978362,0.0-106.0-0.0,,,,,,,,,,,"[{""stimulus"":""run_exp/static/images/task_images/dig.jpg"",""time"":0},{""stimulus"":""run_exp/static/images/task_images/land.jpg"",""time"":947},{""stimulus"":""run_exp/static/images/task_images/dig.jpg"",""time"":1881}]",[],24,,,,,,,,,,,,,,
harvest,375,979368,0.0-106.0-1.0,,null,run_exp/static/images/task_images/gems/88.jpg,null,,,,,,71,,,24,,,,,88,0.808920566,0.806818182,,,,,,,
decision,376,979539,0.0-106.0-2.0,,170,run_exp/static/images/task_images/land.jpg,65,,,,,,71,,,24,,,,,,,,35512,3,1,FALSE,,,
dig,377,982406,0.0-107.0-0.0,,,,,,,,,,,"[{""stimulus"":""run_exp/static/images/task_images/dig.jpg"",""time"":0},{""stimulus"":""run_exp/static/images/task_images/land.jpg"",""time"":952},{""stimulus"":""run_exp/static/images/task_images/dig.jpg"",""time"":1906}]",[],24,,,,,,,,,,,,,,
harvest,378,983412,0.0-107.0-1.0,,null,run_exp/static/images/task_images/gems/71.jpg,null,,,,,,59,,,24,,,,,71,0.834295273,0.830985915,,,,,,,
decision,379,983612,0.0-107.0-2.0,,200,run_exp/static/images/task_images/land.jpg,65,,,,,,59,,,24,,,,,,,,39584,3,2,FALSE,,,
dig,380,986447,0.0-108.0-0.0,,,,,,,,,,,"[{""stimulus"":""run_exp/static/images/task_images/dig.jpg"",""time"":0},{""stimulus"":""run_exp/static/images/task_images/land.jpg"",""time"":953},{""stimulus"":""run_exp/static/images/task_images/dig.jpg"",""time"":1888}]",[],24,,,,,,,,,,,,,,
harvest,381,987465,0.0-108.0-1.0,,null,run_exp/static/images/task_images/gems/59.jpg,null,,,,,,44,,,24,,,,,59,0.747858225,0.745762712,,,,,,,
decision,382,987588,0.0-108.0-2.0,,122,run_exp/static/images/task_images/land.jpg,65,,,,,,44,,,24,,,,,,,,43560,3,3,FALSE,,,
dig,383,990503,0.0-109.0-0.0,,,,,,,,,,,"[{""stimulus"":""run_exp/static/images/task_images/dig.jpg"",""time"":0},{""stimulus"":""run_exp/static/images/task_images/land.jpg"",""time"":969},{""stimulus"":""run_exp/static/images/task_images/dig.jpg"",""time"":1935}]",[],24,,,,,,,,,,,,,,
harvest,384,991518,0.0-109.0-1.0,,null,run_exp/static/images/task_images/gems/44.jpg,null,,,,,,36,,,24,,,,,44,0.827876718,0.818181818,,,,,,,
decision,385,991592,0.0-109.0-2.0,,73,run_exp/static/images/task_images/land.jpg,76,,,,,,36,,,24,,,,,,,,47564,3,4,TRUE,,,
travel,386,1001643,0.0-110.0-0.0,,,,,,,,,,,"[{""stimulus"":""run_exp/static/images/task_images/rocket-01.jpg"",""time"":0},{""stimulus"":""run_exp/static/images/task_images/rocket-02.jpg"",""time"":1116},{""stimulus"":""run_exp/static/images/task_images/rocket-03.jpg"",""time"":2227},{""stimulus"":""run_exp/static/images/task_images/rocket-04.jpg"",""time"":3339},{""stimulus"":""run_exp/static/images/task_images/rocket-05.jpg"",""time"":4462},{""stimulus"":""run_exp/static/images/task_images/rocket-06.jpg"",""time"":5579},{""stimulus"":""run_exp/static/images/task_images/rocket-07.jpg"",""time"":6696},{""stimulus"":""run_exp/static/images/task_images/rocket-08.jpg"",""time"":7808},{""stimulus"":""run_exp/static/images/task_images/rocket-09.jpg"",""time"":8931}]",[],24,,,,,,,,,,,,,,
alien_welcome,387,1006645,0.0-110.0-1.0,,null,run_exp/static/images/task_images/aliens/old_aliens/planet/alien_planet-1.jpg,null,,,,,,,,,,,,1,"28,44,49,20,8,38,13,64,78,70,27,5,40,18,74,71,39,47,61,23,36,17,59,72,1,11,68,7,16,31,77,55,37,21,4,25,48,2,67,51,3,66,35,52,12",,,,,,,,,,
land,388,1007161,0.0-110.0-2.0,,null,run_exp/static/images/task_images/land.jpg,null,,,,,,102,,,25,,,,,,,,,,,,,,
dig,389,1009174,0.0-110.0-3.0,,,,,,,,,,,"[{""stimulus"":""run_exp/static/images/task_images/dig.jpg"",""time"":0},{""stimulus"":""run_exp/static/images/task_images/land.jpg"",""time"":668},{""stimulus"":""run_exp/static/images/task_images/dig.jpg"",""time"":1338}]",[],25,,,,,,,,,,,,,,
harvest,390,1010190,0.0-110.0-4.0,,null,run_exp/static/images/task_images/gems/102.jpg,null,,,,,,56,,,25,,,,,102,0.551858061,0.549019608,,,,,,,
decision,391,1010221,0.0-110.0-5.0,,31,run_exp/static/images/task_images/land.jpg,65,,,,,,56,,,25,,,,,,,,66194,3,0,FALSE,,,
dig,392,1013237,0.0-111.0-0.0,,,,,,,,,,,"[{""stimulus"":""run_exp/static/images/task_images/dig.jpg"",""time"":0},{""stimulus"":""run_exp/static/images/task_images/land.jpg"",""time"":1009},{""stimulus"":""run_exp/static/images/task_images/dig.jpg"",""time"":2014}]",[],25,,,,,,,,,,,,,,
harvest,393,1014243,0.0-111.0-1.0,,null,run_exp/static/images/task_images/gems/56.jpg,null,,,,,,29,,,25,,,,,56,0.520620532,0.517857143,,,,,,,
decision,394,1014296,0.0-111.0-2.0,,53,run_exp/static/images/task_images/land.jpg,76,,,,,,29,,,25,,,,,,,,70268,3,1,TRUE,,,
travel,395,1024341,0.0-112.0-0.0,,,,,,,,,,,"[{""stimulus"":""run_exp/static/images/task_images/rocket-01.jpg"",""time"":0},{""stimulus"":""run_exp/static/images/task_images/rocket-02.jpg"",""time"":1119},{""stimulus"":""run_exp/static/images/task_images/rocket-03.jpg"",""time"":2246},{""stimulus"":""run_exp/static/images/task_images/rocket-04.jpg"",""time"":3354},{""stimulus"":""run_exp/static/images/task_images/rocket-05.jpg"",""time"":4472},{""stimulus"":""run_exp/static/images/task_images/rocket-06.jpg"",""time"":5589},{""stimulus"":""run_exp/static/images/task_images/rocket-07.jpg"",""time"":6707},{""stimulus"":""run_exp/static/images/task_images/rocket-08.jpg"",""time"":7813},{""stimulus"":""run_exp/static/images/task_images/rocket-09.jpg"",""time"":8930}]",[],25,,,,,,,,,,,,,,
alien_welcome,396,1029347,0.0-112.0-1.0,,null,run_exp/static/images/task_images/aliens/old_aliens/planet/alien_planet-11.jpg,null,,,,,,,,,,,,11,"28,44,49,20,8,38,13,64,78,70,27,5,40,18,74,71,39,47,61,23,36,17,59,72,1,11,68,7,16,31,77,55,37,21,4,25,48,2,67,51,3,66,35,52,12",,,,,,,,,,
land,397,1029858,0.0-112.0-2.0,,null,run_exp/static/images/task_images/land.jpg,null,,,,,,91,,,26,,,,,,,,,,,,,,
dig,398,1031868,0.0-112.0-3.0,,,,,,,,,,,"[{""stimulus"":""run_exp/static/images/task_images/dig.jpg"",""time"":0},{""stimulus"":""run_exp/static/images/task_images/land.jpg"",""time"":667},{""stimulus"":""run_exp/static/images/task_images/dig.jpg"",""time"":1337}]",[],26,,,,,,,,,,,,,,
harvest,399,1032884,0.0-112.0-4.0,,null,run_exp/static/images/task_images/gems/91.jpg,null,,,,,,47,,,26,,,,,91,0.512909741,0.516483516,,,,,,,
decision,400,1032894,0.0-112.0-5.0,,9,run_exp/static/images/task_images/land.jpg,65,,,,,,47,,,26,,,,,,,,88866,3,0,FALSE,,,
dig,401,1035933,0.0-113.0-0.0,,,,,,,,,,,"[{""stimulus"":""run_exp/static/images/task_images/dig.jpg"",""time"":0},{""stimulus"":""run_exp/static/images/task_images/land.jpg"",""time"":1002},{""stimulus"":""run_exp/static/images/task_images/dig.jpg"",""time"":2017}]",[],26,,,,,,,,,,,,,,
harvest,402,1036948,0.0-113.0-1.0,,null,run_exp/static/images/task_images/gems/47.jpg,null,,,,,,26,,,26,,,,,47,0.545237939,0.553191489,,,,,,,
decision,403,1037112,0.0-113.0-2.0,,163,run_exp/static/images/task_images/land.jpg,76,,,,,,26,,,26,,,,,,,,93084,3,1,TRUE,,,
travel,404,1047036,0.0-114.0-0.0,,,,,,,,,,,"[{""stimulus"":""run_exp/static/images/task_images/rocket-01.jpg"",""time"":0},{""stimulus"":""run_exp/static/images/task_images/rocket-02.jpg"",""time"":1110},{""stimulus"":""run_exp/static/images/task_images/rocket-03.jpg"",""time"":2208},{""stimulus"":""run_exp/static/images/task_images/rocket-04.jpg"",""time"":3315},{""stimulus"":""run_exp/static/images/task_images/rocket-05.jpg"",""time"":4412},{""stimulus"":""run_exp/static/images/task_images/rocket-06.jpg"",""time"":5510},{""stimulus"":""run_exp/static/images/task_images/rocket-07.jpg"",""time"":6606},{""stimulus"":""run_exp/static/images/task_images/rocket-08.jpg"",""time"":7714},{""stimulus"":""run_exp/static/images/task_images/rocket-09.jpg"",""time"":8811}]",[],26,,,,,,,,,,,,,,
alien_welcome,405,1052045,0.0-114.0-1.0,,null,run_exp/static/images/task_images/aliens/old_aliens/planet/alien_planet-68.jpg,null,,,,,,,,,,,,68,"28,44,49,20,8,38,13,64,78,70,27,5,40,18,74,71,39,47,61,23,36,17,59,72,1,11,68,7,16,31,77,55,37,21,4,25,48,2,67,51,3,66,35,52,12",,,,,,,,,,
land,406,1052563,0.0-114.0-2.0,,null,run_exp/static/images/task_images/land.jpg,null,,,,,,97,,,27,,,,,,,,,,,,,,
dig,407,1054584,0.0-114.0-3.0,,,,,,,,,,,"[{""stimulus"":""run_exp/static/images/task_images/dig.jpg"",""time"":0},{""stimulus"":""run_exp/static/images/task_images/land.jpg"",""time"":668},{""stimulus"":""run_exp/static/images/task_images/dig.jpg"",""time"":1348}]",[],27,,,,,,,,,,,,,,
harvest,408,1055600,0.0-114.0-4.0,,null,run_exp/static/images/task_images/gems/97.jpg,null,,,,,,55,,,27,,,,,97,0.570618147,0.567010309,,,,,,,
decision,409,1055775,0.0-114.0-5.0,,175,run_exp/static/images/task_images/land.jpg,65,,,,,,55,,,27,,,,,,,,111747,3,0,FALSE,,,
dig,410,1058627,0.0-115.0-0.0,,,,,,,,,,,"[{""stimulus"":""run_exp/static/images/task_images/dig.jpg"",""time"":0},{""stimulus"":""run_exp/static/images/task_images/land.jpg"",""time"":948},{""stimulus"":""run_exp/static/images/task_images/dig.jpg"",""time"":1902}]",[],27,,,,,,,,,,,,,,
harvest,411,1059643,0.0-115.0-1.0,,null,run_exp/static/images/task_images/gems/55.jpg,null,,,,,,32,,,27,,,,,55,0.582892279,0.581818182,,,,,,,
decision,412,1059669,0.0-115.0-2.0,,25,run_exp/static/images/task_images/land.jpg,76,,,,,,32,,,27,,,,,,,,115641,3,1,TRUE,,,
