trial_type,trial_index,time_elapsed,internal_node_id,success,rt,stimulus,key_press,prompt,subject_id,age,gender,button_pressed,next_reward,animation_sequence,responses,planet,curr_prac_trial,n_prac_rounds,alien,aliens,reward_received,decay_rate_actual,decay_rate_exp,time_in_block,block_num,prt,last_trial_on_planet,button_html,bonus,num_failures
pavlovia,0,4,0.0-0.0,,,,,,,,,,,,,,,,,,,,,,,,,,,
fullscreen,1,5246,0.0-1.0,TRUE,,,,,,,,,,,,,,,,,,,,,,,,,,
instruc_welcome,2,14973,0.0-2.0,,null,run_exp/static/audio/clip_1_welcome.m4a,null,"<p>Howdy! In this experiment, you’ll be an explorer traveling through space to collect space treasure.</p><p>Your mission is to collect as much treasure as possible.</p><br><br><p><img src='run_exp/static/images/task_images/opening_img-01.jpg' height='300' width='auto'></p>",ScZlWtJmDLGDRVe_a5Ke5UddwllDBGZ_MLRP_eDtr5uS7yO3Fgxw,9.12,female,,,,,,,,,,,,,,,,,,,
audio-keyboard-response,3,31552,0.0-3.0,,null,run_exp/static/audio/clip_2_move.m4a,null,,,,,,,,,,,,,,,,,,,,,,,
welcome_dec,4,33298,0.0-4.0,,1743.38,"<p>Howdy! In this experiment, you’ll be an explorer traveling through space to collect space treasure.</p><p>Your mission is to collect as much treasure as possible.</p><br><br><p><img src='run_exp/static/images/task_images/opening_img-01.jpg' height='300' width='auto'></p>",,,,,,1,,,,,,,,,,,,,,,,,,
html-keyboard-response,5,35197,0.0-5.0,,1897.125,"<p>Howdy! In this experiment, you’ll be an explorer traveling through space to collect space treasure.</p><p>Your mission is to collect as much treasure as possible.</p><br><br><p><img src='run_exp/static/images/task_images/opening_img-01.jpg' height='300' width='auto'></p><button class=""jspsych-html-btn-unchosen""><img src=""run_exp/static/images/task_images/planet-01.jpg"" height=""50""></button><button class=""jspsych-html-btn-chosen""><img src=""run_exp/static/images/task_images/planet-02.jpg"" height=""50""></button><p><b>[press the space bar to lock in your answer]<b><br></p>",32,,,,,,,,,,,,,,,,,,,,,,,
instruc_goal,6,45252,0.0-6.0-0.0,,null,run_exp/static/audio/clip_3_goal.m4a,null,"<p> As a space explorer, you’ll visit different planets to dig for space treasure, these pink gems.</p> <p> The more treasure you dig up, the more bonus money you’ll win! </p><br><br><p><img src='run_exp/static/images/task_images/pink_gem.jpg' height='300' width='auto'></p>",,,,,,,,,,,,,,,,,,,,,,
instruc_goal,7,48930,0.0-6.0-1.0,,3675.5,"<p> As a space explorer, you’ll visit different planets to dig for space treasure, these pink gems.</p> <p> The more treasure you dig up, the more bonus money you’ll win! </p><br><br><p><img src='run_exp/static/images/task_images/pink_gem.jpg' height='300' width='auto'></p>",,,,,,1,,,,,,,,,,,,,,,,,,
html-keyboard-response,8,49805,0.0-6.0-2.0,,873.14,"<p> As a space explorer, you’ll visit different planets to dig for space treasure, these pink gems.</p> <p> The more treasure you dig up, the more bonus money you’ll win! </p><br><br><p><img src='run_exp/static/images/task_images/pink_gem.jpg' height='300' width='auto'></p><button class=""jspsych-html-btn-unchosen""><img src=""run_exp/static/images/task_images/planet-01.jpg"" height=""50""></button><button class=""jspsych-html-btn-chosen""><img src=""run_exp/static/images/task_images/planet-02.jpg"" height=""50""></button><p><b>[press the space bar to lock in your answer]<b><br></p>",32,,,,,,,,,,,,,,,,,,,,,,,
instruc_dig,9,65825,0.0-7.0-0.0,,null,run_exp/static/audio/clip_4_dig.m4a,null,,,,,,100,,,,,,,,,,,,,,,,,
instruc_dig_try,10,66303,0.0-7.0-1.0,,475.97,"<p> When you’ve arrived at a new planet, you will dig once. </p> <p>Then, you get to decide if you want to stay on the planet and dig again or travel to a new planet and dig there.</p> <p> To stay and dig, press the letter <strong>‘A’</strong> on your keyboard. Try pressing it now! </p><p><img src='run_exp/static/images/task_images/land.jpg'  height='700' width='auto'></p>",65,"<p> When you’ve arrived at a new planet, you will dig once. </p> <p>Then, you get to decide if you want to stay on the planet and dig again or travel to a new planet and dig there.</p> <p> To stay and dig, press the letter <strong>‘A’</strong> on your keyboard. Try pressing it now! </p><p><img src='run_exp/static/images/task_images/land.jpg'  height='700' width='auto'></p>",,,,,100,,,,,,,,,,,,,,,,,
dig_prac,11,68318,0.0-7.0-2.0,,,,,,,,,,,"[{""stimulus"":""run_exp/static/images/task_images/dig.jpg"",""time"":0.3399999695830047},{""stimulus"":""run_exp/static/images/task_images/land.jpg"",""time"":671.7799999751151},{""stimulus"":""run_exp/static/images/task_images/dig.jpg"",""time"":1340.3999999864027}]",[],,,,,,,,,,,,,,,
instruc_travel,12,104535,0.0-7.0-3.0,,null,run_exp/static/audio/clip_5_travel.m4a,null,"<p>Every time you dig up gems, there are less gems on the planet, so the more you dig on a planet the fewer gems you’ll get with each dig.</p><p>When gems are running low, you may want to travel to a new planet. </p> <p>  Planets are very far apart in this galaxy, so it will take some time to travel between them. </p> <br><p>There are lots and lots of planets for you to visit, so you won’t be able to return to any planets you’ve seen before. </p><br><p>To leave this planet and travel to a new one, press the letter <strong>‘L’</strong> on your keyboard. Try pressing it now! </p><p><img src='run_exp/static/images/task_images/rocket-01.jpg'  height='600' width='auto'></p>",,,,,,,,,,,,,,,,,,,,,,
instruc_travel_try,13,108454,0.0-7.0-4.0,,3917.905,"<p>Every time you dig up gems, there are less gems on the planet, so the more you dig on a planet the fewer gems you’ll get with each dig.</p><p>When gems are running low, you may want to travel to a new planet. </p> <p>  Planets are very far apart in this galaxy, so it will take some time to travel between them. </p> <br><p>There are lots and lots of planets for you to visit, so you won’t be able to return to any planets you’ve seen before. </p><br><p>To leave this planet and travel to a new one, press the letter <strong>‘L’</strong> on your keyboard. Try pressing it now! </p><p><img src='run_exp/static/images/task_images/rocket-01.jpg'  height='600' width='auto'></p>",76,"<p>Every time you dig up gems, there are less gems on the planet, so the more you dig on a planet the fewer gems you’ll get with each dig.</p><p>When gems are running low, you may want to travel to a new planet. </p> <p>  Planets are very far apart in this galaxy, so it will take some time to travel between them. </p> <br><p>There are lots and lots of planets for you to visit, so you won’t be able to return to any planets you’ve seen before. </p><br><p>To leave this planet and travel to a new one, press the letter <strong>‘L’</strong> on your keyboard. Try pressing it now! </p><p><img src='run_exp/static/images/task_images/rocket-01.jpg'  height='600' width='auto'></p>",,,,,,,,,,,,,,,,,,,,,,
travel_prac,14,118461,0.0-7.0-5.0,,,,,,,,,,,"[{""stimulus"":""run_exp/static/images/task_images/rocket-01.jpg"",""time"":0.20999996922910213},{""stimulus"":""run_exp/static/images/task_images/rocket-02.jpg"",""time"":1112.5749999773689},{""stimulus"":""run_exp/static/images/task_images/rocket-03.jpg"",""time"":2227.115000016056},{""stimulus"":""run_exp/static/images/task_images/rocket-04.jpg"",""time"":3339.1849999898113},{""stimulus"":""run_exp/static/images/task_images/rocket-05.jpg"",""time"":4450.209999980871},{""stimulus"":""run_exp/static/images/task_images/rocket-06.jpg"",""time"":5560.939999995753},{""stimulus"":""run_exp/static/images/task_images/rocket-07.jpg"",""time"":6667.949999973644},{""stimulus"":""run_exp/static/images/task_images/rocket-08.jpg"",""time"":7781.929999997374},{""stimulus"":""run_exp/static/images/task_images/rocket-09.jpg"",""time"":8891.42499997979}]",[],0,,,,,,,,,,,,,,
instruc_alien_greet,15,145658,0.0-7.0-6.0,,null,run_exp/static/audio/clip_6_alien.m4a,null,"<p>When you arrive at a new planet, the alien who owns the treasure mine on that planet will greet you!</p><p>The better an alien takes care of their mine the easier it is to dig for gems. Some aliens take better care of their mine than others. So, you won’t get exactly the same amount of gems on each planet.</p><p>What the alien looks like does not tell you anything about how many gems there are on the planet.</p><br><p><img src=""run_exp/static/images/task_images/aliens/instructions_aliens/planet/alien_planet-1.jpg""  height=""600"" width=""auto""></p>",,,,,,,,,,,,,,,,,,,,,,
instruc_alien_greet,16,148327,0.0-7.0-7.0,,2666.765,"<p>When you arrive at a new planet, the alien who owns the treasure mine on that planet will greet you!</p><p>The better an alien takes care of their mine the easier it is to dig for gems. Some aliens take better care of their mine than others. So, you won’t get exactly the same amount of gems on each planet.</p><p>What the alien looks like does not tell you anything about how many gems there are on the planet.</p><br><p><img src=""run_exp/static/images/task_images/aliens/instructions_aliens/planet/alien_planet-1.jpg""  height=""600"" width=""auto""></p>",,,,,,1,,,,,,,,,,,,,,,,,,
html-keyboard-response,17,148920,0.0-7.0-8.0,,591.16,"<p>When you arrive at a new planet, the alien who owns the treasure mine on that planet will greet you!</p><p>The better an alien takes care of their mine the easier it is to dig for gems. Some aliens take better care of their mine than others. So, you won’t get exactly the same amount of gems on each planet.</p><p>What the alien looks like does not tell you anything about how many gems there are on the planet.</p><br><p><img src=""run_exp/static/images/task_images/aliens/instructions_aliens/planet/alien_planet-1.jpg""  height=""600"" width=""auto""></p><button class=""jspsych-html-btn-unchosen""><img src=""run_exp/static/images/task_images/planet-01.jpg"" height=""50""></button><button class=""jspsych-html-btn-chosen""><img src=""run_exp/static/images/task_images/planet-02.jpg"" height=""50""></button><p><b>[press the space bar to lock in your answer]<b><br></p>",32,,,,,,,,,,,,,,,,,,,,,,,
time_out,18,159986,0.0-8.0-0.0,,null,run_exp/static/audio/clip_7_timeout.m4a,null,"<p>If you don't make your choice fast enough, you’ll have to wait a few seconds before you can make another one.</p><p>You can’t dig for more gems or travel to new planets. You just have to sit and wait.</p><br><p><img src='run_exp/static/images/task_images/time_out.jpg'  height='600' width='auto'></p>",,,,,,,,,,,,,,,,,,,,,,
time_out,19,161426,0.0-8.0-1.0,,1437.82,"<p>If you don't make your choice fast enough, you’ll have to wait a few seconds before you can make another one.</p><p>You can’t dig for more gems or travel to new planets. You just have to sit and wait.</p><br><p><img src='run_exp/static/images/task_images/time_out.jpg'  height='600' width='auto'></p>",,,,,,1,,,,,,,,,,,,,,,,,,
html-keyboard-response,20,163160,0.0-8.0-2.0,,1732.625,"<p>If you don't make your choice fast enough, you’ll have to wait a few seconds before you can make another one.</p><p>You can’t dig for more gems or travel to new planets. You just have to sit and wait.</p><br><p><img src='run_exp/static/images/task_images/time_out.jpg'  height='600' width='auto'></p><button class=""jspsych-html-btn-unchosen""><img src=""run_exp/static/images/task_images/planet-01.jpg"" height=""50""></button><button class=""jspsych-html-btn-chosen""><img src=""run_exp/static/images/task_images/planet-02.jpg"" height=""50""></button><p><b>[press the space bar to lock in your answer]<b><br></p>",32,,,,,,,,,,,,,,,,,,,,,,,
instruc_break,21,178864,0.0-9.0-0.0,,null,run_exp/static/audio/clip_8_break.m4a,null,"<p> After digging and traveling for a while, you’ll be able to take a break at home base. </p><p>The game will last 20 minutes no matter what.</p><p>You will visit home base every 5 minutes, so, you will visit home base three times during the game.</p><br><p><img src='run_exp/static/images/task_images/home_base.jpg' height='600' width='auto'></p>",,,,,,,,,,,,,,,,,,,,,,
instruc_break,22,180254,0.0-9.0-1.0,,1388,"<p> After digging and traveling for a while, you’ll be able to take a break at home base. </p><p>The game will last 20 minutes no matter what.</p><p>You will visit home base every 5 minutes, so, you will visit home base three times during the game.</p><br><p><img src='run_exp/static/images/task_images/home_base.jpg' height='600' width='auto'></p>",,,,,,1,,,,,,,,,,,,,,,,,,
html-keyboard-response,23,181105,0.0-9.0-2.0,,849.355,"<p> After digging and traveling for a while, you’ll be able to take a break at home base. </p><p>The game will last 20 minutes no matter what.</p><p>You will visit home base every 5 minutes, so, you will visit home base three times during the game.</p><br><p><img src='run_exp/static/images/task_images/home_base.jpg' height='600' width='auto'></p><button class=""jspsych-html-btn-unchosen""><img src=""run_exp/static/images/task_images/planet-01.jpg"" height=""50""></button><button class=""jspsych-html-btn-chosen""><img src=""run_exp/static/images/task_images/planet-02.jpg"" height=""50""></button><p><b>[press the space bar to lock in your answer]<b><br></p>",32,,,,,,,,,,,,,,,,,,,,,,,
instruc_prac_game,24,191217,0.0-10.0-0.0,,null,run_exp/static/audio/clip_9_practice.m4a,null,"<p> Are you ready to play a practice game? </p> <p>In this practice game, you'll be digging up barrels of gems. But, in the real game, you'll be digging up the gems themselves. </p>",,,,,,,,,,,,,,,,,,,,,,
html-button-response,25,193276,0.0-10.0-1.0,,2057.3,"<p> Are you ready to play a practice game? </p> <p>In this practice game, you'll be digging up barrels of gems. But, in the real game, you'll be digging up the gems themselves. </p>",,,,,,0,,,,,,,,,,,,,,,,,,
alien_welcome_prac,26,198283,0.0-11.0-0.0,,null,run_exp/static/images/task_images/aliens/practice_aliens/planet/alien_planet-5.jpg,null,,,,,,,,,,,,,,,,,,,,,,,
land_prac,27,198787,0.0-11.0-1.0,,null,run_exp/static/images/task_images/land.jpg,null,,,,,,101,,,0,,,,,,,,,,,,,,
dig_prac,28,200794,0.0-11.0-2.0,,,,,,,,,,,"[{""stimulus"":""run_exp/static/images/task_images/dig.jpg"",""time"":0.2899999963119626},{""stimulus"":""run_exp/static/images/task_images/land.jpg"",""time"":670.140000001993},{""stimulus"":""run_exp/static/images/task_images/dig.jpg"",""time"":1340.3749999706633}]",[],,,,,,,,,,,,,,,
harvest_prac,29,201800,0.0-11.0-3.0,,null,run_exp/static/images/task_images/barrel_text.jpg,null,,,,,,,,,,,,,,,,,,,,,,,
decision_prac,30,204802,0.0-11.0-4.0,,null,run_exp/static/images/task_images/land.jpg,null,,,,,,,,,,1,,,,,,,,,,,,,
time_out,31,206806,0.0-12.0-0.0,,null,run_exp/static/images/task_images/time_out.jpg,null,,,,,,,,,,,,,,,,,,,,,,,
decision_prac,32,207419,0.0-12.0-1.0,,611.45,run_exp/static/images/task_images/land.jpg,65,,,,,,,,,,2,,,,,,,,,,,,,
dig_prac,33,209429,0.0-13.0-0.0,,,,,,,,,,,"[{""stimulus"":""run_exp/static/images/task_images/dig.jpg"",""time"":0.1449999981559813},{""stimulus"":""run_exp/static/images/task_images/land.jpg"",""time"":671.8850000179373},{""stimulus"":""run_exp/static/images/task_images/dig.jpg"",""time"":1337.0900000445545}]",[],,,,,,,,,,,,,,,
harvest_prac,34,210435,0.0-13.0-1.0,,null,run_exp/static/images/task_images/barrel_text.jpg,null,,,,,,,,,,,,,,,,,,,,,,,
decision_prac,35,212282,0.0-13.0-2.0,,1846.035,run_exp/static/images/task_images/land.jpg,76,,,,,,,,,,3,,,,,,,,,,,,,
travel,36,220436,0.0-14.0-0.0,,,,,,,,,,,"[{""stimulus"":""run_exp/static/images/task_images/rocket-01.jpg"",""time"":0.16499997582286596},{""stimulus"":""run_exp/static/images/task_images/rocket-02.jpg"",""time"":907.1750000002794},{""stimulus"":""run_exp/static/images/task_images/rocket-03.jpg"",""time"":1816.0899999784306},{""stimulus"":""run_exp/static/images/task_images/rocket-04.jpg"",""time"":2717.884999990929},{""stimulus"":""run_exp/static/images/task_images/rocket-05.jpg"",""time"":3626.120000029914},{""stimulus"":""run_exp/static/images/task_images/rocket-06.jpg"",""time"":4528.935000009369},{""stimulus"":""run_exp/static/images/task_images/rocket-07.jpg"",""time"":5430.990000022575},{""stimulus"":""run_exp/static/images/task_images/rocket-08.jpg"",""time"":6341.13499999512},{""stimulus"":""run_exp/static/images/task_images/rocket-09.jpg"",""time"":7244.780000008177}]",[],0,,,,,,,,,,,,,,
alien_welcome_prac,37,225443,0.0-14.0-1.0,,null,run_exp/static/images/task_images/aliens/practice_aliens/planet/alien_planet-4.jpg,null,,,,,,,,,,,,,,,,,,,,,,,
land_prac,38,225949,0.0-14.0-2.0,,null,run_exp/static/images/task_images/land.jpg,null,,,,,,106,,,0,,,,,,,,,,,,,,
dig_prac,39,227954,0.0-14.0-3.0,,,,,,,,,,,"[{""stimulus"":""run_exp/static/images/task_images/dig.jpg"",""time"":0.265000038780272},{""stimulus"":""run_exp/static/images/task_images/land.jpg"",""time"":670.5800000345334},{""stimulus"":""run_exp/static/images/task_images/dig.jpg"",""time"":1336.9500000262633}]",[],,,,,,,,,,,,,,,
harvest_prac,40,228958,0.0-14.0-4.0,,null,run_exp/static/images/task_images/barrel_text.jpg,null,,,,,,,,,,,,,,,,,,,,,,,
decision_prac,41,229845,0.0-14.0-5.0,,885.99,run_exp/static/images/task_images/land.jpg,65,,,,,,,,,,4,,,,,,,,,,,,,
dig_prac,42,231853,0.0-15.0-0.0,,,,,,,,,,,"[{""stimulus"":""run_exp/static/images/task_images/dig.jpg"",""time"":0.1449999981559813},{""stimulus"":""run_exp/static/images/task_images/land.jpg"",""time"":668.0749999941327},{""stimulus"":""run_exp/static/images/task_images/dig.jpg"",""time"":1337.8650000086054}]",[],,,,,,,,,,,,,,,
harvest_prac,43,232856,0.0-15.0-1.0,,null,run_exp/static/images/task_images/barrel_text.jpg,null,,,,,,,,,,,,,,,,,,,,,,,
decision_prac,44,234481,0.0-15.0-2.0,,1624.57,run_exp/static/images/task_images/land.jpg,76,,,,,,,,,,,1,,,,,,,,,,,,
quiz_instruc,45,245718,0.0-16.0-0.0,,11233.445,run_exp/static/audio/clip_10_quiz.m4a,,,,,,0,,,,,,,,,,,,,,,,,,
instruc_repeat,46,288489,0.0-16.0-1.0,,null,"<p> Are you ready to play a practice game? </p> <p>In this practice game, you'll be digging up barrels of gems. But, in the real game, you'll be digging up the gems themselves. </p>",null,"<p>In this game, your goal is to collect as many gems as you can. That’s how you will win bonus money. </p> <p>The entire game will last 20 minutes no matter how many gems you collect or how many planets you visit. </p><p>To stay on a planet and dig again, press the letter A on your keyboard. To leave for a new planet, press the letter L.</p><p>The more you dig on a planet, the fewer gems you’ll get with each dig which is why you might consider leaving for a new planet. </p><p>When you arrive at a new planet, you’ll be greeted by an alien. What the alien looks like does not tell you anything about how much treasure is on the planet. </p>",,,,,,,,,,,,,,,,,,,,,,
instruc_repeat_continue,47,290037,0.0-16.0-2.0,,1546.84,"<p> Are you ready to play a practice game? </p> <p>In this practice game, you'll be digging up barrels of gems. But, in the real game, you'll be digging up the gems themselves. </p>",,,,,,0,,,,,,,,,,,,,,,,,,
quiz_q_1_ask,48,300277,0.0-16.0-3.0,,10238.36,run_exp/static/audio/clip_11_q1_ask.m4a,,,,,,2,,,,,,,,,,,,,,,,,,
quiz_q_1_fb_correct,49,304139,0.0-17.0-0.0,,null,run_exp/static/audio/clip_12_q1_corrrect.m4a,null,<p>That’s correct. You win extra money by collecting more gems.</p>,,,,,,,,,,,,,,,,,,,,,,
quiz_q_2_ask,50,316454,0.0-17.0-1.0,,12312.565,run_exp/static/audio/clip_14_q2_ask.m4a,,,,,,1,,,,,,,,,,,,,,,,,,
quiz_q_2_fb_correct,51,320440,0.0-18.0-0.0,,null,run_exp/static/audio/clip_15_q2_correct.m4a,null,<p>That’s correct. The experiment is 20 minutes no matter what.</p>,,,,,,,,,,,,,,,,,,,,,,
quiz_q_3_ask,52,325295,0.0-18.0-1.0,,4852.665,run_exp/static/audio/clip_17_q3_ask.m4a,,,,,,1,,,,,,,,,,,,,,,,,,
quiz_q_3_fb_correct,53,329264,0.0-19.0-0.0,,null,run_exp/static/audio/clip_18_q3_correct.m4a,null,<p> That’s correct. You press the letter L to travel to a new planet.</p>,,,,,,,,,,,,,,,,,,,,,,
quiz_q_4_ask,54,338405,0.0-19.0-1.0,,9138.775,run_exp/static/audio/clip_20_q4_ask.m4a,,,,,,0,,,,,,,,,,,,,,,,,,
quiz_q_4_fb_correct,55,343731,0.0-20.0-0.0,,null,run_exp/static/audio/clip_21_q4_correct.m4a,null,<p> That’s correct. The more you dig on a planet the fewer gems you’ll get with each dig. </p>,,,,,,,,,,,,,,,,,,,,,,
quiz_q_5_ask,56,353424,0.0-20.0-1.0,,9690.54,run_exp/static/audio/clip_23_q5_ask.m4a,,,,,,1,,,,,,,,,,,,,,,,,,
quiz_q_5_fb_correct,57,358406,0.0-21.0-0.0,,null,run_exp/static/audio/clip_24_q5_correct.m4a,null,<p> That’s correct. The alien tells you nothing about how much treasure is on the planet.</p>,,,,,,,,,,,,,,,,,,,,,,
quiz_correct,58,361866,0.0-22.0-0.0,,null,run_exp/static/audio/clip_26_correct_quiz.m4a,null,,,,,,,,,,,,,,,,,,,,,,,
quiz_correct_continue,59,363369,0.0-22.0-1.0,,1501.935,<p>Good job! You're now ready to move on to the real game!</p>,,,,,,0,,,,,,,,,,,,,,,,,,
audio-keyboard-response,60,373499,0.0-22.0-2.0,,null,run_exp/static/audio/clip_28_real_game.m4a,null,,,,,,,,,,,,,,,,,,,,,,,
instruc_begin_exp_contine,61,375604,0.0-22.0-3.0,,2103.52,"<p>Now that you know how  to dig for space treasure and travel to new planets,you can start exploring! </p><p>Do you want to go over the instructions again or get started with the real game?</p>",,,,,,1,,,,,,1,,,,,,,,,,,,
alien_welcome,62,380610,0.0-23.0-0.0,,null,run_exp/static/images/task_images/aliens/old_aliens/planet/alien_planet-42.jpg,null,,,,,,,,,,,,42,"42,2,49,22,64,27,54,24,12,18,76,60,71,56,13,1,40,68,15,70,69,37,8,58,45,79,23,57,36,25,63,35,78,73,17,21,47,43,67,55,51,9",,,,,,,,,,
land,63,381114,0.0-23.0-1.0,,null,run_exp/static/images/task_images/land.jpg,null,,,,,,101,,,1,,,,,,,,,,,,,,
dig,64,383118,0.0-23.0-2.0,,,,,,,,,,,"[{""stimulus"":""run_exp/static/images/task_images/dig.jpg"",""time"":0.2899999963119626},{""stimulus"":""run_exp/static/images/task_images/land.jpg"",""time"":671.4950000168756},{""stimulus"":""run_exp/static/images/task_images/dig.jpg"",""time"":1336.9650000240654}]",[],1,,,,,,,,,,,,,,
harvest,65,384125,0.0-23.0-3.0,,null,run_exp/static/images/task_images/gems/101.jpg,null,,,,,,28,,,1,,,,,101,0.272915673,0.277227723,,,,,,,
decision,66,384631,0.0-23.0-4.0,,504.25,run_exp/static/images/task_images/land.jpg,65,,,,,,28,,,1,,,,,,,,9025,1,0,FALSE,,,
dig,67,387130,0.0-24.0-0.0,,,,,,,,,,,"[{""stimulus"":""run_exp/static/images/task_images/dig.jpg"",""time"":0.16499997582286596},{""stimulus"":""run_exp/static/images/task_images/land.jpg"",""time"":835.0249999784864},{""stimulus"":""run_exp/static/images/task_images/dig.jpg"",""time"":1668.134999985341}]",[],1,,,,,,,,,,,,,,
harvest,68,388131,0.0-24.0-1.0,,null,run_exp/static/images/task_images/gems/28.jpg,null,,,,,,4,,,1,,,,,28,0.138825792,0.142857143,,,,,,,
decision,69,388568,0.0-24.0-2.0,,435.63,run_exp/static/images/task_images/land.jpg,76,,,,,,4,,,1,,,,,,,,12962,1,1,TRUE,,,
travel,70,398135,0.0-25.0-0.0,,,,,,,,,,,"[{""stimulus"":""run_exp/static/images/task_images/rocket-01.jpg"",""time"":0.13499998021870852},{""stimulus"":""run_exp/static/images/task_images/rocket-02.jpg"",""time"":1065.405000001192},{""stimulus"":""run_exp/static/images/task_images/rocket-03.jpg"",""time"":2130.0699999555945},{""stimulus"":""run_exp/static/images/task_images/rocket-04.jpg"",""time"":3188.6199999717064},{""stimulus"":""run_exp/static/images/task_images/rocket-05.jpg"",""time"":4254.054999968503},{""stimulus"":""run_exp/static/images/task_images/rocket-06.jpg"",""time"":5315.9299999824725},{""stimulus"":""run_exp/static/images/task_images/rocket-07.jpg"",""time"":6378.159999963827},{""stimulus"":""run_exp/static/images/task_images/rocket-08.jpg"",""time"":7434.7499999566935},{""stimulus"":""run_exp/static/images/task_images/rocket-09.jpg"",""time"":8500.00999995973}]",[],1,,,,,,,,,,,,,,
alien_welcome,71,403139,0.0-25.0-1.0,,null,run_exp/static/images/task_images/aliens/old_aliens/planet/alien_planet-2.jpg,null,,,,,,,,,,,,2,"42,2,49,22,64,27,54,24,12,18,76,60,71,56,13,1,40,68,15,70,69,37,8,58,45,79,23,57,36,25,63,35,78,73,17,21,47,43,67,55,51,9",,,,,,,,,,
land,72,403644,0.0-25.0-2.0,,null,run_exp/static/images/task_images/land.jpg,null,,,,,,86,,,2,,,,,,,,,,,,,,
dig,73,405649,0.0-25.0-3.0,,,,,,,,,,,"[{""stimulus"":""run_exp/static/images/task_images/dig.jpg"",""time"":0.2899999963119626},{""stimulus"":""run_exp/static/images/task_images/land.jpg"",""time"":673.3249999815598},{""stimulus"":""run_exp/static/images/task_images/dig.jpg"",""time"":1338.9500000048429}]",[],2,,,,,,,,,,,,,,
harvest,74,406650,0.0-25.0-4.0,,null,run_exp/static/images/task_images/gems/86.jpg,null,,,,,,11,,,2,,,,,86,0.130976696,0.127906977,,,,,,,
decision,75,407001,0.0-25.0-5.0,,348.915,run_exp/static/images/task_images/land.jpg,65,,,,,,11,,,2,,,,,,,,31395,1,0,FALSE,,,
dig,76,409655,0.0-26.0-0.0,,,,,,,,,,,"[{""stimulus"":""run_exp/static/images/task_images/dig.jpg"",""time"":0.13999996008351445},{""stimulus"":""run_exp/static/images/task_images/land.jpg"",""time"":885.710000002291},{""stimulus"":""run_exp/static/images/task_images/dig.jpg"",""time"":1768.7199999927543}]",[],2,,,,,,,,,,,,,,
harvest,77,410659,0.0-26.0-1.0,,null,run_exp/static/images/task_images/gems/11.jpg,null,,,,,,2,,,2,,,,,11,0.205614542,0.181818182,,,,,,,
decision,78,410927,0.0-26.0-2.0,,266.68,run_exp/static/images/task_images/land.jpg,76,,,,,,2,,,2,,,,,,,,35321,1,1,TRUE,,,
travel,79,420662,0.0-27.0-0.0,,,,,,,,,,,"[{""stimulus"":""run_exp/static/images/task_images/rocket-01.jpg"",""time"":0.14000001829117537},{""stimulus"":""run_exp/static/images/task_images/rocket-02.jpg"",""time"":1085.4549999930896},{""stimulus"":""run_exp/static/images/task_images/rocket-03.jpg"",""time"":2163.890000025276},{""stimulus"":""run_exp/static/images/task_images/rocket-04.jpg"",""time"":3244.6450000279583},{""stimulus"":""run_exp/static/images/task_images/rocket-05.jpg"",""time"":4328.114999982063},{""stimulus"":""run_exp/static/images/task_images/rocket-06.jpg"",""time"":5410.054999985732},{""stimulus"":""run_exp/static/images/task_images/rocket-07.jpg"",""time"":6492.0900000142865},{""stimulus"":""run_exp/static/images/task_images/rocket-08.jpg"",""time"":7572.549999982584},{""stimulus"":""run_exp/static/images/task_images/rocket-09.jpg"",""time"":8654.050000011921}]",[],2,,,,,,,,,,,,,,
alien_welcome,80,425668,0.0-27.0-1.0,,null,run_exp/static/images/task_images/aliens/old_aliens/planet/alien_planet-49.jpg,null,,,,,,,,,,,,49,"42,2,49,22,64,27,54,24,12,18,76,60,71,56,13,1,40,68,15,70,69,37,8,58,45,79,23,57,36,25,63,35,78,73,17,21,47,43,67,55,51,9",,,,,,,,,,
land,81,426174,0.0-27.0-2.0,,null,run_exp/static/images/task_images/land.jpg,null,,,,,,102,,,3,,,,,,,,,,,,,,
dig,82,428183,0.0-27.0-3.0,,,,,,,,,,,"[{""stimulus"":""run_exp/static/images/task_images/dig.jpg"",""time"":0.2749999985098839},{""stimulus"":""run_exp/static/images/task_images/land.jpg"",""time"":668.0749999941327},{""stimulus"":""run_exp/static/images/task_images/dig.jpg"",""time"":1338.1250000093132}]",[],3,,,,,,,,,,,,,,
harvest,83,429189,0.0-27.0-4.0,,null,run_exp/static/images/task_images/gems/102.jpg,null,,,,,,44,,,3,,,,,102,0.433723686,0.431372549,,,,,,,
decision,84,429640,0.0-27.0-5.0,,449.19,run_exp/static/images/task_images/land.jpg,65,,,,,,44,,,3,,,,,,,,54034,1,0,FALSE,,,
dig,85,432194,0.0-28.0-0.0,,,,,,,,,,,"[{""stimulus"":""run_exp/static/images/task_images/dig.jpg"",""time"":0.14000001829117537},{""stimulus"":""run_exp/static/images/task_images/land.jpg"",""time"":852.1349999937229},{""stimulus"":""run_exp/static/images/task_images/dig.jpg"",""time"":1702.2100000176579}]",[],3,,,,,,,,,,,,,,
harvest,86,433199,0.0-28.0-1.0,,null,run_exp/static/images/task_images/gems/44.jpg,null,,,,,,20,,,3,,,,,44,0.454848904,0.454545455,,,,,,,
decision,87,433896,0.0-28.0-2.0,,695.595,run_exp/static/images/task_images/land.jpg,65,,,,,,20,,,3,,,,,,,,58290,1,1,FALSE,,,
dig,88,436206,0.0-29.0-0.0,,,,,,,,,,,"[{""stimulus"":""run_exp/static/images/task_images/dig.jpg"",""time"":0.15999999595806003},{""stimulus"":""run_exp/static/images/task_images/land.jpg"",""time"":770.4699999885634},{""stimulus"":""run_exp/static/images/task_images/dig.jpg"",""time"":1542.1450000139885}]",[],3,,,,,,,,,,,,,,
harvest,89,437212,0.0-29.0-1.0,,null,run_exp/static/images/task_images/gems/20.jpg,null,,,,,,11,,,3,,,,,20,0.569856956,0.55,,,,,,,
decision,90,437681,0.0-29.0-2.0,,467.115,run_exp/static/images/task_images/land.jpg,76,,,,,,11,,,3,,,,,,,,62075,1,2,TRUE,,,
travel,91,447221,0.0-30.0-0.0,,,,,,,,,,,"[{""stimulus"":""run_exp/static/images/task_images/rocket-01.jpg"",""time"":0.1700000138953328},{""stimulus"":""run_exp/static/images/task_images/rocket-02.jpg"",""time"":1064.1349999932572},{""stimulus"":""run_exp/static/images/task_images/rocket-03.jpg"",""time"":2124.1399999707937},{""stimulus"":""run_exp/static/images/task_images/rocket-04.jpg"",""time"":3178.704999969341},{""stimulus"":""run_exp/static/images/task_images/rocket-05.jpg"",""time"":4241.559999994934},{""stimulus"":""run_exp/static/images/task_images/rocket-06.jpg"",""time"":5296.084999979939},{""stimulus"":""run_exp/static/images/task_images/rocket-07.jpg"",""time"":6360.340000013821},{""stimulus"":""run_exp/static/images/task_images/rocket-08.jpg"",""time"":7419.144999992568},{""stimulus"":""run_exp/static/images/task_images/rocket-09.jpg"",""time"":8475.969999970403}]",[],3,,,,,,,,,,,,,,
alien_welcome,92,452228,0.0-30.0-1.0,,null,run_exp/static/images/task_images/aliens/old_aliens/planet/alien_planet-22.jpg,null,,,,,,,,,,,,22,"42,2,49,22,64,27,54,24,12,18,76,60,71,56,13,1,40,68,15,70,69,37,8,58,45,79,23,57,36,25,63,35,78,73,17,21,47,43,67,55,51,9",,,,,,,,,,
land,93,452732,0.0-30.0-2.0,,null,run_exp/static/images/task_images/land.jpg,null,,,,,,100,,,4,,,,,,,,,,,,,,
dig,94,454740,0.0-30.0-3.0,,,,,,,,,,,"[{""stimulus"":""run_exp/static/images/task_images/dig.jpg"",""time"":0.2799999783746898},{""stimulus"":""run_exp/static/images/task_images/land.jpg"",""time"":672.1499999985099},{""stimulus"":""run_exp/static/images/task_images/dig.jpg"",""time"":1340.265000006184}]",[],4,,,,,,,,,,,,,,
harvest,95,455745,0.0-30.0-4.0,,null,run_exp/static/images/task_images/gems/100.jpg,null,,,,,,56,,,4,,,,,100,0.556455239,0.56,,,,,,,
decision,96,456138,0.0-30.0-5.0,,391.04,run_exp/static/images/task_images/land.jpg,65,,,,,,56,,,4,,,,,,,,80532,1,0,FALSE,,,
dig,97,458748,0.0-31.0-0.0,,,,,,,,,,,"[{""stimulus"":""run_exp/static/images/task_images/dig.jpg"",""time"":0.14000001829117537},{""stimulus"":""run_exp/static/images/task_images/land.jpg"",""time"":875.0800000270829},{""stimulus"":""run_exp/static/images/task_images/dig.jpg"",""time"":1743.0850000237115}]",[],4,,,,,,,,,,,,,,
harvest,98,459750,0.0-31.0-1.0,,null,run_exp/static/images/task_images/gems/56.jpg,null,,,,,,26,,,4,,,,,56,0.467843572,0.464285714,,,,,,,
decision,99,460834,0.0-31.0-2.0,,1082.29,run_exp/static/images/task_images/land.jpg,65,,,,,,26,,,4,,,,,,,,85228,1,1,FALSE,,,
dig,100,462755,0.0-32.0-0.0,,,,,,,,,,,"[{""stimulus"":""run_exp/static/images/task_images/dig.jpg"",""time"":0.16500003403052688},{""stimulus"":""run_exp/static/images/task_images/land.jpg"",""time"":644.3100000033155},{""stimulus"":""run_exp/static/images/task_images/dig.jpg"",""time"":1280.4650000180118}]",[],4,,,,,,,,,,,,,,
harvest,101,463760,0.0-32.0-1.0,,null,run_exp/static/images/task_images/gems/26.jpg,null,,,,,,14,,,4,,,,,26,0.548481629,0.538461538,,,,,,,
decision,102,463914,0.0-32.0-2.0,,151.94,run_exp/static/images/task_images/land.jpg,76,,,,,,14,,,4,,,,,,,,88308,1,2,TRUE,,,
travel,103,473766,0.0-33.0-0.0,,,,,,,,,,,"[{""stimulus"":""run_exp/static/images/task_images/rocket-01.jpg"",""time"":0.1550000160932541},{""stimulus"":""run_exp/static/images/task_images/rocket-02.jpg"",""time"":1095.195000001695},{""stimulus"":""run_exp/static/images/task_images/rocket-03.jpg"",""time"":2188.8949999702163},{""stimulus"":""run_exp/static/images/task_images/rocket-04.jpg"",""time"":3284.685000020545},{""stimulus"":""run_exp/static/images/task_images/rocket-05.jpg"",""time"":4378.949999983888},{""stimulus"":""run_exp/static/images/task_images/rocket-06.jpg"",""time"":5476.135000004433},{""stimulus"":""run_exp/static/images/task_images/rocket-07.jpg"",""time"":6568.525000009686},{""stimulus"":""run_exp/static/images/task_images/rocket-08.jpg"",""time"":7659.860000014305},{""stimulus"":""run_exp/static/images/task_images/rocket-09.jpg"",""time"":8757.890000008047}]",[],4,,,,,,,,,,,,,,
alien_welcome,104,478770,0.0-33.0-1.0,,null,run_exp/static/images/task_images/aliens/old_aliens/planet/alien_planet-64.jpg,null,,,,,,,,,,,,64,"42,2,49,22,64,27,54,24,12,18,76,60,71,56,13,1,40,68,15,70,69,37,8,58,45,79,23,57,36,25,63,35,78,73,17,21,47,43,67,55,51,9",,,,,,,,,,
land,105,479277,0.0-33.0-2.0,,null,run_exp/static/images/task_images/land.jpg,null,,,,,,102,,,5,,,,,,,,,,,,,,
dig,106,481286,0.0-33.0-3.0,,,,,,,,,,,"[{""stimulus"":""run_exp/static/images/task_images/dig.jpg"",""time"":0.28500001644715667},{""stimulus"":""run_exp/static/images/task_images/land.jpg"",""time"":670.0500000151806},{""stimulus"":""run_exp/static/images/task_images/dig.jpg"",""time"":1337.5850000302307}]",[],5,,,,,,,,,,,,,,
harvest,107,482290,0.0-33.0-4.0,,null,run_exp/static/images/task_images/gems/102.jpg,null,,,,,,51,,,5,,,,,102,0.495421195,0.5,,,,,,,
decision,108,483322,0.0-33.0-5.0,,1030.555,run_exp/static/images/task_images/land.jpg,65,,,,,,51,,,5,,,,,,,,107716,1,0,FALSE,,,
dig,109,485297,0.0-34.0-0.0,,,,,,,,,,,"[{""stimulus"":""run_exp/static/images/task_images/dig.jpg"",""time"":0.15999999595806003},{""stimulus"":""run_exp/static/images/task_images/land.jpg"",""time"":658.2599999965169},{""stimulus"":""run_exp/static/images/task_images/dig.jpg"",""time"":1313.1300000241026}]",[],5,,,,,,,,,,,,,,
harvest,110,486298,0.0-34.0-1.0,,null,run_exp/static/images/task_images/gems/51.jpg,null,,,,,,28,,,5,,,,,51,0.540023829,0.549019608,,,,,,,
decision,111,487362,0.0-34.0-2.0,,1062.32,run_exp/static/images/task_images/land.jpg,65,,,,,,28,,,5,,,,,,,,111756,1,1,FALSE,,,
dig,112,489301,0.0-35.0-0.0,,,,,,,,,,,"[{""stimulus"":""run_exp/static/images/task_images/dig.jpg"",""time"":0.13999996008351445},{""stimulus"":""run_exp/static/images/task_images/land.jpg"",""time"":648.1849999981932},{""stimulus"":""run_exp/static/images/task_images/dig.jpg"",""time"":1296.074999962002}]",[],5,,,,,,,,,,,,,,
harvest,113,490305,0.0-35.0-1.0,,null,run_exp/static/images/task_images/gems/28.jpg,null,,,,,,13,,,5,,,,,28,0.46954143,0.464285714,,,,,,,
decision,114,490578,0.0-35.0-2.0,,271.25,run_exp/static/images/task_images/land.jpg,76,,,,,,13,,,5,,,,,,,,114972,1,2,TRUE,,,
travel,115,500306,0.0-36.0-0.0,,,,,,,,,,,"[{""stimulus"":""run_exp/static/images/task_images/rocket-01.jpg"",""time"":0.1550000160932541},{""stimulus"":""run_exp/static/images/task_images/rocket-02.jpg"",""time"":1081.000000005588},{""stimulus"":""run_exp/static/images/task_images/rocket-03.jpg"",""time"":2165.205000026617},{""stimulus"":""run_exp/static/images/task_images/rocket-04.jpg"",""time"":3241.8199999956414},{""stimulus"":""run_exp/static/images/task_images/rocket-05.jpg"",""time"":4323.860000004061},{""stimulus"":""run_exp/static/images/task_images/rocket-06.jpg"",""time"":5403.2700000097975},{""stimulus"":""run_exp/static/images/task_images/rocket-07.jpg"",""time"":6481.970000022557},{""stimulus"":""run_exp/static/images/task_images/rocket-08.jpg"",""time"":7566.159999987576},{""stimulus"":""run_exp/static/images/task_images/rocket-09.jpg"",""time"":8642.749999999069}]",[],5,,,,,,,,,,,,,,
alien_welcome,116,505308,0.0-36.0-1.0,,null,run_exp/static/images/task_images/aliens/old_aliens/planet/alien_planet-27.jpg,null,,,,,,,,,,,,27,"42,2,49,22,64,27,54,24,12,18,76,60,71,56,13,1,40,68,15,70,69,37,8,58,45,79,23,57,36,25,63,35,78,73,17,21,47,43,67,55,51,9",,,,,,,,,,
land,117,505810,0.0-36.0-2.0,,null,run_exp/static/images/task_images/land.jpg,null,,,,,,102,,,6,,,,,,,,,,,,,,
dig,118,507815,0.0-36.0-3.0,,,,,,,,,,,"[{""stimulus"":""run_exp/static/images/task_images/dig.jpg"",""time"":0.2749999985098839},{""stimulus"":""run_exp/static/images/task_images/land.jpg"",""time"":671.9550000270829},{""stimulus"":""run_exp/static/images/task_images/dig.jpg"",""time"":1338.5750000015832}]",[],6,,,,,,,,,,,,,,
harvest,119,508820,0.0-36.0-4.0,,null,run_exp/static/images/task_images/gems/102.jpg,null,,,,,,80,,,6,,,,,102,0.787608913,0.784313725,,,,,,,
decision,120,509338,0.0-36.0-5.0,,516.905,run_exp/static/images/task_images/land.jpg,65,,,,,,80,,,6,,,,,,,,133732,1,0,FALSE,,,
dig,121,511823,0.0-37.0-0.0,,,,,,,,,,,"[{""stimulus"":""run_exp/static/images/task_images/dig.jpg"",""time"":0.14000001829117537},{""stimulus"":""run_exp/static/images/task_images/land.jpg"",""time"":829.085000033956},{""stimulus"":""run_exp/static/images/task_images/dig.jpg"",""time"":1660.0200000102632}]",[],6,,,,,,,,,,,,,,
harvest,122,512827,0.0-37.0-1.0,,null,run_exp/static/images/task_images/gems/80.jpg,null,,,,,,70,,,6,,,,,80,0.877553913,0.875,,,,,,,
decision,123,513611,0.0-37.0-2.0,,782.69,run_exp/static/images/task_images/land.jpg,65,,,,,,70,,,6,,,,,,,,138005,1,1,FALSE,,,
dig,124,515833,0.0-38.0-0.0,,,,,,,,,,,"[{""stimulus"":""run_exp/static/images/task_images/dig.jpg"",""time"":0.14999997802078724},{""stimulus"":""run_exp/static/images/task_images/land.jpg"",""time"":740.5199999921024},{""stimulus"":""run_exp/static/images/task_images/dig.jpg"",""time"":1479.9549999879673}]",[],6,,,,,,,,,,,,,,
harvest,125,516840,0.0-38.0-1.0,,null,run_exp/static/images/task_images/gems/70.jpg,null,,,,,,61,,,6,,,,,70,0.867739423,0.871428571,,,,,,,
decision,126,517420,0.0-38.0-2.0,,578.685,run_exp/static/images/task_images/land.jpg,65,,,,,,61,,,6,,,,,,,,141814,1,2,FALSE,,,
dig,127,519845,0.0-39.0-0.0,,,,,,,,,,,"[{""stimulus"":""run_exp/static/images/task_images/dig.jpg"",""time"":0.15499995788559318},{""stimulus"":""run_exp/static/images/task_images/land.jpg"",""time"":812.4649999663234},{""stimulus"":""run_exp/static/images/task_images/dig.jpg"",""time"":1620.1249999576248}]",[],6,,,,,,,,,,,,,,
harvest,128,520848,0.0-39.0-1.0,,null,run_exp/static/images/task_images/gems/61.jpg,null,,,,,,46,,,6,,,,,61,0.749158053,0.754098361,,,,,,,
decision,129,521547,0.0-39.0-2.0,,698.15,run_exp/static/images/task_images/land.jpg,65,,,,,,46,,,6,,,,,,,,145941,1,3,FALSE,,,
dig,130,523854,0.0-40.0-0.0,,,,,,,,,,,"[{""stimulus"":""run_exp/static/images/task_images/dig.jpg"",""time"":0.14000001829117537},{""stimulus"":""run_exp/static/images/task_images/land.jpg"",""time"":768.5850000125356},{""stimulus"":""run_exp/static/images/task_images/dig.jpg"",""time"":1536.629999987781}]",[],6,,,,,,,,,,,,,,
harvest,131,524857,0.0-40.0-1.0,,null,run_exp/static/images/task_images/gems/46.jpg,null,,,,,,37,,,6,,,,,46,0.802288533,0.804347826,,,,,,,
decision,132,525675,0.0-40.0-2.0,,816.65,run_exp/static/images/task_images/land.jpg,65,,,,,,37,,,6,,,,,,,,150069,1,4,FALSE,,,
dig,133,527863,0.0-41.0-0.0,,,,,,,,,,,"[{""stimulus"":""run_exp/static/images/task_images/dig.jpg"",""time"":0.15999999595806003},{""stimulus"":""run_exp/static/images/task_images/land.jpg"",""time"":729.0800000191666},{""stimulus"":""run_exp/static/images/task_images/dig.jpg"",""time"":1460.1450000191107}]",[],6,,,,,,,,,,,,,,
harvest,134,528869,0.0-41.0-1.0,,null,run_exp/static/images/task_images/gems/37.jpg,null,,,,,,30,,,6,,,,,37,0.807146534,0.810810811,,,,,,,
decision,135,529371,0.0-41.0-2.0,,501.18,run_exp/static/images/task_images/land.jpg,76,,,,,,30,,,6,,,,,,,,153765,1,5,TRUE,,,
travel,136,538875,0.0-42.0-0.0,,,,,,,,,,,"[{""stimulus"":""run_exp/static/images/task_images/rocket-01.jpg"",""time"":0.14000001829117537},{""stimulus"":""run_exp/static/images/task_images/rocket-02.jpg"",""time"":1056.3850000035018},{""stimulus"":""run_exp/static/images/task_images/rocket-03.jpg"",""time"":2116.05499999132},{""stimulus"":""run_exp/static/images/task_images/rocket-04.jpg"",""time"":3170.994999993127},{""stimulus"":""run_exp/static/images/task_images/rocket-05.jpg"",""time"":4223.545000015292},{""stimulus"":""run_exp/static/images/task_images/rocket-06.jpg"",""time"":5276.364999997895},{""stimulus"":""run_exp/static/images/task_images/rocket-07.jpg"",""time"":6333.01499998197},{""stimulus"":""run_exp/static/images/task_images/rocket-08.jpg"",""time"":7389.544999983627},{""stimulus"":""run_exp/static/images/task_images/rocket-09.jpg"",""time"":8441.004999971483}]",[],6,,,,,,,,,,,,,,
alien_welcome,137,543881,0.0-42.0-1.0,,null,run_exp/static/images/task_images/aliens/old_aliens/planet/alien_planet-54.jpg,null,,,,,,,,,,,,54,"42,2,49,22,64,27,54,24,12,18,76,60,71,56,13,1,40,68,15,70,69,37,8,58,45,79,23,57,36,25,63,35,78,73,17,21,47,43,67,55,51,9",,,,,,,,,,
land,138,544383,0.0-42.0-2.0,,null,run_exp/static/images/task_images/land.jpg,null,,,,,,91,,,7,,,,,,,,,,,,,,
dig,139,546391,0.0-42.0-3.0,,,,,,,,,,,"[{""stimulus"":""run_exp/static/images/task_images/dig.jpg"",""time"":0.27000001864507794},{""stimulus"":""run_exp/static/images/task_images/land.jpg"",""time"":669.1700000083074},{""stimulus"":""run_exp/static/images/task_images/dig.jpg"",""time"":1340.265000006184}]",[],7,,,,,,,,,,,,,,
harvest,140,547397,0.0-42.0-4.0,,null,run_exp/static/images/task_images/gems/91.jpg,null,,,,,,74,,,7,,,,,91,0.811539548,0.813186813,,,,,,,
decision,141,548084,0.0-42.0-5.0,,685.485,run_exp/static/images/task_images/land.jpg,65,,,,,,74,,,7,,,,,,,,172478,1,0,FALSE,,,
dig,142,550403,0.0-43.0-0.0,,,,,,,,,,,"[{""stimulus"":""run_exp/static/images/task_images/dig.jpg"",""time"":0.14000001829117537},{""stimulus"":""run_exp/static/images/task_images/land.jpg"",""time"":774.8300000093877},{""stimulus"":""run_exp/static/images/task_images/dig.jpg"",""time"":1546.8700000201352}]",[],7,,,,,,,,,,,,,,
harvest,143,551409,0.0-43.0-1.0,,null,run_exp/static/images/task_images/gems/74.jpg,null,,,,,,57,,,7,,,,,74,0.775911975,0.77027027,,,,,,,
decision,144,551892,0.0-43.0-2.0,,481.28,run_exp/static/images/task_images/land.jpg,65,,,,,,57,,,7,,,,,,,,176286,1,1,FALSE,,,
dig,145,554416,0.0-44.0-0.0,,,,,,,,,,,"[{""stimulus"":""run_exp/static/images/task_images/dig.jpg"",""time"":0.1700000138953328},{""stimulus"":""run_exp/static/images/task_images/land.jpg"",""time"":843.0550000048243},{""stimulus"":""run_exp/static/images/task_images/dig.jpg"",""time"":1680.6650000507943}]",[],7,,,,,,,,,,,,,,
harvest,146,555418,0.0-44.0-1.0,,null,run_exp/static/images/task_images/gems/57.jpg,null,,,,,,48,,,7,,,,,57,0.842315976,0.842105263,,,,,,,
decision,147,555708,0.0-44.0-2.0,,288.435,run_exp/static/images/task_images/land.jpg,65,,,,,,48,,,7,,,,,,,,180102,1,2,FALSE,,,
dig,148,558425,0.0-45.0-0.0,,,,,,,,,,,"[{""stimulus"":""run_exp/static/images/task_images/dig.jpg"",""time"":0.23500004317611456},{""stimulus"":""run_exp/static/images/task_images/land.jpg"",""time"":904.8400000319816},{""stimulus"":""run_exp/static/images/task_images/dig.jpg"",""time"":1811.7800000472926}]",[],7,,,,,,,,,,,,,,
harvest,149,559430,0.0-45.0-1.0,,null,run_exp/static/images/task_images/gems/48.jpg,null,,,,,,36,,,7,,,,,48,0.759211109,0.75,,,,,,,
decision,150,559749,0.0-45.0-2.0,,317.715,run_exp/static/images/task_images/land.jpg,65,,,,,,36,,,7,,,,,,,,184143,1,3,FALSE,,,
dig,151,562436,0.0-46.0-0.0,,,,,,,,,,,"[{""stimulus"":""run_exp/static/images/task_images/dig.jpg"",""time"":0.1449999981559813},{""stimulus"":""run_exp/static/images/task_images/land.jpg"",""time"":899.6599999954924},{""stimulus"":""run_exp/static/images/task_images/dig.jpg"",""time"":1793.7049999600276}]",[],7,,,,,,,,,,,,,,
harvest,152,563442,0.0-46.0-1.0,,null,run_exp/static/images/task_images/gems/36.jpg,null,,,,,,26,,,7,,,,,36,0.713677505,0.722222222,,,,,,,
decision,153,563756,0.0-46.0-2.0,,311.94,run_exp/static/images/task_images/land.jpg,76,,,,,,26,,,7,,,,,,,,188150,1,4,TRUE,,,
travel,154,573445,0.0-47.0-0.0,,,,,,,,,,,"[{""stimulus"":""run_exp/static/images/task_images/rocket-01.jpg"",""time"":0.1449999981559813},{""stimulus"":""run_exp/static/images/task_images/rocket-02.jpg"",""time"":1078.5399999585934},{""stimulus"":""run_exp/static/images/task_images/rocket-03.jpg"",""time"":2158.0700000049546},{""stimulus"":""run_exp/static/images/task_images/rocket-04.jpg"",""time"":3234.1099999612197},{""stimulus"":""run_exp/static/images/task_images/rocket-05.jpg"",""time"":4306.0699999914505},{""stimulus"":""run_exp/static/images/task_images/rocket-06.jpg"",""time"":5386.070000007749},{""stimulus"":""run_exp/static/images/task_images/rocket-07.jpg"",""time"":6462.0799999684095},{""stimulus"":""run_exp/static/images/task_images/rocket-08.jpg"",""time"":7533.724999986589},{""stimulus"":""run_exp/static/images/task_images/rocket-09.jpg"",""time"":8612.519999966025}]",[],7,,,,,,,,,,,,,,
alien_welcome,155,578447,0.0-47.0-1.0,,null,run_exp/static/images/task_images/aliens/old_aliens/planet/alien_planet-24.jpg,null,,,,,,,,,,,,24,"42,2,49,22,64,27,54,24,12,18,76,60,71,56,13,1,40,68,15,70,69,37,8,58,45,79,23,57,36,25,63,35,78,73,17,21,47,43,67,55,51,9",,,,,,,,,,
land,156,578954,0.0-47.0-2.0,,null,run_exp/static/images/task_images/land.jpg,null,,,,,,99,,,8,,,,,,,,,,,,,,
dig,157,580963,0.0-47.0-3.0,,,,,,,,,,,"[{""stimulus"":""run_exp/static/images/task_images/dig.jpg"",""time"":0.28500001644715667},{""stimulus"":""run_exp/static/images/task_images/land.jpg"",""time"":672.1900000120513},{""stimulus"":""run_exp/static/images/task_images/dig.jpg"",""time"":1340.2900000219233}]",[],8,,,,,,,,,,,,,,
harvest,158,581969,0.0-47.0-4.0,,null,run_exp/static/images/task_images/gems/99.jpg,null,,,,,,81,,,8,,,,,99,0.815109505,0.818181818,,,,,,,
decision,159,582262,0.0-47.0-5.0,,291.6300001,run_exp/static/images/task_images/land.jpg,65,,,,,,81,,,8,,,,,,,,206656,1,0,FALSE,,,
dig,160,584974,0.0-48.0-0.0,,,,,,,,,,,"[{""stimulus"":""run_exp/static/images/task_images/dig.jpg"",""time"":0.14000001829117537},{""stimulus"":""run_exp/static/images/task_images/land.jpg"",""time"":903.9400000474416},{""stimulus"":""run_exp/static/images/task_images/dig.jpg"",""time"":1808.88500000583}]",[],8,,,,,,,,,,,,,,
harvest,161,585980,0.0-48.0-1.0,,null,run_exp/static/images/task_images/gems/81.jpg,null,,,,,,70,,,8,,,,,81,0.867470955,0.864197531,,,,,,,
decision,162,586325,0.0-48.0-2.0,,343.415,run_exp/static/images/task_images/land.jpg,65,,,,,,70,,,8,,,,,,,,210719,1,1,FALSE,,,
dig,163,588985,0.0-49.0-0.0,,,,,,,,,,,"[{""stimulus"":""run_exp/static/images/task_images/dig.jpg"",""time"":0.1700000138953328},{""stimulus"":""run_exp/static/images/task_images/land.jpg"",""time"":891.1349999834783},{""stimulus"":""run_exp/static/images/task_images/dig.jpg"",""time"":1776.190000004135}]",[],8,,,,,,,,,,,,,,
harvest,164,589991,0.0-49.0-1.0,,null,run_exp/static/images/task_images/gems/70.jpg,null,,,,,,61,,,8,,,,,70,0.871836009,0.871428571,,,,,,,
decision,165,590341,0.0-49.0-2.0,,348.19,run_exp/static/images/task_images/land.jpg,65,,,,,,61,,,8,,,,,,,,214735,1,2,FALSE,,,
dig,166,592998,0.0-50.0-0.0,,,,,,,,,,,"[{""stimulus"":""run_exp/static/images/task_images/dig.jpg"",""time"":0.13500003842636943},{""stimulus"":""run_exp/static/images/task_images/land.jpg"",""time"":887.2299999929965},{""stimulus"":""run_exp/static/images/task_images/dig.jpg"",""time"":1772.0550000085495}]",[],8,,,,,,,,,,,,,,
harvest,167,594002,0.0-50.0-1.0,,null,run_exp/static/images/task_images/gems/61.jpg,null,,,,,,54,,,8,,,,,61,0.892972522,0.885245902,,,,,,,
decision,168,594342,0.0-50.0-2.0,,338.355,run_exp/static/images/task_images/land.jpg,65,,,,,,54,,,8,,,,,,,,218736,1,3,FALSE,,,
dig,169,597009,0.0-51.0-0.0,,,,,,,,,,,"[{""stimulus"":""run_exp/static/images/task_images/dig.jpg"",""time"":0.14000001829117537},{""stimulus"":""run_exp/static/images/task_images/land.jpg"",""time"":888.3149999892339},{""stimulus"":""run_exp/static/images/task_images/dig.jpg"",""time"":1774.8300000093877}]",[],8,,,,,,,,,,,,,,
harvest,170,598016,0.0-51.0-1.0,,null,run_exp/static/images/task_images/gems/54.jpg,null,,,,,,44,,,8,,,,,54,0.813369856,0.814814815,,,,,,,
decision,171,598461,0.0-51.0-2.0,,443.42,run_exp/static/images/task_images/land.jpg,65,,,,,,44,,,8,,,,,,,,222855,1,4,FALSE,,,
dig,172,601023,0.0-52.0-0.0,,,,,,,,,,,"[{""stimulus"":""run_exp/static/images/task_images/dig.jpg"",""time"":0.1700000138953328},{""stimulus"":""run_exp/static/images/task_images/land.jpg"",""time"":854.2749999905936},{""stimulus"":""run_exp/static/images/task_images/dig.jpg"",""time"":1710.1600000169128}]",[],8,,,,,,,,,,,,,,
harvest,173,602027,0.0-52.0-1.0,,null,run_exp/static/images/task_images/gems/44.jpg,null,,,,,,35,,,8,,,,,44,0.796037502,0.795454545,,,,,,,
decision,174,602397,0.0-52.0-2.0,,368.015,run_exp/static/images/task_images/land.jpg,65,,,,,,35,,,8,,,,,,,,226791,1,5,FALSE,,,
dig,175,605032,0.0-53.0-0.0,,,,,,,,,,,"[{""stimulus"":""run_exp/static/images/task_images/dig.jpg"",""time"":0.1449999981559813},{""stimulus"":""run_exp/static/images/task_images/land.jpg"",""time"":881.5949999843724},{""stimulus"":""run_exp/static/images/task_images/dig.jpg"",""time"":1760.1049999939278}]",[],8,,,,,,,,,,,,,,
harvest,176,606036,0.0-53.0-1.0,,null,run_exp/static/images/task_images/gems/35.jpg,null,,,,,,27,,,8,,,,,35,0.775520793,0.771428571,,,,,,,
decision,177,606358,0.0-53.0-2.0,,320.265,run_exp/static/images/task_images/land.jpg,76,,,,,,27,,,8,,,,,,,,230752,1,6,TRUE,,,
travel,178,616039,0.0-54.0-0.0,,,,,,,,,,,"[{""stimulus"":""run_exp/static/images/task_images/rocket-01.jpg"",""time"":0.15999999595806003},{""stimulus"":""run_exp/static/images/task_images/rocket-02.jpg"",""time"":1079.1449999669567},{""stimulus"":""run_exp/static/images/task_images/rocket-03.jpg"",""time"":2154.0549999917857},{""stimulus"":""run_exp/static/images/task_images/rocket-04.jpg"",""time"":3225.899999961257},{""stimulus"":""run_exp/static/images/task_images/rocket-05.jpg"",""time"":4306.080000009388},{""stimulus"":""run_exp/static/images/task_images/rocket-06.jpg"",""time"":5381.089999980759},{""stimulus"":""run_exp/static/images/task_images/rocket-07.jpg"",""time"":6456.094999972265},{""stimulus"":""run_exp/static/images/task_images/rocket-08.jpg"",""time"":7527.814999979455},{""stimulus"":""run_exp/static/images/task_images/rocket-09.jpg"",""time"":8601.525000005495}]",[],8,,,,,,,,,,,,,,
alien_welcome,179,621046,0.0-54.0-1.0,,null,run_exp/static/images/task_images/aliens/old_aliens/planet/alien_planet-12.jpg,null,,,,,,,,,,,,12,"42,2,49,22,64,27,54,24,12,18,76,60,71,56,13,1,40,68,15,70,69,37,8,58,45,79,23,57,36,25,63,35,78,73,17,21,47,43,67,55,51,9",,,,,,,,,,
land,180,621548,0.0-54.0-2.0,,null,run_exp/static/images/task_images/land.jpg,null,,,,,,110,,,9,,,,,,,,,,,,,,
dig,181,623556,0.0-54.0-3.0,,,,,,,,,,,"[{""stimulus"":""run_exp/static/images/task_images/dig.jpg"",""time"":0.2749999985098839},{""stimulus"":""run_exp/static/images/task_images/land.jpg"",""time"":673.2949999859557},{""stimulus"":""run_exp/static/images/task_images/dig.jpg"",""time"":1337.8600000287406}]",[],9,,,,,,,,,,,,,,
harvest,182,624561,0.0-54.0-4.0,,null,run_exp/static/images/task_images/gems/110.jpg,null,,,,,,25,,,9,,,,,110,0.229781916,0.227272727,,,,,,,
decision,183,624895,0.0-54.0-5.0,,332.91,run_exp/static/images/task_images/land.jpg,65,,,,,,25,,,9,,,,,,,,249289,1,0,FALSE,,,
dig,184,627567,0.0-55.0-0.0,,,,,,,,,,,"[{""stimulus"":""run_exp/static/images/task_images/dig.jpg"",""time"":0.1449999981559813},{""stimulus"":""run_exp/static/images/task_images/land.jpg"",""time"":893.0849999887869},{""stimulus"":""run_exp/static/images/task_images/dig.jpg"",""time"":1780.109999992419}]",[],9,,,,,,,,,,,,,,
harvest,185,628574,0.0-55.0-1.0,,null,run_exp/static/images/task_images/gems/25.jpg,null,,,,,,2,,,9,,,,,25,0.099192331,0.08,,,,,,,
decision,186,628878,0.0-55.0-2.0,,303.32,run_exp/static/images/task_images/land.jpg,76,,,,,,2,,,9,,,,,,,,253272,1,1,TRUE,,,
travel,187,638580,0.0-56.0-0.0,,,,,,,,,,,"[{""stimulus"":""run_exp/static/images/task_images/rocket-01.jpg"",""time"":0.17499999376013875},{""stimulus"":""run_exp/static/images/task_images/rocket-02.jpg"",""time"":1083.1149999867193},{""stimulus"":""run_exp/static/images/task_images/rocket-03.jpg"",""time"":2157.6249999925494},{""stimulus"":""run_exp/static/images/task_images/rocket-04.jpg"",""time"":3234.794999996666},{""stimulus"":""run_exp/static/images/task_images/rocket-05.jpg"",""time"":4314.100000017788},{""stimulus"":""run_exp/static/images/task_images/rocket-06.jpg"",""time"":5391.125000023749},{""stimulus"":""run_exp/static/images/task_images/rocket-07.jpg"",""time"":6463.050000020303},{""stimulus"":""run_exp/static/images/task_images/rocket-08.jpg"",""time"":7544.9849999859},{""stimulus"":""run_exp/static/images/task_images/rocket-09.jpg"",""time"":8621.08499999158}]",[],9,,,,,,,,,,,,,,
alien_welcome,188,643585,0.0-56.0-1.0,,null,run_exp/static/images/task_images/aliens/old_aliens/planet/alien_planet-18.jpg,null,,,,,,,,,,,,18,"42,2,49,22,64,27,54,24,12,18,76,60,71,56,13,1,40,68,15,70,69,37,8,58,45,79,23,57,36,25,63,35,78,73,17,21,47,43,67,55,51,9",,,,,,,,,,
land,189,644089,0.0-56.0-2.0,,null,run_exp/static/images/task_images/land.jpg,null,,,,,,95,,,10,,,,,,,,,,,,,,
dig,190,646098,0.0-56.0-3.0,,,,,,,,,,,"[{""stimulus"":""run_exp/static/images/task_images/dig.jpg"",""time"":0.2799999783746898},{""stimulus"":""run_exp/static/images/task_images/land.jpg"",""time"":672.019999998156},{""stimulus"":""run_exp/static/images/task_images/dig.jpg"",""time"":1340.314999979455}]",[],10,,,,,,,,,,,,,,
harvest,191,647103,0.0-56.0-4.0,,null,run_exp/static/images/task_images/gems/95.jpg,null,,,,,,19,,,10,,,,,95,0.196210878,0.2,,,,,,,
decision,192,647447,0.0-56.0-5.0,,342.785,run_exp/static/images/task_images/land.jpg,65,,,,,,19,,,10,,,,,,,,271841,1,0,FALSE,,,
dig,193,650110,0.0-57.0-0.0,,,,,,,,,,,"[{""stimulus"":""run_exp/static/images/task_images/dig.jpg"",""time"":0.13500003842636943},{""stimulus"":""run_exp/static/images/task_images/land.jpg"",""time"":889.0799999935552},{""stimulus"":""run_exp/static/images/task_images/dig.jpg"",""time"":1771.535000007134}]",[],10,,,,,,,,,,,,,,
harvest,194,651113,0.0-57.0-1.0,,null,run_exp/static/images/task_images/gems/19.jpg,null,,,,,,3,,,10,,,,,19,0.169026734,0.157894737,,,,,,,
decision,195,651137,0.0-57.0-2.0,,21.94499999,run_exp/static/images/task_images/land.jpg,76,,,,,,3,,,10,,,,,,,,275531,1,1,TRUE,,,
travel,196,661116,0.0-58.0-0.0,,,,,,,,,,,"[{""stimulus"":""run_exp/static/images/task_images/rocket-01.jpg"",""time"":0.12499996228143573},{""stimulus"":""run_exp/static/images/task_images/rocket-02.jpg"",""time"":1114.049999974668},{""stimulus"":""run_exp/static/images/task_images/rocket-03.jpg"",""time"":2222.104999993462},{""stimulus"":""run_exp/static/images/task_images/rocket-04.jpg"",""time"":3325.394999992568},{""stimulus"":""run_exp/static/images/task_images/rocket-05.jpg"",""time"":4432.954999967478},{""stimulus"":""run_exp/static/images/task_images/rocket-06.jpg"",""time"":5546.119999955408},{""stimulus"":""run_exp/static/images/task_images/rocket-07.jpg"",""time"":6650.009999983013},{""stimulus"":""run_exp/static/images/task_images/rocket-08.jpg"",""time"":7759.764999966137},{""stimulus"":""run_exp/static/images/task_images/rocket-09.jpg"",""time"":8865.564999985509}]",[],10,,,,,,,,,,,,,,
alien_welcome,197,666122,0.0-58.0-1.0,,null,run_exp/static/images/task_images/aliens/old_aliens/planet/alien_planet-76.jpg,null,,,,,,,,,,,,76,"42,2,49,22,64,27,54,24,12,18,76,60,71,56,13,1,40,68,15,70,69,37,8,58,45,79,23,57,36,25,63,35,78,73,17,21,47,43,67,55,51,9",,,,,,,,,,
land,198,666627,0.0-58.0-2.0,,null,run_exp/static/images/task_images/land.jpg,null,,,,,,99,,,11,,,,,,,,,,,,,,
dig,199,668632,0.0-58.0-3.0,,,,,,,,,,,"[{""stimulus"":""run_exp/static/images/task_images/dig.jpg"",""time"":0.28500001644715667},{""stimulus"":""run_exp/static/images/task_images/land.jpg"",""time"":673.3249999815598},{""stimulus"":""run_exp/static/images/task_images/dig.jpg"",""time"":1337.1550000156276}]",[],11,,,,,,,,,,,,,,
harvest,200,669638,0.0-58.0-4.0,,null,run_exp/static/images/task_images/gems/99.jpg,null,,,,,,20,,,11,,,,,99,0.205291253,0.202020202,,,,,,,
decision,201,669961,0.0-58.0-5.0,,321.045,run_exp/static/images/task_images/land.jpg,65,,,,,,20,,,11,,,,,,,,294355,1,0,FALSE,,,
dig,202,672641,0.0-59.0-0.0,,,,,,,,,,,"[{""stimulus"":""run_exp/static/images/task_images/dig.jpg"",""time"":0.1449999981559813},{""stimulus"":""run_exp/static/images/task_images/land.jpg"",""time"":897.5250000366941},{""stimulus"":""run_exp/static/images/task_images/dig.jpg"",""time"":1789.1750000417233}]",[],11,,,,,,,,,,,,,,
harvest,203,673643,0.0-59.0-1.0,,null,run_exp/static/images/task_images/gems/20.jpg,null,,,,,,3,,,11,,,,,20,0.16831768,0.15,,,,,,,
decision,204,673928,0.0-59.0-2.0,,283.2,run_exp/static/images/task_images/land.jpg,76,,,,,,3,,,11,,,,,,,,298322,1,1,TRUE,,,
travel,205,683643,0.0-60.0-0.0,,,,,,,,,,,"[{""stimulus"":""run_exp/static/images/task_images/rocket-01.jpg"",""time"":0.1449999981559813},{""stimulus"":""run_exp/static/images/task_images/rocket-02.jpg"",""time"":1081.2150000128895},{""stimulus"":""run_exp/static/images/task_images/rocket-03.jpg"",""time"":2160.13999999268},{""stimulus"":""run_exp/static/images/task_images/rocket-04.jpg"",""time"":3238.004999991972},{""stimulus"":""run_exp/static/images/task_images/rocket-05.jpg"",""time"":4322.074999974575},{""stimulus"":""run_exp/static/images/task_images/rocket-06.jpg"",""time"":5396.439999982249},{""stimulus"":""run_exp/static/images/task_images/rocket-07.jpg"",""time"":6479.905000014696},{""stimulus"":""run_exp/static/images/task_images/rocket-08.jpg"",""time"":7559.115000010934},{""stimulus"":""run_exp/static/images/task_images/rocket-09.jpg"",""time"":8634.604999970179}]",[],11,,,,,,,,,,,,,,
alien_welcome,206,688648,0.0-60.0-1.0,,null,run_exp/static/images/task_images/aliens/old_aliens/planet/alien_planet-60.jpg,null,,,,,,,,,,,,60,"42,2,49,22,64,27,54,24,12,18,76,60,71,56,13,1,40,68,15,70,69,37,8,58,45,79,23,57,36,25,63,35,78,73,17,21,47,43,67,55,51,9",,,,,,,,,,
land,207,689155,0.0-60.0-2.0,,null,run_exp/static/images/task_images/land.jpg,null,,,,,,98,,,12,,,,,,,,,,,,,,
dig,208,691161,0.0-60.0-3.0,,,,,,,,,,,"[{""stimulus"":""run_exp/static/images/task_images/dig.jpg"",""time"":0.26000000070780516},{""stimulus"":""run_exp/static/images/task_images/land.jpg"",""time"":669.6700000320561},{""stimulus"":""run_exp/static/images/task_images/dig.jpg"",""time"":1337.7500000060536}]",[],12,,,,,,,,,,,,,,
harvest,209,692167,0.0-60.0-4.0,,null,run_exp/static/images/task_images/gems/98.jpg,null,,,,,,25,,,12,,,,,98,0.251952474,0.255102041,,,,,,,
decision,210,692473,0.0-60.0-5.0,,303.92,run_exp/static/images/task_images/land.jpg,65,,,,,,25,,,12,,,,,,,,316867,1,0,TRUE,,,
end_of_block_continue,211,701329,0.0-61.0-0.0,,null,run_exp/static/audio/clip_32_block_end.m4a,,,,,,null,,,,,,,,,,,,,,,,,,
alien_welcome,212,706334,0.0-62.0-0.0,,null,run_exp/static/images/task_images/aliens/old_aliens/planet/alien_planet-71.jpg,null,,,,,,,,,,,,71,"42,2,49,22,64,27,54,24,12,18,76,60,71,56,13,1,40,68,15,70,69,37,8,58,45,79,23,57,36,25,63,35,78,73,17,21,47,43,67,55,51,9",,,,,,,,,,
land,213,706837,0.0-62.0-1.0,,null,run_exp/static/images/task_images/land.jpg,null,,,,,,100,,,13,,,,,,,,,,,,,,
dig,214,708846,0.0-62.0-2.0,,,,,,,,,,,"[{""stimulus"":""run_exp/static/images/task_images/dig.jpg"",""time"":0.265000038780272},{""stimulus"":""run_exp/static/images/task_images/land.jpg"",""time"":673.2750000082888},{""stimulus"":""run_exp/static/images/task_images/dig.jpg"",""time"":1339.635000040289}]",[],13,,,,,,,,,,,,,,
harvest,215,709850,0.0-62.0-3.0,,null,run_exp/static/images/task_images/gems/100.jpg,null,,,,,,31,,,13,,,,,100,0.305952633,0.31,,,,,,,
decision,216,710267,0.0-62.0-4.0,,414.79,run_exp/static/images/task_images/land.jpg,65,,,,,,31,,,13,,,,,,,,8935,2,0,FALSE,,,
dig,217,712857,0.0-63.0-0.0,,,,,,,,,,,"[{""stimulus"":""run_exp/static/images/task_images/dig.jpg"",""time"":0.13000000035390258},{""stimulus"":""run_exp/static/images/task_images/land.jpg"",""time"":861.975000007078},{""stimulus"":""run_exp/static/images/task_images/dig.jpg"",""time"":1728.0400000163354}]",[],13,,,,,,,,,,,,,,
harvest,218,713859,0.0-63.0-1.0,,null,run_exp/static/images/task_images/gems/31.jpg,null,,,,,,7,,,13,,,,,31,0.222784231,0.225806452,,,,,,,
decision,219,714185,0.0-63.0-2.0,,324.86,run_exp/static/images/task_images/land.jpg,76,,,,,,7,,,13,,,,,,,,12853,2,1,TRUE,,,
travel,220,723867,0.0-64.0-0.0,,,,,,,,,,,"[{""stimulus"":""run_exp/static/images/task_images/rocket-01.jpg"",""time"":0.15999999595806003},{""stimulus"":""run_exp/static/images/task_images/rocket-02.jpg"",""time"":1081.0049999854527},{""stimulus"":""run_exp/static/images/task_images/rocket-03.jpg"",""time"":2156.1149999615736},{""stimulus"":""run_exp/static/images/task_images/rocket-04.jpg"",""time"":3228.0249999603257},{""stimulus"":""run_exp/static/images/task_images/rocket-05.jpg"",""time"":4306.089999969117},{""stimulus"":""run_exp/static/images/task_images/rocket-06.jpg"",""time"":5378.395000007004},{""stimulus"":""run_exp/static/images/task_images/rocket-07.jpg"",""time"":6456.059999996796},{""stimulus"":""run_exp/static/images/task_images/rocket-08.jpg"",""time"":7527.784999983851},{""stimulus"":""run_exp/static/images/task_images/rocket-09.jpg"",""time"":8606.090000015683}]",[],13,,,,,,,,,,,,,,
alien_welcome,221,728874,0.0-64.0-1.0,,null,run_exp/static/images/task_images/aliens/old_aliens/planet/alien_planet-56.jpg,null,,,,,,,,,,,,56,"42,2,49,22,64,27,54,24,12,18,76,60,71,56,13,1,40,68,15,70,69,37,8,58,45,79,23,57,36,25,63,35,78,73,17,21,47,43,67,55,51,9",,,,,,,,,,
land,222,729377,0.0-64.0-2.0,,null,run_exp/static/images/task_images/land.jpg,null,,,,,,91,,,14,,,,,,,,,,,,,,
dig,223,731385,0.0-64.0-3.0,,,,,,,,,,,"[{""stimulus"":""run_exp/static/images/task_images/dig.jpg"",""time"":0.2649999805726111},{""stimulus"":""run_exp/static/images/task_images/land.jpg"",""time"":671.7949999729171},{""stimulus"":""run_exp/static/images/task_images/dig.jpg"",""time"":1339.6499999798834}]",[],14,,,,,,,,,,,,,,
harvest,224,732392,0.0-64.0-4.0,,null,run_exp/static/images/task_images/gems/91.jpg,null,,,,,,6,,,14,,,,,91,0.062396357,0.065934066,,,,,,,
decision,225,732946,0.0-64.0-5.0,,553.04,run_exp/static/images/task_images/land.jpg,65,,,,,,6,,,14,,,,,,,,31614,2,0,FALSE,,,
dig,226,735399,0.0-65.0-0.0,,,,,,,,,,,"[{""stimulus"":""run_exp/static/images/task_images/dig.jpg"",""time"":0.14000001829117537},{""stimulus"":""run_exp/static/images/task_images/land.jpg"",""time"":819.8299999930896},{""stimulus"":""run_exp/static/images/task_images/dig.jpg"",""time"":1636.11000002129}]",[],14,,,,,,,,,,,,,,
harvest,227,736403,0.0-65.0-1.0,,null,run_exp/static/images/task_images/gems/6.jpg,null,,,,,,2,,,14,,,,,6,0.266470825,0.333333333,,,,,,,
decision,228,736649,0.0-65.0-2.0,,245.09,run_exp/static/images/task_images/land.jpg,76,,,,,,2,,,14,,,,,,,,35317,2,1,TRUE,,,
travel,229,746405,0.0-66.0-0.0,,,,,,,,,,,"[{""stimulus"":""run_exp/static/images/task_images/rocket-01.jpg"",""time"":0.12500002048909664},{""stimulus"":""run_exp/static/images/task_images/rocket-02.jpg"",""time"":1086.7699999944307},{""stimulus"":""run_exp/static/images/task_images/rocket-03.jpg"",""time"":2168.5450000222772},{""stimulus"":""run_exp/static/images/task_images/rocket-04.jpg"",""time"":3249.790000030771},{""stimulus"":""run_exp/static/images/task_images/rocket-05.jpg"",""time"":4335.460000031162},{""stimulus"":""run_exp/static/images/task_images/rocket-06.jpg"",""time"":5419.385000015609},{""stimulus"":""run_exp/static/images/task_images/rocket-07.jpg"",""time"":6502.915000019129},{""stimulus"":""run_exp/static/images/task_images/rocket-08.jpg"",""time"":7586.149999988265},{""stimulus"":""run_exp/static/images/task_images/rocket-09.jpg"",""time"":8669.915000034962}]",[],14,,,,,,,,,,,,,,
alien_welcome,230,751412,0.0-66.0-1.0,,null,run_exp/static/images/task_images/aliens/old_aliens/planet/alien_planet-13.jpg,null,,,,,,,,,,,,13,"42,2,49,22,64,27,54,24,12,18,76,60,71,56,13,1,40,68,15,70,69,37,8,58,45,79,23,57,36,25,63,35,78,73,17,21,47,43,67,55,51,9",,,,,,,,,,
land,231,751918,0.0-66.0-2.0,,null,run_exp/static/images/task_images/land.jpg,null,,,,,,107,,,15,,,,,,,,,,,,,,
dig,232,753923,0.0-66.0-3.0,,,,,,,,,,,"[{""stimulus"":""run_exp/static/images/task_images/dig.jpg"",""time"":0.265000038780272},{""stimulus"":""run_exp/static/images/task_images/land.jpg"",""time"":669.785000034608},{""stimulus"":""run_exp/static/images/task_images/dig.jpg"",""time"":1336.5350000094622}]",[],15,,,,,,,,,,,,,,
harvest,233,754925,0.0-66.0-4.0,,null,run_exp/static/images/task_images/gems/107.jpg,null,,,,,,20,,,15,,,,,107,0.186163299,0.186915888,,,,,,,
decision,234,755235,0.0-66.0-5.0,,309.2350001,run_exp/static/images/task_images/land.jpg,65,,,,,,20,,,15,,,,,,,,53903,2,0,FALSE,,,
dig,235,757931,0.0-67.0-0.0,,,,,,,,,,,"[{""stimulus"":""run_exp/static/images/task_images/dig.jpg"",""time"":0.1449999981559813},{""stimulus"":""run_exp/static/images/task_images/land.jpg"",""time"":900.1249999855645},{""stimulus"":""run_exp/static/images/task_images/dig.jpg"",""time"":1795.2650000224821}]",[],15,,,,,,,,,,,,,,
harvest,236,758933,0.0-67.0-1.0,,null,run_exp/static/images/task_images/gems/20.jpg,null,,,,,,3,,,15,,,,,20,0.140359999,0.15,,,,,,,
decision,237,758945,0.0-67.0-2.0,,10.52000001,run_exp/static/images/task_images/land.jpg,76,,,,,,3,,,15,,,,,,,,57613,2,1,TRUE,,,
travel,238,768932,0.0-68.0-0.0,,,,,,,,,,,"[{""stimulus"":""run_exp/static/images/task_images/rocket-01.jpg"",""time"":0.12500002048909664},{""stimulus"":""run_exp/static/images/task_images/rocket-02.jpg"",""time"":1112.3350000125356},{""stimulus"":""run_exp/static/images/task_images/rocket-03.jpg"",""time"":2220.1249999925494},{""stimulus"":""run_exp/static/images/task_images/rocket-04.jpg"",""time"":3331.9650000194088},{""stimulus"":""run_exp/static/images/task_images/rocket-05.jpg"",""time"":4438.719999976456},{""stimulus"":""run_exp/static/images/task_images/rocket-06.jpg"",""time"":5547.42499999702},{""stimulus"":""run_exp/static/images/task_images/rocket-07.jpg"",""time"":6655.184999981429},{""stimulus"":""run_exp/static/images/task_images/rocket-08.jpg"",""time"":7764.520000026096},{""stimulus"":""run_exp/static/images/task_images/rocket-09.jpg"",""time"":8877.504999982193}]",[],15,,,,,,,,,,,,,,
alien_welcome,239,773938,0.0-68.0-1.0,,null,run_exp/static/images/task_images/aliens/old_aliens/planet/alien_planet-1.jpg,null,,,,,,,,,,,,1,"42,2,49,22,64,27,54,24,12,18,76,60,71,56,13,1,40,68,15,70,69,37,8,58,45,79,23,57,36,25,63,35,78,73,17,21,47,43,67,55,51,9",,,,,,,,,,
land,240,774444,0.0-68.0-2.0,,null,run_exp/static/images/task_images/land.jpg,null,,,,,,95,,,16,,,,,,,,,,,,,,
dig,241,776453,0.0-68.0-3.0,,,,,,,,,,,"[{""stimulus"":""run_exp/static/images/task_images/dig.jpg"",""time"":0.28000003658235073},{""stimulus"":""run_exp/static/images/task_images/land.jpg"",""time"":673.285000026226},{""stimulus"":""run_exp/static/images/task_images/dig.jpg"",""time"":1340.265000006184}]",[],16,,,,,,,,,,,,,,
harvest,242,777459,0.0-68.0-4.0,,null,run_exp/static/images/task_images/gems/95.jpg,null,,,,,,74,,,16,,,,,95,0.781190865,0.778947368,,,,,,,
decision,243,777723,0.0-68.0-5.0,,262.77,run_exp/static/images/task_images/land.jpg,65,,,,,,74,,,16,,,,,,,,76391,2,0,FALSE,,,
dig,244,780463,0.0-69.0-0.0,,,,,,,,,,,"[{""stimulus"":""run_exp/static/images/task_images/dig.jpg"",""time"":0.13000000035390258},{""stimulus"":""run_exp/static/images/task_images/land.jpg"",""time"":918.0400000186637},{""stimulus"":""run_exp/static/images/task_images/dig.jpg"",""time"":1830.0700000254437}]",[],16,,,,,,,,,,,,,,
harvest,245,781470,0.0-69.0-1.0,,null,run_exp/static/images/task_images/gems/74.jpg,null,,,,,,61,,,16,,,,,74,0.824778588,0.824324324,,,,,,,
decision,246,781795,0.0-69.0-2.0,,323.435,run_exp/static/images/task_images/land.jpg,65,,,,,,61,,,16,,,,,,,,80463,2,1,FALSE,,,
dig,247,784477,0.0-70.0-0.0,,,,,,,,,,,"[{""stimulus"":""run_exp/static/images/task_images/dig.jpg"",""time"":0.1449999981559813},{""stimulus"":""run_exp/static/images/task_images/land.jpg"",""time"":894.6350000333041},{""stimulus"":""run_exp/static/images/task_images/dig.jpg"",""time"":1788.715000031516}]",[],16,,,,,,,,,,,,,,
harvest,248,785478,0.0-70.0-1.0,,null,run_exp/static/images/task_images/gems/61.jpg,null,,,,,,53,,,16,,,,,61,0.864213143,0.868852459,,,,,,,
decision,249,786266,0.0-70.0-2.0,,787.135,run_exp/static/images/task_images/land.jpg,65,,,,,,53,,,16,,,,,,,,84934,2,2,FALSE,,,
dig,250,788481,0.0-71.0-0.0,,,,,,,,,,,"[{""stimulus"":""run_exp/static/images/task_images/dig.jpg"",""time"":0.13999996008351445},{""stimulus"":""run_exp/static/images/task_images/land.jpg"",""time"":743.079999985639},{""stimulus"":""run_exp/static/images/task_images/dig.jpg"",""time"":1477.2349999984726}]",[],16,,,,,,,,,,,,,,
harvest,251,789483,0.0-71.0-1.0,,null,run_exp/static/images/task_images/gems/53.jpg,null,,,,,,42,,,16,,,,,53,0.785347273,0.79245283,,,,,,,
decision,252,789852,0.0-71.0-2.0,,367.9,run_exp/static/images/task_images/land.jpg,76,,,,,,42,,,16,,,,,,,,88520,2,3,TRUE,,,
travel,253,799487,0.0-72.0-0.0,,,,,,,,,,,"[{""stimulus"":""run_exp/static/images/task_images/rocket-01.jpg"",""time"":0.1550000160932541},{""stimulus"":""run_exp/static/images/task_images/rocket-02.jpg"",""time"":1075.3800000529736},{""stimulus"":""run_exp/static/images/task_images/rocket-03.jpg"",""time"":2142.06500002183},{""stimulus"":""run_exp/static/images/task_images/rocket-04.jpg"",""time"":3212.9850000492297},{""stimulus"":""run_exp/static/images/task_images/rocket-05.jpg"",""time"":4284.5950000337325},{""stimulus"":""run_exp/static/images/task_images/rocket-06.jpg"",""time"":5354.170000005979},{""stimulus"":""run_exp/static/images/task_images/rocket-07.jpg"",""time"":6422.435000014957},{""stimulus"":""run_exp/static/images/task_images/rocket-08.jpg"",""time"":7492.930000007618},{""stimulus"":""run_exp/static/images/task_images/rocket-09.jpg"",""time"":8566.090000036638}]",[],16,,,,,,,,,,,,,,
alien_welcome,254,804494,0.0-72.0-1.0,,null,run_exp/static/images/task_images/aliens/old_aliens/planet/alien_planet-40.jpg,null,,,,,,,,,,,,40,"42,2,49,22,64,27,54,24,12,18,76,60,71,56,13,1,40,68,15,70,69,37,8,58,45,79,23,57,36,25,63,35,78,73,17,21,47,43,67,55,51,9",,,,,,,,,,
land,255,804998,0.0-72.0-2.0,,null,run_exp/static/images/task_images/land.jpg,null,,,,,,94,,,17,,,,,,,,,,,,,,
dig,256,807005,0.0-72.0-3.0,,,,,,,,,,,"[{""stimulus"":""run_exp/static/images/task_images/dig.jpg"",""time"":0.22499996703118086},{""stimulus"":""run_exp/static/images/task_images/land.jpg"",""time"":673.2000000192784},{""stimulus"":""run_exp/static/images/task_images/dig.jpg"",""time"":1340.2200000127777}]",[],17,,,,,,,,,,,,,,
harvest,257,808009,0.0-72.0-4.0,,null,run_exp/static/images/task_images/gems/94.jpg,null,,,,,,81,,,17,,,,,94,0.865533623,0.861702128,,,,,,,
decision,258,808462,0.0-72.0-5.0,,452.495,run_exp/static/images/task_images/land.jpg,65,,,,,,81,,,17,,,,,,,,107130,2,0,FALSE,,,
dig,259,811013,0.0-73.0-0.0,,,,,,,,,,,"[{""stimulus"":""run_exp/static/images/task_images/dig.jpg"",""time"":0.1449999981559813},{""stimulus"":""run_exp/static/images/task_images/land.jpg"",""time"":852.5249999947846},{""stimulus"":""run_exp/static/images/task_images/dig.jpg"",""time"":1702.6449999539182}]",[],17,,,,,,,,,,,,,,
harvest,260,812018,0.0-73.0-1.0,,null,run_exp/static/images/task_images/gems/81.jpg,null,,,,,,69,,,17,,,,,81,0.856471254,0.851851852,,,,,,,
decision,261,812443,0.0-73.0-2.0,,423.81,run_exp/static/images/task_images/land.jpg,65,,,,,,69,,,17,,,,,,,,111111,2,1,FALSE,,,
dig,262,815025,0.0-74.0-0.0,,,,,,,,,,,"[{""stimulus"":""run_exp/static/images/task_images/dig.jpg"",""time"":0.14999997802078724},{""stimulus"":""run_exp/static/images/task_images/land.jpg"",""time"":863.8349999673665},{""stimulus"":""run_exp/static/images/task_images/dig.jpg"",""time"":1717.6199999521486}]",[],17,,,,,,,,,,,,,,
harvest,263,816027,0.0-74.0-1.0,,null,run_exp/static/images/task_images/gems/69.jpg,null,,,,,,56,,,17,,,,,69,0.808159666,0.811594203,,,,,,,
decision,264,816540,0.0-74.0-2.0,,511.475,run_exp/static/images/task_images/land.jpg,65,,,,,,56,,,17,,,,,,,,115208,2,2,FALSE,,,
dig,265,819032,0.0-75.0-0.0,,,,,,,,,,,"[{""stimulus"":""run_exp/static/images/task_images/dig.jpg"",""time"":0.1449999981559813},{""stimulus"":""run_exp/static/images/task_images/land.jpg"",""time"":833.3049999782816},{""stimulus"":""run_exp/static/images/task_images/dig.jpg"",""time"":1658.9499999536201}]",[],17,,,,,,,,,,,,,,
harvest,266,820036,0.0-75.0-1.0,,null,run_exp/static/images/task_images/gems/56.jpg,null,,,,,,45,,,17,,,,,56,0.796629392,0.803571429,,,,,,,
decision,267,820397,0.0-75.0-2.0,,359.7,run_exp/static/images/task_images/land.jpg,76,,,,,,45,,,17,,,,,,,,119065,2,3,TRUE,,,
travel,268,830046,0.0-76.0-0.0,,,,,,,,,,,"[{""stimulus"":""run_exp/static/images/task_images/rocket-01.jpg"",""time"":0.1449999981559813},{""stimulus"":""run_exp/static/images/task_images/rocket-02.jpg"",""time"":1076.3000000151806},{""stimulus"":""run_exp/static/images/task_images/rocket-03.jpg"",""time"":2143.2200000272132},{""stimulus"":""run_exp/static/images/task_images/rocket-04.jpg"",""time"":3219.0750000299886},{""stimulus"":""run_exp/static/images/task_images/rocket-05.jpg"",""time"":4286.300000036135},{""stimulus"":""run_exp/static/images/task_images/rocket-06.jpg"",""time"":5361.060000024736},{""stimulus"":""run_exp/static/images/task_images/rocket-07.jpg"",""time"":6430.235000036191},{""stimulus"":""run_exp/static/images/task_images/rocket-08.jpg"",""time"":7501.980000000913},{""stimulus"":""run_exp/static/images/task_images/rocket-09.jpg"",""time"":8571.480000042357}]",[],17,,,,,,,,,,,,,,
alien_welcome,269,835053,0.0-76.0-1.0,,null,run_exp/static/images/task_images/aliens/old_aliens/planet/alien_planet-68.jpg,null,,,,,,,,,,,,68,"42,2,49,22,64,27,54,24,12,18,76,60,71,56,13,1,40,68,15,70,69,37,8,58,45,79,23,57,36,25,63,35,78,73,17,21,47,43,67,55,51,9",,,,,,,,,,
land,270,835556,0.0-76.0-2.0,,null,run_exp/static/images/task_images/land.jpg,null,,,,,,100,,,18,,,,,,,,,,,,,,
dig,271,837563,0.0-76.0-3.0,,,,,,,,,,,"[{""stimulus"":""run_exp/static/images/task_images/dig.jpg"",""time"":0.1699999556876719},{""stimulus"":""run_exp/static/images/task_images/land.jpg"",""time"":673.0749999987893},{""stimulus"":""run_exp/static/images/task_images/dig.jpg"",""time"":1336.8550000013784}]",[],18,,,,,,,,,,,,,,
harvest,272,838569,0.0-76.0-4.0,,null,run_exp/static/images/task_images/gems/100.jpg,null,,,,,,84,,,18,,,,,100,0.838571077,0.84,,,,,,,
decision,273,838878,0.0-76.0-5.0,,306.935,run_exp/static/images/task_images/land.jpg,65,,,,,,84,,,18,,,,,,,,137546,2,0,FALSE,,,
dig,274,841575,0.0-77.0-0.0,,,,,,,,,,,"[{""stimulus"":""run_exp/static/images/task_images/dig.jpg"",""time"":0.13499998021870852},{""stimulus"":""run_exp/static/images/task_images/land.jpg"",""time"":898.5999999567866},{""stimulus"":""run_exp/static/images/task_images/dig.jpg"",""time"":1798.7349999602884}]",[],18,,,,,,,,,,,,,,
harvest,275,842580,0.0-77.0-1.0,,null,run_exp/static/images/task_images/gems/84.jpg,null,,,,,,58,,,18,,,,,84,0.686629686,0.69047619,,,,,,,
decision,276,842909,0.0-77.0-2.0,,327.54,run_exp/static/images/task_images/land.jpg,65,,,,,,58,,,18,,,,,,,,141577,2,1,FALSE,,,
dig,277,845583,0.0-78.0-0.0,,,,,,,,,,,"[{""stimulus"":""run_exp/static/images/task_images/dig.jpg"",""time"":0.14999997802078724},{""stimulus"":""run_exp/static/images/task_images/land.jpg"",""time"":892.7200000034645},{""stimulus"":""run_exp/static/images/task_images/dig.jpg"",""time"":1786.084999970626}]",[],18,,,,,,,,,,,,,,
harvest,278,846590,0.0-78.0-1.0,,null,run_exp/static/images/task_images/gems/58.jpg,null,,,,,,49,,,18,,,,,58,0.848087145,0.844827586,,,,,,,
decision,279,846933,0.0-78.0-2.0,,341.69,run_exp/static/images/task_images/land.jpg,76,,,,,,49,,,18,,,,,,,,145601,2,2,TRUE,,,
travel,280,856599,0.0-79.0-0.0,,,,,,,,,,,"[{""stimulus"":""run_exp/static/images/task_images/rocket-01.jpg"",""time"":0.1449999981559813},{""stimulus"":""run_exp/static/images/task_images/rocket-02.jpg"",""time"":1075.704999966547},{""stimulus"":""run_exp/static/images/task_images/rocket-03.jpg"",""time"":2146.894999954384},{""stimulus"":""run_exp/static/images/task_images/rocket-04.jpg"",""time"":3221.6199999675155},{""stimulus"":""run_exp/static/images/task_images/rocket-05.jpg"",""time"":4295.429999998305},{""stimulus"":""run_exp/static/images/task_images/rocket-06.jpg"",""time"":5371.079999953508},{""stimulus"":""run_exp/static/images/task_images/rocket-07.jpg"",""time"":6441.034999967087},{""stimulus"":""run_exp/static/images/task_images/rocket-08.jpg"",""time"":7512.609999976121},{""stimulus"":""run_exp/static/images/task_images/rocket-09.jpg"",""time"":8589.919999998529}]",[],18,,,,,,,,,,,,,,
alien_welcome,281,861601,0.0-79.0-1.0,,null,run_exp/static/images/task_images/aliens/old_aliens/planet/alien_planet-15.jpg,null,,,,,,,,,,,,15,"42,2,49,22,64,27,54,24,12,18,76,60,71,56,13,1,40,68,15,70,69,37,8,58,45,79,23,57,36,25,63,35,78,73,17,21,47,43,67,55,51,9",,,,,,,,,,
land,282,862104,0.0-79.0-2.0,,null,run_exp/static/images/task_images/land.jpg,null,,,,,,87,,,19,,,,,,,,,,,,,,
dig,283,864110,0.0-79.0-3.0,,,,,,,,,,,"[{""stimulus"":""run_exp/static/images/task_images/dig.jpg"",""time"":0.2799999783746898},{""stimulus"":""run_exp/static/images/task_images/land.jpg"",""time"":672.2249999875203},{""stimulus"":""run_exp/static/images/task_images/dig.jpg"",""time"":1339.0249999938533}]",[],19,,,,,,,,,,,,,,
harvest,284,865111,0.0-79.0-4.0,,null,run_exp/static/images/task_images/gems/87.jpg,null,,,,,,70,,,19,,,,,87,0.806591423,0.804597701,,,,,,,
decision,285,865639,0.0-79.0-5.0,,525.66,run_exp/static/images/task_images/land.jpg,65,,,,,,70,,,19,,,,,,,,164307,2,0,FALSE,,,
dig,286,868120,0.0-80.0-0.0,,,,,,,,,,,"[{""stimulus"":""run_exp/static/images/task_images/dig.jpg"",""time"":0.1449999981559813},{""stimulus"":""run_exp/static/images/task_images/land.jpg"",""time"":828.2999999937601},{""stimulus"":""run_exp/static/images/task_images/dig.jpg"",""time"":1653.3049999852665}]",[],19,,,,,,,,,,,,,,
harvest,287,869121,0.0-80.0-1.0,,null,run_exp/static/images/task_images/gems/70.jpg,null,,,,,,51,,,19,,,,,70,0.73231651,0.728571429,,,,,,,
decision,288,869470,0.0-80.0-2.0,,346.505,run_exp/static/images/task_images/land.jpg,65,,,,,,51,,,19,,,,,,,,168138,2,1,FALSE,,,
dig,289,872129,0.0-81.0-0.0,,,,,,,,,,,"[{""stimulus"":""run_exp/static/images/task_images/dig.jpg"",""time"":0.1449999981559813},{""stimulus"":""run_exp/static/images/task_images/land.jpg"",""time"":889.3699999898672},{""stimulus"":""run_exp/static/images/task_images/dig.jpg"",""time"":1772.8499999502674}]",[],19,,,,,,,,,,,,,,
harvest,290,873135,0.0-81.0-1.0,,null,run_exp/static/images/task_images/gems/51.jpg,null,,,,,,40,,,19,,,,,51,0.786809798,0.784313725,,,,,,,
decision,291,873758,0.0-81.0-2.0,,621.42,run_exp/static/images/task_images/land.jpg,65,,,,,,40,,,19,,,,,,,,172426,2,2,FALSE,,,
dig,292,876140,0.0-82.0-0.0,,,,,,,,,,,"[{""stimulus"":""run_exp/static/images/task_images/dig.jpg"",""time"":0.13499998021870852},{""stimulus"":""run_exp/static/images/task_images/land.jpg"",""time"":793.3549999725074},{""stimulus"":""run_exp/static/images/task_images/dig.jpg"",""time"":1585.4849999886937}]",[],19,,,,,,,,,,,,,,
harvest,293,877144,0.0-82.0-1.0,,null,run_exp/static/images/task_images/gems/40.jpg,null,,,,,,28,,,19,,,,,40,0.687785255,0.7,,,,,,,
decision,294,877439,0.0-82.0-2.0,,293.27,run_exp/static/images/task_images/land.jpg,76,,,,,,28,,,19,,,,,,,,176107,2,3,TRUE,,,
travel,295,887149,0.0-83.0-0.0,,,,,,,,,,,"[{""stimulus"":""run_exp/static/images/task_images/rocket-01.jpg"",""time"":0.1449999981559813},{""stimulus"":""run_exp/static/images/task_images/rocket-02.jpg"",""time"":1079.1800000006333},{""stimulus"":""run_exp/static/images/task_images/rocket-03.jpg"",""time"":2157.6699999859557},{""stimulus"":""run_exp/static/images/task_images/rocket-04.jpg"",""time"":3235.904999950435},{""stimulus"":""run_exp/static/images/task_images/rocket-05.jpg"",""time"":4316.534999990836},{""stimulus"":""run_exp/static/images/task_images/rocket-06.jpg"",""time"":5396.079999976791},{""stimulus"":""run_exp/static/images/task_images/rocket-07.jpg"",""time"":6471.884999948088},{""stimulus"":""run_exp/static/images/task_images/rocket-08.jpg"",""time"":7552.104999951553},{""stimulus"":""run_exp/static/images/task_images/rocket-09.jpg"",""time"":8628.769999952056}]",[],19,,,,,,,,,,,,,,
alien_welcome,296,892152,0.0-83.0-1.0,,null,run_exp/static/images/task_images/aliens/old_aliens/planet/alien_planet-70.jpg,null,,,,,,,,,,,,70,"42,2,49,22,64,27,54,24,12,18,76,60,71,56,13,1,40,68,15,70,69,37,8,58,45,79,23,57,36,25,63,35,78,73,17,21,47,43,67,55,51,9",,,,,,,,,,
land,297,892653,0.0-83.0-2.0,,null,run_exp/static/images/task_images/land.jpg,null,,,,,,93,,,20,,,,,,,,,,,,,,
dig,298,894659,0.0-83.0-3.0,,,,,,,,,,,"[{""stimulus"":""run_exp/static/images/task_images/dig.jpg"",""time"":0.2799999783746898},{""stimulus"":""run_exp/static/images/task_images/land.jpg"",""time"":668.4900000109337},{""stimulus"":""run_exp/static/images/task_images/dig.jpg"",""time"":1336.7200000211596}]",[],20,,,,,,,,,,,,,,
harvest,299,895662,0.0-83.0-4.0,,null,run_exp/static/images/task_images/gems/93.jpg,null,,,,,,74,,,20,,,,,93,0.796284758,0.795698925,,,,,,,
decision,300,895942,0.0-83.0-5.0,,279.075,run_exp/static/images/task_images/land.jpg,65,,,,,,74,,,20,,,,,,,,194611,2,0,FALSE,,,
dig,301,898668,0.0-84.0-0.0,,,,,,,,,,,"[{""stimulus"":""run_exp/static/images/task_images/dig.jpg"",""time"":0.13000000035390258},{""stimulus"":""run_exp/static/images/task_images/land.jpg"",""time"":909.2250000103377},{""stimulus"":""run_exp/static/images/task_images/dig.jpg"",""time"":1813.3750000270084}]",[],20,,,,,,,,,,,,,,
harvest,302,899674,0.0-84.0-1.0,,null,run_exp/static/images/task_images/gems/74.jpg,null,,,,,,61,,,20,,,,,74,0.827939194,0.824324324,,,,,,,
decision,303,899942,0.0-84.0-2.0,,266.845,run_exp/static/images/task_images/land.jpg,65,,,,,,61,,,20,,,,,,,,198610,2,1,FALSE,,,
dig,304,902681,0.0-85.0-0.0,,,,,,,,,,,"[{""stimulus"":""run_exp/static/images/task_images/dig.jpg"",""time"":0.15000003622844815},{""stimulus"":""run_exp/static/images/task_images/land.jpg"",""time"":915.3250000090338},{""stimulus"":""run_exp/static/images/task_images/dig.jpg"",""time"":1828.075000026729}]",[],20,,,,,,,,,,,,,,
harvest,305,903687,0.0-85.0-1.0,,null,run_exp/static/images/task_images/gems/61.jpg,null,,,,,,51,,,20,,,,,61,0.843252957,0.836065574,,,,,,,
decision,306,903990,0.0-85.0-2.0,,301.175,run_exp/static/images/task_images/land.jpg,65,,,,,,51,,,20,,,,,,,,202658,2,2,FALSE,,,
dig,307,906691,0.0-86.0-0.0,,,,,,,,,,,"[{""stimulus"":""run_exp/static/images/task_images/dig.jpg"",""time"":0.14000001829117537},{""stimulus"":""run_exp/static/images/task_images/land.jpg"",""time"":903.7300000200048},{""stimulus"":""run_exp/static/images/task_images/dig.jpg"",""time"":1804.0749999927357}]",[],20,,,,,,,,,,,,,,
harvest,308,907695,0.0-86.0-1.0,,null,run_exp/static/images/task_images/gems/51.jpg,null,,,,,,37,,,20,,,,,51,0.7332036,0.725490196,,,,,,,
decision,309,908008,0.0-86.0-2.0,,310.885,run_exp/static/images/task_images/land.jpg,65,,,,,,37,,,20,,,,,,,,206676,2,3,FALSE,,,
dig,310,910702,0.0-87.0-0.0,,,,,,,,,,,"[{""stimulus"":""run_exp/static/images/task_images/dig.jpg"",""time"":0.1550000160932541},{""stimulus"":""run_exp/static/images/task_images/land.jpg"",""time"":902.1000000066124},{""stimulus"":""run_exp/static/images/task_images/dig.jpg"",""time"":1798.0800000368617}]",[],20,,,,,,,,,,,,,,
harvest,311,911706,0.0-87.0-1.0,,null,run_exp/static/images/task_images/gems/37.jpg,null,,,,,,30,,,20,,,,,37,0.815772238,0.810810811,,,,,,,
decision,312,912423,0.0-87.0-2.0,,715.275,run_exp/static/images/task_images/land.jpg,76,,,,,,30,,,20,,,,,,,,211091,2,4,TRUE,,,
travel,313,921712,0.0-88.0-0.0,,,,,,,,,,,"[{""stimulus"":""run_exp/static/images/task_images/rocket-01.jpg"",""time"":0.15000003622844815},{""stimulus"":""run_exp/static/images/task_images/rocket-02.jpg"",""time"":1032.485000032466},{""stimulus"":""run_exp/static/images/task_images/rocket-03.jpg"",""time"":2067.5800000317395},{""stimulus"":""run_exp/static/images/task_images/rocket-04.jpg"",""time"":3094.135000021197},{""stimulus"":""run_exp/static/images/task_images/rocket-05.jpg"",""time"":4128.210000053514},{""stimulus"":""run_exp/static/images/task_images/rocket-06.jpg"",""time"":5156.24000004027},{""stimulus"":""run_exp/static/images/task_images/rocket-07.jpg"",""time"":6188.2600000244565},{""stimulus"":""run_exp/static/images/task_images/rocket-08.jpg"",""time"":7222.425000043586},{""stimulus"":""run_exp/static/images/task_images/rocket-09.jpg"",""time"":8254.070000024512}]",[],20,,,,,,,,,,,,,,
alien_welcome,314,926718,0.0-88.0-1.0,,null,run_exp/static/images/task_images/aliens/old_aliens/planet/alien_planet-69.jpg,null,,,,,,,,,,,,69,"42,2,49,22,64,27,54,24,12,18,76,60,71,56,13,1,40,68,15,70,69,37,8,58,45,79,23,57,36,25,63,35,78,73,17,21,47,43,67,55,51,9",,,,,,,,,,
land,315,927223,0.0-88.0-2.0,,null,run_exp/static/images/task_images/land.jpg,null,,,,,,105,,,21,,,,,,,,,,,,,,
dig,316,929232,0.0-88.0-3.0,,,,,,,,,,,"[{""stimulus"":""run_exp/static/images/task_images/dig.jpg"",""time"":0.27000001864507794},{""stimulus"":""run_exp/static/images/task_images/land.jpg"",""time"":673.2550000306219},{""stimulus"":""run_exp/static/images/task_images/dig.jpg"",""time"":1340.1550000417046}]",[],21,,,,,,,,,,,,,,
harvest,317,930236,0.0-88.0-4.0,,null,run_exp/static/images/task_images/gems/105.jpg,null,,,,,,56,,,21,,,,,105,0.537429324,0.533333333,,,,,,,
decision,318,930680,0.0-88.0-5.0,,442.41,run_exp/static/images/task_images/land.jpg,65,,,,,,56,,,21,,,,,,,,229348,2,0,FALSE,,,
dig,319,933241,0.0-89.0-0.0,,,,,,,,,,,"[{""stimulus"":""run_exp/static/images/task_images/dig.jpg"",""time"":0.1449999981559813},{""stimulus"":""run_exp/static/images/task_images/land.jpg"",""time"":856.4199999673292},{""stimulus"":""run_exp/static/images/task_images/dig.jpg"",""time"":1706.5899999579415}]",[],21,,,,,,,,,,,,,,
harvest,320,934248,0.0-89.0-1.0,,null,run_exp/static/images/task_images/gems/56.jpg,null,,,,,,30,,,21,,,,,56,0.528687641,0.535714286,,,,,,,
decision,321,934632,0.0-89.0-2.0,,381.66,run_exp/static/images/task_images/land.jpg,65,,,,,,30,,,21,,,,,,,,233300,2,1,FALSE,,,
dig,322,937255,0.0-90.0-0.0,,,,,,,,,,,"[{""stimulus"":""run_exp/static/images/task_images/dig.jpg"",""time"":0.14000001829117537},{""stimulus"":""run_exp/static/images/task_images/land.jpg"",""time"":873.3149999752641},{""stimulus"":""run_exp/static/images/task_images/dig.jpg"",""time"":1747.4350000265986}]",[],21,,,,,,,,,,,,,,
harvest,323,938259,0.0-90.0-1.0,,null,run_exp/static/images/task_images/gems/30.jpg,null,,,,,,16,,,21,,,,,30,0.523702146,0.533333333,,,,,,,
decision,324,938520,0.0-90.0-2.0,,259.17,run_exp/static/images/task_images/land.jpg,76,,,,,,16,,,21,,,,,,,,237188,2,2,TRUE,,,
travel,325,948263,0.0-91.0-0.0,,,,,,,,,,,"[{""stimulus"":""run_exp/static/images/task_images/rocket-01.jpg"",""time"":0.19999995129182935},{""stimulus"":""run_exp/static/images/task_images/rocket-02.jpg"",""time"":1084.3599999789149},{""stimulus"":""run_exp/static/images/task_images/rocket-03.jpg"",""time"":2168.324999976903},{""stimulus"":""run_exp/static/images/task_images/rocket-04.jpg"",""time"":3250.1399999600835},{""stimulus"":""run_exp/static/images/task_images/rocket-05.jpg"",""time"":4334.219999960624},{""stimulus"":""run_exp/static/images/task_images/rocket-06.jpg"",""time"":5413.839999993797},{""stimulus"":""run_exp/static/images/task_images/rocket-07.jpg"",""time"":6493.419999955222},{""stimulus"":""run_exp/static/images/task_images/rocket-08.jpg"",""time"":7580.134999996517},{""stimulus"":""run_exp/static/images/task_images/rocket-09.jpg"",""time"":8662.10499999579}]",[],21,,,,,,,,,,,,,,
alien_welcome,326,953270,0.0-91.0-1.0,,null,run_exp/static/images/task_images/aliens/old_aliens/planet/alien_planet-37.jpg,null,,,,,,,,,,,,37,"42,2,49,22,64,27,54,24,12,18,76,60,71,56,13,1,40,68,15,70,69,37,8,58,45,79,23,57,36,25,63,35,78,73,17,21,47,43,67,55,51,9",,,,,,,,,,
land,327,953773,0.0-91.0-2.0,,null,run_exp/static/images/task_images/land.jpg,null,,,,,,93,,,22,,,,,,,,,,,,,,
dig,328,955779,0.0-91.0-3.0,,,,,,,,,,,"[{""stimulus"":""run_exp/static/images/task_images/dig.jpg"",""time"":0.29499997617676854},{""stimulus"":""run_exp/static/images/task_images/land.jpg"",""time"":669.7999999742024},{""stimulus"":""run_exp/static/images/task_images/dig.jpg"",""time"":1337.2049999888986}]",[],22,,,,,,,,,,,,,,
harvest,329,956785,0.0-91.0-4.0,,null,run_exp/static/images/task_images/gems/93.jpg,null,,,,,,79,,,22,,,,,93,0.847404614,0.849462366,,,,,,,
decision,330,957089,0.0-91.0-5.0,,302.7150001,run_exp/static/images/task_images/land.jpg,65,,,,,,79,,,22,,,,,,,,255757,2,0,FALSE,,,
dig,331,959792,0.0-92.0-0.0,,,,,,,,,,,"[{""stimulus"":""run_exp/static/images/task_images/dig.jpg"",""time"":0.13499998021870852},{""stimulus"":""run_exp/static/images/task_images/land.jpg"",""time"":903.0649999622256},{""stimulus"":""run_exp/static/images/task_images/dig.jpg"",""time"":1803.1349999946542}]",[],22,,,,,,,,,,,,,,
harvest,332,960796,0.0-92.0-1.0,,null,run_exp/static/images/task_images/gems/79.jpg,null,,,,,,60,,,22,,,,,79,0.763813468,0.759493671,,,,,,,
decision,333,961120,0.0-92.0-2.0,,322.11,run_exp/static/images/task_images/land.jpg,65,,,,,,60,,,22,,,,,,,,259788,2,1,FALSE,,,
dig,334,963803,0.0-93.0-0.0,,,,,,,,,,,"[{""stimulus"":""run_exp/static/images/task_images/dig.jpg"",""time"":0.15999999595806003},{""stimulus"":""run_exp/static/images/task_images/land.jpg"",""time"":893.5400000191294},{""stimulus"":""run_exp/static/images/task_images/dig.jpg"",""time"":1785.7700000167824}]",[],22,,,,,,,,,,,,,,
harvest,335,964806,0.0-93.0-1.0,,null,run_exp/static/images/task_images/gems/60.jpg,null,,,,,,47,,,22,,,,,60,0.788690424,0.783333333,,,,,,,
decision,336,965152,0.0-93.0-2.0,,345.31,run_exp/static/images/task_images/land.jpg,65,,,,,,47,,,22,,,,,,,,263821,2,2,FALSE,,,
dig,337,967810,0.0-94.0-0.0,,,,,,,,,,,"[{""stimulus"":""run_exp/static/images/task_images/dig.jpg"",""time"":0.15000003622844815},{""stimulus"":""run_exp/static/images/task_images/land.jpg"",""time"":886.9650000124238},{""stimulus"":""run_exp/static/images/task_images/dig.jpg"",""time"":1773.9500000025146}]",[],22,,,,,,,,,,,,,,
harvest,338,968815,0.0-94.0-1.0,,null,run_exp/static/images/task_images/gems/47.jpg,null,,,,,,37,,,22,,,,,47,0.794570828,0.787234043,,,,,,,
decision,339,969122,0.0-94.0-2.0,,305.125,run_exp/static/images/task_images/land.jpg,76,,,,,,37,,,22,,,,,,,,267790,2,3,TRUE,,,
travel,340,978824,0.0-95.0-0.0,,,,,,,,,,,"[{""stimulus"":""run_exp/static/images/task_images/rocket-01.jpg"",""time"":0.14000001829117537},{""stimulus"":""run_exp/static/images/task_images/rocket-02.jpg"",""time"":1083.0999999889173},{""stimulus"":""run_exp/static/images/task_images/rocket-03.jpg"",""time"":2155.7250000187196},{""stimulus"":""run_exp/static/images/task_images/rocket-04.jpg"",""time"":3233.3199999993667},{""stimulus"":""run_exp/static/images/task_images/rocket-05.jpg"",""time"":4313.6950000189245},{""stimulus"":""run_exp/static/images/task_images/rocket-06.jpg"",""time"":5389.689999981783},{""stimulus"":""run_exp/static/images/task_images/rocket-07.jpg"",""time"":6465.315000037663},{""stimulus"":""run_exp/static/images/task_images/rocket-08.jpg"",""time"":7541.154999984428},{""stimulus"":""run_exp/static/images/task_images/rocket-09.jpg"",""time"":8620.255000016186}]",[],22,,,,,,,,,,,,,,
alien_welcome,341,983831,0.0-95.0-1.0,,null,run_exp/static/images/task_images/aliens/old_aliens/planet/alien_planet-8.jpg,null,,,,,,,,,,,,8,"42,2,49,22,64,27,54,24,12,18,76,60,71,56,13,1,40,68,15,70,69,37,8,58,45,79,23,57,36,25,63,35,78,73,17,21,47,43,67,55,51,9",,,,,,,,,,
land,342,984334,0.0-95.0-2.0,,null,run_exp/static/images/task_images/land.jpg,null,,,,,,93,,,23,,,,,,,,,,,,,,
dig,343,986339,0.0-95.0-3.0,,,,,,,,,,,"[{""stimulus"":""run_exp/static/images/task_images/dig.jpg"",""time"":0.2799999783746898},{""stimulus"":""run_exp/static/images/task_images/land.jpg"",""time"":669.9599999701604},{""stimulus"":""run_exp/static/images/task_images/dig.jpg"",""time"":1340.2799999457784}]",[],23,,,,,,,,,,,,,,
harvest,344,987343,0.0-95.0-4.0,,null,run_exp/static/images/task_images/gems/93.jpg,null,,,,,,76,,,23,,,,,93,0.817161707,0.817204301,,,,,,,
decision,345,987562,0.0-95.0-5.0,,217.29,run_exp/static/images/task_images/land.jpg,65,,,,,,76,,,23,,,,,,,,286230,2,0,FALSE,,,
dig,346,990350,0.0-96.0-0.0,,,,,,,,,,,"[{""stimulus"":""run_exp/static/images/task_images/dig.jpg"",""time"":0.14000001829117537},{""stimulus"":""run_exp/static/images/task_images/land.jpg"",""time"":931.6049999906681},{""stimulus"":""run_exp/static/images/task_images/dig.jpg"",""time"":1858.5500000044703}]",[],23,,,,,,,,,,,,,,
harvest,347,991354,0.0-96.0-1.0,,null,run_exp/static/images/task_images/gems/76.jpg,null,,,,,,63,,,23,,,,,76,0.834280503,0.828947368,,,,,,,
decision,348,991744,0.0-96.0-2.0,,388.265,run_exp/static/images/task_images/land.jpg,65,,,,,,63,,,23,,,,,,,,290412,2,1,FALSE,,,
dig,349,994361,0.0-97.0-0.0,,,,,,,,,,,"[{""stimulus"":""run_exp/static/images/task_images/dig.jpg"",""time"":0.13000000035390258},{""stimulus"":""run_exp/static/images/task_images/land.jpg"",""time"":872.1500000101514},{""stimulus"":""run_exp/static/images/task_images/dig.jpg"",""time"":1743.5399999958463}]",[],23,,,,,,,,,,,,,,
harvest,350,995365,0.0-97.0-1.0,,null,run_exp/static/images/task_images/gems/63.jpg,null,,,,,,57,,,23,,,,,63,0.900125823,0.904761905,,,,,,,
decision,351,995689,0.0-97.0-2.0,,322.915,run_exp/static/images/task_images/land.jpg,65,,,,,,57,,,23,,,,,,,,294357,2,2,FALSE,,,
dig,352,998371,0.0-98.0-0.0,,,,,,,,,,,"[{""stimulus"":""run_exp/static/images/task_images/dig.jpg"",""time"":0.1449999981559813},{""stimulus"":""run_exp/static/images/task_images/land.jpg"",""time"":893.2449999847449},{""stimulus"":""run_exp/static/images/task_images/dig.jpg"",""time"":1788.0850000074133}]",[],23,,,,,,,,,,,,,,
harvest,353,999377,0.0-98.0-1.0,,null,run_exp/static/images/task_images/gems/57.jpg,null,,,,,,42,,,23,,,,,57,0.738274633,0.736842105,,,,,,,
decision,354,999722,0.0-98.0-2.0,,343.835,run_exp/static/images/task_images/land.jpg,65,,,,,,42,,,23,,,,,,,,298390,2,3,FALSE,,,
dig,355,1002384,0.0-99.0-0.0,,,,,,,,,,,"[{""stimulus"":""run_exp/static/images/task_images/dig.jpg"",""time"":0.1449999981559813},{""stimulus"":""run_exp/static/images/task_images/land.jpg"",""time"":887.079999956768},{""stimulus"":""run_exp/static/images/task_images/dig.jpg"",""time"":1774.3899999768473}]",[],23,,,,,,,,,,,,,,
harvest,356,1003388,0.0-99.0-1.0,,null,run_exp/static/images/task_images/gems/42.jpg,null,,,,,,33,,,23,,,,,42,0.789957667,0.785714286,,,,,,,
decision,357,1003913,0.0-99.0-2.0,,523.48,run_exp/static/images/task_images/land.jpg,76,,,,,,33,,,23,,,,,,,,302581,2,4,TRUE,,,
end_of_block_continue,358,1012764,0.0-100.0-0.0,,null,run_exp/static/audio/clip_32_block_end.m4a,,,,,,null,,,,,,,,,,,,,,,,,,
alien_welcome,359,1017773,0.0-101.0-0.0,,null,run_exp/static/images/task_images/aliens/old_aliens/planet/alien_planet-58.jpg,null,,,,,,,,,,,,58,"42,2,49,22,64,27,54,24,12,18,76,60,71,56,13,1,40,68,15,70,69,37,8,58,45,79,23,57,36,25,63,35,78,73,17,21,47,43,67,55,51,9",,,,,,,,,,
land,360,1018278,0.0-101.0-1.0,,null,run_exp/static/images/task_images/land.jpg,null,,,,,,99,,,24,,,,,,,,,,,,,,
dig,361,1020286,0.0-101.0-2.0,,,,,,,,,,,"[{""stimulus"":""run_exp/static/images/task_images/dig.jpg"",""time"":0.2799999783746898},{""stimulus"":""run_exp/static/images/task_images/land.jpg"",""time"":673.2499999925494},{""stimulus"":""run_exp/static/images/task_images/dig.jpg"",""time"":1335.1099999854341}]",[],24,,,,,,,,,,,,,,
harvest,362,1021292,0.0-101.0-3.0,,null,run_exp/static/images/task_images/gems/99.jpg,null,,,,,,43,,,24,,,,,99,0.436994124,0.434343434,,,,,,,
decision,363,1021626,0.0-101.0-4.0,,332.53,run_exp/static/images/task_images/land.jpg,65,,,,,,43,,,24,,,,,,,,8855,3,0,FALSE,,,
dig,364,1024299,0.0-102.0-0.0,,,,,,,,,,,"[{""stimulus"":""run_exp/static/images/task_images/dig.jpg"",""time"":0.16500003403052688},{""stimulus"":""run_exp/static/images/task_images/land.jpg"",""time"":895.0199999962933},{""stimulus"":""run_exp/static/images/task_images/dig.jpg"",""time"":1782.96500002034}]",[],24,,,,,,,,,,,,,,
harvest,365,1025303,0.0-102.0-1.0,,null,run_exp/static/images/task_images/gems/43.jpg,null,,,,,,21,,,24,,,,,43,0.484901206,0.488372093,,,,,,,
decision,366,1025610,0.0-102.0-2.0,,305.92,run_exp/static/images/task_images/land.jpg,76,,,,,,21,,,24,,,,,,,,12839,3,1,TRUE,,,
travel,367,1035311,0.0-103.0-0.0,,,,,,,,,,,"[{""stimulus"":""run_exp/static/images/task_images/rocket-01.jpg"",""time"":0.14000001829117537},{""stimulus"":""run_exp/static/images/task_images/rocket-02.jpg"",""time"":1079.7449999954551},{""stimulus"":""run_exp/static/images/task_images/rocket-03.jpg"",""time"":2158.8950000004843},{""stimulus"":""run_exp/static/images/task_images/rocket-04.jpg"",""time"":3232.1050000027753},{""stimulus"":""run_exp/static/images/task_images/rocket-05.jpg"",""time"":4313.7749999878},{""stimulus"":""run_exp/static/images/task_images/rocket-06.jpg"",""time"":5391.044999996666},{""stimulus"":""run_exp/static/images/task_images/rocket-07.jpg"",""time"":6467.004999984056},{""stimulus"":""run_exp/static/images/task_images/rocket-08.jpg"",""time"":7545.129999984056},{""stimulus"":""run_exp/static/images/task_images/rocket-09.jpg"",""time"":8622.124999994412}]",[],24,,,,,,,,,,,,,,
alien_welcome,368,1040318,0.0-103.0-1.0,,null,run_exp/static/images/task_images/aliens/old_aliens/planet/alien_planet-45.jpg,null,,,,,,,,,,,,45,"42,2,49,22,64,27,54,24,12,18,76,60,71,56,13,1,40,68,15,70,69,37,8,58,45,79,23,57,36,25,63,35,78,73,17,21,47,43,67,55,51,9",,,,,,,,,,
land,369,1040825,0.0-103.0-2.0,,null,run_exp/static/images/task_images/land.jpg,null,,,,,,99,,,25,,,,,,,,,,,,,,
dig,370,1042833,0.0-103.0-3.0,,,,,,,,,,,"[{""stimulus"":""run_exp/static/images/task_images/dig.jpg"",""time"":0.27000001864507794},{""stimulus"":""run_exp/static/images/task_images/land.jpg"",""time"":669.1499999724329},{""stimulus"":""run_exp/static/images/task_images/dig.jpg"",""time"":1335.6100000091828}]",[],25,,,,,,,,,,,,,,
harvest,371,1043838,0.0-103.0-4.0,,null,run_exp/static/images/task_images/gems/99.jpg,null,,,,,,83,,,25,,,,,99,0.834573774,0.838383838,,,,,,,
decision,372,1044108,0.0-103.0-5.0,,268.695,run_exp/static/images/task_images/land.jpg,65,,,,,,83,,,25,,,,,,,,31337,3,0,FALSE,,,
dig,373,1046844,0.0-104.0-0.0,,,,,,,,,,,"[{""stimulus"":""run_exp/static/images/task_images/dig.jpg"",""time"":0.14999997802078724},{""stimulus"":""run_exp/static/images/task_images/land.jpg"",""time"":916.1149999708869},{""stimulus"":""run_exp/static/images/task_images/dig.jpg"",""time"":1824.9599999981}]",[],25,,,,,,,,,,,,,,
harvest,374,1047847,0.0-104.0-1.0,,null,run_exp/static/images/task_images/gems/83.jpg,null,,,,,,65,,,25,,,,,83,0.777708652,0.78313253,,,,,,,
decision,375,1048139,0.0-104.0-2.0,,290.92,run_exp/static/images/task_images/land.jpg,65,,,,,,65,,,25,,,,,,,,35368,3,1,FALSE,,,
dig,376,1050853,0.0-105.0-0.0,,,,,,,,,,,"[{""stimulus"":""run_exp/static/images/task_images/dig.jpg"",""time"":0.13500003842636943},{""stimulus"":""run_exp/static/images/task_images/land.jpg"",""time"":904.3050000327639},{""stimulus"":""run_exp/static/images/task_images/dig.jpg"",""time"":1812.0850000414066}]",[],25,,,,,,,,,,,,,,
harvest,377,1051856,0.0-105.0-1.0,,null,run_exp/static/images/task_images/gems/65.jpg,null,,,,,,51,,,25,,,,,65,0.78726777,0.784615385,,,,,,,
decision,378,1052035,0.0-105.0-2.0,,176.965,run_exp/static/images/task_images/land.jpg,65,,,,,,51,,,25,,,,,,,,39264,3,2,FALSE,,,
dig,379,1054868,0.0-106.0-0.0,,,,,,,,,,,"[{""stimulus"":""run_exp/static/images/task_images/dig.jpg"",""time"":0.1449999981559813},{""stimulus"":""run_exp/static/images/task_images/land.jpg"",""time"":942.4750000471249},{""stimulus"":""run_exp/static/images/task_images/dig.jpg"",""time"":1885.695000004489}]",[],25,,,,,,,,,,,,,,
harvest,380,1055871,0.0-106.0-1.0,,null,run_exp/static/images/task_images/gems/51.jpg,null,,,,,,43,,,25,,,,,51,0.846289834,0.843137255,,,,,,,
decision,381,1056108,0.0-106.0-2.0,,235.255,run_exp/static/images/task_images/land.jpg,65,,,,,,43,,,25,,,,,,,,43337,3,3,FALSE,,,
