trial_type,trial_index,time_elapsed,internal_node_id,interactions,blur_events,focus_events,fullscreenenter_events,fullscreenexit_events,success,rt,stimulus,key_press,prompt,subject_id,participant_id,age,gender,button_pressed,next_reward,animation_sequence,responses,planet,curr_prac_trial,n_prac_rounds,alien,aliens,reward_received,decay_rate_actual,decay_rate_exp,time_in_block,block_num,prt,last_trial_on_planet,button_html,bonus,num_failures
pavlovia,0,37,0.0-0.0,"""event"",""trial"",""time""
""fullscreenenter"",""1"",""146626""
","
","
","""event"",""trial"",""time""
""fullscreenenter"",""1"",""146626""
","
",,,,,,,,,,,,,,,,,,,,,,,,,,,,
fullscreen,1,147614,0.0-1.0,"""event"",""trial"",""time""
""fullscreenenter"",""1"",""146626""
","
","
","""event"",""trial"",""time""
""fullscreenenter"",""1"",""146626""
","
",TRUE,,,,,,,,,,,,,,,,,,,,,,,,,,,
instruc_welcome,2,157536,0.0-2.0,"""event"",""trial"",""time""
""fullscreenenter"",""1"",""146626""
","
","
","""event"",""trial"",""time""
""fullscreenenter"",""1"",""146626""
","
",,null,run_exp/static/audio/clip_1_welcome.m4a,null,"<p>Howdy! In this experiment, you’ll be an explorer traveling through space to collect space treasure.</p><p>Your mission is to collect as much treasure as possible.</p><br><br><p><img src='run_exp/static/images/task_images/opening_img-01.jpg' height='300' width='auto'></p>",9308,1457,15.95,Female,,,,,,,,,,,,,,,,,,,
audio-keyboard-response,3,174562,0.0-3.0,"""event"",""trial"",""time""
""fullscreenenter"",""1"",""146626""
","
","
","""event"",""trial"",""time""
""fullscreenenter"",""1"",""146626""
","
",,null,run_exp/static/audio/clip_2_move.m4a,null,,,,,,,,,,,,,,,,,,,,,,,,
welcome_dec,4,176678,0.0-4.0,"""event"",""trial"",""time""
""fullscreenenter"",""1"",""146626""
","
","
","""event"",""trial"",""time""
""fullscreenenter"",""1"",""146626""
","
",,2102.3,"<p>Howdy! In this experiment, you’ll be an explorer traveling through space to collect space treasure.</p><p>Your mission is to collect as much treasure as possible.</p><br><br><p><img src='run_exp/static/images/task_images/opening_img-01.jpg' height='300' width='auto'></p>",,,,,,,0,,,,,,,,,,,,,,,,,,
html-keyboard-response,5,177654,0.0-5.0,"""event"",""trial"",""time""
""fullscreenenter"",""1"",""146626""
","
","
","""event"",""trial"",""time""
""fullscreenenter"",""1"",""146626""
","
",,964.9,"<p>Howdy! In this experiment, you’ll be an explorer traveling through space to collect space treasure.</p><p>Your mission is to collect as much treasure as possible.</p><br><br><p><img src='run_exp/static/images/task_images/opening_img-01.jpg' height='300' width='auto'></p><button class=""jspsych-html-btn-chosen""><img src=""run_exp/static/images/task_images/planet-01.jpg"" height=""50""></button><button class=""jspsych-html-btn-unchosen""><img src=""run_exp/static/images/task_images/planet-02.jpg"" height=""50""></button><p><b>[press the space bar to lock in your answer]<b><br></p>",32,,,,,,,,,,,,,,,,,,,,,,,,
instruc_welcome,6,187756,0.0-6.0-0.0,"""event"",""trial"",""time""
""fullscreenenter"",""1"",""146626""
","
","
","""event"",""trial"",""time""
""fullscreenenter"",""1"",""146626""
","
",,null,run_exp/static/audio/clip_1_welcome.m4a,null,"<p>Howdy! In this experiment, you’ll be an explorer traveling through space to collect space treasure.</p><p>Your mission is to collect as much treasure as possible.</p><br><br><p><img src='run_exp/static/images/task_images/opening_img-01.jpg' height='300' width='auto'></p>",9308,1457,15.95,Female,,,,,,,,,,,,,,,,,,,
audio-keyboard-response,7,204790,0.0-6.0-1.0,"""event"",""trial"",""time""
""fullscreenenter"",""1"",""146626""
","
","
","""event"",""trial"",""time""
""fullscreenenter"",""1"",""146626""
","
",,null,run_exp/static/audio/clip_2_move.m4a,null,,,,,,,,,,,,,,,,,,,,,,,,
welcome_dec,8,205460,0.0-6.0-2.0,"""event"",""trial"",""time""
""fullscreenenter"",""1"",""146626""
","
","
","""event"",""trial"",""time""
""fullscreenenter"",""1"",""146626""
","
",,659.3,"<p>Howdy! In this experiment, you’ll be an explorer traveling through space to collect space treasure.</p><p>Your mission is to collect as much treasure as possible.</p><br><br><p><img src='run_exp/static/images/task_images/opening_img-01.jpg' height='300' width='auto'></p>",,,,,,,1,,,,,,,,,,,,,,,,,,
html-keyboard-response,9,206107,0.0-6.0-3.0,"""event"",""trial"",""time""
""fullscreenenter"",""1"",""146626""
","
","
","""event"",""trial"",""time""
""fullscreenenter"",""1"",""146626""
","
",,640.7,"<p>Howdy! In this experiment, you’ll be an explorer traveling through space to collect space treasure.</p><p>Your mission is to collect as much treasure as possible.</p><br><br><p><img src='run_exp/static/images/task_images/opening_img-01.jpg' height='300' width='auto'></p><button class=""jspsych-html-btn-unchosen""><img src=""run_exp/static/images/task_images/planet-01.jpg"" height=""50""></button><button class=""jspsych-html-btn-chosen""><img src=""run_exp/static/images/task_images/planet-02.jpg"" height=""50""></button><p><b>[press the space bar to lock in your answer]<b><br></p>",32,,,,,,,,,,,,,,,,,,,,,,,,
instruc_goal,10,216570,0.0-7.0-0.0,"""event"",""trial"",""time""
""fullscreenenter"",""1"",""146626""
","
","
","""event"",""trial"",""time""
""fullscreenenter"",""1"",""146626""
","
",,null,run_exp/static/audio/clip_3_goal.m4a,null,"<p> As a space explorer, you’ll visit different planets to dig for space treasure, these pink gems.</p> <p> The more treasure you dig up, the more bonus money you’ll win! </p><br><br><p><img src='run_exp/static/images/task_images/pink_gem.jpg' height='300' width='auto'></p>",,,,,,,,,,,,,,,,,,,,,,,
instruc_goal,11,220955,0.0-7.0-1.0,"""event"",""trial"",""time""
""fullscreenenter"",""1"",""146626""
","
","
","""event"",""trial"",""time""
""fullscreenenter"",""1"",""146626""
","
",,4375.3,"<p> As a space explorer, you’ll visit different planets to dig for space treasure, these pink gems.</p> <p> The more treasure you dig up, the more bonus money you’ll win! </p><br><br><p><img src='run_exp/static/images/task_images/pink_gem.jpg' height='300' width='auto'></p>",,,,,,,1,,,,,,,,,,,,,,,,,,
html-keyboard-response,12,221730,0.0-7.0-2.0,"""event"",""trial"",""time""
""fullscreenenter"",""1"",""146626""
","
","
","""event"",""trial"",""time""
""fullscreenenter"",""1"",""146626""
","
",,769.2,"<p> As a space explorer, you’ll visit different planets to dig for space treasure, these pink gems.</p> <p> The more treasure you dig up, the more bonus money you’ll win! </p><br><br><p><img src='run_exp/static/images/task_images/pink_gem.jpg' height='300' width='auto'></p><button class=""jspsych-html-btn-unchosen""><img src=""run_exp/static/images/task_images/planet-01.jpg"" height=""50""></button><button class=""jspsych-html-btn-chosen""><img src=""run_exp/static/images/task_images/planet-02.jpg"" height=""50""></button><p><b>[press the space bar to lock in your answer]<b><br></p>",32,,,,,,,,,,,,,,,,,,,,,,,,
instruc_dig,13,238086,0.0-8.0-0.0,"""event"",""trial"",""time""
""fullscreenenter"",""1"",""146626""
","
","
","""event"",""trial"",""time""
""fullscreenenter"",""1"",""146626""
","
",,null,run_exp/static/audio/clip_4_dig.m4a,null,,,,,,,100,,,,,,,,,,,,,,,,,
instruc_dig_try,14,238416,0.0-8.0-1.0,"""event"",""trial"",""time""
""fullscreenenter"",""1"",""146626""
","
","
","""event"",""trial"",""time""
""fullscreenenter"",""1"",""146626""
","
",,318.7,"<p> When you’ve arrived at a new planet, you will dig once. </p> <p>Then, you get to decide if you want to stay on the planet and dig again or travel to a new planet and dig there.</p> <p> To stay and dig, press the letter <strong>‘A’</strong> on your keyboard. Try pressing it now! </p><p><img src='run_exp/static/images/task_images/land.jpg'  height='700' width='auto'></p>",65,"<p> When you’ve arrived at a new planet, you will dig once. </p> <p>Then, you get to decide if you want to stay on the planet and dig again or travel to a new planet and dig there.</p> <p> To stay and dig, press the letter <strong>‘A’</strong> on your keyboard. Try pressing it now! </p><p><img src='run_exp/static/images/task_images/land.jpg'  height='700' width='auto'></p>",,,,,,100,,,,,,,,,,,,,,,,,
dig_prac,15,240483,0.0-8.0-2.0,"""event"",""trial"",""time""
""fullscreenenter"",""1"",""146626""
","
","
","""event"",""trial"",""time""
""fullscreenenter"",""1"",""146626""
","
",,,,,,,,,,,,"[{""stimulus"":""run_exp/static/images/task_images/dig.jpg"",""time"":1},{""stimulus"":""run_exp/static/images/task_images/land.jpg"",""time"":671.6000000000931},{""stimulus"":""run_exp/static/images/task_images/dig.jpg"",""time"":1826.9000000000233}]",[],,,,,,,,,,,,,,,
instruc_travel,16,277015,0.0-8.0-3.0,"""event"",""trial"",""time""
""fullscreenenter"",""1"",""146626""
","
","
","""event"",""trial"",""time""
""fullscreenenter"",""1"",""146626""
","
",,null,run_exp/static/audio/clip_5_travel.m4a,null,"<p>Every time you dig up gems, there are less gems on the planet, so the more you dig on a planet the fewer gems you’ll get with each dig.</p><p>When gems are running low, you may want to travel to a new planet. </p> <p>  Planets are very far apart in this galaxy, so it will take some time to travel between them. </p> <br><p>There are lots and lots of planets for you to visit, so you won’t be able to return to any planets you’ve seen before. </p><br><p>To leave this planet and travel to a new one, press the letter <strong>‘L’</strong> on your keyboard. Try pressing it now! </p><p><img src='run_exp/static/images/task_images/rocket-01.jpg'  height='600' width='auto'></p>",,,,,,,,,,,,,,,,,,,,,,,
instruc_travel_try,17,277261,0.0-8.0-4.0,"""event"",""trial"",""time""
""fullscreenenter"",""1"",""146626""
","
","
","""event"",""trial"",""time""
""fullscreenenter"",""1"",""146626""
","
",,240.5,"<p>Every time you dig up gems, there are less gems on the planet, so the more you dig on a planet the fewer gems you’ll get with each dig.</p><p>When gems are running low, you may want to travel to a new planet. </p> <p>  Planets are very far apart in this galaxy, so it will take some time to travel between them. </p> <br><p>There are lots and lots of planets for you to visit, so you won’t be able to return to any planets you’ve seen before. </p><br><p>To leave this planet and travel to a new one, press the letter <strong>‘L’</strong> on your keyboard. Try pressing it now! </p><p><img src='run_exp/static/images/task_images/rocket-01.jpg'  height='600' width='auto'></p>",76,"<p>Every time you dig up gems, there are less gems on the planet, so the more you dig on a planet the fewer gems you’ll get with each dig.</p><p>When gems are running low, you may want to travel to a new planet. </p> <p>  Planets are very far apart in this galaxy, so it will take some time to travel between them. </p> <br><p>There are lots and lots of planets for you to visit, so you won’t be able to return to any planets you’ve seen before. </p><br><p>To leave this planet and travel to a new one, press the letter <strong>‘L’</strong> on your keyboard. Try pressing it now! </p><p><img src='run_exp/static/images/task_images/rocket-01.jpg'  height='600' width='auto'></p>",,,,,,,,,,,,,,,,,,,,,,,
travel_prac,18,287274,0.0-8.0-5.0,"""event"",""trial"",""time""
""fullscreenenter"",""1"",""146626""
","
","
","""event"",""trial"",""time""
""fullscreenenter"",""1"",""146626""
","
",,,,,,,,,,,,"[{""stimulus"":""run_exp/static/images/task_images/rocket-01.jpg"",""time"":1.2000000000698492},{""stimulus"":""run_exp/static/images/task_images/rocket-02.jpg"",""time"":1115.7000000000698},{""stimulus"":""run_exp/static/images/task_images/rocket-03.jpg"",""time"":2227.5},{""stimulus"":""run_exp/static/images/task_images/rocket-04.jpg"",""time"":3337.70000000007},{""stimulus"":""run_exp/static/images/task_images/rocket-05.jpg"",""time"":4449.5},{""stimulus"":""run_exp/static/images/task_images/rocket-06.jpg"",""time"":5559.20000000007},{""stimulus"":""run_exp/static/images/task_images/rocket-07.jpg"",""time"":6672},{""stimulus"":""run_exp/static/images/task_images/rocket-08.jpg"",""time"":7781.099999999977},{""stimulus"":""run_exp/static/images/task_images/rocket-09.jpg"",""time"":8893.70000000007}]",[],0,,,,,,,,,,,,,,
instruc_alien_greet,19,314750,0.0-8.0-6.0,"""event"",""trial"",""time""
""fullscreenenter"",""1"",""146626""
","
","
","""event"",""trial"",""time""
""fullscreenenter"",""1"",""146626""
","
",,null,run_exp/static/audio/clip_6_alien.m4a,null,"<p>When you arrive at a new planet, the alien who owns the treasure mine on that planet will greet you!</p><p>The better an alien takes care of their mine the easier it is to dig for gems. Some aliens take better care of their mine than others. So, you won’t get exactly the same amount of gems on each planet.</p><p>What the alien looks like does not tell you anything about how many gems there are on the planet.</p><br><p><img src=""run_exp/static/images/task_images/aliens/instructions_aliens/planet/alien_planet-1.jpg""  height=""600"" width=""auto""></p>",,,,,,,,,,,,,,,,,,,,,,,
instruc_alien_greet,20,329470,0.0-8.0-7.0,"""event"",""trial"",""time""
""fullscreenenter"",""1"",""146626""
","
","
","""event"",""trial"",""time""
""fullscreenenter"",""1"",""146626""
","
",,14708.2,"<p>When you arrive at a new planet, the alien who owns the treasure mine on that planet will greet you!</p><p>The better an alien takes care of their mine the easier it is to dig for gems. Some aliens take better care of their mine than others. So, you won’t get exactly the same amount of gems on each planet.</p><p>What the alien looks like does not tell you anything about how many gems there are on the planet.</p><br><p><img src=""run_exp/static/images/task_images/aliens/instructions_aliens/planet/alien_planet-1.jpg""  height=""600"" width=""auto""></p>",,,,,,,1,,,,,,,,,,,,,,,,,,
html-keyboard-response,21,332622,0.0-8.0-8.0,"""event"",""trial"",""time""
""fullscreenenter"",""1"",""146626""
","
","
","""event"",""trial"",""time""
""fullscreenenter"",""1"",""146626""
","
",,3144.8,"<p>When you arrive at a new planet, the alien who owns the treasure mine on that planet will greet you!</p><p>The better an alien takes care of their mine the easier it is to dig for gems. Some aliens take better care of their mine than others. So, you won’t get exactly the same amount of gems on each planet.</p><p>What the alien looks like does not tell you anything about how many gems there are on the planet.</p><br><p><img src=""run_exp/static/images/task_images/aliens/instructions_aliens/planet/alien_planet-1.jpg""  height=""600"" width=""auto""></p><button class=""jspsych-html-btn-unchosen""><img src=""run_exp/static/images/task_images/planet-01.jpg"" height=""50""></button><button class=""jspsych-html-btn-chosen""><img src=""run_exp/static/images/task_images/planet-02.jpg"" height=""50""></button><p><b>[press the space bar to lock in your answer]<b><br></p>",32,,,,,,,,,,,,,,,,,,,,,,,,
time_out,22,343925,0.0-9.0-0.0,"""event"",""trial"",""time""
""fullscreenenter"",""1"",""146626""
","
","
","""event"",""trial"",""time""
""fullscreenenter"",""1"",""146626""
","
",,null,run_exp/static/audio/clip_7_timeout.m4a,null,"<p>If you don't make your choice fast enough, you’ll have to wait a few seconds before you can make another one.</p><p>You can’t dig for more gems or travel to new planets. You just have to sit and wait.</p><br><p><img src='run_exp/static/images/task_images/time_out.jpg'  height='600' width='auto'></p>",,,,,,,,,,,,,,,,,,,,,,,
time_out,23,346526,0.0-9.0-1.0,"""event"",""trial"",""time""
""fullscreenenter"",""1"",""146626""
","
","
","""event"",""trial"",""time""
""fullscreenenter"",""1"",""146626""
","
",,2590,"<p>If you don't make your choice fast enough, you’ll have to wait a few seconds before you can make another one.</p><p>You can’t dig for more gems or travel to new planets. You just have to sit and wait.</p><br><p><img src='run_exp/static/images/task_images/time_out.jpg'  height='600' width='auto'></p>",,,,,,,1,,,,,,,,,,,,,,,,,,
html-keyboard-response,24,351825,0.0-9.0-2.0,"""event"",""trial"",""time""
""fullscreenenter"",""1"",""146626""
","
","
","""event"",""trial"",""time""
""fullscreenenter"",""1"",""146626""
","
",,5290.2,"<p>If you don't make your choice fast enough, you’ll have to wait a few seconds before you can make another one.</p><p>You can’t dig for more gems or travel to new planets. You just have to sit and wait.</p><br><p><img src='run_exp/static/images/task_images/time_out.jpg'  height='600' width='auto'></p><button class=""jspsych-html-btn-unchosen""><img src=""run_exp/static/images/task_images/planet-01.jpg"" height=""50""></button><button class=""jspsych-html-btn-chosen""><img src=""run_exp/static/images/task_images/planet-02.jpg"" height=""50""></button><p><b>[press the space bar to lock in your answer]<b><br></p>",32,,,,,,,,,,,,,,,,,,,,,,,,
instruc_break,25,367743,0.0-10.0-0.0,"""event"",""trial"",""time""
""fullscreenenter"",""1"",""146626""
","
","
","""event"",""trial"",""time""
""fullscreenenter"",""1"",""146626""
","
",,null,run_exp/static/audio/clip_8_break.m4a,null,"<p> After digging and traveling for a while, you’ll be able to take a break at home base. </p><p>The game will last 20 minutes no matter what.</p><p>You will visit home base every 5 minutes, so, you will visit home base three times during the game.</p><br><p><img src='run_exp/static/images/task_images/home_base.jpg' height='600' width='auto'></p>",,,,,,,,,,,,,,,,,,,,,,,
instruc_break,26,371164,0.0-10.0-1.0,"""event"",""trial"",""time""
""fullscreenenter"",""1"",""146626""
","
","
","""event"",""trial"",""time""
""fullscreenenter"",""1"",""146626""
","
",,3409.4,"<p> After digging and traveling for a while, you’ll be able to take a break at home base. </p><p>The game will last 20 minutes no matter what.</p><p>You will visit home base every 5 minutes, so, you will visit home base three times during the game.</p><br><p><img src='run_exp/static/images/task_images/home_base.jpg' height='600' width='auto'></p>",,,,,,,1,,,,,,,,,,,,,,,,,,
html-keyboard-response,27,376072,0.0-10.0-2.0,"""event"",""trial"",""time""
""fullscreenenter"",""1"",""146626""
","
","
","""event"",""trial"",""time""
""fullscreenenter"",""1"",""146626""
","
",,4902.6,"<p> After digging and traveling for a while, you’ll be able to take a break at home base. </p><p>The game will last 20 minutes no matter what.</p><p>You will visit home base every 5 minutes, so, you will visit home base three times during the game.</p><br><p><img src='run_exp/static/images/task_images/home_base.jpg' height='600' width='auto'></p><button class=""jspsych-html-btn-unchosen""><img src=""run_exp/static/images/task_images/planet-01.jpg"" height=""50""></button><button class=""jspsych-html-btn-chosen""><img src=""run_exp/static/images/task_images/planet-02.jpg"" height=""50""></button><p><b>[press the space bar to lock in your answer]<b><br></p>",32,,,,,,,,,,,,,,,,,,,,,,,,
instruc_prac_game,28,386569,0.0-11.0-0.0,"""event"",""trial"",""time""
""fullscreenenter"",""1"",""146626""
","
","
","""event"",""trial"",""time""
""fullscreenenter"",""1"",""146626""
","
",,null,run_exp/static/audio/clip_9_practice.m4a,null,"<p> Are you ready to play a practice game? </p> <p>In this practice game, you'll be digging up barrels of gems. But, in the real game, you'll be digging up the gems themselves. </p>",,,,,,,,,,,,,,,,,,,,,,,
html-button-response,29,388789,0.0-11.0-1.0,"""event"",""trial"",""time""
""fullscreenenter"",""1"",""146626""
","
","
","""event"",""trial"",""time""
""fullscreenenter"",""1"",""146626""
","
",,2210.6,"<p> Are you ready to play a practice game? </p> <p>In this practice game, you'll be digging up barrels of gems. But, in the real game, you'll be digging up the gems themselves. </p>",,,,,,,0,,,,,,,,,,,,,,,,,,
alien_welcome_prac,30,393802,0.0-12.0-0.0,"""event"",""trial"",""time""
""fullscreenenter"",""1"",""146626""
","
","
","""event"",""trial"",""time""
""fullscreenenter"",""1"",""146626""
","
",,null,run_exp/static/images/task_images/aliens/practice_aliens/planet/alien_planet-5.jpg,null,,,,,,,,,,,,,,,,,,,,,,,,
land_prac,31,394311,0.0-12.0-1.0,"""event"",""trial"",""time""
""fullscreenenter"",""1"",""146626""
","
","
","""event"",""trial"",""time""
""fullscreenenter"",""1"",""146626""
","
",,null,run_exp/static/images/task_images/land.jpg,null,,,,,,,94,,,0,,,,,,,,,,,,,,
dig_prac,32,396328,0.0-12.0-2.0,"""event"",""trial"",""time""
""fullscreenenter"",""1"",""146626""
","
","
","""event"",""trial"",""time""
""fullscreenenter"",""1"",""146626""
","
",,,,,,,,,,,,"[{""stimulus"":""run_exp/static/images/task_images/dig.jpg"",""time"":1},{""stimulus"":""run_exp/static/images/task_images/land.jpg"",""time"":674.9000000000233},{""stimulus"":""run_exp/static/images/task_images/dig.jpg"",""time"":1341}]",[],,,,,,,,,,,,,,,
harvest_prac,33,397336,0.0-12.0-3.0,"""event"",""trial"",""time""
""fullscreenenter"",""1"",""146626""
","
","
","""event"",""trial"",""time""
""fullscreenenter"",""1"",""146626""
","
",,null,run_exp/static/images/task_images/barrel_text.jpg,null,,,,,,,,,,,,,,,,,,,,,,,,
decision_prac,34,400060,0.0-12.0-4.0,"""event"",""trial"",""time""
""fullscreenenter"",""1"",""146626""
","
","
","""event"",""trial"",""time""
""fullscreenenter"",""1"",""146626""
","
",,2715.6,run_exp/static/images/task_images/land.jpg,65,,,,,,,,,,,1,,,,,,,,,,,,,
dig_prac,35,402077,0.0-13.0-0.0,"""event"",""trial"",""time""
""fullscreenenter"",""1"",""146626""
","
","
","""event"",""trial"",""time""
""fullscreenenter"",""1"",""146626""
","
",,,,,,,,,,,,"[{""stimulus"":""run_exp/static/images/task_images/dig.jpg"",""time"":0.7999999999301508},{""stimulus"":""run_exp/static/images/task_images/land.jpg"",""time"":671.1999999999534},{""stimulus"":""run_exp/static/images/task_images/dig.jpg"",""time"":1338.5999999999767}]",[],,,,,,,,,,,,,,,
harvest_prac,36,403081,0.0-13.0-1.0,"""event"",""trial"",""time""
""fullscreenenter"",""1"",""146626""
","
","
","""event"",""trial"",""time""
""fullscreenenter"",""1"",""146626""
","
",,null,run_exp/static/images/task_images/barrel_text.jpg,null,,,,,,,,,,,,,,,,,,,,,,,,
decision_prac,37,405403,0.0-13.0-2.0,"""event"",""trial"",""time""
""fullscreenenter"",""1"",""146626""
","
","
","""event"",""trial"",""time""
""fullscreenenter"",""1"",""146626""
","
",,2318.4,run_exp/static/images/task_images/land.jpg,65,,,,,,,,,,,2,,,,,,,,,,,,,
dig_prac,38,407421,0.0-14.0-0.0,"""event"",""trial"",""time""
""fullscreenenter"",""1"",""146626""
","
","
","""event"",""trial"",""time""
""fullscreenenter"",""1"",""146626""
","
",,,,,,,,,,,,"[{""stimulus"":""run_exp/static/images/task_images/dig.jpg"",""time"":0.7999999999301508},{""stimulus"":""run_exp/static/images/task_images/land.jpg"",""time"":672.5},{""stimulus"":""run_exp/static/images/task_images/dig.jpg"",""time"":1337.5}]",[],,,,,,,,,,,,,,,
harvest_prac,39,408429,0.0-14.0-1.0,"""event"",""trial"",""time""
""fullscreenenter"",""1"",""146626""
","
","
","""event"",""trial"",""time""
""fullscreenenter"",""1"",""146626""
","
",,null,run_exp/static/images/task_images/barrel_text.jpg,null,,,,,,,,,,,,,,,,,,,,,,,,
decision_prac,40,409329,0.0-14.0-2.0,"""event"",""trial"",""time""
""fullscreenenter"",""1"",""146626""
","
","
","""event"",""trial"",""time""
""fullscreenenter"",""1"",""146626""
","
",,893,run_exp/static/images/task_images/land.jpg,65,,,,,,,,,,,3,,,,,,,,,,,,,
dig_prac,41,411352,0.0-15.0-0.0,"""event"",""trial"",""time""
""fullscreenenter"",""1"",""146626""
","
","
","""event"",""trial"",""time""
""fullscreenenter"",""1"",""146626""
","
",,,,,,,,,,,,"[{""stimulus"":""run_exp/static/images/task_images/dig.jpg"",""time"":0.9000000000232831},{""stimulus"":""run_exp/static/images/task_images/land.jpg"",""time"":670.8000000000466},{""stimulus"":""run_exp/static/images/task_images/dig.jpg"",""time"":1342.1999999999534}]",[],,,,,,,,,,,,,,,
harvest_prac,42,412360,0.0-15.0-1.0,"""event"",""trial"",""time""
""fullscreenenter"",""1"",""146626""
","
","
","""event"",""trial"",""time""
""fullscreenenter"",""1"",""146626""
","
",,null,run_exp/static/images/task_images/barrel_text.jpg,null,,,,,,,,,,,,,,,,,,,,,,,,
decision_prac,43,412957,0.0-15.0-2.0,"""event"",""trial"",""time""
""fullscreenenter"",""1"",""146626""
","
","
","""event"",""trial"",""time""
""fullscreenenter"",""1"",""146626""
","
",,589.6,run_exp/static/images/task_images/land.jpg,76,,,,,,,,,,,4,,,,,,,,,,,,,
travel,44,422383,0.0-16.0-0.0,"""event"",""trial"",""time""
""fullscreenenter"",""1"",""146626""
","
","
","""event"",""trial"",""time""
""fullscreenenter"",""1"",""146626""
","
",,,,,,,,,,,,"[{""stimulus"":""run_exp/static/images/task_images/rocket-01.jpg"",""time"":0.7999999999301508},{""stimulus"":""run_exp/static/images/task_images/rocket-02.jpg"",""time"":1049},{""stimulus"":""run_exp/static/images/task_images/rocket-03.jpg"",""time"":2093.0999999999767},{""stimulus"":""run_exp/static/images/task_images/rocket-04.jpg"",""time"":3139.5999999999767},{""stimulus"":""run_exp/static/images/task_images/rocket-05.jpg"",""time"":4183.79999999993},{""stimulus"":""run_exp/static/images/task_images/rocket-06.jpg"",""time"":5229.79999999993},{""stimulus"":""run_exp/static/images/task_images/rocket-07.jpg"",""time"":6274.199999999953},{""stimulus"":""run_exp/static/images/task_images/rocket-08.jpg"",""time"":7319.399999999907},{""stimulus"":""run_exp/static/images/task_images/rocket-09.jpg"",""time"":8364.29999999993}]",[],0,,,,,,,,,,,,,,
alien_welcome_prac,45,427391,0.0-16.0-1.0,"""event"",""trial"",""time""
""fullscreenenter"",""1"",""146626""
","
","
","""event"",""trial"",""time""
""fullscreenenter"",""1"",""146626""
","
",,null,run_exp/static/images/task_images/aliens/practice_aliens/planet/alien_planet-4.jpg,null,,,,,,,,,,,,,,,,,,,,,,,,
land_prac,46,427900,0.0-16.0-2.0,"""event"",""trial"",""time""
""fullscreenenter"",""1"",""146626""
","
","
","""event"",""trial"",""time""
""fullscreenenter"",""1"",""146626""
","
",,null,run_exp/static/images/task_images/land.jpg,null,,,,,,,95,,,0,,,,,,,,,,,,,,
dig_prac,47,429908,0.0-16.0-3.0,"""event"",""trial"",""time""
""fullscreenenter"",""1"",""146626""
","
","
","""event"",""trial"",""time""
""fullscreenenter"",""1"",""146626""
","
",,,,,,,,,,,,"[{""stimulus"":""run_exp/static/images/task_images/dig.jpg"",""time"":0.9000000000232831},{""stimulus"":""run_exp/static/images/task_images/land.jpg"",""time"":671.5999999999767},{""stimulus"":""run_exp/static/images/task_images/dig.jpg"",""time"":1337.4000000000233}]",[],,,,,,,,,,,,,,,
harvest_prac,48,430914,0.0-16.0-4.0,"""event"",""trial"",""time""
""fullscreenenter"",""1"",""146626""
","
","
","""event"",""trial"",""time""
""fullscreenenter"",""1"",""146626""
","
",,null,run_exp/static/images/task_images/barrel_text.jpg,null,,,,,,,,,,,,,,,,,,,,,,,,
decision_prac,49,431602,0.0-16.0-5.0,"""event"",""trial"",""time""
""fullscreenenter"",""1"",""146626""
","
","
","""event"",""trial"",""time""
""fullscreenenter"",""1"",""146626""
","
",,681.8,run_exp/static/images/task_images/land.jpg,65,,,,,,,,,,,,1,,,,,,,,,,,,
quiz_instruc,50,434491,0.0-17.0-0.0,"""event"",""trial"",""time""
""fullscreenenter"",""1"",""146626""
","
","
","""event"",""trial"",""time""
""fullscreenenter"",""1"",""146626""
","
",,2868.6,run_exp/static/audio/clip_10_quiz.m4a,,,,,,,0,,,,,,,,,,,,,,,,,,
instruc_repeat,51,477618,0.0-17.0-1.0,"""event"",""trial"",""time""
""fullscreenenter"",""1"",""146626""
","
","
","""event"",""trial"",""time""
""fullscreenenter"",""1"",""146626""
","
",,null,"<p> Are you ready to play a practice game? </p> <p>In this practice game, you'll be digging up barrels of gems. But, in the real game, you'll be digging up the gems themselves. </p>",null,"<p>In this game, your goal is to collect as many gems as you can. That’s how you will win bonus money. </p> <p>The entire game will last 20 minutes no matter how many gems you collect or how many planets you visit. </p><p>To stay on a planet and dig again, press the letter A on your keyboard. To leave for a new planet, press the letter L.</p><p>The more you dig on a planet, the fewer gems you’ll get with each dig which is why you might consider leaving for a new planet. </p><p>When you arrive at a new planet, you’ll be greeted by an alien. What the alien looks like does not tell you anything about how much treasure is on the planet. </p>",,,,,,,,,,,,,,,,,,,,,,,
instruc_repeat_continue,52,479528,0.0-17.0-2.0,"""event"",""trial"",""time""
""fullscreenenter"",""1"",""146626""
","
","
","""event"",""trial"",""time""
""fullscreenenter"",""1"",""146626""
","
",,1903.4,"<p> Are you ready to play a practice game? </p> <p>In this practice game, you'll be digging up barrels of gems. But, in the real game, you'll be digging up the gems themselves. </p>",,,,,,,0,,,,,,,,,,,,,,,,,,
quiz_q_1_ask,53,482716,0.0-17.0-3.0,"""event"",""trial"",""time""
""fullscreenenter"",""1"",""146626""
","
","
","""event"",""trial"",""time""
""fullscreenenter"",""1"",""146626""
","
",,3179.7,run_exp/static/audio/clip_11_q1_ask.m4a,,,,,,,2,,,,,,,,,,,,,,,,,,
quiz_q_1_fb_correct,54,486966,0.0-18.0-0.0,"""event"",""trial"",""time""
""fullscreenenter"",""1"",""146626""
","
","
","""event"",""trial"",""time""
""fullscreenenter"",""1"",""146626""
","
",,null,run_exp/static/audio/clip_12_q1_correct.m4a,null,<p>That’s correct. You win extra money by collecting more gems.</p>,,,,,,,,,,,,,,,,,,,,,,,
quiz_q_2_ask,55,489833,0.0-18.0-1.0,"""event"",""trial"",""time""
""fullscreenenter"",""1"",""146626""
","
","
","""event"",""trial"",""time""
""fullscreenenter"",""1"",""146626""
","
",,2855.1,run_exp/static/audio/clip_14_q2_ask.m4a,,,,,,,1,,,,,,,,,,,,,,,,,,
quiz_q_2_fb_correct,56,494010,0.0-19.0-0.0,"""event"",""trial"",""time""
""fullscreenenter"",""1"",""146626""
","
","
","""event"",""trial"",""time""
""fullscreenenter"",""1"",""146626""
","
",,null,run_exp/static/audio/clip_15_q2_correct.m4a,null,<p>That’s correct. The experiment is 20 minutes no matter what.</p>,,,,,,,,,,,,,,,,,,,,,,,
quiz_q_3_ask,57,497315,0.0-19.0-1.0,"""event"",""trial"",""time""
""fullscreenenter"",""1"",""146626""
","
","
","""event"",""trial"",""time""
""fullscreenenter"",""1"",""146626""
","
",,3292.7,run_exp/static/audio/clip_17_q3_ask.m4a,,,,,,,1,,,,,,,,,,,,,,,,,,
quiz_q_3_fb_correct,58,501692,0.0-20.0-0.0,"""event"",""trial"",""time""
""fullscreenenter"",""1"",""146626""
","
","
","""event"",""trial"",""time""
""fullscreenenter"",""1"",""146626""
","
",,null,run_exp/static/audio/clip_18_q3_correct.m4a,null,<p> That’s correct. You press the letter L to travel to a new planet.</p>,,,,,,,,,,,,,,,,,,,,,,,
quiz_q_4_ask,59,505823,0.0-20.0-1.0,"""event"",""trial"",""time""
""fullscreenenter"",""1"",""146626""
","
","
","""event"",""trial"",""time""
""fullscreenenter"",""1"",""146626""
","
",,4120.1,run_exp/static/audio/clip_20_q4_ask.m4a,,,,,,,1,,,,,,,,,,,,,,,,,,
quiz_q_4_fb_incorrect,60,511937,0.0-21.0-0.0,"""event"",""trial"",""time""
""fullscreenenter"",""1"",""146626""
","
","
","""event"",""trial"",""time""
""fullscreenenter"",""1"",""146626""
","
",,null,run_exp/static/audio/clip_22_q4_incorrect.m4a,null,<p>That’s incorrect.  The more you dig on a planet the fewer gems you’ll get with each dig.</p>,,,,,,,,,,,,,,,,,,,,,,,
quiz_q_5_ask,61,515587,0.0-21.0-1.0,"""event"",""trial"",""time""
""fullscreenenter"",""1"",""146626""
","
","
","""event"",""trial"",""time""
""fullscreenenter"",""1"",""146626""
","
",,3640.5,run_exp/static/audio/clip_23_q5_ask.m4a,,,,,,,1,,,,,,,,,,,,,,,,,,
quiz_q_5_fb_correct,62,520901,0.0-22.0-0.0,"""event"",""trial"",""time""
""fullscreenenter"",""1"",""146626""
","
","
","""event"",""trial"",""time""
""fullscreenenter"",""1"",""146626""
","
",,null,run_exp/static/audio/clip_24_q5_correct.m4a,null,<p> That’s correct. The alien tells you nothing about how much treasure is on the planet.</p>,,,,,,,,,,,,,,,,,,,,,,,
quiz_incorrect,63,526794,0.0-23.0-0.0,"""event"",""trial"",""time""
""fullscreenenter"",""1"",""146626""
","
","
","""event"",""trial"",""time""
""fullscreenenter"",""1"",""146626""
","
",,null,run_exp/static/audio/clip_27_incorrect_quiz.m4a,null,,,,,,,,,,,,,,,,,,,,,,,,
quiz_incorrect_continue,64,529739,0.0-23.0-1.0,"""event"",""trial"",""time""
""fullscreenenter"",""1"",""146626""
","
","
","""event"",""trial"",""time""
""fullscreenenter"",""1"",""146626""
","
",,2938,"<p>Oops, you missed some questions.</p><p>Now that you’ve heard the correct answers. Try the quiz again!</p>",,,,,,,0,,,,,,,,,,,,,,,,,,
quiz_q_1_ask,65,532869,0.0-23.0-2.0,"""event"",""trial"",""time""
""fullscreenenter"",""1"",""146626""
","
","
","""event"",""trial"",""time""
""fullscreenenter"",""1"",""146626""
","
",,3122.4,run_exp/static/audio/clip_11_q1_ask.m4a,,,,,,,2,,,,,,,,,,,,,,,,,,
quiz_q_1_fb_correct,66,537035,0.0-24.0-0.0,"""event"",""trial"",""time""
""fullscreenenter"",""1"",""146626""
","
","
","""event"",""trial"",""time""
""fullscreenenter"",""1"",""146626""
","
",,null,run_exp/static/audio/clip_12_q1_correct.m4a,null,<p>That’s correct. You win extra money by collecting more gems.</p>,,,,,,,,,,,,,,,,,,,,,,,
quiz_q_2_ask,67,538408,0.0-24.0-1.0,"""event"",""trial"",""time""
""fullscreenenter"",""1"",""146626""
","
","
","""event"",""trial"",""time""
""fullscreenenter"",""1"",""146626""
","
",,1366.5,run_exp/static/audio/clip_14_q2_ask.m4a,,,,,,,1,,,,,,,,,,,,,,,,,,
quiz_q_2_fb_correct,68,542546,0.0-25.0-0.0,"""event"",""trial"",""time""
""fullscreenenter"",""1"",""146626""
","
","
","""event"",""trial"",""time""
""fullscreenenter"",""1"",""146626""
","
",,null,run_exp/static/audio/clip_15_q2_correct.m4a,null,<p>That’s correct. The experiment is 20 minutes no matter what.</p>,,,,,,,,,,,,,,,,,,,,,,,
quiz_q_3_ask,69,544712,0.0-25.0-1.0,"""event"",""trial"",""time""
""fullscreenenter"",""1"",""146626""
","
","
","""event"",""trial"",""time""
""fullscreenenter"",""1"",""146626""
","
",,2157.3,run_exp/static/audio/clip_17_q3_ask.m4a,,,,,,,1,,,,,,,,,,,,,,,,,,
quiz_q_3_fb_correct,70,549075,0.0-26.0-0.0,"""event"",""trial"",""time""
""fullscreenenter"",""1"",""146626""
","
","
","""event"",""trial"",""time""
""fullscreenenter"",""1"",""146626""
","
",,null,run_exp/static/audio/clip_18_q3_correct.m4a,null,<p> That’s correct. You press the letter L to travel to a new planet.</p>,,,,,,,,,,,,,,,,,,,,,,,
quiz_q_4_ask,71,552925,0.0-26.0-1.0,"""event"",""trial"",""time""
""fullscreenenter"",""1"",""146626""
","
","
","""event"",""trial"",""time""
""fullscreenenter"",""1"",""146626""
","
",,3839.9,run_exp/static/audio/clip_20_q4_ask.m4a,,,,,,,0,,,,,,,,,,,,,,,,,,
quiz_q_4_fb_correct,72,558681,0.0-27.0-0.0,"""event"",""trial"",""time""
""fullscreenenter"",""1"",""146626""
","
","
","""event"",""trial"",""time""
""fullscreenenter"",""1"",""146626""
","
",,null,run_exp/static/audio/clip_21_q4_correct.m4a,null,<p> That’s correct. The more you dig on a planet the fewer gems you’ll get with each dig. </p>,,,,,,,,,,,,,,,,,,,,,,,
quiz_q_5_ask,73,564278,0.0-27.0-1.0,"""event"",""trial"",""time""
""fullscreenenter"",""1"",""146626""
","
","
","""event"",""trial"",""time""
""fullscreenenter"",""1"",""146626""
","
",,5583.8,run_exp/static/audio/clip_23_q5_ask.m4a,,,,,,,1,,,,,,,,,,,,,,,,,,
quiz_q_5_fb_correct,74,569564,0.0-28.0-0.0,"""event"",""trial"",""time""
""fullscreenenter"",""1"",""146626""
","
","
","""event"",""trial"",""time""
""fullscreenenter"",""1"",""146626""
","
",,null,run_exp/static/audio/clip_24_q5_correct.m4a,null,<p> That’s correct. The alien tells you nothing about how much treasure is on the planet.</p>,,,,,,,,,,,,,,,,,,,,,,,
quiz_correct,75,573408,0.0-29.0-0.0,"""event"",""trial"",""time""
""fullscreenenter"",""1"",""146626""
","
","
","""event"",""trial"",""time""
""fullscreenenter"",""1"",""146626""
","
",,null,run_exp/static/audio/clip_26_correct_quiz.m4a,null,,,,,,,,,,,,,,,,,,,,,,,,
quiz_correct_continue,76,574102,0.0-29.0-1.0,"""event"",""trial"",""time""
""fullscreenenter"",""1"",""146626""
","
","
","""event"",""trial"",""time""
""fullscreenenter"",""1"",""146626""
","
",,684.9,<p>Good job! You're now ready to move on to the real game!</p>,,,,,,,0,,,,,,,,,,,,,,,,,,
audio-keyboard-response,77,584549,0.0-29.0-2.0,"""event"",""trial"",""time""
""fullscreenenter"",""1"",""146626""
","
","
","""event"",""trial"",""time""
""fullscreenenter"",""1"",""146626""
","
",,null,run_exp/static/audio/clip_28_real_game.m4a,null,,,,,,,,,,,,,,,,,,,,,,,,
instruc_begin_exp_contine,78,587061,0.0-29.0-3.0,"""event"",""trial"",""time""
""fullscreenenter"",""1"",""146626""
","
","
","""event"",""trial"",""time""
""fullscreenenter"",""1"",""146626""
","
",,2503.4,"<p>Now that you know how  to dig for space treasure and travel to new planets,you can start exploring! </p><p>Do you want to go over the instructions again or get started with the real game?</p>",,,,,,,1,,,,,,1,,,,,,,,,,,,
alien_welcome,79,592076,0.0-30.0-0.0,"""event"",""trial"",""time""
""fullscreenenter"",""1"",""146626""
","
","
","""event"",""trial"",""time""
""fullscreenenter"",""1"",""146626""
","
",,null,run_exp/static/images/task_images/aliens/old_aliens/planet/alien_planet-9.jpg,null,,,,,,,,,,,,,9,"9,62,6,4,19,67,73,50,35,45,5,29,74,44,30,38,26,72,1,15,55,60,54,61,17,24,78,27,79,14,18,23,34,48,22,49,43,66,64,40",,,,,,,,,,
land,80,592586,0.0-30.0-1.0,"""event"",""trial"",""time""
""fullscreenenter"",""1"",""146626""
","
","
","""event"",""trial"",""time""
""fullscreenenter"",""1"",""146626""
","
",,null,run_exp/static/images/task_images/land.jpg,null,,,,,,,98,,,1,,,,,,,,,,,,,,
dig,81,594601,0.0-30.0-2.0,"""event"",""trial"",""time""
""fullscreenenter"",""1"",""146626""
","
","
","""event"",""trial"",""time""
""fullscreenenter"",""1"",""146626""
","
",,,,,,,,,,,,"[{""stimulus"":""run_exp/static/images/task_images/dig.jpg"",""time"":0.8000000000465661},{""stimulus"":""run_exp/static/images/task_images/land.jpg"",""time"":670.5999999999767},{""stimulus"":""run_exp/static/images/task_images/dig.jpg"",""time"":1337.6999999999534}]",[],1,,,,,,,,,,,,,,
harvest,82,595607,0.0-30.0-3.0,"""event"",""trial"",""time""
""fullscreenenter"",""1"",""146626""
","
","
","""event"",""trial"",""time""
""fullscreenenter"",""1"",""146626""
","
",,null,run_exp/static/images/task_images/gems/98.jpg,null,,,,,,,10,,,1,,,,,98,0.101749317,0.102040816,,,,,,,
decision,83,598459,0.0-30.0-4.0,"""event"",""trial"",""time""
""fullscreenenter"",""1"",""146626""
","
","
","""event"",""trial"",""time""
""fullscreenenter"",""1"",""146626""
","
",,2846.5,run_exp/static/images/task_images/land.jpg,65,,,,,,,10,,,1,,,,,,,,11393,1,0,FALSE,,,
dig,84,598629,0.0-31.0-0.0,"""event"",""trial"",""time""
""fullscreenenter"",""1"",""146626""
","
","
","""event"",""trial"",""time""
""fullscreenenter"",""1"",""146626""
","
",,,,,,,,,,,,"[{""stimulus"":""run_exp/static/images/task_images/dig.jpg"",""time"":0.5999999999767169},{""stimulus"":""run_exp/static/images/task_images/land.jpg"",""time"":54.09999999997672},{""stimulus"":""run_exp/static/images/task_images/dig.jpg"",""time"":105.90000000002328}]",[],1,,,,,,,,,,,,,,
harvest,85,600033,0.0-31.0-1.0,"""event"",""trial"",""time""
""fullscreenenter"",""1"",""146626""
","
","
","""event"",""trial"",""time""
""fullscreenenter"",""1"",""146626""
","
",,null,run_exp/static/images/task_images/gems/10.jpg,null,,,,,,,2,,,1,,,,,10,0.178118908,0.2,,,,,,,
decision,86,601106,0.0-31.0-2.0,"""event"",""trial"",""time""
""fullscreenenter"",""1"",""146626""
","
","
","""event"",""trial"",""time""
""fullscreenenter"",""1"",""146626""
","
",,1066.3,run_exp/static/images/task_images/land.jpg,65,,,,,,,2,,,1,,,,,,,,14037,1,1,FALSE,,,
dig,87,603052,0.0-32.0-0.0,"""event"",""trial"",""time""
""fullscreenenter"",""1"",""146626""
","
","
","""event"",""trial"",""time""
""fullscreenenter"",""1"",""146626""
","
",,,,,,,,,,,,"[{""stimulus"":""run_exp/static/images/task_images/dig.jpg"",""time"":1},{""stimulus"":""run_exp/static/images/task_images/land.jpg"",""time"":648.8000000000466},{""stimulus"":""run_exp/static/images/task_images/dig.jpg"",""time"":1292.5999999999767}]",[],1,,,,,,,,,,,,,,
harvest,88,604057,0.0-32.0-1.0,"""event"",""trial"",""time""
""fullscreenenter"",""1"",""146626""
","
","
","""event"",""trial"",""time""
""fullscreenenter"",""1"",""146626""
","
",,null,run_exp/static/images/task_images/gems/2.jpg,null,,,,,,,0,,,1,,,,,2,0.206571536,0,,,,,,,
decision,89,605893,0.0-32.0-2.0,"""event"",""trial"",""time""
""fullscreenenter"",""1"",""146626""
","
","
","""event"",""trial"",""time""
""fullscreenenter"",""1"",""146626""
","
",,1825.8,run_exp/static/images/task_images/land.jpg,76,,,,,,,0,,,1,,,,,,,,18824,1,2,TRUE,,,
travel,90,614082,0.0-33.0-0.0,"""event"",""trial"",""time""
""fullscreenenter"",""1"",""146626""
","
","
","""event"",""trial"",""time""
""fullscreenenter"",""1"",""146626""
","
",,,,,,,,,,,,"[{""stimulus"":""run_exp/static/images/task_images/rocket-01.jpg"",""time"":0.7000000000698492},{""stimulus"":""run_exp/static/images/task_images/rocket-02.jpg"",""time"":911.3000000000466},{""stimulus"":""run_exp/static/images/task_images/rocket-03.jpg"",""time"":1818.9000000000233},{""stimulus"":""run_exp/static/images/task_images/rocket-04.jpg"",""time"":2727.70000000007},{""stimulus"":""run_exp/static/images/task_images/rocket-05.jpg"",""time"":3636.4000000000233},{""stimulus"":""run_exp/static/images/task_images/rocket-06.jpg"",""time"":4544.300000000047},{""stimulus"":""run_exp/static/images/task_images/rocket-07.jpg"",""time"":5453.400000000023},{""stimulus"":""run_exp/static/images/task_images/rocket-08.jpg"",""time"":6359.599999999977},{""stimulus"":""run_exp/static/images/task_images/rocket-09.jpg"",""time"":7268}]",[],1,,,,,,,,,,,,,,
alien_welcome,91,619093,0.0-33.0-1.0,"""event"",""trial"",""time""
""fullscreenenter"",""1"",""146626""
","
","
","""event"",""trial"",""time""
""fullscreenenter"",""1"",""146626""
","
",,null,run_exp/static/images/task_images/aliens/old_aliens/planet/alien_planet-62.jpg,null,,,,,,,,,,,,,62,"9,62,6,4,19,67,73,50,35,45,5,29,74,44,30,38,26,72,1,15,55,60,54,61,17,24,78,27,79,14,18,23,34,48,22,49,43,66,64,40",,,,,,,,,,
land,92,619602,0.0-33.0-2.0,"""event"",""trial"",""time""
""fullscreenenter"",""1"",""146626""
","
","
","""event"",""trial"",""time""
""fullscreenenter"",""1"",""146626""
","
",,null,run_exp/static/images/task_images/land.jpg,null,,,,,,,97,,,2,,,,,,,,,,,,,,
dig,93,621614,0.0-33.0-3.0,"""event"",""trial"",""time""
""fullscreenenter"",""1"",""146626""
","
","
","""event"",""trial"",""time""
""fullscreenenter"",""1"",""146626""
","
",,,,,,,,,,,,"[{""stimulus"":""run_exp/static/images/task_images/dig.jpg"",""time"":1},{""stimulus"":""run_exp/static/images/task_images/land.jpg"",""time"":672.5},{""stimulus"":""run_exp/static/images/task_images/dig.jpg"",""time"":1344}]",[],2,,,,,,,,,,,,,,
harvest,94,622617,0.0-33.0-4.0,"""event"",""trial"",""time""
""fullscreenenter"",""1"",""146626""
","
","
","""event"",""trial"",""time""
""fullscreenenter"",""1"",""146626""
","
",,null,run_exp/static/images/task_images/gems/97.jpg,null,,,,,,,23,,,2,,,,,97,0.233879702,0.237113402,,,,,,,
decision,95,624399,0.0-33.0-5.0,"""event"",""trial"",""time""
""fullscreenenter"",""1"",""146626""
","
","
","""event"",""trial"",""time""
""fullscreenenter"",""1"",""146626""
","
",,1778.3,run_exp/static/images/task_images/land.jpg,65,,,,,,,23,,,2,,,,,,,,37330,1,0,FALSE,,,
dig,96,625638,0.0-34.0-0.0,"""event"",""trial"",""time""
""fullscreenenter"",""1"",""146626""
","
","
","""event"",""trial"",""time""
""fullscreenenter"",""1"",""146626""
","
",,,,,,,,,,,,"[{""stimulus"":""run_exp/static/images/task_images/dig.jpg"",""time"":0.5999999999767169},{""stimulus"":""run_exp/static/images/task_images/land.jpg"",""time"":410.29999999993015},{""stimulus"":""run_exp/static/images/task_images/dig.jpg"",""time"":817.3999999999069}]",[],2,,,,,,,,,,,,,,
harvest,97,626644,0.0-34.0-1.0,"""event"",""trial"",""time""
""fullscreenenter"",""1"",""146626""
","
","
","""event"",""trial"",""time""
""fullscreenenter"",""1"",""146626""
","
",,null,run_exp/static/images/task_images/gems/23.jpg,null,,,,,,,4,,,2,,,,,23,0.175621209,0.173913043,,,,,,,
decision,98,627856,0.0-34.0-2.0,"""event"",""trial"",""time""
""fullscreenenter"",""1"",""146626""
","
","
","""event"",""trial"",""time""
""fullscreenenter"",""1"",""146626""
","
",,1204.8,run_exp/static/images/task_images/land.jpg,76,,,,,,,4,,,2,,,,,,,,40788,1,1,TRUE,,,
travel,99,636673,0.0-35.0-0.0,"""event"",""trial"",""time""
""fullscreenenter"",""1"",""146626""
","
","
","""event"",""trial"",""time""
""fullscreenenter"",""1"",""146626""
","
",,,,,,,,,,,,"[{""stimulus"":""run_exp/static/images/task_images/rocket-01.jpg"",""time"":0.7999999999301508},{""stimulus"":""run_exp/static/images/task_images/rocket-02.jpg"",""time"":981.5},{""stimulus"":""run_exp/static/images/task_images/rocket-03.jpg"",""time"":1957.4000000000233},{""stimulus"":""run_exp/static/images/task_images/rocket-04.jpg"",""time"":2941.4000000000233},{""stimulus"":""run_exp/static/images/task_images/rocket-05.jpg"",""time"":3911.5999999999767},{""stimulus"":""run_exp/static/images/task_images/rocket-06.jpg"",""time"":4889.699999999953},{""stimulus"":""run_exp/static/images/task_images/rocket-07.jpg"",""time"":5866.5},{""stimulus"":""run_exp/static/images/task_images/rocket-08.jpg"",""time"":6842.199999999953},{""stimulus"":""run_exp/static/images/task_images/rocket-09.jpg"",""time"":7819.699999999953}]",[],2,,,,,,,,,,,,,,
alien_welcome,100,641679,0.0-35.0-1.0,"""event"",""trial"",""time""
""fullscreenenter"",""1"",""146626""
","
","
","""event"",""trial"",""time""
""fullscreenenter"",""1"",""146626""
","
",,null,run_exp/static/images/task_images/aliens/old_aliens/planet/alien_planet-6.jpg,null,,,,,,,,,,,,,6,"9,62,6,4,19,67,73,50,35,45,5,29,74,44,30,38,26,72,1,15,55,60,54,61,17,24,78,27,79,14,18,23,34,48,22,49,43,66,64,40",,,,,,,,,,
land,101,642187,0.0-35.0-2.0,"""event"",""trial"",""time""
""fullscreenenter"",""1"",""146626""
","
","
","""event"",""trial"",""time""
""fullscreenenter"",""1"",""146626""
","
",,null,run_exp/static/images/task_images/land.jpg,null,,,,,,,95,,,3,,,,,,,,,,,,,,
dig,102,644202,0.0-35.0-3.0,"""event"",""trial"",""time""
""fullscreenenter"",""1"",""146626""
","
","
","""event"",""trial"",""time""
""fullscreenenter"",""1"",""146626""
","
",,,,,,,,,,,,"[{""stimulus"":""run_exp/static/images/task_images/dig.jpg"",""time"":0.9000000000232831},{""stimulus"":""run_exp/static/images/task_images/land.jpg"",""time"":671.5999999999767},{""stimulus"":""run_exp/static/images/task_images/dig.jpg"",""time"":1338.8000000000466}]",[],3,,,,,,,,,,,,,,
harvest,103,645209,0.0-35.0-4.0,"""event"",""trial"",""time""
""fullscreenenter"",""1"",""146626""
","
","
","""event"",""trial"",""time""
""fullscreenenter"",""1"",""146626""
","
",,null,run_exp/static/images/task_images/gems/95.jpg,null,,,,,,,50,,,3,,,,,95,0.529684673,0.526315789,,,,,,,
decision,104,647771,0.0-35.0-5.0,"""event"",""trial"",""time""
""fullscreenenter"",""1"",""146626""
","
","
","""event"",""trial"",""time""
""fullscreenenter"",""1"",""146626""
","
",,2554.5,run_exp/static/images/task_images/land.jpg,76,,,,,,,50,,,3,,,,,,,,60703,1,0,TRUE,,,
travel,105,655233,0.0-36.0-0.0,"""event"",""trial"",""time""
""fullscreenenter"",""1"",""146626""
","
","
","""event"",""trial"",""time""
""fullscreenenter"",""1"",""146626""
","
",,,,,,,,,,,,"[{""stimulus"":""run_exp/static/images/task_images/rocket-01.jpg"",""time"":0.8000000000465661},{""stimulus"":""run_exp/static/images/task_images/rocket-02.jpg"",""time"":831.0999999999767},{""stimulus"":""run_exp/static/images/task_images/rocket-03.jpg"",""time"":1659.3000000000466},{""stimulus"":""run_exp/static/images/task_images/rocket-04.jpg"",""time"":2486.20000000007},{""stimulus"":""run_exp/static/images/task_images/rocket-05.jpg"",""time"":3313.4000000000233},{""stimulus"":""run_exp/static/images/task_images/rocket-06.jpg"",""time"":4140.400000000023},{""stimulus"":""run_exp/static/images/task_images/rocket-07.jpg"",""time"":4967.599999999977},{""stimulus"":""run_exp/static/images/task_images/rocket-08.jpg"",""time"":5794.300000000047},{""stimulus"":""run_exp/static/images/task_images/rocket-09.jpg"",""time"":6619.5}]",[],3,,,,,,,,,,,,,,
alien_welcome,106,660244,0.0-36.0-1.0,"""event"",""trial"",""time""
""fullscreenenter"",""1"",""146626""
","
","
","""event"",""trial"",""time""
""fullscreenenter"",""1"",""146626""
","
",,null,run_exp/static/images/task_images/aliens/old_aliens/planet/alien_planet-4.jpg,null,,,,,,,,,,,,,4,"9,62,6,4,19,67,73,50,35,45,5,29,74,44,30,38,26,72,1,15,55,60,54,61,17,24,78,27,79,14,18,23,34,48,22,49,43,66,64,40",,,,,,,,,,
land,107,660751,0.0-36.0-2.0,"""event"",""trial"",""time""
""fullscreenenter"",""1"",""146626""
","
","
","""event"",""trial"",""time""
""fullscreenenter"",""1"",""146626""
","
",,null,run_exp/static/images/task_images/land.jpg,null,,,,,,,101,,,4,,,,,,,,,,,,,,
dig,108,662765,0.0-36.0-3.0,"""event"",""trial"",""time""
""fullscreenenter"",""1"",""146626""
","
","
","""event"",""trial"",""time""
""fullscreenenter"",""1"",""146626""
","
",,,,,,,,,,,,"[{""stimulus"":""run_exp/static/images/task_images/dig.jpg"",""time"":0.8000000000465661},{""stimulus"":""run_exp/static/images/task_images/land.jpg"",""time"":671.2000000000698},{""stimulus"":""run_exp/static/images/task_images/dig.jpg"",""time"":1338.3000000000466}]",[],4,,,,,,,,,,,,,,
harvest,109,663773,0.0-36.0-4.0,"""event"",""trial"",""time""
""fullscreenenter"",""1"",""146626""
","
","
","""event"",""trial"",""time""
""fullscreenenter"",""1"",""146626""
","
",,null,run_exp/static/images/task_images/gems/101.jpg,null,,,,,,,49,,,4,,,,,101,0.489256166,0.485148515,,,,,,,
decision,110,665694,0.0-36.0-5.0,"""event"",""trial"",""time""
""fullscreenenter"",""1"",""146626""
","
","
","""event"",""trial"",""time""
""fullscreenenter"",""1"",""146626""
","
",,1916.6,run_exp/static/images/task_images/land.jpg,65,,,,,,,49,,,4,,,,,,,,78625,1,0,FALSE,,,
dig,111,666794,0.0-37.0-0.0,"""event"",""trial"",""time""
""fullscreenenter"",""1"",""146626""
","
","
","""event"",""trial"",""time""
""fullscreenenter"",""1"",""146626""
","
",,,,,,,,,,,,"[{""stimulus"":""run_exp/static/images/task_images/dig.jpg"",""time"":0.7000000000698492},{""stimulus"":""run_exp/static/images/task_images/land.jpg"",""time"":372.10000000009313},{""stimulus"":""run_exp/static/images/task_images/dig.jpg"",""time"":726}]",[],4,,,,,,,,,,,,,,
harvest,112,667801,0.0-37.0-1.0,"""event"",""trial"",""time""
""fullscreenenter"",""1"",""146626""
","
","
","""event"",""trial"",""time""
""fullscreenenter"",""1"",""146626""
","
",,null,run_exp/static/images/task_images/gems/49.jpg,null,,,,,,,21,,,4,,,,,49,0.423714351,0.428571429,,,,,,,
decision,113,670808,0.0-37.0-2.0,"""event"",""trial"",""time""
""fullscreenenter"",""1"",""146626""
","
","
","""event"",""trial"",""time""
""fullscreenenter"",""1"",""146626""
","
",,null,run_exp/static/images/task_images/land.jpg,null,,,,,,,21,,,4,,,,,,,,83739,1,1,FALSE,,,
time_out,114,672818,0.0-38.0-0.0,"""event"",""trial"",""time""
""fullscreenenter"",""1"",""146626""
","
","
","""event"",""trial"",""time""
""fullscreenenter"",""1"",""146626""
","
",,null,run_exp/static/images/task_images/time_out.jpg,null,,,,,,,21,,,,,,,,,,,,,,,,,
decision,115,672856,0.0-38.0-1.0,"""event"",""trial"",""time""
""fullscreenenter"",""1"",""146626""
","
","
","""event"",""trial"",""time""
""fullscreenenter"",""1"",""146626""
","
",,34,run_exp/static/images/task_images/land.jpg,65,,,,,,,21,,,4,,,,,,,,85787,1,1,FALSE,,,
dig,116,675840,0.0-39.0-0.0,"""event"",""trial"",""time""
""fullscreenenter"",""1"",""146626""
","
","
","""event"",""trial"",""time""
""fullscreenenter"",""1"",""146626""
","
",,,,,,,,,,,,"[{""stimulus"":""run_exp/static/images/task_images/dig.jpg"",""time"":0.9000000000232831},{""stimulus"":""run_exp/static/images/task_images/land.jpg"",""time"":993.5},{""stimulus"":""run_exp/static/images/task_images/dig.jpg"",""time"":1980.1999999999534}]",[],4,,,,,,,,,,,,,,
harvest,117,676846,0.0-39.0-1.0,"""event"",""trial"",""time""
""fullscreenenter"",""1"",""146626""
","
","
","""event"",""trial"",""time""
""fullscreenenter"",""1"",""146626""
","
",,null,run_exp/static/images/task_images/gems/21.jpg,null,,,,,,,9,,,4,,,,,21,0.423744104,0.428571429,,,,,,,
decision,118,678043,0.0-39.0-2.0,"""event"",""trial"",""time""
""fullscreenenter"",""1"",""146626""
","
","
","""event"",""trial"",""time""
""fullscreenenter"",""1"",""146626""
","
",,1191.7,run_exp/static/images/task_images/land.jpg,76,,,,,,,9,,,4,,,,,,,,90974,1,2,TRUE,,,
travel,119,686867,0.0-40.0-0.0,"""event"",""trial"",""time""
""fullscreenenter"",""1"",""146626""
","
","
","""event"",""trial"",""time""
""fullscreenenter"",""1"",""146626""
","
",,,,,,,,,,,,"[{""stimulus"":""run_exp/static/images/task_images/rocket-01.jpg"",""time"":0.7999999999301508},{""stimulus"":""run_exp/static/images/task_images/rocket-02.jpg"",""time"":983.5999999999767},{""stimulus"":""run_exp/static/images/task_images/rocket-03.jpg"",""time"":1959.7999999999302},{""stimulus"":""run_exp/static/images/task_images/rocket-04.jpg"",""time"":2938.79999999993},{""stimulus"":""run_exp/static/images/task_images/rocket-05.jpg"",""time"":3917.5},{""stimulus"":""run_exp/static/images/task_images/rocket-06.jpg"",""time"":4894.099999999977},{""stimulus"":""run_exp/static/images/task_images/rocket-07.jpg"",""time"":5878.199999999953},{""stimulus"":""run_exp/static/images/task_images/rocket-08.jpg"",""time"":6850.899999999907},{""stimulus"":""run_exp/static/images/task_images/rocket-09.jpg"",""time"":7829.399999999907}]",[],4,,,,,,,,,,,,,,
alien_welcome,120,691874,0.0-40.0-1.0,"""event"",""trial"",""time""
""fullscreenenter"",""1"",""146626""
","
","
","""event"",""trial"",""time""
""fullscreenenter"",""1"",""146626""
","
",,null,run_exp/static/images/task_images/aliens/old_aliens/planet/alien_planet-19.jpg,null,,,,,,,,,,,,,19,"9,62,6,4,19,67,73,50,35,45,5,29,74,44,30,38,26,72,1,15,55,60,54,61,17,24,78,27,79,14,18,23,34,48,22,49,43,66,64,40",,,,,,,,,,
land,121,692383,0.0-40.0-2.0,"""event"",""trial"",""time""
""fullscreenenter"",""1"",""146626""
","
","
","""event"",""trial"",""time""
""fullscreenenter"",""1"",""146626""
","
",,null,run_exp/static/images/task_images/land.jpg,null,,,,,,,105,,,5,,,,,,,,,,,,,,
dig,122,694398,0.0-40.0-3.0,"""event"",""trial"",""time""
""fullscreenenter"",""1"",""146626""
","
","
","""event"",""trial"",""time""
""fullscreenenter"",""1"",""146626""
","
",,,,,,,,,,,,"[{""stimulus"":""run_exp/static/images/task_images/dig.jpg"",""time"":1},{""stimulus"":""run_exp/static/images/task_images/land.jpg"",""time"":671.5999999998603},{""stimulus"":""run_exp/static/images/task_images/dig.jpg"",""time"":1342.6999999999534}]",[],5,,,,,,,,,,,,,,
harvest,123,695404,0.0-40.0-4.0,"""event"",""trial"",""time""
""fullscreenenter"",""1"",""146626""
","
","
","""event"",""trial"",""time""
""fullscreenenter"",""1"",""146626""
","
",,null,run_exp/static/images/task_images/gems/105.jpg,null,,,,,,,58,,,5,,,,,105,0.549344977,0.552380952,,,,,,,
decision,124,697262,0.0-40.0-5.0,"""event"",""trial"",""time""
""fullscreenenter"",""1"",""146626""
","
","
","""event"",""trial"",""time""
""fullscreenenter"",""1"",""146626""
","
",,1853.1,run_exp/static/images/task_images/land.jpg,76,,,,,,,58,,,5,,,,,,,,110193,1,0,TRUE,,,
travel,125,705427,0.0-41.0-0.0,"""event"",""trial"",""time""
""fullscreenenter"",""1"",""146626""
","
","
","""event"",""trial"",""time""
""fullscreenenter"",""1"",""146626""
","
",,,,,,,,,,,,"[{""stimulus"":""run_exp/static/images/task_images/rocket-01.jpg"",""time"":0.8000000000465661},{""stimulus"":""run_exp/static/images/task_images/rocket-02.jpg"",""time"":909.8000000000466},{""stimulus"":""run_exp/static/images/task_images/rocket-03.jpg"",""time"":1815.5},{""stimulus"":""run_exp/static/images/task_images/rocket-04.jpg"",""time"":2719.1999999999534},{""stimulus"":""run_exp/static/images/task_images/rocket-05.jpg"",""time"":3625.100000000093},{""stimulus"":""run_exp/static/images/task_images/rocket-06.jpg"",""time"":4529.199999999953},{""stimulus"":""run_exp/static/images/task_images/rocket-07.jpg"",""time"":5434},{""stimulus"":""run_exp/static/images/task_images/rocket-08.jpg"",""time"":6340.5},{""stimulus"":""run_exp/static/images/task_images/rocket-09.jpg"",""time"":7245.199999999953}]",[],5,,,,,,,,,,,,,,
alien_welcome,126,710435,0.0-41.0-1.0,"""event"",""trial"",""time""
""fullscreenenter"",""1"",""146626""
","
","
","""event"",""trial"",""time""
""fullscreenenter"",""1"",""146626""
","
",,null,run_exp/static/images/task_images/aliens/old_aliens/planet/alien_planet-67.jpg,null,,,,,,,,,,,,,67,"9,62,6,4,19,67,73,50,35,45,5,29,74,44,30,38,26,72,1,15,55,60,54,61,17,24,78,27,79,14,18,23,34,48,22,49,43,66,64,40",,,,,,,,,,
land,127,710942,0.0-41.0-2.0,"""event"",""trial"",""time""
""fullscreenenter"",""1"",""146626""
","
","
","""event"",""trial"",""time""
""fullscreenenter"",""1"",""146626""
","
",,null,run_exp/static/images/task_images/land.jpg,null,,,,,,,104,,,6,,,,,,,,,,,,,,
dig,128,712958,0.0-41.0-3.0,"""event"",""trial"",""time""
""fullscreenenter"",""1"",""146626""
","
","
","""event"",""trial"",""time""
""fullscreenenter"",""1"",""146626""
","
",,,,,,,,,,,,"[{""stimulus"":""run_exp/static/images/task_images/dig.jpg"",""time"":1.0999999998603016},{""stimulus"":""run_exp/static/images/task_images/land.jpg"",""time"":672.3999999999069},{""stimulus"":""run_exp/static/images/task_images/dig.jpg"",""time"":1347.1999999999534}]",[],6,,,,,,,,,,,,,,
harvest,129,714409,0.0-41.0-4.0,"""event"",""trial"",""time""
""fullscreenenter"",""1"",""146626""
","
","
","""event"",""trial"",""time""
""fullscreenenter"",""1"",""146626""
","
",,null,run_exp/static/images/task_images/gems/104.jpg,null,,,,,,,87,,,6,,,,,104,0.832422872,0.836538462,,,,,,,
decision,130,717225,0.0-41.0-5.0,"""event"",""trial"",""time""
""fullscreenenter"",""1"",""146626""
","
","
","""event"",""trial"",""time""
""fullscreenenter"",""1"",""146626""
","
",,2810.5,run_exp/static/images/task_images/land.jpg,65,,,,,,,87,,,6,,,,,,,,130156,1,0,FALSE,,,
dig,131,717432,0.0-42.0-0.0,"""event"",""trial"",""time""
""fullscreenenter"",""1"",""146626""
","
","
","""event"",""trial"",""time""
""fullscreenenter"",""1"",""146626""
","
",,,,,,,,,,,,"[{""stimulus"":""run_exp/static/images/task_images/dig.jpg"",""time"":1},{""stimulus"":""run_exp/static/images/task_images/land.jpg"",""time"":67.69999999995343},{""stimulus"":""run_exp/static/images/task_images/dig.jpg"",""time"":129.5999999998603}]",[],6,,,,,,,,,,,,,,
harvest,132,718776,0.0-42.0-1.0,"""event"",""trial"",""time""
""fullscreenenter"",""1"",""146626""
","
","
","""event"",""trial"",""time""
""fullscreenenter"",""1"",""146626""
","
",,null,run_exp/static/images/task_images/gems/87.jpg,null,,,,,,,74,,,6,,,,,87,0.848889706,0.850574713,,,,,,,
decision,133,721782,0.0-42.0-2.0,"""event"",""trial"",""time""
""fullscreenenter"",""1"",""146626""
","
","
","""event"",""trial"",""time""
""fullscreenenter"",""1"",""146626""
","
",,null,run_exp/static/images/task_images/land.jpg,null,,,,,,,74,,,6,,,,,,,,134713,1,1,FALSE,,,
time_out,134,723797,0.0-43.0-0.0,"""event"",""trial"",""time""
""fullscreenenter"",""1"",""146626""
","
","
","""event"",""trial"",""time""
""fullscreenenter"",""1"",""146626""
","
",,null,run_exp/static/images/task_images/time_out.jpg,null,,,,,,,74,,,,,,,,,,,,,,,,,
decision,135,726805,0.0-43.0-1.0,"""event"",""trial"",""time""
""fullscreenenter"",""1"",""146626""
","
","
","""event"",""trial"",""time""
""fullscreenenter"",""1"",""146626""
","
",,null,run_exp/static/images/task_images/land.jpg,null,,,,,,,74,,,6,,,,,,,,139737,1,1,FALSE,,,
time_out,136,728821,0.0-44.0-0.0,"""event"",""trial"",""time""
""fullscreenenter"",""1"",""146626""
","
","
","""event"",""trial"",""time""
""fullscreenenter"",""1"",""146626""
","
",,null,run_exp/static/images/task_images/time_out.jpg,null,,,,,,,74,,,,,,,,,,,,,,,,,
decision,137,731599,0.0-44.0-1.0,"""event"",""trial"",""time""
""fullscreenenter"",""1"",""146626""
","
","
","""event"",""trial"",""time""
""fullscreenenter"",""1"",""146626""
","
",,2773.7,run_exp/static/images/task_images/land.jpg,65,,,,,,,74,,,6,,,,,,,,144531,1,1,FALSE,,,
dig,138,731841,0.0-45.0-0.0,"""event"",""trial"",""time""
""fullscreenenter"",""1"",""146626""
","
","
","""event"",""trial"",""time""
""fullscreenenter"",""1"",""146626""
","
",,,,,,,,,,,,"[{""stimulus"":""run_exp/static/images/task_images/dig.jpg"",""time"":0.8000000000465661},{""stimulus"":""run_exp/static/images/task_images/land.jpg"",""time"":79.60000000009313},{""stimulus"":""run_exp/static/images/task_images/dig.jpg"",""time"":154.69999999995343}]",[],6,,,,,,,,,,,,,,
harvest,139,732845,0.0-45.0-1.0,"""event"",""trial"",""time""
""fullscreenenter"",""1"",""146626""
","
","
","""event"",""trial"",""time""
""fullscreenenter"",""1"",""146626""
","
",,null,run_exp/static/images/task_images/gems/74.jpg,null,,,,,,,55,,,6,,,,,74,0.742138908,0.743243243,,,,,,,
decision,140,735849,0.0-45.0-2.0,"""event"",""trial"",""time""
""fullscreenenter"",""1"",""146626""
","
","
","""event"",""trial"",""time""
""fullscreenenter"",""1"",""146626""
","
",,null,run_exp/static/images/task_images/land.jpg,null,,,,,,,55,,,6,,,,,,,,148781,1,2,FALSE,,,
time_out,141,737864,0.0-46.0-0.0,"""event"",""trial"",""time""
""fullscreenenter"",""1"",""146626""
","
","
","""event"",""trial"",""time""
""fullscreenenter"",""1"",""146626""
","
",,null,run_exp/static/images/task_images/time_out.jpg,null,,,,,,,55,,,,,,,,,,,,,,,,,
decision,142,740769,0.0-46.0-1.0,"""event"",""trial"",""time""
""fullscreenenter"",""1"",""146626""
","
","
","""event"",""trial"",""time""
""fullscreenenter"",""1"",""146626""
","
",,2897.2,run_exp/static/images/task_images/land.jpg,65,,,,,,,55,,,6,,,,,,,,153701,1,2,FALSE,,,
dig,143,740890,0.0-47.0-0.0,"""event"",""trial"",""time""
""fullscreenenter"",""1"",""146626""
","
","
","""event"",""trial"",""time""
""fullscreenenter"",""1"",""146626""
","
",,,,,,,,,,,,"[{""stimulus"":""run_exp/static/images/task_images/dig.jpg"",""time"":0.8000000000465661},{""stimulus"":""run_exp/static/images/task_images/land.jpg"",""time"":38.0999999998603},{""stimulus"":""run_exp/static/images/task_images/dig.jpg"",""time"":70.80000000004657}]",[],6,,,,,,,,,,,,,,
harvest,144,741895,0.0-47.0-1.0,"""event"",""trial"",""time""
""fullscreenenter"",""1"",""146626""
","
","
","""event"",""trial"",""time""
""fullscreenenter"",""1"",""146626""
","
",,null,run_exp/static/images/task_images/gems/55.jpg,null,,,,,,,39,,,6,,,,,55,0.702949232,0.709090909,,,,,,,
decision,145,744908,0.0-47.0-2.0,"""event"",""trial"",""time""
""fullscreenenter"",""1"",""146626""
","
","
","""event"",""trial"",""time""
""fullscreenenter"",""1"",""146626""
","
",,null,run_exp/static/images/task_images/land.jpg,null,,,,,,,39,,,6,,,,,,,,157840,1,3,FALSE,,,
time_out,146,746926,0.0-48.0-0.0,"""event"",""trial"",""time""
""fullscreenenter"",""1"",""146626""
","
","
","""event"",""trial"",""time""
""fullscreenenter"",""1"",""146626""
","
",,null,run_exp/static/images/task_images/time_out.jpg,null,,,,,,,39,,,,,,,,,,,,,,,,,
decision,147,749411,0.0-48.0-1.0,"""event"",""trial"",""time""
""fullscreenenter"",""1"",""146626""
","
","
","""event"",""trial"",""time""
""fullscreenenter"",""1"",""146626""
","
",,2474.9,run_exp/static/images/task_images/land.jpg,65,,,,,,,39,,,6,,,,,,,,162343,1,3,FALSE,,,
dig,148,749957,0.0-49.0-0.0,"""event"",""trial"",""time""
""fullscreenenter"",""1"",""146626""
","
","
","""event"",""trial"",""time""
""fullscreenenter"",""1"",""146626""
","
",,,,,,,,,,,,"[{""stimulus"":""run_exp/static/images/task_images/dig.jpg"",""time"":0.6999999999534339},{""stimulus"":""run_exp/static/images/task_images/land.jpg"",""time"":179},{""stimulus"":""run_exp/static/images/task_images/dig.jpg"",""time"":352.9000000001397}]",[],6,,,,,,,,,,,,,,
harvest,149,751345,0.0-49.0-1.0,"""event"",""trial"",""time""
""fullscreenenter"",""1"",""146626""
","
","
","""event"",""trial"",""time""
""fullscreenenter"",""1"",""146626""
","
",,null,run_exp/static/images/task_images/gems/39.jpg,null,,,,,,,30,,,6,,,,,39,0.77588514,0.769230769,,,,,,,
decision,150,752356,0.0-49.0-2.0,"""event"",""trial"",""time""
""fullscreenenter"",""1"",""146626""
","
","
","""event"",""trial"",""time""
""fullscreenenter"",""1"",""146626""
","
",,1006.3,run_exp/static/images/task_images/land.jpg,65,,,,,,,30,,,6,,,,,,,,165288,1,4,FALSE,,,
dig,151,754363,0.0-50.0-0.0,"""event"",""trial"",""time""
""fullscreenenter"",""1"",""146626""
","
","
","""event"",""trial"",""time""
""fullscreenenter"",""1"",""146626""
","
",,,,,,,,,,,,"[{""stimulus"":""run_exp/static/images/task_images/dig.jpg"",""time"":0.6999999999534339},{""stimulus"":""run_exp/static/images/task_images/land.jpg"",""time"":668.5999999998603},{""stimulus"":""run_exp/static/images/task_images/dig.jpg"",""time"":1335.2999999998137}]",[],6,,,,,,,,,,,,,,
harvest,152,755366,0.0-50.0-1.0,"""event"",""trial"",""time""
""fullscreenenter"",""1"",""146626""
","
","
","""event"",""trial"",""time""
""fullscreenenter"",""1"",""146626""
","
",,null,run_exp/static/images/task_images/gems/30.jpg,null,,,,,,,21,,,6,,,,,30,0.710292856,0.7,,,,,,,
decision,153,758370,0.0-50.0-2.0,"""event"",""trial"",""time""
""fullscreenenter"",""1"",""146626""
","
","
","""event"",""trial"",""time""
""fullscreenenter"",""1"",""146626""
","
",,null,run_exp/static/images/task_images/land.jpg,null,,,,,,,21,,,6,,,,,,,,171301,1,5,FALSE,,,
time_out,154,760385,0.0-51.0-0.0,"""event"",""trial"",""time""
""fullscreenenter"",""1"",""146626""
","
","
","""event"",""trial"",""time""
""fullscreenenter"",""1"",""146626""
","
",,null,run_exp/static/images/task_images/time_out.jpg,null,,,,,,,21,,,,,,,,,,,,,,,,,
decision,155,760875,0.0-51.0-1.0,"""event"",""trial"",""time""
""fullscreenenter"",""1"",""146626""
","
","
","""event"",""trial"",""time""
""fullscreenenter"",""1"",""146626""
","
",,480.8,run_exp/static/images/task_images/land.jpg,65,,,,,,,21,,,6,,,,,,,,173807,1,5,FALSE,,,
dig,156,763410,0.0-52.0-0.0,"""event"",""trial"",""time""
""fullscreenenter"",""1"",""146626""
","
","
","""event"",""trial"",""time""
""fullscreenenter"",""1"",""146626""
","
",,,,,,,,,,,,"[{""stimulus"":""run_exp/static/images/task_images/dig.jpg"",""time"":0.8000000000465661},{""stimulus"":""run_exp/static/images/task_images/land.jpg"",""time"":842.6000000000931},{""stimulus"":""run_exp/static/images/task_images/dig.jpg"",""time"":1682.3000000000466}]",[],6,,,,,,,,,,,,,,
harvest,157,764419,0.0-52.0-1.0,"""event"",""trial"",""time""
""fullscreenenter"",""1"",""146626""
","
","
","""event"",""trial"",""time""
""fullscreenenter"",""1"",""146626""
","
",,null,run_exp/static/images/task_images/gems/21.jpg,null,,,,,,,18,,,6,,,,,21,0.861378503,0.857142857,,,,,,,
decision,158,766995,0.0-52.0-2.0,"""event"",""trial"",""time""
""fullscreenenter"",""1"",""146626""
","
","
","""event"",""trial"",""time""
""fullscreenenter"",""1"",""146626""
","
",,2568.1,run_exp/static/images/task_images/land.jpg,65,,,,,,,18,,,6,,,,,,,,179926,1,6,FALSE,,,
dig,159,767449,0.0-53.0-0.0,"""event"",""trial"",""time""
""fullscreenenter"",""1"",""146626""
","
","
","""event"",""trial"",""time""
""fullscreenenter"",""1"",""146626""
","
",,,,,,,,,,,,"[{""stimulus"":""run_exp/static/images/task_images/dig.jpg"",""time"":0.8999999999068677},{""stimulus"":""run_exp/static/images/task_images/land.jpg"",""time"":148.60000000009313},{""stimulus"":""run_exp/static/images/task_images/dig.jpg"",""time"":290.80000000004657}]",[],6,,,,,,,,,,,,,,
harvest,160,768771,0.0-53.0-1.0,"""event"",""trial"",""time""
""fullscreenenter"",""1"",""146626""
","
","
","""event"",""trial"",""time""
""fullscreenenter"",""1"",""146626""
","
",,null,run_exp/static/images/task_images/gems/18.jpg,null,,,,,,,15,,,6,,,,,18,0.850032944,0.833333333,,,,,,,
decision,161,769478,0.0-53.0-2.0,"""event"",""trial"",""time""
""fullscreenenter"",""1"",""146626""
","
","
","""event"",""trial"",""time""
""fullscreenenter"",""1"",""146626""
","
",,701.2,run_exp/static/images/task_images/land.jpg,76,,,,,,,15,,,6,,,,,,,,182409,1,7,TRUE,,,
travel,162,778796,0.0-54.0-0.0,"""event"",""trial"",""time""
""fullscreenenter"",""1"",""146626""
","
","
","""event"",""trial"",""time""
""fullscreenenter"",""1"",""146626""
","
",,,,,,,,,,,,"[{""stimulus"":""run_exp/static/images/task_images/rocket-01.jpg"",""time"":0.8000000000465661},{""stimulus"":""run_exp/static/images/task_images/rocket-02.jpg"",""time"":1036.8000000000466},{""stimulus"":""run_exp/static/images/task_images/rocket-03.jpg"",""time"":2069.9000000001397},{""stimulus"":""run_exp/static/images/task_images/rocket-04.jpg"",""time"":3104.5},{""stimulus"":""run_exp/static/images/task_images/rocket-05.jpg"",""time"":4136.300000000047},{""stimulus"":""run_exp/static/images/task_images/rocket-06.jpg"",""time"":5170.200000000186},{""stimulus"":""run_exp/static/images/task_images/rocket-07.jpg"",""time"":6202.40000000014},{""stimulus"":""run_exp/static/images/task_images/rocket-08.jpg"",""time"":7234.5},{""stimulus"":""run_exp/static/images/task_images/rocket-09.jpg"",""time"":8268.100000000093}]",[],6,,,,,,,,,,,,,,
alien_welcome,163,783808,0.0-54.0-1.0,"""event"",""trial"",""time""
""fullscreenenter"",""1"",""146626""
","
","
","""event"",""trial"",""time""
""fullscreenenter"",""1"",""146626""
","
",,null,run_exp/static/images/task_images/aliens/old_aliens/planet/alien_planet-73.jpg,null,,,,,,,,,,,,,73,"9,62,6,4,19,67,73,50,35,45,5,29,74,44,30,38,26,72,1,15,55,60,54,61,17,24,78,27,79,14,18,23,34,48,22,49,43,66,64,40",,,,,,,,,,
land,164,784319,0.0-54.0-2.0,"""event"",""trial"",""time""
""fullscreenenter"",""1"",""146626""
","
","
","""event"",""trial"",""time""
""fullscreenenter"",""1"",""146626""
","
",,null,run_exp/static/images/task_images/land.jpg,null,,,,,,,100,,,7,,,,,,,,,,,,,,
dig,165,786331,0.0-54.0-3.0,"""event"",""trial"",""time""
""fullscreenenter"",""1"",""146626""
","
","
","""event"",""trial"",""time""
""fullscreenenter"",""1"",""146626""
","
",,,,,,,,,,,,"[{""stimulus"":""run_exp/static/images/task_images/dig.jpg"",""time"":0.8000000000465661},{""stimulus"":""run_exp/static/images/task_images/land.jpg"",""time"":670.8000000000466},{""stimulus"":""run_exp/static/images/task_images/dig.jpg"",""time"":1346.8000000000466}]",[],7,,,,,,,,,,,,,,
harvest,166,787335,0.0-54.0-4.0,"""event"",""trial"",""time""
""fullscreenenter"",""1"",""146626""
","
","
","""event"",""trial"",""time""
""fullscreenenter"",""1"",""146626""
","
",,null,run_exp/static/images/task_images/gems/100.jpg,null,,,,,,,83,,,7,,,,,100,0.82564025,0.83,,,,,,,
decision,167,790340,0.0-54.0-5.0,"""event"",""trial"",""time""
""fullscreenenter"",""1"",""146626""
","
","
","""event"",""trial"",""time""
""fullscreenenter"",""1"",""146626""
","
",,null,run_exp/static/images/task_images/land.jpg,null,,,,,,,83,,,7,,,,,,,,203272,1,0,FALSE,,,
time_out,168,792360,0.0-55.0-0.0,"""event"",""trial"",""time""
""fullscreenenter"",""1"",""146626""
","
","
","""event"",""trial"",""time""
""fullscreenenter"",""1"",""146626""
","
",,null,run_exp/static/images/task_images/time_out.jpg,null,,,,,,,83,,,,,,,,,,,,,,,,,
decision,169,792935,0.0-55.0-1.0,"""event"",""trial"",""time""
""fullscreenenter"",""1"",""146626""
","
","
","""event"",""trial"",""time""
""fullscreenenter"",""1"",""146626""
","
",,564.4,run_exp/static/images/task_images/land.jpg,76,,,,,,,83,,,7,,,,,,,,205866,1,0,TRUE,,,
travel,170,802386,0.0-56.0-0.0,"""event"",""trial"",""time""
""fullscreenenter"",""1"",""146626""
","
","
","""event"",""trial"",""time""
""fullscreenenter"",""1"",""146626""
","
",,,,,,,,,,,,"[{""stimulus"":""run_exp/static/images/task_images/rocket-01.jpg"",""time"":0.6999999999534339},{""stimulus"":""run_exp/static/images/task_images/rocket-02.jpg"",""time"":1051.8999999999069},{""stimulus"":""run_exp/static/images/task_images/rocket-03.jpg"",""time"":2100.399999999907},{""stimulus"":""run_exp/static/images/task_images/rocket-04.jpg"",""time"":3149.399999999907},{""stimulus"":""run_exp/static/images/task_images/rocket-05.jpg"",""time"":4197.299999999814},{""stimulus"":""run_exp/static/images/task_images/rocket-06.jpg"",""time"":5244.199999999953},{""stimulus"":""run_exp/static/images/task_images/rocket-07.jpg"",""time"":6293.09999999986},{""stimulus"":""run_exp/static/images/task_images/rocket-08.jpg"",""time"":7340.5},{""stimulus"":""run_exp/static/images/task_images/rocket-09.jpg"",""time"":8388.5}]",[],7,,,,,,,,,,,,,,
alien_welcome,171,807394,0.0-56.0-1.0,"""event"",""trial"",""time""
""fullscreenenter"",""1"",""146626""
","
","
","""event"",""trial"",""time""
""fullscreenenter"",""1"",""146626""
","
",,null,run_exp/static/images/task_images/aliens/old_aliens/planet/alien_planet-50.jpg,null,,,,,,,,,,,,,50,"9,62,6,4,19,67,73,50,35,45,5,29,74,44,30,38,26,72,1,15,55,60,54,61,17,24,78,27,79,14,18,23,34,48,22,49,43,66,64,40",,,,,,,,,,
land,172,807903,0.0-56.0-2.0,"""event"",""trial"",""time""
""fullscreenenter"",""1"",""146626""
","
","
","""event"",""trial"",""time""
""fullscreenenter"",""1"",""146626""
","
",,null,run_exp/static/images/task_images/land.jpg,null,,,,,,,104,,,8,,,,,,,,,,,,,,
dig,173,809918,0.0-56.0-3.0,"""event"",""trial"",""time""
""fullscreenenter"",""1"",""146626""
","
","
","""event"",""trial"",""time""
""fullscreenenter"",""1"",""146626""
","
",,,,,,,,,,,,"[{""stimulus"":""run_exp/static/images/task_images/dig.jpg"",""time"":0.7999999998137355},{""stimulus"":""run_exp/static/images/task_images/land.jpg"",""time"":670.6999999999534},{""stimulus"":""run_exp/static/images/task_images/dig.jpg"",""time"":1338}]",[],8,,,,,,,,,,,,,,
harvest,174,810927,0.0-56.0-4.0,"""event"",""trial"",""time""
""fullscreenenter"",""1"",""146626""
","
","
","""event"",""trial"",""time""
""fullscreenenter"",""1"",""146626""
","
",,null,run_exp/static/images/task_images/gems/104.jpg,null,,,,,,,75,,,8,,,,,104,0.717439952,0.721153846,,,,,,,
decision,175,812437,0.0-56.0-5.0,"""event"",""trial"",""time""
""fullscreenenter"",""1"",""146626""
","
","
","""event"",""trial"",""time""
""fullscreenenter"",""1"",""146626""
","
",,1501.7,run_exp/static/images/task_images/land.jpg,65,,,,,,,75,,,8,,,,,,,,225370,1,0,FALSE,,,
dig,176,813953,0.0-57.0-0.0,"""event"",""trial"",""time""
""fullscreenenter"",""1"",""146626""
","
","
","""event"",""trial"",""time""
""fullscreenenter"",""1"",""146626""
","
",,,,,,,,,,,,"[{""stimulus"":""run_exp/static/images/task_images/dig.jpg"",""time"":0.8000000000465661},{""stimulus"":""run_exp/static/images/task_images/land.jpg"",""time"":504},{""stimulus"":""run_exp/static/images/task_images/dig.jpg"",""time"":1003.4000000001397}]",[],8,,,,,,,,,,,,,,
harvest,177,814961,0.0-57.0-1.0,"""event"",""trial"",""time""
""fullscreenenter"",""1"",""146626""
","
","
","""event"",""trial"",""time""
""fullscreenenter"",""1"",""146626""
","
",,null,run_exp/static/images/task_images/gems/75.jpg,null,,,,,,,55,,,8,,,,,75,0.733774827,0.733333333,,,,,,,
decision,178,816430,0.0-57.0-2.0,"""event"",""trial"",""time""
""fullscreenenter"",""1"",""146626""
","
","
","""event"",""trial"",""time""
""fullscreenenter"",""1"",""146626""
","
",,1464.5,run_exp/static/images/task_images/land.jpg,65,,,,,,,55,,,8,,,,,,,,229362,1,1,FALSE,,,
dig,179,817982,0.0-58.0-0.0,"""event"",""trial"",""time""
""fullscreenenter"",""1"",""146626""
","
","
","""event"",""trial"",""time""
""fullscreenenter"",""1"",""146626""
","
",,,,,,,,,,,,"[{""stimulus"":""run_exp/static/images/task_images/dig.jpg"",""time"":0.8999999999068677},{""stimulus"":""run_exp/static/images/task_images/land.jpg"",""time"":516.5},{""stimulus"":""run_exp/static/images/task_images/dig.jpg"",""time"":1025.8999999999069}]",[],8,,,,,,,,,,,,,,
harvest,180,818986,0.0-58.0-1.0,"""event"",""trial"",""time""
""fullscreenenter"",""1"",""146626""
","
","
","""event"",""trial"",""time""
""fullscreenenter"",""1"",""146626""
","
",,null,run_exp/static/images/task_images/gems/55.jpg,null,,,,,,,46,,,8,,,,,55,0.844538491,0.836363636,,,,,,,
decision,181,819417,0.0-58.0-2.0,"""event"",""trial"",""time""
""fullscreenenter"",""1"",""146626""
","
","
","""event"",""trial"",""time""
""fullscreenenter"",""1"",""146626""
","
",,426.6,run_exp/static/images/task_images/land.jpg,65,,,,,,,46,,,8,,,,,,,,232349,1,2,FALSE,,,
dig,182,822009,0.0-59.0-0.0,"""event"",""trial"",""time""
""fullscreenenter"",""1"",""146626""
","
","
","""event"",""trial"",""time""
""fullscreenenter"",""1"",""146626""
","
",,,,,,,,,,,,"[{""stimulus"":""run_exp/static/images/task_images/dig.jpg"",""time"":0.8000000000465661},{""stimulus"":""run_exp/static/images/task_images/land.jpg"",""time"":863.3000000000466},{""stimulus"":""run_exp/static/images/task_images/dig.jpg"",""time"":1719.5}]",[],8,,,,,,,,,,,,,,
harvest,183,823324,0.0-59.0-1.0,"""event"",""trial"",""time""
""fullscreenenter"",""1"",""146626""
","
","
","""event"",""trial"",""time""
""fullscreenenter"",""1"",""146626""
","
",,null,run_exp/static/images/task_images/gems/46.jpg,null,,,,,,,36,,,8,,,,,46,0.793428814,0.782608696,,,,,,,
decision,184,824785,0.0-59.0-2.0,"""event"",""trial"",""time""
""fullscreenenter"",""1"",""146626""
","
","
","""event"",""trial"",""time""
""fullscreenenter"",""1"",""146626""
","
",,1455,run_exp/static/images/task_images/land.jpg,65,,,,,,,36,,,8,,,,,,,,237717,1,3,FALSE,,,
dig,185,826348,0.0-60.0-0.0,"""event"",""trial"",""time""
""fullscreenenter"",""1"",""146626""
","
","
","""event"",""trial"",""time""
""fullscreenenter"",""1"",""146626""
","
",,,,,,,,,,,,"[{""stimulus"":""run_exp/static/images/task_images/dig.jpg"",""time"":0.8000000000465661},{""stimulus"":""run_exp/static/images/task_images/land.jpg"",""time"":519.1999999999534},{""stimulus"":""run_exp/static/images/task_images/dig.jpg"",""time"":1032.8999999999069}]",[],8,,,,,,,,,,,,,,
harvest,186,827355,0.0-60.0-1.0,"""event"",""trial"",""time""
""fullscreenenter"",""1"",""146626""
","
","
","""event"",""trial"",""time""
""fullscreenenter"",""1"",""146626""
","
",,null,run_exp/static/images/task_images/gems/36.jpg,null,,,,,,,28,,,8,,,,,36,0.78085123,0.777777778,,,,,,,
decision,187,828490,0.0-60.0-2.0,"""event"",""trial"",""time""
""fullscreenenter"",""1"",""146626""
","
","
","""event"",""trial"",""time""
""fullscreenenter"",""1"",""146626""
","
",,1131.3,run_exp/static/images/task_images/land.jpg,76,,,,,,,28,,,8,,,,,,,,241422,1,4,TRUE,,,
travel,188,837370,0.0-61.0-0.0,"""event"",""trial"",""time""
""fullscreenenter"",""1"",""146626""
","
","
","""event"",""trial"",""time""
""fullscreenenter"",""1"",""146626""
","
",,,,,,,,,,,,"[{""stimulus"":""run_exp/static/images/task_images/rocket-01.jpg"",""time"":0.5999999998603016},{""stimulus"":""run_exp/static/images/task_images/rocket-02.jpg"",""time"":990.3999999999069},{""stimulus"":""run_exp/static/images/task_images/rocket-03.jpg"",""time"":1975.0999999998603},{""stimulus"":""run_exp/static/images/task_images/rocket-04.jpg"",""time"":2958.899999999907},{""stimulus"":""run_exp/static/images/task_images/rocket-05.jpg"",""time"":3943.899999999907},{""stimulus"":""run_exp/static/images/task_images/rocket-06.jpg"",""time"":4928.899999999907},{""stimulus"":""run_exp/static/images/task_images/rocket-07.jpg"",""time"":5915.699999999953},{""stimulus"":""run_exp/static/images/task_images/rocket-08.jpg"",""time"":6898.199999999953},{""stimulus"":""run_exp/static/images/task_images/rocket-09.jpg"",""time"":7884.5}]",[],8,,,,,,,,,,,,,,
alien_welcome,189,842382,0.0-61.0-1.0,"""event"",""trial"",""time""
""fullscreenenter"",""1"",""146626""
","
","
","""event"",""trial"",""time""
""fullscreenenter"",""1"",""146626""
","
",,null,run_exp/static/images/task_images/aliens/old_aliens/planet/alien_planet-35.jpg,null,,,,,,,,,,,,,35,"9,62,6,4,19,67,73,50,35,45,5,29,74,44,30,38,26,72,1,15,55,60,54,61,17,24,78,27,79,14,18,23,34,48,22,49,43,66,64,40",,,,,,,,,,
land,190,842894,0.0-61.0-2.0,"""event"",""trial"",""time""
""fullscreenenter"",""1"",""146626""
","
","
","""event"",""trial"",""time""
""fullscreenenter"",""1"",""146626""
","
",,null,run_exp/static/images/task_images/land.jpg,null,,,,,,,101,,,9,,,,,,,,,,,,,,
dig,191,844908,0.0-61.0-3.0,"""event"",""trial"",""time""
""fullscreenenter"",""1"",""146626""
","
","
","""event"",""trial"",""time""
""fullscreenenter"",""1"",""146626""
","
",,,,,,,,,,,,"[{""stimulus"":""run_exp/static/images/task_images/dig.jpg"",""time"":0.6999999999534339},{""stimulus"":""run_exp/static/images/task_images/land.jpg"",""time"":671.7999999998137},{""stimulus"":""run_exp/static/images/task_images/dig.jpg"",""time"":1338.2999999998137}]",[],9,,,,,,,,,,,,,,
harvest,192,845914,0.0-61.0-4.0,"""event"",""trial"",""time""
""fullscreenenter"",""1"",""146626""
","
","
","""event"",""trial"",""time""
""fullscreenenter"",""1"",""146626""
","
",,null,run_exp/static/images/task_images/gems/101.jpg,null,,,,,,,31,,,9,,,,,101,0.31047807,0.306930693,,,,,,,
decision,193,848922,0.0-61.0-5.0,"""event"",""trial"",""time""
""fullscreenenter"",""1"",""146626""
","
","
","""event"",""trial"",""time""
""fullscreenenter"",""1"",""146626""
","
",,null,run_exp/static/images/task_images/land.jpg,null,,,,,,,31,,,9,,,,,,,,261854,1,0,FALSE,,,
time_out,194,850937,0.0-62.0-0.0,"""event"",""trial"",""time""
""fullscreenenter"",""1"",""146626""
","
","
","""event"",""trial"",""time""
""fullscreenenter"",""1"",""146626""
","
",,null,run_exp/static/images/task_images/time_out.jpg,null,,,,,,,31,,,,,,,,,,,,,,,,,
decision,195,853947,0.0-62.0-1.0,"""event"",""trial"",""time""
""fullscreenenter"",""1"",""146626""
","
","
","""event"",""trial"",""time""
""fullscreenenter"",""1"",""146626""
","
",,null,run_exp/static/images/task_images/land.jpg,null,,,,,,,31,,,9,,,,,,,,266879,1,0,FALSE,,,
time_out,196,855964,0.0-63.0-0.0,"""event"",""trial"",""time""
""fullscreenenter"",""1"",""146626""
","
","
","""event"",""trial"",""time""
""fullscreenenter"",""1"",""146626""
","
",,null,run_exp/static/images/task_images/time_out.jpg,null,,,,,,,31,,,,,,,,,,,,,,,,,
decision,197,858974,0.0-63.0-1.0,"""event"",""trial"",""time""
""fullscreenenter"",""1"",""146626""
","
","
","""event"",""trial"",""time""
""fullscreenenter"",""1"",""146626""
","
",,null,run_exp/static/images/task_images/land.jpg,null,,,,,,,31,,,9,,,,,,,,271905,1,0,FALSE,,,
time_out,198,860988,0.0-64.0-0.0,"""event"",""trial"",""time""
""fullscreenenter"",""1"",""146626""
","
","
","""event"",""trial"",""time""
""fullscreenenter"",""1"",""146626""
","
",,null,run_exp/static/images/task_images/time_out.jpg,null,,,,,,,31,,,,,,,,,,,,,,,,,
decision,199,862487,0.0-64.0-1.0,"""event"",""trial"",""time""
""fullscreenenter"",""1"",""146626""
","
","
","""event"",""trial"",""time""
""fullscreenenter"",""1"",""146626""
","
",,1490,run_exp/static/images/task_images/land.jpg,65,,,,,,,31,,,9,,,,,,,,275419,1,0,FALSE,,,
dig,200,864017,0.0-65.0-0.0,"""event"",""trial"",""time""
""fullscreenenter"",""1"",""146626""
","
","
","""event"",""trial"",""time""
""fullscreenenter"",""1"",""146626""
","
",,,,,,,,,,,,"[{""stimulus"":""run_exp/static/images/task_images/dig.jpg"",""time"":0.8000000000465661},{""stimulus"":""run_exp/static/images/task_images/land.jpg"",""time"":506.19999999995343},{""stimulus"":""run_exp/static/images/task_images/dig.jpg"",""time"":1009.6999999999534}]",[],9,,,,,,,,,,,,,,
harvest,201,865320,0.0-65.0-1.0,"""event"",""trial"",""time""
""fullscreenenter"",""1"",""146626""
","
","
","""event"",""trial"",""time""
""fullscreenenter"",""1"",""146626""
","
",,null,run_exp/static/images/task_images/gems/31.jpg,null,,,,,,,7,,,9,,,,,31,0.21594567,0.225806452,,,,,,,
decision,202,867457,0.0-65.0-2.0,"""event"",""trial"",""time""
""fullscreenenter"",""1"",""146626""
","
","
","""event"",""trial"",""time""
""fullscreenenter"",""1"",""146626""
","
",,2132.3,run_exp/static/images/task_images/land.jpg,65,,,,,,,7,,,9,,,,,,,,280388,1,1,FALSE,,,
dig,203,868340,0.0-66.0-0.0,"""event"",""trial"",""time""
""fullscreenenter"",""1"",""146626""
","
","
","""event"",""trial"",""time""
""fullscreenenter"",""1"",""146626""
","
",,,,,,,,,,,,"[{""stimulus"":""run_exp/static/images/task_images/dig.jpg"",""time"":0.7999999998137355},{""stimulus"":""run_exp/static/images/task_images/land.jpg"",""time"":295.69999999995343},{""stimulus"":""run_exp/static/images/task_images/dig.jpg"",""time"":581.8999999999069}]",[],9,,,,,,,,,,,,,,
harvest,204,869731,0.0-66.0-1.0,"""event"",""trial"",""time""
""fullscreenenter"",""1"",""146626""
","
","
","""event"",""trial"",""time""
""fullscreenenter"",""1"",""146626""
","
",,null,run_exp/static/images/task_images/gems/7.jpg,null,,,,,,,2,,,9,,,,,7,0.224410215,0.285714286,,,,,,,
decision,205,871408,0.0-66.0-2.0,"""event"",""trial"",""time""
""fullscreenenter"",""1"",""146626""
","
","
","""event"",""trial"",""time""
""fullscreenenter"",""1"",""146626""
","
",,1669.5,run_exp/static/images/task_images/land.jpg,76,,,,,,,2,,,9,,,,,,,,284339,1,2,TRUE,,,
travel,206,879749,0.0-67.0-0.0,"""event"",""trial"",""time""
""fullscreenenter"",""1"",""146626""
","
","
","""event"",""trial"",""time""
""fullscreenenter"",""1"",""146626""
","
",,,,,,,,,,,,"[{""stimulus"":""run_exp/static/images/task_images/rocket-01.jpg"",""time"":0.6000000000931323},{""stimulus"":""run_exp/static/images/task_images/rocket-02.jpg"",""time"":928.8000000000466},{""stimulus"":""run_exp/static/images/task_images/rocket-03.jpg"",""time"":1854.9000000001397},{""stimulus"":""run_exp/static/images/task_images/rocket-04.jpg"",""time"":2780},{""stimulus"":""run_exp/static/images/task_images/rocket-05.jpg"",""time"":3704.5},{""stimulus"":""run_exp/static/images/task_images/rocket-06.jpg"",""time"":4628.90000000014},{""stimulus"":""run_exp/static/images/task_images/rocket-07.jpg"",""time"":5554.300000000047},{""stimulus"":""run_exp/static/images/task_images/rocket-08.jpg"",""time"":6479.700000000186},{""stimulus"":""run_exp/static/images/task_images/rocket-09.jpg"",""time"":7402.40000000014}]",[],9,,,,,,,,,,,,,,
alien_welcome,207,884760,0.0-67.0-1.0,"""event"",""trial"",""time""
""fullscreenenter"",""1"",""146626""
","
","
","""event"",""trial"",""time""
""fullscreenenter"",""1"",""146626""
","
",,null,run_exp/static/images/task_images/aliens/old_aliens/planet/alien_planet-45.jpg,null,,,,,,,,,,,,,45,"9,62,6,4,19,67,73,50,35,45,5,29,74,44,30,38,26,72,1,15,55,60,54,61,17,24,78,27,79,14,18,23,34,48,22,49,43,66,64,40",,,,,,,,,,
land,208,885266,0.0-67.0-2.0,"""event"",""trial"",""time""
""fullscreenenter"",""1"",""146626""
","
","
","""event"",""trial"",""time""
""fullscreenenter"",""1"",""146626""
","
",,null,run_exp/static/images/task_images/land.jpg,null,,,,,,,101,,,10,,,,,,,,,,,,,,
dig,209,887281,0.0-67.0-3.0,"""event"",""trial"",""time""
""fullscreenenter"",""1"",""146626""
","
","
","""event"",""trial"",""time""
""fullscreenenter"",""1"",""146626""
","
",,,,,,,,,,,,"[{""stimulus"":""run_exp/static/images/task_images/dig.jpg"",""time"":0.6999999999534339},{""stimulus"":""run_exp/static/images/task_images/land.jpg"",""time"":671.6999999999534},{""stimulus"":""run_exp/static/images/task_images/dig.jpg"",""time"":1338.1999999999534}]",[],10,,,,,,,,,,,,,,
harvest,210,888285,0.0-67.0-4.0,"""event"",""trial"",""time""
""fullscreenenter"",""1"",""146626""
","
","
","""event"",""trial"",""time""
""fullscreenenter"",""1"",""146626""
","
",,null,run_exp/static/images/task_images/gems/101.jpg,null,,,,,,,20,,,10,,,,,101,0.199326228,0.198019802,,,,,,,
decision,211,890053,0.0-67.0-5.0,"""event"",""trial"",""time""
""fullscreenenter"",""1"",""146626""
","
","
","""event"",""trial"",""time""
""fullscreenenter"",""1"",""146626""
","
",,1761.2,run_exp/static/images/task_images/land.jpg,76,,,,,,,20,,,10,,,,,,,,302985,1,0,TRUE,,,
end_of_block_continue,212,899099,0.0-68.0-0.0,"""event"",""trial"",""time""
""fullscreenenter"",""1"",""146626""
","
","
","""event"",""trial"",""time""
""fullscreenenter"",""1"",""146626""
","
",,null,run_exp/static/audio/clip_32_block_end.m4a,,,,,,,null,,,,,,,,,,,,,,,,,,
alien_welcome,213,904117,0.0-69.0-0.0,"""event"",""trial"",""time""
""fullscreenenter"",""1"",""146626""
","
","
","""event"",""trial"",""time""
""fullscreenenter"",""1"",""146626""
","
",,null,run_exp/static/images/task_images/aliens/old_aliens/planet/alien_planet-5.jpg,null,,,,,,,,,,,,,5,"9,62,6,4,19,67,73,50,35,45,5,29,74,44,30,38,26,72,1,15,55,60,54,61,17,24,78,27,79,14,18,23,34,48,22,49,43,66,64,40",,,,,,,,,,
land,214,904625,0.0-69.0-1.0,"""event"",""trial"",""time""
""fullscreenenter"",""1"",""146626""
","
","
","""event"",""trial"",""time""
""fullscreenenter"",""1"",""146626""
","
",,null,run_exp/static/images/task_images/land.jpg,null,,,,,,,98,,,11,,,,,,,,,,,,,,
dig,215,906638,0.0-69.0-2.0,"""event"",""trial"",""time""
""fullscreenenter"",""1"",""146626""
","
","
","""event"",""trial"",""time""
""fullscreenenter"",""1"",""146626""
","
",,,,,,,,,,,,"[{""stimulus"":""run_exp/static/images/task_images/dig.jpg"",""time"":0.8000000000465661},{""stimulus"":""run_exp/static/images/task_images/land.jpg"",""time"":671.1999999999534},{""stimulus"":""run_exp/static/images/task_images/dig.jpg"",""time"":1338.6000000000931}]",[],11,,,,,,,,,,,,,,
harvest,216,907646,0.0-69.0-3.0,"""event"",""trial"",""time""
""fullscreenenter"",""1"",""146626""
","
","
","""event"",""trial"",""time""
""fullscreenenter"",""1"",""146626""
","
",,null,run_exp/static/images/task_images/gems/98.jpg,null,,,,,,,19,,,11,,,,,98,0.197068561,0.193877551,,,,,,,
decision,217,908743,0.0-69.0-4.0,"""event"",""trial"",""time""
""fullscreenenter"",""1"",""146626""
","
","
","""event"",""trial"",""time""
""fullscreenenter"",""1"",""146626""
","
",,1090.4,run_exp/static/images/task_images/land.jpg,76,,,,,,,19,,,11,,,,,,,,9632,2,0,TRUE,,,
travel,218,917664,0.0-70.0-0.0,"""event"",""trial"",""time""
""fullscreenenter"",""1"",""146626""
","
","
","""event"",""trial"",""time""
""fullscreenenter"",""1"",""146626""
","
",,,,,,,,,,,,"[{""stimulus"":""run_exp/static/images/task_images/rocket-01.jpg"",""time"":0.6999999999534339},{""stimulus"":""run_exp/static/images/task_images/rocket-02.jpg"",""time"":997},{""stimulus"":""run_exp/static/images/task_images/rocket-03.jpg"",""time"":1983.5999999998603},{""stimulus"":""run_exp/static/images/task_images/rocket-04.jpg"",""time"":2971},{""stimulus"":""run_exp/static/images/task_images/rocket-05.jpg"",""time"":3959},{""stimulus"":""run_exp/static/images/task_images/rocket-06.jpg"",""time"":4950.09999999986},{""stimulus"":""run_exp/static/images/task_images/rocket-07.jpg"",""time"":5938.899999999907},{""stimulus"":""run_exp/static/images/task_images/rocket-08.jpg"",""time"":6929.899999999907},{""stimulus"":""run_exp/static/images/task_images/rocket-09.jpg"",""time"":7916.199999999953}]",[],11,,,,,,,,,,,,,,
alien_welcome,219,922672,0.0-70.0-1.0,"""event"",""trial"",""time""
""fullscreenenter"",""1"",""146626""
","
","
","""event"",""trial"",""time""
""fullscreenenter"",""1"",""146626""
","
",,null,run_exp/static/images/task_images/aliens/old_aliens/planet/alien_planet-29.jpg,null,,,,,,,,,,,,,29,"9,62,6,4,19,67,73,50,35,45,5,29,74,44,30,38,26,72,1,15,55,60,54,61,17,24,78,27,79,14,18,23,34,48,22,49,43,66,64,40",,,,,,,,,,
land,220,923180,0.0-70.0-2.0,"""event"",""trial"",""time""
""fullscreenenter"",""1"",""146626""
","
","
","""event"",""trial"",""time""
""fullscreenenter"",""1"",""146626""
","
",,null,run_exp/static/images/task_images/land.jpg,null,,,,,,,105,,,12,,,,,,,,,,,,,,
dig,221,925198,0.0-70.0-3.0,"""event"",""trial"",""time""
""fullscreenenter"",""1"",""146626""
","
","
","""event"",""trial"",""time""
""fullscreenenter"",""1"",""146626""
","
",,,,,,,,,,,,"[{""stimulus"":""run_exp/static/images/task_images/dig.jpg"",""time"":0.7999999998137355},{""stimulus"":""run_exp/static/images/task_images/land.jpg"",""time"":671.6999999999534},{""stimulus"":""run_exp/static/images/task_images/dig.jpg"",""time"":1338.7999999998137}]",[],12,,,,,,,,,,,,,,
harvest,222,926208,0.0-70.0-4.0,"""event"",""trial"",""time""
""fullscreenenter"",""1"",""146626""
","
","
","""event"",""trial"",""time""
""fullscreenenter"",""1"",""146626""
","
",,null,run_exp/static/images/task_images/gems/105.jpg,null,,,,,,,12,,,12,,,,,105,0.110854435,0.114285714,,,,,,,
decision,223,929218,0.0-70.0-5.0,"""event"",""trial"",""time""
""fullscreenenter"",""1"",""146626""
","
","
","""event"",""trial"",""time""
""fullscreenenter"",""1"",""146626""
","
",,null,run_exp/static/images/task_images/land.jpg,null,,,,,,,12,,,12,,,,,,,,30107,2,0,FALSE,,,
time_out,224,931236,0.0-71.0-0.0,"""event"",""trial"",""time""
""fullscreenenter"",""1"",""146626""
","
","
","""event"",""trial"",""time""
""fullscreenenter"",""1"",""146626""
","
",,null,run_exp/static/images/task_images/time_out.jpg,null,,,,,,,12,,,,,,,,,,,,,,,,,
decision,225,934246,0.0-71.0-1.0,"""event"",""trial"",""time""
""fullscreenenter"",""1"",""146626""
","
","
","""event"",""trial"",""time""
""fullscreenenter"",""1"",""146626""
","
",,null,run_exp/static/images/task_images/land.jpg,null,,,,,,,12,,,12,,,,,,,,35135,2,0,FALSE,,,
time_out,226,936265,0.0-72.0-0.0,"""event"",""trial"",""time""
""fullscreenenter"",""1"",""146626""
","
","
","""event"",""trial"",""time""
""fullscreenenter"",""1"",""146626""
","
",,null,run_exp/static/images/task_images/time_out.jpg,null,,,,,,,12,,,,,,,,,,,,,,,,,
decision,227,936387,0.0-72.0-1.0,"""event"",""trial"",""time""
""fullscreenenter"",""1"",""146626""
","
","
","""event"",""trial"",""time""
""fullscreenenter"",""1"",""146626""
","
",,113,run_exp/static/images/task_images/land.jpg,65,,,,,,,12,,,12,,,,,,,,37276,2,0,FALSE,,,
dig,228,939295,0.0-73.0-0.0,"""event"",""trial"",""time""
""fullscreenenter"",""1"",""146626""
","
","
","""event"",""trial"",""time""
""fullscreenenter"",""1"",""146626""
","
",,,,,,,,,,,,"[{""stimulus"":""run_exp/static/images/task_images/dig.jpg"",""time"":0.7999999998137355},{""stimulus"":""run_exp/static/images/task_images/land.jpg"",""time"":965.5999999998603},{""stimulus"":""run_exp/static/images/task_images/dig.jpg"",""time"":1926.7999999998137}]",[],12,,,,,,,,,,,,,,
harvest,229,940299,0.0-73.0-1.0,"""event"",""trial"",""time""
""fullscreenenter"",""1"",""146626""
","
","
","""event"",""trial"",""time""
""fullscreenenter"",""1"",""146626""
","
",,null,run_exp/static/images/task_images/gems/12.jpg,null,,,,,,,2,,,12,,,,,12,0.170575817,0.166666667,,,,,,,
decision,230,941054,0.0-73.0-2.0,"""event"",""trial"",""time""
""fullscreenenter"",""1"",""146626""
","
","
","""event"",""trial"",""time""
""fullscreenenter"",""1"",""146626""
","
",,747.2,run_exp/static/images/task_images/land.jpg,65,,,,,,,2,,,12,,,,,,,,41942,2,1,FALSE,,,
dig,231,943323,0.0-74.0-0.0,"""event"",""trial"",""time""
""fullscreenenter"",""1"",""146626""
","
","
","""event"",""trial"",""time""
""fullscreenenter"",""1"",""146626""
","
",,,,,,,,,,,,"[{""stimulus"":""run_exp/static/images/task_images/dig.jpg"",""time"":0.9000000001396984},{""stimulus"":""run_exp/static/images/task_images/land.jpg"",""time"":753.3000000000466},{""stimulus"":""run_exp/static/images/task_images/dig.jpg"",""time"":1504.1000000000931}]",[],12,,,,,,,,,,,,,,
harvest,232,944331,0.0-74.0-1.0,"""event"",""trial"",""time""
""fullscreenenter"",""1"",""146626""
","
","
","""event"",""trial"",""time""
""fullscreenenter"",""1"",""146626""
","
",,null,run_exp/static/images/task_images/gems/2.jpg,null,,,,,,,0,,,12,,,,,2,0.184958742,0,,,,,,,
decision,233,947340,0.0-74.0-2.0,"""event"",""trial"",""time""
""fullscreenenter"",""1"",""146626""
","
","
","""event"",""trial"",""time""
""fullscreenenter"",""1"",""146626""
","
",,null,run_exp/static/images/task_images/land.jpg,null,,,,,,,0,,,12,,,,,,,,48228,2,2,FALSE,,,
time_out,234,949354,0.0-75.0-0.0,"""event"",""trial"",""time""
""fullscreenenter"",""1"",""146626""
","
","
","""event"",""trial"",""time""
""fullscreenenter"",""1"",""146626""
","
",,null,run_exp/static/images/task_images/time_out.jpg,null,,,,,,,0,,,,,,,,,,,,,,,,,
decision,235,950370,0.0-75.0-1.0,"""event"",""trial"",""time""
""fullscreenenter"",""1"",""146626""
","
","
","""event"",""trial"",""time""
""fullscreenenter"",""1"",""146626""
","
",,1007.3,run_exp/static/images/task_images/land.jpg,65,,,,,,,0,,,12,,,,,,,,51258,2,2,FALSE,,,
dig,236,952382,0.0-76.0-0.0,"""event"",""trial"",""time""
""fullscreenenter"",""1"",""146626""
","
","
","""event"",""trial"",""time""
""fullscreenenter"",""1"",""146626""
","
",,,,,,,,,,,,"[{""stimulus"":""run_exp/static/images/task_images/dig.jpg"",""time"":1},{""stimulus"":""run_exp/static/images/task_images/land.jpg"",""time"":668.8000000000466},{""stimulus"":""run_exp/static/images/task_images/dig.jpg"",""time"":1333.8000000000466}]",[],12,,,,,,,,,,,,,,
harvest,237,953390,0.0-76.0-1.0,"""event"",""trial"",""time""
""fullscreenenter"",""1"",""146626""
","
","
","""event"",""trial"",""time""
""fullscreenenter"",""1"",""146626""
","
",,null,run_exp/static/images/task_images/gems/0.jpg,null,,,,,,,0,,,12,,,,,0,0.221082728,NaN,,,,,,,
decision,238,955211,0.0-76.0-2.0,"""event"",""trial"",""time""
""fullscreenenter"",""1"",""146626""
","
","
","""event"",""trial"",""time""
""fullscreenenter"",""1"",""146626""
","
",,1816.5,run_exp/static/images/task_images/land.jpg,65,,,,,,,0,,,12,,,,,,,,56100,2,3,FALSE,,,
dig,239,956415,0.0-77.0-0.0,"""event"",""trial"",""time""
""fullscreenenter"",""1"",""146626""
","
","
","""event"",""trial"",""time""
""fullscreenenter"",""1"",""146626""
","
",,,,,,,,,,,,"[{""stimulus"":""run_exp/static/images/task_images/dig.jpg"",""time"":0.8000000000465661},{""stimulus"":""run_exp/static/images/task_images/land.jpg"",""time"":399.39999999990687},{""stimulus"":""run_exp/static/images/task_images/dig.jpg"",""time"":792.6999999999534}]",[],12,,,,,,,,,,,,,,
harvest,240,957422,0.0-77.0-1.0,"""event"",""trial"",""time""
""fullscreenenter"",""1"",""146626""
","
","
","""event"",""trial"",""time""
""fullscreenenter"",""1"",""146626""
","
",,null,run_exp/static/images/task_images/gems/0.jpg,null,,,,,,,0,,,12,,,,,0,0.20212631,NaN,,,,,,,
decision,241,957485,0.0-77.0-2.0,"""event"",""trial"",""time""
""fullscreenenter"",""1"",""146626""
","
","
","""event"",""trial"",""time""
""fullscreenenter"",""1"",""146626""
","
",,52.5,run_exp/static/images/task_images/land.jpg,76,,,,,,,0,,,12,,,,,,,,58374,2,4,TRUE,,,
travel,242,967453,0.0-78.0-0.0,"""event"",""trial"",""time""
""fullscreenenter"",""1"",""146626""
","
","
","""event"",""trial"",""time""
""fullscreenenter"",""1"",""146626""
","
",,,,,,,,,,,,"[{""stimulus"":""run_exp/static/images/task_images/rocket-01.jpg"",""time"":0.8000000000465661},{""stimulus"":""run_exp/static/images/task_images/rocket-02.jpg"",""time"":1110.3999999999069},{""stimulus"":""run_exp/static/images/task_images/rocket-03.jpg"",""time"":2213.3000000000466},{""stimulus"":""run_exp/static/images/task_images/rocket-04.jpg"",""time"":3318.8000000000466},{""stimulus"":""run_exp/static/images/task_images/rocket-05.jpg"",""time"":4425.300000000047},{""stimulus"":""run_exp/static/images/task_images/rocket-06.jpg"",""time"":5530.300000000047},{""stimulus"":""run_exp/static/images/task_images/rocket-07.jpg"",""time"":6634.699999999953},{""stimulus"":""run_exp/static/images/task_images/rocket-08.jpg"",""time"":7740},{""stimulus"":""run_exp/static/images/task_images/rocket-09.jpg"",""time"":8845}]",[],12,,,,,,,,,,,,,,
alien_welcome,243,972466,0.0-78.0-1.0,"""event"",""trial"",""time""
""fullscreenenter"",""1"",""146626""
","
","
","""event"",""trial"",""time""
""fullscreenenter"",""1"",""146626""
","
",,null,run_exp/static/images/task_images/aliens/old_aliens/planet/alien_planet-74.jpg,null,,,,,,,,,,,,,74,"9,62,6,4,19,67,73,50,35,45,5,29,74,44,30,38,26,72,1,15,55,60,54,61,17,24,78,27,79,14,18,23,34,48,22,49,43,66,64,40",,,,,,,,,,
land,244,972972,0.0-78.0-2.0,"""event"",""trial"",""time""
""fullscreenenter"",""1"",""146626""
","
","
","""event"",""trial"",""time""
""fullscreenenter"",""1"",""146626""
","
",,null,run_exp/static/images/task_images/land.jpg,null,,,,,,,108,,,13,,,,,,,,,,,,,,
dig,245,974984,0.0-78.0-3.0,"""event"",""trial"",""time""
""fullscreenenter"",""1"",""146626""
","
","
","""event"",""trial"",""time""
""fullscreenenter"",""1"",""146626""
","
