trial_type,trial_index,time_elapsed,internal_node_id,interactions,blur_events,focus_events,fullscreenenter_events,fullscreenexit_events,success,rt,stimulus,key_press,prompt,subject_id,participant_id,age,gender,button_pressed,next_reward,animation_sequence,responses,planet,curr_prac_trial,n_prac_rounds,alien,aliens,reward_received,decay_rate_actual,decay_rate_exp,time_in_block,block_num,prt,last_trial_on_planet,button_html,bonus,num_failures
pavlovia,0,21,0.0-0.0,"""event"",""trial"",""time""
""fullscreenenter"",""1"",""3873""
","
","
","""event"",""trial"",""time""
""fullscreenenter"",""1"",""3873""
","
",,,,,,,,,,,,,,,,,,,,,,,,,,,,
fullscreen,1,4854,0.0-1.0,"""event"",""trial"",""time""
""fullscreenenter"",""1"",""3873""
","
","
","""event"",""trial"",""time""
""fullscreenenter"",""1"",""3873""
","
",TRUE,,,,,,,,,,,,,,,,,,,,,,,,,,,
instruc_welcome,2,14778,0.0-2.0,"""event"",""trial"",""time""
""fullscreenenter"",""1"",""3873""
","
","
","""event"",""trial"",""time""
""fullscreenenter"",""1"",""3873""
","
",,null,run_exp/static/audio/clip_1_welcome.m4a,null,"<p>Howdy! In this experiment, you’ll be an explorer traveling through space to collect space treasure.</p><p>Your mission is to collect as much treasure as possible.</p><br><br><p><img src='run_exp/static/images/task_images/opening_img-01.jpg' height='300' width='auto'></p>",9784,4533,13.33,Male,,,,,,,,,,,,,,,,,,,
audio-keyboard-response,3,31811,0.0-3.0,"""event"",""trial"",""time""
""fullscreenenter"",""1"",""3873""
","
","
","""event"",""trial"",""time""
""fullscreenenter"",""1"",""3873""
","
",,null,run_exp/static/audio/clip_2_move.m4a,null,,,,,,,,,,,,,,,,,,,,,,,,
welcome_dec,4,39122,0.0-4.0,"""event"",""trial"",""time""
""fullscreenenter"",""1"",""3873""
","
","
","""event"",""trial"",""time""
""fullscreenenter"",""1"",""3873""
","
",,7304.3,"<p>Howdy! In this experiment, you’ll be an explorer traveling through space to collect space treasure.</p><p>Your mission is to collect as much treasure as possible.</p><br><br><p><img src='run_exp/static/images/task_images/opening_img-01.jpg' height='300' width='auto'></p>",,,,,,,1,,,,,,,,,,,,,,,,,,
html-keyboard-response,5,55020,0.0-5.0,"""event"",""trial"",""time""
""fullscreenenter"",""1"",""3873""
","
","
","""event"",""trial"",""time""
""fullscreenenter"",""1"",""3873""
","
",,15891,"<p>Howdy! In this experiment, you’ll be an explorer traveling through space to collect space treasure.</p><p>Your mission is to collect as much treasure as possible.</p><br><br><p><img src='run_exp/static/images/task_images/opening_img-01.jpg' height='300' width='auto'></p><button class=""jspsych-html-btn-unchosen""><img src=""run_exp/static/images/task_images/planet-01.jpg"" height=""50""></button><button class=""jspsych-html-btn-chosen""><img src=""run_exp/static/images/task_images/planet-02.jpg"" height=""50""></button><p><b>[press the space bar to lock in your answer]<b><br></p>",32,,,,,,,,,,,,,,,,,,,,,,,,
instruc_goal,6,65298,0.0-6.0-0.0,"""event"",""trial"",""time""
""fullscreenenter"",""1"",""3873""
","
","
","""event"",""trial"",""time""
""fullscreenenter"",""1"",""3873""
","
",,null,run_exp/static/audio/clip_3_goal.m4a,null,"<p> As a space explorer, you’ll visit different planets to dig for space treasure, these pink gems.</p> <p> The more treasure you dig up, the more bonus money you’ll win! </p><br><br><p><img src='run_exp/static/images/task_images/pink_gem.jpg' height='300' width='auto'></p>",,,,,,,,,,,,,,,,,,,,,,,
instruc_goal,7,76989,0.0-6.0-1.0,"""event"",""trial"",""time""
""fullscreenenter"",""1"",""3873""
","
","
","""event"",""trial"",""time""
""fullscreenenter"",""1"",""3873""
","
",,11683.4,"<p> As a space explorer, you’ll visit different planets to dig for space treasure, these pink gems.</p> <p> The more treasure you dig up, the more bonus money you’ll win! </p><br><br><p><img src='run_exp/static/images/task_images/pink_gem.jpg' height='300' width='auto'></p>",,,,,,,1,,,,,,,,,,,,,,,,,,
html-keyboard-response,8,80182,0.0-6.0-2.0,"""event"",""trial"",""time""
""fullscreenenter"",""1"",""3873""
","
","
","""event"",""trial"",""time""
""fullscreenenter"",""1"",""3873""
","
",,3185.2,"<p> As a space explorer, you’ll visit different planets to dig for space treasure, these pink gems.</p> <p> The more treasure you dig up, the more bonus money you’ll win! </p><br><br><p><img src='run_exp/static/images/task_images/pink_gem.jpg' height='300' width='auto'></p><button class=""jspsych-html-btn-unchosen""><img src=""run_exp/static/images/task_images/planet-01.jpg"" height=""50""></button><button class=""jspsych-html-btn-chosen""><img src=""run_exp/static/images/task_images/planet-02.jpg"" height=""50""></button><p><b>[press the space bar to lock in your answer]<b><br></p>",32,,,,,,,,,,,,,,,,,,,,,,,,
instruc_dig,9,96362,0.0-7.0-0.0,"""event"",""trial"",""time""
""fullscreenenter"",""1"",""3873""
","
","
","""event"",""trial"",""time""
""fullscreenenter"",""1"",""3873""
","
",,null,run_exp/static/audio/clip_4_dig.m4a,null,,,,,,,100,,,,,,,,,,,,,,,,,
instruc_dig_try,10,96989,0.0-7.0-1.0,"""event"",""trial"",""time""
""fullscreenenter"",""1"",""3873""
","
","
","""event"",""trial"",""time""
""fullscreenenter"",""1"",""3873""
","
",,622.3,"<p> When you’ve arrived at a new planet, you will dig once. </p> <p>Then, you get to decide if you want to stay on the planet and dig again or travel to a new planet and dig there.</p> <p> To stay and dig, press the letter <strong>‘A’</strong> on your keyboard. Try pressing it now! </p><p><img src='run_exp/static/images/task_images/land.jpg'  height='700' width='auto'></p>",65,"<p> When you’ve arrived at a new planet, you will dig once. </p> <p>Then, you get to decide if you want to stay on the planet and dig again or travel to a new planet and dig there.</p> <p> To stay and dig, press the letter <strong>‘A’</strong> on your keyboard. Try pressing it now! </p><p><img src='run_exp/static/images/task_images/land.jpg'  height='700' width='auto'></p>",,,,,,100,,,,,,,,,,,,,,,,,
dig_prac,11,99030,0.0-7.0-2.0,"""event"",""trial"",""time""
""fullscreenenter"",""1"",""3873""
","
","
","""event"",""trial"",""time""
""fullscreenenter"",""1"",""3873""
","
",,,,,,,,,,,,"[{""stimulus"":""run_exp/static/images/task_images/dig.jpg"",""time"":1.5},{""stimulus"":""run_exp/static/images/task_images/land.jpg"",""time"":673.8000000000466},{""stimulus"":""run_exp/static/images/task_images/dig.jpg"",""time"":1346.0999999999767}]",[],,,,,,,,,,,,,,,
instruc_travel,12,135677,0.0-7.0-3.0,"""event"",""trial"",""time""
""fullscreenenter"",""1"",""3873""
","
","
","""event"",""trial"",""time""
""fullscreenenter"",""1"",""3873""
","
",,null,run_exp/static/audio/clip_5_travel.m4a,null,"<p>Every time you dig up gems, there are less gems on the planet, so the more you dig on a planet the fewer gems you’ll get with each dig.</p><p>When gems are running low, you may want to travel to a new planet. </p> <p>  Planets are very far apart in this galaxy, so it will take some time to travel between them. </p> <br><p>There are lots and lots of planets for you to visit, so you won’t be able to return to any planets you’ve seen before. </p><br><p>To leave this planet and travel to a new one, press the letter <strong>‘L’</strong> on your keyboard. Try pressing it now! </p><p><img src='run_exp/static/images/task_images/rocket-01.jpg'  height='600' width='auto'></p>",,,,,,,,,,,,,,,,,,,,,,,
instruc_travel_try,13,140451,0.0-7.0-4.0,"""event"",""trial"",""time""
""fullscreenenter"",""1"",""3873""
","
","
","""event"",""trial"",""time""
""fullscreenenter"",""1"",""3873""
","
",,4771,"<p>Every time you dig up gems, there are less gems on the planet, so the more you dig on a planet the fewer gems you’ll get with each dig.</p><p>When gems are running low, you may want to travel to a new planet. </p> <p>  Planets are very far apart in this galaxy, so it will take some time to travel between them. </p> <br><p>There are lots and lots of planets for you to visit, so you won’t be able to return to any planets you’ve seen before. </p><br><p>To leave this planet and travel to a new one, press the letter <strong>‘L’</strong> on your keyboard. Try pressing it now! </p><p><img src='run_exp/static/images/task_images/rocket-01.jpg'  height='600' width='auto'></p>",76,"<p>Every time you dig up gems, there are less gems on the planet, so the more you dig on a planet the fewer gems you’ll get with each dig.</p><p>When gems are running low, you may want to travel to a new planet. </p> <p>  Planets are very far apart in this galaxy, so it will take some time to travel between them. </p> <br><p>There are lots and lots of planets for you to visit, so you won’t be able to return to any planets you’ve seen before. </p><br><p>To leave this planet and travel to a new one, press the letter <strong>‘L’</strong> on your keyboard. Try pressing it now! </p><p><img src='run_exp/static/images/task_images/rocket-01.jpg'  height='600' width='auto'></p>",,,,,,,,,,,,,,,,,,,,,,,
travel_prac,14,150462,0.0-7.0-5.0,"""event"",""trial"",""time""
""fullscreenenter"",""1"",""3873""
","
","
","""event"",""trial"",""time""
""fullscreenenter"",""1"",""3873""
","
",,,,,,,,,,,,"[{""stimulus"":""run_exp/static/images/task_images/rocket-01.jpg"",""time"":1},{""stimulus"":""run_exp/static/images/task_images/rocket-02.jpg"",""time"":1118.8999999999069},{""stimulus"":""run_exp/static/images/task_images/rocket-03.jpg"",""time"":2231},{""stimulus"":""run_exp/static/images/task_images/rocket-04.jpg"",""time"":3343.399999999907},{""stimulus"":""run_exp/static/images/task_images/rocket-05.jpg"",""time"":4455.199999999953},{""stimulus"":""run_exp/static/images/task_images/rocket-06.jpg"",""time"":5559.5},{""stimulus"":""run_exp/static/images/task_images/rocket-07.jpg"",""time"":6670.5},{""stimulus"":""run_exp/static/images/task_images/rocket-08.jpg"",""time"":7783.199999999953},{""stimulus"":""run_exp/static/images/task_images/rocket-09.jpg"",""time"":8894.79999999993}]",[],0,,,,,,,,,,,,,,
instruc_alien_greet,15,177986,0.0-7.0-6.0,"""event"",""trial"",""time""
""fullscreenenter"",""1"",""3873""
","
","
","""event"",""trial"",""time""
""fullscreenenter"",""1"",""3873""
","
",,null,run_exp/static/audio/clip_6_alien.m4a,null,"<p>When you arrive at a new planet, the alien who owns the treasure mine on that planet will greet you!</p><p>The better an alien takes care of their mine the easier it is to dig for gems. Some aliens take better care of their mine than others. So, you won’t get exactly the same amount of gems on each planet.</p><p>What the alien looks like does not tell you anything about how many gems there are on the planet.</p><br><p><img src=""run_exp/static/images/task_images/aliens/instructions_aliens/planet/alien_planet-1.jpg""  height=""600"" width=""auto""></p>",,,,,,,,,,,,,,,,,,,,,,,
instruc_alien_greet,16,188436,0.0-7.0-7.0,"""event"",""trial"",""time""
""fullscreenenter"",""1"",""3873""
","
","
","""event"",""trial"",""time""
""fullscreenenter"",""1"",""3873""
","
",,10442.2,"<p>When you arrive at a new planet, the alien who owns the treasure mine on that planet will greet you!</p><p>The better an alien takes care of their mine the easier it is to dig for gems. Some aliens take better care of their mine than others. So, you won’t get exactly the same amount of gems on each planet.</p><p>What the alien looks like does not tell you anything about how many gems there are on the planet.</p><br><p><img src=""run_exp/static/images/task_images/aliens/instructions_aliens/planet/alien_planet-1.jpg""  height=""600"" width=""auto""></p>",,,,,,,1,,,,,,,,,,,,,,,,,,
html-keyboard-response,17,193667,0.0-7.0-8.0,"""event"",""trial"",""time""
""fullscreenenter"",""1"",""3873""
","
","
","""event"",""trial"",""time""
""fullscreenenter"",""1"",""3873""
","
",,5223.9,"<p>When you arrive at a new planet, the alien who owns the treasure mine on that planet will greet you!</p><p>The better an alien takes care of their mine the easier it is to dig for gems. Some aliens take better care of their mine than others. So, you won’t get exactly the same amount of gems on each planet.</p><p>What the alien looks like does not tell you anything about how many gems there are on the planet.</p><br><p><img src=""run_exp/static/images/task_images/aliens/instructions_aliens/planet/alien_planet-1.jpg""  height=""600"" width=""auto""></p><button class=""jspsych-html-btn-unchosen""><img src=""run_exp/static/images/task_images/planet-01.jpg"" height=""50""></button><button class=""jspsych-html-btn-chosen""><img src=""run_exp/static/images/task_images/planet-02.jpg"" height=""50""></button><p><b>[press the space bar to lock in your answer]<b><br></p>",32,,,,,,,,,,,,,,,,,,,,,,,,
time_out,18,204975,0.0-8.0-0.0,"""event"",""trial"",""time""
""fullscreenenter"",""1"",""3873""
","
","
","""event"",""trial"",""time""
""fullscreenenter"",""1"",""3873""
","
",,null,run_exp/static/audio/clip_7_timeout.m4a,null,"<p>If you don't make your choice fast enough, you’ll have to wait a few seconds before you can make another one.</p><p>You can’t dig for more gems or travel to new planets. You just have to sit and wait.</p><br><p><img src='run_exp/static/images/task_images/time_out.jpg'  height='600' width='auto'></p>",,,,,,,,,,,,,,,,,,,,,,,
time_out,19,212713,0.0-8.0-1.0,"""event"",""trial"",""time""
""fullscreenenter"",""1"",""3873""
","
","
","""event"",""trial"",""time""
""fullscreenenter"",""1"",""3873""
","
",,7733.4,"<p>If you don't make your choice fast enough, you’ll have to wait a few seconds before you can make another one.</p><p>You can’t dig for more gems or travel to new planets. You just have to sit and wait.</p><br><p><img src='run_exp/static/images/task_images/time_out.jpg'  height='600' width='auto'></p>",,,,,,,1,,,,,,,,,,,,,,,,,,
html-keyboard-response,20,216704,0.0-8.0-2.0,"""event"",""trial"",""time""
""fullscreenenter"",""1"",""3873""
","
","
","""event"",""trial"",""time""
""fullscreenenter"",""1"",""3873""
","
",,3985.3,"<p>If you don't make your choice fast enough, you’ll have to wait a few seconds before you can make another one.</p><p>You can’t dig for more gems or travel to new planets. You just have to sit and wait.</p><br><p><img src='run_exp/static/images/task_images/time_out.jpg'  height='600' width='auto'></p><button class=""jspsych-html-btn-unchosen""><img src=""run_exp/static/images/task_images/planet-01.jpg"" height=""50""></button><button class=""jspsych-html-btn-chosen""><img src=""run_exp/static/images/task_images/planet-02.jpg"" height=""50""></button><p><b>[press the space bar to lock in your answer]<b><br></p>",32,,,,,,,,,,,,,,,,,,,,,,,,
instruc_break,21,232473,0.0-9.0-0.0,"""event"",""trial"",""time""
""fullscreenenter"",""1"",""3873""
","
","
","""event"",""trial"",""time""
""fullscreenenter"",""1"",""3873""
","
",,null,run_exp/static/audio/clip_8_break.m4a,null,"<p> After digging and traveling for a while, you’ll be able to take a break at home base. </p><p>The game will last 20 minutes no matter what.</p><p>You will visit home base every 5 minutes, so, you will visit home base three times during the game.</p><br><p><img src='run_exp/static/images/task_images/home_base.jpg' height='600' width='auto'></p>",,,,,,,,,,,,,,,,,,,,,,,
instruc_break,22,241303,0.0-9.0-1.0,"""event"",""trial"",""time""
""fullscreenenter"",""1"",""3873""
","
","
","""event"",""trial"",""time""
""fullscreenenter"",""1"",""3873""
","
",,8822.8,"<p> After digging and traveling for a while, you’ll be able to take a break at home base. </p><p>The game will last 20 minutes no matter what.</p><p>You will visit home base every 5 minutes, so, you will visit home base three times during the game.</p><br><p><img src='run_exp/static/images/task_images/home_base.jpg' height='600' width='auto'></p>",,,,,,,1,,,,,,,,,,,,,,,,,,
html-keyboard-response,23,243543,0.0-9.0-2.0,"""event"",""trial"",""time""
""fullscreenenter"",""1"",""3873""
","
","
","""event"",""trial"",""time""
""fullscreenenter"",""1"",""3873""
","
",,2232.8,"<p> After digging and traveling for a while, you’ll be able to take a break at home base. </p><p>The game will last 20 minutes no matter what.</p><p>You will visit home base every 5 minutes, so, you will visit home base three times during the game.</p><br><p><img src='run_exp/static/images/task_images/home_base.jpg' height='600' width='auto'></p><button class=""jspsych-html-btn-unchosen""><img src=""run_exp/static/images/task_images/planet-01.jpg"" height=""50""></button><button class=""jspsych-html-btn-chosen""><img src=""run_exp/static/images/task_images/planet-02.jpg"" height=""50""></button><p><b>[press the space bar to lock in your answer]<b><br></p>",32,,,,,,,,,,,,,,,,,,,,,,,,
instruc_prac_game,24,253815,0.0-10.0-0.0,"""event"",""trial"",""time""
""fullscreenenter"",""1"",""3873""
","
","
","""event"",""trial"",""time""
""fullscreenenter"",""1"",""3873""
","
",,null,run_exp/static/audio/clip_9_practice.m4a,null,"<p> Are you ready to play a practice game? </p> <p>In this practice game, you'll be digging up barrels of gems. But, in the real game, you'll be digging up the gems themselves. </p>",,,,,,,,,,,,,,,,,,,,,,,
html-button-response,25,257029,0.0-10.0-1.0,"""event"",""trial"",""time""
""fullscreenenter"",""1"",""3873""
","
","
","""event"",""trial"",""time""
""fullscreenenter"",""1"",""3873""
","
",,3209.4,"<p> Are you ready to play a practice game? </p> <p>In this practice game, you'll be digging up barrels of gems. But, in the real game, you'll be digging up the gems themselves. </p>",,,,,,,0,,,,,,,,,,,,,,,,,,
alien_welcome_prac,26,262047,0.0-11.0-0.0,"""event"",""trial"",""time""
""fullscreenenter"",""1"",""3873""
","
","
","""event"",""trial"",""time""
""fullscreenenter"",""1"",""3873""
","
",,null,run_exp/static/images/task_images/aliens/practice_aliens/planet/alien_planet-5.jpg,null,,,,,,,,,,,,,,,,,,,,,,,,
land_prac,27,262558,0.0-11.0-1.0,"""event"",""trial"",""time""
""fullscreenenter"",""1"",""3873""
","
","
","""event"",""trial"",""time""
""fullscreenenter"",""1"",""3873""
","
",,null,run_exp/static/images/task_images/land.jpg,null,,,,,,,98,,,0,,,,,,,,,,,,,,
dig_prac,28,264574,0.0-11.0-2.0,"""event"",""trial"",""time""
""fullscreenenter"",""1"",""3873""
","
","
","""event"",""trial"",""time""
""fullscreenenter"",""1"",""3873""
","
",,,,,,,,,,,,"[{""stimulus"":""run_exp/static/images/task_images/dig.jpg"",""time"":1.099999999976717},{""stimulus"":""run_exp/static/images/task_images/land.jpg"",""time"":673.6999999999534},{""stimulus"":""run_exp/static/images/task_images/dig.jpg"",""time"":1337.9000000000233}]",[],,,,,,,,,,,,,,,
harvest_prac,29,265582,0.0-11.0-3.0,"""event"",""trial"",""time""
""fullscreenenter"",""1"",""3873""
","
","
","""event"",""trial"",""time""
""fullscreenenter"",""1"",""3873""
","
",,null,run_exp/static/images/task_images/barrel_text.jpg,null,,,,,,,,,,,,,,,,,,,,,,,,
decision_prac,30,268586,0.0-11.0-4.0,"""event"",""trial"",""time""
""fullscreenenter"",""1"",""3873""
","
","
","""event"",""trial"",""time""
""fullscreenenter"",""1"",""3873""
","
",,null,run_exp/static/images/task_images/land.jpg,null,,,,,,,,,,,1,,,,,,,,,,,,,
time_out,31,270606,0.0-12.0-0.0,"""event"",""trial"",""time""
""fullscreenenter"",""1"",""3873""
","
","
","""event"",""trial"",""time""
""fullscreenenter"",""1"",""3873""
","
",,null,run_exp/static/images/task_images/time_out.jpg,null,,,,,,,,,,,,,,,,,,,,,,,,
decision_prac,32,273614,0.0-12.0-1.0,"""event"",""trial"",""time""
""fullscreenenter"",""1"",""3873""
","
","
","""event"",""trial"",""time""
""fullscreenenter"",""1"",""3873""
","
",,null,run_exp/static/images/task_images/land.jpg,null,,,,,,,,,,,2,,,,,,,,,,,,,
time_out,33,275630,0.0-13.0-0.0,"""event"",""trial"",""time""
""fullscreenenter"",""1"",""3873""
","
","
","""event"",""trial"",""time""
""fullscreenenter"",""1"",""3873""
","
",,null,run_exp/static/images/task_images/time_out.jpg,null,,,,,,,,,,,,,,,,,,,,,,,,
decision_prac,34,278638,0.0-13.0-1.0,"""event"",""trial"",""time""
""fullscreenenter"",""1"",""3873""
","
","
","""event"",""trial"",""time""
""fullscreenenter"",""1"",""3873""
","
",,null,run_exp/static/images/task_images/land.jpg,null,,,,,,,,,,,3,,,,,,,,,,,,,
time_out,35,280654,0.0-14.0-0.0,"""event"",""trial"",""time""
""fullscreenenter"",""1"",""3873""
","
","
","""event"",""trial"",""time""
""fullscreenenter"",""1"",""3873""
","
",,null,run_exp/static/images/task_images/time_out.jpg,null,,,,,,,,,,,,,,,,,,,,,,,,
decision_prac,36,281695,0.0-14.0-1.0,"""event"",""trial"",""time""
""fullscreenenter"",""1"",""3873""
","
","
","""event"",""trial"",""time""
""fullscreenenter"",""1"",""3873""
","
",,1036.8,run_exp/static/images/task_images/land.jpg,65,,,,,,,,,,,4,,,,,,,,,,,,,
dig_prac,37,283710,0.0-15.0-0.0,"""event"",""trial"",""time""
""fullscreenenter"",""1"",""3873""
","
","
","""event"",""trial"",""time""
""fullscreenenter"",""1"",""3873""
","
",,,,,,,,,,,,"[{""stimulus"":""run_exp/static/images/task_images/dig.jpg"",""time"":0.8000000000465661},{""stimulus"":""run_exp/static/images/task_images/land.jpg"",""time"":670.9000000000233},{""stimulus"":""run_exp/static/images/task_images/dig.jpg"",""time"":1342.9000000000233}]",[],,,,,,,,,,,,,,,
harvest_prac,38,284718,0.0-15.0-1.0,"""event"",""trial"",""time""
""fullscreenenter"",""1"",""3873""
","
","
","""event"",""trial"",""time""
""fullscreenenter"",""1"",""3873""
","
",,null,run_exp/static/images/task_images/barrel_text.jpg,null,,,,,,,,,,,,,,,,,,,,,,,,
decision_prac,39,287296,0.0-15.0-2.0,"""event"",""trial"",""time""
""fullscreenenter"",""1"",""3873""
","
","
","""event"",""trial"",""time""
""fullscreenenter"",""1"",""3873""
","
",,2573.6,run_exp/static/images/task_images/land.jpg,65,,,,,,,,,,,,1,,,,,,,,,,,,
quiz_instruc,40,299542,0.0-16.0-0.0,"""event"",""trial"",""time""
""fullscreenenter"",""1"",""3873""
","
","
","""event"",""trial"",""time""
""fullscreenenter"",""1"",""3873""
","
",,12236.6,run_exp/static/audio/clip_10_quiz.m4a,,,,,,,0,,,,,,,,,,,,,,,,,,
instruc_repeat,41,342609,0.0-16.0-1.0,"""event"",""trial"",""time""
""fullscreenenter"",""1"",""3873""
","
","
","""event"",""trial"",""time""
""fullscreenenter"",""1"",""3873""
","
",,null,"<p> Are you ready to play a practice game? </p> <p>In this practice game, you'll be digging up barrels of gems. But, in the real game, you'll be digging up the gems themselves. </p>",null,"<p>In this game, your goal is to collect as many gems as you can. That’s how you will win bonus money. </p> <p>The entire game will last 20 minutes no matter how many gems you collect or how many planets you visit. </p><p>To stay on a planet and dig again, press the letter A on your keyboard. To leave for a new planet, press the letter L.</p><p>The more you dig on a planet, the fewer gems you’ll get with each dig which is why you might consider leaving for a new planet. </p><p>When you arrive at a new planet, you’ll be greeted by an alien. What the alien looks like does not tell you anything about how much treasure is on the planet. </p>",,,,,,,,,,,,,,,,,,,,,,,
instruc_repeat_continue,42,347363,0.0-16.0-2.0,"""event"",""trial"",""time""
""fullscreenenter"",""1"",""3873""
","
","
","""event"",""trial"",""time""
""fullscreenenter"",""1"",""3873""
","
",,4749.9,"<p> Are you ready to play a practice game? </p> <p>In this practice game, you'll be digging up barrels of gems. But, in the real game, you'll be digging up the gems themselves. </p>",,,,,,,0,,,,,,,,,,,,,,,,,,
quiz_q_1_ask,43,353498,0.0-16.0-3.0,"""event"",""trial"",""time""
""fullscreenenter"",""1"",""3873""
","
","
","""event"",""trial"",""time""
""fullscreenenter"",""1"",""3873""
","
",,6128.5,run_exp/static/audio/clip_11_q1_ask.m4a,,,,,,,2,,,,,,,,,,,,,,,,,,
quiz_q_1_fb_correct,44,357720,0.0-17.0-0.0,"""event"",""trial"",""time""
""fullscreenenter"",""1"",""3873""
","
","
","""event"",""trial"",""time""
""fullscreenenter"",""1"",""3873""
","
",,null,run_exp/static/audio/clip_12_q1_correct.m4a,null,<p>That’s correct. You win extra money by collecting more gems.</p>,,,,,,,,,,,,,,,,,,,,,,,
quiz_q_2_ask,45,361556,0.0-17.0-1.0,"""event"",""trial"",""time""
""fullscreenenter"",""1"",""3873""
","
","
","""event"",""trial"",""time""
""fullscreenenter"",""1"",""3873""
","
",,3829.3,run_exp/static/audio/clip_14_q2_ask.m4a,,,,,,,1,,,,,,,,,,,,,,,,,,
quiz_q_2_fb_correct,46,365790,0.0-18.0-0.0,"""event"",""trial"",""time""
""fullscreenenter"",""1"",""3873""
","
","
","""event"",""trial"",""time""
""fullscreenenter"",""1"",""3873""
","
",,null,run_exp/static/audio/clip_15_q2_correct.m4a,null,<p>That’s correct. The experiment is 20 minutes no matter what.</p>,,,,,,,,,,,,,,,,,,,,,,,
quiz_q_3_ask,47,370373,0.0-18.0-1.0,"""event"",""trial"",""time""
""fullscreenenter"",""1"",""3873""
","
","
","""event"",""trial"",""time""
""fullscreenenter"",""1"",""3873""
","
",,4577.6,run_exp/static/audio/clip_17_q3_ask.m4a,,,,,,,1,,,,,,,,,,,,,,,,,,
quiz_q_3_fb_correct,48,374625,0.0-19.0-0.0,"""event"",""trial"",""time""
""fullscreenenter"",""1"",""3873""
","
","
","""event"",""trial"",""time""
""fullscreenenter"",""1"",""3873""
","
",,null,run_exp/static/audio/clip_18_q3_correct.m4a,null,<p> That’s correct. You press the letter L to travel to a new planet.</p>,,,,,,,,,,,,,,,,,,,,,,,
quiz_q_4_ask,49,379762,0.0-19.0-1.0,"""event"",""trial"",""time""
""fullscreenenter"",""1"",""3873""
","
","
","""event"",""trial"",""time""
""fullscreenenter"",""1"",""3873""
","
",,5131.3,run_exp/static/audio/clip_20_q4_ask.m4a,,,,,,,0,,,,,,,,,,,,,,,,,,
quiz_q_4_fb_correct,50,385383,0.0-20.0-0.0,"""event"",""trial"",""time""
""fullscreenenter"",""1"",""3873""
","
","
","""event"",""trial"",""time""
""fullscreenenter"",""1"",""3873""
","
",,null,run_exp/static/audio/clip_21_q4_correct.m4a,null,<p> That’s correct. The more you dig on a planet the fewer gems you’ll get with each dig. </p>,,,,,,,,,,,,,,,,,,,,,,,
quiz_q_5_ask,51,389363,0.0-20.0-1.0,"""event"",""trial"",""time""
""fullscreenenter"",""1"",""3873""
","
","
","""event"",""trial"",""time""
""fullscreenenter"",""1"",""3873""
","
",,3974.3,run_exp/static/audio/clip_23_q5_ask.m4a,,,,,,,1,,,,,,,,,,,,,,,,,,
quiz_q_5_fb_correct,52,394731,0.0-21.0-0.0,"""event"",""trial"",""time""
""fullscreenenter"",""1"",""3873""
","
","
","""event"",""trial"",""time""
""fullscreenenter"",""1"",""3873""
","
",,null,run_exp/static/audio/clip_24_q5_correct.m4a,null,<p> That’s correct. The alien tells you nothing about how much treasure is on the planet.</p>,,,,,,,,,,,,,,,,,,,,,,,
quiz_correct,53,398573,0.0-22.0-0.0,"""event"",""trial"",""time""
""fullscreenenter"",""1"",""3873""
","
","
","""event"",""trial"",""time""
""fullscreenenter"",""1"",""3873""
","
",,null,run_exp/static/audio/clip_26_correct_quiz.m4a,null,,,,,,,,,,,,,,,,,,,,,,,,
quiz_correct_continue,54,400152,0.0-22.0-1.0,"""event"",""trial"",""time""
""fullscreenenter"",""1"",""3873""
","
","
","""event"",""trial"",""time""
""fullscreenenter"",""1"",""3873""
","
",,1574.8,<p>Good job! You're now ready to move on to the real game!</p>,,,,,,,0,,,,,,,,,,,,,,,,,,
audio-keyboard-response,55,410612,0.0-22.0-2.0,"""event"",""trial"",""time""
""fullscreenenter"",""1"",""3873""
","
","
","""event"",""trial"",""time""
""fullscreenenter"",""1"",""3873""
","
",,null,run_exp/static/audio/clip_28_real_game.m4a,null,,,,,,,,,,,,,,,,,,,,,,,,
instruc_begin_exp_contine,56,412517,0.0-22.0-3.0,"""event"",""trial"",""time""
""fullscreenenter"",""1"",""3873""
","
","
","""event"",""trial"",""time""
""fullscreenenter"",""1"",""3873""
","
",,1899.9,"<p>Now that you know how  to dig for space treasure and travel to new planets,you can start exploring! </p><p>Do you want to go over the instructions again or get started with the real game?</p>",,,,,,,1,,,,,,1,,,,,,,,,,,,
alien_welcome,57,417534,0.0-23.0-0.0,"""event"",""trial"",""time""
""fullscreenenter"",""1"",""3873""
","
","
","""event"",""trial"",""time""
""fullscreenenter"",""1"",""3873""
","
",,null,run_exp/static/images/task_images/aliens/old_aliens/planet/alien_planet-64.jpg,null,,,,,,,,,,,,,64,"64,58,74,27,34,35,1,5,62,29,26,61,78,28,65,80,60,39,8,6,55,63,41,49,32,7,77,37,73,54,52,22,53,76,12,71,48",,,,,,,,,,
land,58,418046,0.0-23.0-1.0,"""event"",""trial"",""time""
""fullscreenenter"",""1"",""3873""
","
","
","""event"",""trial"",""time""
""fullscreenenter"",""1"",""3873""
","
",,null,run_exp/static/images/task_images/land.jpg,null,,,,,,,103,,,1,,,,,,,,,,,,,,
dig,59,420062,0.0-23.0-2.0,"""event"",""trial"",""time""
""fullscreenenter"",""1"",""3873""
","
","
","""event"",""trial"",""time""
""fullscreenenter"",""1"",""3873""
","
",,,,,,,,,,,,"[{""stimulus"":""run_exp/static/images/task_images/dig.jpg"",""time"":1.1000000000931323},{""stimulus"":""run_exp/static/images/task_images/land.jpg"",""time"":674.6000000000931},{""stimulus"":""run_exp/static/images/task_images/dig.jpg"",""time"":1339.1000000000931}]",[],1,,,,,,,,,,,,,,
harvest,60,421680,0.0-23.0-3.0,"""event"",""trial"",""time""
""fullscreenenter"",""1"",""3873""
","
","
","""event"",""trial"",""time""
""fullscreenenter"",""1"",""3873""
","
",,null,run_exp/static/images/task_images/gems/103.jpg,null,,,,,,,26,,,1,,,,,103,0.253111991,0.252427184,,,,,,,
decision,61,422851,0.0-23.0-4.0,"""event"",""trial"",""time""
""fullscreenenter"",""1"",""3873""
","
","
","""event"",""trial"",""time""
""fullscreenenter"",""1"",""3873""
","
",,1166.1,run_exp/static/images/task_images/land.jpg,65,,,,,,,26,,,1,,,,,,,,10328,1,0,FALSE,,,
dig,62,424702,0.0-24.0-0.0,"""event"",""trial"",""time""
""fullscreenenter"",""1"",""3873""
","
","
","""event"",""trial"",""time""
""fullscreenenter"",""1"",""3873""
","
",,,,,,,,,,,,"[{""stimulus"":""run_exp/static/images/task_images/dig.jpg"",""time"":1.1999999999534339},{""stimulus"":""run_exp/static/images/task_images/land.jpg"",""time"":622},{""stimulus"":""run_exp/static/images/task_images/dig.jpg"",""time"":1230.2999999999302}]",[],1,,,,,,,,,,,,,,
harvest,63,425710,0.0-24.0-1.0,"""event"",""trial"",""time""
""fullscreenenter"",""1"",""3873""
","
","
","""event"",""trial"",""time""
""fullscreenenter"",""1"",""3873""
","
",,null,run_exp/static/images/task_images/gems/26.jpg,null,,,,,,,3,,,1,,,,,26,0.119068919,0.115384615,,,,,,,
decision,64,427151,0.0-24.0-2.0,"""event"",""trial"",""time""
""fullscreenenter"",""1"",""3873""
","
","
","""event"",""trial"",""time""
""fullscreenenter"",""1"",""3873""
","
",,1436.5,run_exp/static/images/task_images/land.jpg,65,,,,,,,3,,,1,,,,,,,,14627,1,1,FALSE,,,
dig,65,428726,0.0-25.0-0.0,"""event"",""trial"",""time""
""fullscreenenter"",""1"",""3873""
","
","
","""event"",""trial"",""time""
""fullscreenenter"",""1"",""3873""
","
",,,,,,,,,,,,"[{""stimulus"":""run_exp/static/images/task_images/dig.jpg"",""time"":0.9000000000232831},{""stimulus"":""run_exp/static/images/task_images/land.jpg"",""time"":526.6999999999534},{""stimulus"":""run_exp/static/images/task_images/dig.jpg"",""time"":1046.8000000000466}]",[],1,,,,,,,,,,,,,,
harvest,66,429734,0.0-25.0-1.0,"""event"",""trial"",""time""
""fullscreenenter"",""1"",""3873""
","
","
","""event"",""trial"",""time""
""fullscreenenter"",""1"",""3873""
","
",,null,run_exp/static/images/task_images/gems/3.jpg,null,,,,,,,0,,,1,,,,,3,0.152057244,0,,,,,,,
decision,67,431010,0.0-25.0-2.0,"""event"",""trial"",""time""
""fullscreenenter"",""1"",""3873""
","
","
","""event"",""trial"",""time""
""fullscreenenter"",""1"",""3873""
","
",,1272,run_exp/static/images/task_images/land.jpg,76,,,,,,,0,,,1,,,,,,,,18487,1,2,TRUE,,,
travel,68,439750,0.0-26.0-0.0,"""event"",""trial"",""time""
""fullscreenenter"",""1"",""3873""
","
","
","""event"",""trial"",""time""
""fullscreenenter"",""1"",""3873""
","
",,,,,,,,,,,,"[{""stimulus"":""run_exp/static/images/task_images/rocket-01.jpg"",""time"":0.9000000000232831},{""stimulus"":""run_exp/static/images/task_images/rocket-02.jpg"",""time"":979.3000000000466},{""stimulus"":""run_exp/static/images/task_images/rocket-03.jpg"",""time"":1947.3000000000466},{""stimulus"":""run_exp/static/images/task_images/rocket-04.jpg"",""time"":2915.4000000000233},{""stimulus"":""run_exp/static/images/task_images/rocket-05.jpg"",""time"":3883.8000000000466},{""stimulus"":""run_exp/static/images/task_images/rocket-06.jpg"",""time"":4851.300000000047},{""stimulus"":""run_exp/static/images/task_images/rocket-07.jpg"",""time"":5819.5},{""stimulus"":""run_exp/static/images/task_images/rocket-08.jpg"",""time"":6787.599999999977},{""stimulus"":""run_exp/static/images/task_images/rocket-09.jpg"",""time"":7755.599999999977}]",[],1,,,,,,,,,,,,,,
alien_welcome,69,444758,0.0-26.0-1.0,"""event"",""trial"",""time""
""fullscreenenter"",""1"",""3873""
","
","
","""event"",""trial"",""time""
""fullscreenenter"",""1"",""3873""
","
",,null,run_exp/static/images/task_images/aliens/old_aliens/planet/alien_planet-58.jpg,null,,,,,,,,,,,,,58,"64,58,74,27,34,35,1,5,62,29,26,61,78,28,65,80,60,39,8,6,55,63,41,49,32,7,77,37,73,54,52,22,53,76,12,71,48",,,,,,,,,,
land,70,445270,0.0-26.0-2.0,"""event"",""trial"",""time""
""fullscreenenter"",""1"",""3873""
","
","
","""event"",""trial"",""time""
""fullscreenenter"",""1"",""3873""
","
",,null,run_exp/static/images/task_images/land.jpg,null,,,,,,,102,,,2,,,,,,,,,,,,,,
dig,71,447286,0.0-26.0-3.0,"""event"",""trial"",""time""
""fullscreenenter"",""1"",""3873""
","
","
","""event"",""trial"",""time""
""fullscreenenter"",""1"",""3873""
","
",,,,,,,,,,,,"[{""stimulus"":""run_exp/static/images/task_images/dig.jpg"",""time"":1.1999999999534339},{""stimulus"":""run_exp/static/images/task_images/land.jpg"",""time"":675.5999999999767},{""stimulus"":""run_exp/static/images/task_images/dig.jpg"",""time"":1339.5}]",[],2,,,,,,,,,,,,,,
harvest,72,448597,0.0-26.0-4.0,"""event"",""trial"",""time""
""fullscreenenter"",""1"",""3873""
","
","
","""event"",""trial"",""time""
""fullscreenenter"",""1"",""3873""
","
",,null,run_exp/static/images/task_images/gems/102.jpg,null,,,,,,,21,,,2,,,,,102,0.205525984,0.205882353,,,,,,,
decision,73,450240,0.0-26.0-5.0,"""event"",""trial"",""time""
""fullscreenenter"",""1"",""3873""
","
","
","""event"",""trial"",""time""
""fullscreenenter"",""1"",""3873""
","
",,1637.6,run_exp/static/images/task_images/land.jpg,65,,,,,,,21,,,2,,,,,,,,37716,1,0,FALSE,,,
dig,74,451622,0.0-27.0-0.0,"""event"",""trial"",""time""
""fullscreenenter"",""1"",""3873""
","
","
","""event"",""trial"",""time""
""fullscreenenter"",""1"",""3873""
","
",,,,,,,,,,,,"[{""stimulus"":""run_exp/static/images/task_images/dig.jpg"",""time"":0.8000000000465661},{""stimulus"":""run_exp/static/images/task_images/land.jpg"",""time"":461.5999999999767},{""stimulus"":""run_exp/static/images/task_images/dig.jpg"",""time"":917.8000000000466}]",[],2,,,,,,,,,,,,,,
harvest,75,452630,0.0-27.0-1.0,"""event"",""trial"",""time""
""fullscreenenter"",""1"",""3873""
","
","
","""event"",""trial"",""time""
""fullscreenenter"",""1"",""3873""
","
",,null,run_exp/static/images/task_images/gems/21.jpg,null,,,,,,,4,,,2,,,,,21,0.192329234,0.19047619,,,,,,,
decision,76,455122,0.0-27.0-2.0,"""event"",""trial"",""time""
""fullscreenenter"",""1"",""3873""
","
","
","""event"",""trial"",""time""
""fullscreenenter"",""1"",""3873""
","
",,2489.2,run_exp/static/images/task_images/land.jpg,65,,,,,,,4,,,2,,,,,,,,42598,1,1,FALSE,,,
dig,77,455646,0.0-28.0-0.0,"""event"",""trial"",""time""
""fullscreenenter"",""1"",""3873""
","
","
","""event"",""trial"",""time""
""fullscreenenter"",""1"",""3873""
","
",,,,,,,,,,,,"[{""stimulus"":""run_exp/static/images/task_images/dig.jpg"",""time"":0.9000000000232831},{""stimulus"":""run_exp/static/images/task_images/land.jpg"",""time"":179.90000000002328},{""stimulus"":""run_exp/static/images/task_images/dig.jpg"",""time"":347.4000000000233}]",[],2,,,,,,,,,,,,,,
harvest,78,456654,0.0-28.0-1.0,"""event"",""trial"",""time""
""fullscreenenter"",""1"",""3873""
","
","
","""event"",""trial"",""time""
""fullscreenenter"",""1"",""3873""
","
",,null,run_exp/static/images/task_images/gems/4.jpg,null,,,,,,,1,,,2,,,,,4,0.298940373,0.25,,,,,,,
decision,79,459327,0.0-28.0-2.0,"""event"",""trial"",""time""
""fullscreenenter"",""1"",""3873""
","
","
","""event"",""trial"",""time""
""fullscreenenter"",""1"",""3873""
","
",,2670.5,run_exp/static/images/task_images/land.jpg,65,,,,,,,1,,,2,,,,,,,,46804,1,2,FALSE,,,
dig,80,459678,0.0-29.0-0.0,"""event"",""trial"",""time""
""fullscreenenter"",""1"",""3873""
","
","
","""event"",""trial"",""time""
""fullscreenenter"",""1"",""3873""
","
",,,,,,,,,,,,"[{""stimulus"":""run_exp/static/images/task_images/dig.jpg"",""time"":1.1999999999534339},{""stimulus"":""run_exp/static/images/task_images/land.jpg"",""time"":114.19999999995343},{""stimulus"":""run_exp/static/images/task_images/dig.jpg"",""time"":226}]",[],2,,,,,,,,,,,,,,
harvest,81,460686,0.0-29.0-1.0,"""event"",""trial"",""time""
""fullscreenenter"",""1"",""3873""
","
","
","""event"",""trial"",""time""
""fullscreenenter"",""1"",""3873""
","
",,null,run_exp/static/images/task_images/gems/1.jpg,null,,,,,,,0,,,2,,,,,1,0.173489132,0,,,,,,,
decision,82,463694,0.0-29.0-2.0,"""event"",""trial"",""time""
""fullscreenenter"",""1"",""3873""
","
","
","""event"",""trial"",""time""
""fullscreenenter"",""1"",""3873""
","
",,null,run_exp/static/images/task_images/land.jpg,null,,,,,,,0,,,2,,,,,,,,51170,1,3,FALSE,,,
time_out,83,465710,0.0-30.0-0.0,"""event"",""trial"",""time""
""fullscreenenter"",""1"",""3873""
","
","
","""event"",""trial"",""time""
""fullscreenenter"",""1"",""3873""
","
",,null,run_exp/static/images/task_images/time_out.jpg,null,,,,,,,0,,,,,,,,,,,,,,,,,
decision,84,466141,0.0-30.0-1.0,"""event"",""trial"",""time""
""fullscreenenter"",""1"",""3873""
","
","
","""event"",""trial"",""time""
""fullscreenenter"",""1"",""3873""
","
",,426.8,run_exp/static/images/task_images/land.jpg,65,,,,,,,0,,,2,,,,,,,,53617,1,3,FALSE,,,
dig,85,468725,0.0-31.0-0.0,"""event"",""trial"",""time""
""fullscreenenter"",""1"",""3873""
","
","
","""event"",""trial"",""time""
""fullscreenenter"",""1"",""3873""
","
",,,,,,,,,,,,"[{""stimulus"":""run_exp/static/images/task_images/dig.jpg"",""time"":0.9000000000232831},{""stimulus"":""run_exp/static/images/task_images/land.jpg"",""time"":864.3000000000466},{""stimulus"":""run_exp/static/images/task_images/dig.jpg"",""time"":1725.8000000000466}]",[],2,,,,,,,,,,,,,,
harvest,86,469734,0.0-31.0-1.0,"""event"",""trial"",""time""
""fullscreenenter"",""1"",""3873""
","
","
","""event"",""trial"",""time""
""fullscreenenter"",""1"",""3873""
","
",,null,run_exp/static/images/task_images/gems/0.jpg,null,,,,,,,0,,,2,,,,,0,0.166210033,NaN,,,,,,,
decision,87,471002,0.0-31.0-2.0,"""event"",""trial"",""time""
""fullscreenenter"",""1"",""3873""
","
","
","""event"",""trial"",""time""
""fullscreenenter"",""1"",""3873""
","
",,1263.2,run_exp/static/images/task_images/land.jpg,76,,,,,,,0,,,2,,,,,,,,58478,1,4,TRUE,,,
travel,88,479750,0.0-32.0-0.0,"""event"",""trial"",""time""
""fullscreenenter"",""1"",""3873""
","
","
","""event"",""trial"",""time""
""fullscreenenter"",""1"",""3873""
","
",,,,,,,,,,,,"[{""stimulus"":""run_exp/static/images/task_images/rocket-01.jpg"",""time"":0.9000000000232831},{""stimulus"":""run_exp/static/images/task_images/rocket-02.jpg"",""time"":991.6999999999534},{""stimulus"":""run_exp/static/images/task_images/rocket-03.jpg"",""time"":1947.9000000000233},{""stimulus"":""run_exp/static/images/task_images/rocket-04.jpg"",""time"":2915.9000000000233},{""stimulus"":""run_exp/static/images/task_images/rocket-05.jpg"",""time"":3884},{""stimulus"":""run_exp/static/images/task_images/rocket-06.jpg"",""time"":4860},{""stimulus"":""run_exp/static/images/task_images/rocket-07.jpg"",""time"":5827.800000000047},{""stimulus"":""run_exp/static/images/task_images/rocket-08.jpg"",""time"":6795.900000000023},{""stimulus"":""run_exp/static/images/task_images/rocket-09.jpg"",""time"":7763.900000000023}]",[],2,,,,,,,,,,,,,,
alien_welcome,89,484759,0.0-32.0-1.0,"""event"",""trial"",""time""
""fullscreenenter"",""1"",""3873""
","
","
","""event"",""trial"",""time""
""fullscreenenter"",""1"",""3873""
","
",,null,run_exp/static/images/task_images/aliens/old_aliens/planet/alien_planet-74.jpg,null,,,,,,,,,,,,,74,"64,58,74,27,34,35,1,5,62,29,26,61,78,28,65,80,60,39,8,6,55,63,41,49,32,7,77,37,73,54,52,22,53,76,12,71,48",,,,,,,,,,
land,90,485270,0.0-32.0-2.0,"""event"",""trial"",""time""
""fullscreenenter"",""1"",""3873""
","
","
","""event"",""trial"",""time""
""fullscreenenter"",""1"",""3873""
","
",,null,run_exp/static/images/task_images/land.jpg,null,,,,,,,100,,,3,,,,,,,,,,,,,,
dig,91,487286,0.0-32.0-3.0,"""event"",""trial"",""time""
""fullscreenenter"",""1"",""3873""
","
","
","""event"",""trial"",""time""
""fullscreenenter"",""1"",""3873""
","
",,,,,,,,,,,,"[{""stimulus"":""run_exp/static/images/task_images/dig.jpg"",""time"":1.1999999999534339},{""stimulus"":""run_exp/static/images/task_images/land.jpg"",""time"":675.8000000000466},{""stimulus"":""run_exp/static/images/task_images/dig.jpg"",""time"":1339.6999999999534}]",[],3,,,,,,,,,,,,,,
harvest,92,488294,0.0-32.0-4.0,"""event"",""trial"",""time""
""fullscreenenter"",""1"",""3873""
","
","
","""event"",""trial"",""time""
""fullscreenenter"",""1"",""3873""
","
",,null,run_exp/static/images/task_images/gems/100.jpg,null,,,,,,,53,,,3,,,,,100,0.532470145,0.53,,,,,,,
decision,93,489501,0.0-32.0-5.0,"""event"",""trial"",""time""
""fullscreenenter"",""1"",""3873""
","
","
","""event"",""trial"",""time""
""fullscreenenter"",""1"",""3873""
","
",,1188.3,run_exp/static/images/task_images/land.jpg,65,,,,,,,53,,,3,,,,,,,,76978,1,0,FALSE,,,
dig,94,491326,0.0-33.0-0.0,"""event"",""trial"",""time""
""fullscreenenter"",""1"",""3873""
","
","
","""event"",""trial"",""time""
""fullscreenenter"",""1"",""3873""
","
",,,,,,,,,,,,"[{""stimulus"":""run_exp/static/images/task_images/dig.jpg"",""time"":0.8000000000465661},{""stimulus"":""run_exp/static/images/task_images/land.jpg"",""time"":608.3000000000466},{""stimulus"":""run_exp/static/images/task_images/dig.jpg"",""time"":1216.5}]",[],3,,,,,,,,,,,,,,
harvest,95,492597,0.0-33.0-1.0,"""event"",""trial"",""time""
""fullscreenenter"",""1"",""3873""
","
","
","""event"",""trial"",""time""
""fullscreenenter"",""1"",""3873""
","
",,null,run_exp/static/images/task_images/gems/53.jpg,null,,,,,,,25,,,3,,,,,53,0.467247589,0.471698113,,,,,,,
decision,96,493672,0.0-33.0-2.0,"""event"",""trial"",""time""
""fullscreenenter"",""1"",""3873""
","
","
","""event"",""trial"",""time""
""fullscreenenter"",""1"",""3873""
","
",,1071.3,run_exp/static/images/task_images/land.jpg,65,,,,,,,25,,,3,,,,,,,,81148,1,1,FALSE,,,
dig,97,495614,0.0-34.0-0.0,"""event"",""trial"",""time""
""fullscreenenter"",""1"",""3873""
","
","
","""event"",""trial"",""time""
""fullscreenenter"",""1"",""3873""
","
",,,,,,,,,,,,"[{""stimulus"":""run_exp/static/images/task_images/dig.jpg"",""time"":1},{""stimulus"":""run_exp/static/images/task_images/land.jpg"",""time"":654},{""stimulus"":""run_exp/static/images/task_images/dig.jpg"",""time"":1294.3000000000466}]",[],3,,,,,,,,,,,,,,
harvest,98,496875,0.0-34.0-1.0,"""event"",""trial"",""time""
""fullscreenenter"",""1"",""3873""
","
","
","""event"",""trial"",""time""
""fullscreenenter"",""1"",""3873""
","
",,null,run_exp/static/images/task_images/gems/25.jpg,null,,,,,,,13,,,3,,,,,25,0.50548352,0.52,,,,,,,
decision,99,497655,0.0-34.0-2.0,"""event"",""trial"",""time""
""fullscreenenter"",""1"",""3873""
","
","
","""event"",""trial"",""time""
""fullscreenenter"",""1"",""3873""
","
",,775.3,run_exp/static/images/task_images/land.jpg,65,,,,,,,13,,,3,,,,,,,,85132,1,2,FALSE,,,
dig,100,499894,0.0-35.0-0.0,"""event"",""trial"",""time""
""fullscreenenter"",""1"",""3873""
","
","
","""event"",""trial"",""time""
""fullscreenenter"",""1"",""3873""
","
",,,,,,,,,,,,"[{""stimulus"":""run_exp/static/images/task_images/dig.jpg"",""time"":0.9000000000232831},{""stimulus"":""run_exp/static/images/task_images/land.jpg"",""time"":751.7999999999302},{""stimulus"":""run_exp/static/images/task_images/dig.jpg"",""time"":1487.9000000000233}]",[],3,,,,,,,,,,,,,,
harvest,101,500902,0.0-35.0-1.0,"""event"",""trial"",""time""
""fullscreenenter"",""1"",""3873""
","
","
","""event"",""trial"",""time""
""fullscreenenter"",""1"",""3873""
","
",,null,run_exp/static/images/task_images/gems/13.jpg,null,,,,,,,6,,,3,,,,,13,0.43120417,0.461538462,,,,,,,
decision,102,501838,0.0-35.0-2.0,"""event"",""trial"",""time""
""fullscreenenter"",""1"",""3873""
","
","
","""event"",""trial"",""time""
""fullscreenenter"",""1"",""3873""
","
",,931.2,run_exp/static/images/task_images/land.jpg,65,,,,,,,6,,,3,,,,,,,,89314,1,3,FALSE,,,
dig,103,503926,0.0-36.0-0.0,"""event"",""trial"",""time""
""fullscreenenter"",""1"",""3873""
","
","
","""event"",""trial"",""time""
""fullscreenenter"",""1"",""3873""
","
",,,,,,,,,,,,"[{""stimulus"":""run_exp/static/images/task_images/dig.jpg"",""time"":1.1000000000931323},{""stimulus"":""run_exp/static/images/task_images/land.jpg"",""time"":700.1000000000931},{""stimulus"":""run_exp/static/images/task_images/dig.jpg"",""time"":1388}]",[],3,,,,,,,,,,,,,,
harvest,104,504934,0.0-36.0-1.0,"""event"",""trial"",""time""
""fullscreenenter"",""1"",""3873""
","
","
","""event"",""trial"",""time""
""fullscreenenter"",""1"",""3873""
","
",,null,run_exp/static/images/task_images/gems/6.jpg,null,,,,,,,3,,,3,,,,,6,0.497284515,0.5,,,,,,,
decision,105,505904,0.0-36.0-2.0,"""event"",""trial"",""time""
""fullscreenenter"",""1"",""3873""
","
","
","""event"",""trial"",""time""
""fullscreenenter"",""1"",""3873""
","
",,967.5,run_exp/static/images/task_images/land.jpg,65,,,,,,,3,,,3,,,,,,,,93380,1,4,FALSE,,,
dig,106,507958,0.0-37.0-0.0,"""event"",""trial"",""time""
""fullscreenenter"",""1"",""3873""
","
","
","""event"",""trial"",""time""
""fullscreenenter"",""1"",""3873""
","
",,,,,,,,,,,,"[{""stimulus"":""run_exp/static/images/task_images/dig.jpg"",""time"":1.099999999976717},{""stimulus"":""run_exp/static/images/task_images/land.jpg"",""time"":682.5},{""stimulus"":""run_exp/static/images/task_images/dig.jpg"",""time"":1362.3999999999069}]",[],3,,,,,,,,,,,,,,
harvest,107,509271,0.0-37.0-1.0,"""event"",""trial"",""time""
""fullscreenenter"",""1"",""3873""
","
","
","""event"",""trial"",""time""
""fullscreenenter"",""1"",""3873""
","
",,null,run_exp/static/images/task_images/gems/3.jpg,null,,,,,,,1,,,3,,,,,3,0.487799855,0.333333333,,,,,,,
decision,108,509981,0.0-37.0-2.0,"""event"",""trial"",""time""
""fullscreenenter"",""1"",""3873""
","
","
","""event"",""trial"",""time""
""fullscreenenter"",""1"",""3873""
","
",,703.7,run_exp/static/images/task_images/land.jpg,76,,,,,,,1,,,3,,,,,,,,97457,1,5,TRUE,,,
travel,109,519286,0.0-38.0-0.0,"""event"",""trial"",""time""
""fullscreenenter"",""1"",""3873""
","
","
","""event"",""trial"",""time""
""fullscreenenter"",""1"",""3873""
","
",,,,,,,,,,,,"[{""stimulus"":""run_exp/static/images/task_images/rocket-01.jpg"",""time"":0.9000000000232831},{""stimulus"":""run_exp/static/images/task_images/rocket-02.jpg"",""time"":1041.1000000000931},{""stimulus"":""run_exp/static/images/task_images/rocket-03.jpg"",""time"":2072.70000000007},{""stimulus"":""run_exp/static/images/task_images/rocket-04.jpg"",""time"":3105.4000000000233},{""stimulus"":""run_exp/static/images/task_images/rocket-05.jpg"",""time"":4137.100000000093},{""stimulus"":""run_exp/static/images/task_images/rocket-06.jpg"",""time"":5169.400000000023},{""stimulus"":""run_exp/static/images/task_images/rocket-07.jpg"",""time"":6201},{""stimulus"":""run_exp/static/images/task_images/rocket-08.jpg"",""time"":7233.400000000023},{""stimulus"":""run_exp/static/images/task_images/rocket-09.jpg"",""time"":8265.900000000023}]",[],3,,,,,,,,,,,,,,
alien_welcome,110,524294,0.0-38.0-1.0,"""event"",""trial"",""time""
""fullscreenenter"",""1"",""3873""
","
","
","""event"",""trial"",""time""
""fullscreenenter"",""1"",""3873""
","
",,null,run_exp/static/images/task_images/aliens/old_aliens/planet/alien_planet-27.jpg,null,,,,,,,,,,,,,27,"64,58,74,27,34,35,1,5,62,29,26,61,78,28,65,80,60,39,8,6,55,63,41,49,32,7,77,37,73,54,52,22,53,76,12,71,48",,,,,,,,,,
land,111,524806,0.0-38.0-2.0,"""event"",""trial"",""time""
""fullscreenenter"",""1"",""3873""
","
","
","""event"",""trial"",""time""
""fullscreenenter"",""1"",""3873""
","
",,null,run_exp/static/images/task_images/land.jpg,null,,,,,,,95,,,4,,,,,,,,,,,,,,
dig,112,526822,0.0-38.0-3.0,"""event"",""trial"",""time""
""fullscreenenter"",""1"",""3873""
","
","
","""event"",""trial"",""time""
""fullscreenenter"",""1"",""3873""
","
",,,,,,,,,,,,"[{""stimulus"":""run_exp/static/images/task_images/dig.jpg"",""time"":1.2000000000698492},{""stimulus"":""run_exp/static/images/task_images/land.jpg"",""time"":675.5999999999767},{""stimulus"":""run_exp/static/images/task_images/dig.jpg"",""time"":1338.2000000000698}]",[],4,,,,,,,,,,,,,,
harvest,113,527829,0.0-38.0-4.0,"""event"",""trial"",""time""
""fullscreenenter"",""1"",""3873""
","
","
","""event"",""trial"",""time""
""fullscreenenter"",""1"",""3873""
","
",,null,run_exp/static/images/task_images/gems/95.jpg,null,,,,,,,48,,,4,,,,,95,0.502771429,0.505263158,,,,,,,
decision,114,528724,0.0-38.0-5.0,"""event"",""trial"",""time""
""fullscreenenter"",""1"",""3873""
","
","
","""event"",""trial"",""time""
""fullscreenenter"",""1"",""3873""
","
",,891.5,run_exp/static/images/task_images/land.jpg,65,,,,,,,48,,,4,,,,,,,,116201,1,0,FALSE,,,
dig,115,530854,0.0-39.0-0.0,"""event"",""trial"",""time""
""fullscreenenter"",""1"",""3873""
","
","
","""event"",""trial"",""time""
""fullscreenenter"",""1"",""3873""
","
",,,,,,,,,,,,"[{""stimulus"":""run_exp/static/images/task_images/dig.jpg"",""time"":1.1999999999534339},{""stimulus"":""run_exp/static/images/task_images/land.jpg"",""time"":709.1999999999534},{""stimulus"":""run_exp/static/images/task_images/dig.jpg"",""time"":1407.6999999999534}]",[],4,,,,,,,,,,,,,,
harvest,116,531862,0.0-39.0-1.0,"""event"",""trial"",""time""
""fullscreenenter"",""1"",""3873""
","
","
","""event"",""trial"",""time""
""fullscreenenter"",""1"",""3873""
","
",,null,run_exp/static/images/task_images/gems/48.jpg,null,,,,,,,19,,,4,,,,,48,0.40494764,0.395833333,,,,,,,
decision,117,532491,0.0-39.0-2.0,"""event"",""trial"",""time""
""fullscreenenter"",""1"",""3873""
","
","
","""event"",""trial"",""time""
""fullscreenenter"",""1"",""3873""
","
",,626.6,run_exp/static/images/task_images/land.jpg,65,,,,,,,19,,,4,,,,,,,,119968,1,1,FALSE,,,
dig,118,534886,0.0-40.0-0.0,"""event"",""trial"",""time""
""fullscreenenter"",""1"",""3873""
","
","
","""event"",""trial"",""time""
""fullscreenenter"",""1"",""3873""
","
",,,,,,,,,,,,"[{""stimulus"":""run_exp/static/images/task_images/dig.jpg"",""time"":1},{""stimulus"":""run_exp/static/images/task_images/land.jpg"",""time"":799.0999999999767},{""stimulus"":""run_exp/static/images/task_images/dig.jpg"",""time"":1590.7999999999302}]",[],4,,,,,,,,,,,,,,
harvest,119,535894,0.0-40.0-1.0,"""event"",""trial"",""time""
""fullscreenenter"",""1"",""3873""
","
","
","""event"",""trial"",""time""
""fullscreenenter"",""1"",""3873""
","
",,null,run_exp/static/images/task_images/gems/19.jpg,null,,,,,,,9,,,4,,,,,19,0.498695978,0.473684211,,,,,,,
decision,120,536501,0.0-40.0-2.0,"""event"",""trial"",""time""
""fullscreenenter"",""1"",""3873""
","
","
","""event"",""trial"",""time""
""fullscreenenter"",""1"",""3873""
","
",,601.5,run_exp/static/images/task_images/land.jpg,65,,,,,,,9,,,4,,,,,,,,123977,1,2,FALSE,,,
dig,121,538910,0.0-41.0-0.0,"""event"",""trial"",""time""
""fullscreenenter"",""1"",""3873""
","
","
","""event"",""trial"",""time""
""fullscreenenter"",""1"",""3873""
","
",,,,,,,,,,,,"[{""stimulus"":""run_exp/static/images/task_images/dig.jpg"",""time"":0.7999999999301508},{""stimulus"":""run_exp/static/images/task_images/land.jpg"",""time"":809.5},{""stimulus"":""run_exp/static/images/task_images/dig.jpg"",""time"":1609}]",[],4,,,,,,,,,,,,,,
harvest,122,539918,0.0-41.0-1.0,"""event"",""trial"",""time""
""fullscreenenter"",""1"",""3873""
","
","
","""event"",""trial"",""time""
""fullscreenenter"",""1"",""3873""
","
",,null,run_exp/static/images/task_images/gems/9.jpg,null,,,,,,,5,,,4,,,,,9,0.506355161,0.555555556,,,,,,,
decision,123,540773,0.0-41.0-2.0,"""event"",""trial"",""time""
""fullscreenenter"",""1"",""3873""
","
","
","""event"",""trial"",""time""
""fullscreenenter"",""1"",""3873""
","
",,850.3,run_exp/static/images/task_images/land.jpg,65,,,,,,,5,,,4,,,,,,,,128249,1,3,FALSE,,,
dig,124,542934,0.0-42.0-0.0,"""event"",""trial"",""time""
""fullscreenenter"",""1"",""3873""
","
","
","""event"",""trial"",""time""
""fullscreenenter"",""1"",""3873""
","
",,,,,,,,,,,,"[{""stimulus"":""run_exp/static/images/task_images/dig.jpg"",""time"":1},{""stimulus"":""run_exp/static/images/task_images/land.jpg"",""time"":720.6000000000931},{""stimulus"":""run_exp/static/images/task_images/dig.jpg"",""time"":1440.2000000000698}]",[],4,,,,,,,,,,,,,,
harvest,125,543942,0.0-42.0-1.0,"""event"",""trial"",""time""
""fullscreenenter"",""1"",""3873""
","
","
","""event"",""trial"",""time""
""fullscreenenter"",""1"",""3873""
","
",,null,run_exp/static/images/task_images/gems/5.jpg,null,,,,,,,3,,,4,,,,,5,0.523031982,0.6,,,,,,,
decision,126,544748,0.0-42.0-2.0,"""event"",""trial"",""time""
""fullscreenenter"",""1"",""3873""
","
","
","""event"",""trial"",""time""
""fullscreenenter"",""1"",""3873""
","
",,803.9,run_exp/static/images/task_images/land.jpg,76,,,,,,,3,,,4,,,,,,,,132225,1,4,TRUE,,,
travel,127,553950,0.0-43.0-0.0,"""event"",""trial"",""time""
""fullscreenenter"",""1"",""3873""
","
","
","""event"",""trial"",""time""
""fullscreenenter"",""1"",""3873""
","
",,,,,,,,,,,,"[{""stimulus"":""run_exp/static/images/task_images/rocket-01.jpg"",""time"":0.7000000000698492},{""stimulus"":""run_exp/static/images/task_images/rocket-02.jpg"",""time"":1025.3000000000466},{""stimulus"":""run_exp/static/images/task_images/rocket-03.jpg"",""time"":2045.2000000000698},{""stimulus"":""run_exp/static/images/task_images/rocket-04.jpg"",""time"":3073.100000000093},{""stimulus"":""run_exp/static/images/task_images/rocket-05.jpg"",""time"":4088.5},{""stimulus"":""run_exp/static/images/task_images/rocket-06.jpg"",""time"":5112.900000000023},{""stimulus"":""run_exp/static/images/task_images/rocket-07.jpg"",""time"":6136.70000000007},{""stimulus"":""run_exp/static/images/task_images/rocket-08.jpg"",""time"":7152.800000000047},{""stimulus"":""run_exp/static/images/task_images/rocket-09.jpg"",""time"":8176.70000000007}]",[],4,,,,,,,,,,,,,,
alien_welcome,128,558958,0.0-43.0-1.0,"""event"",""trial"",""time""
""fullscreenenter"",""1"",""3873""
","
","
","""event"",""trial"",""time""
""fullscreenenter"",""1"",""3873""
","
",,null,run_exp/static/images/task_images/aliens/old_aliens/planet/alien_planet-34.jpg,null,,,,,,,,,,,,,34,"64,58,74,27,34,35,1,5,62,29,26,61,78,28,65,80,60,39,8,6,55,63,41,49,32,7,77,37,73,54,52,22,53,76,12,71,48",,,,,,,,,,
land,129,559470,0.0-43.0-2.0,"""event"",""trial"",""time""
""fullscreenenter"",""1"",""3873""
","
","
","""event"",""trial"",""time""
""fullscreenenter"",""1"",""3873""
","
",,null,run_exp/static/images/task_images/land.jpg,null,,,,,,,104,,,5,,,,,,,,,,,,,,
dig,130,561486,0.0-43.0-3.0,"""event"",""trial"",""time""
""fullscreenenter"",""1"",""3873""
","
","
","""event"",""trial"",""time""
""fullscreenenter"",""1"",""3873""
","
",,,,,,,,,,,,"[{""stimulus"":""run_exp/static/images/task_images/dig.jpg"",""time"":1.099999999976717},{""stimulus"":""run_exp/static/images/task_images/land.jpg"",""time"":676.6000000000931},{""stimulus"":""run_exp/static/images/task_images/dig.jpg"",""time"":1340.5}]",[],5,,,,,,,,,,,,,,
harvest,131,562769,0.0-43.0-4.0,"""event"",""trial"",""time""
""fullscreenenter"",""1"",""3873""
","
","
","""event"",""trial"",""time""
""fullscreenenter"",""1"",""3873""
","
",,null,run_exp/static/images/task_images/gems/104.jpg,null,,,,,,,58,,,5,,,,,104,0.561135248,0.557692308,,,,,,,
decision,132,563361,0.0-43.0-5.0,"""event"",""trial"",""time""
""fullscreenenter"",""1"",""3873""
","
","
","""event"",""trial"",""time""
""fullscreenenter"",""1"",""3873""
","
",,586.5,run_exp/static/images/task_images/land.jpg,65,,,,,,,58,,,5,,,,,,,,150837,1,0,FALSE,,,
dig,133,565798,0.0-44.0-0.0,"""event"",""trial"",""time""
""fullscreenenter"",""1"",""3873""
","
","
","""event"",""trial"",""time""
""fullscreenenter"",""1"",""3873""
","
",,,,,,,,,,,,"[{""stimulus"":""run_exp/static/images/task_images/dig.jpg"",""time"":1.3000000000465661},{""stimulus"":""run_exp/static/images/task_images/land.jpg"",""time"":808.5},{""stimulus"":""run_exp/static/images/task_images/dig.jpg"",""time"":1615.8000000000466}]",[],5,,,,,,,,,,,,,,
harvest,134,566806,0.0-44.0-1.0,"""event"",""trial"",""time""
""fullscreenenter"",""1"",""3873""
","
","
","""event"",""trial"",""time""
""fullscreenenter"",""1"",""3873""
","
",,null,run_exp/static/images/task_images/gems/58.jpg,null,,,,,,,32,,,5,,,,,58,0.557548065,0.551724138,,,,,,,
decision,135,567696,0.0-44.0-2.0,"""event"",""trial"",""time""
""fullscreenenter"",""1"",""3873""
","
","
","""event"",""trial"",""time""
""fullscreenenter"",""1"",""3873""
","
",,884.8,run_exp/static/images/task_images/land.jpg,65,,,,,,,32,,,5,,,,,,,,155172,1,1,FALSE,,,
dig,136,569830,0.0-45.0-0.0,"""event"",""trial"",""time""
""fullscreenenter"",""1"",""3873""
","
","
","""event"",""trial"",""time""
""fullscreenenter"",""1"",""3873""
","
",,,,,,,,,,,,"[{""stimulus"":""run_exp/static/images/task_images/dig.jpg"",""time"":0.8999999999068677},{""stimulus"":""run_exp/static/images/task_images/land.jpg"",""time"":710.1999999999534},{""stimulus"":""run_exp/static/images/task_images/dig.jpg"",""time"":1421.6999999999534}]",[],5,,,,,,,,,,,,,,
harvest,137,571125,0.0-45.0-1.0,"""event"",""trial"",""time""
""fullscreenenter"",""1"",""3873""
","
","
","""event"",""trial"",""time""
""fullscreenenter"",""1"",""3873""
","
",,null,run_exp/static/images/task_images/gems/32.jpg,null,,,,,,,16,,,5,,,,,32,0.510056974,0.5,,,,,,,
decision,138,571773,0.0-45.0-2.0,"""event"",""trial"",""time""
""fullscreenenter"",""1"",""3873""
","
","
","""event"",""trial"",""time""
""fullscreenenter"",""1"",""3873""
","
",,644,run_exp/static/images/task_images/land.jpg,65,,,,,,,16,,,5,,,,,,,,159249,1,2,FALSE,,,
dig,139,574142,0.0-46.0-0.0,"""event"",""trial"",""time""
""fullscreenenter"",""1"",""3873""
","
","
","""event"",""trial"",""time""
""fullscreenenter"",""1"",""3873""
","
",,,,,,,,,,,,"[{""stimulus"":""run_exp/static/images/task_images/dig.jpg"",""time"":0.8000000000465661},{""stimulus"":""run_exp/static/images/task_images/land.jpg"",""time"":792.4000000001397},{""stimulus"":""run_exp/static/images/task_images/dig.jpg"",""time"":1577.1000000000931}]",[],5,,,,,,,,,,,,,,
harvest,140,575150,0.0-46.0-1.0,"""event"",""trial"",""time""
""fullscreenenter"",""1"",""3873""
","
","
","""event"",""trial"",""time""
""fullscreenenter"",""1"",""3873""
","
",,null,run_exp/static/images/task_images/gems/16.jpg,null,,,,,,,8,,,5,,,,,16,0.493061769,0.5,,,,,,,
decision,141,576290,0.0-46.0-2.0,"""event"",""trial"",""time""
""fullscreenenter"",""1"",""3873""
","
","
","""event"",""trial"",""time""
""fullscreenenter"",""1"",""3873""
","
",,1134.9,run_exp/static/images/task_images/land.jpg,65,,,,,,,8,,,5,,,,,,,,163766,1,3,FALSE,,,
dig,142,578166,0.0-47.0-0.0,"""event"",""trial"",""time""
""fullscreenenter"",""1"",""3873""
","
","
","""event"",""trial"",""time""
""fullscreenenter"",""1"",""3873""
","
",,,,,,,,,,,,"[{""stimulus"":""run_exp/static/images/task_images/dig.jpg"",""time"":1},{""stimulus"":""run_exp/static/images/task_images/land.jpg"",""time"":627.5},{""stimulus"":""run_exp/static/images/task_images/dig.jpg"",""time"":1251.6999999999534}]",[],5,,,,,,,,,,,,,,
harvest,143,579174,0.0-47.0-1.0,"""event"",""trial"",""time""
""fullscreenenter"",""1"",""3873""
","
","
","""event"",""trial"",""time""
""fullscreenenter"",""1"",""3873""
","
",,null,run_exp/static/images/task_images/gems/8.jpg,null,,,,,,,4,,,5,,,,,8,0.526762414,0.5,,,,,,,
decision,144,580209,0.0-47.0-2.0,"""event"",""trial"",""time""
""fullscreenenter"",""1"",""3873""
","
","
","""event"",""trial"",""time""
""fullscreenenter"",""1"",""3873""
","
",,1031.1,run_exp/static/images/task_images/land.jpg,65,,,,,,,4,,,5,,,,,,,,167685,1,4,FALSE,,,
dig,145,582198,0.0-48.0-0.0,"""event"",""trial"",""time""
""fullscreenenter"",""1"",""3873""
","
","
","""event"",""trial"",""time""
""fullscreenenter"",""1"",""3873""
","
",,,,,,,,,,,,"[{""stimulus"":""run_exp/static/images/task_images/dig.jpg"",""time"":1},{""stimulus"":""run_exp/static/images/task_images/land.jpg"",""time"":665.3000000000466},{""stimulus"":""run_exp/static/images/task_images/dig.jpg"",""time"":1321.5}]",[],5,,,,,,,,,,,,,,
harvest,146,583206,0.0-48.0-1.0,"""event"",""trial"",""time""
""fullscreenenter"",""1"",""3873""
","
","
","""event"",""trial"",""time""
""fullscreenenter"",""1"",""3873""
","
",,null,run_exp/static/images/task_images/gems/4.jpg,null,,,,,,,2,,,5,,,,,4,0.482582823,0.5,,,,,,,
decision,147,584082,0.0-48.0-2.0,"""event"",""trial"",""time""
""fullscreenenter"",""1"",""3873""
","
","
","""event"",""trial"",""time""
""fullscreenenter"",""1"",""3873""
","
",,873.4,run_exp/static/images/task_images/land.jpg,76,,,,,,,2,,,5,,,,,,,,171558,1,5,TRUE,,,
travel,148,593222,0.0-49.0-0.0,"""event"",""trial"",""time""
""fullscreenenter"",""1"",""3873""
","
","
","""event"",""trial"",""time""
""fullscreenenter"",""1"",""3873""
","
",,,,,,,,,,,,"[{""stimulus"":""run_exp/static/images/task_images/rocket-01.jpg"",""time"":0.8000000000465661},{""stimulus"":""run_exp/static/images/task_images/rocket-02.jpg"",""time"":1019.3000000000466},{""stimulus"":""run_exp/static/images/task_images/rocket-03.jpg"",""time"":2035.1999999999534},{""stimulus"":""run_exp/static/images/task_images/rocket-04.jpg"",""time"":3050.899999999907},{""stimulus"":""run_exp/static/images/task_images/rocket-05.jpg"",""time"":4067.1999999999534},{""stimulus"":""run_exp/static/images/task_images/rocket-06.jpg"",""time"":5075.5},{""stimulus"":""run_exp/static/images/task_images/rocket-07.jpg"",""time"":6091.300000000047},{""stimulus"":""run_exp/static/images/task_images/rocket-08.jpg"",""time"":7107.399999999907},{""stimulus"":""run_exp/static/images/task_images/rocket-09.jpg"",""time"":8123.5}]",[],5,,,,,,,,,,,,,,
alien_welcome,149,598230,0.0-49.0-1.0,"""event"",""trial"",""time""
""fullscreenenter"",""1"",""3873""
","
","
","""event"",""trial"",""time""
""fullscreenenter"",""1"",""3873""
","
",,null,run_exp/static/images/task_images/aliens/old_aliens/planet/alien_planet-35.jpg,null,,,,,,,,,,,,,35,"64,58,74,27,34,35,1,5,62,29,26,61,78,28,65,80,60,39,8,6,55,63,41,49,32,7,77,37,73,54,52,22,53,76,12,71,48",,,,,,,,,,
land,150,598743,0.0-49.0-2.0,"""event"",""trial"",""time""
""fullscreenenter"",""1"",""3873""
","
","
","""event"",""trial"",""time""
""fullscreenenter"",""1"",""3873""
","
",,null,run_exp/static/images/task_images/land.jpg,null,,,,,,,99,,,6,,,,,,,,,,,,,,
dig,151,600758,0.0-49.0-3.0,"""event"",""trial"",""time""
""fullscreenenter"",""1"",""3873""
","
","
","""event"",""trial"",""time""
""fullscreenenter"",""1"",""3873""
","
",,,,,,,,,,,,"[{""stimulus"":""run_exp/static/images/task_images/dig.jpg"",""time"":1.1999999999534339},{""stimulus"":""run_exp/static/images/task_images/land.jpg"",""time"":675.0999999998603},{""stimulus"":""run_exp/static/images/task_images/dig.jpg"",""time"":1339.0999999998603}]",[],6,,,,,,,,,,,,,,
harvest,152,601766,0.0-49.0-4.0,"""event"",""trial"",""time""
""fullscreenenter"",""1"",""3873""
","
","
","""event"",""trial"",""time""
""fullscreenenter"",""1"",""3873""
","
",,null,run_exp/static/images/task_images/gems/99.jpg,null,,,,,,,84,,,6,,,,,99,0.845304193,0.848484848,,,,,,,
decision,153,602493,0.0-49.0-5.0,"""event"",""trial"",""time""
""fullscreenenter"",""1"",""3873""
","
","
","""event"",""trial"",""time""
""fullscreenenter"",""1"",""3873""
","
",,722.4,run_exp/static/images/task_images/land.jpg,65,,,,,,,84,,,6,,,,,,,,189970,1,0,FALSE,,,
dig,154,604790,0.0-50.0-0.0,"""event"",""trial"",""time""
""fullscreenenter"",""1"",""3873""
","
","
","""event"",""trial"",""time""
""fullscreenenter"",""1"",""3873""
","
",,,,,,,,,,,,"[{""stimulus"":""run_exp/static/images/task_images/dig.jpg"",""time"":1.1000000000931323},{""stimulus"":""run_exp/static/images/task_images/land.jpg"",""time"":764.1000000000931},{""stimulus"":""run_exp/static/images/task_images/dig.jpg"",""time"":1524.9000000001397}]",[],6,,,,,,,,,,,,,,
harvest,155,605798,0.0-50.0-1.0,"""event"",""trial"",""time""
""fullscreenenter"",""1"",""3873""
","
","
","""event"",""trial"",""time""
""fullscreenenter"",""1"",""3873""
","
",,null,run_exp/static/images/task_images/gems/84.jpg,null,,,,,,,67,,,6,,,,,84,0.803504571,0.797619048,,,,,,,
decision,156,606538,0.0-50.0-2.0,"""event"",""trial"",""time""
""fullscreenenter"",""1"",""3873""
","
","
","""event"",""trial"",""time""
""fullscreenenter"",""1"",""3873""
","
",,734.8,run_exp/static/images/task_images/land.jpg,65,,,,,,,67,,,6,,,,,,,,194014,1,1,FALSE,,,
dig,157,608822,0.0-51.0-0.0,"""event"",""trial"",""time""
""fullscreenenter"",""1"",""3873""
","
","
","""event"",""trial"",""time""
""fullscreenenter"",""1"",""3873""
","
",,,,,,,,,,,,"[{""stimulus"":""run_exp/static/images/task_images/dig.jpg"",""time"":1.1999999999534339},{""stimulus"":""run_exp/static/images/task_images/land.jpg"",""time"":763.5999999998603},{""stimulus"":""run_exp/static/images/task_images/dig.jpg"",""time"":1515.5}]",[],6,,,,,,,,,,,,,,
harvest,158,609829,0.0-51.0-1.0,"""event"",""trial"",""time""
""fullscreenenter"",""1"",""3873""
","
","
","""event"",""trial"",""time""
""fullscreenenter"",""1"",""3873""
","
",,null,run_exp/static/images/task_images/gems/67.jpg,null,,,,,,,56,,,6,,,,,67,0.836372046,0.835820896,,,,,,,
decision,159,610628,0.0-51.0-2.0,"""event"",""trial"",""time""
""fullscreenenter"",""1"",""3873""
","
","
","""event"",""trial"",""time""
""fullscreenenter"",""1"",""3873""
","
",,795.3,run_exp/static/images/task_images/land.jpg,65,,,,,,,56,,,6,,,,,,,,198104,1,2,FALSE,,,
dig,160,612846,0.0-52.0-0.0,"""event"",""trial"",""time""
""fullscreenenter"",""1"",""3873""
","
","
","""event"",""trial"",""time""
""fullscreenenter"",""1"",""3873""
","
",,,,,,,,,,,,"[{""stimulus"":""run_exp/static/images/task_images/dig.jpg"",""time"":1},{""stimulus"":""run_exp/static/images/task_images/land.jpg"",""time"":745.3999999999069},{""stimulus"":""run_exp/static/images/task_images/dig.jpg"",""time"":1473.3999999999069}]",[],6,,,,,,,,,,,,,,
harvest,161,613853,0.0-52.0-1.0,"""event"",""trial"",""time""
""fullscreenenter"",""1"",""3873""
","
","
","""event"",""trial"",""time""
""fullscreenenter"",""1"",""3873""
","
",,null,run_exp/static/images/task_images/gems/56.jpg,null,,,,,,,45,,,6,,,,,56,0.80095115,0.803571429,,,,,,,
decision,162,614741,0.0-52.0-2.0,"""event"",""trial"",""time""
""fullscreenenter"",""1"",""3873""
","
","
","""event"",""trial"",""time""
""fullscreenenter"",""1"",""3873""
","
",,884.5,run_exp/static/images/task_images/land.jpg,65,,,,,,,45,,,6,,,,,,,,202217,1,3,FALSE,,,
dig,163,616870,0.0-53.0-0.0,"""event"",""trial"",""time""
""fullscreenenter"",""1"",""3873""
","
","
","""event"",""trial"",""time""
""fullscreenenter"",""1"",""3873""
","
",,,,,,,,,,,,"[{""stimulus"":""run_exp/static/images/task_images/dig.jpg"",""time"":0.8999999999068677},{""stimulus"":""run_exp/static/images/task_images/land.jpg"",""time"":712.7999999998137},{""stimulus"":""run_exp/static/images/task_images/dig.jpg"",""time"":1417}]",[],6,,,,,,,,,,,,,,
harvest,164,617878,0.0-53.0-1.0,"""event"",""trial"",""time""
""fullscreenenter"",""1"",""3873""
","
","
","""event"",""trial"",""time""
""fullscreenenter"",""1"",""3873""
","
",,null,run_exp/static/images/task_images/gems/45.jpg,null,,,,,,,36,,,6,,,,,45,0.807956784,0.8,,,,,,,
decision,165,618692,0.0-53.0-2.0,"""event"",""trial"",""time""
""fullscreenenter"",""1"",""3873""
","
","
","""event"",""trial"",""time""
""fullscreenenter"",""1"",""3873""
","
",,810.8,run_exp/static/images/task_images/land.jpg,65,,,,,,,36,,,6,,,,,,,,206168,1,4,FALSE,,,
dig,166,620902,0.0-54.0-0.0,"""event"",""trial"",""time""
""fullscreenenter"",""1"",""3873""
","
","
","""event"",""trial"",""time""
""fullscreenenter"",""1"",""3873""
","
",,,,,,,,,,,,"[{""stimulus"":""run_exp/static/images/task_images/dig.jpg"",""time"":1.2000000001862645},{""stimulus"":""run_exp/static/images/task_images/land.jpg"",""time"":741},{""stimulus"":""run_exp/static/images/task_images/dig.jpg"",""time"":1469.3000000000466}]",[],6,,,,,,,,,,,,,,
harvest,167,621910,0.0-54.0-1.0,"""event"",""trial"",""time""
""fullscreenenter"",""1"",""3873""
","
","
","""event"",""trial"",""time""
""fullscreenenter"",""1"",""3873""
","
",,null,run_exp/static/images/task_images/gems/36.jpg,null,,,,,,,32,,,6,,,,,36,0.892804405,0.888888889,,,,,,,
decision,168,622721,0.0-54.0-2.0,"""event"",""trial"",""time""
""fullscreenenter"",""1"",""3873""
","
","
","""event"",""trial"",""time""
""fullscreenenter"",""1"",""3873""
","
",,806.5,run_exp/static/images/task_images/land.jpg,65,,,,,,,32,,,6,,,,,,,,210197,1,5,FALSE,,,
dig,169,624926,0.0-55.0-0.0,"""event"",""trial"",""time""
""fullscreenenter"",""1"",""3873""
","
","
","""event"",""trial"",""time""
""fullscreenenter"",""1"",""3873""
","
",,,,,,,,,,,,"[{""stimulus"":""run_exp/static/images/task_images/dig.jpg"",""time"":0.8000000000465661},{""stimulus"":""run_exp/static/images/task_images/land.jpg"",""time"":740.6999999999534},{""stimulus"":""run_exp/static/images/task_images/dig.jpg"",""time"":1468.5}]",[],6,,,,,,,,,,,,,,
harvest,170,626221,0.0-55.0-1.0,"""event"",""trial"",""time""
""fullscreenenter"",""1"",""3873""
","
","
","""event"",""trial"",""time""
""fullscreenenter"",""1"",""3873""
","
",,null,run_exp/static/images/task_images/gems/32.jpg,null,,,,,,,26,,,6,,,,,32,0.80028048,0.8125,,,,,,,
decision,171,626725,0.0-55.0-2.0,"""event"",""trial"",""time""
""fullscreenenter"",""1"",""3873""
","
","
","""event"",""trial"",""time""
""fullscreenenter"",""1"",""3873""
","
",,498.9,run_exp/static/images/task_images/land.jpg,65,,,,,,,26,,,6,,,,,,,,214201,1,6,FALSE,,,
dig,172,629238,0.0-56.0-0.0,"""event"",""trial"",""time""
""fullscreenenter"",""1"",""3873""
","
","
","""event"",""trial"",""time""
""fullscreenenter"",""1"",""3873""
","
",,,,,,,,,,,,"[{""stimulus"":""run_exp/static/images/task_images/dig.jpg"",""time"":0.8000000000465661},{""stimulus"":""run_exp/static/images/task_images/land.jpg"",""time"":839.3999999999069},{""stimulus"":""run_exp/static/images/task_images/dig.jpg"",""time"":1672.0999999998603}]",[],6,,,,,,,,,,,,,,
harvest,173,630246,0.0-56.0-1.0,"""event"",""trial"",""time""
""fullscreenenter"",""1"",""3873""
","
","
","""event"",""trial"",""time""
""fullscreenenter"",""1"",""3873""
","
",,null,run_exp/static/images/task_images/gems/26.jpg,null,,,,,,,20,,,6,,,,,26,0.778317447,0.769230769,,,,,,,
decision,174,631009,0.0-56.0-2.0,"""event"",""trial"",""time""
""fullscreenenter"",""1"",""3873""
","
","
","""event"",""trial"",""time""
""fullscreenenter"",""1"",""3873""
","
",,758,run_exp/static/images/task_images/land.jpg,65,,,,,,,20,,,6,,,,,,,,218486,1,7,FALSE,,,
dig,175,633270,0.0-57.0-0.0,"""event"",""trial"",""time""
""fullscreenenter"",""1"",""3873""
","
","
","""event"",""trial"",""time""
""fullscreenenter"",""1"",""3873""
","
",,,,,,,,,,,,"[{""stimulus"":""run_exp/static/images/task_images/dig.jpg"",""time"":0.8999999999068677},{""stimulus"":""run_exp/static/images/task_images/land.jpg"",""time"":754.5},{""stimulus"":""run_exp/static/images/task_images/dig.jpg"",""time"":1498.5}]",[],6,,,,,,,,,,,,,,
harvest,176,634577,0.0-57.0-1.0,"""event"",""trial"",""time""
""fullscreenenter"",""1"",""3873""
","
","
","""event"",""trial"",""time""
""fullscreenenter"",""1"",""3873""
","
",,null,run_exp/static/images/task_images/gems/20.jpg,null,,,,,,,17,,,6,,,,,20,0.843769738,0.85,,,,,,,
decision,177,635234,0.0-57.0-2.0,"""event"",""trial"",""time""
""fullscreenenter"",""1"",""3873""
","
","
","""event"",""trial"",""time""
""fullscreenenter"",""1"",""3873""
","
",,654.8,run_exp/static/images/task_images/land.jpg,65,,,,,,,17,,,6,,,,,,,,222711,1,8,FALSE,,,
dig,178,637598,0.0-58.0-0.0,"""event"",""trial"",""time""
""fullscreenenter"",""1"",""3873""
","
","
","""event"",""trial"",""time""
""fullscreenenter"",""1"",""3873""
","
",,,,,,,,,,,,"[{""stimulus"":""run_exp/static/images/task_images/dig.jpg"",""time"":0.9000000001396984},{""stimulus"":""run_exp/static/images/task_images/land.jpg"",""time"":786.7000000001863},{""stimulus"":""run_exp/static/images/task_images/dig.jpg"",""time"":1570.5}]",[],6,,,,,,,,,,,,,,
harvest,179,638606,0.0-58.0-1.0,"""event"",""trial"",""time""
""fullscreenenter"",""1"",""3873""
","
","
","""event"",""trial"",""time""
""fullscreenenter"",""1"",""3873""
","
",,null,run_exp/static/images/task_images/gems/17.jpg,null,,,,,,,14,,,6,,,,,17,0.821627164,0.823529412,,,,,,,
decision,180,639464,0.0-58.0-2.0,"""event"",""trial"",""time""
""fullscreenenter"",""1"",""3873""
","
","
","""event"",""trial"",""time""
""fullscreenenter"",""1"",""3873""
","
",,852.6,run_exp/static/images/task_images/land.jpg,65,,,,,,,14,,,6,,,,,,,,226940,1,9,FALSE,,,
dig,181,641630,0.0-59.0-0.0,"""event"",""trial"",""time""
""fullscreenenter"",""1"",""3873""
","
","
","""event"",""trial"",""time""
""fullscreenenter"",""1"",""3873""
","
",,,,,,,,,,,,"[{""stimulus"":""run_exp/static/images/task_images/dig.jpg"",""time"":1},{""stimulus"":""run_exp/static/images/task_images/land.jpg"",""time"":724.3999999999069},{""stimulus"":""run_exp/static/images/task_images/dig.jpg"",""time"":1436.8000000000466}]",[],6,,,,,,,,,,,,,,
harvest,182,642638,0.0-59.0-1.0,"""event"",""trial"",""time""
""fullscreenenter"",""1"",""3873""
","
","
","""event"",""trial"",""time""
""fullscreenenter"",""1"",""3873""
","
",,null,run_exp/static/images/task_images/gems/14.jpg,null,,,,,,,11,,,6,,,,,14,0.775758833,0.785714286,,,,,,,
decision,183,643490,0.0-59.0-2.0,"""event"",""trial"",""time""
""fullscreenenter"",""1"",""3873""
","
","
","""event"",""trial"",""time""
""fullscreenenter"",""1"",""3873""
","
",,846.9,run_exp/static/images/task_images/land.jpg,65,,,,,,,11,,,6,,,,,,,,230966,1,10,FALSE,,,
dig,184,645654,0.0-60.0-0.0,"""event"",""trial"",""time""
""fullscreenenter"",""1"",""3873""
","
","
","""event"",""trial"",""time""
""fullscreenenter"",""1"",""3873""
","
",,,,,,,,,,,,"[{""stimulus"":""run_exp/static/images/task_images/dig.jpg"",""time"":0.8000000000465661},{""stimulus"":""run_exp/static/images/task_images/land.jpg"",""time"":722.4000000001397},{""stimulus"":""run_exp/static/images/task_images/dig.jpg"",""time"":1442.8000000000466}]",[],6,,,,,,,,,,,,,,
harvest,185,646662,0.0-60.0-1.0,"""event"",""trial"",""time""
""fullscreenenter"",""1"",""3873""
","
","
","""event"",""trial"",""time""
""fullscreenenter"",""1"",""3873""
","
",,null,run_exp/static/images/task_images/gems/11.jpg,null,,,,,,,9,,,6,,,,,11,0.849900778,0.818181818,,,,,,,
decision,186,647553,0.0-60.0-2.0,"""event"",""trial"",""time""
""fullscreenenter"",""1"",""3873""
","
","
","""event"",""trial"",""time""
""fullscreenenter"",""1"",""3873""
","
",,888.6,run_exp/static/images/task_images/land.jpg,65,,,,,,,9,,,6,,,,,,,,235029,1,11,FALSE,,,
dig,187,649678,0.0-61.0-0.0,"""event"",""trial"",""time""
""fullscreenenter"",""1"",""3873""
","
","
","""event"",""trial"",""time""
""fullscreenenter"",""1"",""3873""
","
",,,,,,,,,,,,"[{""stimulus"":""run_exp/static/images/task_images/dig.jpg"",""time"":0.9000000001396984},{""stimulus"":""run_exp/static/images/task_images/land.jpg"",""time"":708},{""stimulus"":""run_exp/static/images/task_images/dig.jpg"",""time"":1412.4000000001397}]",[],6,,,,,,,,,,,,,,
harvest,188,650686,0.0-61.0-1.0,"""event"",""trial"",""time""
""fullscreenenter"",""1"",""3873""
","
","
","""event"",""trial"",""time""
""fullscreenenter"",""1"",""3873""
","
",,null,run_exp/static/images/task_images/gems/9.jpg,null,,,,,,,7,,,6,,,,,9,0.76622709,0.777777778,,,,,,,
decision,189,651756,0.0-61.0-2.0,"""event"",""trial"",""time""
""fullscreenenter"",""1"",""3873""
","
","
","""event"",""trial"",""time""
""fullscreenenter"",""1"",""3873""
","
",,1065.3,run_exp/static/images/task_images/land.jpg,76,,,,,,,7,,,6,,,,,,,,239233,1,12,TRUE,,,
travel,190,660702,0.0-62.0-0.0,"""event"",""trial"",""time""
""fullscreenenter"",""1"",""3873""
","
","
","""event"",""trial"",""time""
""fullscreenenter"",""1"",""3873""
","
",,,,,,,,,,,,"[{""stimulus"":""run_exp/static/images/task_images/rocket-01.jpg"",""time"":1.2000000001862645},{""stimulus"":""run_exp/static/images/task_images/rocket-02.jpg"",""time"":995.9000000001397},{""stimulus"":""run_exp/static/images/task_images/rocket-03.jpg"",""time"":1988.4000000001397},{""stimulus"":""run_exp/static/images/task_images/rocket-04.jpg"",""time"":2980.3000000000466},{""stimulus"":""run_exp/static/images/task_images/rocket-05.jpg"",""time"":3971.9000000001397},{""stimulus"":""run_exp/static/images/task_images/rocket-06.jpg"",""time"":4964.200000000186},{""stimulus"":""run_exp/static/images/task_images/rocket-07.jpg"",""time"":5956},{""stimulus"":""run_exp/static/images/task_images/rocket-08.jpg"",""time"":6948},{""stimulus"":""run_exp/static/images/task_images/rocket-09.jpg"",""time"":7940.300000000047}]",[],6,,,,,,,,,,,,,,
alien_welcome,191,665710,0.0-62.0-1.0,"""event"",""trial"",""time""
""fullscreenenter"",""1"",""3873""
","
","
","""event"",""trial"",""time""
""fullscreenenter"",""1"",""3873""
","
",,null,run_exp/static/images/task_images/aliens/old_aliens/planet/alien_planet-1.jpg,null,,,,,,,,,,,,,1,"64,58,74,27,34,35,1,5,62,29,26,61,78,28,65,80,60,39,8,6,55,63,41,49,32,7,77,37,73,54,52,22,53,76,12,71,48",,,,,,,,,,
land,192,666222,0.0-62.0-2.0,"""event"",""trial"",""time""
""fullscreenenter"",""1"",""3873""
","
","
","""event"",""trial"",""time""
""fullscreenenter"",""1"",""3873""
","
",,null,run_exp/static/images/task_images/land.jpg,null,,,,,,,105,,,7,,,,,,,,,,,,,,
dig,193,668238,0.0-62.0-3.0,"""event"",""trial"",""time""
""fullscreenenter"",""1"",""3873""
","
","
","""event"",""trial"",""time""
""fullscreenenter"",""1"",""3873""
","
",,,,,,,,,,,,"[{""stimulus"":""run_exp/static/images/task_images/dig.jpg"",""time"":1.3999999999068677},{""stimulus"":""run_exp/static/images/task_images/land.jpg"",""time"":675.1999999999534},{""stimulus"":""run_exp/static/images/task_images/dig.jpg"",""time"":1339.0999999998603}]",[],7,,,,,,,,,,,,,,
harvest,194,669246,0.0-62.0-4.0,"""event"",""trial"",""time""
""fullscreenenter"",""1"",""3873""
","
","
","""event"",""trial"",""time""
""fullscreenenter"",""1"",""3873""
","
",,null,run_exp/static/images/task_images/gems/105.jpg,null,,,,,,,90,,,7,,,,,105,0.858323853,0.857142857,,,,,,,
decision,195,670168,0.0-62.0-5.0,"""event"",""trial"",""time""
""fullscreenenter"",""1"",""3873""
","
","
","""event"",""trial"",""time""
""fullscreenenter"",""1"",""3873""
","
",,916.5,run_exp/static/images/task_images/land.jpg,65,,,,,,,90,,,7,,,,,,,,257644,1,0,FALSE,,,
dig,196,672270,0.0-63.0-0.0,"""event"",""trial"",""time""
""fullscreenenter"",""1"",""3873""
","
","
","""event"",""trial"",""time""
""fullscreenenter"",""1"",""3873""
","
",,,,,,,,,,,,"[{""stimulus"":""run_exp/static/images/task_images/dig.jpg"",""time"":1.4000000001396984},{""stimulus"":""run_exp/static/images/task_images/land.jpg"",""time"":699.1000000000931},{""stimulus"":""run_exp/static/images/task_images/dig.jpg"",""time"":1394.7000000001863}]",[],7,,,,,,,,,,,,,,
harvest,197,673278,0.0-63.0-1.0,"""event"",""trial"",""time""
""fullscreenenter"",""1"",""3873""
","
","
","""event"",""trial"",""time""
""fullscreenenter"",""1"",""3873""
","
",,null,run_exp/static/images/task_images/gems/90.jpg,null,,,,,,,75,,,7,,,,,90,0.837712668,0.833333333,,,,,,,
decision,198,673991,0.0-63.0-2.0,"""event"",""trial"",""time""
""fullscreenenter"",""1"",""3873""
","
","
","""event"",""trial"",""time""
""fullscreenenter"",""1"",""3873""
","
",,709.1,run_exp/static/images/task_images/land.jpg,65,,,,,,,75,,,7,,,,,,,,261468,1,1,FALSE,,,
dig,199,676302,0.0-64.0-0.0,"""event"",""trial"",""time""
""fullscreenenter"",""1"",""3873""
","
","
","""event"",""trial"",""time""
""fullscreenenter"",""1"",""3873""
","
",,,,,,,,,,,,"[{""stimulus"":""run_exp/static/images/task_images/dig.jpg"",""time"":1.1000000000931323},{""stimulus"":""run_exp/static/images/task_images/land.jpg"",""time"":768.9000000001397},{""stimulus"":""run_exp/static/images/task_images/dig.jpg"",""time"":1536.8000000000466}]",[],7,,,,,,,,,,,,,,
harvest,200,677310,0.0-64.0-1.0,"""event"",""trial"",""time""
""fullscreenenter"",""1"",""3873""
","
","
","""event"",""trial"",""time""
""fullscreenenter"",""1"",""3873""
","
",,null,run_exp/static/images/task_images/gems/75.jpg,null,,,,,,,62,,,7,,,,,75,0.822497082,0.826666667,,,,,,,
decision,201,678104,0.0-64.0-2.0,"""event"",""trial"",""time""
""fullscreenenter"",""1"",""3873""
","
","
","""event"",""trial"",""time""
""fullscreenenter"",""1"",""3873""
","
",,791,run_exp/static/images/task_images/land.jpg,65,,,,,,,62,,,7,,,,,,,,265580,1,2,FALSE,,,
dig,202,680326,0.0-65.0-0.0,"""event"",""trial"",""time""
""fullscreenenter"",""1"",""3873""
","
","
","""event"",""trial"",""time""
""fullscreenenter"",""1"",""3873""
","
",,,,,,,,,,,,"[{""stimulus"":""run_exp/static/images/task_images/dig.jpg"",""time"":0.8999999999068677},{""stimulus"":""run_exp/static/images/task_images/land.jpg"",""time"":740.3999999999069},{""stimulus"":""run_exp/static/images/task_images/dig.jpg"",""time"":1476.5999999998603}]",[],7,,,,,,,,,,,,,,
harvest,203,681631,0.0-65.0-1.0,"""event"",""trial"",""time""
""fullscreenenter"",""1"",""3873""
","
","
","""event"",""trial"",""time""
""fullscreenenter"",""1"",""3873""
","
",,null,run_exp/static/images/task_images/gems/62.jpg,null,,,,,,,51,,,7,,,,,62,0.817110047,0.822580645,,,,,,,
decision,204,682194,0.0-65.0-2.0,"""event"",""trial"",""time""
""fullscreenenter"",""1"",""3873""
","
","
","""event"",""trial"",""time""
""fullscreenenter"",""1"",""3873""
","
",,557.4,run_exp/static/images/task_images/land.jpg,65,,,,,,,51,,,7,,,,,,,,269670,1,3,FALSE,,,
dig,205,684654,0.0-66.0-0.0,"""event"",""trial"",""time""
""fullscreenenter"",""1"",""3873""
","
","
","""event"",""trial"",""time""
""fullscreenenter"",""1"",""3873""
","
",,,,,,,,,,,,"[{""stimulus"":""run_exp/static/images/task_images/dig.jpg"",""time"":0.7999999998137355},{""stimulus"":""run_exp/static/images/task_images/land.jpg"",""time"":819.1999999999534},{""stimulus"":""run_exp/static/images/task_images/dig.jpg"",""time"":1635.5}]",[],7,,,,,,,,,,,,,,
harvest,206,685662,0.0-66.0-1.0,"""event"",""trial"",""time""
""fullscreenenter"",""1"",""3873""
","
","
","""event"",""trial"",""time""
""fullscreenenter"",""1"",""3873""
","
",,null,run_exp/static/images/task_images/gems/51.jpg,null,,,,,,,40,,,7,,,,,51,0.783851181,0.784313725,,,,,,,
decision,207,687322,0.0-66.0-2.0,"""event"",""trial"",""time""
""fullscreenenter"",""1"",""3873""
","
","
","""event"",""trial"",""time""
""fullscreenenter"",""1"",""3873""
","
",,1656.7,run_exp/static/images/task_images/land.jpg,65,,,,,,,40,,,7,,,,,,,,274798,1,4,FALSE,,,
dig,208,688676,0.0-67.0-0.0,"""event"",""trial"",""time""
""fullscreenenter"",""1"",""3873""
","
","
","""event"",""trial"",""time""
""fullscreenenter"",""1"",""3873""
","
",,,,,,,,,,,,"[{""stimulus"":""run_exp/static/images/task_images/dig.jpg"",""time"":0.8000000000465661},{""stimulus"":""run_exp/static/images/task_images/land.jpg"",""time"":452.10000000009313},{""stimulus"":""run_exp/static/images/task_images/dig.jpg"",""time"":900.1000000000931}]",[],7,,,,,,,,,,,,,,
harvest,209,689940,0.0-67.0-1.0,"""event"",""trial"",""time""
""fullscreenenter"",""1"",""3873""
","
","
","""event"",""trial"",""time""
""fullscreenenter"",""1"",""3873""
","
",,null,run_exp/static/images/task_images/gems/40.jpg,null,,,,,,,34,,,7,,,,,40,0.840610314,0.85,,,,,,,
decision,210,690966,0.0-67.0-2.0,"""event"",""trial"",""time""
""fullscreenenter"",""1"",""3873""
","
","
","""event"",""trial"",""time""
""fullscreenenter"",""1"",""3873""
","
",,1022.2,run_exp/static/images/task_images/land.jpg,76,,,,,,,34,,,7,,,,,,,,278442,1,5,TRUE,,,
travel,211,699958,0.0-68.0-0.0,"""event"",""trial"",""time""
""fullscreenenter"",""1"",""3873""
","
","
","""event"",""trial"",""time""
""fullscreenenter"",""1"",""3873""
","
",,,,,,,,,,,,"[{""stimulus"":""run_exp/static/images/task_images/rocket-01.jpg"",""time"":1.1000000000931323},{""stimulus"":""run_exp/static/images/task_images/rocket-02.jpg"",""time"":1001.6000000000931},{""stimulus"":""run_exp/static/images/task_images/rocket-03.jpg"",""time"":2001.8000000000466},{""stimulus"":""run_exp/static/images/task_images/rocket-04.jpg"",""time"":3001.5},{""stimulus"":""run_exp/static/images/task_images/rocket-05.jpg"",""time"":3993.4000000001397},{""stimulus"":""run_exp/static/images/task_images/rocket-06.jpg"",""time"":4993.5},{""stimulus"":""run_exp/static/images/task_images/rocket-07.jpg"",""time"":5993.600000000093},{""stimulus"":""run_exp/static/images/task_images/rocket-08.jpg"",""time"":6985.800000000047},{""stimulus"":""run_exp/static/images/task_images/rocket-09.jpg"",""time"":7985.300000000047}]",[],7,,,,,,,,,,,,,,
alien_welcome,212,704966,0.0-68.0-1.0,"""event"",""trial"",""time""
""fullscreenenter"",""1"",""3873""
","
","
","""event"",""trial"",""time""
""fullscreenenter"",""1"",""3873""
","
",,null,run_exp/static/images/task_images/aliens/old_aliens/planet/alien_planet-5.jpg,null,,,,,,,,,,,,,5,"64,58,74,27,34,35,1,5,62,29,26,61,78,28,65,80,60,39,8,6,55,63,41,49,32,7,77,37,73,54,52,22,53,76,12,71,48",,,,,,,,,,
land,213,705472,0.0-68.0-2.0,"""event"",""trial"",""time""
""fullscreenenter"",""1"",""3873""
","
","
","""event"",""trial"",""time""
""fullscreenenter"",""1"",""3873""
","
",,null,run_exp/static/images/task_images/land.jpg,null,,,,,,,100,,,8,,,,,,,,,,,,,,
dig,214,707486,0.0-68.0-3.0,"""event"",""trial"",""time""
""fullscreenenter"",""1"",""3873""
","
","
","""event"",""trial"",""time""
""fullscreenenter"",""1"",""3873""
","
",,,,,,,,,,,,"[{""stimulus"":""run_exp/static/images/task_images/dig.jpg"",""time"":1.0999999998603016},{""stimulus"":""run_exp/static/images/task_images/land.jpg"",""time"":674},{""stimulus"":""run_exp/static/images/task_images/dig.jpg"",""time"":1338}]",[],8,,,,,,,,,,,,,,
harvest,215,708494,0.0-68.0-4.0,"""event"",""trial"",""time""
""fullscreenenter"",""1"",""3873""
","
","
","""event"",""trial"",""time""
""fullscreenenter"",""1"",""3873""
","
",,null,run_exp/static/images/task_images/gems/100.jpg,null,,,,,,,71,,,8,,,,,100,0.711179402,0.71,,,,,,,
decision,216,709244,0.0-68.0-5.0,"""event"",""trial"",""time""
""fullscreenenter"",""1"",""3873""
","
","
","""event"",""trial"",""time""
""fullscreenenter"",""1"",""3873""
","
",,745.5,run_exp/static/images/task_images/land.jpg,65,,,,,,,71,,,8,,,,,,,,296720,1,0,FALSE,,,
dig,217,711526,0.0-69.0-0.0,"""event"",""trial"",""time""
""fullscreenenter"",""1"",""3873""
","
","
","""event"",""trial"",""time""
""fullscreenenter"",""1"",""3873""
","
",,,,,,,,,,,,"[{""stimulus"":""run_exp/static/images/task_images/dig.jpg"",""time"":2.7999999998137355},{""stimulus"":""run_exp/static/images/task_images/land.jpg"",""time"":761.8999999999069},{""stimulus"":""run_exp/static/images/task_images/dig.jpg"",""time"":1514.0999999998603}]",[],8,,,,,,,,,,,,,,
harvest,218,712534,0.0-69.0-1.0,"""event"",""trial"",""time""
""fullscreenenter"",""1"",""3873""
","
","
","""event"",""trial"",""time""
""fullscreenenter"",""1"",""3873""
","
",,null,run_exp/static/images/task_images/gems/71.jpg,null,,,,,,,58,,,8,,,,,71,0.812072422,0.816901408,,,,,,,
decision,219,713465,0.0-69.0-2.0,"""event"",""trial"",""time""
""fullscreenenter"",""1"",""3873""
","
","
","""event"",""trial"",""time""
""fullscreenenter"",""1"",""3873""
","
",,928.2,run_exp/static/images/task_images/land.jpg,65,,,,,,,58,,,8,,,,,,,,300941,1,1,TRUE,,,
end_of_block_continue,220,722546,0.0-70.0-0.0,"""event"",""trial"",""time""
""fullscreenenter"",""1"",""3873""
","
","
","""event"",""trial"",""time""
""fullscreenenter"",""1"",""3873""
","
",,null,run_exp/static/audio/clip_32_block_end.m4a,,,,,,,null,,,,,,,,,,,,,,,,,,
alien_welcome,221,727566,0.0-71.0-0.0,"""event"",""trial"",""time""
""fullscreenenter"",""1"",""3873""
","
","
","""event"",""trial"",""time""
""fullscreenenter"",""1"",""3873""
","
",,null,run_exp/static/images/task_images/aliens/old_aliens/planet/alien_planet-62.jpg,null,,,,,,,,,,,,,62,"64,58,74,27,34,35,1,5,62,29,26,61,78,28,65,80,60,39,8,6,55,63,41,49,32,7,77,37,73,54,52,22,53,76,12,71,48",,,,,,,,,,
land,222,728078,0.0-71.0-1.0,"""event"",""trial"",""time""
""fullscreenenter"",""1"",""3873""
","
","
","""event"",""trial"",""time""
""fullscreenenter"",""1"",""3873""
","
",,null,run_exp/static/images/task_images/land.jpg,null,,,,,,,98,,,9,,,,,,,,,,,,,,
dig,223,730094,0.0-71.0-2.0,"""event"",""trial"",""time""
""fullscreenenter"",""1"",""3873""
","
","
","""event"",""trial"",""time""
""fullscreenenter"",""1"",""3873""
","
",,,,,,,,,,,,"[{""stimulus"":""run_exp/static/images/task_images/dig.jpg"",""time"":1.3000000000465661},{""stimulus"":""run_exp/static/images/task_images/land.jpg"",""time"":675.5},{""stimulus"":""run_exp/static/images/task_images/dig.jpg"",""time"":1339.1000000000931}]",[],9,,,,,,,,,,,,,,
harvest,224,731102,0.0-71.0-3.0,"""event"",""trial"",""time""
""fullscreenenter"",""1"",""3873""
","
","
","""event"",""trial"",""time""
""fullscreenenter"",""1"",""3873""
","
",,null,run_exp/static/images/task_images/gems/98.jpg,null,,,,,,,18,,,9,,,,,98,0.179237279,0.183673469,,,,,,,
decision,225,732013,0.0-71.0-4.0,"""event"",""trial"",""time""
""fullscreenenter"",""1"",""3873""
","
","
","""event"",""trial"",""time""
""fullscreenenter"",""1"",""3873""
","
",,905.1,run_exp/static/images/task_images/land.jpg,65,,,,,,,18,,,9,,,,,,,,9454,2,0,FALSE,,,
dig,226,734126,0.0-72.0-0.0,"""event"",""trial"",""time""
""fullscreenenter"",""1"",""3873""
","
","
","""event"",""trial"",""time""
""fullscreenenter"",""1"",""3873""
","
",,,,,,,,,,,,"[{""stimulus"":""run_exp/static/images/task_images/dig.jpg"",""time"":1},{""stimulus"":""run_exp/static/images/task_images/land.jpg"",""time"":707.8000000000466},{""stimulus"":""run_exp/static/images/task_images/dig.jpg"",""time"":1403.8999999999069}]",[],9,,,,,,,,,,,,,,
harvest,227,735134,0.0-72.0-1.0,"""event"",""trial"",""time""
""fullscreenenter"",""1"",""3873""
","
","
","""event"",""trial"",""time""
""fullscreenenter"",""1"",""3873""
","
",,null,run_exp/static/images/task_images/gems/18.jpg,null,,,,,,,5,,,9,,,,,18,0.259289268,0.277777778,,,,,,,
decision,228,735816,0.0-72.0-2.0,"""event"",""trial"",""time""
""fullscreenenter"",""1"",""3873""
","
","
","""event"",""trial"",""time""
""fullscreenenter"",""1"",""3873""
","
",,678.3,run_exp/static/images/task_images/land.jpg,65,,,,,,,5,,,9,,,,,,,,13257,2,1,FALSE,,,
dig,229,738150,0.0-73.0-0.0,"""event"",""trial"",""time""
""fullscreenenter"",""1"",""3873""
","
","
","""event"",""trial"",""time""
""fullscreenenter"",""1"",""3873""
","
",,,,,,,,,,,,"[{""stimulus"":""run_exp/static/images/task_images/dig.jpg"",""time"":0.8999999999068677},{""stimulus"":""run_exp/static/images/task_images/land.jpg"",""time"":780.1999999999534},{""stimulus"":""run_exp/static/images/task_images/dig.jpg"",""time"":1556}]",[],9,,,,,,,,,,,,,,
harvest,230,739437,0.0-73.0-1.0,"""event"",""trial"",""time""
""fullscreenenter"",""1"",""3873""
","
","
","""event"",""trial"",""time""
""fullscreenenter"",""1"",""3873""
","
",,null,run_exp/static/images/task_images/gems/5.jpg,null,,,,,,,1,,,9,,,,,5,0.247089997,0.2,,,,,,,
decision,231,739854,0.0-73.0-2.0,"""event"",""trial"",""time""
""fullscreenenter"",""1"",""3873""
","
","
","""event"",""trial"",""time""
""fullscreenenter"",""1"",""3873""
","
",,410.8,run_exp/static/images/task_images/land.jpg,65,,,,,,,1,,,9,,,,,,,,17295,2,2,FALSE,,,
dig,232,742462,0.0-74.0-0.0,"""event"",""trial"",""time""
""fullscreenenter"",""1"",""3873""
","
","
","""event"",""trial"",""time""
""fullscreenenter"",""1"",""3873""
","
",,,,,,,,,,,,"[{""stimulus"":""run_exp/static/images/task_images/dig.jpg"",""time"":0.8000000000465661},{""stimulus"":""run_exp/static/images/task_images/land.jpg"",""time"":871.1000000000931},{""stimulus"":""run_exp/static/images/task_images/dig.jpg"",""time"":1735.5}]",[],9,,,,,,,,,,,,,,
harvest,233,743470,0.0-74.0-1.0,"""event"",""trial"",""time""
""fullscreenenter"",""1"",""3873""
","
","
","""event"",""trial"",""time""
""fullscreenenter"",""1"",""3873""
","
",,null,run_exp/static/images/task_images/gems/1.jpg,null,,,,,,,0,,,9,,,,,1,0.215244474,0,,,,,,,
decision,234,744208,0.0-74.0-2.0,"""event"",""trial"",""time""
""fullscreenenter"",""1"",""3873""
","
","
","""event"",""trial"",""time""
""fullscreenenter"",""1"",""3873""
","
",,734.8,run_exp/static/images/task_images/land.jpg,65,,,,,,,0,,,9,,,,,,,,21649,2,3,FALSE,,,
dig,235,746494,0.0-75.0-0.0,"""event"",""trial"",""time""
""fullscreenenter"",""1"",""3873""
","
","
","""event"",""trial"",""time""
""fullscreenenter"",""1"",""3873""
","
",,,,,,,,,,,,"[{""stimulus"":""run_exp/static/images/task_images/dig.jpg"",""time"":1},{""stimulus"":""run_exp/static/images/task_images/land.jpg"",""time"":764.6999999999534},{""stimulus"":""run_exp/static/images/task_images/dig.jpg"",""time"":1516.5999999998603}]",[],9,,,,,,,,,,,,,,
harvest,236,747502,0.0-75.0-1.0,"""event"",""trial"",""time""
""fullscreenenter"",""1"",""3873""
","
","
","""event"",""trial"",""time""
""fullscreenenter"",""1"",""3873""
","
",,null,run_exp/static/images/task_images/gems/0.jpg,null,,,,,,,0,,,9,,,,,0,0.218795575,NaN,,,,,,,
decision,237,748324,0.0-75.0-2.0,"""event"",""trial"",""time""
""fullscreenenter"",""1"",""3873""
","
","
","""event"",""trial"",""time""
""fullscreenenter"",""1"",""3873""
","
",,819.3,run_exp/static/images/task_images/land.jpg,76,,,,,,,0,,,9,,,,,,,,25766,2,4,TRUE,,,
travel,238,757518,0.0-76.0-0.0,"""event"",""trial"",""time""
""fullscreenenter"",""1"",""3873""
","
","
","""event"",""trial"",""time""
""fullscreenenter"",""1"",""3873""
","
",,,,,,,,,,,,"[{""stimulus"":""run_exp/static/images/task_images/rocket-01.jpg"",""time"":0.8000000000465661},{""stimulus"":""run_exp/static/images/task_images/rocket-02.jpg"",""time"":1024.0999999998603},{""stimulus"":""run_exp/static/images/task_images/rocket-03.jpg"",""time"":2048.1999999999534},{""stimulus"":""run_exp/static/images/task_images/rocket-04.jpg"",""time"":3064},{""stimulus"":""run_exp/static/images/task_images/rocket-05.jpg"",""time"":4088.399999999907},{""stimulus"":""run_exp/static/images/task_images/rocket-06.jpg"",""time"":5104.399999999907},{""stimulus"":""run_exp/static/images/task_images/rocket-07.jpg"",""time"":6128},{""stimulus"":""run_exp/static/images/task_images/rocket-08.jpg"",""time"":7144.300000000047},{""stimulus"":""run_exp/static/images/task_images/rocket-09.jpg"",""time"":8168.199999999953}]",[],9,,,,,,,,,,,,,,
alien_welcome,239,762526,0.0-76.0-1.0,"""event"",""trial"",""time""
""fullscreenenter"",""1"",""3873""
","
","
","""event"",""trial"",""time""
""fullscreenenter"",""1"",""3873""
","
",,null,run_exp/static/images/task_images/aliens/old_aliens/planet/alien_planet-29.jpg,null,,,,,,,,,,,,,29,"64,58,74,27,34,35,1,5,62,29,26,61,78,28,65,80,60,39,8,6,55,63,41,49,32,7,77,37,73,54,52,22,53,76,12,71,48",,,,,,,,,,
land,240,763038,0.0-76.0-2.0,"""event"",""trial"",""time""
""fullscreenenter"",""1"",""3873""
","
","
","""event"",""trial"",""time""
""fullscreenenter"",""1"",""3873""
","
",,null,run_exp/static/images/task_images/land.jpg,null,,,,,,,104,,,10,,,,,,,,,,,,,,
dig,241,765054,0.0-76.0-3.0,"""event"",""trial"",""time""
""fullscreenenter"",""1"",""3873""
","
","
","""event"",""trial"",""time""
""fullscreenenter"",""1"",""3873""
","
",,,,,,,,,,,,"[{""stimulus"":""run_exp/static/images/task_images/dig.jpg"",""time"":1.1000000000931323},{""stimulus"":""run_exp/static/images/task_images/land.jpg"",""time"":675.9000000001397},{""stimulus"":""run_exp/static/images/task_images/dig.jpg"",""time"":1339.7000000001863}]",[],10,,,,,,,,,,,,,,
harvest,242,766335,0.0-76.0-4.0,"""event"",""trial"",""time""
""fullscreenenter"",""1"",""3873""
","
","
","""event"",""trial"",""time""
""fullscreenenter"",""1"",""3873""
","
",,null,run_exp/static/images/task_images/gems/104.jpg,null,,,,,,,18,,,10,,,,,104,0.170658271,0.173076923,,,,,,,
decision,243,766850,0.0-76.0-5.0,"""event"",""trial"",""time""
""fullscreenenter"",""1"",""3873""
","
","
","""event"",""trial"",""time""
""fullscreenenter"",""1"",""3873""
","
",,509.8,run_exp/static/images/task_images/land.jpg,65,,,,,,,18,,,10,,,,,,,,44292,2,0,FALSE,,,
dig,244,769358,0.0-77.0-0.0,"""event"",""trial"",""time""
""fullscreenenter"",""1"",""3873""
","
","
","""event"",""trial"",""time""
""fullscreenenter"",""1"",""3873""
","
",,,,,,,,,,,,"[{""stimulus"":""run_exp/static/images/task_images/dig.jpg"",""time"":0.8000000000465661},{""stimulus"":""run_exp/static/images/task_images/land.jpg"",""time"":834},{""stimulus"":""run_exp/static/images/task_images/dig.jpg"",""time"":1665.8999999999069}]",[],10,,,,,,,,,,,,,,
harvest,245,770366,0.0-77.0-1.0,"""event"",""trial"",""time""
""fullscreenenter"",""1"",""3873""
","
","
","""event"",""trial"",""time""
""fullscreenenter"",""1"",""3873""
","
",,null,run_exp/static/images/task_images/gems/18.jpg,null,,,,,,,4,,,10,,,,,18,0.203593406,0.222222222,,,,,,,
decision,246,773374,0.0-77.0-2.0,"""event"",""trial"",""time""
""fullscreenenter"",""1"",""3873""
","
","
","""event"",""trial"",""time""
""fullscreenenter"",""1"",""3873""
","
",,null,run_exp/static/images/task_images/land.jpg,null,,,,,,,4,,,10,,,,,,,,50815,2,1,FALSE,,,
time_out,247,775398,0.0-78.0-0.0,"""event"",""trial"",""time""
""fullscreenenter"",""1"",""3873""
","
","
","""event"",""trial"",""time""
""fullscreenenter"",""1"",""3873""
","
",,null,run_exp/static/images/task_images/time_out.jpg,null,,,,,,,4,,,,,,,,,,,,,,,,,
decision,248,776134,0.0-78.0-1.0,"""event"",""trial"",""time""
""fullscreenenter"",""1"",""3873""
","
","
","""event"",""trial"",""time""
""fullscreenenter"",""1"",""3873""
","
",,731.4,run_exp/static/images/task_images/land.jpg,76,,,,,,,4,,,10,,,,,,,,53575,2,1,TRUE,,,
travel,249,785414,0.0-79.0-0.0,"""event"",""trial"",""time""
""fullscreenenter"",""1"",""3873""
","
","
","""event"",""trial"",""time""
""fullscreenenter"",""1"",""3873""
","
",,,,,,,,,,,,"[{""stimulus"":""run_exp/static/images/task_images/rocket-01.jpg"",""time"":0.8999999999068677},{""stimulus"":""run_exp/static/images/task_images/rocket-02.jpg"",""time"":1039.3999999999069},{""stimulus"":""run_exp/static/images/task_images/rocket-03.jpg"",""time"":2062.0999999998603},{""stimulus"":""run_exp/static/images/task_images/rocket-04.jpg"",""time"":3094.6999999999534},{""stimulus"":""run_exp/static/images/task_images/rocket-05.jpg"",""time"":4126.399999999907},{""stimulus"":""run_exp/static/images/task_images/rocket-06.jpg"",""time"":5150.799999999814},{""stimulus"":""run_exp/static/images/task_images/rocket-07.jpg"",""time"":6182.09999999986},{""stimulus"":""run_exp/static/images/task_images/rocket-08.jpg"",""time"":7214.199999999953},{""stimulus"":""run_exp/static/images/task_images/rocket-09.jpg"",""time"":8238.399999999907}]",[],10,,,,,,,,,,,,,,
alien_welcome,250,790422,0.0-79.0-1.0,"""event"",""trial"",""time""
""fullscreenenter"",""1"",""3873""
","
","
","""event"",""trial"",""time""
""fullscreenenter"",""1"",""3873""
","
",,null,run_exp/static/images/task_images/aliens/old_aliens/planet/alien_planet-26.jpg,null,,,,,,,,,,,,,26,"64,58,74,27,34,35,1,5,62,29,26,61,78,28,65,80,60,39,8,6,55,63,41,49,32,7,77,37,73,54,52,22,53,76,12,71,48",,,,,,,,,,
land,251,790934,0.0-79.0-2.0,"""event"",""trial"",""time""
""fullscreenenter"",""1"",""3873""
","
","
","""event"",""trial"",""time""
""fullscreenenter"",""1"",""3873""
","
",,null,run_exp/static/images/task_images/land.jpg,null,,,,,,,99,,,11,,,,,,,,,,,,,,
dig,252,792942,0.0-79.0-3.0,"""event"",""trial"",""time""
""fullscreenenter"",""1"",""3873""
","
","
","""event"",""trial"",""time""
""fullscreenenter"",""1"",""3873""
","
