trial_type,trial_index,time_elapsed,internal_node_id,success,rt,stimulus,key_press,prompt,subject_id,age,gender,button_pressed,next_reward,animation_sequence,responses,planet,curr_prac_trial,n_prac_rounds,alien,aliens,reward_received,decay_rate_actual,decay_rate_exp,time_in_block,block_num,prt,last_trial_on_planet,button_html,bonus,num_failures
pavlovia,0,10,0.0-0.0,,,,,,,,,,,,,,,,,,,,,,,,,,,
fullscreen,1,3861,0.0-1.0,TRUE,,,,,,,,,,,,,,,,,,,,,,,,,,
instruc_welcome,2,13622,0.0-2.0,,null,run_exp/static/audio/clip_1_welcome.m4a,null,"<p>Howdy! In this experiment, you’ll be an explorer traveling through space to collect space treasure.</p><p>Your mission is to collect as much treasure as possible.</p><br><br><p><img src='run_exp/static/images/task_images/opening_img-01.jpg' height='300' width='auto'></p>",ScZlWtJmDLGDRVe_a5Ke5UddwllDBGZ_MLRP_a9HdQ0rNq7RmtIG,9.77,female,,,,,,,,,,,,,,,,,,,
audio-keyboard-response,3,30201,0.0-3.0,,null,run_exp/static/audio/clip_2_move.m4a,null,,,,,,,,,,,,,,,,,,,,,,,
welcome_dec,4,30345,0.0-4.0,,138.305,"<p>Howdy! In this experiment, you’ll be an explorer traveling through space to collect space treasure.</p><p>Your mission is to collect as much treasure as possible.</p><br><br><p><img src='run_exp/static/images/task_images/opening_img-01.jpg' height='300' width='auto'></p>",,,,,,1,,,,,,,,,,,,,,,,,,
html-keyboard-response,5,31369,0.0-5.0,,1022.19,"<p>Howdy! In this experiment, you’ll be an explorer traveling through space to collect space treasure.</p><p>Your mission is to collect as much treasure as possible.</p><br><br><p><img src='run_exp/static/images/task_images/opening_img-01.jpg' height='300' width='auto'></p><button class=""jspsych-html-btn-unchosen""><img src=""run_exp/static/images/task_images/planet-01.jpg"" height=""50""></button><button class=""jspsych-html-btn-chosen""><img src=""run_exp/static/images/task_images/planet-02.jpg"" height=""50""></button><p><b>[press the space bar to lock in your answer]<b><br></p>",32,,,,,,,,,,,,,,,,,,,,,,,
instruc_goal,6,41415,0.0-6.0-0.0,,null,run_exp/static/audio/clip_3_goal.m4a,null,"<p> As a space explorer, you’ll visit different planets to dig for space treasure, these pink gems.</p> <p> The more treasure you dig up, the more bonus money you’ll win! </p><br><br><p><img src='run_exp/static/images/task_images/pink_gem.jpg' height='300' width='auto'></p>",,,,,,,,,,,,,,,,,,,,,,
instruc_goal,7,44419,0.0-6.0-1.0,,3003.355,"<p> As a space explorer, you’ll visit different planets to dig for space treasure, these pink gems.</p> <p> The more treasure you dig up, the more bonus money you’ll win! </p><br><br><p><img src='run_exp/static/images/task_images/pink_gem.jpg' height='300' width='auto'></p>",,,,,,1,,,,,,,,,,,,,,,,,,
html-keyboard-response,8,45667,0.0-6.0-2.0,,1246.795,"<p> As a space explorer, you’ll visit different planets to dig for space treasure, these pink gems.</p> <p> The more treasure you dig up, the more bonus money you’ll win! </p><br><br><p><img src='run_exp/static/images/task_images/pink_gem.jpg' height='300' width='auto'></p><button class=""jspsych-html-btn-unchosen""><img src=""run_exp/static/images/task_images/planet-01.jpg"" height=""50""></button><button class=""jspsych-html-btn-chosen""><img src=""run_exp/static/images/task_images/planet-02.jpg"" height=""50""></button><p><b>[press the space bar to lock in your answer]<b><br></p>",32,,,,,,,,,,,,,,,,,,,,,,,
instruc_dig,9,61686,0.0-7.0-0.0,,null,run_exp/static/audio/clip_4_dig.m4a,null,,,,,,100,,,,,,,,,,,,,,,,,
instruc_dig_try,10,69136,0.0-7.0-1.0,,7449.46,"<p> When you’ve arrived at a new planet, you will dig once. </p> <p>Then, you get to decide if you want to stay on the planet and dig again or travel to a new planet and dig there.</p> <p> To stay and dig, press the letter <strong>‘A’</strong> on your keyboard. Try pressing it now! </p><p><img src='run_exp/static/images/task_images/land.jpg'  height='700' width='auto'></p>",65,"<p> When you’ve arrived at a new planet, you will dig once. </p> <p>Then, you get to decide if you want to stay on the planet and dig again or travel to a new planet and dig there.</p> <p> To stay and dig, press the letter <strong>‘A’</strong> on your keyboard. Try pressing it now! </p><p><img src='run_exp/static/images/task_images/land.jpg'  height='700' width='auto'></p>",,,,,100,,,,,,,,,,,,,,,,,
dig_prac,11,71144,0.0-7.0-2.0,,,,,,,,,,,"[{""stimulus"":""run_exp/static/images/task_images/dig.jpg"",""time"":0.21500000002561137},{""stimulus"":""run_exp/static/images/task_images/land.jpg"",""time"":672.5950000000012},{""stimulus"":""run_exp/static/images/task_images/dig.jpg"",""time"":1336.6900000000896}]",[],,,,,,,,,,,,,,,
instruc_travel,12,107382,0.0-7.0-3.0,,null,run_exp/static/audio/clip_5_travel.m4a,null,"<p>Every time you dig up gems, there are less gems on the planet, so the more you dig on a planet the fewer gems you’ll get with each dig.</p><p>When gems are running low, you may want to travel to a new planet. </p> <p>  Planets are very far apart in this galaxy, so it will take some time to travel between them. </p> <br><p>There are lots and lots of planets for you to visit, so you won’t be able to return to any planets you’ve seen before. </p><br><p>To leave this planet and travel to a new one, press the letter <strong>‘L’</strong> on your keyboard. Try pressing it now! </p><p><img src='run_exp/static/images/task_images/rocket-01.jpg'  height='600' width='auto'></p>",,,,,,,,,,,,,,,,,,,,,,
instruc_travel_try,13,107442,0.0-7.0-4.0,,58.8,"<p>Every time you dig up gems, there are less gems on the planet, so the more you dig on a planet the fewer gems you’ll get with each dig.</p><p>When gems are running low, you may want to travel to a new planet. </p> <p>  Planets are very far apart in this galaxy, so it will take some time to travel between them. </p> <br><p>There are lots and lots of planets for you to visit, so you won’t be able to return to any planets you’ve seen before. </p><br><p>To leave this planet and travel to a new one, press the letter <strong>‘L’</strong> on your keyboard. Try pressing it now! </p><p><img src='run_exp/static/images/task_images/rocket-01.jpg'  height='600' width='auto'></p>",76,"<p>Every time you dig up gems, there are less gems on the planet, so the more you dig on a planet the fewer gems you’ll get with each dig.</p><p>When gems are running low, you may want to travel to a new planet. </p> <p>  Planets are very far apart in this galaxy, so it will take some time to travel between them. </p> <br><p>There are lots and lots of planets for you to visit, so you won’t be able to return to any planets you’ve seen before. </p><br><p>To leave this planet and travel to a new one, press the letter <strong>‘L’</strong> on your keyboard. Try pressing it now! </p><p><img src='run_exp/static/images/task_images/rocket-01.jpg'  height='600' width='auto'></p>",,,,,,,,,,,,,,,,,,,,,,
travel_prac,14,117446,0.0-7.0-5.0,,,,,,,,,,,"[{""stimulus"":""run_exp/static/images/task_images/rocket-01.jpg"",""time"":0.18000000272877514},{""stimulus"":""run_exp/static/images/task_images/rocket-02.jpg"",""time"":1117.115000000922},{""stimulus"":""run_exp/static/images/task_images/rocket-03.jpg"",""time"":2228.1850000035774},{""stimulus"":""run_exp/static/images/task_images/rocket-04.jpg"",""time"":3336.36000000115},{""stimulus"":""run_exp/static/images/task_images/rocket-05.jpg"",""time"":4450.220000002446},{""stimulus"":""run_exp/static/images/task_images/rocket-06.jpg"",""time"":5558.585000002495},{""stimulus"":""run_exp/static/images/task_images/rocket-07.jpg"",""time"":6672.290000002249},{""stimulus"":""run_exp/static/images/task_images/rocket-08.jpg"",""time"":7777.975000000879},{""stimulus"":""run_exp/static/images/task_images/rocket-09.jpg"",""time"":8893.465000001015}]",[],0,,,,,,,,,,,,,,
instruc_alien_greet,15,144650,0.0-7.0-6.0,,null,run_exp/static/audio/clip_6_alien.m4a,null,"<p>When you arrive at a new planet, the alien who owns the treasure mine on that planet will greet you!</p><p>The better an alien takes care of their mine the easier it is to dig for gems. Some aliens take better care of their mine than others. So, you won’t get exactly the same amount of gems on each planet.</p><p>What the alien looks like does not tell you anything about how many gems there are on the planet.</p><br><p><img src=""run_exp/static/images/task_images/aliens/instructions_aliens/planet/alien_planet-1.jpg""  height=""600"" width=""auto""></p>",,,,,,,,,,,,,,,,,,,,,,
instruc_alien_greet,16,147010,0.0-7.0-7.0,,2336.125,"<p>When you arrive at a new planet, the alien who owns the treasure mine on that planet will greet you!</p><p>The better an alien takes care of their mine the easier it is to dig for gems. Some aliens take better care of their mine than others. So, you won’t get exactly the same amount of gems on each planet.</p><p>What the alien looks like does not tell you anything about how many gems there are on the planet.</p><br><p><img src=""run_exp/static/images/task_images/aliens/instructions_aliens/planet/alien_planet-1.jpg""  height=""600"" width=""auto""></p>",,,,,,1,,,,,,,,,,,,,,,,,,
html-keyboard-response,17,148979,0.0-7.0-8.0,,1968.18,"<p>When you arrive at a new planet, the alien who owns the treasure mine on that planet will greet you!</p><p>The better an alien takes care of their mine the easier it is to dig for gems. Some aliens take better care of their mine than others. So, you won’t get exactly the same amount of gems on each planet.</p><p>What the alien looks like does not tell you anything about how many gems there are on the planet.</p><br><p><img src=""run_exp/static/images/task_images/aliens/instructions_aliens/planet/alien_planet-1.jpg""  height=""600"" width=""auto""></p><button class=""jspsych-html-btn-unchosen""><img src=""run_exp/static/images/task_images/planet-01.jpg"" height=""50""></button><button class=""jspsych-html-btn-chosen""><img src=""run_exp/static/images/task_images/planet-02.jpg"" height=""50""></button><p><b>[press the space bar to lock in your answer]<b><br></p>",32,,,,,,,,,,,,,,,,,,,,,,,
time_out,18,160044,0.0-8.0-0.0,,null,run_exp/static/audio/clip_7_timeout.m4a,null,"<p>If you don't make your choice fast enough, you’ll have to wait a few seconds before you can make another one.</p><p>You can’t dig for more gems or travel to new planets. You just have to sit and wait.</p><br><p><img src='run_exp/static/images/task_images/time_out.jpg'  height='600' width='auto'></p>",,,,,,,,,,,,,,,,,,,,,,
time_out,19,161613,0.0-8.0-1.0,,1567.405,"<p>If you don't make your choice fast enough, you’ll have to wait a few seconds before you can make another one.</p><p>You can’t dig for more gems or travel to new planets. You just have to sit and wait.</p><br><p><img src='run_exp/static/images/task_images/time_out.jpg'  height='600' width='auto'></p>",,,,,,1,,,,,,,,,,,,,,,,,,
html-keyboard-response,20,162557,0.0-8.0-2.0,,942.885,"<p>If you don't make your choice fast enough, you’ll have to wait a few seconds before you can make another one.</p><p>You can’t dig for more gems or travel to new planets. You just have to sit and wait.</p><br><p><img src='run_exp/static/images/task_images/time_out.jpg'  height='600' width='auto'></p><button class=""jspsych-html-btn-unchosen""><img src=""run_exp/static/images/task_images/planet-01.jpg"" height=""50""></button><button class=""jspsych-html-btn-chosen""><img src=""run_exp/static/images/task_images/planet-02.jpg"" height=""50""></button><p><b>[press the space bar to lock in your answer]<b><br></p>",32,,,,,,,,,,,,,,,,,,,,,,,
instruc_break,21,178225,0.0-9.0-0.0,,null,run_exp/static/audio/clip_8_break.m4a,null,"<p> After digging and traveling for a while, you’ll be able to take a break at home base. </p><p>The game will last 20 minutes no matter what.</p><p>You will visit home base every 5 minutes, so, you will visit home base three times during the game.</p><br><p><img src='run_exp/static/images/task_images/home_base.jpg' height='600' width='auto'></p>",,,,,,,,,,,,,,,,,,,,,,
instruc_break,22,180379,0.0-9.0-1.0,,2151.585,"<p> After digging and traveling for a while, you’ll be able to take a break at home base. </p><p>The game will last 20 minutes no matter what.</p><p>You will visit home base every 5 minutes, so, you will visit home base three times during the game.</p><br><p><img src='run_exp/static/images/task_images/home_base.jpg' height='600' width='auto'></p>",,,,,,1,,,,,,,,,,,,,,,,,,
html-keyboard-response,23,180536,0.0-9.0-2.0,,156.065,"<p> After digging and traveling for a while, you’ll be able to take a break at home base. </p><p>The game will last 20 minutes no matter what.</p><p>You will visit home base every 5 minutes, so, you will visit home base three times during the game.</p><br><p><img src='run_exp/static/images/task_images/home_base.jpg' height='600' width='auto'></p><button class=""jspsych-html-btn-unchosen""><img src=""run_exp/static/images/task_images/planet-01.jpg"" height=""50""></button><button class=""jspsych-html-btn-chosen""><img src=""run_exp/static/images/task_images/planet-02.jpg"" height=""50""></button><p><b>[press the space bar to lock in your answer]<b><br></p>",32,,,,,,,,,,,,,,,,,,,,,,,
instruc_prac_game,24,190671,0.0-10.0-0.0,,null,run_exp/static/audio/clip_9_practice.m4a,null,"<p> Are you ready to play a practice game? </p> <p>In this practice game, you'll be digging up barrels of gems. But, in the real game, you'll be digging up the gems themselves. </p>",,,,,,,,,,,,,,,,,,,,,,
html-button-response,25,192382,0.0-10.0-1.0,,1709.82,"<p> Are you ready to play a practice game? </p> <p>In this practice game, you'll be digging up barrels of gems. But, in the real game, you'll be digging up the gems themselves. </p>",,,,,,0,,,,,,,,,,,,,,,,,,
alien_welcome_prac,26,197386,0.0-11.0-0.0,,null,run_exp/static/images/task_images/aliens/practice_aliens/planet/alien_planet-5.jpg,null,,,,,,,,,,,,,,,,,,,,,,,
land_prac,27,197891,0.0-11.0-1.0,,null,run_exp/static/images/task_images/land.jpg,null,,,,,,102,,,0,,,,,,,,,,,,,,
dig_prac,28,199895,0.0-11.0-2.0,,,,,,,,,,,"[{""stimulus"":""run_exp/static/images/task_images/dig.jpg"",""time"":0.2100000019709114},{""stimulus"":""run_exp/static/images/task_images/land.jpg"",""time"":667.8949999986799},{""stimulus"":""run_exp/static/images/task_images/dig.jpg"",""time"":1335.2450000020326}]",[],,,,,,,,,,,,,,,
harvest_prac,29,200897,0.0-11.0-3.0,,null,run_exp/static/images/task_images/barrel_text.jpg,null,,,,,,,,,,,,,,,,,,,,,,,
decision_prac,30,201900,0.0-11.0-4.0,,1001.46,run_exp/static/images/task_images/land.jpg,65,,,,,,,,,,1,,,,,,,,,,,,,
dig_prac,31,203903,0.0-12.0-0.0,,,,,,,,,,,"[{""stimulus"":""run_exp/static/images/task_images/dig.jpg"",""time"":0.12000000060652383},{""stimulus"":""run_exp/static/images/task_images/land.jpg"",""time"":670.7400000013877},{""stimulus"":""run_exp/static/images/task_images/dig.jpg"",""time"":1338.0949999991572}]",[],,,,,,,,,,,,,,,
harvest_prac,32,204905,0.0-12.0-1.0,,null,run_exp/static/images/task_images/barrel_text.jpg,null,,,,,,,,,,,,,,,,,,,,,,,
decision_prac,33,206333,0.0-12.0-2.0,,1426.92,run_exp/static/images/task_images/land.jpg,65,,,,,,,,,,2,,,,,,,,,,,,,
dig_prac,34,208339,0.0-13.0-0.0,,,,,,,,,,,"[{""stimulus"":""run_exp/static/images/task_images/dig.jpg"",""time"":0.12000000060652383},{""stimulus"":""run_exp/static/images/task_images/land.jpg"",""time"":671.3349999990896},{""stimulus"":""run_exp/static/images/task_images/dig.jpg"",""time"":1335.5200000005425}]",[],,,,,,,,,,,,,,,
harvest_prac,35,209343,0.0-13.0-1.0,,null,run_exp/static/images/task_images/barrel_text.jpg,null,,,,,,,,,,,,,,,,,,,,,,,
decision_prac,36,210652,0.0-13.0-2.0,,1308.215,run_exp/static/images/task_images/land.jpg,65,,,,,,,,,,3,,,,,,,,,,,,,
dig_prac,37,212660,0.0-14.0-0.0,,,,,,,,,,,"[{""stimulus"":""run_exp/static/images/task_images/dig.jpg"",""time"":0.1049999991664663},{""stimulus"":""run_exp/static/images/task_images/land.jpg"",""time"":673.0300000017451},{""stimulus"":""run_exp/static/images/task_images/dig.jpg"",""time"":1339.9800000006508}]",[],,,,,,,,,,,,,,,
harvest_prac,38,213666,0.0-14.0-1.0,,null,run_exp/static/images/task_images/barrel_text.jpg,null,,,,,,,,,,,,,,,,,,,,,,,
decision_prac,39,214556,0.0-14.0-2.0,,888.93,run_exp/static/images/task_images/land.jpg,65,,,,,,,,,,4,,,,,,,,,,,,,
dig_prac,40,216559,0.0-15.0-0.0,,,,,,,,,,,"[{""stimulus"":""run_exp/static/images/task_images/dig.jpg"",""time"":0.1049999991664663},{""stimulus"":""run_exp/static/images/task_images/land.jpg"",""time"":673.0349999997998},{""stimulus"":""run_exp/static/images/task_images/dig.jpg"",""time"":1338.7599999987287}]",[],,,,,,,,,,,,,,,
harvest_prac,41,217563,0.0-15.0-1.0,,null,run_exp/static/images/task_images/barrel_text.jpg,null,,,,,,,,,,,,,,,,,,,,,,,
decision_prac,42,218483,0.0-15.0-2.0,,918.255,run_exp/static/images/task_images/land.jpg,65,,,,,,,,,,,1,,,,,,,,,,,,
quiz_instruc,43,227922,0.0-16.0-0.0,,9437.85,run_exp/static/audio/clip_10_quiz.m4a,,,,,,0,,,,,,,,,,,,,,,,,,
instruc_repeat,44,272381,0.0-16.0-1.0,,null,"<p> Are you ready to play a practice game? </p> <p>In this practice game, you'll be digging up barrels of gems. But, in the real game, you'll be digging up the gems themselves. </p>",null,"<p>In this game, your goal is to collect as many gems as you can. That’s how you will win bonus money. </p> <p>The entire game will last 20 minutes no matter how many gems you collect or how many planets you visit. </p><p>To stay on a planet and dig again, press the letter A on your keyboard. To leave for a new planet, press the letter L.</p><p>The more you dig on a planet, the fewer gems you’ll get with each dig which is why you might consider leaving for a new planet. </p><p>When you arrive at a new planet, you’ll be greeted by an alien. What the alien looks like does not tell you anything about how much treasure is on the planet. </p>",,,,,,,,,,,,,,,,,,,,,,
instruc_repeat_continue,45,274374,0.0-16.0-2.0,,1991.43,"<p> Are you ready to play a practice game? </p> <p>In this practice game, you'll be digging up barrels of gems. But, in the real game, you'll be digging up the gems themselves. </p>",,,,,,0,,,,,,,,,,,,,,,,,,
quiz_q_1_ask,46,277175,0.0-16.0-3.0,,2800.435,run_exp/static/audio/clip_11_q1_ask.m4a,,,,,,2,,,,,,,,,,,,,,,,,,
quiz_q_1_fb_correct,47,281042,0.0-17.0-0.0,,null,run_exp/static/audio/clip_12_q1_corrrect.m4a,null,<p>That’s correct. You win extra money by collecting more gems.</p>,,,,,,,,,,,,,,,,,,,,,,
quiz_q_2_ask,48,284522,0.0-17.0-1.0,,3478.36,run_exp/static/audio/clip_14_q2_ask.m4a,,,,,,1,,,,,,,,,,,,,,,,,,
quiz_q_2_fb_correct,49,288496,0.0-18.0-0.0,,null,run_exp/static/audio/clip_15_q2_correct.m4a,null,<p>That’s correct. The experiment is 20 minutes no matter what.</p>,,,,,,,,,,,,,,,,,,,,,,
quiz_q_3_ask,50,291283,0.0-18.0-1.0,,2786.53,run_exp/static/audio/clip_17_q3_ask.m4a,,,,,,1,,,,,,,,,,,,,,,,,,
quiz_q_3_fb_correct,51,295276,0.0-19.0-0.0,,null,run_exp/static/audio/clip_18_q3_correct.m4a,null,<p> That’s correct. You press the letter L to travel to a new planet.</p>,,,,,,,,,,,,,,,,,,,,,,
quiz_q_4_ask,52,299811,0.0-19.0-1.0,,4533.865,run_exp/static/audio/clip_20_q4_ask.m4a,,,,,,0,,,,,,,,,,,,,,,,,,
quiz_q_4_fb_correct,53,305144,0.0-20.0-0.0,,null,run_exp/static/audio/clip_21_q4_correct.m4a,null,<p> That’s correct. The more you dig on a planet the fewer gems you’ll get with each dig. </p>,,,,,,,,,,,,,,,,,,,,,,
quiz_q_5_ask,54,310454,0.0-20.0-1.0,,5308.385,run_exp/static/audio/clip_23_q5_ask.m4a,,,,,,1,,,,,,,,,,,,,,,,,,
quiz_q_5_fb_correct,55,315454,0.0-21.0-0.0,,null,run_exp/static/audio/clip_24_q5_correct.m4a,null,<p> That’s correct. The alien tells you nothing about how much treasure is on the planet.</p>,,,,,,,,,,,,,,,,,,,,,,
quiz_correct,56,318891,0.0-22.0-0.0,,null,run_exp/static/audio/clip_26_correct_quiz.m4a,null,,,,,,,,,,,,,,,,,,,,,,,
quiz_correct_continue,57,320297,0.0-22.0-1.0,,1405.675,<p>Good job! You're now ready to move on to the real game!</p>,,,,,,0,,,,,,,,,,,,,,,,,,
audio-keyboard-response,58,330431,0.0-22.0-2.0,,null,run_exp/static/audio/clip_28_real_game.m4a,null,,,,,,,,,,,,,,,,,,,,,,,
instruc_begin_exp_contine,59,332560,0.0-22.0-3.0,,2128.33,"<p>Now that you know how  to dig for space treasure and travel to new planets,you can start exploring! </p><p>Do you want to go over the instructions again or get started with the real game?</p>",,,,,,1,,,,,,1,,,,,,,,,,,,
alien_welcome,60,337565,0.0-23.0-0.0,,null,run_exp/static/images/task_images/aliens/old_aliens/planet/alien_planet-1.jpg,null,,,,,,,,,,,,1,"1,50,74,28,3,2,60,6,40,51,71,49,52,30,12,72,9,7,58,41,39,79,43,27,35,67,62,78,80,18,42,53,59,4,33,69",,,,,,,,,,
land,61,338068,0.0-23.0-1.0,,null,run_exp/static/images/task_images/land.jpg,null,,,,,,105,,,1,,,,,,,,,,,,,,
dig,62,340076,0.0-23.0-2.0,,,,,,,,,,,"[{""stimulus"":""run_exp/static/images/task_images/dig.jpg"",""time"":0.14999999984866008},{""stimulus"":""run_exp/static/images/task_images/land.jpg"",""time"":671.8550000005052},{""stimulus"":""run_exp/static/images/task_images/dig.jpg"",""time"":1340.0450000007986}]",[],1,,,,,,,,,,,,,,
harvest,63,341082,0.0-23.0-3.0,,null,run_exp/static/images/task_images/gems/105.jpg,null,,,,,,24,,,1,,,,,105,0.224836995,0.228571429,,,,,,,
decision,64,341662,0.0-23.0-4.0,,578.32,run_exp/static/images/task_images/land.jpg,65,,,,,,24,,,1,,,,,,,,9101,1,0,FALSE,,,
dig,65,344086,0.0-24.0-0.0,,,,,,,,,,,"[{""stimulus"":""run_exp/static/images/task_images/dig.jpg"",""time"":0.12000000057742},{""stimulus"":""run_exp/static/images/task_images/land.jpg"",""time"":808.7750000013039},{""stimulus"":""run_exp/static/images/task_images/dig.jpg"",""time"":1619.9049999995623}]",[],1,,,,,,,,,,,,,,
harvest,66,345087,0.0-24.0-1.0,,null,run_exp/static/images/task_images/gems/24.jpg,null,,,,,,3,,,1,,,,,24,0.104192494,0.125,,,,,,,
decision,67,345667,0.0-24.0-2.0,,578.805,run_exp/static/images/task_images/land.jpg,65,,,,,,3,,,1,,,,,,,,13106,1,1,FALSE,,,
dig,68,348093,0.0-25.0-0.0,,,,,,,,,,,"[{""stimulus"":""run_exp/static/images/task_images/dig.jpg"",""time"":0.1049999991664663},{""stimulus"":""run_exp/static/images/task_images/land.jpg"",""time"":812.9000000008382},{""stimulus"":""run_exp/static/images/task_images/dig.jpg"",""time"":1618.0899999999674}]",[],1,,,,,,,,,,,,,,
harvest,69,349097,0.0-25.0-1.0,,null,run_exp/static/images/task_images/gems/3.jpg,null,,,,,,1,,,1,,,,,3,0.248120096,0.333333333,,,,,,,
decision,70,350088,0.0-25.0-2.0,,989.485,run_exp/static/images/task_images/land.jpg,76,,,,,,1,,,1,,,,,,,,17527,1,2,TRUE,,,
travel,71,359104,0.0-26.0-0.0,,,,,,,,,,,"[{""stimulus"":""run_exp/static/images/task_images/rocket-01.jpg"",""time"":0.11000000085914508},{""stimulus"":""run_exp/static/images/task_images/rocket-02.jpg"",""time"":1005.410000001546},{""stimulus"":""run_exp/static/images/task_images/rocket-03.jpg"",""time"":2003.2900000005611},{""stimulus"":""run_exp/static/images/task_images/rocket-04.jpg"",""time"":3008.8900000009453},{""stimulus"":""run_exp/static/images/task_images/rocket-05.jpg"",""time"":4006.0750000011176},{""stimulus"":""run_exp/static/images/task_images/rocket-06.jpg"",""time"":5005.685000000056},{""stimulus"":""run_exp/static/images/task_images/rocket-07.jpg"",""time"":6010.21000000037},{""stimulus"":""run_exp/static/images/task_images/rocket-08.jpg"",""time"":7010.054999998829},{""stimulus"":""run_exp/static/images/task_images/rocket-09.jpg"",""time"":8012.249999999767}]",[],1,,,,,,,,,,,,,,
alien_welcome,72,364111,0.0-26.0-1.0,,null,run_exp/static/images/task_images/aliens/old_aliens/planet/alien_planet-50.jpg,null,,,,,,,,,,,,50,"1,50,74,28,3,2,60,6,40,51,71,49,52,30,12,72,9,7,58,41,39,79,43,27,35,67,62,78,80,18,42,53,59,4,33,69",,,,,,,,,,
land,73,364616,0.0-26.0-2.0,,null,run_exp/static/images/task_images/land.jpg,null,,,,,,109,,,2,,,,,,,,,,,,,,
dig,74,366624,0.0-26.0-3.0,,,,,,,,,,,"[{""stimulus"":""run_exp/static/images/task_images/dig.jpg"",""time"":0.21500000002561137},{""stimulus"":""run_exp/static/images/task_images/land.jpg"",""time"":672.5950000000303},{""stimulus"":""run_exp/static/images/task_images/dig.jpg"",""time"":1337.9150000000955}]",[],2,,,,,,,,,,,,,,
harvest,75,367628,0.0-26.0-4.0,,null,run_exp/static/images/task_images/gems/109.jpg,null,,,,,,24,,,2,,,,,109,0.21984129,0.220183486,,,,,,,
decision,76,369067,0.0-26.0-5.0,,1437.74,run_exp/static/images/task_images/land.jpg,65,,,,,,24,,,2,,,,,,,,36506,1,0,FALSE,,,
dig,77,370634,0.0-27.0-0.0,,,,,,,,,,,"[{""stimulus"":""run_exp/static/images/task_images/dig.jpg"",""time"":0.15500000154133886},{""stimulus"":""run_exp/static/images/task_images/land.jpg"",""time"":524.8850000025122},{""stimulus"":""run_exp/static/images/task_images/dig.jpg"",""time"":1043.9450000012876}]",[],2,,,,,,,,,,,,,,
harvest,78,371638,0.0-27.0-1.0,,null,run_exp/static/images/task_images/gems/24.jpg,null,,,,,,6,,,2,,,,,24,0.257851494,0.25,,,,,,,
decision,79,372779,0.0-27.0-2.0,,1140.635,run_exp/static/images/task_images/land.jpg,65,,,,,,6,,,2,,,,,,,,40219,1,1,FALSE,,,
dig,80,374642,0.0-28.0-0.0,,,,,,,,,,,"[{""stimulus"":""run_exp/static/images/task_images/dig.jpg"",""time"":0.10000000114087015},{""stimulus"":""run_exp/static/images/task_images/land.jpg"",""time"":619.8850000000675},{""stimulus"":""run_exp/static/images/task_images/dig.jpg"",""time"":1241.1499999980442}]",[],2,,,,,,,,,,,,,,
harvest,81,375645,0.0-28.0-1.0,,null,run_exp/static/images/task_images/gems/6.jpg,null,,,,,,1,,,2,,,,,6,0.223125816,0.166666667,,,,,,,
decision,82,375783,0.0-28.0-2.0,,137.365,run_exp/static/images/task_images/land.jpg,76,,,,,,1,,,2,,,,,,,,43222,1,2,TRUE,,,
travel,83,385645,0.0-29.0-0.0,,,,,,,,,,,"[{""stimulus"":""run_exp/static/images/task_images/rocket-01.jpg"",""time"":0.1049999991664663},{""stimulus"":""run_exp/static/images/task_images/rocket-02.jpg"",""time"":1097.8499999982887},{""stimulus"":""run_exp/static/images/task_images/rocket-03.jpg"",""time"":2193.7749999997322},{""stimulus"":""run_exp/static/images/task_images/rocket-04.jpg"",""time"":3290.7000000014086},{""stimulus"":""run_exp/static/images/task_images/rocket-05.jpg"",""time"":4380.675000000338},{""stimulus"":""run_exp/static/images/task_images/rocket-06.jpg"",""time"":5478.1849999999395},{""stimulus"":""run_exp/static/images/task_images/rocket-07.jpg"",""time"":6574.6299999991315},{""stimulus"":""run_exp/static/images/task_images/rocket-08.jpg"",""time"":7670.999999998428},{""stimulus"":""run_exp/static/images/task_images/rocket-09.jpg"",""time"":8762.660000000324}]",[],2,,,,,,,,,,,,,,
alien_welcome,84,390652,0.0-29.0-1.0,,null,run_exp/static/images/task_images/aliens/old_aliens/planet/alien_planet-74.jpg,null,,,,,,,,,,,,74,"1,50,74,28,3,2,60,6,40,51,71,49,52,30,12,72,9,7,58,41,39,79,43,27,35,67,62,78,80,18,42,53,59,4,33,69",,,,,,,,,,
land,85,391158,0.0-29.0-2.0,,null,run_exp/static/images/task_images/land.jpg,null,,,,,,97,,,3,,,,,,,,,,,,,,
dig,86,393166,0.0-29.0-3.0,,,,,,,,,,,"[{""stimulus"":""run_exp/static/images/task_images/dig.jpg"",""time"":0.14999999979045242},{""stimulus"":""run_exp/static/images/task_images/land.jpg"",""time"":670.5199999996694},{""stimulus"":""run_exp/static/images/task_images/dig.jpg"",""time"":1334.8049999985378}]",[],3,,,,,,,,,,,,,,
harvest,87,394168,0.0-29.0-4.0,,null,run_exp/static/images/task_images/gems/97.jpg,null,,,,,,50,,,3,,,,,97,0.519456828,0.515463918,,,,,,,
decision,88,395043,0.0-29.0-5.0,,874.805,run_exp/static/images/task_images/land.jpg,65,,,,,,50,,,3,,,,,,,,62482,1,0,FALSE,,,
dig,89,397174,0.0-30.0-0.0,,,,,,,,,,,"[{""stimulus"":""run_exp/static/images/task_images/dig.jpg"",""time"":0.1049999991664663},{""stimulus"":""run_exp/static/images/task_images/land.jpg"",""time"":713.8999999988009},{""stimulus"":""run_exp/static/images/task_images/dig.jpg"",""time"":1421.889999997802}]",[],3,,,,,,,,,,,,,,
harvest,90,398178,0.0-30.0-1.0,,null,run_exp/static/images/task_images/gems/50.jpg,null,,,,,,27,,,3,,,,,50,0.537434675,0.54,,,,,,,
decision,91,398250,0.0-30.0-2.0,,70.56,run_exp/static/images/task_images/land.jpg,76,,,,,,27,,,3,,,,,,,,65689,1,1,TRUE,,,
travel,92,408181,0.0-31.0-0.0,,,,,,,,,,,"[{""stimulus"":""run_exp/static/images/task_images/rocket-01.jpg"",""time"":0.1049999991664663},{""stimulus"":""run_exp/static/images/task_images/rocket-02.jpg"",""time"":1104.8300000002491},{""stimulus"":""run_exp/static/images/task_images/rocket-03.jpg"",""time"":2207.490000000689},{""stimulus"":""run_exp/static/images/task_images/rocket-04.jpg"",""time"":3311.2750000000233},{""stimulus"":""run_exp/static/images/task_images/rocket-05.jpg"",""time"":4414.915000001201},{""stimulus"":""run_exp/static/images/task_images/rocket-06.jpg"",""time"":5517.700000000361},{""stimulus"":""run_exp/static/images/task_images/rocket-07.jpg"",""time"":6619.2249999985215},{""stimulus"":""run_exp/static/images/task_images/rocket-08.jpg"",""time"":7727.119999999588},{""stimulus"":""run_exp/static/images/task_images/rocket-09.jpg"",""time"":8826.515000000654}]",[],3,,,,,,,,,,,,,,
alien_welcome,93,413185,0.0-31.0-1.0,,null,run_exp/static/images/task_images/aliens/old_aliens/planet/alien_planet-28.jpg,null,,,,,,,,,,,,28,"1,50,74,28,3,2,60,6,40,51,71,49,52,30,12,72,9,7,58,41,39,79,43,27,35,67,62,78,80,18,42,53,59,4,33,69",,,,,,,,,,
land,94,413692,0.0-31.0-2.0,,null,run_exp/static/images/task_images/land.jpg,null,,,,,,92,,,4,,,,,,,,,,,,,,
dig,95,415696,0.0-31.0-3.0,,,,,,,,,,,"[{""stimulus"":""run_exp/static/images/task_images/dig.jpg"",""time"":0.20500000030733645},{""stimulus"":""run_exp/static/images/task_images/land.jpg"",""time"":669.0650000019232},{""stimulus"":""run_exp/static/images/task_images/dig.jpg"",""time"":1336.784999999567}]",[],4,,,,,,,,,,,,,,
harvest,96,416698,0.0-31.0-4.0,,null,run_exp/static/images/task_images/gems/92.jpg,null,,,,,,44,,,4,,,,,92,0.483509344,0.47826087,,,,,,,
decision,97,417510,0.0-31.0-5.0,,811.36,run_exp/static/images/task_images/land.jpg,65,,,,,,44,,,4,,,,,,,,84950,1,0,FALSE,,,
dig,98,419704,0.0-32.0-0.0,,,,,,,,,,,"[{""stimulus"":""run_exp/static/images/task_images/dig.jpg"",""time"":0.13499999843770638},{""stimulus"":""run_exp/static/images/task_images/land.jpg"",""time"":731.9549999993178},{""stimulus"":""run_exp/static/images/task_images/dig.jpg"",""time"":1458.7849999989267}]",[],4,,,,,,,,,,,,,,
harvest,99,420708,0.0-32.0-1.0,,null,run_exp/static/images/task_images/gems/44.jpg,null,,,,,,25,,,4,,,,,44,0.563968112,0.568181818,,,,,,,
decision,100,421088,0.0-32.0-2.0,,378.185,run_exp/static/images/task_images/land.jpg,76,,,,,,25,,,4,,,,,,,,88527,1,1,TRUE,,,
travel,101,430714,0.0-33.0-0.0,,,,,,,,,,,"[{""stimulus"":""run_exp/static/images/task_images/rocket-01.jpg"",""time"":0.1049999991664663},{""stimulus"":""run_exp/static/images/task_images/rocket-02.jpg"",""time"":1074.880000000121},{""stimulus"":""run_exp/static/images/task_images/rocket-03.jpg"",""time"":2143.88500000129},{""stimulus"":""run_exp/static/images/task_images/rocket-04.jpg"",""time"":3212.980000000214},{""stimulus"":""run_exp/static/images/task_images/rocket-05.jpg"",""time"":4277.780000000319},{""stimulus"":""run_exp/static/images/task_images/rocket-06.jpg"",""time"":5350.965000001423},{""stimulus"":""run_exp/static/images/task_images/rocket-07.jpg"",""time"":6419.9699999989825},{""stimulus"":""run_exp/static/images/task_images/rocket-08.jpg"",""time"":7488.915000001667},{""stimulus"":""run_exp/static/images/task_images/rocket-09.jpg"",""time"":8556.304999998189}]",[],4,,,,,,,,,,,,,,
alien_welcome,102,435721,0.0-33.0-1.0,,null,run_exp/static/images/task_images/aliens/old_aliens/planet/alien_planet-3.jpg,null,,,,,,,,,,,,3,"1,50,74,28,3,2,60,6,40,51,71,49,52,30,12,72,9,7,58,41,39,79,43,27,35,67,62,78,80,18,42,53,59,4,33,69",,,,,,,,,,
land,103,436223,0.0-33.0-2.0,,null,run_exp/static/images/task_images/land.jpg,null,,,,,,95,,,5,,,,,,,,,,,,,,
dig,104,438225,0.0-33.0-3.0,,,,,,,,,,,"[{""stimulus"":""run_exp/static/images/task_images/dig.jpg"",""time"":0.15499999793246388},{""stimulus"":""run_exp/static/images/task_images/land.jpg"",""time"":669.129999998433},{""stimulus"":""run_exp/static/images/task_images/dig.jpg"",""time"":1340.024999997695}]",[],5,,,,,,,,,,,,,,
harvest,105,439230,0.0-33.0-4.0,,null,run_exp/static/images/task_images/gems/95.jpg,null,,,,,,50,,,5,,,,,95,0.526248142,0.526315789,,,,,,,
decision,106,439684,0.0-33.0-5.0,,453.22,run_exp/static/images/task_images/land.jpg,65,,,,,,50,,,5,,,,,,,,107123,1,0,FALSE,,,
dig,107,442233,0.0-34.0-0.0,,,,,,,,,,,"[{""stimulus"":""run_exp/static/images/task_images/dig.jpg"",""time"":0.09999999741557986},{""stimulus"":""run_exp/static/images/task_images/land.jpg"",""time"":851.520000000135},{""stimulus"":""run_exp/static/images/task_images/dig.jpg"",""time"":1701.9849999996368}]",[],5,,,,,,,,,,,,,,
harvest,108,443239,0.0-34.0-1.0,,null,run_exp/static/images/task_images/gems/50.jpg,null,,,,,,27,,,5,,,,,50,0.531397811,0.54,,,,,,,
decision,109,443532,0.0-34.0-2.0,,292.05,run_exp/static/images/task_images/land.jpg,65,,,,,,27,,,5,,,,,,,,110971,1,1,FALSE,,,
dig,110,446245,0.0-35.0-0.0,,,,,,,,,,,"[{""stimulus"":""run_exp/static/images/task_images/dig.jpg"",""time"":0.11000000091735274},{""stimulus"":""run_exp/static/images/task_images/land.jpg"",""time"":905.2950000005076},{""stimulus"":""run_exp/static/images/task_images/dig.jpg"",""time"":1810.0200000008335}]",[],5,,,,,,,,,,,,,,
harvest,111,447248,0.0-35.0-1.0,,null,run_exp/static/images/task_images/gems/27.jpg,null,,,,,,14,,,5,,,,,27,0.52524119,0.518518519,,,,,,,
decision,112,447548,0.0-35.0-2.0,,298.58,run_exp/static/images/task_images/land.jpg,76,,,,,,14,,,5,,,,,,,,114987,1,2,TRUE,,,
travel,113,457244,0.0-36.0-0.0,,,,,,,,,,,"[{""stimulus"":""run_exp/static/images/task_images/rocket-01.jpg"",""time"":0.17499999736901373},{""stimulus"":""run_exp/static/images/task_images/rocket-02.jpg"",""time"":1083.0599999971455},{""stimulus"":""run_exp/static/images/task_images/rocket-03.jpg"",""time"":2157.084999998915},{""stimulus"":""run_exp/static/images/task_images/rocket-04.jpg"",""time"":3236.874999998661},{""stimulus"":""run_exp/static/images/task_images/rocket-05.jpg"",""time"":4308.899999999965},{""stimulus"":""run_exp/static/images/task_images/rocket-06.jpg"",""time"":5387.804999998421},{""stimulus"":""run_exp/static/images/task_images/rocket-07.jpg"",""time"":6466.6999999971595},{""stimulus"":""run_exp/static/images/task_images/rocket-08.jpg"",""time"":7544.669999999285},{""stimulus"":""run_exp/static/images/task_images/rocket-09.jpg"",""time"":8622.084999999031}]",[],5,,,,,,,,,,,,,,
alien_welcome,114,462248,0.0-36.0-1.0,,null,run_exp/static/images/task_images/aliens/old_aliens/planet/alien_planet-2.jpg,null,,,,,,,,,,,,2,"1,50,74,28,3,2,60,6,40,51,71,49,52,30,12,72,9,7,58,41,39,79,43,27,35,67,62,78,80,18,42,53,59,4,33,69",,,,,,,,,,
land,115,462755,0.0-36.0-2.0,,null,run_exp/static/images/task_images/land.jpg,null,,,,,,104,,,6,,,,,,,,,,,,,,
dig,116,464763,0.0-36.0-3.0,,,,,,,,,,,"[{""stimulus"":""run_exp/static/images/task_images/dig.jpg"",""time"":0.1749999974272214},{""stimulus"":""run_exp/static/images/task_images/land.jpg"",""time"":672.9549999982119},{""stimulus"":""run_exp/static/images/task_images/dig.jpg"",""time"":1337.1599999991595}]",[],6,,,,,,,,,,,,,,
harvest,117,465764,0.0-36.0-4.0,,null,run_exp/static/images/task_images/gems/104.jpg,null,,,,,,89,,,6,,,,,104,0.859484264,0.855769231,,,,,,,
decision,118,468766,0.0-36.0-5.0,,null,run_exp/static/images/task_images/land.jpg,null,,,,,,89,,,6,,,,,,,,136205,1,0,FALSE,,,
time_out,119,470769,0.0-37.0-0.0,,null,run_exp/static/images/task_images/time_out.jpg,null,,,,,,89,,,,,,,,,,,,,,,,,
decision,120,470881,0.0-37.0-1.0,,111.51,run_exp/static/images/task_images/land.jpg,65,,,,,,89,,,6,,,,,,,,138320,1,0,FALSE,,,
dig,121,473775,0.0-38.0-0.0,,,,,,,,,,,"[{""stimulus"":""run_exp/static/images/task_images/dig.jpg"",""time"":0.1049999991664663},{""stimulus"":""run_exp/static/images/task_images/land.jpg"",""time"":967.94999999844},{""stimulus"":""run_exp/static/images/task_images/dig.jpg"",""time"":1929.904999997234}]",[],6,,,,,,,,,,,,,,
harvest,122,474777,0.0-38.0-1.0,,null,run_exp/static/images/task_images/gems/89.jpg,null,,,,,,69,,,6,,,,,89,0.770635184,0.775280899,,,,,,,
decision,123,475471,0.0-38.0-2.0,,693.245,run_exp/static/images/task_images/land.jpg,65,,,,,,69,,,6,,,,,,,,142910,1,1,FALSE,,,
dig,124,477781,0.0-39.0-0.0,,,,,,,,,,,"[{""stimulus"":""run_exp/static/images/task_images/dig.jpg"",""time"":0.11500000255182385},{""stimulus"":""run_exp/static/images/task_images/land.jpg"",""time"":770.7050000026356},{""stimulus"":""run_exp/static/images/task_images/dig.jpg"",""time"":1539.9250000009197}]",[],6,,,,,,,,,,,,,,
harvest,125,478782,0.0-39.0-1.0,,null,run_exp/static/images/task_images/gems/69.jpg,null,,,,,,56,,,6,,,,,69,0.805927205,0.811594203,,,,,,,
decision,126,478880,0.0-39.0-2.0,,97.535,run_exp/static/images/task_images/land.jpg,76,,,,,,56,,,6,,,,,,,,146319,1,2,TRUE,,,
travel,127,488788,0.0-40.0-0.0,,,,,,,,,,,"[{""stimulus"":""run_exp/static/images/task_images/rocket-01.jpg"",""time"":0.1400000000721775},{""stimulus"":""run_exp/static/images/task_images/rocket-02.jpg"",""time"":1106.019999999262},{""stimulus"":""run_exp/static/images/task_images/rocket-03.jpg"",""time"":2205.1849999988917},{""stimulus"":""run_exp/static/images/task_images/rocket-04.jpg"",""time"":3302.4699999987497},{""stimulus"":""run_exp/static/images/task_images/rocket-05.jpg"",""time"":4404.20499999891},{""stimulus"":""run_exp/static/images/task_images/rocket-06.jpg"",""time"":5506.11000000214},{""stimulus"":""run_exp/static/images/task_images/rocket-07.jpg"",""time"":6606.025000001013},{""stimulus"":""run_exp/static/images/task_images/rocket-08.jpg"",""time"":7701.114999999816},{""stimulus"":""run_exp/static/images/task_images/rocket-09.jpg"",""time"":8806.055000000924}]",[],6,,,,,,,,,,,,,,
alien_welcome,128,493795,0.0-40.0-1.0,,null,run_exp/static/images/task_images/aliens/old_aliens/planet/alien_planet-60.jpg,null,,,,,,,,,,,,60,"1,50,74,28,3,2,60,6,40,51,71,49,52,30,12,72,9,7,58,41,39,79,43,27,35,67,62,78,80,18,42,53,59,4,33,69",,,,,,,,,,
land,129,494301,0.0-40.0-2.0,,null,run_exp/static/images/task_images/land.jpg,null,,,,,,104,,,7,,,,,,,,,,,,,,
dig,130,496309,0.0-40.0-3.0,,,,,,,,,,,"[{""stimulus"":""run_exp/static/images/task_images/dig.jpg"",""time"":0.14000000013038516},{""stimulus"":""run_exp/static/images/task_images/land.jpg"",""time"":669.4100000022445},{""stimulus"":""run_exp/static/images/task_images/dig.jpg"",""time"":1337.2600000002421}]",[],7,,,,,,,,,,,,,,
harvest,131,497311,0.0-40.0-4.0,,null,run_exp/static/images/task_images/gems/104.jpg,null,,,,,,84,,,7,,,,,104,0.803100131,0.807692308,,,,,,,
decision,132,497747,0.0-40.0-5.0,,434.51,run_exp/static/images/task_images/land.jpg,65,,,,,,84,,,7,,,,,,,,165186,1,0,FALSE,,,
dig,133,500318,0.0-41.0-0.0,,,,,,,,,,,"[{""stimulus"":""run_exp/static/images/task_images/dig.jpg"",""time"":0.10499999905005097},{""stimulus"":""run_exp/static/images/task_images/land.jpg"",""time"":856.0849999993807},{""stimulus"":""run_exp/static/images/task_images/dig.jpg"",""time"":1712.1899999983143}]",[],7,,,,,,,,,,,,,,
harvest,134,501323,0.0-41.0-1.0,,null,run_exp/static/images/task_images/gems/84.jpg,null,,,,,,68,,,7,,,,,84,0.803830903,0.80952381,,,,,,,
decision,135,501605,0.0-41.0-2.0,,281.315,run_exp/static/images/task_images/land.jpg,65,,,,,,68,,,7,,,,,,,,169045,1,1,FALSE,,,
dig,136,504330,0.0-42.0-0.0,,,,,,,,,,,"[{""stimulus"":""run_exp/static/images/task_images/dig.jpg"",""time"":0.11500000255182385},{""stimulus"":""run_exp/static/images/task_images/land.jpg"",""time"":911.660000001546},{""stimulus"":""run_exp/static/images/task_images/dig.jpg"",""time"":1817.7649999997811}]",[],7,,,,,,,,,,,,,,
harvest,137,505336,0.0-42.0-1.0,,null,run_exp/static/images/task_images/gems/68.jpg,null,,,,,,58,,,7,,,,,68,0.856054391,0.852941176,,,,,,,
decision,138,505352,0.0-42.0-2.0,,14.69,run_exp/static/images/task_images/land.jpg,65,,,,,,58,,,7,,,,,,,,172791,1,2,FALSE,,,
dig,139,508340,0.0-43.0-0.0,,,,,,,,,,,"[{""stimulus"":""run_exp/static/images/task_images/dig.jpg"",""time"":0.10000000114087015},{""stimulus"":""run_exp/static/images/task_images/land.jpg"",""time"":997.5850000010105},{""stimulus"":""run_exp/static/images/task_images/dig.jpg"",""time"":1995.910000001546}]",[],7,,,,,,,,,,,,,,
harvest,140,509342,0.0-43.0-1.0,,null,run_exp/static/images/task_images/gems/58.jpg,null,,,,,,45,,,7,,,,,58,0.78043771,0.775862069,,,,,,,
decision,141,509976,0.0-43.0-2.0,,632.875,run_exp/static/images/task_images/land.jpg,65,,,,,,45,,,7,,,,,,,,177415,1,3,FALSE,,,
dig,142,512346,0.0-44.0-0.0,,,,,,,,,,,"[{""stimulus"":""run_exp/static/images/task_images/dig.jpg"",""time"":0.11499999894294888},{""stimulus"":""run_exp/static/images/task_images/land.jpg"",""time"":794.9899999985937},{""stimulus"":""run_exp/static/images/task_images/dig.jpg"",""time"":1582.2599999993108}]",[],7,,,,,,,,,,,,,,
harvest,143,513349,0.0-44.0-1.0,,null,run_exp/static/images/task_images/gems/45.jpg,null,,,,,,36,,,7,,,,,45,0.802761218,0.8,,,,,,,
decision,144,513846,0.0-44.0-2.0,,495.77,run_exp/static/images/task_images/land.jpg,65,,,,,,36,,,7,,,,,,,,181285,1,4,FALSE,,,
dig,145,516352,0.0-45.0-0.0,,,,,,,,,,,"[{""stimulus"":""run_exp/static/images/task_images/dig.jpg"",""time"":0.12000000057742},{""stimulus"":""run_exp/static/images/task_images/land.jpg"",""time"":836.5950000006706},{""stimulus"":""run_exp/static/images/task_images/dig.jpg"",""time"":1669.0550000020303}]",[],7,,,,,,,,,,,,,,
harvest,146,517354,0.0-45.0-1.0,,null,run_exp/static/images/task_images/gems/36.jpg,null,,,,,,28,,,7,,,,,36,0.77101249,0.777777778,,,,,,,
decision,147,518763,0.0-45.0-2.0,,1407.78,run_exp/static/images/task_images/land.jpg,65,,,,,,28,,,7,,,,,,,,186202,1,5,FALSE,,,
dig,148,520360,0.0-46.0-0.0,,,,,,,,,,,"[{""stimulus"":""run_exp/static/images/task_images/dig.jpg"",""time"":0.1049999991664663},{""stimulus"":""run_exp/static/images/task_images/land.jpg"",""time"":534.3399999983376},{""stimulus"":""run_exp/static/images/task_images/dig.jpg"",""time"":1065.2049999989104}]",[],7,,,,,,,,,,,,,,
harvest,149,521367,0.0-46.0-1.0,,null,run_exp/static/images/task_images/gems/28.jpg,null,,,,,,22,,,7,,,,,28,0.78124354,0.785714286,,,,,,,
decision,150,521598,0.0-46.0-2.0,,230.51,run_exp/static/images/task_images/land.jpg,76,,,,,,22,,,7,,,,,,,,189037,1,6,TRUE,,,
travel,151,531370,0.0-47.0-0.0,,,,,,,,,,,"[{""stimulus"":""run_exp/static/images/task_images/rocket-01.jpg"",""time"":0.09999999741557986},{""stimulus"":""run_exp/static/images/task_images/rocket-02.jpg"",""time"":1090.2249999998603},{""stimulus"":""run_exp/static/images/task_images/rocket-03.jpg"",""time"":2172.15999999817},{""stimulus"":""run_exp/static/images/task_images/rocket-04.jpg"",""time"":3260.4350000001723},{""stimulus"":""run_exp/static/images/task_images/rocket-05.jpg"",""time"":4341.034999997588},{""stimulus"":""run_exp/static/images/task_images/rocket-06.jpg"",""time"":5428.329999998794},{""stimulus"":""run_exp/static/images/task_images/rocket-07.jpg"",""time"":6515.9949999979},{""stimulus"":""run_exp/static/images/task_images/rocket-08.jpg"",""time"":7599.419999998645},{""stimulus"":""run_exp/static/images/task_images/rocket-09.jpg"",""time"":8683.194999997737}]",[],7,,,,,,,,,,,,,,
alien_welcome,152,536376,0.0-47.0-1.0,,null,run_exp/static/images/task_images/aliens/old_aliens/planet/alien_planet-6.jpg,null,,,,,,,,,,,,6,"1,50,74,28,3,2,60,6,40,51,71,49,52,30,12,72,9,7,58,41,39,79,43,27,35,67,62,78,80,18,42,53,59,4,33,69",,,,,,,,,,
land,153,536878,0.0-47.0-2.0,,null,run_exp/static/images/task_images/land.jpg,null,,,,,,99,,,8,,,,,,,,,,,,,,
dig,154,538885,0.0-47.0-3.0,,,,,,,,,,,"[{""stimulus"":""run_exp/static/images/task_images/dig.jpg"",""time"":0.14000000013038516},{""stimulus"":""run_exp/static/images/task_images/land.jpg"",""time"":672.2550000012852},{""stimulus"":""run_exp/static/images/task_images/dig.jpg"",""time"":1336.1450000010664}]",[],8,,,,,,,,,,,,,,
harvest,155,539892,0.0-47.0-4.0,,null,run_exp/static/images/task_images/gems/99.jpg,null,,,,,,78,,,8,,,,,99,0.786100844,0.787878788,,,,,,,
decision,156,540071,0.0-47.0-5.0,,177.88,run_exp/static/images/task_images/land.jpg,65,,,,,,78,,,8,,,,,,,,207510,1,0,FALSE,,,
dig,157,542898,0.0-48.0-0.0,,,,,,,,,,,"[{""stimulus"":""run_exp/static/images/task_images/dig.jpg"",""time"":0.1049999991664663},{""stimulus"":""run_exp/static/images/task_images/land.jpg"",""time"":944.674999998766},{""stimulus"":""run_exp/static/images/task_images/dig.jpg"",""time"":1885.9899999988265}]",[],8,,,,,,,,,,,,,,
harvest,158,543904,0.0-48.0-1.0,,null,run_exp/static/images/task_images/gems/78.jpg,null,,,,,,68,,,8,,,,,78,0.876997766,0.871794872,,,,,,,
decision,159,543940,0.0-48.0-2.0,,35.695,run_exp/static/images/task_images/land.jpg,65,,,,,,68,,,8,,,,,,,,211380,1,1,FALSE,,,
dig,160,546908,0.0-49.0-0.0,,,,,,,,,,,"[{""stimulus"":""run_exp/static/images/task_images/dig.jpg"",""time"":0.10500000277534127},{""stimulus"":""run_exp/static/images/task_images/land.jpg"",""time"":989.0350000023609},{""stimulus"":""run_exp/static/images/task_images/dig.jpg"",""time"":1981.9050000004936}]",[],8,,,,,,,,,,,,,,
harvest,161,547912,0.0-49.0-1.0,,null,run_exp/static/images/task_images/gems/68.jpg,null,,,,,,51,,,8,,,,,68,0.748548376,0.75,,,,,,,
decision,162,548002,0.0-49.0-2.0,,88.88,run_exp/static/images/task_images/land.jpg,65,,,,,,51,,,8,,,,,,,,215441,1,2,FALSE,,,
dig,163,550917,0.0-50.0-0.0,,,,,,,,,,,"[{""stimulus"":""run_exp/static/images/task_images/dig.jpg"",""time"":0.10000000114087015},{""stimulus"":""run_exp/static/images/task_images/land.jpg"",""time"":974.6200000009267},{""stimulus"":""run_exp/static/images/task_images/dig.jpg"",""time"":1941.9149999994552}]",[],8,,,,,,,,,,,,,,
harvest,164,551922,0.0-50.0-1.0,,null,run_exp/static/images/task_images/gems/51.jpg,null,,,,,,38,,,8,,,,,51,0.740651342,0.745098039,,,,,,,
decision,165,552299,0.0-50.0-2.0,,375.245,run_exp/static/images/task_images/land.jpg,65,,,,,,38,,,8,,,,,,,,219738,1,3,FALSE,,,
dig,166,554929,0.0-51.0-0.0,,,,,,,,,,,"[{""stimulus"":""run_exp/static/images/task_images/dig.jpg"",""time"":0.12500000221189111},{""stimulus"":""run_exp/static/images/task_images/land.jpg"",""time"":875.7000000005355},{""stimulus"":""run_exp/static/images/task_images/dig.jpg"",""time"":1753.160000000149}]",[],8,,,,,,,,,,,,,,
harvest,167,555934,0.0-51.0-1.0,,null,run_exp/static/images/task_images/gems/38.jpg,null,,,,,,30,,,8,,,,,38,0.792745386,0.789473684,,,,,,,
decision,168,557395,0.0-51.0-2.0,,1460.455,run_exp/static/images/task_images/land.jpg,76,,,,,,30,,,8,,,,,,,,224834,1,4,TRUE,,,
travel,169,565935,0.0-52.0-0.0,,,,,,,,,,,"[{""stimulus"":""run_exp/static/images/task_images/rocket-01.jpg"",""time"":0.09999999753199518},{""stimulus"":""run_exp/static/images/task_images/rocket-02.jpg"",""time"":953.9850000001024},{""stimulus"":""run_exp/static/images/task_images/rocket-03.jpg"",""time"":1901.9899999984773},{""stimulus"":""run_exp/static/images/task_images/rocket-04.jpg"",""time"":2847.2849999997998},{""stimulus"":""run_exp/static/images/task_images/rocket-05.jpg"",""time"":3793.2399999990594},{""stimulus"":""run_exp/static/images/task_images/rocket-06.jpg"",""time"":4743.419999998878},{""stimulus"":""run_exp/static/images/task_images/rocket-07.jpg"",""time"":5694.029999998747},{""stimulus"":""run_exp/static/images/task_images/rocket-08.jpg"",""time"":6642.035000000731},{""stimulus"":""run_exp/static/images/task_images/rocket-09.jpg"",""time"":7589.244999999297}]",[],8,,,,,,,,,,,,,,
alien_welcome,170,570952,0.0-52.0-1.0,,null,run_exp/static/images/task_images/aliens/old_aliens/planet/alien_planet-40.jpg,null,,,,,,,,,,,,40,"1,50,74,28,3,2,60,6,40,51,71,49,52,30,12,72,9,7,58,41,39,79,43,27,35,67,62,78,80,18,42,53,59,4,33,69",,,,,,,,,,
land,171,571458,0.0-52.0-2.0,,null,run_exp/static/images/task_images/land.jpg,null,,,,,,105,,,9,,,,,,,,,,,,,,
dig,172,573466,0.0-52.0-3.0,,,,,,,,,,,"[{""stimulus"":""run_exp/static/images/task_images/dig.jpg"",""time"":0.15999999968335032},{""stimulus"":""run_exp/static/images/task_images/land.jpg"",""time"":673.0349999999162},{""stimulus"":""run_exp/static/images/task_images/dig.jpg"",""time"":1337.8999999987427}]",[],9,,,,,,,,,,,,,,
harvest,173,574469,0.0-52.0-4.0,,null,run_exp/static/images/task_images/gems/105.jpg,null,,,,,,29,,,9,,,,,105,0.278053436,0.276190476,,,,,,,
decision,174,575632,0.0-52.0-5.0,,1162.405,run_exp/static/images/task_images/land.jpg,65,,,,,,29,,,9,,,,,,,,243072,1,0,FALSE,,,
dig,175,577471,0.0-53.0-0.0,,,,,,,,,,,"[{""stimulus"":""run_exp/static/images/task_images/dig.jpg"",""time"":0.11000000080093741},{""stimulus"":""run_exp/static/images/task_images/land.jpg"",""time"":617.9750000010245},{""stimulus"":""run_exp/static/images/task_images/dig.jpg"",""time"":1227.275000001071}]",[],9,,,,,,,,,,,,,,
harvest,176,578473,0.0-53.0-1.0,,null,run_exp/static/images/task_images/gems/29.jpg,null,,,,,,7,,,9,,,,,29,0.231679252,0.24137931,,,,,,,
decision,177,579165,0.0-53.0-2.0,,691.2,run_exp/static/images/task_images/land.jpg,65,,,,,,7,,,9,,,,,,,,246604,1,1,FALSE,,,
dig,178,581479,0.0-54.0-0.0,,,,,,,,,,,"[{""stimulus"":""run_exp/static/images/task_images/dig.jpg"",""time"":0.11000000080093741},{""stimulus"":""run_exp/static/images/task_images/land.jpg"",""time"":772.6700000021374},{""stimulus"":""run_exp/static/images/task_images/dig.jpg"",""time"":1544.0500000003958}]",[],9,,,,,,,,,,,,,,
harvest,179,582481,0.0-54.0-1.0,,null,run_exp/static/images/task_images/gems/7.jpg,null,,,,,,2,,,9,,,,,7,0.218001847,0.285714286,,,,,,,
decision,180,582832,0.0-54.0-2.0,,349.505,run_exp/static/images/task_images/land.jpg,76,,,,,,2,,,9,,,,,,,,250271,1,2,TRUE,,,
travel,181,592487,0.0-55.0-0.0,,,,,,,,,,,"[{""stimulus"":""run_exp/static/images/task_images/rocket-01.jpg"",""time"":0.11499999894294888},{""stimulus"":""run_exp/static/images/task_images/rocket-02.jpg"",""time"":1077.994999999646},{""stimulus"":""run_exp/static/images/task_images/rocket-03.jpg"",""time"":2149.890000000596},{""stimulus"":""run_exp/static/images/task_images/rocket-04.jpg"",""time"":3221.9100000002654},{""stimulus"":""run_exp/static/images/task_images/rocket-05.jpg"",""time"":4291.724999999162},{""stimulus"":""run_exp/static/images/task_images/rocket-06.jpg"",""time"":5365.939999999711},{""stimulus"":""run_exp/static/images/task_images/rocket-07.jpg"",""time"":6437.955000001239},{""stimulus"":""run_exp/static/images/task_images/rocket-08.jpg"",""time"":7509.904999999097},{""stimulus"":""run_exp/static/images/task_images/rocket-09.jpg"",""time"":8581.975000001024}]",[],9,,,,,,,,,,,,,,
alien_welcome,182,597492,0.0-55.0-1.0,,null,run_exp/static/images/task_images/aliens/old_aliens/planet/alien_planet-51.jpg,null,,,,,,,,,,,,51,"1,50,74,28,3,2,60,6,40,51,71,49,52,30,12,72,9,7,58,41,39,79,43,27,35,67,62,78,80,18,42,53,59,4,33,69",,,,,,,,,,
land,183,597996,0.0-55.0-2.0,,null,run_exp/static/images/task_images/land.jpg,null,,,,,,102,,,10,,,,,,,,,,,,,,
dig,184,600004,0.0-55.0-3.0,,,,,,,,,,,"[{""stimulus"":""run_exp/static/images/task_images/dig.jpg"",""time"":0.159999999566935},{""stimulus"":""run_exp/static/images/task_images/land.jpg"",""time"":668.0699999995995},{""stimulus"":""run_exp/static/images/task_images/dig.jpg"",""time"":1340.0499999988824}]",[],10,,,,,,,,,,,,,,
harvest,185,601008,0.0-55.0-4.0,,null,run_exp/static/images/task_images/gems/102.jpg,null,,,,,,24,,,10,,,,,102,0.234064355,0.235294118,,,,,,,
decision,186,601733,0.0-55.0-5.0,,723.71,run_exp/static/images/task_images/land.jpg,65,,,,,,24,,,10,,,,,,,,269172,1,0,FALSE,,,
dig,187,604014,0.0-56.0-0.0,,,,,,,,,,,"[{""stimulus"":""run_exp/static/images/task_images/dig.jpg"",""time"":0.10999999719206244},{""stimulus"":""run_exp/static/images/task_images/land.jpg"",""time"":759.6300000004703},{""stimulus"":""run_exp/static/images/task_images/dig.jpg"",""time"":1518.3249999972759}]",[],10,,,,,,,,,,,,,,
harvest,188,605021,0.0-56.0-1.0,,null,run_exp/static/images/task_images/gems/24.jpg,null,,,,,,4,,,10,,,,,24,0.15022132,0.166666667,,,,,,,
decision,189,606908,0.0-56.0-2.0,,1886.585,run_exp/static/images/task_images/land.jpg,76,,,,,,4,,,10,,,,,,,,274347,1,1,TRUE,,,
travel,190,615020,0.0-57.0-0.0,,,,,,,,,,,"[{""stimulus"":""run_exp/static/images/task_images/rocket-01.jpg"",""time"":0.11499999894294888},{""stimulus"":""run_exp/static/images/task_images/rocket-02.jpg"",""time"":903.7400000016205},{""stimulus"":""run_exp/static/images/task_images/rocket-03.jpg"",""time"":1808.0000000009313},{""stimulus"":""run_exp/static/images/task_images/rocket-04.jpg"",""time"":2706.4600000012433},{""stimulus"":""run_exp/static/images/task_images/rocket-05.jpg"",""time"":3605.5300000007264},{""stimulus"":""run_exp/static/images/task_images/rocket-06.jpg"",""time"":4508.33000000054},{""stimulus"":""run_exp/static/images/task_images/rocket-07.jpg"",""time"":5408.374999999069},{""stimulus"":""run_exp/static/images/task_images/rocket-08.jpg"",""time"":6312.434999999823},{""stimulus"":""run_exp/static/images/task_images/rocket-09.jpg"",""time"":7214.0050000016345}]",[],10,,,,,,,,,,,,,,
alien_welcome,191,620022,0.0-57.0-1.0,,null,run_exp/static/images/task_images/aliens/old_aliens/planet/alien_planet-71.jpg,null,,,,,,,,,,,,71,"1,50,74,28,3,2,60,6,40,51,71,49,52,30,12,72,9,7,58,41,39,79,43,27,35,67,62,78,80,18,42,53,59,4,33,69",,,,,,,,,,
land,192,620528,0.0-57.0-2.0,,null,run_exp/static/images/task_images/land.jpg,null,,,,,,103,,,11,,,,,,,,,,,,,,
dig,193,622535,0.0-57.0-3.0,,,,,,,,,,,"[{""stimulus"":""run_exp/static/images/task_images/dig.jpg"",""time"":0.2099999983329326},{""stimulus"":""run_exp/static/images/task_images/land.jpg"",""time"":673.0250000000233},{""stimulus"":""run_exp/static/images/task_images/dig.jpg"",""time"":1335.2999999988824}]",[],11,,,,,,,,,,,,,,
harvest,194,623540,0.0-57.0-4.0,,null,run_exp/static/images/task_images/gems/103.jpg,null,,,,,,22,,,11,,,,,103,0.216725834,0.213592233,,,,,,,
decision,195,625696,0.0-57.0-5.0,,2154.23,run_exp/static/images/task_images/land.jpg,65,,,,,,22,,,11,,,,,,,,293135,1,0,FALSE,,,
dig,196,626546,0.0-58.0-0.0,,,,,,,,,,,"[{""stimulus"":""run_exp/static/images/task_images/dig.jpg"",""time"":0.1049999991664663},{""stimulus"":""run_exp/static/images/task_images/land.jpg"",""time"":282.2199999972945},{""stimulus"":""run_exp/static/images/task_images/dig.jpg"",""time"":567.8899999983842}]",[],11,,,,,,,,,,,,,,
harvest,197,627550,0.0-58.0-1.0,,null,run_exp/static/images/task_images/gems/22.jpg,null,,,,,,4,,,11,,,,,22,0.195838862,0.181818182,,,,,,,
decision,198,627946,0.0-58.0-2.0,,394.675,run_exp/static/images/task_images/land.jpg,76,,,,,,4,,,11,,,,,,,,295385,1,1,TRUE,,,
travel,199,637556,0.0-59.0-0.0,,,,,,,,,,,"[{""stimulus"":""run_exp/static/images/task_images/rocket-01.jpg"",""time"":0.09499999938998371},{""stimulus"":""run_exp/static/images/task_images/rocket-02.jpg"",""time"":1072.9600000013597},{""stimulus"":""run_exp/static/images/task_images/rocket-03.jpg"",""time"":2139.9149999998044},{""stimulus"":""run_exp/static/images/task_images/rocket-04.jpg"",""time"":3205.4299999981886},{""stimulus"":""run_exp/static/images/task_images/rocket-05.jpg"",""time"":4269.810000001569},{""stimulus"":""run_exp/static/images/task_images/rocket-06.jpg"",""time"":5337.8400000002},{""stimulus"":""run_exp/static/images/task_images/rocket-07.jpg"",""time"":6405.979999999632},{""stimulus"":""run_exp/static/images/task_images/rocket-08.jpg"",""time"":7474.145000000135},{""stimulus"":""run_exp/static/images/task_images/rocket-09.jpg"",""time"":8537.199999998906}]",[],11,,,,,,,,,,,,,,
alien_welcome,200,642563,0.0-59.0-1.0,,null,run_exp/static/images/task_images/aliens/old_aliens/planet/alien_planet-49.jpg,null,,,,,,,,,,,,49,"1,50,74,28,3,2,60,6,40,51,71,49,52,30,12,72,9,7,58,41,39,79,43,27,35,67,62,78,80,18,42,53,59,4,33,69",,,,,,,,,,
land,201,643070,0.0-59.0-2.0,,null,run_exp/static/images/task_images/land.jpg,null,,,,,,101,,,12,,,,,,,,,,,,,,
dig,202,645075,0.0-59.0-3.0,,,,,,,,,,,"[{""stimulus"":""run_exp/static/images/task_images/dig.jpg"",""time"":0.16499999759253114},{""stimulus"":""run_exp/static/images/task_images/land.jpg"",""time"":673.0199999983888},{""stimulus"":""run_exp/static/images/task_images/dig.jpg"",""time"":1337.1699999988778}]",[],12,,,,,,,,,,,,,,
harvest,203,646077,0.0-59.0-4.0,,null,run_exp/static/images/task_images/gems/101.jpg,null,,,,,,19,,,12,,,,,101,0.189058649,0.188118812,,,,,,,
decision,204,646813,0.0-59.0-5.0,,734.43,run_exp/static/images/task_images/land.jpg,65,,,,,,19,,,12,,,,,,,,314252,1,0,TRUE,,,
end_of_block_continue,205,650897,0.0-60.0-0.0,,4081.93,run_exp/static/audio/clip_32_block_end.m4a,,,,,,0,,,,,,,,,,,,,,,,,,
alien_welcome,206,655906,0.0-61.0-0.0,,null,run_exp/static/images/task_images/aliens/old_aliens/planet/alien_planet-52.jpg,null,,,,,,,,,,,,52,"1,50,74,28,3,2,60,6,40,51,71,49,52,30,12,72,9,7,58,41,39,79,43,27,35,67,62,78,80,18,42,53,59,4,33,69",,,,,,,,,,
land,207,656409,0.0-61.0-1.0,,null,run_exp/static/images/task_images/land.jpg,null,,,,,,94,,,13,,,,,,,,,,,,,,
dig,208,658417,0.0-61.0-2.0,,,,,,,,,,,"[{""stimulus"":""run_exp/static/images/task_images/dig.jpg"",""time"":0.18999999889638275},{""stimulus"":""run_exp/static/images/task_images/land.jpg"",""time"":673.0050000005867},{""stimulus"":""run_exp/static/images/task_images/dig.jpg"",""time"":1339.9849999987055}]",[],13,,,,,,,,,,,,,,
harvest,209,659423,0.0-61.0-3.0,,null,run_exp/static/images/task_images/gems/94.jpg,null,,,,,,24,,,13,,,,,94,0.253190192,0.255319149,,,,,,,
decision,210,659941,0.0-61.0-4.0,,516.7,run_exp/static/images/task_images/land.jpg,65,,,,,,24,,,13,,,,,,,,9038,2,0,FALSE,,,
dig,211,662426,0.0-62.0-0.0,,,,,,,,,,,"[{""stimulus"":""run_exp/static/images/task_images/dig.jpg"",""time"":0.1049999991664663},{""stimulus"":""run_exp/static/images/task_images/land.jpg"",""time"":830.7500000009313},{""stimulus"":""run_exp/static/images/task_images/dig.jpg"",""time"":1655.0900000002002}]",[],13,,,,,,,,,,,,,,
harvest,212,663429,0.0-62.0-1.0,,null,run_exp/static/images/task_images/gems/24.jpg,null,,,,,,4,,,13,,,,,24,0.168680843,0.166666667,,,,,,,
decision,213,664644,0.0-62.0-2.0,,1214.365,run_exp/static/images/task_images/land.jpg,76,,,,,,4,,,13,,,,,,,,13741,2,1,TRUE,,,
travel,214,673432,0.0-63.0-0.0,,,,,,,,,,,"[{""stimulus"":""run_exp/static/images/task_images/rocket-01.jpg"",""time"":0.10499999905005097},{""stimulus"":""run_exp/static/images/task_images/rocket-02.jpg"",""time"":980.9549999990268},{""stimulus"":""run_exp/static/images/task_images/rocket-03.jpg"",""time"":1957.9449999982025},{""stimulus"":""run_exp/static/images/task_images/rocket-04.jpg"",""time"":2934.0099999972153},{""stimulus"":""run_exp/static/images/task_images/rocket-05.jpg"",""time"":3909.0749999994878},{""stimulus"":""run_exp/static/images/task_images/rocket-06.jpg"",""time"":4885.794999998296},{""stimulus"":""run_exp/static/images/task_images/rocket-07.jpg"",""time"":5859.56499999878},{""stimulus"":""run_exp/static/images/task_images/rocket-08.jpg"",""time"":6836.250000000233},{""stimulus"":""run_exp/static/images/task_images/rocket-09.jpg"",""time"":7811.405000000261}]",[],13,,,,,,,,,,,,,,
alien_welcome,215,678434,0.0-63.0-1.0,,null,run_exp/static/images/task_images/aliens/old_aliens/planet/alien_planet-30.jpg,null,,,,,,,,,,,,30,"1,50,74,28,3,2,60,6,40,51,71,49,52,30,12,72,9,7,58,41,39,79,43,27,35,67,62,78,80,18,42,53,59,4,33,69",,,,,,,,,,
land,216,678937,0.0-63.0-2.0,,null,run_exp/static/images/task_images/land.jpg,null,,,,,,94,,,14,,,,,,,,,,,,,,
dig,217,680945,0.0-63.0-3.0,,,,,,,,,,,"[{""stimulus"":""run_exp/static/images/task_images/dig.jpg"",""time"":0.1600000032922253},{""stimulus"":""run_exp/static/images/task_images/land.jpg"",""time"":669.0600000001723},{""stimulus"":""run_exp/static/images/task_images/dig.jpg"",""time"":1339.9550000031013}]",[],14,,,,,,,,,,,,,,
harvest,218,681950,0.0-63.0-4.0,,null,run_exp/static/images/task_images/gems/94.jpg,null,,,,,,16,,,14,,,,,94,0.17498065,0.170212766,,,,,,,
decision,219,684956,0.0-63.0-5.0,,null,run_exp/static/images/task_images/land.jpg,null,,,,,,16,,,14,,,,,,,,34053,2,0,FALSE,,,
time_out,220,686961,0.0-64.0-0.0,,null,run_exp/static/images/task_images/time_out.jpg,null,,,,,,16,,,,,,,,,,,,,,,,,
decision,221,686987,0.0-64.0-1.0,,25.07,run_exp/static/images/task_images/land.jpg,65,,,,,,16,,,14,,,,,,,,36084,2,0,FALSE,,,
dig,222,689968,0.0-65.0-0.0,,,,,,,,,,,"[{""stimulus"":""run_exp/static/images/task_images/dig.jpg"",""time"":0.10500000277534127},{""stimulus"":""run_exp/static/images/task_images/land.jpg"",""time"":995.1000000000931},{""stimulus"":""run_exp/static/images/task_images/dig.jpg"",""time"":1983.6850000028498}]",[],14,,,,,,,,,,,,,,
harvest,223,690972,0.0-65.0-1.0,,null,run_exp/static/images/task_images/gems/16.jpg,null,,,,,,3,,,14,,,,,16,0.199717774,0.1875,,,,,,,
decision,224,691161,0.0-65.0-2.0,,187.895,run_exp/static/images/task_images/land.jpg,65,,,,,,3,,,14,,,,,,,,40258,2,1,FALSE,,,
dig,225,693975,0.0-66.0-0.0,,,,,,,,,,,"[{""stimulus"":""run_exp/static/images/task_images/dig.jpg"",""time"":0.1049999991664663},{""stimulus"":""run_exp/static/images/task_images/land.jpg"",""time"":938.1049999974202},{""stimulus"":""run_exp/static/images/task_images/dig.jpg"",""time"":1879.979999997886}]",[],14,,,,,,,,,,,,,,
harvest,226,694979,0.0-66.0-1.0,,null,run_exp/static/images/task_images/gems/3.jpg,null,,,,,,1,,,14,,,,,3,0.282356234,0.333333333,,,,,,,
decision,227,695087,0.0-66.0-2.0,,107.02,run_exp/static/images/task_images/land.jpg,65,,,,,,1,,,14,,,,,,,,44184,2,2,FALSE,,,
dig,228,697985,0.0-67.0-0.0,,,,,,,,,,,"[{""stimulus"":""run_exp/static/images/task_images/dig.jpg"",""time"":0.10000000114087015},{""stimulus"":""run_exp/static/images/task_images/land.jpg"",""time"":966.6900000011083},{""stimulus"":""run_exp/static/images/task_images/dig.jpg"",""time"":1932.4999999990687}]",[],14,,,,,,,,,,,,,,
harvest,229,698989,0.0-67.0-1.0,,null,run_exp/static/images/task_images/gems/1.jpg,null,,,,,,0,,,14,,,,,1,0.127686442,0,,,,,,,
decision,230,699013,0.0-67.0-2.0,,22.685,run_exp/static/images/task_images/land.jpg,76,,,,,,0,,,14,,,,,,,,48110,2,3,TRUE,,,
travel,231,708989,0.0-68.0-0.0,,,,,,,,,,,"[{""stimulus"":""run_exp/static/images/task_images/rocket-01.jpg"",""time"":0.11499999894294888},{""stimulus"":""run_exp/static/images/task_images/rocket-02.jpg"",""time"":1111.574999999022},{""stimulus"":""run_exp/static/images/task_images/rocket-03.jpg"",""time"":2221.9699999986915},{""stimulus"":""run_exp/static/images/task_images/rocket-04.jpg"",""time"":3325.3399999993853},{""stimulus"":""run_exp/static/images/task_images/rocket-05.jpg"",""time"":4438.089999999618},{""stimulus"":""run_exp/static/images/task_images/rocket-06.jpg"",""time"":5546.105000001262},{""stimulus"":""run_exp/static/images/task_images/rocket-07.jpg"",""time"":6653.8849999997765},{""stimulus"":""run_exp/static/images/task_images/rocket-08.jpg"",""time"":7760.395000001183},{""stimulus"":""run_exp/static/images/task_images/rocket-09.jpg"",""time"":8870.060000001104}]",[],14,,,,,,,,,,,,,,
alien_welcome,232,713991,0.0-68.0-1.0,,null,run_exp/static/images/task_images/aliens/old_aliens/planet/alien_planet-12.jpg,null,,,,,,,,,,,,12,"1,50,74,28,3,2,60,6,40,51,71,49,52,30,12,72,9,7,58,41,39,79,43,27,35,67,62,78,80,18,42,53,59,4,33,69",,,,,,,,,,
land,233,714497,0.0-68.0-2.0,,null,run_exp/static/images/task_images/land.jpg,null,,,,,,102,,,15,,,,,,,,,,,,,,
dig,234,716504,0.0-68.0-3.0,,,,,,,,,,,"[{""stimulus"":""run_exp/static/images/task_images/dig.jpg"",""time"":0.14999999979045242},{""stimulus"":""run_exp/static/images/task_images/land.jpg"",""time"":672.114999997546},{""stimulus"":""run_exp/static/images/task_images/dig.jpg"",""time"":1339.9949999983655}]",[],15,,,,,,,,,,,,,,
harvest,235,717509,0.0-68.0-4.0,,null,run_exp/static/images/task_images/gems/102.jpg,null,,,,,,26,,,15,,,,,102,0.257690161,0.254901961,,,,,,,
decision,236,718071,0.0-68.0-5.0,,561.815,run_exp/static/images/task_images/land.jpg,65,,,,,,26,,,15,,,,,,,,67168,2,0,FALSE,,,
dig,237,720515,0.0-69.0-0.0,,,,,,,,,,,"[{""stimulus"":""run_exp/static/images/task_images/dig.jpg"",""time"":0.10500000277534127},{""stimulus"":""run_exp/static/images/task_images/land.jpg"",""time"":817.880000002333},{""stimulus"":""run_exp/static/images/task_images/dig.jpg"",""time"":1629.9300000027288}]",[],15,,,,,,,,,,,,,,
harvest,238,721520,0.0-69.0-1.0,,null,run_exp/static/images/task_images/gems/26.jpg,null,,,,,,6,,,15,,,,,26,0.226030065,0.230769231,,,,,,,
decision,239,721604,0.0-69.0-2.0,,82.175,run_exp/static/images/task_images/land.jpg,65,,,,,,6,,,15,,,,,,,,70701,2,1,FALSE,,,
dig,240,724527,0.0-70.0-0.0,,,,,,,,,,,"[{""stimulus"":""run_exp/static/images/task_images/dig.jpg"",""time"":0.10499999928288162},{""stimulus"":""run_exp/static/images/task_images/land.jpg"",""time"":973.6300000004703},{""stimulus"":""run_exp/static/images/task_images/dig.jpg"",""time"":1949.3350000012433}]",[],15,,,,,,,,,,,,,,
harvest,241,725533,0.0-70.0-1.0,,null,run_exp/static/images/task_images/gems/6.jpg,null,,,,,,1,,,15,,,,,6,0.185567533,0.166666667,,,,,,,
decision,242,726431,0.0-70.0-2.0,,896.375,run_exp/static/images/task_images/land.jpg,76,,,,,,1,,,15,,,,,,,,75528,2,2,TRUE,,,
travel,243,735534,0.0-71.0-0.0,,,,,,,,,,,"[{""stimulus"":""run_exp/static/images/task_images/rocket-01.jpg"",""time"":0.10499999928288162},{""stimulus"":""run_exp/static/images/task_images/rocket-02.jpg"",""time"":1012.3849999982631},{""stimulus"":""run_exp/static/images/task_images/rocket-03.jpg"",""time"":2025.1800000006333},{""stimulus"":""run_exp/static/images/task_images/rocket-04.jpg"",""time"":3035.1799999990035},{""stimulus"":""run_exp/static/images/task_images/rocket-05.jpg"",""time"":4046.589999998221},{""stimulus"":""run_exp/static/images/task_images/rocket-06.jpg"",""time"":5057.369999998715},{""stimulus"":""run_exp/static/images/task_images/rocket-07.jpg"",""time"":6068.289999999339},{""stimulus"":""run_exp/static/images/task_images/rocket-08.jpg"",""time"":7079.19000000041},{""stimulus"":""run_exp/static/images/task_images/rocket-09.jpg"",""time"":8090.335000000894}]",[],15,,,,,,,,,,,,,,
alien_welcome,244,740539,0.0-71.0-1.0,,null,run_exp/static/images/task_images/aliens/old_aliens/planet/alien_planet-72.jpg,null,,,,,,,,,,,,72,"1,50,74,28,3,2,60,6,40,51,71,49,52,30,12,72,9,7,58,41,39,79,43,27,35,67,62,78,80,18,42,53,59,4,33,69",,,,,,,,,,
land,245,741046,0.0-71.0-2.0,,null,run_exp/static/images/task_images/land.jpg,null,,,,,,102,,,16,,,,,,,,,,,,,,
dig,246,743053,0.0-71.0-3.0,,,,,,,,,,,"[{""stimulus"":""run_exp/static/images/task_images/dig.jpg"",""time"":0.17500000109430403},{""stimulus"":""run_exp/static/images/task_images/land.jpg"",""time"":673.0050000005867},{""stimulus"":""run_exp/static/images/task_images/dig.jpg"",""time"":1340.0550000006333}]",[],16,,,,,,,,,,,,,,
harvest,247,744058,0.0-71.0-4.0,,null,run_exp/static/images/task_images/gems/102.jpg,null,,,,,,77,,,16,,,,,102,0.755020887,0.754901961,,,,,,,
decision,248,745747,0.0-71.0-5.0,,1688.62,run_exp/static/images/task_images/land.jpg,65,,,,,,77,,,16,,,,,,,,94844,2,0,FALSE,,,
dig,249,747062,0.0-72.0-0.0,,,,,,,,,,,"[{""stimulus"":""run_exp/static/images/task_images/dig.jpg"",""time"":0.10500000277534127},{""stimulus"":""run_exp/static/images/task_images/land.jpg"",""time"":442.9000000017695},{""stimulus"":""run_exp/static/images/task_images/dig.jpg"",""time"":875.8550000020768}]",[],16,,,,,,,,,,,,,,
harvest,250,748068,0.0-72.0-1.0,,null,run_exp/static/images/task_images/gems/77.jpg,null,,,,,,60,,,16,,,,,77,0.783539842,0.779220779,,,,,,,
decision,251,749606,0.0-72.0-2.0,,1536.66,run_exp/static/images/task_images/land.jpg,65,,,,,,60,,,16,,,,,,,,98703,2,1,FALSE,,,
dig,252,751074,0.0-73.0-0.0,,,,,,,,,,,"[{""stimulus"":""run_exp/static/images/task_images/dig.jpg"",""time"":0.11499999882653356},{""stimulus"":""run_exp/static/images/task_images/land.jpg"",""time"":493.0499999972526},{""stimulus"":""run_exp/static/images/task_images/dig.jpg"",""time"":979.9549999989104}]",[],16,,,,,,,,,,,,,,
harvest,253,752076,0.0-73.0-1.0,,null,run_exp/static/images/task_images/gems/60.jpg,null,,,,,,42,,,16,,,,,60,0.703811915,0.7,,,,,,,
decision,254,754545,0.0-73.0-2.0,,2468.035,run_exp/static/images/task_images/land.jpg,65,,,,,,42,,,16,,,,,,,,103642,2,2,FALSE,,,
dig,255,755083,0.0-74.0-0.0,,,,,,,,,,,"[{""stimulus"":""run_exp/static/images/task_images/dig.jpg"",""time"":0.1049999991664663},{""stimulus"":""run_exp/static/images/task_images/land.jpg"",""time"":180.79500000027474},{""stimulus"":""run_exp/static/images/task_images/dig.jpg"",""time"":359.92500000062864}]",[],16,,,,,,,,,,,,,,
harvest,256,756089,0.0-74.0-1.0,,null,run_exp/static/images/task_images/gems/42.jpg,null,,,,,,38,,,16,,,,,42,0.912743701,0.904761905,,,,,,,
decision,257,756288,0.0-74.0-2.0,,198.225,run_exp/static/images/task_images/land.jpg,65,,,,,,38,,,16,,,,,,,,105385,2,3,FALSE,,,
dig,258,759094,0.0-75.0-0.0,,,,,,,,,,,"[{""stimulus"":""run_exp/static/images/task_images/dig.jpg"",""time"":0.10000000114087015},{""stimulus"":""run_exp/static/images/task_images/land.jpg"",""time"":936.9750000004424},{""stimulus"":""run_exp/static/images/task_images/dig.jpg"",""time"":1867.5599999987753}]",[],16,,,,,,,,,,,,,,
harvest,259,760098,0.0-75.0-1.0,,null,run_exp/static/images/task_images/gems/38.jpg,null,,,,,,28,,,16,,,,,38,0.728972957,0.736842105,,,,,,,
decision,260,763073,0.0-75.0-2.0,,2973.345,run_exp/static/images/task_images/land.jpg,65,,,,,,28,,,16,,,,,,,,112170,2,4,FALSE,,,
dig,261,763102,0.0-76.0-0.0,,,,,,,,,,,"[{""stimulus"":""run_exp/static/images/task_images/dig.jpg"",""time"":0.13000000035390258},{""stimulus"":""run_exp/static/images/task_images/land.jpg"",""time"":8.770000000367872},{""stimulus"":""run_exp/static/images/task_images/dig.jpg"",""time"":18.384999999427237}]",[],16,,,,,,,,,,,,,,
harvest,262,764105,0.0-76.0-1.0,,null,run_exp/static/images/task_images/gems/28.jpg,null,,,,,,25,,,16,,,,,28,0.897130879,0.892857143,,,,,,,
decision,263,764547,0.0-76.0-2.0,,440.31,run_exp/static/images/task_images/land.jpg,76,,,,,,25,,,16,,,,,,,,113644,2,5,TRUE,,,
travel,264,774111,0.0-77.0-0.0,,,,,,,,,,,"[{""stimulus"":""run_exp/static/images/task_images/rocket-01.jpg"",""time"":0.11000000080093741},{""stimulus"":""run_exp/static/images/task_images/rocket-02.jpg"",""time"":1065.8949999997858},{""stimulus"":""run_exp/static/images/task_images/rocket-03.jpg"",""time"":2125.9749999990454},{""stimulus"":""run_exp/static/images/task_images/rocket-04.jpg"",""time"":3191.96500000183},{""stimulus"":""run_exp/static/images/task_images/rocket-05.jpg"",""time"":4253.9749999996275},{""stimulus"":""run_exp/static/images/task_images/rocket-06.jpg"",""time"":5315.235000001849},{""stimulus"":""run_exp/static/images/task_images/rocket-07.jpg"",""time"":6373.244999998831},{""stimulus"":""run_exp/static/images/task_images/rocket-08.jpg"",""time"":7438.300000001676},{""stimulus"":""run_exp/static/images/task_images/rocket-09.jpg"",""time"":8501.909999998985}]",[],16,,,,,,,,,,,,,,
alien_welcome,265,779116,0.0-77.0-1.0,,null,run_exp/static/images/task_images/aliens/old_aliens/planet/alien_planet-9.jpg,null,,,,,,,,,,,,9,"1,50,74,28,3,2,60,6,40,51,71,49,52,30,12,72,9,7,58,41,39,79,43,27,35,67,62,78,80,18,42,53,59,4,33,69",,,,,,,,,,
land,266,779621,0.0-77.0-2.0,,null,run_exp/static/images/task_images/land.jpg,null,,,,,,105,,,17,,,,,,,,,,,,,,
dig,267,781626,0.0-77.0-3.0,,,,,,,,,,,"[{""stimulus"":""run_exp/static/images/task_images/dig.jpg"",""time"":0.16999999922700226},{""stimulus"":""run_exp/static/images/task_images/land.jpg"",""time"":672.9599999998463},{""stimulus"":""run_exp/static/images/task_images/dig.jpg"",""time"":1338.8500000000931}]",[],17,,,,,,,,,,,,,,
harvest,268,782630,0.0-77.0-4.0,,null,run_exp/static/images/task_images/gems/105.jpg,null,,,,,,82,,,17,,,,,105,0.784731164,0.780952381,,,,,,,
decision,269,783211,0.0-77.0-5.0,,579.85,run_exp/static/images/task_images/land.jpg,65,,,,,,82,,,17,,,,,,,,132308,2,0,FALSE,,,
dig,270,785632,0.0-78.0-0.0,,,,,,,,,,,"[{""stimulus"":""run_exp/static/images/task_images/dig.jpg"",""time"":0.11000000080093741},{""stimulus"":""run_exp/static/images/task_images/land.jpg"",""time"":806.8400000011316},{""stimulus"":""run_exp/static/images/task_images/dig.jpg"",""time"":1617.9200000005076}]",[],17,,,,,,,,,,,,,,
harvest,271,786636,0.0-78.0-1.0,,null,run_exp/static/images/task_images/gems/82.jpg,null,,,,,,54,,,17,,,,,82,0.664221669,0.658536585,,,,,,,
decision,272,786968,0.0-78.0-2.0,,331.66,run_exp/static/images/task_images/land.jpg,65,,,,,,54,,,17,,,,,,,,136065,2,1,FALSE,,,
dig,273,789642,0.0-79.0-0.0,,,,,,,,,,,"[{""stimulus"":""run_exp/static/images/task_images/dig.jpg"",""time"":0.11000000091735274},{""stimulus"":""run_exp/static/images/task_images/land.jpg"",""time"":894.8799999998882},{""stimulus"":""run_exp/static/images/task_images/dig.jpg"",""time"":1782.790000001085}]",[],17,,,,,,,,,,,,,,
harvest,274,790645,0.0-79.0-1.0,,null,run_exp/static/images/task_images/gems/54.jpg,null,,,,,,45,,,17,,,,,54,0.833998847,0.833333333,,,,,,,
decision,275,791648,0.0-79.0-2.0,,1001.74,run_exp/static/images/task_images/land.jpg,65,,,,,,45,,,17,,,,,,,,140745,2,2,FALSE,,,
dig,276,793652,0.0-80.0-0.0,,,,,,,,,,,"[{""stimulus"":""run_exp/static/images/task_images/dig.jpg"",""time"":0.11500000255182385},{""stimulus"":""run_exp/static/images/task_images/land.jpg"",""time"":671.8950000031618},{""stimulus"":""run_exp/static/images/task_images/dig.jpg"",""time"":1338.030000002589}]",[],17,,,,,,,,,,,,,,
harvest,277,794658,0.0-80.0-1.0,,null,run_exp/static/images/task_images/gems/45.jpg,null,,,,,,37,,,17,,,,,45,0.832349639,0.822222222,,,,,,,
decision,278,796047,0.0-80.0-2.0,,1387.015,run_exp/static/images/task_images/land.jpg,76,,,,,,37,,,17,,,,,,,,145144,2,3,TRUE,,,
travel,279,804654,0.0-81.0-0.0,,,,,,,,,,,"[{""stimulus"":""run_exp/static/images/task_images/rocket-01.jpg"",""time"":0.11000000091735274},{""stimulus"":""run_exp/static/images/task_images/rocket-02.jpg"",""time"":957.3600000003353},{""stimulus"":""run_exp/static/images/task_images/rocket-03.jpg"",""time"":1917.959999998915},{""stimulus"":""run_exp/static/images/task_images/rocket-04.jpg"",""time"":2873.9800000003306},{""stimulus"":""run_exp/static/images/task_images/rocket-05.jpg"",""time"":3826.454999998561},{""stimulus"":""run_exp/static/images/task_images/rocket-06.jpg"",""time"":4785.374999999534},{""stimulus"":""run_exp/static/images/task_images/rocket-07.jpg"",""time"":5740.334999998566},{""stimulus"":""run_exp/static/images/task_images/rocket-08.jpg"",""time"":6694.080000001122},{""stimulus"":""run_exp/static/images/task_images/rocket-09.jpg"",""time"":7652.730000001611}]",[],17,,,,,,,,,,,,,,
alien_welcome,280,809661,0.0-81.0-1.0,,null,run_exp/static/images/task_images/aliens/old_aliens/planet/alien_planet-7.jpg,null,,,,,,,,,,,,7,"1,50,74,28,3,2,60,6,40,51,71,49,52,30,12,72,9,7,58,41,39,79,43,27,35,67,62,78,80,18,42,53,59,4,33,69",,,,,,,,,,
land,281,810167,0.0-81.0-2.0,,null,run_exp/static/images/task_images/land.jpg,null,,,,,,103,,,18,,,,,,,,,,,,,,
dig,282,812170,0.0-81.0-3.0,,,,,,,,,,,"[{""stimulus"":""run_exp/static/images/task_images/dig.jpg"",""time"":0.18500000075437129},{""stimulus"":""run_exp/static/images/task_images/land.jpg"",""time"":673.0500000012107},{""stimulus"":""run_exp/static/images/task_images/dig.jpg"",""time"":1340.0550000005169}]",[],18,,,,,,,,,,,,,,
harvest,283,813174,0.0-81.0-4.0,,null,run_exp/static/images/task_images/gems/103.jpg,null,,,,,,79,,,18,,,,,103,0.766525393,0.766990291,,,,,,,
decision,284,813732,0.0-81.0-5.0,,556.425,run_exp/static/images/task_images/land.jpg,65,,,,,,79,,,18,,,,,,,,162829,2,0,FALSE,,,
dig,285,816179,0.0-82.0-0.0,,,,,,,,,,,"[{""stimulus"":""run_exp/static/images/task_images/dig.jpg"",""time"":0.1049999991664663},{""stimulus"":""run_exp/static/images/task_images/land.jpg"",""time"":815.7250000004424},{""stimulus"":""run_exp/static/images/task_images/dig.jpg"",""time"":1630.9849999998696}]",[],18,,,,,,,,,,,,,,
harvest,286,817184,0.0-82.0-1.0,,null,run_exp/static/images/task_images/gems/79.jpg,null,,,,,,68,,,18,,,,,79,0.862680724,0.860759494,,,,,,,
decision,287,820190,0.0-82.0-2.0,,null,run_exp/static/images/task_images/land.jpg,null,,,,,,68,,,18,,,,,,,,169287,2,1,FALSE,,,
time_out,288,822198,0.0-83.0-0.0,,null,run_exp/static/images/task_images/time_out.jpg,null,,,,,,68,,,,,,,,,,,,,,,,,
decision,289,822316,0.0-83.0-1.0,,117.255,run_exp/static/images/task_images/land.jpg,65,,,,,,68,,,18,,,,,,,,171414,2,1,FALSE,,,
dig,290,825205,0.0-84.0-0.0,,,,,,,,,,,"[{""stimulus"":""run_exp/static/images/task_images/dig.jpg"",""time"":0.1049999991664663},{""stimulus"":""run_exp/static/images/task_images/land.jpg"",""time"":965.9849999989383},{""stimulus"":""run_exp/static/images/task_images/dig.jpg"",""time"":1925.154999997234}]",[],18,,,,,,,,,,,,,,
harvest,291,826209,0.0-84.0-1.0,,null,run_exp/static/images/task_images/gems/68.jpg,null,,,,,,53,,,18,,,,,68,0.772085919,0.779411765,,,,,,,
decision,292,826276,0.0-84.0-2.0,,65.675,run_exp/static/images/task_images/land.jpg,65,,,,,,53,,,18,,,,,,,,175373,2,2,FALSE,,,
dig,293,829213,0.0-85.0-0.0,,,,,,,,,,,"[{""stimulus"":""run_exp/static/images/task_images/dig.jpg"",""time"":0.17500000109430403},{""stimulus"":""run_exp/static/images/task_images/land.jpg"",""time"":984.2050000006566},{""stimulus"":""run_exp/static/images/task_images/dig.jpg"",""time"":1956.8749999998836}]",[],18,,,,,,,,,,,,,,
harvest,294,830216,0.0-85.0-1.0,,null,run_exp/static/images/task_images/gems/53.jpg,null,,,,,,45,,,18,,,,,53,0.842194947,0.849056604,,,,,,,
decision,295,830303,0.0-85.0-2.0,,86.245,run_exp/static/images/task_images/land.jpg,65,,,,,,45,,,18,,,,,,,,179400,2,3,FALSE,,,
dig,296,833220,0.0-86.0-0.0,,,,,,,,,,,"[{""stimulus"":""run_exp/static/images/task_images/dig.jpg"",""time"":0.11000000091735274},{""stimulus"":""run_exp/static/images/task_images/land.jpg"",""time"":973.9200000003912},{""stimulus"":""run_exp/static/images/task_images/dig.jpg"",""time"":1947.759999999078}]",[],18,,,,,,,,,,,,,,
harvest,297,834226,0.0-86.0-1.0,,null,run_exp/static/images/task_images/gems/45.jpg,null,,,,,,37,,,18,,,,,45,0.813779188,0.822222222,,,,,,,
decision,298,837228,0.0-86.0-2.0,,null,run_exp/static/images/task_images/land.jpg,null,,,,,,37,,,18,,,,,,,,186325,2,4,FALSE,,,
time_out,299,839231,0.0-87.0-0.0,,null,run_exp/static/images/task_images/time_out.jpg,null,,,,,,37,,,,,,,,,,,,,,,,,
decision,300,839304,0.0-87.0-1.0,,71.925,run_exp/static/images/task_images/land.jpg,76,,,,,,37,,,18,,,,,,,,188401,2,4,TRUE,,,
travel,301,849239,0.0-88.0-0.0,,,,,,,,,,,"[{""stimulus"":""run_exp/static/images/task_images/rocket-01.jpg"",""time"":0.11500000255182385},{""stimulus"":""run_exp/static/images/task_images/rocket-02.jpg"",""time"":1105.220000001369},{""stimulus"":""run_exp/static/images/task_images/rocket-03.jpg"",""time"":2212.025000000722},{""stimulus"":""run_exp/static/images/task_images/rocket-04.jpg"",""time"":3315.070000000531},{""stimulus"":""run_exp/static/images/task_images/rocket-05.jpg"",""time"":4417.935000001336},{""stimulus"":""run_exp/static/images/task_images/rocket-06.jpg"",""time"":5516.200000001816},{""stimulus"":""run_exp/static/images/task_images/rocket-07.jpg"",""time"":6623.955000002752},{""stimulus"":""run_exp/static/images/task_images/rocket-08.jpg"",""time"":7727.10999999987},{""stimulus"":""run_exp/static/images/task_images/rocket-09.jpg"",""time"":8826.605000002077}]",[],18,,,,,,,,,,,,,,
alien_welcome,302,854240,0.0-88.0-1.0,,null,run_exp/static/images/task_images/aliens/old_aliens/planet/alien_planet-58.jpg,null,,,,,,,,,,,,58,"1,50,74,28,3,2,60,6,40,51,71,49,52,30,12,72,9,7,58,41,39,79,43,27,35,67,62,78,80,18,42,53,59,4,33,69",,,,,,,,,,
land,303,854745,0.0-88.0-2.0,,null,run_exp/static/images/task_images/land.jpg,null,,,,,,105,,,19,,,,,,,,,,,,,,
dig,304,856752,0.0-88.0-3.0,,,,,,,,,,,"[{""stimulus"":""run_exp/static/images/task_images/dig.jpg"",""time"":0.16500000120140612},{""stimulus"":""run_exp/static/images/task_images/land.jpg"",""time"":672.9950000008103},{""stimulus"":""run_exp/static/images/task_images/dig.jpg"",""time"":1340.0499999988824}]",[],19,,,,,,,,,,,,,,
harvest,305,857756,0.0-88.0-4.0,,null,run_exp/static/images/task_images/gems/105.jpg,null,,,,,,87,,,19,,,,,105,0.830017634,0.828571429,,,,,,,
decision,306,860763,0.0-88.0-5.0,,null,run_exp/static/images/task_images/land.jpg,null,,,,,,87,,,19,,,,,,,,209860,2,0,FALSE,,,
time_out,307,862766,0.0-89.0-0.0,,null,run_exp/static/images/task_images/time_out.jpg,null,,,,,,87,,,,,,,,,,,,,,,,,
decision,308,863020,0.0-89.0-1.0,,253.16,run_exp/static/images/task_images/land.jpg,65,,,,,,87,,,19,,,,,,,,212117,2,0,FALSE,,,
dig,309,865772,0.0-90.0-0.0,,,,,,,,,,,"[{""stimulus"":""run_exp/static/images/task_images/dig.jpg"",""time"":0.10499999928288162},{""stimulus"":""run_exp/static/images/task_images/land.jpg"",""time"":916.8350000000792},{""stimulus"":""run_exp/static/images/task_images/dig.jpg"",""time"":1833.3500000007916}]",[],19,,,,,,,,,,,,,,
harvest,310,866779,0.0-90.0-1.0,,null,run_exp/static/images/task_images/gems/87.jpg,null,,,,,,69,,,19,,,,,87,0.794542249,0.793103448,,,,,,,
decision,311,868026,0.0-90.0-2.0,,1245.695,run_exp/static/images/task_images/land.jpg,65,,,,,,69,,,19,,,,,,,,217123,2,1,FALSE,,,
dig,312,869781,0.0-91.0-0.0,,,,,,,,,,,"[{""stimulus"":""run_exp/static/images/task_images/dig.jpg"",""time"":0.12500000232830644},{""stimulus"":""run_exp/static/images/task_images/land.jpg"",""time"":587.8450000018347},{""stimulus"":""run_exp/static/images/task_images/dig.jpg"",""time"":1168.8150000009919}]",[],19,,,,,,,,,,,,,,
harvest,313,870788,0.0-91.0-1.0,,null,run_exp/static/images/task_images/gems/69.jpg,null,,,,,,52,,,19,,,,,69,0.756051128,0.753623188,,,,,,,
decision,314,870894,0.0-91.0-2.0,,105.6,run_exp/static/images/task_images/land.jpg,76,,,,,,52,,,19,,,,,,,,219992,2,2,TRUE,,,
travel,315,880793,0.0-92.0-0.0,,,,,,,,,,,"[{""stimulus"":""run_exp/static/images/task_images/rocket-01.jpg"",""time"":0.11000000091735274},{""stimulus"":""run_exp/static/images/task_images/rocket-02.jpg"",""time"":1104.9950000015087},{""stimulus"":""run_exp/static/images/task_images/rocket-03.jpg"",""time"":2200.4950000009267},{""stimulus"":""run_exp/static/images/task_images/rocket-04.jpg"",""time"":3301.5400000003865},{""stimulus"":""run_exp/static/images/task_images/rocket-05.jpg"",""time"":4398.740000000573},{""stimulus"":""run_exp/static/images/task_images/rocket-06.jpg"",""time"":5499.2249999996275},{""stimulus"":""run_exp/static/images/task_images/rocket-07.jpg"",""time"":6595.339999999851},{""stimulus"":""run_exp/static/images/task_images/rocket-08.jpg"",""time"":7696.045000000624},{""stimulus"":""run_exp/static/images/task_images/rocket-09.jpg"",""time"":8794.939999999828}]",[],19,,,,,,,,,,,,,,
alien_welcome,316,885797,0.0-92.0-1.0,,null,run_exp/static/images/task_images/aliens/old_aliens/planet/alien_planet-41.jpg,null,,,,,,,,,,,,41,"1,50,74,28,3,2,60,6,40,51,71,49,52,30,12,72,9,7,58,41,39,79,43,27,35,67,62,78,80,18,42,53,59,4,33,69",,,,,,,,,,
land,317,886303,0.0-92.0-2.0,,null,run_exp/static/images/task_images/land.jpg,null,,,,,,104,,,20,,,,,,,,,,,,,,
dig,318,888307,0.0-92.0-3.0,,,,,,,,,,,"[{""stimulus"":""run_exp/static/images/task_images/dig.jpg"",""time"":0.17499999748542905},{""stimulus"":""run_exp/static/images/task_images/land.jpg"",""time"":670.1549999997951},{""stimulus"":""run_exp/static/images/task_images/dig.jpg"",""time"":1340.0000000002328}]",[],20,,,,,,,,,,,,,,
harvest,319,889310,0.0-92.0-4.0,,null,run_exp/static/images/task_images/gems/104.jpg,null,,,,,,85,,,20,,,,,104,0.821100572,0.817307692,,,,,,,
decision,320,889323,0.0-92.0-5.0,,12.04,run_exp/static/images/task_images/land.jpg,65,,,,,,85,,,20,,,,,,,,238420,2,0,FALSE,,,
dig,321,892316,0.0-93.0-0.0,,,,,,,,,,,"[{""stimulus"":""run_exp/static/images/task_images/dig.jpg"",""time"":0.13499999849591404},{""stimulus"":""run_exp/static/images/task_images/land.jpg"",""time"":997.2949999974808},{""stimulus"":""run_exp/static/images/task_images/dig.jpg"",""time"":1993.9300000005169}]",[],20,,,,,,,,,,,,,,
harvest,322,893318,0.0-93.0-1.0,,null,run_exp/static/images/task_images/gems/85.jpg,null,,,,,,63,,,20,,,,,85,0.745718165,0.741176471,,,,,,,
decision,323,893384,0.0-93.0-2.0,,64.845,run_exp/static/images/task_images/land.jpg,65,,,,,,63,,,20,,,,,,,,242481,2,1,FALSE,,,
dig,324,896325,0.0-94.0-0.0,,,,,,,,,,,"[{""stimulus"":""run_exp/static/images/task_images/dig.jpg"",""time"":0.1049999991664663},{""stimulus"":""run_exp/static/images/task_images/land.jpg"",""time"":979.4049999982817},{""stimulus"":""run_exp/static/images/task_images/dig.jpg"",""time"":1960.0399999981746}]",[],20,,,,,,,,,,,,,,
harvest,325,897331,0.0-94.0-1.0,,null,run_exp/static/images/task_images/gems/63.jpg,null,,,,,,49,,,20,,,,,63,0.778743463,0.777777778,,,,,,,
decision,326,897378,0.0-94.0-2.0,,45.74,run_exp/static/images/task_images/land.jpg,65,,,,,,49,,,20,,,,,,,,246475,2,2,FALSE,,,
dig,327,900334,0.0-95.0-0.0,,,,,,,,,,,"[{""stimulus"":""run_exp/static/images/task_images/dig.jpg"",""time"":0.10000000114087015},{""stimulus"":""run_exp/static/images/task_images/land.jpg"",""time"":986.8999999999069},{""stimulus"":""run_exp/static/images/task_images/dig.jpg"",""time"":1968.9500000022817}]",[],20,,,,,,,,,,,,,,
harvest,328,901340,0.0-95.0-1.0,,null,run_exp/static/images/task_images/gems/49.jpg,null,,,,,,38,,,20,,,,,49,0.777254533,0.775510204,,,,,,,
decision,329,901732,0.0-95.0-2.0,,391.075,run_exp/static/images/task_images/land.jpg,65,,,,,,38,,,20,,,,,,,,250829,2,3,FALSE,,,
dig,330,904346,0.0-96.0-0.0,,,,,,,,,,,"[{""stimulus"":""run_exp/static/images/task_images/dig.jpg"",""time"":0.1049999991664663},{""stimulus"":""run_exp/static/images/task_images/land.jpg"",""time"":869.7299999985844},{""stimulus"":""run_exp/static/images/task_images/dig.jpg"",""time"":1743.9400000002934}]",[],20,,,,,,,,,,,,,,
harvest,331,905348,0.0-96.0-1.0,,null,run_exp/static/images/task_images/gems/38.jpg,null,,,,,,31,,,20,,,,,38,0.824586336,0.815789474,,,,,,,
decision,332,905512,0.0-96.0-2.0,,162.86,run_exp/static/images/task_images/land.jpg,76,,,,,,31,,,20,,,,,,,,254609,2,4,TRUE,,,
travel,333,915357,0.0-97.0-0.0,,,,,,,,,,,"[{""stimulus"":""run_exp/static/images/task_images/rocket-01.jpg"",""time"":0.13500000210478902},{""stimulus"":""run_exp/static/images/task_images/rocket-02.jpg"",""time"":1097.675000000978},{""stimulus"":""run_exp/static/images/task_images/rocket-03.jpg"",""time"":2191.4600000018254},{""stimulus"":""run_exp/static/images/task_images/rocket-04.jpg"",""time"":3283.80499999912},{""stimulus"":""run_exp/static/images/task_images/rocket-05.jpg"",""time"":4377.9500000019325},{""stimulus"":""run_exp/static/images/task_images/rocket-06.jpg"",""time"":5469.974999999977},{""stimulus"":""run_exp/static/images/task_images/rocket-07.jpg"",""time"":6564.024999999674},{""stimulus"":""run_exp/static/images/task_images/rocket-08.jpg"",""time"":7657.035000000149},{""stimulus"":""run_exp/static/images/task_images/rocket-09.jpg"",""time"":8750.035000000964}]",[],20,,,,,,,,,,,,,,
alien_welcome,334,920359,0.0-97.0-1.0,,null,run_exp/static/images/task_images/aliens/old_aliens/planet/alien_planet-39.jpg,null,,,,,,,,,,,,39,"1,50,74,28,3,2,60,6,40,51,71,49,52,30,12,72,9,7,58,41,39,79,43,27,35,67,62,78,80,18,42,53,59,4,33,69",,,,,,,,,,
land,335,920861,0.0-97.0-2.0,,null,run_exp/static/images/task_images/land.jpg,null,,,,,,104,,,21,,,,,,,,,,,,,,
dig,336,922866,0.0-97.0-3.0,,,,,,,,,,,"[{""stimulus"":""run_exp/static/images/task_images/dig.jpg"",""time"":0.15500000154133886},{""stimulus"":""run_exp/static/images/task_images/land.jpg"",""time"":672.4250000006286},{""stimulus"":""run_exp/static/images/task_images/dig.jpg"",""time"":1339.7650000007125}]",[],21,,,,,,,,,,,,,,
harvest,337,923870,0.0-97.0-4.0,,null,run_exp/static/images/task_images/gems/104.jpg,null,,,,,,61,,,21,,,,,104,0.58269493,0.586538462,,,,,,,
decision,338,924030,0.0-97.0-5.0,,158.735,run_exp/static/images/task_images/land.jpg,65,,,,,,61,,,21,,,,,,,,273127,2,0,FALSE,,,
dig,339,926874,0.0-98.0-0.0,,,,,,,,,,,"[{""stimulus"":""run_exp/static/images/task_images/dig.jpg"",""time"":0.11499999894294888},{""stimulus"":""run_exp/static/images/task_images/land.jpg"",""time"":953.0049999994226},{""stimulus"":""run_exp/static/images/task_images/dig.jpg"",""time"":1900.0000000015134}]",[],21,,,,,,,,,,,,,,
harvest,340,927881,0.0-98.0-1.0,,null,run_exp/static/images/task_images/gems/61.jpg,null,,,,,,30,,,21,,,,,61,0.487355474,0.491803279,,,,,,,
decision,341,928046,0.0-98.0-2.0,,164.43,run_exp/static/images/task_images/land.jpg,65,,,,,,30,,,21,,,,,,,,277143,2,1,FALSE,,,
dig,342,930885,0.0-99.0-0.0,,,,,,,,,,,"[{""stimulus"":""run_exp/static/images/task_images/dig.jpg"",""time"":0.1049999991664663},{""stimulus"":""run_exp/static/images/task_images/land.jpg"",""time"":950.9800000014948},{""stimulus"":""run_exp/static/images/task_images/dig.jpg"",""time"":1892.1900000022724}]",[],21,,,,,,,,,,,,,,
harvest,343,931891,0.0-99.0-1.0,,null,run_exp/static/images/task_images/gems/30.jpg,null,,,,,,17,,,21,,,,,30,0.557319824,0.566666667,,,,,,,
decision,344,932028,0.0-99.0-2.0,,136.49,run_exp/static/images/task_images/land.jpg,65,,,,,,17,,,21,,,,,,,,281125,2,2,FALSE,,,
dig,345,934894,0.0-100.0-0.0,,,,,,,,,,,"[{""stimulus"":""run_exp/static/images/task_images/dig.jpg"",""time"":0.1049999991664663},{""stimulus"":""run_exp/static/images/task_images/land.jpg"",""time"":959.9600000000792},{""stimulus"":""run_exp/static/images/task_images/dig.jpg"",""time"":1913.4400000002934}]",[],21,,,,,,,,,,,,,,
harvest,346,935899,0.0-100.0-1.0,,null,run_exp/static/images/task_images/gems/17.jpg,null,,,,,,9,,,21,,,,,17,0.507990435,0.529411765,,,,,,,
decision,347,935921,0.0-100.0-2.0,,20.765,run_exp/static/images/task_images/land.jpg,76,,,,,,9,,,21,,,,,,,,285018,2,3,TRUE,,,
travel,348,945901,0.0-101.0-0.0,,,,,,,,,,,"[{""stimulus"":""run_exp/static/images/task_images/rocket-01.jpg"",""time"":0.1049999991664663},{""stimulus"":""run_exp/static/images/task_images/rocket-02.jpg"",""time"":1113.8500000016065},{""stimulus"":""run_exp/static/images/task_images/rocket-03.jpg"",""time"":2221.9150000019},{""stimulus"":""run_exp/static/images/task_images/rocket-04.jpg"",""time"":3327.3599999992875},{""stimulus"":""run_exp/static/images/task_images/rocket-05.jpg"",""time"":4438.075000001816},{""stimulus"":""run_exp/static/images/task_images/rocket-06.jpg"",""time"":5543.874999999418},{""stimulus"":""run_exp/static/images/task_images/rocket-07.jpg"",""time"":6649.140000001411},{""stimulus"":""run_exp/static/images/task_images/rocket-08.jpg"",""time"":7762.064999999013},{""stimulus"":""run_exp/static/images/task_images/rocket-09.jpg"",""time"":8865.259999998729}]",[],21,,,,,,,,,,,,,,
alien_welcome,349,950907,0.0-101.0-1.0,,null,run_exp/static/images/task_images/aliens/old_aliens/planet/alien_planet-79.jpg,null,,,,,,,,,,,,79,"1,50,74,28,3,2,60,6,40,51,71,49,52,30,12,72,9,7,58,41,39,79,43,27,35,67,62,78,80,18,42,53,59,4,33,69",,,,,,,,,,
land,350,951414,0.0-101.0-2.0,,null,run_exp/static/images/task_images/land.jpg,null,,,,,,101,,,22,,,,,,,,,,,,,,
dig,351,953417,0.0-101.0-3.0,,,,,,,,,,,"[{""stimulus"":""run_exp/static/images/task_images/dig.jpg"",""time"":0.16500000131782144},{""stimulus"":""run_exp/static/images/task_images/land.jpg"",""time"":669.8299999989104},{""stimulus"":""run_exp/static/images/task_images/dig.jpg"",""time"":1339.9349999999395}]",[],22,,,,,,,,,,,,,,
harvest,352,954423,0.0-101.0-4.0,,null,run_exp/static/images/task_images/gems/101.jpg,null,,,,,,88,,,22,,,,,101,0.873098879,0.871287129,,,,,,,
decision,353,954664,0.0-101.0-5.0,,239.32,run_exp/static/images/task_images/land.jpg,65,,,,,,88,,,22,,,,,,,,303761,2,0,TRUE,,,
end_of_block_continue,354,958940,0.0-102.0-0.0,,4273.31,run_exp/static/audio/clip_32_block_end.m4a,,,,,,0,,,,,,,,,,,,,,,,,,
alien_welcome,355,963949,0.0-103.0-0.0,,null,run_exp/static/images/task_images/aliens/old_aliens/planet/alien_planet-43.jpg,null,,,,,,,,,,,,43,"1,50,74,28,3,2,60,6,40,51,71,49,52,30,12,72,9,7,58,41,39,79,43,27,35,67,62,78,80,18,42,53,59,4,33,69",,,,,,,,,,
land,356,964455,0.0-103.0-1.0,,null,run_exp/static/images/task_images/land.jpg,null,,,,,,102,,,23,,,,,,,,,,,,,,
dig,357,966459,0.0-103.0-2.0,,,,,,,,,,,"[{""stimulus"":""run_exp/static/images/task_images/dig.jpg"",""time"":0.17499999748542905},{""stimulus"":""run_exp/static/images/task_images/land.jpg"",""time"":673.0449999995762},{""stimulus"":""run_exp/static/images/task_images/dig.jpg"",""time"":1335.5400000000373}]",[],23,,,,,,,,,,,,,,
harvest,358,967465,0.0-103.0-3.0,,null,run_exp/static/images/task_images/gems/102.jpg,null,,,,,,46,,,23,,,,,102,0.451252144,0.450980392,,,,,,,
decision,359,967838,0.0-103.0-4.0,,371.84,run_exp/static/images/task_images/land.jpg,65,,,,,,46,,,23,,,,,,,,8893,3,0,FALSE,,,
dig,360,970472,0.0-104.0-0.0,,,,,,,,,,,"[{""stimulus"":""run_exp/static/images/task_images/dig.jpg"",""time"":0.10000000114087015},{""stimulus"":""run_exp/static/images/task_images/land.jpg"",""time"":877.1950000009965},{""stimulus"":""run_exp/static/images/task_images/dig.jpg"",""time"":1757.4950000017416}]",[],23,,,,,,,,,,,,,,
harvest,361,971478,0.0-104.0-1.0,,null,run_exp/static/images/task_images/gems/46.jpg,null,,,,,,22,,,23,,,,,46,0.467448807,0.47826087,,,,,,,
decision,362,973385,0.0-104.0-2.0,,1905.48,run_exp/static/images/task_images/land.jpg,65,,,,,,22,,,23,,,,,,,,14440,3,1,FALSE,,,
dig,363,974481,0.0-105.0-0.0,,,,,,,,,,,"[{""stimulus"":""run_exp/static/images/task_images/dig.jpg"",""time"":0.13000000035390258},{""stimulus"":""run_exp/static/images/task_images/land.jpg"",""time"":368.1499999985099},{""stimulus"":""run_exp/static/images/task_images/dig.jpg"",""time"":734.0850000000792}]",[],23,,,,,,,,,,,,,,
harvest,364,975487,0.0-105.0-1.0,,null,run_exp/static/images/task_images/gems/22.jpg,null,,,,,,10,,,23,,,,,22,0.441116454,0.454545455,,,,,,,
decision,365,975904,0.0-105.0-2.0,,416.645,run_exp/static/images/task_images/land.jpg,65,,,,,,10,,,23,,,,,,,,16960,3,2,FALSE,,,
dig,366,978493,0.0-106.0-0.0,,,,,,,,,,,"[{""stimulus"":""run_exp/static/images/task_images/dig.jpg"",""time"":0.11000000080093741},{""stimulus"":""run_exp/static/images/task_images/land.jpg"",""time"":866.1749999992317},{""stimulus"":""run_exp/static/images/task_images/dig.jpg"",""time"":1727.5350000017788}]",[],23,,,,,,,,,,,,,,
harvest,367,979496,0.0-106.0-1.0,,null,run_exp/static/images/task_images/gems/10.jpg,null,,,,,,6,,,23,,,,,10,0.569050477,0.6,,,,,,,
decision,368,980776,0.0-106.0-2.0,,1279.275,run_exp/static/images/task_images/land.jpg,65,,,,,,6,,,23,,,,,,,,21831,3,3,FALSE,,,
dig,369,982502,0.0-107.0-0.0,,,,,,,,,,,"[{""stimulus"":""run_exp/static/images/task_images/dig.jpg"",""time"":0.11000000080093741},{""stimulus"":""run_exp/static/images/task_images/land.jpg"",""time"":576.4200000012061},{""stimulus"":""run_exp/static/images/task_images/dig.jpg"",""time"":1148.7600000000093}]",[],23,,,,,,,,,,,,,,
harvest,370,983505,0.0-107.0-1.0,,null,run_exp/static/images/task_images/gems/6.jpg,null,,,,,,3,,,23,,,,,6,0.42316173,0.5,,,,,,,
decision,371,983634,0.0-107.0-2.0,,127.63,run_exp/static/images/task_images/land.jpg,65,,,,,,3,,,23,,,,,,,,24689,3,4,FALSE,,,
dig,372,986508,0.0-108.0-0.0,,,,,,,,,,,"[{""stimulus"":""run_exp/static/images/task_images/dig.jpg"",""time"":0.1049999991664663},{""stimulus"":""run_exp/static/images/task_images/land.jpg"",""time"":962.3699999975506},{""stimulus"":""run_exp/static/images/task_images/dig.jpg"",""time"":1918.3149999990128}]",[],23,,,,,,,,,,,,,,
harvest,373,987515,0.0-108.0-1.0,,null,run_exp/static/images/task_images/gems/3.jpg,null,,,,,,2,,,23,,,,,3,0.544600751,0.666666667,,,,,,,
decision,374,988876,0.0-108.0-2.0,,1360.485,run_exp/static/images/task_images/land.jpg,65,,,,,,2,,,23,,,,,,,,29931,3,5,FALSE,,,
dig,375,990520,0.0-109.0-0.0,,,,,,,,,,,"[{""stimulus"":""run_exp/static/images/task_images/dig.jpg"",""time"":0.11000000091735274},{""stimulus"":""run_exp/static/images/task_images/land.jpg"",""time"":549.1399999991991},{""stimulus"":""run_exp/static/images/task_images/dig.jpg"",""time"":1095.8800000008196}]",[],23,,,,,,,,,,,,,,
harvest,376,991524,0.0-109.0-1.0,,null,run_exp/static/images/task_images/gems/2.jpg,null,,,,,,1,,,23,,,,,2,0.477411385,0.5,,,,,,,
decision,377,992555,0.0-109.0-2.0,,1029.44,run_exp/static/images/task_images/land.jpg,65,,,,,,1,,,23,,,,,,,,33610,3,6,FALSE,,,
dig,378,994531,0.0-110.0-0.0,,,,,,,,,,,"[{""stimulus"":""run_exp/static/images/task_images/dig.jpg"",""time"":0.11500000255182385},{""stimulus"":""run_exp/static/images/task_images/land.jpg"",""time"":656.7600000016391},{""stimulus"":""run_exp/static/images/task_images/dig.jpg"",""time"":1316.9799999995157}]",[],23,,,,,,,,,,,,,,
harvest,379,995536,0.0-110.0-1.0,,null,run_exp/static/images/task_images/gems/1.jpg,null,,,,,,0,,,23,,,,,1,0.436811086,0,,,,,,,
decision,380,995649,0.0-110.0-2.0,,111.87,run_exp/static/images/task_images/land.jpg,76,,,,,,0,,,23,,,,,,,,36704,3,7,TRUE,,,
travel,381,1005539,0.0-111.0-0.0,,,,,,,,,,,"[{""stimulus"":""run_exp/static/images/task_images/rocket-01.jpg"",""time"":0.18000000272877514},{""stimulus"":""run_exp/static/images/task_images/rocket-02.jpg"",""time"":1104.0549999998184},{""stimulus"":""run_exp/static/images/task_images/rocket-03.jpg"",""time"":2197.055000000517},{""stimulus"":""run_exp/static/images/task_images/rocket-04.jpg"",""time"":3298.0050000004703},{""stimulus"":""run_exp/static/images/task_images/rocket-05.jpg"",""time"":4398.095000000438},{""stimulus"":""run_exp/static/images/task_images/rocket-06.jpg"",""time"":5496.060000001336},{""stimulus"":""run_exp/static/images/task_images/rocket-07.jpg"",""time"":6593.720000000787},{""stimulus"":""run_exp/static/images/task_images/rocket-08.jpg"",""time"":7687.055000002147},{""stimulus"":""run_exp/static/images/task_images/rocket-09.jpg"",""time"":8784.810000000987}]",[],23,,,,,,,,,,,,,,
alien_welcome,382,1010546,0.0-111.0-1.0,,null,run_exp/static/images/task_images/aliens/old_aliens/planet/alien_planet-27.jpg,null,,,,,,,,,,,,27,"1,50,74,28,3,2,60,6,40,51,71,49,52,30,12,72,9,7,58,41,39,79,43,27,35,67,62,78,80,18,42,53,59,4,33,69",,,,,,,,,,
land,383,1011047,0.0-111.0-2.0,,null,run_exp/static/images/task_images/land.jpg,null,,,,,,98,,,24,,,,,,,,,,,,,,
dig,384,1013055,0.0-111.0-3.0,,,,,,,,,,,"[{""stimulus"":""run_exp/static/images/task_images/dig.jpg"",""time"":0.16999999922700226},{""stimulus"":""run_exp/static/images/task_images/land.jpg"",""time"":670.5399999991059},{""stimulus"":""run_exp/static/images/task_images/dig.jpg"",""time"":1340.0449999971315}]",[],24,,,,,,,,,,,,,,
harvest,385,1014059,0.0-111.0-4.0,,null,run_exp/static/images/task_images/gems/98.jpg,null,,,,,,81,,,24,,,,,98,0.828585864,0.826530612,,,,,,,
decision,386,1016237,0.0-111.0-5.0,,2176.615,run_exp/static/images/task_images/land.jpg,65,,,,,,81,,,24,,,,,,,,57292,3,0,FALSE,,,
dig,387,1017062,0.0-112.0-0.0,,,,,,,,,,,"[{""stimulus"":""run_exp/static/images/task_images/dig.jpg"",""time"":0.10499999928288162},{""stimulus"":""run_exp/static/images/task_images/land.jpg"",""time"":277.76000000094064},{""stimulus"":""run_exp/static/images/task_images/dig.jpg"",""time"":548.5999999982305}]",[],24,,,,,,,,,,,,,,
harvest,388,1018068,0.0-112.0-1.0,,null,run_exp/static/images/task_images/gems/81.jpg,null,,,,,,68,,,24,,,,,81,0.839074585,0.839506173,,,,,,,
decision,389,1018307,0.0-112.0-2.0,,237.45,run_exp/static/images/task_images/land.jpg,65,,,,,,68,,,24,,,,,,,,59362,3,1,FALSE,,,
dig,390,1021075,0.0-113.0-0.0,,,,,,,,,,,"[{""stimulus"":""run_exp/static/images/task_images/dig.jpg"",""time"":0.11000000103376806},{""stimulus"":""run_exp/static/images/task_images/land.jpg"",""time"":925.9700000004377},{""stimulus"":""run_exp/static/images/task_images/dig.jpg"",""time"":1841.7200000004377}]",[],24,,,,,,,,,,,,,,
harvest,391,1022080,0.0-113.0-1.0,,null,run_exp/static/images/task_images/gems/68.jpg,null,,,,,,61,,,24,,,,,68,0.893356497,0.897058824,,,,,,,
decision,392,1022525,0.0-113.0-2.0,,443.89,run_exp/static/images/task_images/land.jpg,65,,,,,,61,,,24,,,,,,,,63581,3,2,FALSE,,,
dig,393,1025087,0.0-114.0-0.0,,,,,,,,,,,"[{""stimulus"":""run_exp/static/images/task_images/dig.jpg"",""time"":0.11000000103376806},{""stimulus"":""run_exp/static/images/task_images/land.jpg"",""time"":854.5950000006706},{""stimulus"":""run_exp/static/images/task_images/dig.jpg"",""time"":1707.3200000014622}]",[],24,,,,,,,,,,,,,,
