trial_type,trial_index,time_elapsed,internal_node_id,success,rt,stimulus,key_press,prompt,subject_id,age,gender,button_pressed,next_reward,animation_sequence,responses,planet,curr_prac_trial,n_prac_rounds,alien,aliens,reward_received,decay_rate_actual,decay_rate_exp,time_in_block,block_num,prt,last_trial_on_planet,button_html,bonus,num_failures
pavlovia,0,14,0.0-0.0,,,,,,,,,,,,,,,,,,,,,,,,,,,
fullscreen,1,2611,0.0-1.0,TRUE,,,,,,,,,,,,,,,,,,,,,,,,,,
instruc_welcome,2,12523,0.0-2.0,,null,run_exp/static/audio/clip_1_welcome.m4a,null,"<p>Howdy! In this experiment, you’ll be an explorer traveling through space to collect space treasure.</p><p>Your mission is to collect as much treasure as possible.</p><br><br><p><img src='run_exp/static/images/task_images/opening_img-01.jpg' height='300' width='auto'></p>",k0krLkRde9AKASU_a5Ke5UddwllDBGZ_MLRP_bJcv9I7tQ86S43c,10.8,male,,,,,,,,,,,,,,,,,,,
audio-keyboard-response,3,29541,0.0-3.0,,null,run_exp/static/audio/clip_2_move.m4a,null,,,,,,,,,,,,,,,,,,,,,,,
welcome_dec,4,30444,0.0-4.0,,894.22,"<p>Howdy! In this experiment, you’ll be an explorer traveling through space to collect space treasure.</p><p>Your mission is to collect as much treasure as possible.</p><br><br><p><img src='run_exp/static/images/task_images/opening_img-01.jpg' height='300' width='auto'></p>",,,,,,1,,,,,,,,,,,,,,,,,,
html-keyboard-response,5,31254,0.0-5.0,,800.785,"<p>Howdy! In this experiment, you’ll be an explorer traveling through space to collect space treasure.</p><p>Your mission is to collect as much treasure as possible.</p><br><br><p><img src='run_exp/static/images/task_images/opening_img-01.jpg' height='300' width='auto'></p><button class=""jspsych-html-btn-unchosen""><img src=""run_exp/static/images/task_images/planet-01.jpg"" height=""50""></button><button class=""jspsych-html-btn-chosen""><img src=""run_exp/static/images/task_images/planet-02.jpg"" height=""50""></button><p><b>[press the space bar to lock in your answer]<b><br></p>",32,,,,,,,,,,,,,,,,,,,,,,,
instruc_goal,6,41703,0.0-6.0-0.0,,null,run_exp/static/audio/clip_3_goal.m4a,null,"<p> As a space explorer, you’ll visit different planets to dig for space treasure, these pink gems.</p> <p> The more treasure you dig up, the more bonus money you’ll win! </p><br><br><p><img src='run_exp/static/images/task_images/pink_gem.jpg' height='300' width='auto'></p>",,,,,,,,,,,,,,,,,,,,,,
instruc_goal,7,43576,0.0-6.0-1.0,,1864.305,"<p> As a space explorer, you’ll visit different planets to dig for space treasure, these pink gems.</p> <p> The more treasure you dig up, the more bonus money you’ll win! </p><br><br><p><img src='run_exp/static/images/task_images/pink_gem.jpg' height='300' width='auto'></p>",,,,,,1,,,,,,,,,,,,,,,,,,
html-keyboard-response,8,44375,0.0-6.0-2.0,,790.61,"<p> As a space explorer, you’ll visit different planets to dig for space treasure, these pink gems.</p> <p> The more treasure you dig up, the more bonus money you’ll win! </p><br><br><p><img src='run_exp/static/images/task_images/pink_gem.jpg' height='300' width='auto'></p><button class=""jspsych-html-btn-unchosen""><img src=""run_exp/static/images/task_images/planet-01.jpg"" height=""50""></button><button class=""jspsych-html-btn-chosen""><img src=""run_exp/static/images/task_images/planet-02.jpg"" height=""50""></button><p><b>[press the space bar to lock in your answer]<b><br></p>",32,,,,,,,,,,,,,,,,,,,,,,,
instruc_dig,9,60774,0.0-7.0-0.0,,null,run_exp/static/audio/clip_4_dig.m4a,null,,,,,,100,,,,,,,,,,,,,,,,,
instruc_dig_try,10,61123,0.0-7.0-1.0,,344.81,"<p> When you’ve arrived at a new planet, you will dig once. </p> <p>Then, you get to decide if you want to stay on the planet and dig again or travel to a new planet and dig there.</p> <p> To stay and dig, press the letter <strong>‘A’</strong> on your keyboard. Try pressing it now! </p><p><img src='run_exp/static/images/task_images/land.jpg'  height='700' width='auto'></p>",65,"<p> When you’ve arrived at a new planet, you will dig once. </p> <p>Then, you get to decide if you want to stay on the planet and dig again or travel to a new planet and dig there.</p> <p> To stay and dig, press the letter <strong>‘A’</strong> on your keyboard. Try pressing it now! </p><p><img src='run_exp/static/images/task_images/land.jpg'  height='700' width='auto'></p>",,,,,100,,,,,,,,,,,,,,,,,
dig_prac,11,63146,0.0-7.0-2.0,,,,,,,,,,,"[{""stimulus"":""run_exp/static/images/task_images/dig.jpg"",""time"":0.9600000003119931},{""stimulus"":""run_exp/static/images/task_images/land.jpg"",""time"":672.7049999999581},{""stimulus"":""run_exp/static/images/task_images/dig.jpg"",""time"":1337.860000000539}]",[],,,,,,,,,,,,,,,
instruc_travel,12,99685,0.0-7.0-3.0,,null,run_exp/static/audio/clip_5_travel.m4a,null,"<p>Every time you dig up gems, there are less gems on the planet, so the more you dig on a planet the fewer gems you’ll get with each dig.</p><p>When gems are running low, you may want to travel to a new planet. </p> <p>  Planets are very far apart in this galaxy, so it will take some time to travel between them. </p> <br><p>There are lots and lots of planets for you to visit, so you won’t be able to return to any planets you’ve seen before. </p><br><p>To leave this planet and travel to a new one, press the letter <strong>‘L’</strong> on your keyboard. Try pressing it now! </p><p><img src='run_exp/static/images/task_images/rocket-01.jpg'  height='600' width='auto'></p>",,,,,,,,,,,,,,,,,,,,,,
instruc_travel_try,13,101299,0.0-7.0-4.0,,1605.22,"<p>Every time you dig up gems, there are less gems on the planet, so the more you dig on a planet the fewer gems you’ll get with each dig.</p><p>When gems are running low, you may want to travel to a new planet. </p> <p>  Planets are very far apart in this galaxy, so it will take some time to travel between them. </p> <br><p>There are lots and lots of planets for you to visit, so you won’t be able to return to any planets you’ve seen before. </p><br><p>To leave this planet and travel to a new one, press the letter <strong>‘L’</strong> on your keyboard. Try pressing it now! </p><p><img src='run_exp/static/images/task_images/rocket-01.jpg'  height='600' width='auto'></p>",76,"<p>Every time you dig up gems, there are less gems on the planet, so the more you dig on a planet the fewer gems you’ll get with each dig.</p><p>When gems are running low, you may want to travel to a new planet. </p> <p>  Planets are very far apart in this galaxy, so it will take some time to travel between them. </p> <br><p>There are lots and lots of planets for you to visit, so you won’t be able to return to any planets you’ve seen before. </p><br><p>To leave this planet and travel to a new one, press the letter <strong>‘L’</strong> on your keyboard. Try pressing it now! </p><p><img src='run_exp/static/images/task_images/rocket-01.jpg'  height='600' width='auto'></p>",,,,,,,,,,,,,,,,,,,,,,
travel_prac,14,111308,0.0-7.0-5.0,,,,,,,,,,,"[{""stimulus"":""run_exp/static/images/task_images/rocket-01.jpg"",""time"":0.7199999999720603},{""stimulus"":""run_exp/static/images/task_images/rocket-02.jpg"",""time"":1113.8899999996065},{""stimulus"":""run_exp/static/images/task_images/rocket-03.jpg"",""time"":2227.329999999696},{""stimulus"":""run_exp/static/images/task_images/rocket-04.jpg"",""time"":3337.974999999453},{""stimulus"":""run_exp/static/images/task_images/rocket-05.jpg"",""time"":4447.7449999994715},{""stimulus"":""run_exp/static/images/task_images/rocket-06.jpg"",""time"":5558.755000000005},{""stimulus"":""run_exp/static/images/task_images/rocket-07.jpg"",""time"":6670.964999999327},{""stimulus"":""run_exp/static/images/task_images/rocket-08.jpg"",""time"":7781.519999999524},{""stimulus"":""run_exp/static/images/task_images/rocket-09.jpg"",""time"":8891.179999999615}]",[],0,,,,,,,,,,,,,,
instruc_alien_greet,15,138806,0.0-7.0-6.0,,null,run_exp/static/audio/clip_6_alien.m4a,null,"<p>When you arrive at a new planet, the alien who owns the treasure mine on that planet will greet you!</p><p>The better an alien takes care of their mine the easier it is to dig for gems. Some aliens take better care of their mine than others. So, you won’t get exactly the same amount of gems on each planet.</p><p>What the alien looks like does not tell you anything about how many gems there are on the planet.</p><br><p><img src=""run_exp/static/images/task_images/aliens/instructions_aliens/planet/alien_planet-1.jpg""  height=""600"" width=""auto""></p>",,,,,,,,,,,,,,,,,,,,,,
instruc_alien_greet,16,141595,0.0-7.0-7.0,,2779.315,"<p>When you arrive at a new planet, the alien who owns the treasure mine on that planet will greet you!</p><p>The better an alien takes care of their mine the easier it is to dig for gems. Some aliens take better care of their mine than others. So, you won’t get exactly the same amount of gems on each planet.</p><p>What the alien looks like does not tell you anything about how many gems there are on the planet.</p><br><p><img src=""run_exp/static/images/task_images/aliens/instructions_aliens/planet/alien_planet-1.jpg""  height=""600"" width=""auto""></p>",,,,,,1,,,,,,,,,,,,,,,,,,
html-keyboard-response,17,142220,0.0-7.0-8.0,,620.04,"<p>When you arrive at a new planet, the alien who owns the treasure mine on that planet will greet you!</p><p>The better an alien takes care of their mine the easier it is to dig for gems. Some aliens take better care of their mine than others. So, you won’t get exactly the same amount of gems on each planet.</p><p>What the alien looks like does not tell you anything about how many gems there are on the planet.</p><br><p><img src=""run_exp/static/images/task_images/aliens/instructions_aliens/planet/alien_planet-1.jpg""  height=""600"" width=""auto""></p><button class=""jspsych-html-btn-unchosen""><img src=""run_exp/static/images/task_images/planet-01.jpg"" height=""50""></button><button class=""jspsych-html-btn-chosen""><img src=""run_exp/static/images/task_images/planet-02.jpg"" height=""50""></button><p><b>[press the space bar to lock in your answer]<b><br></p>",32,,,,,,,,,,,,,,,,,,,,,,,
time_out,18,153653,0.0-8.0-0.0,,null,run_exp/static/audio/clip_7_timeout.m4a,null,"<p>If you don't make your choice fast enough, you’ll have to wait a few seconds before you can make another one.</p><p>You can’t dig for more gems or travel to new planets. You just have to sit and wait.</p><br><p><img src='run_exp/static/images/task_images/time_out.jpg'  height='600' width='auto'></p>",,,,,,,,,,,,,,,,,,,,,,
time_out,19,155432,0.0-8.0-1.0,,1770.76,"<p>If you don't make your choice fast enough, you’ll have to wait a few seconds before you can make another one.</p><p>You can’t dig for more gems or travel to new planets. You just have to sit and wait.</p><br><p><img src='run_exp/static/images/task_images/time_out.jpg'  height='600' width='auto'></p>",,,,,,1,,,,,,,,,,,,,,,,,,
html-keyboard-response,20,156160,0.0-8.0-2.0,,720.3,"<p>If you don't make your choice fast enough, you’ll have to wait a few seconds before you can make another one.</p><p>You can’t dig for more gems or travel to new planets. You just have to sit and wait.</p><br><p><img src='run_exp/static/images/task_images/time_out.jpg'  height='600' width='auto'></p><button class=""jspsych-html-btn-unchosen""><img src=""run_exp/static/images/task_images/planet-01.jpg"" height=""50""></button><button class=""jspsych-html-btn-chosen""><img src=""run_exp/static/images/task_images/planet-02.jpg"" height=""50""></button><p><b>[press the space bar to lock in your answer]<b><br></p>",32,,,,,,,,,,,,,,,,,,,,,,,
instruc_break,21,172085,0.0-9.0-0.0,,null,run_exp/static/audio/clip_8_break.m4a,null,"<p> After digging and traveling for a while, you’ll be able to take a break at home base. </p><p>The game will last 20 minutes no matter what.</p><p>You will visit home base every 5 minutes, so, you will visit home base three times during the game.</p><br><p><img src='run_exp/static/images/task_images/home_base.jpg' height='600' width='auto'></p>",,,,,,,,,,,,,,,,,,,,,,
instruc_break,22,177010,0.0-9.0-1.0,,4915.25,"<p> After digging and traveling for a while, you’ll be able to take a break at home base. </p><p>The game will last 20 minutes no matter what.</p><p>You will visit home base every 5 minutes, so, you will visit home base three times during the game.</p><br><p><img src='run_exp/static/images/task_images/home_base.jpg' height='600' width='auto'></p>",,,,,,1,,,,,,,,,,,,,,,,,,
html-keyboard-response,23,177399,0.0-9.0-2.0,,379.955,"<p> After digging and traveling for a while, you’ll be able to take a break at home base. </p><p>The game will last 20 minutes no matter what.</p><p>You will visit home base every 5 minutes, so, you will visit home base three times during the game.</p><br><p><img src='run_exp/static/images/task_images/home_base.jpg' height='600' width='auto'></p><button class=""jspsych-html-btn-unchosen""><img src=""run_exp/static/images/task_images/planet-01.jpg"" height=""50""></button><button class=""jspsych-html-btn-chosen""><img src=""run_exp/static/images/task_images/planet-02.jpg"" height=""50""></button><p><b>[press the space bar to lock in your answer]<b><br></p>",32,,,,,,,,,,,,,,,,,,,,,,,
instruc_prac_game,24,187830,0.0-10.0-0.0,,null,run_exp/static/audio/clip_9_practice.m4a,null,"<p> Are you ready to play a practice game? </p> <p>In this practice game, you'll be digging up barrels of gems. But, in the real game, you'll be digging up the gems themselves. </p>",,,,,,,,,,,,,,,,,,,,,,
html-button-response,25,189051,0.0-10.0-1.0,,1213.16,"<p> Are you ready to play a practice game? </p> <p>In this practice game, you'll be digging up barrels of gems. But, in the real game, you'll be digging up the gems themselves. </p>",,,,,,0,,,,,,,,,,,,,,,,,,
alien_welcome_prac,26,194065,0.0-11.0-0.0,,null,run_exp/static/images/task_images/aliens/practice_aliens/planet/alien_planet-5.jpg,null,,,,,,,,,,,,,,,,,,,,,,,
land_prac,27,194571,0.0-11.0-1.0,,null,run_exp/static/images/task_images/land.jpg,null,,,,,,95,,,0,,,,,,,,,,,,,,
dig_prac,28,196587,0.0-11.0-2.0,,,,,,,,,,,"[{""stimulus"":""run_exp/static/images/task_images/dig.jpg"",""time"":0.6999999996041879},{""stimulus"":""run_exp/static/images/task_images/land.jpg"",""time"":672.2949999994016},{""stimulus"":""run_exp/static/images/task_images/dig.jpg"",""time"":1338.624999999418}]",[],,,,,,,,,,,,,,,
harvest_prac,29,197594,0.0-11.0-3.0,,null,run_exp/static/images/task_images/barrel_text.jpg,null,,,,,,,,,,,,,,,,,,,,,,,
decision_prac,30,197798,0.0-11.0-4.0,,194.49,run_exp/static/images/task_images/land.jpg,65,,,,,,,,,,1,,,,,,,,,,,,,
dig_prac,31,199812,0.0-12.0-0.0,,,,,,,,,,,"[{""stimulus"":""run_exp/static/images/task_images/dig.jpg"",""time"":0.8149999994202517},{""stimulus"":""run_exp/static/images/task_images/land.jpg"",""time"":671.0199999997858},{""stimulus"":""run_exp/static/images/task_images/dig.jpg"",""time"":1338.4549999991432}]",[],,,,,,,,,,,,,,,
harvest_prac,32,200817,0.0-12.0-1.0,,null,run_exp/static/images/task_images/barrel_text.jpg,null,,,,,,,,,,,,,,,,,,,,,,,
decision_prac,33,202384,0.0-12.0-2.0,,1560.69,run_exp/static/images/task_images/land.jpg,65,,,,,,,,,,2,,,,,,,,,,,,,
dig_prac,34,204402,0.0-13.0-0.0,,,,,,,,,,,"[{""stimulus"":""run_exp/static/images/task_images/dig.jpg"",""time"":0.7050000004237518},{""stimulus"":""run_exp/static/images/task_images/land.jpg"",""time"":671.3200000004144},{""stimulus"":""run_exp/static/images/task_images/dig.jpg"",""time"":1338.8549999999814}]",[],,,,,,,,,,,,,,,
harvest_prac,35,205407,0.0-13.0-1.0,,null,run_exp/static/images/task_images/barrel_text.jpg,null,,,,,,,,,,,,,,,,,,,,,,,
decision_prac,36,205417,0.0-13.0-2.0,,4.035,run_exp/static/images/task_images/land.jpg,65,,,,,,,,,,3,,,,,,,,,,,,,
dig_prac,37,207430,0.0-14.0-0.0,,,,,,,,,,,"[{""stimulus"":""run_exp/static/images/task_images/dig.jpg"",""time"":0.7150000001420267},{""stimulus"":""run_exp/static/images/task_images/land.jpg"",""time"":671.5599999997648},{""stimulus"":""run_exp/static/images/task_images/dig.jpg"",""time"":1339.5149999996647}]",[],,,,,,,,,,,,,,,
harvest_prac,38,208438,0.0-14.0-1.0,,null,run_exp/static/images/task_images/barrel_text.jpg,null,,,,,,,,,,,,,,,,,,,,,,,
decision_prac,39,209310,0.0-14.0-2.0,,862.69,run_exp/static/images/task_images/land.jpg,65,,,,,,,,,,4,,,,,,,,,,,,,
dig_prac,40,211326,0.0-15.0-0.0,,,,,,,,,,,"[{""stimulus"":""run_exp/static/images/task_images/dig.jpg"",""time"":0.7199999999720603},{""stimulus"":""run_exp/static/images/task_images/land.jpg"",""time"":671.7900000003283},{""stimulus"":""run_exp/static/images/task_images/dig.jpg"",""time"":1338.2300000002724}]",[],,,,,,,,,,,,,,,
harvest_prac,41,212336,0.0-15.0-1.0,,null,run_exp/static/images/task_images/barrel_text.jpg,null,,,,,,,,,,,,,,,,,,,,,,,
decision_prac,42,213321,0.0-15.0-2.0,,979.58,run_exp/static/images/task_images/land.jpg,65,,,,,,,,,,,1,,,,,,,,,,,,
quiz_instruc,43,218727,0.0-16.0-0.0,,5393.38,run_exp/static/audio/clip_10_quiz.m4a,,,,,,0,,,,,,,,,,,,,,,,,,
instruc_repeat,44,261792,0.0-16.0-1.0,,null,"<p> Are you ready to play a practice game? </p> <p>In this practice game, you'll be digging up barrels of gems. But, in the real game, you'll be digging up the gems themselves. </p>",null,"<p>In this game, your goal is to collect as many gems as you can. That’s how you will win bonus money. </p> <p>The entire game will last 20 minutes no matter how many gems you collect or how many planets you visit. </p><p>To stay on a planet and dig again, press the letter A on your keyboard. To leave for a new planet, press the letter L.</p><p>The more you dig on a planet, the fewer gems you’ll get with each dig which is why you might consider leaving for a new planet. </p><p>When you arrive at a new planet, you’ll be greeted by an alien. What the alien looks like does not tell you anything about how much treasure is on the planet. </p>",,,,,,,,,,,,,,,,,,,,,,
instruc_repeat_continue,45,262948,0.0-16.0-2.0,,1149.745,"<p> Are you ready to play a practice game? </p> <p>In this practice game, you'll be digging up barrels of gems. But, in the real game, you'll be digging up the gems themselves. </p>",,,,,,0,,,,,,,,,,,,,,,,,,
quiz_q_1_ask,46,265479,0.0-16.0-3.0,,2523.315,run_exp/static/audio/clip_11_q1_ask.m4a,,,,,,2,,,,,,,,,,,,,,,,,,
quiz_q_1_fb_correct,47,269600,0.0-17.0-0.0,,null,run_exp/static/audio/clip_12_q1_corrrect.m4a,null,<p>That’s correct. You win extra money by collecting more gems.</p>,,,,,,,,,,,,,,,,,,,,,,
quiz_q_2_ask,48,273644,0.0-17.0-1.0,,4032.68,run_exp/static/audio/clip_14_q2_ask.m4a,,,,,,1,,,,,,,,,,,,,,,,,,
quiz_q_2_fb_correct,49,277793,0.0-18.0-0.0,,null,run_exp/static/audio/clip_15_q2_correct.m4a,null,<p>That’s correct. The experiment is 20 minutes no matter what.</p>,,,,,,,,,,,,,,,,,,,,,,
quiz_q_3_ask,50,280198,0.0-18.0-1.0,,2396.115,run_exp/static/audio/clip_17_q3_ask.m4a,,,,,,1,,,,,,,,,,,,,,,,,,
quiz_q_3_fb_correct,51,284577,0.0-19.0-0.0,,null,run_exp/static/audio/clip_18_q3_correct.m4a,null,<p> That’s correct. You press the letter L to travel to a new planet.</p>,,,,,,,,,,,,,,,,,,,,,,
quiz_q_4_ask,52,287478,0.0-19.0-1.0,,2891.135,run_exp/static/audio/clip_20_q4_ask.m4a,,,,,,0,,,,,,,,,,,,,,,,,,
quiz_q_4_fb_correct,53,293152,0.0-20.0-0.0,,null,run_exp/static/audio/clip_21_q4_correct.m4a,null,<p> That’s correct. The more you dig on a planet the fewer gems you’ll get with each dig. </p>,,,,,,,,,,,,,,,,,,,,,,
quiz_q_5_ask,54,295387,0.0-20.0-1.0,,2225.365,run_exp/static/audio/clip_23_q5_ask.m4a,,,,,,1,,,,,,,,,,,,,,,,,,
quiz_q_5_fb_correct,55,300708,0.0-21.0-0.0,,null,run_exp/static/audio/clip_24_q5_correct.m4a,null,<p> That’s correct. The alien tells you nothing about how much treasure is on the planet.</p>,,,,,,,,,,,,,,,,,,,,,,
quiz_correct,56,304545,0.0-22.0-0.0,,null,run_exp/static/audio/clip_26_correct_quiz.m4a,null,,,,,,,,,,,,,,,,,,,,,,,
quiz_correct_continue,57,305252,0.0-22.0-1.0,,701.135,<p>Good job! You're now ready to move on to the real game!</p>,,,,,,0,,,,,,,,,,,,,,,,,,
audio-keyboard-response,58,315681,0.0-22.0-2.0,,null,run_exp/static/audio/clip_28_real_game.m4a,null,,,,,,,,,,,,,,,,,,,,,,,
instruc_begin_exp_contine,59,316991,0.0-22.0-3.0,,1303.07,"<p>Now that you know how  to dig for space treasure and travel to new planets,you can start exploring! </p><p>Do you want to go over the instructions again or get started with the real game?</p>",,,,,,1,,,,,,1,,,,,,,,,,,,
alien_welcome,60,322005,0.0-23.0-0.0,,null,run_exp/static/images/task_images/aliens/old_aliens/planet/alien_planet-4.jpg,null,,,,,,,,,,,,4,"4,74,28,72,68,67,51,79,47,20,30,40,16,25,50,26,46,34,35,31,63,22,33,57,36,44,65,39,18,11,38,71,66,3,24,70",,,,,,,,,,
land,61,322511,0.0-23.0-1.0,,null,run_exp/static/images/task_images/land.jpg,null,,,,,,103,,,1,,,,,,,,,,,,,,
dig,62,324524,0.0-23.0-2.0,,,,,,,,,,,"[{""stimulus"":""run_exp/static/images/task_images/dig.jpg"",""time"":0.819999999308493},{""stimulus"":""run_exp/static/images/task_images/land.jpg"",""time"":672.0949999999139},{""stimulus"":""run_exp/static/images/task_images/dig.jpg"",""time"":1338.224999999511}]",[],1,,,,,,,,,,,,,,
harvest,63,325532,0.0-23.0-3.0,,null,run_exp/static/images/task_images/gems/103.jpg,null,,,,,,14,,,1,,,,,103,0.13526464,0.13592233,,,,,,,
decision,64,326357,0.0-23.0-4.0,,814.835,run_exp/static/images/task_images/land.jpg,65,,,,,,14,,,1,,,,,,,,9361,1,0,FALSE,,,
dig,65,328568,0.0-24.0-0.0,,,,,,,,,,,"[{""stimulus"":""run_exp/static/images/task_images/dig.jpg"",""time"":0.7699999996693805},{""stimulus"":""run_exp/static/images/task_images/land.jpg"",""time"":732.4300000000512},{""stimulus"":""run_exp/static/images/task_images/dig.jpg"",""time"":1459.8949999999604}]",[],1,,,,,,,,,,,,,,
harvest,66,329574,0.0-24.0-1.0,,null,run_exp/static/images/task_images/gems/14.jpg,null,,,,,,4,,,1,,,,,14,0.255063653,0.285714286,,,,,,,
decision,67,330547,0.0-24.0-2.0,,966.5,run_exp/static/images/task_images/land.jpg,65,,,,,,4,,,1,,,,,,,,13548,1,1,FALSE,,,
dig,68,332595,0.0-25.0-0.0,,,,,,,,,,,"[{""stimulus"":""run_exp/static/images/task_images/dig.jpg"",""time"":0.7249999999185093},{""stimulus"":""run_exp/static/images/task_images/land.jpg"",""time"":679.6800000002258},{""stimulus"":""run_exp/static/images/task_images/dig.jpg"",""time"":1357.0749999998952}]",[],1,,,,,,,,,,,,,,
harvest,69,333609,0.0-25.0-1.0,,null,run_exp/static/images/task_images/gems/4.jpg,null,,,,,,1,,,1,,,,,4,0.146155682,0.25,,,,,,,
decision,70,335028,0.0-25.0-2.0,,1413.285,run_exp/static/images/task_images/land.jpg,76,,,,,,1,,,1,,,,,,,,18028,1,2,TRUE,,,
travel,71,343632,0.0-26.0-0.0,,,,,,,,,,,"[{""stimulus"":""run_exp/static/images/task_images/rocket-01.jpg"",""time"":0.810000000463333},{""stimulus"":""run_exp/static/images/task_images/rocket-02.jpg"",""time"":958.1900000002934},{""stimulus"":""run_exp/static/images/task_images/rocket-03.jpg"",""time"":1912.8849999997183},{""stimulus"":""run_exp/static/images/task_images/rocket-04.jpg"",""time"":2866.5900000005495},{""stimulus"":""run_exp/static/images/task_images/rocket-05.jpg"",""time"":3819.234999999928},{""stimulus"":""run_exp/static/images/task_images/rocket-06.jpg"",""time"":4774.820000000589},{""stimulus"":""run_exp/static/images/task_images/rocket-07.jpg"",""time"":5729.299999999988},{""stimulus"":""run_exp/static/images/task_images/rocket-08.jpg"",""time"":6682.100000000035},{""stimulus"":""run_exp/static/images/task_images/rocket-09.jpg"",""time"":7636.6749999997555}]",[],1,,,,,,,,,,,,,,
alien_welcome,72,348640,0.0-26.0-1.0,,null,run_exp/static/images/task_images/aliens/old_aliens/planet/alien_planet-74.jpg,null,,,,,,,,,,,,74,"4,74,28,72,68,67,51,79,47,20,30,40,16,25,50,26,46,34,35,31,63,22,33,57,36,44,65,39,18,11,38,71,66,3,24,70",,,,,,,,,,
land,73,349147,0.0-26.0-2.0,,null,run_exp/static/images/task_images/land.jpg,null,,,,,,100,,,2,,,,,,,,,,,,,,
dig,74,351161,0.0-26.0-3.0,,,,,,,,,,,"[{""stimulus"":""run_exp/static/images/task_images/dig.jpg"",""time"":0.7599999998928979},{""stimulus"":""run_exp/static/images/task_images/land.jpg"",""time"":671.5400000002701},{""stimulus"":""run_exp/static/images/task_images/dig.jpg"",""time"":1337.2600000002421}]",[],2,,,,,,,,,,,,,,
harvest,75,352169,0.0-26.0-4.0,,null,run_exp/static/images/task_images/gems/100.jpg,null,,,,,,12,,,2,,,,,100,0.118937885,0.12,,,,,,,
decision,76,352808,0.0-26.0-5.0,,632.53,run_exp/static/images/task_images/land.jpg,65,,,,,,12,,,2,,,,,,,,35809,1,0,FALSE,,,
dig,77,355194,0.0-27.0-0.0,,,,,,,,,,,"[{""stimulus"":""run_exp/static/images/task_images/dig.jpg"",""time"":0.7500000001164153},{""stimulus"":""run_exp/static/images/task_images/land.jpg"",""time"":792.3100000006962},{""stimulus"":""run_exp/static/images/task_images/dig.jpg"",""time"":1582.3600000003353}]",[],2,,,,,,,,,,,,,,
harvest,78,356199,0.0-27.0-1.0,,null,run_exp/static/images/task_images/gems/12.jpg,null,,,,,,2,,,2,,,,,12,0.148212632,0.166666667,,,,,,,
decision,79,357331,0.0-27.0-2.0,,1124.475,run_exp/static/images/task_images/land.jpg,65,,,,,,2,,,2,,,,,,,,40331,1,1,FALSE,,,
dig,80,359222,0.0-28.0-0.0,,,,,,,,,,,"[{""stimulus"":""run_exp/static/images/task_images/dig.jpg"",""time"":0.9200000003911555},{""stimulus"":""run_exp/static/images/task_images/land.jpg"",""time"":629.5300000001444},{""stimulus"":""run_exp/static/images/task_images/dig.jpg"",""time"":1253.7850000007893}]",[],2,,,,,,,,,,,,,,
harvest,81,360228,0.0-28.0-1.0,,null,run_exp/static/images/task_images/gems/2.jpg,null,,,,,,0,,,2,,,,,2,0.124178633,0,,,,,,,
decision,82,361692,0.0-28.0-2.0,,1457.66,run_exp/static/images/task_images/land.jpg,76,,,,,,0,,,2,,,,,,,,44694,1,2,TRUE,,,
travel,83,370263,0.0-29.0-0.0,,,,,,,,,,,"[{""stimulus"":""run_exp/static/images/task_images/rocket-01.jpg"",""time"":0.7049999994342215},{""stimulus"":""run_exp/static/images/task_images/rocket-02.jpg"",""time"":953.8649999994668},{""stimulus"":""run_exp/static/images/task_images/rocket-03.jpg"",""time"":1902.0299999992712},{""stimulus"":""run_exp/static/images/task_images/rocket-04.jpg"",""time"":2852.1849999997066},{""stimulus"":""run_exp/static/images/task_images/rocket-05.jpg"",""time"":3799.8849999994272},{""stimulus"":""run_exp/static/images/task_images/rocket-06.jpg"",""time"":4748.8499999999185},{""stimulus"":""run_exp/static/images/task_images/rocket-07.jpg"",""time"":5698.504999999364},{""stimulus"":""run_exp/static/images/task_images/rocket-08.jpg"",""time"":6647.19999999943},{""stimulus"":""run_exp/static/images/task_images/rocket-09.jpg"",""time"":7595.469999999274}]",[],2,,,,,,,,,,,,,,
alien_welcome,84,375269,0.0-29.0-1.0,,null,run_exp/static/images/task_images/aliens/old_aliens/planet/alien_planet-28.jpg,null,,,,,,,,,,,,28,"4,74,28,72,68,67,51,79,47,20,30,40,16,25,50,26,46,34,35,31,63,22,33,57,36,44,65,39,18,11,38,71,66,3,24,70",,,,,,,,,,
land,85,375775,0.0-29.0-2.0,,null,run_exp/static/images/task_images/land.jpg,null,,,,,,99,,,3,,,,,,,,,,,,,,
dig,86,377788,0.0-29.0-3.0,,,,,,,,,,,"[{""stimulus"":""run_exp/static/images/task_images/dig.jpg"",""time"":1.1049999993410893},{""stimulus"":""run_exp/static/images/task_images/land.jpg"",""time"":671.5899999999092},{""stimulus"":""run_exp/static/images/task_images/dig.jpg"",""time"":1338.9399999995949}]",[],3,,,,,,,,,,,,,,
harvest,87,378794,0.0-29.0-4.0,,null,run_exp/static/images/task_images/gems/99.jpg,null,,,,,,45,,,3,,,,,99,0.450786665,0.454545455,,,,,,,
decision,88,379443,0.0-29.0-5.0,,643.935,run_exp/static/images/task_images/land.jpg,65,,,,,,45,,,3,,,,,,,,62443,1,0,FALSE,,,
dig,89,381814,0.0-30.0-0.0,,,,,,,,,,,"[{""stimulus"":""run_exp/static/images/task_images/dig.jpg"",""time"":0.6499999999650754},{""stimulus"":""run_exp/static/images/task_images/land.jpg"",""time"":789.284999999858},{""stimulus"":""run_exp/static/images/task_images/dig.jpg"",""time"":1575.7149999999674}]",[],3,,,,,,,,,,,,,,
harvest,90,382821,0.0-30.0-1.0,,null,run_exp/static/images/task_images/gems/45.jpg,null,,,,,,25,,,3,,,,,45,0.548663511,0.555555556,,,,,,,
decision,91,383604,0.0-30.0-2.0,,775,run_exp/static/images/task_images/land.jpg,65,,,,,,25,,,3,,,,,,,,66605,1,1,FALSE,,,
dig,92,385848,0.0-31.0-0.0,,,,,,,,,,,"[{""stimulus"":""run_exp/static/images/task_images/dig.jpg"",""time"":0.7649999997229315},{""stimulus"":""run_exp/static/images/task_images/land.jpg"",""time"":745.3750000004075},{""stimulus"":""run_exp/static/images/task_images/dig.jpg"",""time"":1485.3999999995576}]",[],3,,,,,,,,,,,,,,
harvest,93,386853,0.0-31.0-1.0,,null,run_exp/static/images/task_images/gems/25.jpg,null,,,,,,14,,,3,,,,,25,0.542708409,0.56,,,,,,,
decision,94,387974,0.0-31.0-2.0,,1113.82,run_exp/static/images/task_images/land.jpg,65,,,,,,14,,,3,,,,,,,,70974,1,2,FALSE,,,
dig,95,389879,0.0-32.0-0.0,,,,,,,,,,,"[{""stimulus"":""run_exp/static/images/task_images/dig.jpg"",""time"":0.7249999998603016},{""stimulus"":""run_exp/static/images/task_images/land.jpg"",""time"":631.9349999994156},{""stimulus"":""run_exp/static/images/task_images/dig.jpg"",""time"":1260.5399999992806}]",[],3,,,,,,,,,,,,,,
harvest,96,390886,0.0-32.0-1.0,,null,run_exp/static/images/task_images/gems/14.jpg,null,,,,,,8,,,3,,,,,14,0.550750552,0.571428571,,,,,,,
decision,97,391477,0.0-32.0-2.0,,583.485,run_exp/static/images/task_images/land.jpg,65,,,,,,8,,,3,,,,,,,,74477,1,3,FALSE,,,
dig,98,393908,0.0-33.0-0.0,,,,,,,,,,,"[{""stimulus"":""run_exp/static/images/task_images/dig.jpg"",""time"":0.7949999999254942},{""stimulus"":""run_exp/static/images/task_images/land.jpg"",""time"":808.6999999996042},{""stimulus"":""run_exp/static/images/task_images/dig.jpg"",""time"":1614.389999999723}]",[],3,,,,,,,,,,,,,,
harvest,99,394913,0.0-33.0-1.0,,null,run_exp/static/images/task_images/gems/8.jpg,null,,,,,,4,,,3,,,,,8,0.484814145,0.5,,,,,,,
decision,100,396011,0.0-33.0-2.0,,1091.635,run_exp/static/images/task_images/land.jpg,76,,,,,,4,,,3,,,,,,,,79011,1,4,TRUE,,,
travel,101,404930,0.0-34.0-0.0,,,,,,,,,,,"[{""stimulus"":""run_exp/static/images/task_images/rocket-01.jpg"",""time"":0.6999999996041879},{""stimulus"":""run_exp/static/images/task_images/rocket-02.jpg"",""time"":993.4499999999534},{""stimulus"":""run_exp/static/images/task_images/rocket-03.jpg"",""time"":1981.0200000001932},{""stimulus"":""run_exp/static/images/task_images/rocket-04.jpg"",""time"":2971.8699999994133},{""stimulus"":""run_exp/static/images/task_images/rocket-05.jpg"",""time"":3960.355000000214},{""stimulus"":""run_exp/static/images/task_images/rocket-06.jpg"",""time"":4947.935000000172},{""stimulus"":""run_exp/static/images/task_images/rocket-07.jpg"",""time"":5945.614999999641},{""stimulus"":""run_exp/static/images/task_images/rocket-08.jpg"",""time"":6926.045000000158},{""stimulus"":""run_exp/static/images/task_images/rocket-09.jpg"",""time"":7916.839999999909}]",[],3,,,,,,,,,,,,,,
alien_welcome,102,409939,0.0-34.0-1.0,,null,run_exp/static/images/task_images/aliens/old_aliens/planet/alien_planet-72.jpg,null,,,,,,,,,,,,72,"4,74,28,72,68,67,51,79,47,20,30,40,16,25,50,26,46,34,35,31,63,22,33,57,36,44,65,39,18,11,38,71,66,3,24,70",,,,,,,,,,
land,103,410445,0.0-34.0-2.0,,null,run_exp/static/images/task_images/land.jpg,null,,,,,,108,,,4,,,,,,,,,,,,,,
dig,104,412460,0.0-34.0-3.0,,,,,,,,,,,"[{""stimulus"":""run_exp/static/images/task_images/dig.jpg"",""time"":1.6500000001396984},{""stimulus"":""run_exp/static/images/task_images/land.jpg"",""time"":672.0450000002165},{""stimulus"":""run_exp/static/images/task_images/dig.jpg"",""time"":1339.0799999997253}]",[],4,,,,,,,,,,,,,,
harvest,105,413468,0.0-34.0-4.0,,null,run_exp/static/images/task_images/gems/108.jpg,null,,,,,,60,,,4,,,,,108,0.55731449,0.555555556,,,,,,,
decision,106,414206,0.0-34.0-5.0,,729.29,run_exp/static/images/task_images/land.jpg,65,,,,,,60,,,4,,,,,,,,97206,1,0,FALSE,,,
dig,107,416492,0.0-35.0-0.0,,,,,,,,,,,"[{""stimulus"":""run_exp/static/images/task_images/dig.jpg"",""time"":0.7149999992107041},{""stimulus"":""run_exp/static/images/task_images/land.jpg"",""time"":759.9899999995832},{""stimulus"":""run_exp/static/images/task_images/dig.jpg"",""time"":1516.8899999998976}]",[],4,,,,,,,,,,,,,,
harvest,108,417498,0.0-35.0-1.0,,null,run_exp/static/images/task_images/gems/60.jpg,null,,,,,,33,,,4,,,,,60,0.556131017,0.55,,,,,,,
decision,109,417840,0.0-35.0-2.0,,332.18,run_exp/static/images/task_images/land.jpg,65,,,,,,33,,,4,,,,,,,,100840,1,1,FALSE,,,
dig,110,420533,0.0-36.0-0.0,,,,,,,,,,,"[{""stimulus"":""run_exp/static/images/task_images/dig.jpg"",""time"":0.9450000006472692},{""stimulus"":""run_exp/static/images/task_images/land.jpg"",""time"":894.0750000001281},{""stimulus"":""run_exp/static/images/task_images/dig.jpg"",""time"":1782.8699999999953}]",[],4,,,,,,,,,,,,,,
harvest,111,421540,0.0-36.0-1.0,,null,run_exp/static/images/task_images/gems/33.jpg,null,,,,,,19,,,4,,,,,33,0.582556395,0.575757576,,,,,,,
decision,112,422092,0.0-36.0-2.0,,543.37,run_exp/static/images/task_images/land.jpg,65,,,,,,19,,,4,,,,,,,,105093,1,2,FALSE,,,
dig,113,424564,0.0-37.0-0.0,,,,,,,,,,,"[{""stimulus"":""run_exp/static/images/task_images/dig.jpg"",""time"":0.6650000004447065},{""stimulus"":""run_exp/static/images/task_images/land.jpg"",""time"":822.5700000002398},{""stimulus"":""run_exp/static/images/task_images/dig.jpg"",""time"":1639.7650000007707}]",[],4,,,,,,,,,,,,,,
harvest,114,425571,0.0-37.0-1.0,,null,run_exp/static/images/task_images/gems/19.jpg,null,,,,,,9,,,4,,,,,19,0.498303298,0.473684211,,,,,,,
decision,115,425955,0.0-37.0-2.0,,376.355,run_exp/static/images/task_images/land.jpg,65,,,,,,9,,,4,,,,,,,,108955,1,3,FALSE,,,
dig,116,428593,0.0-38.0-0.0,,,,,,,,,,,"[{""stimulus"":""run_exp/static/images/task_images/dig.jpg"",""time"":0.6750000002211891},{""stimulus"":""run_exp/static/images/task_images/land.jpg"",""time"":878.9349999997066},{""stimulus"":""run_exp/static/images/task_images/dig.jpg"",""time"":1753.1099999996368}]",[],4,,,,,,,,,,,,,,
harvest,117,429598,0.0-38.0-1.0,,null,run_exp/static/images/task_images/gems/9.jpg,null,,,,,,4,,,4,,,,,9,0.473825841,0.444444444,,,,,,,
decision,118,430034,0.0-38.0-2.0,,429.87,run_exp/static/images/task_images/land.jpg,65,,,,,,4,,,4,,,,,,,,113035,1,4,FALSE,,,
dig,119,432617,0.0-39.0-0.0,,,,,,,,,,,"[{""stimulus"":""run_exp/static/images/task_images/dig.jpg"",""time"":1.3199999994249083},{""stimulus"":""run_exp/static/images/task_images/land.jpg"",""time"":859.5849999992643},{""stimulus"":""run_exp/static/images/task_images/dig.jpg"",""time"":1717.7999999994645}]",[],4,,,,,,,,,,,,,,
harvest,120,433623,0.0-39.0-1.0,,null,run_exp/static/images/task_images/gems/4.jpg,null,,,,,,2,,,4,,,,,4,0.540175148,0.5,,,,,,,
decision,121,434439,0.0-39.0-2.0,,809.62,run_exp/static/images/task_images/land.jpg,65,,,,,,2,,,4,,,,,,,,117439,1,5,FALSE,,,
dig,122,436647,0.0-40.0-0.0,,,,,,,,,,,"[{""stimulus"":""run_exp/static/images/task_images/dig.jpg"",""time"":0.7000000005355105},{""stimulus"":""run_exp/static/images/task_images/land.jpg"",""time"":733.9149999998044},{""stimulus"":""run_exp/static/images/task_images/dig.jpg"",""time"":1463.9649999999674}]",[],4,,,,,,,,,,,,,,
harvest,123,437654,0.0-40.0-1.0,,null,run_exp/static/images/task_images/gems/2.jpg,null,,,,,,1,,,4,,,,,2,0.446755951,0.5,,,,,,,
decision,124,438365,0.0-40.0-2.0,,706.915,run_exp/static/images/task_images/land.jpg,65,,,,,,1,,,4,,,,,,,,121366,1,6,FALSE,,,
dig,125,440675,0.0-41.0-0.0,,,,,,,,,,,"[{""stimulus"":""run_exp/static/images/task_images/dig.jpg"",""time"":0.8649999999324791},{""stimulus"":""run_exp/static/images/task_images/land.jpg"",""time"":768.2949999998091},{""stimulus"":""run_exp/static/images/task_images/dig.jpg"",""time"":1532.3750000006403}]",[],4,,,,,,,,,,,,,,
harvest,126,441681,0.0-41.0-1.0,,null,run_exp/static/images/task_images/gems/1.jpg,null,,,,,,1,,,4,,,,,1,0.544563406,1,,,,,,,
decision,127,442280,0.0-41.0-2.0,,591.84,run_exp/static/images/task_images/land.jpg,65,,,,,,1,,,4,,,,,,,,125281,1,7,FALSE,,,
dig,128,444703,0.0-42.0-0.0,,,,,,,,,,,"[{""stimulus"":""run_exp/static/images/task_images/dig.jpg"",""time"":0.715000000083819},{""stimulus"":""run_exp/static/images/task_images/land.jpg"",""time"":805.8300000001909},{""stimulus"":""run_exp/static/images/task_images/dig.jpg"",""time"":1609.2800000004936}]",[],4,,,,,,,,,,,,,,
harvest,129,445709,0.0-42.0-1.0,,null,run_exp/static/images/task_images/gems/1.jpg,null,,,,,,1,,,4,,,,,1,0.523328584,1,,,,,,,
decision,130,446252,0.0-42.0-2.0,,533.375,run_exp/static/images/task_images/land.jpg,76,,,,,,1,,,4,,,,,,,,129252,1,8,TRUE,,,
travel,131,455724,0.0-43.0-0.0,,,,,,,,,,,"[{""stimulus"":""run_exp/static/images/task_images/rocket-01.jpg"",""time"":0.6850000000558794},{""stimulus"":""run_exp/static/images/task_images/rocket-02.jpg"",""time"":1054.7649999998976},{""stimulus"":""run_exp/static/images/task_images/rocket-03.jpg"",""time"":2104.669999999809},{""stimulus"":""run_exp/static/images/task_images/rocket-04.jpg"",""time"":3156.8649999999907},{""stimulus"":""run_exp/static/images/task_images/rocket-05.jpg"",""time"":4207.734999999986},{""stimulus"":""run_exp/static/images/task_images/rocket-06.jpg"",""time"":5258.254999999772},{""stimulus"":""run_exp/static/images/task_images/rocket-07.jpg"",""time"":6309.669999999693},{""stimulus"":""run_exp/static/images/task_images/rocket-08.jpg"",""time"":7360.420000000042},{""stimulus"":""run_exp/static/images/task_images/rocket-09.jpg"",""time"":8411.780000000377}]",[],4,,,,,,,,,,,,,,
alien_welcome,132,460733,0.0-43.0-1.0,,null,run_exp/static/images/task_images/aliens/old_aliens/planet/alien_planet-68.jpg,null,,,,,,,,,,,,68,"4,74,28,72,68,67,51,79,47,20,30,40,16,25,50,26,46,34,35,31,63,22,33,57,36,44,65,39,18,11,38,71,66,3,24,70",,,,,,,,,,
land,133,461238,0.0-43.0-2.0,,null,run_exp/static/images/task_images/land.jpg,null,,,,,,93,,,5,,,,,,,,,,,,,,
dig,134,463251,0.0-43.0-3.0,,,,,,,,,,,"[{""stimulus"":""run_exp/static/images/task_images/dig.jpg"",""time"":1.0449999999254942},{""stimulus"":""run_exp/static/images/task_images/land.jpg"",""time"":671.7900000002701},{""stimulus"":""run_exp/static/images/task_images/dig.jpg"",""time"":1338.7199999997392}]",[],5,,,,,,,,,,,,,,
harvest,135,464255,0.0-43.0-4.0,,null,run_exp/static/images/task_images/gems/93.jpg,null,,,,,,45,,,5,,,,,93,0.480259233,0.483870968,,,,,,,
decision,136,464651,0.0-43.0-5.0,,388.53,run_exp/static/images/task_images/land.jpg,65,,,,,,45,,,5,,,,,,,,147651,1,0,FALSE,,,
dig,137,467279,0.0-44.0-0.0,,,,,,,,,,,"[{""stimulus"":""run_exp/static/images/task_images/dig.jpg"",""time"":0.7199999999720603},{""stimulus"":""run_exp/static/images/task_images/land.jpg"",""time"":872.8999999993248},{""stimulus"":""run_exp/static/images/task_images/dig.jpg"",""time"":1744.4349999995902}]",[],5,,,,,,,,,,,,,,
harvest,138,468284,0.0-44.0-1.0,,null,run_exp/static/images/task_images/gems/45.jpg,null,,,,,,25,,,5,,,,,45,0.550871195,0.555555556,,,,,,,
decision,139,468904,0.0-44.0-2.0,,615.635,run_exp/static/images/task_images/land.jpg,65,,,,,,25,,,5,,,,,,,,151905,1,1,FALSE,,,
dig,140,471300,0.0-45.0-0.0,,,,,,,,,,,"[{""stimulus"":""run_exp/static/images/task_images/dig.jpg"",""time"":0.7550000001210719},{""stimulus"":""run_exp/static/images/task_images/land.jpg"",""time"":798.6450000008335},{""stimulus"":""run_exp/static/images/task_images/dig.jpg"",""time"":1592.4500000001863}]",[],5,,,,,,,,,,,,,,
harvest,141,472308,0.0-45.0-1.0,,null,run_exp/static/images/task_images/gems/25.jpg,null,,,,,,12,,,5,,,,,25,0.468730136,0.48,,,,,,,
decision,142,472587,0.0-45.0-2.0,,271.16,run_exp/static/images/task_images/land.jpg,65,,,,,,12,,,5,,,,,,,,155587,1,2,FALSE,,,
dig,143,475332,0.0-46.0-0.0,,,,,,,,,,,"[{""stimulus"":""run_exp/static/images/task_images/dig.jpg"",""time"":0.6750000002793968},{""stimulus"":""run_exp/static/images/task_images/land.jpg"",""time"":912.0650000004098},{""stimulus"":""run_exp/static/images/task_images/dig.jpg"",""time"":1823.4900000006892}]",[],5,,,,,,,,,,,,,,
harvest,144,476340,0.0-46.0-1.0,,null,run_exp/static/images/task_images/gems/12.jpg,null,,,,,,6,,,5,,,,,12,0.490848058,0.5,,,,,,,
decision,145,476665,0.0-46.0-2.0,,315.74,run_exp/static/images/task_images/land.jpg,65,,,,,,6,,,5,,,,,,,,159665,1,3,FALSE,,,
dig,146,479362,0.0-47.0-0.0,,,,,,,,,,,"[{""stimulus"":""run_exp/static/images/task_images/dig.jpg"",""time"":0.745000000228174},{""stimulus"":""run_exp/static/images/task_images/land.jpg"",""time"":897.8350000006612},{""stimulus"":""run_exp/static/images/task_images/dig.jpg"",""time"":1791.505000000121}]",[],5,,,,,,,,,,,,,,
harvest,147,480369,0.0-47.0-1.0,,null,run_exp/static/images/task_images/gems/6.jpg,null,,,,,,3,,,5,,,,,6,0.581167073,0.5,,,,,,,
decision,148,481031,0.0-47.0-2.0,,655.375,run_exp/static/images/task_images/land.jpg,76,,,,,,3,,,5,,,,,,,,164032,1,4,TRUE,,,
travel,149,490390,0.0-48.0-0.0,,,,,,,,,,,"[{""stimulus"":""run_exp/static/images/task_images/rocket-01.jpg"",""time"":0.7700000006007031},{""stimulus"":""run_exp/static/images/task_images/rocket-02.jpg"",""time"":1042.1250000009313},{""stimulus"":""run_exp/static/images/task_images/rocket-03.jpg"",""time"":2079.375000000233},{""stimulus"":""run_exp/static/images/task_images/rocket-04.jpg"",""time"":3118.9000000003725},{""stimulus"":""run_exp/static/images/task_images/rocket-05.jpg"",""time"":4155.310000000172},{""stimulus"":""run_exp/static/images/task_images/rocket-06.jpg"",""time"":5196.4150000003865},{""stimulus"":""run_exp/static/images/task_images/rocket-07.jpg"",""time"":6233.000000000233},{""stimulus"":""run_exp/static/images/task_images/rocket-08.jpg"",""time"":7271.24500000081},{""stimulus"":""run_exp/static/images/task_images/rocket-09.jpg"",""time"":8307.115000000573}]",[],5,,,,,,,,,,,,,,
alien_welcome,150,495400,0.0-48.0-1.0,,null,run_exp/static/images/task_images/aliens/old_aliens/planet/alien_planet-67.jpg,null,,,,,,,,,,,,67,"4,74,28,72,68,67,51,79,47,20,30,40,16,25,50,26,46,34,35,31,63,22,33,57,36,44,65,39,18,11,38,71,66,3,24,70",,,,,,,,,,
land,151,495909,0.0-48.0-2.0,,null,run_exp/static/images/task_images/land.jpg,null,,,,,,103,,,6,,,,,,,,,,,,,,
dig,152,497924,0.0-48.0-3.0,,,,,,,,,,,"[{""stimulus"":""run_exp/static/images/task_images/dig.jpg"",""time"":0.8049999997019768},{""stimulus"":""run_exp/static/images/task_images/land.jpg"",""time"":671.135000000475},{""stimulus"":""run_exp/static/images/task_images/dig.jpg"",""time"":1337.7499999996508}]",[],6,,,,,,,,,,,,,,
harvest,153,498930,0.0-48.0-4.0,,null,run_exp/static/images/task_images/gems/103.jpg,null,,,,,,89,,,6,,,,,103,0.867868827,0.86407767,,,,,,,
decision,154,499852,0.0-48.0-5.0,,912.64,run_exp/static/images/task_images/land.jpg,65,,,,,,89,,,6,,,,,,,,182853,1,0,FALSE,,,
dig,155,501954,0.0-49.0-0.0,,,,,,,,,,,"[{""stimulus"":""run_exp/static/images/task_images/dig.jpg"",""time"":0.6650000005029142},{""stimulus"":""run_exp/static/images/task_images/land.jpg"",""time"":698.0499999999302},{""stimulus"":""run_exp/static/images/task_images/dig.jpg"",""time"":1394.2249999999767}]",[],6,,,,,,,,,,,,,,
harvest,156,502958,0.0-49.0-1.0,,null,run_exp/static/images/task_images/gems/89.jpg,null,,,,,,59,,,6,,,,,89,0.667887526,0.662921348,,,,,,,
decision,157,503210,0.0-49.0-2.0,,242.77,run_exp/static/images/task_images/land.jpg,65,,,,,,59,,,6,,,,,,,,186210,1,1,FALSE,,,
dig,158,505980,0.0-50.0-0.0,,,,,,,,,,,"[{""stimulus"":""run_exp/static/images/task_images/dig.jpg"",""time"":0.6550000008428469},{""stimulus"":""run_exp/static/images/task_images/land.jpg"",""time"":925.0350000002654},{""stimulus"":""run_exp/static/images/task_images/dig.jpg"",""time"":1842.2450000008103}]",[],6,,,,,,,,,,,,,,
harvest,159,506987,0.0-50.0-1.0,,null,run_exp/static/images/task_images/gems/59.jpg,null,,,,,,45,,,6,,,,,59,0.760543509,0.762711864,,,,,,,
decision,160,507401,0.0-50.0-2.0,,405.565,run_exp/static/images/task_images/land.jpg,65,,,,,,45,,,6,,,,,,,,190401,1,2,FALSE,,,
dig,161,510010,0.0-51.0-0.0,,,,,,,,,,,"[{""stimulus"":""run_exp/static/images/task_images/dig.jpg"",""time"":0.7150000002002344},{""stimulus"":""run_exp/static/images/task_images/land.jpg"",""time"":866.6350000003586},{""stimulus"":""run_exp/static/images/task_images/dig.jpg"",""time"":1731.170000000042}]",[],6,,,,,,,,,,,,,,
harvest,162,511016,0.0-51.0-1.0,,null,run_exp/static/images/task_images/gems/45.jpg,null,,,,,,39,,,6,,,,,45,0.85893153,0.866666667,,,,,,,
decision,163,512251,0.0-51.0-2.0,,1228.075,run_exp/static/images/task_images/land.jpg,65,,,,,,39,,,6,,,,,,,,195252,1,3,FALSE,,,
dig,164,514045,0.0-52.0-0.0,,,,,,,,,,,"[{""stimulus"":""run_exp/static/images/task_images/dig.jpg"",""time"":0.7050000003073364},{""stimulus"":""run_exp/static/images/task_images/land.jpg"",""time"":593.6049999999814},{""stimulus"":""run_exp/static/images/task_images/dig.jpg"",""time"":1183.8749999996508}]",[],6,,,,,,,,,,,,,,
harvest,165,515050,0.0-52.0-1.0,,null,run_exp/static/images/task_images/gems/39.jpg,null,,,,,,29,,,6,,,,,39,0.730920294,0.743589744,,,,,,,
decision,166,515553,0.0-52.0-2.0,,493.03,run_exp/static/images/task_images/land.jpg,65,,,,,,29,,,6,,,,,,,,198553,1,4,FALSE,,,
dig,167,518072,0.0-53.0-0.0,,,,,,,,,,,"[{""stimulus"":""run_exp/static/images/task_images/dig.jpg"",""time"":0.7049999994924292},{""stimulus"":""run_exp/static/images/task_images/land.jpg"",""time"":838.4100000002654},{""stimulus"":""run_exp/static/images/task_images/dig.jpg"",""time"":1675.349999999511}]",[],6,,,,,,,,,,,,,,
harvest,168,519076,0.0-53.0-1.0,,null,run_exp/static/images/task_images/gems/29.jpg,null,,,,,,21,,,6,,,,,29,0.733116974,0.724137931,,,,,,,
decision,169,519212,0.0-53.0-2.0,,130.365,run_exp/static/images/task_images/land.jpg,65,,,,,,21,,,6,,,,,,,,202213,1,5,FALSE,,,
dig,170,522101,0.0-54.0-0.0,,,,,,,,,,,"[{""stimulus"":""run_exp/static/images/task_images/dig.jpg"",""time"":0.6599999997997656},{""stimulus"":""run_exp/static/images/task_images/land.jpg"",""time"":959.9799999997485},{""stimulus"":""run_exp/static/images/task_images/dig.jpg"",""time"":1916.034999999334}]",[],6,,,,,,,,,,,,,,
harvest,171,523106,0.0-54.0-1.0,,null,run_exp/static/images/task_images/gems/21.jpg,null,,,,,,17,,,6,,,,,21,0.810880481,0.80952381,,,,,,,
decision,172,523556,0.0-54.0-2.0,,441.44,run_exp/static/images/task_images/land.jpg,65,,,,,,17,,,6,,,,,,,,206556,1,6,FALSE,,,
dig,173,526128,0.0-55.0-0.0,,,,,,,,,,,"[{""stimulus"":""run_exp/static/images/task_images/dig.jpg"",""time"":0.7249999999767169},{""stimulus"":""run_exp/static/images/task_images/land.jpg"",""time"":856.5300000000279},{""stimulus"":""run_exp/static/images/task_images/dig.jpg"",""time"":1708.020000000135}]",[],6,,,,,,,,,,,,,,
harvest,174,527132,0.0-55.0-1.0,,null,run_exp/static/images/task_images/gems/17.jpg,null,,,,,,15,,,6,,,,,17,0.880209018,0.882352941,,,,,,,
decision,175,528089,0.0-55.0-2.0,,952.31,run_exp/static/images/task_images/land.jpg,65,,,,,,15,,,6,,,,,,,,211090,1,7,FALSE,,,
dig,176,530151,0.0-56.0-0.0,,,,,,,,,,,"[{""stimulus"":""run_exp/static/images/task_images/dig.jpg"",""time"":0.7749999995576218},{""stimulus"":""run_exp/static/images/task_images/land.jpg"",""time"":696.2349999995204},{""stimulus"":""run_exp/static/images/task_images/dig.jpg"",""time"":1367.0100000000093}]",[],6,,,,,,,,,,,,,,
harvest,177,531156,0.0-56.0-1.0,,null,run_exp/static/images/task_images/gems/15.jpg,null,,,,,,13,,,6,,,,,15,0.893481966,0.866666667,,,,,,,
decision,178,532609,0.0-56.0-2.0,,1442.735,run_exp/static/images/task_images/land.jpg,76,,,,,,13,,,6,,,,,,,,215609,1,8,TRUE,,,
travel,179,541178,0.0-57.0-0.0,,,,,,,,,,,"[{""stimulus"":""run_exp/static/images/task_images/rocket-01.jpg"",""time"":0.7100000003119931},{""stimulus"":""run_exp/static/images/task_images/rocket-02.jpg"",""time"":955.4049999997951},{""stimulus"":""run_exp/static/images/task_images/rocket-03.jpg"",""time"":1905.1600000002654},{""stimulus"":""run_exp/static/images/task_images/rocket-04.jpg"",""time"":2854.945000000065},{""stimulus"":""run_exp/static/images/task_images/rocket-05.jpg"",""time"":3804.5249999995576},{""stimulus"":""run_exp/static/images/task_images/rocket-06.jpg"",""time"":4754.544999999809},{""stimulus"":""run_exp/static/images/task_images/rocket-07.jpg"",""time"":5704.7400000002235},{""stimulus"":""run_exp/static/images/task_images/rocket-08.jpg"",""time"":6654.305000000051},{""stimulus"":""run_exp/static/images/task_images/rocket-09.jpg"",""time"":7603.650000000023}]",[],6,,,,,,,,,,,,,,
alien_welcome,180,546183,0.0-57.0-1.0,,null,run_exp/static/images/task_images/aliens/old_aliens/planet/alien_planet-51.jpg,null,,,,,,,,,,,,51,"4,74,28,72,68,67,51,79,47,20,30,40,16,25,50,26,46,34,35,31,63,22,33,57,36,44,65,39,18,11,38,71,66,3,24,70",,,,,,,,,,
land,181,546689,0.0-57.0-2.0,,null,run_exp/static/images/task_images/land.jpg,null,,,,,,94,,,7,,,,,,,,,,,,,,
dig,182,548701,0.0-57.0-3.0,,,,,,,,,,,"[{""stimulus"":""run_exp/static/images/task_images/dig.jpg"",""time"":0.8200000001816079},{""stimulus"":""run_exp/static/images/task_images/land.jpg"",""time"":672.0850000000792},{""stimulus"":""run_exp/static/images/task_images/dig.jpg"",""time"":1336.8700000001118}]",[],7,,,,,,,,,,,,,,
harvest,183,549707,0.0-57.0-4.0,,null,run_exp/static/images/task_images/gems/94.jpg,null,,,,,,78,,,7,,,,,94,0.827818761,0.829787234,,,,,,,
decision,184,550328,0.0-57.0-5.0,,614.98,run_exp/static/images/task_images/land.jpg,65,,,,,,78,,,7,,,,,,,,233329,1,0,FALSE,,,
dig,185,552731,0.0-58.0-0.0,,,,,,,,,,,"[{""stimulus"":""run_exp/static/images/task_images/dig.jpg"",""time"":0.684999999939464},{""stimulus"":""run_exp/static/images/task_images/land.jpg"",""time"":799.4749999997439},{""stimulus"":""run_exp/static/images/task_images/dig.jpg"",""time"":1594.404999999795}]",[],7,,,,,,,,,,,,,,
harvest,186,553738,0.0-58.0-1.0,,null,run_exp/static/images/task_images/gems/78.jpg,null,,,,,,54,,,7,,,,,78,0.695822976,0.692307692,,,,,,,
decision,187,553812,0.0-58.0-2.0,,66.93,run_exp/static/images/task_images/land.jpg,65,,,,,,54,,,7,,,,,,,,236813,1,1,FALSE,,,
dig,188,556761,0.0-59.0-0.0,,,,,,,,,,,"[{""stimulus"":""run_exp/static/images/task_images/dig.jpg"",""time"":0.8600000001024455},{""stimulus"":""run_exp/static/images/task_images/land.jpg"",""time"":982.1200000005774},{""stimulus"":""run_exp/static/images/task_images/dig.jpg"",""time"":1958.5800000004238}]",[],7,,,,,,,,,,,,,,
harvest,189,557765,0.0-59.0-1.0,,null,run_exp/static/images/task_images/gems/54.jpg,null,,,,,,47,,,7,,,,,54,0.86400395,0.87037037,,,,,,,
decision,190,557815,0.0-59.0-2.0,,44.365,run_exp/static/images/task_images/land.jpg,65,,,,,,47,,,7,,,,,,,,240815,1,2,FALSE,,,
dig,191,560786,0.0-60.0-0.0,,,,,,,,,,,"[{""stimulus"":""run_exp/static/images/task_images/dig.jpg"",""time"":0.7100000003119931},{""stimulus"":""run_exp/static/images/task_images/land.jpg"",""time"":989.8550000007963},{""stimulus"":""run_exp/static/images/task_images/dig.jpg"",""time"":1973.8850000003586}]",[],7,,,,,,,,,,,,,,
harvest,192,561793,0.0-60.0-1.0,,null,run_exp/static/images/task_images/gems/47.jpg,null,,,,,,41,,,7,,,,,47,0.870076877,0.872340426,,,,,,,
decision,193,561898,0.0-60.0-2.0,,95.225,run_exp/static/images/task_images/land.jpg,65,,,,,,41,,,7,,,,,,,,244899,1,3,FALSE,,,
dig,194,564821,0.0-61.0-0.0,,,,,,,,,,,"[{""stimulus"":""run_exp/static/images/task_images/dig.jpg"",""time"":0.7199999999720603},{""stimulus"":""run_exp/static/images/task_images/land.jpg"",""time"":971.6100000004517},{""stimulus"":""run_exp/static/images/task_images/dig.jpg"",""time"":1939.7900000003865}]",[],7,,,,,,,,,,,,,,
harvest,195,565828,0.0-61.0-1.0,,null,run_exp/static/images/task_images/gems/41.jpg,null,,,,,,34,,,7,,,,,41,0.840241319,0.829268293,,,,,,,
decision,196,566145,0.0-61.0-2.0,,312.075,run_exp/static/images/task_images/land.jpg,65,,,,,,34,,,7,,,,,,,,249146,1,4,FALSE,,,
dig,197,568844,0.0-62.0-0.0,,,,,,,,,,,"[{""stimulus"":""run_exp/static/images/task_images/dig.jpg"",""time"":0.7500000001164153},{""stimulus"":""run_exp/static/images/task_images/land.jpg"",""time"":900.0349999996834},{""stimulus"":""run_exp/static/images/task_images/dig.jpg"",""time"":1794.544999999809}]",[],7,,,,,,,,,,,,,,
harvest,198,569849,0.0-62.0-1.0,,null,run_exp/static/images/task_images/gems/34.jpg,null,,,,,,27,,,7,,,,,34,0.798031377,0.794117647,,,,,,,
decision,199,570146,0.0-62.0-2.0,,287.94,run_exp/static/images/task_images/land.jpg,65,,,,,,27,,,7,,,,,,,,253146,1,5,FALSE,,,
dig,200,572874,0.0-63.0-0.0,,,,,,,,,,,"[{""stimulus"":""run_exp/static/images/task_images/dig.jpg"",""time"":0.7350000005681068},{""stimulus"":""run_exp/static/images/task_images/land.jpg"",""time"":908.375},{""stimulus"":""run_exp/static/images/task_images/dig.jpg"",""time"":1812.0699999999488}]",[],7,,,,,,,,,,,,,,
harvest,201,573880,0.0-63.0-1.0,,null,run_exp/static/images/task_images/gems/27.jpg,null,,,,,,21,,,7,,,,,27,0.78633977,0.777777778,,,,,,,
decision,202,574236,0.0-63.0-2.0,,351.84,run_exp/static/images/task_images/land.jpg,65,,,,,,21,,,7,,,,,,,,257236,1,6,FALSE,,,
dig,203,576898,0.0-64.0-0.0,,,,,,,,,,,"[{""stimulus"":""run_exp/static/images/task_images/dig.jpg"",""time"":0.9250000002793968},{""stimulus"":""run_exp/static/images/task_images/land.jpg"",""time"":885.4600000004284},{""stimulus"":""run_exp/static/images/task_images/dig.jpg"",""time"":1768.804999999702}]",[],7,,,,,,,,,,,,,,
harvest,204,577905,0.0-64.0-1.0,,null,run_exp/static/images/task_images/gems/21.jpg,null,,,,,,16,,,7,,,,,21,0.776086787,0.761904762,,,,,,,
decision,205,577912,0.0-64.0-2.0,,0.49,run_exp/static/images/task_images/land.jpg,65,,,,,,16,,,7,,,,,,,,260912,1,7,FALSE,,,
dig,206,580923,0.0-65.0-0.0,,,,,,,,,,,"[{""stimulus"":""run_exp/static/images/task_images/dig.jpg"",""time"":0.8100000004051253},{""stimulus"":""run_exp/static/images/task_images/land.jpg"",""time"":1003.3250000005355},{""stimulus"":""run_exp/static/images/task_images/dig.jpg"",""time"":2003.604999999865}]",[],7,,,,,,,,,,,,,,
harvest,207,581928,0.0-65.0-1.0,,null,run_exp/static/images/task_images/gems/16.jpg,null,,,,,,13,,,7,,,,,16,0.788427834,0.8125,,,,,,,
decision,208,583003,0.0-65.0-2.0,,1068.975,run_exp/static/images/task_images/land.jpg,65,,,,,,13,,,7,,,,,,,,266004,1,8,FALSE,,,
dig,209,584949,0.0-66.0-0.0,,,,,,,,,,,"[{""stimulus"":""run_exp/static/images/task_images/dig.jpg"",""time"":0.7400000004563481},{""stimulus"":""run_exp/static/images/task_images/land.jpg"",""time"":646.9900000002235},{""stimulus"":""run_exp/static/images/task_images/dig.jpg"",""time"":1289.7899999998044}]",[],7,,,,,,,,,,,,,,
harvest,210,585957,0.0-66.0-1.0,,null,run_exp/static/images/task_images/gems/13.jpg,null,,,,,,11,,,7,,,,,13,0.808114134,0.846153846,,,,,,,
decision,211,587389,0.0-66.0-2.0,,1424.935,run_exp/static/images/task_images/land.jpg,76,,,,,,11,,,7,,,,,,,,270389,1,9,TRUE,,,
travel,212,595975,0.0-67.0-0.0,,,,,,,,,,,"[{""stimulus"":""run_exp/static/images/task_images/rocket-01.jpg"",""time"":0.7350000004516914},{""stimulus"":""run_exp/static/images/task_images/rocket-02.jpg"",""time"":957.1500000001397},{""stimulus"":""run_exp/static/images/task_images/rocket-03.jpg"",""time"":1909.360000000568},{""stimulus"":""run_exp/static/images/task_images/rocket-04.jpg"",""time"":2859.8150000006426},{""stimulus"":""run_exp/static/images/task_images/rocket-05.jpg"",""time"":3812.6900000006426},{""stimulus"":""run_exp/static/images/task_images/rocket-06.jpg"",""time"":4763.51500000048},{""stimulus"":""run_exp/static/images/task_images/rocket-07.jpg"",""time"":5716.835000000196},{""stimulus"":""run_exp/static/images/task_images/rocket-08.jpg"",""time"":6668.0599999999395},{""stimulus"":""run_exp/static/images/task_images/rocket-09.jpg"",""time"":7620.155000000494}]",[],7,,,,,,,,,,,,,,
alien_welcome,213,600981,0.0-67.0-1.0,,null,run_exp/static/images/task_images/aliens/old_aliens/planet/alien_planet-79.jpg,null,,,,,,,,,,,,79,"4,74,28,72,68,67,51,79,47,20,30,40,16,25,50,26,46,34,35,31,63,22,33,57,36,44,65,39,18,11,38,71,66,3,24,70",,,,,,,,,,
land,214,601490,0.0-67.0-2.0,,null,run_exp/static/images/task_images/land.jpg,null,,,,,,104,,,8,,,,,,,,,,,,,,
dig,215,603501,0.0-67.0-3.0,,,,,,,,,,,"[{""stimulus"":""run_exp/static/images/task_images/dig.jpg"",""time"":0.6949999997159466},{""stimulus"":""run_exp/static/images/task_images/land.jpg"",""time"":670.314999999362},{""stimulus"":""run_exp/static/images/task_images/dig.jpg"",""time"":1337.4400000002934}]",[],8,,,,,,,,,,,,,,
harvest,216,604507,0.0-67.0-4.0,,null,run_exp/static/images/task_images/gems/104.jpg,null,,,,,,86,,,8,,,,,104,0.82617874,0.826923077,,,,,,,
decision,217,605356,0.0-67.0-5.0,,839.61,run_exp/static/images/task_images/land.jpg,65,,,,,,86,,,8,,,,,,,,288357,1,0,FALSE,,,
dig,218,607532,0.0-68.0-0.0,,,,,,,,,,,"[{""stimulus"":""run_exp/static/images/task_images/dig.jpg"",""time"":0.6999999996041879},{""stimulus"":""run_exp/static/images/task_images/land.jpg"",""time"":724.3250000000698},{""stimulus"":""run_exp/static/images/task_images/dig.jpg"",""time"":1445.094999999972}]",[],8,,,,,,,,,,,,,,
harvest,219,608541,0.0-68.0-1.0,,null,run_exp/static/images/task_images/gems/86.jpg,null,,,,,,68,,,8,,,,,86,0.793929972,0.790697674,,,,,,,
decision,220,608566,0.0-68.0-2.0,,17.75,run_exp/static/images/task_images/land.jpg,65,,,,,,68,,,8,,,,,,,,291567,1,1,FALSE,,,
dig,221,611564,0.0-69.0-0.0,,,,,,,,,,,"[{""stimulus"":""run_exp/static/images/task_images/dig.jpg"",""time"":0.7249999998603016},{""stimulus"":""run_exp/static/images/task_images/land.jpg"",""time"":996.895000000135},{""stimulus"":""run_exp/static/images/task_images/dig.jpg"",""time"":1992.1299999996554}]",[],8,,,,,,,,,,,,,,
harvest,222,612571,0.0-69.0-1.0,,null,run_exp/static/images/task_images/gems/68.jpg,null,,,,,,58,,,8,,,,,68,0.850209342,0.852941176,,,,,,,
decision,223,612601,0.0-69.0-2.0,,24.51,run_exp/static/images/task_images/land.jpg,65,,,,,,58,,,8,,,,,,,,295601,1,2,FALSE,,,
dig,224,615590,0.0-70.0-0.0,,,,,,,,,,,"[{""stimulus"":""run_exp/static/images/task_images/dig.jpg"",""time"":0.7299999997485429},{""stimulus"":""run_exp/static/images/task_images/land.jpg"",""time"":995.9949999992969},{""stimulus"":""run_exp/static/images/task_images/dig.jpg"",""time"":1986.0899999995017}]",[],8,,,,,,,,,,,,,,
harvest,225,616597,0.0-70.0-1.0,,null,run_exp/static/images/task_images/gems/58.jpg,null,,,,,,42,,,8,,,,,58,0.727636276,0.724137931,,,,,,,
decision,226,617131,0.0-70.0-2.0,,527.03,run_exp/static/images/task_images/land.jpg,65,,,,,,42,,,8,,,,,,,,300131,1,3,TRUE,,,
end_of_block_continue,227,626169,0.0-71.0-0.0,,null,run_exp/static/audio/clip_32_block_end.m4a,,,,,,null,,,,,,,,,,,,,,,,,,
alien_welcome,228,631185,0.0-72.0-0.0,,null,run_exp/static/images/task_images/aliens/old_aliens/planet/alien_planet-47.jpg,null,,,,,,,,,,,,47,"4,74,28,72,68,67,51,79,47,20,30,40,16,25,50,26,46,34,35,31,63,22,33,57,36,44,65,39,18,11,38,71,66,3,24,70",,,,,,,,,,
land,229,631693,0.0-72.0-1.0,,null,run_exp/static/images/task_images/land.jpg,null,,,,,,96,,,9,,,,,,,,,,,,,,
dig,230,633703,0.0-72.0-2.0,,,,,,,,,,,"[{""stimulus"":""run_exp/static/images/task_images/dig.jpg"",""time"":0.7500000001164153},{""stimulus"":""run_exp/static/images/task_images/land.jpg"",""time"":670.9800000007963},{""stimulus"":""run_exp/static/images/task_images/dig.jpg"",""time"":1337.7200000004377}]",[],9,,,,,,,,,,,,,,
harvest,231,634711,0.0-72.0-3.0,,null,run_exp/static/images/task_images/gems/96.jpg,null,,,,,,14,,,9,,,,,96,0.147835552,0.145833333,,,,,,,
decision,232,637720,0.0-72.0-4.0,,null,run_exp/static/images/task_images/land.jpg,null,,,,,,14,,,9,,,,,,,,11540,2,0,FALSE,,,
time_out,233,639736,0.0-73.0-0.0,,null,run_exp/static/images/task_images/time_out.jpg,null,,,,,,14,,,,,,,,,,,,,,,,,
decision,234,642745,0.0-73.0-1.0,,null,run_exp/static/images/task_images/land.jpg,null,,,,,,14,,,9,,,,,,,,16566,2,0,FALSE,,,
time_out,235,644766,0.0-74.0-0.0,,null,run_exp/static/images/task_images/time_out.jpg,null,,,,,,14,,,,,,,,,,,,,,,,,
decision,236,644811,0.0-74.0-1.0,,38.15,run_exp/static/images/task_images/land.jpg,65,,,,,,14,,,9,,,,,,,,18631,2,0,FALSE,,,
dig,237,647791,0.0-75.0-0.0,,,,,,,,,,,"[{""stimulus"":""run_exp/static/images/task_images/dig.jpg"",""time"":0.7150000002002344},{""stimulus"":""run_exp/static/images/task_images/land.jpg"",""time"":991.5250000003725},{""stimulus"":""run_exp/static/images/task_images/dig.jpg"",""time"":1979.0400000001537}]",[],9,,,,,,,,,,,,,,
harvest,238,648800,0.0-75.0-1.0,,null,run_exp/static/images/task_images/gems/14.jpg,null,,,,,,3,,,9,,,,,14,0.21403802,0.214285714,,,,,,,
decision,239,650675,0.0-75.0-2.0,,1867.875,run_exp/static/images/task_images/land.jpg,76,,,,,,3,,,9,,,,,,,,24495,2,1,TRUE,,,
travel,240,658818,0.0-76.0-0.0,,,,,,,,,,,"[{""stimulus"":""run_exp/static/images/task_images/rocket-01.jpg"",""time"":0.8600000001024455},{""stimulus"":""run_exp/static/images/task_images/rocket-02.jpg"",""time"":907.4999999994179},{""stimulus"":""run_exp/static/images/task_images/rocket-03.jpg"",""time"":1809.6649999998044},{""stimulus"":""run_exp/static/images/task_images/rocket-04.jpg"",""time"":2712.4899999998743},{""stimulus"":""run_exp/static/images/task_images/rocket-05.jpg"",""time"":3615.5949999992736},{""stimulus"":""run_exp/static/images/task_images/rocket-06.jpg"",""time"":4519.769999999902},{""stimulus"":""run_exp/static/images/task_images/rocket-07.jpg"",""time"":5422.279999999795},{""stimulus"":""run_exp/static/images/task_images/rocket-08.jpg"",""time"":6326.250000000116},{""stimulus"":""run_exp/static/images/task_images/rocket-09.jpg"",""time"":7229.0999999996275}]",[],9,,,,,,,,,,,,,,
alien_welcome,241,663829,0.0-76.0-1.0,,null,run_exp/static/images/task_images/aliens/old_aliens/planet/alien_planet-20.jpg,null,,,,,,,,,,,,20,"4,74,28,72,68,67,51,79,47,20,30,40,16,25,50,26,46,34,35,31,63,22,33,57,36,44,65,39,18,11,38,71,66,3,24,70",,,,,,,,,,
land,242,664336,0.0-76.0-2.0,,null,run_exp/static/images/task_images/land.jpg,null,,,,,,100,,,10,,,,,,,,,,,,,,
dig,243,666347,0.0-76.0-3.0,,,,,,,,,,,"[{""stimulus"":""run_exp/static/images/task_images/dig.jpg"",""time"":0.7850000002654269},{""stimulus"":""run_exp/static/images/task_images/land.jpg"",""time"":672.3700000002282},{""stimulus"":""run_exp/static/images/task_images/dig.jpg"",""time"":1337.5050000004703}]",[],10,,,,,,,,,,,,,,
harvest,244,667353,0.0-76.0-4.0,,null,run_exp/static/images/task_images/gems/100.jpg,null,,,,,,19,,,10,,,,,100,0.193191693,0.19,,,,,,,
decision,245,667940,0.0-76.0-5.0,,579.885,run_exp/static/images/task_images/land.jpg,65,,,,,,19,,,10,,,,,,,,41760,2,0,FALSE,,,
dig,246,670377,0.0-77.0-0.0,,,,,,,,,,,"[{""stimulus"":""run_exp/static/images/task_images/dig.jpg"",""time"":0.6800000000512227},{""stimulus"":""run_exp/static/images/task_images/land.jpg"",""time"":809.8949999994365},{""stimulus"":""run_exp/static/images/task_images/dig.jpg"",""time"":1614.744999999879}]",[],10,,,,,,,,,,,,,,
harvest,247,671382,0.0-77.0-1.0,,null,run_exp/static/images/task_images/gems/19.jpg,null,,,,,,3,,,10,,,,,19,0.154669909,0.157894737,,,,,,,
decision,248,673669,0.0-77.0-2.0,,2277.33,run_exp/static/images/task_images/land.jpg,76,,,,,,3,,,10,,,,,,,,47490,2,1,TRUE,,,
travel,249,681411,0.0-78.0-0.0,,,,,,,,,,,"[{""stimulus"":""run_exp/static/images/task_images/rocket-01.jpg"",""time"":0.7199999999720603},{""stimulus"":""run_exp/static/images/task_images/rocket-02.jpg"",""time"":862.0449999998091},{""stimulus"":""run_exp/static/images/task_images/rocket-03.jpg"",""time"":1719.1600000004983},{""stimulus"":""run_exp/static/images/task_images/rocket-04.jpg"",""time"":2576.4850000004517},{""stimulus"":""run_exp/static/images/task_images/rocket-05.jpg"",""time"":3437.6250000004657},{""stimulus"":""run_exp/static/images/task_images/rocket-06.jpg"",""time"":4294.085000000428},{""stimulus"":""run_exp/static/images/task_images/rocket-07.jpg"",""time"":5151.5650000000605},{""stimulus"":""run_exp/static/images/task_images/rocket-08.jpg"",""time"":6010.949999999837},{""stimulus"":""run_exp/static/images/task_images/rocket-09.jpg"",""time"":6866.855000000214}]",[],10,,,,,,,,,,,,,,
alien_welcome,250,686420,0.0-78.0-1.0,,null,run_exp/static/images/task_images/aliens/old_aliens/planet/alien_planet-30.jpg,null,,,,,,,,,,,,30,"4,74,28,72,68,67,51,79,47,20,30,40,16,25,50,26,46,34,35,31,63,22,33,57,36,44,65,39,18,11,38,71,66,3,24,70",,,,,,,,,,
land,251,686927,0.0-78.0-2.0,,null,run_exp/static/images/task_images/land.jpg,null,,,,,,103,,,11,,,,,,,,,,,,,,
dig,252,688939,0.0-78.0-3.0,,,,,,,,,,,"[{""stimulus"":""run_exp/static/images/task_images/dig.jpg"",""time"":1.1599999997997656},{""stimulus"":""run_exp/static/images/task_images/land.jpg"",""time"":673.2449999999953},{""stimulus"":""run_exp/static/images/task_images/dig.jpg"",""time"":1339.0449999996927}]",[],11,,,,,,,,,,,,,,
harvest,253,689946,0.0-78.0-4.0,,null,run_exp/static/images/task_images/gems/103.jpg,null,,,,,,22,,,11,,,,,103,0.2091508,0.213592233,,,,,,,
decision,254,690461,0.0-78.0-5.0,,509.04,run_exp/static/images/task_images/land.jpg,65,,,,,,22,,,11,,,,,,,,64282,2,0,FALSE,,,
dig,255,692970,0.0-79.0-0.0,,,,,,,,,,,"[{""stimulus"":""run_exp/static/images/task_images/dig.jpg"",""time"":0.7349999996367842},{""stimulus"":""run_exp/static/images/task_images/land.jpg"",""time"":833.8100000000559},{""stimulus"":""run_exp/static/images/task_images/dig.jpg"",""time"":1664.2499999997672}]",[],11,,,,,,,,,,,,,,
harvest,256,693978,0.0-79.0-1.0,,null,run_exp/static/images/task_images/gems/22.jpg,null,,,,,,5,,,11,,,,,22,0.242220541,0.227272727,,,,,,,
decision,257,694693,0.0-79.0-2.0,,706.075,run_exp/static/images/task_images/land.jpg,76,,,,,,5,,,11,,,,,,,,68514,2,1,TRUE,,,
travel,258,703998,0.0-80.0-0.0,,,,,,,,,,,"[{""stimulus"":""run_exp/static/images/task_images/rocket-01.jpg"",""time"":0.7100000003119931},{""stimulus"":""run_exp/static/images/task_images/rocket-02.jpg"",""time"":1034.5800000005402},{""stimulus"":""run_exp/static/images/task_images/rocket-03.jpg"",""time"":2067.2500000001164},{""stimulus"":""run_exp/static/images/task_images/rocket-04.jpg"",""time"":3113.265000000014},{""stimulus"":""run_exp/static/images/task_images/rocket-05.jpg"",""time"":4131.075000000303},{""stimulus"":""run_exp/static/images/task_images/rocket-06.jpg"",""time"":5163.805000000168},{""stimulus"":""run_exp/static/images/task_images/rocket-07.jpg"",""time"":6198.685000000289},{""stimulus"":""run_exp/static/images/task_images/rocket-08.jpg"",""time"":7227.754999999888},{""stimulus"":""run_exp/static/images/task_images/rocket-09.jpg"",""time"":8259.820000000298}]",[],11,,,,,,,,,,,,,,
alien_welcome,259,709008,0.0-80.0-1.0,,null,run_exp/static/images/task_images/aliens/old_aliens/planet/alien_planet-40.jpg,null,,,,,,,,,,,,40,"4,74,28,72,68,67,51,79,47,20,30,40,16,25,50,26,46,34,35,31,63,22,33,57,36,44,65,39,18,11,38,71,66,3,24,70",,,,,,,,,,
land,260,709516,0.0-80.0-2.0,,null,run_exp/static/images/task_images/land.jpg,null,,,,,,98,,,12,,,,,,,,,,,,,,
dig,261,711527,0.0-80.0-3.0,,,,,,,,,,,"[{""stimulus"":""run_exp/static/images/task_images/dig.jpg"",""time"":0.8250000001862645},{""stimulus"":""run_exp/static/images/task_images/land.jpg"",""time"":671.8549999996321},{""stimulus"":""run_exp/static/images/task_images/dig.jpg"",""time"":1339.4499999994878}]",[],12,,,,,,,,,,,,,,
harvest,262,712533,0.0-80.0-4.0,,null,run_exp/static/images/task_images/gems/98.jpg,null,,,,,,79,,,12,,,,,98,0.804635075,0.806122449,,,,,,,
decision,263,713491,0.0-80.0-5.0,,949.555,run_exp/static/images/task_images/land.jpg,65,,,,,,79,,,12,,,,,,,,87312,2,0,FALSE,,,
dig,264,715562,0.0-81.0-0.0,,,,,,,,,,,"[{""stimulus"":""run_exp/static/images/task_images/dig.jpg"",""time"":0.7050000004237518},{""stimulus"":""run_exp/static/images/task_images/land.jpg"",""time"":686.9200000001583},{""stimulus"":""run_exp/static/images/task_images/dig.jpg"",""time"":1368.8050000000512}]",[],12,,,,,,,,,,,,,,
harvest,265,716568,0.0-81.0-1.0,,null,run_exp/static/images/task_images/gems/79.jpg,null,,,,,,59,,,12,,,,,79,0.749895139,0.746835443,,,,,,,
decision,266,716953,0.0-81.0-2.0,,378.015,run_exp/static/images/task_images/land.jpg,65,,,,,,59,,,12,,,,,,,,90773,2,1,FALSE,,,
dig,267,719590,0.0-82.0-0.0,,,,,,,,,,,"[{""stimulus"":""run_exp/static/images/task_images/dig.jpg"",""time"":0.7500000001164153},{""stimulus"":""run_exp/static/images/task_images/land.jpg"",""time"":875.9700000000885},{""stimulus"":""run_exp/static/images/task_images/dig.jpg"",""time"":1750.2050000003073}]",[],12,,,,,,,,,,,,,,
harvest,268,720594,0.0-82.0-1.0,,null,run_exp/static/images/task_images/gems/59.jpg,null,,,,,,47,,,12,,,,,59,0.801988226,0.796610169,,,,,,,
decision,269,720951,0.0-82.0-2.0,,350.79,run_exp/static/images/task_images/land.jpg,65,,,,,,47,,,12,,,,,,,,94772,2,2,FALSE,,,
dig,270,723619,0.0-83.0-0.0,,,,,,,,,,,"[{""stimulus"":""run_exp/static/images/task_images/dig.jpg"",""time"":0.715000000083819},{""stimulus"":""run_exp/static/images/task_images/land.jpg"",""time"":885.6750000003958},{""stimulus"":""run_exp/static/images/task_images/dig.jpg"",""time"":1770.4250000006286}]",[],12,,,,,,,,,,,,,,
harvest,271,724626,0.0-83.0-1.0,,null,run_exp/static/images/task_images/gems/47.jpg,null,,,,,,37,,,12,,,,,47,0.785276706,0.787234043,,,,,,,
decision,272,725259,0.0-83.0-2.0,,625.985,run_exp/static/images/task_images/land.jpg,65,,,,,,37,,,12,,,,,,,,99080,2,3,FALSE,,,
dig,273,727653,0.0-84.0-0.0,,,,,,,,,,,"[{""stimulus"":""run_exp/static/images/task_images/dig.jpg"",""time"":0.6499999999068677},{""stimulus"":""run_exp/static/images/task_images/land.jpg"",""time"":793.6200000003446},{""stimulus"":""run_exp/static/images/task_images/dig.jpg"",""time"":1585.7000000005355}]",[],12,,,,,,,,,,,,,,
harvest,274,728660,0.0-84.0-1.0,,null,run_exp/static/images/task_images/gems/37.jpg,null,,,,,,30,,,12,,,,,37,0.806576109,0.810810811,,,,,,,
decision,275,728992,0.0-84.0-2.0,,326.6,run_exp/static/images/task_images/land.jpg,65,,,,,,30,,,12,,,,,,,,102813,2,4,FALSE,,,
dig,276,731682,0.0-85.0-0.0,,,,,,,,,,,"[{""stimulus"":""run_exp/static/images/task_images/dig.jpg"",""time"":0.654999999795109},{""stimulus"":""run_exp/static/images/task_images/land.jpg"",""time"":894.4750000000931},{""stimulus"":""run_exp/static/images/task_images/dig.jpg"",""time"":1786.3749999996508}]",[],12,,,,,,,,,,,,,,
harvest,277,732689,0.0-85.0-1.0,,null,run_exp/static/images/task_images/gems/30.jpg,null,,,,,,24,,,12,,,,,30,0.804647788,0.8,,,,,,,
decision,278,734742,0.0-85.0-2.0,,2048.37,run_exp/static/images/task_images/land.jpg,65,,,,,,24,,,12,,,,,,,,108562,2,5,FALSE,,,
dig,279,735718,0.0-86.0-0.0,,,,,,,,,,,"[{""stimulus"":""run_exp/static/images/task_images/dig.jpg"",""time"":0.6599999996833503},{""stimulus"":""run_exp/static/images/task_images/land.jpg"",""time"":324.2049999998417},{""stimulus"":""run_exp/static/images/task_images/dig.jpg"",""time"":639.5499999998137}]",[],12,,,,,,,,,,,,,,
harvest,280,736724,0.0-86.0-1.0,,null,run_exp/static/images/task_images/gems/24.jpg,null,,,,,,18,,,12,,,,,24,0.737329499,0.75,,,,,,,
decision,281,737499,0.0-86.0-2.0,,768.48,run_exp/static/images/task_images/land.jpg,76,,,,,,18,,,12,,,,,,,,111319,2,6,TRUE,,,
travel,282,746744,0.0-87.0-0.0,,,,,,,,,,,"[{""stimulus"":""run_exp/static/images/task_images/rocket-01.jpg"",""time"":0.7949999999254942},{""stimulus"":""run_exp/static/images/task_images/rocket-02.jpg"",""time"":1029.2600000002421},{""stimulus"":""run_exp/static/images/task_images/rocket-03.jpg"",""time"":2053.7850000000326},{""stimulus"":""run_exp/static/images/task_images/rocket-04.jpg"",""time"":3080.539999999921},{""stimulus"":""run_exp/static/images/task_images/rocket-05.jpg"",""time"":4114.045000000275},{""stimulus"":""run_exp/static/images/task_images/rocket-06.jpg"",""time"":5128.539999999688},{""stimulus"":""run_exp/static/images/task_images/rocket-07.jpg"",""time"":6155.644999999902},{""stimulus"":""run_exp/static/images/task_images/rocket-08.jpg"",""time"":7179.355000000214},{""stimulus"":""run_exp/static/images/task_images/rocket-09.jpg"",""time"":8203.394999999553}]",[],12,,,,,,,,,,,,,,
alien_welcome,283,751754,0.0-87.0-1.0,,null,run_exp/static/images/task_images/aliens/old_aliens/planet/alien_planet-16.jpg,null,,,,,,,,,,,,16,"4,74,28,72,68,67,51,79,47,20,30,40,16,25,50,26,46,34,35,31,63,22,33,57,36,44,65,39,18,11,38,71,66,3,24,70",,,,,,,,,,
land,284,752260,0.0-87.0-2.0,,null,run_exp/static/images/task_images/land.jpg,null,,,,,,107,,,13,,,,,,,,,,,,,,
dig,285,754272,0.0-87.0-3.0,,,,,,,,,,,"[{""stimulus"":""run_exp/static/images/task_images/dig.jpg"",""time"":0.874999999650754},{""stimulus"":""run_exp/static/images/task_images/land.jpg"",""time"":671.0800000000745},{""stimulus"":""run_exp/static/images/task_images/dig.jpg"",""time"":1338.2149999997346}]",[],13,,,,,,,,,,,,,,
harvest,286,755279,0.0-87.0-4.0,,null,run_exp/static/images/task_images/gems/107.jpg,null,,,,,,77,,,13,,,,,107,0.723015466,0.719626168,,,,,,,
decision,287,755761,0.0-87.0-5.0,,472.42,run_exp/static/images/task_images/land.jpg,65,,,,,,77,,,13,,,,,,,,129582,2,0,FALSE,,,
dig,288,758308,0.0-88.0-0.0,,,,,,,,,,,"[{""stimulus"":""run_exp/static/images/task_images/dig.jpg"",""time"":0.715000000083819},{""stimulus"":""run_exp/static/images/task_images/land.jpg"",""time"":847.0299999999115},{""stimulus"":""run_exp/static/images/task_images/dig.jpg"",""time"":1687.41500000027}]",[],13,,,,,,,,,,,,,,
harvest,289,759313,0.0-88.0-1.0,,null,run_exp/static/images/task_images/gems/77.jpg,null,,,,,,64,,,13,,,,,77,0.826558136,0.831168831,,,,,,,
decision,290,759490,0.0-88.0-2.0,,170.665,run_exp/static/images/task_images/land.jpg,65,,,,,,64,,,13,,,,,,,,133311,2,1,FALSE,,,
dig,291,762336,0.0-89.0-0.0,,,,,,,,,,,"[{""stimulus"":""run_exp/static/images/task_images/dig.jpg"",""time"":0.6549999999115244},{""stimulus"":""run_exp/static/images/task_images/land.jpg"",""time"":946.7100000001956},{""stimulus"":""run_exp/static/images/task_images/dig.jpg"",""time"":1890.059999999823}]",[],13,,,,,,,,,,,,,,
harvest,292,763343,0.0-89.0-1.0,,null,run_exp/static/images/task_images/gems/64.jpg,null,,,,,,56,,,13,,,,,64,0.88096903,0.875,,,,,,,
decision,293,763924,0.0-89.0-2.0,,575.24,run_exp/static/images/task_images/land.jpg,65,,,,,,56,,,13,,,,,,,,137745,2,2,FALSE,,,
dig,294,766366,0.0-90.0-0.0,,,,,,,,,,,"[{""stimulus"":""run_exp/static/images/task_images/dig.jpg"",""time"":0.7000000005355105},{""stimulus"":""run_exp/static/images/task_images/land.jpg"",""time"":811.9700000006706},{""stimulus"":""run_exp/static/images/task_images/dig.jpg"",""time"":1619.750000000815}]",[],13,,,,,,,,,,,,,,
harvest,295,767372,0.0-90.0-1.0,,null,run_exp/static/images/task_images/gems/56.jpg,null,,,,,,45,,,13,,,,,56,0.796323636,0.803571429,,,,,,,
decision,296,767622,0.0-90.0-2.0,,242.95,run_exp/static/images/task_images/land.jpg,65,,,,,,45,,,13,,,,,,,,141443,2,3,FALSE,,,
dig,297,770397,0.0-91.0-0.0,,,,,,,,,,,"[{""stimulus"":""run_exp/static/images/task_images/dig.jpg"",""time"":0.7100000003119931},{""stimulus"":""run_exp/static/images/task_images/land.jpg"",""time"":922.585000000312},{""stimulus"":""run_exp/static/images/task_images/dig.jpg"",""time"":1843.9400000006426}]",[],13,,,,,,,,,,,,,,
harvest,298,771404,0.0-91.0-1.0,,null,run_exp/static/images/task_images/gems/45.jpg,null,,,,,,31,,,13,,,,,45,0.68085014,0.688888889,,,,,,,
decision,299,771631,0.0-91.0-2.0,,219.46,run_exp/static/images/task_images/land.jpg,65,,,,,,31,,,13,,,,,,,,145452,2,4,FALSE,,,
dig,300,774437,0.0-92.0-0.0,,,,,,,,,,,"[{""stimulus"":""run_exp/static/images/task_images/dig.jpg"",""time"":0.7049999994924292},{""stimulus"":""run_exp/static/images/task_images/land.jpg"",""time"":932.0950000000885},{""stimulus"":""run_exp/static/images/task_images/dig.jpg"",""time"":1856.3599999997532}]",[],13,,,,,,,,,,,,,,
harvest,301,775445,0.0-92.0-1.0,,null,run_exp/static/images/task_images/gems/31.jpg,null,,,,,,26,,,13,,,,,31,0.837677458,0.838709677,,,,,,,
decision,302,775724,0.0-92.0-2.0,,271.77,run_exp/static/images/task_images/land.jpg,65,,,,,,26,,,13,,,,,,,,149544,2,5,FALSE,,,
dig,303,778470,0.0-93.0-0.0,,,,,,,,,,,"[{""stimulus"":""run_exp/static/images/task_images/dig.jpg"",""time"":0.8450000005541369},{""stimulus"":""run_exp/static/images/task_images/land.jpg"",""time"":914.4150000002701},{""stimulus"":""run_exp/static/images/task_images/dig.jpg"",""time"":1822.9350000001723}]",[],13,,,,,,,,,,,,,,
harvest,304,779475,0.0-93.0-1.0,,null,run_exp/static/images/task_images/gems/26.jpg,null,,,,,,21,,,13,,,,,26,0.819820622,0.807692308,,,,,,,
decision,305,780161,0.0-93.0-2.0,,678.715,run_exp/static/images/task_images/land.jpg,65,,,,,,21,,,13,,,,,,,,153982,2,6,FALSE,,,
dig,306,782498,0.0-94.0-0.0,,,,,,,,,,,"[{""stimulus"":""run_exp/static/images/task_images/dig.jpg"",""time"":0.7000000004190952},{""stimulus"":""run_exp/static/images/task_images/land.jpg"",""time"":776.305000000284},{""stimulus"":""run_exp/static/images/task_images/dig.jpg"",""time"":1550.035000000149}]",[],13,,,,,,,,,,,,,,
harvest,307,783505,0.0-94.0-1.0,,null,run_exp/static/images/task_images/gems/21.jpg,null,,,,,,17,,,13,,,,,21,0.819761214,0.80952381,,,,,,,
decision,308,784018,0.0-94.0-2.0,,507.45,run_exp/static/images/task_images/land.jpg,65,,,,,,17,,,13,,,,,,,,157839,2,7,FALSE,,,
dig,309,786529,0.0-95.0-0.0,,,,,,,,,,,"[{""stimulus"":""run_exp/static/images/task_images/dig.jpg"",""time"":0.7050000004237518},{""stimulus"":""run_exp/static/images/task_images/land.jpg"",""time"":833.5550000001676},{""stimulus"":""run_exp/static/images/task_images/dig.jpg"",""time"":1664.6899999997113}]",[],13,,,,,,,,,,,,,,
harvest,310,787535,0.0-95.0-1.0,,null,run_exp/static/images/task_images/gems/17.jpg,null,,,,,,14,,,13,,,,,17,0.831207631,0.823529412,,,,,,,
decision,311,787720,0.0-95.0-2.0,,176.675,run_exp/static/images/task_images/land.jpg,76,,,,,,14,,,13,,,,,,,,161540,2,8,TRUE,,,
travel,312,797554,0.0-96.0-0.0,,,,,,,,,,,"[{""stimulus"":""run_exp/static/images/task_images/rocket-01.jpg"",""time"":0.7150000002002344},{""stimulus"":""run_exp/static/images/task_images/rocket-02.jpg"",""time"":1095.5050000002375},{""stimulus"":""run_exp/static/images/task_images/rocket-03.jpg"",""time"":2185.754999999539},{""stimulus"":""run_exp/static/images/task_images/rocket-04.jpg"",""time"":3277.039999999921},{""stimulus"":""run_exp/static/images/task_images/rocket-05.jpg"",""time"":4368.730000000214},{""stimulus"":""run_exp/static/images/task_images/rocket-06.jpg"",""time"":5459.539999999804},{""stimulus"":""run_exp/static/images/task_images/rocket-07.jpg"",""time"":6550.114999999991},{""stimulus"":""run_exp/static/images/task_images/rocket-08.jpg"",""time"":7640.914999999921},{""stimulus"":""run_exp/static/images/task_images/rocket-09.jpg"",""time"":8731.995000000112}]",[],13,,,,,,,,,,,,,,
alien_welcome,313,802562,0.0-96.0-1.0,,null,run_exp/static/images/task_images/aliens/old_aliens/planet/alien_planet-25.jpg,null,,,,,,,,,,,,25,"4,74,28,72,68,67,51,79,47,20,30,40,16,25,50,26,46,34,35,31,63,22,33,57,36,44,65,39,18,11,38,71,66,3,24,70",,,,,,,,,,
land,314,803078,0.0-96.0-2.0,,null,run_exp/static/images/task_images/land.jpg,null,,,,,,103,,,14,,,,,,,,,,,,,,
dig,315,805087,0.0-96.0-3.0,,,,,,,,,,,"[{""stimulus"":""run_exp/static/images/task_images/dig.jpg"",""time"":0.7349999996367842},{""stimulus"":""run_exp/static/images/task_images/land.jpg"",""time"":670.9649999992689},{""stimulus"":""run_exp/static/images/task_images/dig.jpg"",""time"":1337.6399999996647}]",[],14,,,,,,,,,,,,,,
harvest,316,806092,0.0-96.0-4.0,,null,run_exp/static/images/task_images/gems/103.jpg,null,,,,,,81,,,14,,,,,103,0.782234233,0.786407767,,,,,,,
decision,317,806518,0.0-96.0-5.0,,418.49,run_exp/static/images/task_images/land.jpg,65,,,,,,81,,,14,,,,,,,,180340,2,0,FALSE,,,
dig,318,809120,0.0-97.0-0.0,,,,,,,,,,,"[{""stimulus"":""run_exp/static/images/task_images/dig.jpg"",""time"":0.7350000005681068},{""stimulus"":""run_exp/static/images/task_images/land.jpg"",""time"":872.9599999997299},{""stimulus"":""run_exp/static/images/task_images/dig.jpg"",""time"":1723.7550000000047}]",[],14,,,,,,,,,,,,,,
harvest,319,810126,0.0-97.0-1.0,,null,run_exp/static/images/task_images/gems/81.jpg,null,,,,,,70,,,14,,,,,81,0.86282306,0.864197531,,,,,,,
decision,320,810861,0.0-97.0-2.0,,725.06,run_exp/static/images/task_images/land.jpg,65,,,,,,70,,,14,,,,,,,,184681,2,1,FALSE,,,
dig,321,813152,0.0-98.0-0.0,,,,,,,,,,,"[{""stimulus"":""run_exp/static/images/task_images/dig.jpg"",""time"":0.7299999997485429},{""stimulus"":""run_exp/static/images/task_images/land.jpg"",""time"":761.4949999997625},{""stimulus"":""run_exp/static/images/task_images/dig.jpg"",""time"":1521.4150000001537}]",[],14,,,,,,,,,,,,,,
harvest,322,814160,0.0-98.0-1.0,,null,run_exp/static/images/task_images/gems/70.jpg,null,,,,,,55,,,14,,,,,70,0.792328346,0.785714286,,,,,,,
decision,323,814610,0.0-98.0-2.0,,442.015,run_exp/static/images/task_images/land.jpg,65,,,,,,55,,,14,,,,,,,,188431,2,2,FALSE,,,
dig,324,817187,0.0-99.0-0.0,,,,,,,,,,,"[{""stimulus"":""run_exp/static/images/task_images/dig.jpg"",""time"":0.8250000000698492},{""stimulus"":""run_exp/static/images/task_images/land.jpg"",""time"":866.5099999997765},{""stimulus"":""run_exp/static/images/task_images/dig.jpg"",""time"":1709.0900000003166}]",[],14,,,,,,,,,,,,,,
harvest,325,818194,0.0-99.0-1.0,,null,run_exp/static/images/task_images/gems/55.jpg,null,,,,,,46,,,14,,,,,55,0.832557976,0.836363636,,,,,,,
decision,326,819031,0.0-99.0-2.0,,829.125,run_exp/static/images/task_images/land.jpg,65,,,,,,46,,,14,,,,,,,,192852,2,3,FALSE,,,
dig,327,821219,0.0-100.0-0.0,,,,,,,,,,,"[{""stimulus"":""run_exp/static/images/task_images/dig.jpg"",""time"":0.7100000003119931},{""stimulus"":""run_exp/static/images/task_images/land.jpg"",""time"":726.4650000006659},{""stimulus"":""run_exp/static/images/task_images/dig.jpg"",""time"":1450.1250000003492}]",[],14,,,,,,,,,,,,,,
harvest,328,822226,0.0-100.0-1.0,,null,run_exp/static/images/task_images/gems/46.jpg,null,,,,,,33,,,14,,,,,46,0.712014198,0.717391304,,,,,,,
decision,329,822538,0.0-100.0-2.0,,301.785,run_exp/static/images/task_images/land.jpg,65,,,,,,33,,,14,,,,,,,,196358,2,4,FALSE,,,
dig,330,825252,0.0-101.0-0.0,,,,,,,,,,,"[{""stimulus"":""run_exp/static/images/task_images/dig.jpg"",""time"":0.6899999999441206},{""stimulus"":""run_exp/static/images/task_images/land.jpg"",""time"":903.1599999999162},{""stimulus"":""run_exp/static/images/task_images/dig.jpg"",""time"":1801.779999999795}]",[],14,,,,,,,,,,,,,,
harvest,331,826257,0.0-101.0-1.0,,null,run_exp/static/images/task_images/gems/33.jpg,null,,,,,,25,,,14,,,,,33,0.761714241,0.757575758,,,,,,,
decision,332,826368,0.0-101.0-2.0,,106.15,run_exp/static/images/task_images/land.jpg,65,,,,,,25,,,14,,,,,,,,200188,2,5,FALSE,,,
dig,333,829281,0.0-102.0-0.0,,,,,,,,,,,"[{""stimulus"":""run_exp/static/images/task_images/dig.jpg"",""time"":0.6949999997159466},{""stimulus"":""run_exp/static/images/task_images/land.jpg"",""time"":967.9150000001537},{""stimulus"":""run_exp/static/images/task_images/dig.jpg"",""time"":1931.8149999999441}]",[],14,,,,,,,,,,,,,,
harvest,334,830287,0.0-102.0-1.0,,null,run_exp/static/images/task_images/gems/25.jpg,null,,,,,,20,,,14,,,,,25,0.785119733,0.8,,,,,,,
decision,335,831761,0.0-102.0-2.0,,1466.1,run_exp/static/images/task_images/land.jpg,76,,,,,,20,,,14,,,,,,,,205582,2,6,TRUE,,,
travel,336,840320,0.0-103.0-0.0,,,,,,,,,,,"[{""stimulus"":""run_exp/static/images/task_images/rocket-01.jpg"",""time"":0.7200000000884756},{""stimulus"":""run_exp/static/images/task_images/rocket-02.jpg"",""time"":952.5350000003818},{""stimulus"":""run_exp/static/images/task_images/rocket-03.jpg"",""time"":1899.800000000163},{""stimulus"":""run_exp/static/images/task_images/rocket-04.jpg"",""time"":2848.495000000228},{""stimulus"":""run_exp/static/images/task_images/rocket-05.jpg"",""time"":3794.9200000002747},{""stimulus"":""run_exp/static/images/task_images/rocket-06.jpg"",""time"":4745.385000000242},{""stimulus"":""run_exp/static/images/task_images/rocket-07.jpg"",""time"":5691.730000000563},{""stimulus"":""run_exp/static/images/task_images/rocket-08.jpg"",""time"":6639.905000000028},{""stimulus"":""run_exp/static/images/task_images/rocket-09.jpg"",""time"":7588.749999999884}]",[],14,,,,,,,,,,,,,,
alien_welcome,337,845325,0.0-103.0-1.0,,null,run_exp/static/images/task_images/aliens/old_aliens/planet/alien_planet-50.jpg,null,,,,,,,,,,,,50,"4,74,28,72,68,67,51,79,47,20,30,40,16,25,50,26,46,34,35,31,63,22,33,57,36,44,65,39,18,11,38,71,66,3,24,70",,,,,,,,,,
land,338,845834,0.0-103.0-2.0,,null,run_exp/static/images/task_images/land.jpg,null,,,,,,101,,,15,,,,,,,,,,,,,,
dig,339,847846,0.0-103.0-3.0,,,,,,,,,,,"[{""stimulus"":""run_exp/static/images/task_images/dig.jpg"",""time"":0.6800000001676381},{""stimulus"":""run_exp/static/images/task_images/land.jpg"",""time"":672.2949999994598},{""stimulus"":""run_exp/static/images/task_images/dig.jpg"",""time"":1338.6700000001583}]",[],15,,,,,,,,,,,,,,
harvest,340,848855,0.0-103.0-4.0,,null,run_exp/static/images/task_images/gems/101.jpg,null,,,,,,86,,,15,,,,,101,0.850885445,0.851485149,,,,,,,
decision,341,849462,0.0-103.0-5.0,,596.7,run_exp/static/images/task_images/land.jpg,65,,,,,,86,,,15,,,,,,,,223282,2,0,FALSE,,,
dig,342,851886,0.0-104.0-0.0,,,,,,,,,,,"[{""stimulus"":""run_exp/static/images/task_images/dig.jpg"",""time"":0.7199999999720603},{""stimulus"":""run_exp/static/images/task_images/land.jpg"",""time"":803.940000000759},{""stimulus"":""run_exp/static/images/task_images/dig.jpg"",""time"":1606.6600000003818}]",[],15,,,,,,,,,,,,,,
harvest,343,852895,0.0-104.0-1.0,,null,run_exp/static/images/task_images/gems/86.jpg,null,,,,,,70,,,15,,,,,86,0.812507348,0.813953488,,,,,,,
decision,344,853364,0.0-104.0-2.0,,461.635,run_exp/static/images/task_images/land.jpg,65,,,,,,70,,,15,,,,,,,,227185,2,1,FALSE,,,
dig,345,855922,0.0-105.0-0.0,,,,,,,,,,,"[{""stimulus"":""run_exp/static/images/task_images/dig.jpg"",""time"":0.7199999999720603},{""stimulus"":""run_exp/static/images/task_images/land.jpg"",""time"":850.6950000000652},{""stimulus"":""run_exp/static/images/task_images/dig.jpg"",""time"":1696.2000000003027}]",[],15,,,,,,,,,,,,,,
harvest,346,856930,0.0-105.0-1.0,,null,run_exp/static/images/task_images/gems/70.jpg,null,,,,,,55,,,15,,,,,70,0.778909061,0.785714286,,,,,,,
decision,347,857870,0.0-105.0-2.0,,932.67,run_exp/static/images/task_images/land.jpg,65,,,,,,55,,,15,,,,,,,,231691,2,2,FALSE,,,
dig,348,859955,0.0-106.0-0.0,,,,,,,,,,,"[{""stimulus"":""run_exp/static/images/task_images/dig.jpg"",""time"":0.7049999994924292},{""stimulus"":""run_exp/static/images/task_images/land.jpg"",""time"":701.6450000000186},{""stimulus"":""run_exp/static/images/task_images/dig.jpg"",""time"":1381.8049999999348}]",[],15,,,,,,,,,,,,,,
harvest,349,860963,0.0-106.0-1.0,,null,run_exp/static/images/task_images/gems/55.jpg,null,,,,,,42,,,15,,,,,55,0.760282769,0.763636364,,,,,,,
decision,350,861827,0.0-106.0-2.0,,857.985,run_exp/static/images/task_images/land.jpg,65,,,,,,42,,,15,,,,,,,,235648,2,3,FALSE,,,
dig,351,863990,0.0-107.0-0.0,,,,,,,,,,,"[{""stimulus"":""run_exp/static/images/task_images/dig.jpg"",""time"":0.6699999994598329},{""stimulus"":""run_exp/static/images/task_images/land.jpg"",""time"":716.7449999997625},{""stimulus"":""run_exp/static/images/task_images/dig.jpg"",""time"":1430.7250000002095}]",[],15,,,,,,,,,,,,,,
harvest,352,864996,0.0-107.0-1.0,,null,run_exp/static/images/task_images/gems/42.jpg,null,,,,,,32,,,15,,,,,42,0.755036758,0.761904762,,,,,,,
decision,353,866532,0.0-107.0-2.0,,1525.415,run_exp/static/images/task_images/land.jpg,65,,,,,,32,,,15,,,,,,,,240353,2,4,FALSE,,,
dig,354,868023,0.0-108.0-0.0,,,,,,,,,,,"[{""stimulus"":""run_exp/static/images/task_images/dig.jpg"",""time"":0.715000000083819},{""stimulus"":""run_exp/static/images/task_images/land.jpg"",""time"":494.66500000015367},{""stimulus"":""run_exp/static/images/task_images/dig.jpg"",""time"":985.4150000000373}]",[],15,,,,,,,,,,,,,,
harvest,355,869030,0.0-108.0-1.0,,null,run_exp/static/images/task_images/gems/32.jpg,null,,,,,,27,,,15,,,,,32,0.847821689,0.84375,,,,,,,
decision,356,869246,0.0-108.0-2.0,,206.69,run_exp/static/images/task_images/land.jpg,65,,,,,,27,,,15,,,,,,,,243066,2,5,FALSE,,,
dig,357,872063,0.0-109.0-0.0,,,,,,,,,,,"[{""stimulus"":""run_exp/static/images/task_images/dig.jpg"",""time"":0.7999999998137355},{""stimulus"":""run_exp/static/images/task_images/land.jpg"",""time"":934.2399999996414},{""stimulus"":""run_exp/static/images/task_images/dig.jpg"",""time"":1866.314999999362}]",[],15,,,,,,,,,,,,,,
harvest,358,873067,0.0-109.0-1.0,,null,run_exp/static/images/task_images/gems/27.jpg,null,,,,,,20,,,15,,,,,27,0.75784407,0.740740741,,,,,,,
decision,359,873850,0.0-109.0-2.0,,775.33,run_exp/static/images/task_images/land.jpg,76,,,,,,20,,,15,,,,,,,,247671,2,6,TRUE,,,
travel,360,883087,0.0-110.0-0.0,,,,,,,,,,,"[{""stimulus"":""run_exp/static/images/task_images/rocket-01.jpg"",""time"":0.8049999997019768},{""stimulus"":""run_exp/static/images/task_images/rocket-02.jpg"",""time"":1027.535000000149},{""stimulus"":""run_exp/static/images/task_images/rocket-03.jpg"",""time"":2051.980000000214},{""stimulus"":""run_exp/static/images/task_images/rocket-04.jpg"",""time"":3076.0099999997765},{""stimulus"":""run_exp/static/images/task_images/rocket-05.jpg"",""time"":4099.8950000002515},{""stimulus"":""run_exp/static/images/task_images/rocket-06.jpg"",""time"":5122.730000000098},{""stimulus"":""run_exp/static/images/task_images/rocket-07.jpg"",""time"":6147.895000000019},{""stimulus"":""run_exp/static/images/task_images/rocket-08.jpg"",""time"":7172.7849999998},{""stimulus"":""run_exp/static/images/task_images/rocket-09.jpg"",""time"":8208.934999999707}]",[],15,,,,,,,,,,,,,,
alien_welcome,361,888094,0.0-110.0-1.0,,null,run_exp/static/images/task_images/aliens/old_aliens/planet/alien_planet-26.jpg,null,,,,,,,,,,,,26,"4,74,28,72,68,67,51,79,47,20,30,40,16,25,50,26,46,34,35,31,63,22,33,57,36,44,65,39,18,11,38,71,66,3,24,70",,,,,,,,,,
land,362,888603,0.0-110.0-2.0,,null,run_exp/static/images/task_images/land.jpg,null,,,,,,99,,,16,,,,,,,,,,,,,,
dig,363,890618,0.0-110.0-3.0,,,,,,,,,,,"[{""stimulus"":""run_exp/static/images/task_images/dig.jpg"",""time"":0.7800000002607703},{""stimulus"":""run_exp/static/images/task_images/land.jpg"",""time"":671.4400000000605},{""stimulus"":""run_exp/static/images/task_images/dig.jpg"",""time"":1338.5449999995762}]",[],16,,,,,,,,,,,,,,
harvest,364,891625,0.0-110.0-4.0,,null,run_exp/static/images/task_images/gems/99.jpg,null,,,,,,75,,,16,,,,,99,0.75578241,0.757575758,,,,,,,
decision,365,891989,0.0-110.0-5.0,,358.08,run_exp/static/images/task_images/land.jpg,65,,,,,,75,,,16,,,,,,,,265810,2,0,FALSE,,,
dig,366,894649,0.0-111.0-0.0,,,,,,,,,,,"[{""stimulus"":""run_exp/static/images/task_images/dig.jpg"",""time"":0.7000000005355105},{""stimulus"":""run_exp/static/images/task_images/land.jpg"",""time"":883.0049999997718},{""stimulus"":""run_exp/static/images/task_images/dig.jpg"",""time"":1764.5600000005215}]",[],16,,,,,,,,,,,,,,
harvest,367,895654,0.0-111.0-1.0,,null,run_exp/static/images/task_images/gems/75.jpg,null,,,,,,63,,,16,,,,,75,0.836539032,0.84,,,,,,,
decision,368,895915,0.0-111.0-2.0,,254.615,run_exp/static/images/task_images/land.jpg,65,,,,,,63,,,16,,,,,,,,269736,2,1,FALSE,,,
dig,369,898681,0.0-112.0-0.0,,,,,,,,,,,"[{""stimulus"":""run_exp/static/images/task_images/dig.jpg"",""time"":0.6999999996041879},{""stimulus"":""run_exp/static/images/task_images/land.jpg"",""time"":918.7449999999953},{""stimulus"":""run_exp/static/images/task_images/dig.jpg"",""time"":1835.3950000000186}]",[],16,,,,,,,,,,,,,,
harvest,370,899688,0.0-112.0-1.0,,null,run_exp/static/images/task_images/gems/63.jpg,null,,,,,,53,,,16,,,,,63,0.847335994,0.841269841,,,,,,,
decision,371,900045,0.0-112.0-2.0,,348.115,run_exp/static/images/task_images/land.jpg,65,,,,,,53,,,16,,,,,,,,273866,2,2,FALSE,,,
dig,372,902712,0.0-113.0-0.0,,,,,,,,,,,"[{""stimulus"":""run_exp/static/images/task_images/dig.jpg"",""time"":0.6650000003864989},{""stimulus"":""run_exp/static/images/task_images/land.jpg"",""time"":886.2299999999814},{""stimulus"":""run_exp/static/images/task_images/dig.jpg"",""time"":1769.7150000003166}]",[],16,,,,,,,,,,,,,,
harvest,373,903720,0.0-113.0-1.0,,null,run_exp/static/images/task_images/gems/53.jpg,null,,,,,,44,,,16,,,,,53,0.823216282,0.830188679,,,,,,,
decision,374,904116,0.0-113.0-2.0,,385.685,run_exp/static/images/task_images/land.jpg,65,,,,,,44,,,16,,,,,,,,277937,2,3,FALSE,,,
dig,375,906750,0.0-114.0-0.0,,,,,,,,,,,"[{""stimulus"":""run_exp/static/images/task_images/dig.jpg"",""time"":0.7100000001955777},{""stimulus"":""run_exp/static/images/task_images/land.jpg"",""time"":874.0600000000559},{""stimulus"":""run_exp/static/images/task_images/dig.jpg"",""time"":1745.590000000433}]",[],16,,,,,,,,,,,,,,
harvest,376,907757,0.0-114.0-1.0,,null,run_exp/static/images/task_images/gems/44.jpg,null,,,,,,36,,,16,,,,,44,0.814677826,0.818181818,,,,,,,
decision,377,908160,0.0-114.0-2.0,,394.83,run_exp/static/images/task_images/land.jpg,65,,,,,,36,,,16,,,,,,,,281980,2,4,FALSE,,,
dig,378,910784,0.0-115.0-0.0,,,,,,,,,,,"[{""stimulus"":""run_exp/static/images/task_images/dig.jpg"",""time"":0.6899999998277053},{""stimulus"":""run_exp/static/images/task_images/land.jpg"",""time"":876.7049999997253},{""stimulus"":""run_exp/static/images/task_images/dig.jpg"",""time"":1741.1400000001304}]",[],16,,,,,,,,,,,,,,
harvest,379,911793,0.0-115.0-1.0,,null,run_exp/static/images/task_images/gems/36.jpg,null,,,,,,28,,,16,,,,,36,0.769858717,0.777777778,,,,,,,
decision,380,912327,0.0-115.0-2.0,,523.24,run_exp/static/images/task_images/land.jpg,65,,,,,,28,,,16,,,,,,,,286148,2,5,FALSE,,,
dig,381,914822,0.0-116.0-0.0,,,,,,,,,,,"[{""stimulus"":""run_exp/static/images/task_images/dig.jpg"",""time"":0.7200000000884756},{""stimulus"":""run_exp/static/images/task_images/land.jpg"",""time"":828.3099999999395},{""stimulus"":""run_exp/static/images/task_images/dig.jpg"",""time"":1653.0599999997066}]",[],16,,,,,,,,,,,,,,
harvest,382,915830,0.0-116.0-1.0,,null,run_exp/static/images/task_images/gems/28.jpg,null,,,,,,22,,,16,,,,,28,0.779787373,0.785714286,,,,,,,
decision,383,916150,0.0-116.0-2.0,,310.805,run_exp/static/images/task_images/land.jpg,65,,,,,,22,,,16,,,,,,,,289971,2,6,FALSE,,,
dig,384,918859,0.0-117.0-0.0,,,,,,,,,,,"[{""stimulus"":""run_exp/static/images/task_images/dig.jpg"",""time"":0.7349999996367842},{""stimulus"":""run_exp/static/images/task_images/land.jpg"",""time"":901.0899999993853},{""stimulus"":""run_exp/static/images/task_images/dig.jpg"",""time"":1795.9549999996088}]",[],16,,,,,,,,,,,,,,
harvest,385,919871,0.0-117.0-1.0,,null,run_exp/static/images/task_images/gems/22.jpg,null,,,,,,19,,,16,,,,,22,0.860066966,0.863636364,,,,,,,
decision,386,920382,0.0-117.0-2.0,,504.95,run_exp/static/images/task_images/land.jpg,76,,,,,,19,,,16,,,,,,,,294203,2,7,TRUE,,,
travel,387,929895,0.0-118.0-0.0,,,,,,,,,,,"[{""stimulus"":""run_exp/static/images/task_images/rocket-01.jpg"",""time"":0.7450000003445894},{""stimulus"":""run_exp/static/images/task_images/rocket-02.jpg"",""time"":1057.720000000787},{""stimulus"":""run_exp/static/images/task_images/rocket-03.jpg"",""time"":2122.9900000008056},{""stimulus"":""run_exp/static/images/task_images/rocket-04.jpg"",""time"":3168.0300000007264},{""stimulus"":""run_exp/static/images/task_images/rocket-05.jpg"",""time"":4224.770000000717},{""stimulus"":""run_exp/static/images/task_images/rocket-06.jpg"",""time"":5279.415000000037},{""stimulus"":""run_exp/static/images/task_images/rocket-07.jpg"",""time"":6334.880000000354},{""stimulus"":""run_exp/static/images/task_images/rocket-08.jpg"",""time"":7388.54500000074},{""stimulus"":""run_exp/static/images/task_images/rocket-09.jpg"",""time"":8445.165000000154}]",[],16,,,,,,,,,,,,,,
alien_welcome,388,934901,0.0-118.0-1.0,,null,run_exp/static/images/task_images/aliens/old_aliens/planet/alien_planet-46.jpg,null,,,,,,,,,,,,46,"4,74,28,72,68,67,51,79,47,20,30,40,16,25,50,26,46,34,35,31,63,22,33,57,36,44,65,39,18,11,38,71,66,3,24,70",,,,,,,,,,
land,389,935407,0.0-118.0-2.0,,null,run_exp/static/images/task_images/land.jpg,null,,,,,,99,,,17,,,,,,,,,,,,,,
dig,390,937421,0.0-118.0-3.0,,,,,,,,,,,"[{""stimulus"":""run_exp/static/images/task_images/dig.jpg"",""time"":0.7299999997485429},{""stimulus"":""run_exp/static/images/task_images/land.jpg"",""time"":671.8050000000512},{""stimulus"":""run_exp/static/images/task_images/dig.jpg"",""time"":1338.334999999497}]",[],17,,,,,,,,,,,,,,
harvest,391,938427,0.0-118.0-4.0,,null,run_exp/static/images/task_images/gems/99.jpg,null,,,,,,61,,,17,,,,,99,0.613923232,0.616161616,,,,,,,
decision,392,938979,0.0-118.0-5.0,,543.63,run_exp/static/images/task_images/land.jpg,65,,,,,,61,,,17,,,,,,,,312800,2,0,TRUE,,,
end_of_block_continue,393,947980,0.0-119.0-0.0,,null,run_exp/static/audio/clip_32_block_end.m4a,,,,,,null,,,,,,,,,,,,,,,,,,
alien_welcome,394,953000,0.0-120.0-0.0,,null,run_exp/static/images/task_images/aliens/old_aliens/planet/alien_planet-34.jpg,null,,,,,,,,,,,,34,"4,74,28,72,68,67,51,79,47,20,30,40,16,25,50,26,46,34,35,31,63,22,33,57,36,44,65,39,18,11,38,71,66,3,24,70",,,,,,,,,,
land,395,953506,0.0-120.0-1.0,,null,run_exp/static/images/task_images/land.jpg,null,,,,,,103,,,18,,,,,,,,,,,,,,
dig,396,955520,0.0-120.0-2.0,,,,,,,,,,,"[{""stimulus"":""run_exp/static/images/task_images/dig.jpg"",""time"":0.775000000372529},{""stimulus"":""run_exp/static/images/task_images/land.jpg"",""time"":672.9800000002142},{""stimulus"":""run_exp/static/images/task_images/dig.jpg"",""time"":1338.004999999539}]",[],18,,,,,,,,,,,,,,
harvest,397,956525,0.0-120.0-3.0,,null,run_exp/static/images/task_images/gems/103.jpg,null,,,,,,56,,,18,,,,,103,0.539659479,0.54368932,,,,,,,
decision,398,958267,0.0-120.0-4.0,,1733.17,run_exp/static/images/task_images/land.jpg,65,,,,,,56,,,18,,,,,,,,10273,3,0,FALSE,,,
dig,399,959555,0.0-121.0-0.0,,,,,,,,,,,"[{""stimulus"":""run_exp/static/images/task_images/dig.jpg"",""time"":0.7099999993806705},{""stimulus"":""run_exp/static/images/task_images/land.jpg"",""time"":425.2099999994971},{""stimulus"":""run_exp/static/images/task_images/dig.jpg"",""time"":848.9049999999115}]",[],18,,,,,,,,,,,,,,
harvest,400,960561,0.0-121.0-1.0,,null,run_exp/static/images/task_images/gems/56.jpg,null,,,,,,32,,,18,,,,,56,0.578220372,0.571428571,,,,,,,
decision,401,960998,0.0-121.0-2.0,,429.59,run_exp/static/images/task_images/land.jpg,65,,,,,,32,,,18,,,,,,,,13003,3,1,FALSE,,,
dig,402,963586,0.0-122.0-0.0,,,,,,,,,,,"[{""stimulus"":""run_exp/static/images/task_images/dig.jpg"",""time"":0.715000000083819},{""stimulus"":""run_exp/static/images/task_images/land.jpg"",""time"":870.684999999823},{""stimulus"":""run_exp/static/images/task_images/dig.jpg"",""time"":1716.355000000447}]",[],18,,,,,,,,,,,,,,
harvest,403,964593,0.0-122.0-1.0,,null,run_exp/static/images/task_images/gems/32.jpg,null,,,,,,16,,,18,,,,,32,0.501298809,0.5,,,,,,,
decision,404,964935,0.0-122.0-2.0,,336.85,run_exp/static/images/task_images/land.jpg,65,,,,,,16,,,18,,,,,,,,16941,3,2,FALSE,,,
dig,405,967617,0.0-123.0-0.0,,,,,,,,,,,"[{""stimulus"":""run_exp/static/images/task_images/dig.jpg"",""time"":0.7050000004237518},{""stimulus"":""run_exp/static/images/task_images/land.jpg"",""time"":890.7749999999069},{""stimulus"":""run_exp/static/images/task_images/dig.jpg"",""time"":1777.8250000000698}]",[],18,,,,,,,,,,,,,,
harvest,406,968626,0.0-123.0-1.0,,null,run_exp/static/images/task_images/gems/16.jpg,null,,,,,,9,,,18,,,,,16,0.562156758,0.5625,,,,,,,
decision,407,970069,0.0-123.0-2.0,,1435.565,run_exp/static/images/task_images/land.jpg,76,,,,,,9,,,18,,,,,,,,22075,3,3,TRUE,,,
travel,408,978648,0.0-124.0-0.0,,,,,,,,,,,"[{""stimulus"":""run_exp/static/images/task_images/rocket-01.jpg"",""time"":0.7249999998603016},{""stimulus"":""run_exp/static/images/task_images/rocket-02.jpg"",""time"":955.6800000001676},{""stimulus"":""run_exp/static/images/task_images/rocket-03.jpg"",""time"":1905.815000000177},{""stimulus"":""run_exp/static/images/task_images/rocket-04.jpg"",""time"":2857.839999999851},{""stimulus"":""run_exp/static/images/task_images/rocket-05.jpg"",""time"":3807.945000000531},{""stimulus"":""run_exp/static/images/task_images/rocket-06.jpg"",""time"":4758.915000000503},{""stimulus"":""run_exp/static/images/task_images/rocket-07.jpg"",""time"":5710.970000000205},{""stimulus"":""run_exp/static/images/task_images/rocket-08.jpg"",""time"":6661.08499999973},{""stimulus"":""run_exp/static/images/task_images/rocket-09.jpg"",""time"":7612.56500000041}]",[],18,,,,,,,,,,,,,,
