trial_type,trial_index,time_elapsed,internal_node_id,interactions,blur_events,focus_events,fullscreenenter_events,fullscreenexit_events,success,rt,stimulus,key_press,prompt,subject_id,participant_id,age,gender,button_pressed,next_reward,animation_sequence,responses,planet,curr_prac_trial,n_prac_rounds,alien,aliens,reward_received,decay_rate_actual,decay_rate_exp,time_in_block,block_num,prt,last_trial_on_planet,button_html,bonus,num_failures
pavlovia,0,4,0.0-0.0,"""event"",""trial"",""time""
""fullscreenenter"",""1"",""3761""
","
","
","""event"",""trial"",""time""
""fullscreenenter"",""1"",""3761""
","
",,,,,,,,,,,,,,,,,,,,,,,,,,,,
fullscreen,1,4748,0.0-1.0,"""event"",""trial"",""time""
""fullscreenenter"",""1"",""3761""
","
","
","""event"",""trial"",""time""
""fullscreenenter"",""1"",""3761""
","
",TRUE,,,,,,,,,,,,,,,,,,,,,,,,,,,
instruc_welcome,2,14524,0.0-2.0,"""event"",""trial"",""time""
""fullscreenenter"",""1"",""3761""
","
","
","""event"",""trial"",""time""
""fullscreenenter"",""1"",""3761""
","
",,null,run_exp/static/audio/clip_1_welcome.m4a,null,"<p>Howdy! In this experiment, you’ll be an explorer traveling through space to collect space treasure.</p><p>Your mission is to collect as much treasure as possible.</p><br><br><p><img src='run_exp/static/images/task_images/opening_img-01.jpg' height='300' width='auto'></p>",9940,3495,16.33,Female,,,,,,,,,,,,,,,,,,,
audio-keyboard-response,3,31143,0.0-3.0,"""event"",""trial"",""time""
""fullscreenenter"",""1"",""3761""
","
","
","""event"",""trial"",""time""
""fullscreenenter"",""1"",""3761""
","
",,null,run_exp/static/audio/clip_2_move.m4a,null,,,,,,,,,,,,,,,,,,,,,,,,
welcome_dec,4,32323,0.0-4.0,"""event"",""trial"",""time""
""fullscreenenter"",""1"",""3761""
","
","
","""event"",""trial"",""time""
""fullscreenenter"",""1"",""3761""
","
",,1178.1,"<p>Howdy! In this experiment, you’ll be an explorer traveling through space to collect space treasure.</p><p>Your mission is to collect as much treasure as possible.</p><br><br><p><img src='run_exp/static/images/task_images/opening_img-01.jpg' height='300' width='auto'></p>",,,,,,,1,,,,,,,,,,,,,,,,,,
html-keyboard-response,5,33958,0.0-5.0,"""event"",""trial"",""time""
""fullscreenenter"",""1"",""3761""
","
","
","""event"",""trial"",""time""
""fullscreenenter"",""1"",""3761""
","
",,1633.9,"<p>Howdy! In this experiment, you’ll be an explorer traveling through space to collect space treasure.</p><p>Your mission is to collect as much treasure as possible.</p><br><br><p><img src='run_exp/static/images/task_images/opening_img-01.jpg' height='300' width='auto'></p><button class=""jspsych-html-btn-unchosen""><img src=""run_exp/static/images/task_images/planet-01.jpg"" height=""50""></button><button class=""jspsych-html-btn-chosen""><img src=""run_exp/static/images/task_images/planet-02.jpg"" height=""50""></button><p><b>[press the space bar to lock in your answer]<b><br></p>",32,,,,,,,,,,,,,,,,,,,,,,,,
instruc_goal,6,44049,0.0-6.0-0.0,"""event"",""trial"",""time""
""fullscreenenter"",""1"",""3761""
","
","
","""event"",""trial"",""time""
""fullscreenenter"",""1"",""3761""
","
",,null,run_exp/static/audio/clip_3_goal.m4a,null,"<p> As a space explorer, you’ll visit different planets to dig for space treasure, these pink gems.</p> <p> The more treasure you dig up, the more bonus money you’ll win! </p><br><br><p><img src='run_exp/static/images/task_images/pink_gem.jpg' height='300' width='auto'></p>",,,,,,,,,,,,,,,,,,,,,,,
instruc_goal,7,46275,0.0-6.0-1.0,"""event"",""trial"",""time""
""fullscreenenter"",""1"",""3761""
","
","
","""event"",""trial"",""time""
""fullscreenenter"",""1"",""3761""
","
",,2224.3,"<p> As a space explorer, you’ll visit different planets to dig for space treasure, these pink gems.</p> <p> The more treasure you dig up, the more bonus money you’ll win! </p><br><br><p><img src='run_exp/static/images/task_images/pink_gem.jpg' height='300' width='auto'></p>",,,,,,,1,,,,,,,,,,,,,,,,,,
html-keyboard-response,8,47106,0.0-6.0-2.0,"""event"",""trial"",""time""
""fullscreenenter"",""1"",""3761""
","
","
","""event"",""trial"",""time""
""fullscreenenter"",""1"",""3761""
","
",,828.9,"<p> As a space explorer, you’ll visit different planets to dig for space treasure, these pink gems.</p> <p> The more treasure you dig up, the more bonus money you’ll win! </p><br><br><p><img src='run_exp/static/images/task_images/pink_gem.jpg' height='300' width='auto'></p><button class=""jspsych-html-btn-unchosen""><img src=""run_exp/static/images/task_images/planet-01.jpg"" height=""50""></button><button class=""jspsych-html-btn-chosen""><img src=""run_exp/static/images/task_images/planet-02.jpg"" height=""50""></button><p><b>[press the space bar to lock in your answer]<b><br></p>",32,,,,,,,,,,,,,,,,,,,,,,,,
instruc_dig,9,63142,0.0-7.0-0.0,"""event"",""trial"",""time""
""fullscreenenter"",""1"",""3761""
","
","
","""event"",""trial"",""time""
""fullscreenenter"",""1"",""3761""
","
",,null,run_exp/static/audio/clip_4_dig.m4a,null,,,,,,,100,,,,,,,,,,,,,,,,,
instruc_dig_try,10,63892,0.0-7.0-1.0,"""event"",""trial"",""time""
""fullscreenenter"",""1"",""3761""
","
","
","""event"",""trial"",""time""
""fullscreenenter"",""1"",""3761""
","
",,748.2,"<p> When you’ve arrived at a new planet, you will dig once. </p> <p>Then, you get to decide if you want to stay on the planet and dig again or travel to a new planet and dig there.</p> <p> To stay and dig, press the letter <strong>‘A’</strong> on your keyboard. Try pressing it now! </p><p><img src='run_exp/static/images/task_images/land.jpg'  height='700' width='auto'></p>",65,"<p> When you’ve arrived at a new planet, you will dig once. </p> <p>Then, you get to decide if you want to stay on the planet and dig again or travel to a new planet and dig there.</p> <p> To stay and dig, press the letter <strong>‘A’</strong> on your keyboard. Try pressing it now! </p><p><img src='run_exp/static/images/task_images/land.jpg'  height='700' width='auto'></p>",,,,,,100,,,,,,,,,,,,,,,,,
dig_prac,11,65914,0.0-7.0-2.0,"""event"",""trial"",""time""
""fullscreenenter"",""1"",""3761""
","
","
","""event"",""trial"",""time""
""fullscreenenter"",""1"",""3761""
","
",,,,,,,,,,,,"[{""stimulus"":""run_exp/static/images/task_images/dig.jpg"",""time"":0.2999999523162842},{""stimulus"":""run_exp/static/images/task_images/land.jpg"",""time"":669.7000000476837},{""stimulus"":""run_exp/static/images/task_images/dig.jpg"",""time"":1342}]",[],,,,,,,,,,,,,,,
instruc_travel,12,102183,0.0-7.0-3.0,"""event"",""trial"",""time""
""fullscreenenter"",""1"",""3761""
","
","
","""event"",""trial"",""time""
""fullscreenenter"",""1"",""3761""
","
",,null,run_exp/static/audio/clip_5_travel.m4a,null,"<p>Every time you dig up gems, there are less gems on the planet, so the more you dig on a planet the fewer gems you’ll get with each dig.</p><p>When gems are running low, you may want to travel to a new planet. </p> <p>  Planets are very far apart in this galaxy, so it will take some time to travel between them. </p> <br><p>There are lots and lots of planets for you to visit, so you won’t be able to return to any planets you’ve seen before. </p><br><p>To leave this planet and travel to a new one, press the letter <strong>‘L’</strong> on your keyboard. Try pressing it now! </p><p><img src='run_exp/static/images/task_images/rocket-01.jpg'  height='600' width='auto'></p>",,,,,,,,,,,,,,,,,,,,,,,
instruc_travel_try,13,104093,0.0-7.0-4.0,"""event"",""trial"",""time""
""fullscreenenter"",""1"",""3761""
","
","
","""event"",""trial"",""time""
""fullscreenenter"",""1"",""3761""
","
",,1908.9,"<p>Every time you dig up gems, there are less gems on the planet, so the more you dig on a planet the fewer gems you’ll get with each dig.</p><p>When gems are running low, you may want to travel to a new planet. </p> <p>  Planets are very far apart in this galaxy, so it will take some time to travel between them. </p> <br><p>There are lots and lots of planets for you to visit, so you won’t be able to return to any planets you’ve seen before. </p><br><p>To leave this planet and travel to a new one, press the letter <strong>‘L’</strong> on your keyboard. Try pressing it now! </p><p><img src='run_exp/static/images/task_images/rocket-01.jpg'  height='600' width='auto'></p>",76,"<p>Every time you dig up gems, there are less gems on the planet, so the more you dig on a planet the fewer gems you’ll get with each dig.</p><p>When gems are running low, you may want to travel to a new planet. </p> <p>  Planets are very far apart in this galaxy, so it will take some time to travel between them. </p> <br><p>There are lots and lots of planets for you to visit, so you won’t be able to return to any planets you’ve seen before. </p><br><p>To leave this planet and travel to a new one, press the letter <strong>‘L’</strong> on your keyboard. Try pressing it now! </p><p><img src='run_exp/static/images/task_images/rocket-01.jpg'  height='600' width='auto'></p>",,,,,,,,,,,,,,,,,,,,,,,
travel_prac,14,114101,0.0-7.0-5.0,"""event"",""trial"",""time""
""fullscreenenter"",""1"",""3761""
","
","
","""event"",""trial"",""time""
""fullscreenenter"",""1"",""3761""
","
",,,,,,,,,,,,"[{""stimulus"":""run_exp/static/images/task_images/rocket-01.jpg"",""time"":0.30000007152557373},{""stimulus"":""run_exp/static/images/task_images/rocket-02.jpg"",""time"":1121.7000000476837},{""stimulus"":""run_exp/static/images/task_images/rocket-03.jpg"",""time"":2231.600000023842},{""stimulus"":""run_exp/static/images/task_images/rocket-04.jpg"",""time"":3346.3000000715256},{""stimulus"":""run_exp/static/images/task_images/rocket-05.jpg"",""time"":4450.300000071526},{""stimulus"":""run_exp/static/images/task_images/rocket-06.jpg"",""time"":5565},{""stimulus"":""run_exp/static/images/task_images/rocket-07.jpg"",""time"":6669},{""stimulus"":""run_exp/static/images/task_images/rocket-08.jpg"",""time"":7788.700000047684},{""stimulus"":""run_exp/static/images/task_images/rocket-09.jpg"",""time"":8903.800000071526}]",[],0,,,,,,,,,,,,,,
instruc_alien_greet,15,141275,0.0-7.0-6.0,"""event"",""trial"",""time""
""fullscreenenter"",""1"",""3761""
","
","
","""event"",""trial"",""time""
""fullscreenenter"",""1"",""3761""
","
",,null,run_exp/static/audio/clip_6_alien.m4a,null,"<p>When you arrive at a new planet, the alien who owns the treasure mine on that planet will greet you!</p><p>The better an alien takes care of their mine the easier it is to dig for gems. Some aliens take better care of their mine than others. So, you won’t get exactly the same amount of gems on each planet.</p><p>What the alien looks like does not tell you anything about how many gems there are on the planet.</p><br><p><img src=""run_exp/static/images/task_images/aliens/instructions_aliens/planet/alien_planet-1.jpg""  height=""600"" width=""auto""></p>",,,,,,,,,,,,,,,,,,,,,,,
instruc_alien_greet,16,147251,0.0-7.0-7.0,"""event"",""trial"",""time""
""fullscreenenter"",""1"",""3761""
","
","
","""event"",""trial"",""time""
""fullscreenenter"",""1"",""3761""
","
",,5973.5,"<p>When you arrive at a new planet, the alien who owns the treasure mine on that planet will greet you!</p><p>The better an alien takes care of their mine the easier it is to dig for gems. Some aliens take better care of their mine than others. So, you won’t get exactly the same amount of gems on each planet.</p><p>What the alien looks like does not tell you anything about how many gems there are on the planet.</p><br><p><img src=""run_exp/static/images/task_images/aliens/instructions_aliens/planet/alien_planet-1.jpg""  height=""600"" width=""auto""></p>",,,,,,,1,,,,,,,,,,,,,,,,,,
html-keyboard-response,17,149158,0.0-7.0-8.0,"""event"",""trial"",""time""
""fullscreenenter"",""1"",""3761""
","
","
","""event"",""trial"",""time""
""fullscreenenter"",""1"",""3761""
","
",,1906.2,"<p>When you arrive at a new planet, the alien who owns the treasure mine on that planet will greet you!</p><p>The better an alien takes care of their mine the easier it is to dig for gems. Some aliens take better care of their mine than others. So, you won’t get exactly the same amount of gems on each planet.</p><p>What the alien looks like does not tell you anything about how many gems there are on the planet.</p><br><p><img src=""run_exp/static/images/task_images/aliens/instructions_aliens/planet/alien_planet-1.jpg""  height=""600"" width=""auto""></p><button class=""jspsych-html-btn-unchosen""><img src=""run_exp/static/images/task_images/planet-01.jpg"" height=""50""></button><button class=""jspsych-html-btn-chosen""><img src=""run_exp/static/images/task_images/planet-02.jpg"" height=""50""></button><p><b>[press the space bar to lock in your answer]<b><br></p>",32,,,,,,,,,,,,,,,,,,,,,,,,
time_out,18,160241,0.0-8.0-0.0,"""event"",""trial"",""time""
""fullscreenenter"",""1"",""3761""
","
","
","""event"",""trial"",""time""
""fullscreenenter"",""1"",""3761""
","
",,null,run_exp/static/audio/clip_7_timeout.m4a,null,"<p>If you don't make your choice fast enough, you’ll have to wait a few seconds before you can make another one.</p><p>You can’t dig for more gems or travel to new planets. You just have to sit and wait.</p><br><p><img src='run_exp/static/images/task_images/time_out.jpg'  height='600' width='auto'></p>",,,,,,,,,,,,,,,,,,,,,,,
time_out,19,162573,0.0-8.0-1.0,"""event"",""trial"",""time""
""fullscreenenter"",""1"",""3761""
","
","
","""event"",""trial"",""time""
""fullscreenenter"",""1"",""3761""
","
",,2331.1,"<p>If you don't make your choice fast enough, you’ll have to wait a few seconds before you can make another one.</p><p>You can’t dig for more gems or travel to new planets. You just have to sit and wait.</p><br><p><img src='run_exp/static/images/task_images/time_out.jpg'  height='600' width='auto'></p>",,,,,,,1,,,,,,,,,,,,,,,,,,
html-keyboard-response,20,164235,0.0-8.0-2.0,"""event"",""trial"",""time""
""fullscreenenter"",""1"",""3761""
","
","
","""event"",""trial"",""time""
""fullscreenenter"",""1"",""3761""
","
",,1660.3,"<p>If you don't make your choice fast enough, you’ll have to wait a few seconds before you can make another one.</p><p>You can’t dig for more gems or travel to new planets. You just have to sit and wait.</p><br><p><img src='run_exp/static/images/task_images/time_out.jpg'  height='600' width='auto'></p><button class=""jspsych-html-btn-unchosen""><img src=""run_exp/static/images/task_images/planet-01.jpg"" height=""50""></button><button class=""jspsych-html-btn-chosen""><img src=""run_exp/static/images/task_images/planet-02.jpg"" height=""50""></button><p><b>[press the space bar to lock in your answer]<b><br></p>",32,,,,,,,,,,,,,,,,,,,,,,,,
instruc_break,21,179888,0.0-9.0-0.0,"""event"",""trial"",""time""
""fullscreenenter"",""1"",""3761""
","
","
","""event"",""trial"",""time""
""fullscreenenter"",""1"",""3761""
","
",,null,run_exp/static/audio/clip_8_break.m4a,null,"<p> After digging and traveling for a while, you’ll be able to take a break at home base. </p><p>The game will last 20 minutes no matter what.</p><p>You will visit home base every 5 minutes, so, you will visit home base three times during the game.</p><br><p><img src='run_exp/static/images/task_images/home_base.jpg' height='600' width='auto'></p>",,,,,,,,,,,,,,,,,,,,,,,
instruc_break,22,182574,0.0-9.0-1.0,"""event"",""trial"",""time""
""fullscreenenter"",""1"",""3761""
","
","
","""event"",""trial"",""time""
""fullscreenenter"",""1"",""3761""
","
",,2684.8,"<p> After digging and traveling for a while, you’ll be able to take a break at home base. </p><p>The game will last 20 minutes no matter what.</p><p>You will visit home base every 5 minutes, so, you will visit home base three times during the game.</p><br><p><img src='run_exp/static/images/task_images/home_base.jpg' height='600' width='auto'></p>",,,,,,,1,,,,,,,,,,,,,,,,,,
html-keyboard-response,23,183026,0.0-9.0-2.0,"""event"",""trial"",""time""
""fullscreenenter"",""1"",""3761""
","
","
","""event"",""trial"",""time""
""fullscreenenter"",""1"",""3761""
","
",,450.2,"<p> After digging and traveling for a while, you’ll be able to take a break at home base. </p><p>The game will last 20 minutes no matter what.</p><p>You will visit home base every 5 minutes, so, you will visit home base three times during the game.</p><br><p><img src='run_exp/static/images/task_images/home_base.jpg' height='600' width='auto'></p><button class=""jspsych-html-btn-unchosen""><img src=""run_exp/static/images/task_images/planet-01.jpg"" height=""50""></button><button class=""jspsych-html-btn-chosen""><img src=""run_exp/static/images/task_images/planet-02.jpg"" height=""50""></button><p><b>[press the space bar to lock in your answer]<b><br></p>",32,,,,,,,,,,,,,,,,,,,,,,,,
instruc_prac_game,24,193137,0.0-10.0-0.0,"""event"",""trial"",""time""
""fullscreenenter"",""1"",""3761""
","
","
","""event"",""trial"",""time""
""fullscreenenter"",""1"",""3761""
","
",,null,run_exp/static/audio/clip_9_practice.m4a,null,"<p> Are you ready to play a practice game? </p> <p>In this practice game, you'll be digging up barrels of gems. But, in the real game, you'll be digging up the gems themselves. </p>",,,,,,,,,,,,,,,,,,,,,,,
html-button-response,25,196215,0.0-10.0-1.0,"""event"",""trial"",""time""
""fullscreenenter"",""1"",""3761""
","
","
","""event"",""trial"",""time""
""fullscreenenter"",""1"",""3761""
","
",,3077.1,"<p> Are you ready to play a practice game? </p> <p>In this practice game, you'll be digging up barrels of gems. But, in the real game, you'll be digging up the gems themselves. </p>",,,,,,,0,,,,,,,,,,,,,,,,,,
alien_welcome_prac,26,201221,0.0-11.0-0.0,"""event"",""trial"",""time""
""fullscreenenter"",""1"",""3761""
","
","
","""event"",""trial"",""time""
""fullscreenenter"",""1"",""3761""
","
",,null,run_exp/static/images/task_images/aliens/practice_aliens/planet/alien_planet-5.jpg,null,,,,,,,,,,,,,,,,,,,,,,,,
land_prac,27,201739,0.0-11.0-1.0,"""event"",""trial"",""time""
""fullscreenenter"",""1"",""3761""
","
","
","""event"",""trial"",""time""
""fullscreenenter"",""1"",""3761""
","
",,null,run_exp/static/images/task_images/land.jpg,null,,,,,,,102,,,0,,,,,,,,,,,,,,
dig_prac,28,203756,0.0-11.0-2.0,"""event"",""trial"",""time""
""fullscreenenter"",""1"",""3761""
","
","
","""event"",""trial"",""time""
""fullscreenenter"",""1"",""3761""
","
",,,,,,,,,,,,"[{""stimulus"":""run_exp/static/images/task_images/dig.jpg"",""time"":0.20000004768371582},{""stimulus"":""run_exp/static/images/task_images/land.jpg"",""time"":673.8000000715256},{""stimulus"":""run_exp/static/images/task_images/dig.jpg"",""time"":1343.5}]",[],,,,,,,,,,,,,,,
harvest_prac,29,204762,0.0-11.0-3.0,"""event"",""trial"",""time""
""fullscreenenter"",""1"",""3761""
","
","
","""event"",""trial"",""time""
""fullscreenenter"",""1"",""3761""
","
",,null,run_exp/static/images/task_images/barrel_text.jpg,null,,,,,,,,,,,,,,,,,,,,,,,,
decision_prac,30,205459,0.0-11.0-4.0,"""event"",""trial"",""time""
""fullscreenenter"",""1"",""3761""
","
","
","""event"",""trial"",""time""
""fullscreenenter"",""1"",""3761""
","
",,695.5,run_exp/static/images/task_images/land.jpg,65,,,,,,,,,,,1,,,,,,,,,,,,,
dig_prac,31,207473,0.0-12.0-0.0,"""event"",""trial"",""time""
""fullscreenenter"",""1"",""3761""
","
","
","""event"",""trial"",""time""
""fullscreenenter"",""1"",""3761""
","
",,,,,,,,,,,,"[{""stimulus"":""run_exp/static/images/task_images/dig.jpg"",""time"":0.20000004768371582},{""stimulus"":""run_exp/static/images/task_images/land.jpg"",""time"":673.8000000715256},{""stimulus"":""run_exp/static/images/task_images/dig.jpg"",""time"":1335.3000000715256}]",[],,,,,,,,,,,,,,,
harvest_prac,32,208476,0.0-12.0-1.0,"""event"",""trial"",""time""
""fullscreenenter"",""1"",""3761""
","
","
","""event"",""trial"",""time""
""fullscreenenter"",""1"",""3761""
","
",,null,run_exp/static/images/task_images/barrel_text.jpg,null,,,,,,,,,,,,,,,,,,,,,,,,
decision_prac,33,211484,0.0-12.0-2.0,"""event"",""trial"",""time""
""fullscreenenter"",""1"",""3761""
","
","
","""event"",""trial"",""time""
""fullscreenenter"",""1"",""3761""
","
",,null,run_exp/static/images/task_images/land.jpg,null,,,,,,,,,,,2,,,,,,,,,,,,,
time_out,34,213489,0.0-13.0-0.0,"""event"",""trial"",""time""
""fullscreenenter"",""1"",""3761""
","
","
","""event"",""trial"",""time""
""fullscreenenter"",""1"",""3761""
","
",,null,run_exp/static/images/task_images/time_out.jpg,null,,,,,,,,,,,,,,,,,,,,,,,,
decision_prac,35,213685,0.0-13.0-1.0,"""event"",""trial"",""time""
""fullscreenenter"",""1"",""3761""
","
","
","""event"",""trial"",""time""
""fullscreenenter"",""1"",""3761""
","
",,194.6999999,run_exp/static/images/task_images/land.jpg,65,,,,,,,,,,,3,,,,,,,,,,,,,
dig_prac,36,215697,0.0-14.0-0.0,"""event"",""trial"",""time""
""fullscreenenter"",""1"",""3761""
","
","
","""event"",""trial"",""time""
""fullscreenenter"",""1"",""3761""
","
",,,,,,,,,,,,"[{""stimulus"":""run_exp/static/images/task_images/dig.jpg"",""time"":0.20000004768371582},{""stimulus"":""run_exp/static/images/task_images/land.jpg"",""time"":675.7000000476837},{""stimulus"":""run_exp/static/images/task_images/dig.jpg"",""time"":1342.7000000476837}]",[],,,,,,,,,,,,,,,
harvest_prac,37,216700,0.0-14.0-1.0,"""event"",""trial"",""time""
""fullscreenenter"",""1"",""3761""
","
","
","""event"",""trial"",""time""
""fullscreenenter"",""1"",""3761""
","
",,null,run_exp/static/images/task_images/barrel_text.jpg,null,,,,,,,,,,,,,,,,,,,,,,,,
decision_prac,38,217556,0.0-14.0-2.0,"""event"",""trial"",""time""
""fullscreenenter"",""1"",""3761""
","
","
","""event"",""trial"",""time""
""fullscreenenter"",""1"",""3761""
","
",,855.7,run_exp/static/images/task_images/land.jpg,65,,,,,,,,,,,4,,,,,,,,,,,,,
dig_prac,39,219569,0.0-15.0-0.0,"""event"",""trial"",""time""
""fullscreenenter"",""1"",""3761""
","
","
","""event"",""trial"",""time""
""fullscreenenter"",""1"",""3761""
","
",,,,,,,,,,,,"[{""stimulus"":""run_exp/static/images/task_images/dig.jpg"",""time"":0.30000007152557373},{""stimulus"":""run_exp/static/images/task_images/land.jpg"",""time"":678},{""stimulus"":""run_exp/static/images/task_images/dig.jpg"",""time"":1344.7000000476837}]",[],,,,,,,,,,,,,,,
harvest_prac,40,220572,0.0-15.0-1.0,"""event"",""trial"",""time""
""fullscreenenter"",""1"",""3761""
","
","
","""event"",""trial"",""time""
""fullscreenenter"",""1"",""3761""
","
",,null,run_exp/static/images/task_images/barrel_text.jpg,null,,,,,,,,,,,,,,,,,,,,,,,,
decision_prac,41,222578,0.0-15.0-2.0,"""event"",""trial"",""time""
""fullscreenenter"",""1"",""3761""
","
","
","""event"",""trial"",""time""
""fullscreenenter"",""1"",""3761""
","
",,2005.4,run_exp/static/images/task_images/land.jpg,65,,,,,,,,,,,,1,,,,,,,,,,,,
quiz_instruc,42,224976,0.0-16.0-0.0,"""event"",""trial"",""time""
""fullscreenenter"",""1"",""3761""
","
","
","""event"",""trial"",""time""
""fullscreenenter"",""1"",""3761""
","
",,2395.9,run_exp/static/audio/clip_10_quiz.m4a,,,,,,,0,,,,,,,,,,,,,,,,,,
instruc_repeat,43,267729,0.0-16.0-1.0,"""event"",""trial"",""time""
""fullscreenenter"",""1"",""3761""
","
","
","""event"",""trial"",""time""
""fullscreenenter"",""1"",""3761""
","
",,null,"<p> Are you ready to play a practice game? </p> <p>In this practice game, you'll be digging up barrels of gems. But, in the real game, you'll be digging up the gems themselves. </p>",null,"<p>In this game, your goal is to collect as many gems as you can. That’s how you will win bonus money. </p> <p>The entire game will last 20 minutes no matter how many gems you collect or how many planets you visit. </p><p>To stay on a planet and dig again, press the letter A on your keyboard. To leave for a new planet, press the letter L.</p><p>The more you dig on a planet, the fewer gems you’ll get with each dig which is why you might consider leaving for a new planet. </p><p>When you arrive at a new planet, you’ll be greeted by an alien. What the alien looks like does not tell you anything about how much treasure is on the planet. </p>",,,,,,,,,,,,,,,,,,,,,,,
instruc_repeat_continue,44,269435,0.0-16.0-2.0,"""event"",""trial"",""time""
""fullscreenenter"",""1"",""3761""
","
","
","""event"",""trial"",""time""
""fullscreenenter"",""1"",""3761""
","
",,1705.2,"<p> Are you ready to play a practice game? </p> <p>In this practice game, you'll be digging up barrels of gems. But, in the real game, you'll be digging up the gems themselves. </p>",,,,,,,0,,,,,,,,,,,,,,,,,,
quiz_q_1_ask,45,273625,0.0-16.0-3.0,"""event"",""trial"",""time""
""fullscreenenter"",""1"",""3761""
","
","
","""event"",""trial"",""time""
""fullscreenenter"",""1"",""3761""
","
",,4188.3,run_exp/static/audio/clip_11_q1_ask.m4a,,,,,,,2,,,,,,,,,,,,,,,,,,
quiz_q_1_fb_correct,46,277456,0.0-17.0-0.0,"""event"",""trial"",""time""
""fullscreenenter"",""1"",""3761""
","
","
","""event"",""trial"",""time""
""fullscreenenter"",""1"",""3761""
","
",,null,run_exp/static/audio/clip_12_q1_correct.m4a,null,<p>That’s correct. You win extra money by collecting more gems.</p>,,,,,,,,,,,,,,,,,,,,,,,
quiz_q_2_ask,47,280850,0.0-17.0-1.0,"""event"",""trial"",""time""
""fullscreenenter"",""1"",""3761""
","
","
","""event"",""trial"",""time""
""fullscreenenter"",""1"",""3761""
","
",,3392.4,run_exp/static/audio/clip_14_q2_ask.m4a,,,,,,,1,,,,,,,,,,,,,,,,,,
quiz_q_2_fb_correct,48,284838,0.0-18.0-0.0,"""event"",""trial"",""time""
""fullscreenenter"",""1"",""3761""
","
","
","""event"",""trial"",""time""
""fullscreenenter"",""1"",""3761""
","
",,null,run_exp/static/audio/clip_15_q2_correct.m4a,null,<p>That’s correct. The experiment is 20 minutes no matter what.</p>,,,,,,,,,,,,,,,,,,,,,,,
quiz_q_3_ask,49,287809,0.0-18.0-1.0,"""event"",""trial"",""time""
""fullscreenenter"",""1"",""3761""
","
","
","""event"",""trial"",""time""
""fullscreenenter"",""1"",""3761""
","
",,2969.7,run_exp/static/audio/clip_17_q3_ask.m4a,,,,,,,1,,,,,,,,,,,,,,,,,,
quiz_q_3_fb_correct,50,291772,0.0-19.0-0.0,"""event"",""trial"",""time""
""fullscreenenter"",""1"",""3761""
","
","
","""event"",""trial"",""time""
""fullscreenenter"",""1"",""3761""
","
",,null,run_exp/static/audio/clip_18_q3_correct.m4a,null,<p> That’s correct. You press the letter L to travel to a new planet.</p>,,,,,,,,,,,,,,,,,,,,,,,
quiz_q_4_ask,51,296566,0.0-19.0-1.0,"""event"",""trial"",""time""
""fullscreenenter"",""1"",""3761""
","
","
","""event"",""trial"",""time""
""fullscreenenter"",""1"",""3761""
","
",,4792.4,run_exp/static/audio/clip_20_q4_ask.m4a,,,,,,,0,,,,,,,,,,,,,,,,,,
quiz_q_4_fb_correct,52,301883,0.0-20.0-0.0,"""event"",""trial"",""time""
""fullscreenenter"",""1"",""3761""
","
","
","""event"",""trial"",""time""
""fullscreenenter"",""1"",""3761""
","
",,null,run_exp/static/audio/clip_21_q4_correct.m4a,null,<p> That’s correct. The more you dig on a planet the fewer gems you’ll get with each dig. </p>,,,,,,,,,,,,,,,,,,,,,,,
quiz_q_5_ask,53,304330,0.0-20.0-1.0,"""event"",""trial"",""time""
""fullscreenenter"",""1"",""3761""
","
","
","""event"",""trial"",""time""
""fullscreenenter"",""1"",""3761""
","
",,2445.2,run_exp/static/audio/clip_23_q5_ask.m4a,,,,,,,1,,,,,,,,,,,,,,,,,,
quiz_q_5_fb_correct,54,309328,0.0-21.0-0.0,"""event"",""trial"",""time""
""fullscreenenter"",""1"",""3761""
","
","
","""event"",""trial"",""time""
""fullscreenenter"",""1"",""3761""
","
",,null,run_exp/static/audio/clip_24_q5_correct.m4a,null,<p> That’s correct. The alien tells you nothing about how much treasure is on the planet.</p>,,,,,,,,,,,,,,,,,,,,,,,
quiz_correct,55,312785,0.0-22.0-0.0,"""event"",""trial"",""time""
""fullscreenenter"",""1"",""3761""
","
","
","""event"",""trial"",""time""
""fullscreenenter"",""1"",""3761""
","
",,null,run_exp/static/audio/clip_26_correct_quiz.m4a,null,,,,,,,,,,,,,,,,,,,,,,,,
quiz_correct_continue,56,314808,0.0-22.0-1.0,"""event"",""trial"",""time""
""fullscreenenter"",""1"",""3761""
","
","
","""event"",""trial"",""time""
""fullscreenenter"",""1"",""3761""
","
",,2022.6,<p>Good job! You're now ready to move on to the real game!</p>,,,,,,,0,,,,,,,,,,,,,,,,,,
audio-keyboard-response,57,324923,0.0-22.0-2.0,"""event"",""trial"",""time""
""fullscreenenter"",""1"",""3761""
","
","
","""event"",""trial"",""time""
""fullscreenenter"",""1"",""3761""
","
",,null,run_exp/static/audio/clip_28_real_game.m4a,null,,,,,,,,,,,,,,,,,,,,,,,,
instruc_begin_exp_contine,58,326525,0.0-22.0-3.0,"""event"",""trial"",""time""
""fullscreenenter"",""1"",""3761""
","
","
","""event"",""trial"",""time""
""fullscreenenter"",""1"",""3761""
","
",,1600.4,"<p>Now that you know how  to dig for space treasure and travel to new planets,you can start exploring! </p><p>Do you want to go over the instructions again or get started with the real game?</p>",,,,,,,1,,,,,,1,,,,,,,,,,,,
alien_welcome,59,331537,0.0-23.0-0.0,"""event"",""trial"",""time""
""fullscreenenter"",""1"",""3761""
","
","
","""event"",""trial"",""time""
""fullscreenenter"",""1"",""3761""
","
",,null,run_exp/static/images/task_images/aliens/old_aliens/planet/alien_planet-31.jpg,null,,,,,,,,,,,,,31,"31,75,15,52,25,77,66,64,16,63,56,46,3,6,43,32,4,44,37,7,19,51,72,22,14,79,57,34,62,1,12,55,45,30,24,8,26,76,73,50,69,60",,,,,,,,,,
land,60,332049,0.0-23.0-1.0,"""event"",""trial"",""time""
""fullscreenenter"",""1"",""3761""
","
","
","""event"",""trial"",""time""
""fullscreenenter"",""1"",""3761""
","
",,null,run_exp/static/images/task_images/land.jpg,null,,,,,,,94,,,1,,,,,,,,,,,,,,
dig,61,334065,0.0-23.0-2.0,"""event"",""trial"",""time""
""fullscreenenter"",""1"",""3761""
","
","
","""event"",""trial"",""time""
""fullscreenenter"",""1"",""3761""
","
",,,,,,,,,,,,"[{""stimulus"":""run_exp/static/images/task_images/dig.jpg"",""time"":0.30000007152557373},{""stimulus"":""run_exp/static/images/task_images/land.jpg"",""time"":677.5},{""stimulus"":""run_exp/static/images/task_images/dig.jpg"",""time"":1342.4000000953674}]",[],1,,,,,,,,,,,,,,
harvest,62,335070,0.0-23.0-3.0,"""event"",""trial"",""time""
""fullscreenenter"",""1"",""3761""
","
","
","""event"",""trial"",""time""
""fullscreenenter"",""1"",""3761""
","
",,null,run_exp/static/images/task_images/gems/94.jpg,null,,,,,,,14,,,1,,,,,94,0.148308957,0.14893617,,,,,,,
decision,63,335670,0.0-23.0-4.0,"""event"",""trial"",""time""
""fullscreenenter"",""1"",""3761""
","
","
","""event"",""trial"",""time""
""fullscreenenter"",""1"",""3761""
","
",,598.4,run_exp/static/images/task_images/land.jpg,65,,,,,,,14,,,1,,,,,,,,9144,1,0,FALSE,,,
dig,64,338075,0.0-24.0-0.0,"""event"",""trial"",""time""
""fullscreenenter"",""1"",""3761""
","
","
","""event"",""trial"",""time""
""fullscreenenter"",""1"",""3761""
","
",,,,,,,,,,,,"[{""stimulus"":""run_exp/static/images/task_images/dig.jpg"",""time"":0.10000002384185791},{""stimulus"":""run_exp/static/images/task_images/land.jpg"",""time"":804},{""stimulus"":""run_exp/static/images/task_images/dig.jpg"",""time"":1609.2000000476837}]",[],1,,,,,,,,,,,,,,
harvest,65,339088,0.0-24.0-1.0,"""event"",""trial"",""time""
""fullscreenenter"",""1"",""3761""
","
","
","""event"",""trial"",""time""
""fullscreenenter"",""1"",""3761""
","
",,null,run_exp/static/images/task_images/gems/14.jpg,null,,,,,,,4,,,1,,,,,14,0.26265417,0.285714286,,,,,,,
decision,66,339590,0.0-24.0-2.0,"""event"",""trial"",""time""
""fullscreenenter"",""1"",""3761""
","
","
","""event"",""trial"",""time""
""fullscreenenter"",""1"",""3761""
","
",,501,run_exp/static/images/task_images/land.jpg,76,,,,,,,4,,,1,,,,,,,,13064,1,1,TRUE,,,
travel,67,349094,0.0-25.0-0.0,"""event"",""trial"",""time""
""fullscreenenter"",""1"",""3761""
","
","
","""event"",""trial"",""time""
""fullscreenenter"",""1"",""3761""
","
",,,,,,,,,,,,"[{""stimulus"":""run_exp/static/images/task_images/rocket-01.jpg"",""time"":0.20000004768371582},{""stimulus"":""run_exp/static/images/task_images/rocket-02.jpg"",""time"":1065.3000000715256},{""stimulus"":""run_exp/static/images/task_images/rocket-03.jpg"",""time"":2126.7000000476837},{""stimulus"":""run_exp/static/images/task_images/rocket-04.jpg"",""time"":3182.3000000715256},{""stimulus"":""run_exp/static/images/task_images/rocket-05.jpg"",""time"":4233.400000095367},{""stimulus"":""run_exp/static/images/task_images/rocket-06.jpg"",""time"":5289.200000047684},{""stimulus"":""run_exp/static/images/task_images/rocket-07.jpg"",""time"":6334.300000071526},{""stimulus"":""run_exp/static/images/task_images/rocket-08.jpg"",""time"":7401.400000095367},{""stimulus"":""run_exp/static/images/task_images/rocket-09.jpg"",""time"":8451.5}]",[],1,,,,,,,,,,,,,,
alien_welcome,68,354108,0.0-25.0-1.0,"""event"",""trial"",""time""
""fullscreenenter"",""1"",""3761""
","
","
","""event"",""trial"",""time""
""fullscreenenter"",""1"",""3761""
","
",,null,run_exp/static/images/task_images/aliens/old_aliens/planet/alien_planet-75.jpg,null,,,,,,,,,,,,,75,"31,75,15,52,25,77,66,64,16,63,56,46,3,6,43,32,4,44,37,7,19,51,72,22,14,79,57,34,62,1,12,55,45,30,24,8,26,76,73,50,69,60",,,,,,,,,,
land,69,354625,0.0-25.0-2.0,"""event"",""trial"",""time""
""fullscreenenter"",""1"",""3761""
","
","
","""event"",""trial"",""time""
""fullscreenenter"",""1"",""3761""
","
",,null,run_exp/static/images/task_images/land.jpg,null,,,,,,,103,,,2,,,,,,,,,,,,,,
dig,70,356635,0.0-25.0-3.0,"""event"",""trial"",""time""
""fullscreenenter"",""1"",""3761""
","
","
","""event"",""trial"",""time""
""fullscreenenter"",""1"",""3761""
","
",,,,,,,,,,,,"[{""stimulus"":""run_exp/static/images/task_images/dig.jpg"",""time"":0.2999999523162842},{""stimulus"":""run_exp/static/images/task_images/land.jpg"",""time"":675.5},{""stimulus"":""run_exp/static/images/task_images/dig.jpg"",""time"":1341.5999999046326}]",[],2,,,,,,,,,,,,,,
harvest,71,357643,0.0-25.0-4.0,"""event"",""trial"",""time""
""fullscreenenter"",""1"",""3761""
","
","
","""event"",""trial"",""time""
""fullscreenenter"",""1"",""3761""
","
",,null,run_exp/static/images/task_images/gems/103.jpg,null,,,,,,,17,,,2,,,,,103,0.165922337,0.165048544,,,,,,,
decision,72,358620,0.0-25.0-5.0,"""event"",""trial"",""time""
""fullscreenenter"",""1"",""3761""
","
","
","""event"",""trial"",""time""
""fullscreenenter"",""1"",""3761""
","
",,975.3000001,run_exp/static/images/task_images/land.jpg,65,,,,,,,17,,,2,,,,,,,,32094,1,0,FALSE,,,
dig,73,360657,0.0-26.0-0.0,"""event"",""trial"",""time""
""fullscreenenter"",""1"",""3761""
","
","
","""event"",""trial"",""time""
""fullscreenenter"",""1"",""3761""
","
",,,,,,,,,,,,"[{""stimulus"":""run_exp/static/images/task_images/dig.jpg"",""time"":0.20000004768371582},{""stimulus"":""run_exp/static/images/task_images/land.jpg"",""time"":686},{""stimulus"":""run_exp/static/images/task_images/dig.jpg"",""time"":1352.5}]",[],2,,,,,,,,,,,,,,
harvest,74,361665,0.0-26.0-1.0,"""event"",""trial"",""time""
""fullscreenenter"",""1"",""3761""
","
","
","""event"",""trial"",""time""
""fullscreenenter"",""1"",""3761""
","
",,null,run_exp/static/images/task_images/gems/17.jpg,null,,,,,,,3,,,2,,,,,17,0.165670454,0.176470588,,,,,,,
decision,75,362117,0.0-26.0-2.0,"""event"",""trial"",""time""
""fullscreenenter"",""1"",""3761""
","
","
","""event"",""trial"",""time""
""fullscreenenter"",""1"",""3761""
","
",,450.7,run_exp/static/images/task_images/land.jpg,76,,,,,,,3,,,2,,,,,,,,35591,1,1,TRUE,,,
travel,76,371670,0.0-27.0-0.0,"""event"",""trial"",""time""
""fullscreenenter"",""1"",""3761""
","
","
","""event"",""trial"",""time""
""fullscreenenter"",""1"",""3761""
","
",,,,,,,,,,,,"[{""stimulus"":""run_exp/static/images/task_images/rocket-01.jpg"",""time"":0.09999990463256836},{""stimulus"":""run_exp/static/images/task_images/rocket-02.jpg"",""time"":1066.5999999046326},{""stimulus"":""run_exp/static/images/task_images/rocket-03.jpg"",""time"":2127.0999999046326},{""stimulus"":""run_exp/static/images/task_images/rocket-04.jpg"",""time"":3199.5},{""stimulus"":""run_exp/static/images/task_images/rocket-05.jpg"",""time"":4261.199999928474},{""stimulus"":""run_exp/static/images/task_images/rocket-06.jpg"",""time"":5306.5},{""stimulus"":""run_exp/static/images/task_images/rocket-07.jpg"",""time"":6378.199999928474},{""stimulus"":""run_exp/static/images/task_images/rocket-08.jpg"",""time"":7434.099999904633},{""stimulus"":""run_exp/static/images/task_images/rocket-09.jpg"",""time"":8496.199999928474}]",[],2,,,,,,,,,,,,,,
alien_welcome,77,376683,0.0-27.0-1.0,"""event"",""trial"",""time""
""fullscreenenter"",""1"",""3761""
","
","
","""event"",""trial"",""time""
""fullscreenenter"",""1"",""3761""
","
",,null,run_exp/static/images/task_images/aliens/old_aliens/planet/alien_planet-15.jpg,null,,,,,,,,,,,,,15,"31,75,15,52,25,77,66,64,16,63,56,46,3,6,43,32,4,44,37,7,19,51,72,22,14,79,57,34,62,1,12,55,45,30,24,8,26,76,73,50,69,60",,,,,,,,,,
land,78,377198,0.0-27.0-2.0,"""event"",""trial"",""time""
""fullscreenenter"",""1"",""3761""
","
","
","""event"",""trial"",""time""
""fullscreenenter"",""1"",""3761""
","
",,null,run_exp/static/images/task_images/land.jpg,null,,,,,,,95,,,3,,,,,,,,,,,,,,
dig,79,379211,0.0-27.0-3.0,"""event"",""trial"",""time""
""fullscreenenter"",""1"",""3761""
","
","
","""event"",""trial"",""time""
""fullscreenenter"",""1"",""3761""
","
",,,,,,,,,,,,"[{""stimulus"":""run_exp/static/images/task_images/dig.jpg"",""time"":0.3999999761581421},{""stimulus"":""run_exp/static/images/task_images/land.jpg"",""time"":674.3000000715256},{""stimulus"":""run_exp/static/images/task_images/dig.jpg"",""time"":1345.6000000238419}]",[],3,,,,,,,,,,,,,,
harvest,80,380219,0.0-27.0-4.0,"""event"",""trial"",""time""
""fullscreenenter"",""1"",""3761""
","
","
","""event"",""trial"",""time""
""fullscreenenter"",""1"",""3761""
","
",,null,run_exp/static/images/task_images/gems/95.jpg,null,,,,,,,46,,,3,,,,,95,0.47950514,0.484210526,,,,,,,
decision,81,380547,0.0-27.0-5.0,"""event"",""trial"",""time""
""fullscreenenter"",""1"",""3761""
","
","
","""event"",""trial"",""time""
""fullscreenenter"",""1"",""3761""
","
",,325.9,run_exp/static/images/task_images/land.jpg,65,,,,,,,46,,,3,,,,,,,,54021,1,0,FALSE,,,
dig,82,383238,0.0-28.0-0.0,"""event"",""trial"",""time""
""fullscreenenter"",""1"",""3761""
","
","
","""event"",""trial"",""time""
""fullscreenenter"",""1"",""3761""
","
",,,,,,,,,,,,"[{""stimulus"":""run_exp/static/images/task_images/dig.jpg"",""time"":0.19999992847442627},{""stimulus"":""run_exp/static/images/task_images/land.jpg"",""time"":903},{""stimulus"":""run_exp/static/images/task_images/dig.jpg"",""time"":1788.2999999523163}]",[],3,,,,,,,,,,,,,,
harvest,83,384256,0.0-28.0-1.0,"""event"",""trial"",""time""
""fullscreenenter"",""1"",""3761""
","
","
","""event"",""trial"",""time""
""fullscreenenter"",""1"",""3761""
","
",,null,run_exp/static/images/task_images/gems/46.jpg,null,,,,,,,23,,,3,,,,,46,0.499007702,0.5,,,,,,,
decision,84,384893,0.0-28.0-2.0,"""event"",""trial"",""time""
""fullscreenenter"",""1"",""3761""
","
","
","""event"",""trial"",""time""
""fullscreenenter"",""1"",""3761""
","
",,635.4,run_exp/static/images/task_images/land.jpg,65,,,,,,,23,,,3,,,,,,,,58367,1,1,FALSE,,,
dig,85,387265,0.0-29.0-0.0,"""event"",""trial"",""time""
""fullscreenenter"",""1"",""3761""
","
","
","""event"",""trial"",""time""
""fullscreenenter"",""1"",""3761""
","
",,,,,,,,,,,,"[{""stimulus"":""run_exp/static/images/task_images/dig.jpg"",""time"":0.20000004768371582},{""stimulus"":""run_exp/static/images/task_images/land.jpg"",""time"":802.3999999761581},{""stimulus"":""run_exp/static/images/task_images/dig.jpg"",""time"":1591.3999999761581}]",[],3,,,,,,,,,,,,,,
harvest,86,388278,0.0-29.0-1.0,"""event"",""trial"",""time""
""fullscreenenter"",""1"",""3761""
","
","
","""event"",""trial"",""time""
""fullscreenenter"",""1"",""3761""
","
",,null,run_exp/static/images/task_images/gems/23.jpg,null,,,,,,,9,,,3,,,,,23,0.407457673,0.391304348,,,,,,,
decision,87,388746,0.0-29.0-2.0,"""event"",""trial"",""time""
""fullscreenenter"",""1"",""3761""
","
","
","""event"",""trial"",""time""
""fullscreenenter"",""1"",""3761""
","
",,466.9,run_exp/static/images/task_images/land.jpg,65,,,,,,,9,,,3,,,,,,,,62220,1,2,FALSE,,,
dig,88,391286,0.0-30.0-0.0,"""event"",""trial"",""time""
""fullscreenenter"",""1"",""3761""
","
","
","""event"",""trial"",""time""
""fullscreenenter"",""1"",""3761""
","
",,,,,,,,,,,,"[{""stimulus"":""run_exp/static/images/task_images/dig.jpg"",""time"":0.10000002384185791},{""stimulus"":""run_exp/static/images/task_images/land.jpg"",""time"":853},{""stimulus"":""run_exp/static/images/task_images/dig.jpg"",""time"":1700.7000000476837}]",[],3,,,,,,,,,,,,,,
harvest,89,392299,0.0-30.0-1.0,"""event"",""trial"",""time""
""fullscreenenter"",""1"",""3761""
","
","
","""event"",""trial"",""time""
""fullscreenenter"",""1"",""3761""
","
",,null,run_exp/static/images/task_images/gems/9.jpg,null,,,,,,,4,,,3,,,,,9,0.460624886,0.444444444,,,,,,,
decision,90,392759,0.0-30.0-2.0,"""event"",""trial"",""time""
""fullscreenenter"",""1"",""3761""
","
","
","""event"",""trial"",""time""
""fullscreenenter"",""1"",""3761""
","
",,458.5,run_exp/static/images/task_images/land.jpg,76,,,,,,,4,,,3,,,,,,,,66233,1,3,TRUE,,,
travel,91,402305,0.0-31.0-0.0,"""event"",""trial"",""time""
""fullscreenenter"",""1"",""3761""
","
","
","""event"",""trial"",""time""
""fullscreenenter"",""1"",""3761""
","
",,,,,,,,,,,,"[{""stimulus"":""run_exp/static/images/task_images/rocket-01.jpg"",""time"":0.10000002384185791},{""stimulus"":""run_exp/static/images/task_images/rocket-02.jpg"",""time"":1074.6000000238419},{""stimulus"":""run_exp/static/images/task_images/rocket-03.jpg"",""time"":2135.7999999523163},{""stimulus"":""run_exp/static/images/task_images/rocket-04.jpg"",""time"":3181.5},{""stimulus"":""run_exp/static/images/task_images/rocket-05.jpg"",""time"":4253.399999976158},{""stimulus"":""run_exp/static/images/task_images/rocket-06.jpg"",""time"":5304},{""stimulus"":""run_exp/static/images/task_images/rocket-07.jpg"",""time"":6370.399999976158},{""stimulus"":""run_exp/static/images/task_images/rocket-08.jpg"",""time"":7421.700000047684},{""stimulus"":""run_exp/static/images/task_images/rocket-09.jpg"",""time"":8493.200000047684}]",[],3,,,,,,,,,,,,,,
alien_welcome,92,407313,0.0-31.0-1.0,"""event"",""trial"",""time""
""fullscreenenter"",""1"",""3761""
","
","
","""event"",""trial"",""time""
""fullscreenenter"",""1"",""3761""
","
",,null,run_exp/static/images/task_images/aliens/old_aliens/planet/alien_planet-52.jpg,null,,,,,,,,,,,,,52,"31,75,15,52,25,77,66,64,16,63,56,46,3,6,43,32,4,44,37,7,19,51,72,22,14,79,57,34,62,1,12,55,45,30,24,8,26,76,73,50,69,60",,,,,,,,,,
land,93,407818,0.0-31.0-2.0,"""event"",""trial"",""time""
""fullscreenenter"",""1"",""3761""
","
","
","""event"",""trial"",""time""
""fullscreenenter"",""1"",""3761""
","
",,null,run_exp/static/images/task_images/land.jpg,null,,,,,,,99,,,4,,,,,,,,,,,,,,
dig,94,409830,0.0-31.0-3.0,"""event"",""trial"",""time""
""fullscreenenter"",""1"",""3761""
","
","
","""event"",""trial"",""time""
""fullscreenenter"",""1"",""3761""
","
",,,,,,,,,,,,"[{""stimulus"":""run_exp/static/images/task_images/dig.jpg"",""time"":0.2999999523162842},{""stimulus"":""run_exp/static/images/task_images/land.jpg"",""time"":673},{""stimulus"":""run_exp/static/images/task_images/dig.jpg"",""time"":1339}]",[],4,,,,,,,,,,,,,,
harvest,95,410833,0.0-31.0-4.0,"""event"",""trial"",""time""
""fullscreenenter"",""1"",""3761""
","
","
","""event"",""trial"",""time""
""fullscreenenter"",""1"",""3761""
","
",,null,run_exp/static/images/task_images/gems/99.jpg,null,,,,,,,47,,,4,,,,,99,0.473466206,0.474747475,,,,,,,
decision,96,411234,0.0-31.0-5.0,"""event"",""trial"",""time""
""fullscreenenter"",""1"",""3761""
","
","
","""event"",""trial"",""time""
""fullscreenenter"",""1"",""3761""
","
",,399.8,run_exp/static/images/task_images/land.jpg,65,,,,,,,47,,,4,,,,,,,,84708,1,0,FALSE,,,
dig,97,413840,0.0-32.0-0.0,"""event"",""trial"",""time""
""fullscreenenter"",""1"",""3761""
","
","
","""event"",""trial"",""time""
""fullscreenenter"",""1"",""3761""
","
",,,,,,,,,,,,"[{""stimulus"":""run_exp/static/images/task_images/dig.jpg"",""time"":0.10000002384185791},{""stimulus"":""run_exp/static/images/task_images/land.jpg"",""time"":882.2000000476837},{""stimulus"":""run_exp/static/images/task_images/dig.jpg"",""time"":1736.3999999761581}]",[],4,,,,,,,,,,,,,,
harvest,98,414857,0.0-32.0-1.0,"""event"",""trial"",""time""
""fullscreenenter"",""1"",""3761""
","
","
","""event"",""trial"",""time""
""fullscreenenter"",""1"",""3761""
","
",,null,run_exp/static/images/task_images/gems/47.jpg,null,,,,,,,25,,,4,,,,,47,0.538907011,0.531914894,,,,,,,
decision,99,415270,0.0-32.0-2.0,"""event"",""trial"",""time""
""fullscreenenter"",""1"",""3761""
","
","
","""event"",""trial"",""time""
""fullscreenenter"",""1"",""3761""
","
",,411.3000001,run_exp/static/images/task_images/land.jpg,65,,,,,,,25,,,4,,,,,,,,88744,1,1,FALSE,,,
dig,100,417862,0.0-33.0-0.0,"""event"",""trial"",""time""
""fullscreenenter"",""1"",""3761""
","
","
","""event"",""trial"",""time""
""fullscreenenter"",""1"",""3761""
","
",,,,,,,,,,,,"[{""stimulus"":""run_exp/static/images/task_images/dig.jpg"",""time"":0.10000002384185791},{""stimulus"":""run_exp/static/images/task_images/land.jpg"",""time"":868.6000000238419},{""stimulus"":""run_exp/static/images/task_images/dig.jpg"",""time"":1726.7000000476837}]",[],4,,,,,,,,,,,,,,
harvest,101,418875,0.0-33.0-1.0,"""event"",""trial"",""time""
""fullscreenenter"",""1"",""3761""
","
","
","""event"",""trial"",""time""
""fullscreenenter"",""1"",""3761""
","
",,null,run_exp/static/images/task_images/gems/25.jpg,null,,,,,,,12,,,4,,,,,25,0.463183902,0.48,,,,,,,
decision,102,419503,0.0-33.0-2.0,"""event"",""trial"",""time""
""fullscreenenter"",""1"",""3761""
","
","
","""event"",""trial"",""time""
""fullscreenenter"",""1"",""3761""
","
",,626.6,run_exp/static/images/task_images/land.jpg,65,,,,,,,12,,,4,,,,,,,,92977,1,2,FALSE,,,
dig,103,421889,0.0-34.0-0.0,"""event"",""trial"",""time""
""fullscreenenter"",""1"",""3761""
","
","
","""event"",""trial"",""time""
""fullscreenenter"",""1"",""3761""
","
",,,,,,,,,,,,"[{""stimulus"":""run_exp/static/images/task_images/dig.jpg"",""time"":0.10000002384185791},{""stimulus"":""run_exp/static/images/task_images/land.jpg"",""time"":805.3999999761581},{""stimulus"":""run_exp/static/images/task_images/dig.jpg"",""time"":1583.7000000476837}]",[],4,,,,,,,,,,,,,,
harvest,104,422896,0.0-34.0-1.0,"""event"",""trial"",""time""
""fullscreenenter"",""1"",""3761""
","
","
","""event"",""trial"",""time""
""fullscreenenter"",""1"",""3761""
","
",,null,run_exp/static/images/task_images/gems/12.jpg,null,,,,,,,6,,,4,,,,,12,0.5058302,0.5,,,,,,,
decision,105,423321,0.0-34.0-2.0,"""event"",""trial"",""time""
""fullscreenenter"",""1"",""3761""
","
","
","""event"",""trial"",""time""
""fullscreenenter"",""1"",""3761""
","
",,423.6,run_exp/static/images/task_images/land.jpg,76,,,,,,,6,,,4,,,,,,,,96795,1,3,TRUE,,,
travel,106,432907,0.0-35.0-0.0,"""event"",""trial"",""time""
""fullscreenenter"",""1"",""3761""
","
","
","""event"",""trial"",""time""
""fullscreenenter"",""1"",""3761""
","
",,,,,,,,,,,,"[{""stimulus"":""run_exp/static/images/task_images/rocket-01.jpg"",""time"":0.19999992847442627},{""stimulus"":""run_exp/static/images/task_images/rocket-02.jpg"",""time"":1072.6999999284744},{""stimulus"":""run_exp/static/images/task_images/rocket-03.jpg"",""time"":2139.5},{""stimulus"":""run_exp/static/images/task_images/rocket-04.jpg"",""time"":3200.600000023842},{""stimulus"":""run_exp/static/images/task_images/rocket-05.jpg"",""time"":4272.799999952316},{""stimulus"":""run_exp/static/images/task_images/rocket-06.jpg"",""time"":5325},{""stimulus"":""run_exp/static/images/task_images/rocket-07.jpg"",""time"":6395.100000023842},{""stimulus"":""run_exp/static/images/task_images/rocket-08.jpg"",""time"":7461.399999976158},{""stimulus"":""run_exp/static/images/task_images/rocket-09.jpg"",""time"":8529.100000023842}]",[],4,,,,,,,,,,,,,,
alien_welcome,107,437915,0.0-35.0-1.0,"""event"",""trial"",""time""
""fullscreenenter"",""1"",""3761""
","
","
","""event"",""trial"",""time""
""fullscreenenter"",""1"",""3761""
","
",,null,run_exp/static/images/task_images/aliens/old_aliens/planet/alien_planet-25.jpg,null,,,,,,,,,,,,,25,"31,75,15,52,25,77,66,64,16,63,56,46,3,6,43,32,4,44,37,7,19,51,72,22,14,79,57,34,62,1,12,55,45,30,24,8,26,76,73,50,69,60",,,,,,,,,,
land,108,438433,0.0-35.0-2.0,"""event"",""trial"",""time""
""fullscreenenter"",""1"",""3761""
","
","
","""event"",""trial"",""time""
""fullscreenenter"",""1"",""3761""
","
",,null,run_exp/static/images/task_images/land.jpg,null,,,,,,,103,,,5,,,,,,,,,,,,,,
dig,109,440443,0.0-35.0-3.0,"""event"",""trial"",""time""
""fullscreenenter"",""1"",""3761""
","
","
","""event"",""trial"",""time""
""fullscreenenter"",""1"",""3761""
","
",,,,,,,,,,,,"[{""stimulus"":""run_exp/static/images/task_images/dig.jpg"",""time"":0.30000007152557373},{""stimulus"":""run_exp/static/images/task_images/land.jpg"",""time"":675.9000000953674},{""stimulus"":""run_exp/static/images/task_images/dig.jpg"",""time"":1342.8000000715256}]",[],5,,,,,,,,,,,,,,
harvest,110,441446,0.0-35.0-4.0,"""event"",""trial"",""time""
""fullscreenenter"",""1"",""3761""
","
","
","""event"",""trial"",""time""
""fullscreenenter"",""1"",""3761""
","
",,null,run_exp/static/images/task_images/gems/103.jpg,null,,,,,,,63,,,5,,,,,103,0.614637147,0.611650485,,,,,,,
decision,111,441856,0.0-35.0-5.0,"""event"",""trial"",""time""
""fullscreenenter"",""1"",""3761""
","
","
","""event"",""trial"",""time""
""fullscreenenter"",""1"",""3761""
","
",,408.5999999,run_exp/static/images/task_images/land.jpg,65,,,,,,,63,,,5,,,,,,,,115330,1,0,FALSE,,,
dig,112,444459,0.0-36.0-0.0,"""event"",""trial"",""time""
""fullscreenenter"",""1"",""3761""
","
","
","""event"",""trial"",""time""
""fullscreenenter"",""1"",""3761""
","
",,,,,,,,,,,,"[{""stimulus"":""run_exp/static/images/task_images/dig.jpg"",""time"":0.09999990463256836},{""stimulus"":""run_exp/static/images/task_images/land.jpg"",""time"":878.3999999761581},{""stimulus"":""run_exp/static/images/task_images/dig.jpg"",""time"":1732.0999999046326}]",[],5,,,,,,,,,,,,,,
harvest,113,445473,0.0-36.0-1.0,"""event"",""trial"",""time""
""fullscreenenter"",""1"",""3761""
","
","
","""event"",""trial"",""time""
""fullscreenenter"",""1"",""3761""
","
",,null,run_exp/static/images/task_images/gems/63.jpg,null,,,,,,,30,,,5,,,,,63,0.47592849,0.476190476,,,,,,,
decision,114,446049,0.0-36.0-2.0,"""event"",""trial"",""time""
""fullscreenenter"",""1"",""3761""
","
","
","""event"",""trial"",""time""
""fullscreenenter"",""1"",""3761""
","
",,575.0999999,run_exp/static/images/task_images/land.jpg,65,,,,,,,30,,,5,,,,,,,,119523,1,1,FALSE,,,
dig,115,448481,0.0-37.0-0.0,"""event"",""trial"",""time""
""fullscreenenter"",""1"",""3761""
","
","
","""event"",""trial"",""time""
""fullscreenenter"",""1"",""3761""
","
",,,,,,,,,,,,"[{""stimulus"":""run_exp/static/images/task_images/dig.jpg"",""time"":0.09999990463256836},{""stimulus"":""run_exp/static/images/task_images/land.jpg"",""time"":819.3999999761581},{""stimulus"":""run_exp/static/images/task_images/dig.jpg"",""time"":1633.5}]",[],5,,,,,,,,,,,,,,
harvest,116,449495,0.0-37.0-1.0,"""event"",""trial"",""time""
""fullscreenenter"",""1"",""3761""
","
","
","""event"",""trial"",""time""
""fullscreenenter"",""1"",""3761""
","
",,null,run_exp/static/images/task_images/gems/30.jpg,null,,,,,,,15,,,5,,,,,30,0.516575912,0.5,,,,,,,
decision,117,450189,0.0-37.0-2.0,"""event"",""trial"",""time""
""fullscreenenter"",""1"",""3761""
","
","
","""event"",""trial"",""time""
""fullscreenenter"",""1"",""3761""
","
",,693.4000001,run_exp/static/images/task_images/land.jpg,76,,,,,,,15,,,5,,,,,,,,123663,1,2,TRUE,,,
travel,118,459499,0.0-38.0-0.0,"""event"",""trial"",""time""
""fullscreenenter"",""1"",""3761""
","
","
","""event"",""trial"",""time""
""fullscreenenter"",""1"",""3761""
","
",,,,,,,,,,,,"[{""stimulus"":""run_exp/static/images/task_images/rocket-01.jpg"",""time"":0.10000002384185791},{""stimulus"":""run_exp/static/images/task_images/rocket-02.jpg"",""time"":1036.7000000476837},{""stimulus"":""run_exp/static/images/task_images/rocket-03.jpg"",""time"":2082.4000000953674},{""stimulus"":""run_exp/static/images/task_images/rocket-04.jpg"",""time"":3116.5},{""stimulus"":""run_exp/static/images/task_images/rocket-05.jpg"",""time"":4151.400000095367},{""stimulus"":""run_exp/static/images/task_images/rocket-06.jpg"",""time"":5171.200000047684},{""stimulus"":""run_exp/static/images/task_images/rocket-07.jpg"",""time"":6220.600000023842},{""stimulus"":""run_exp/static/images/task_images/rocket-08.jpg"",""time"":7239.5},{""stimulus"":""run_exp/static/images/task_images/rocket-09.jpg"",""time"":8274.300000071526}]",[],5,,,,,,,,,,,,,,
alien_welcome,119,464508,0.0-38.0-1.0,"""event"",""trial"",""time""
""fullscreenenter"",""1"",""3761""
","
","
","""event"",""trial"",""time""
""fullscreenenter"",""1"",""3761""
","
",,null,run_exp/static/images/task_images/aliens/old_aliens/planet/alien_planet-77.jpg,null,,,,,,,,,,,,,77,"31,75,15,52,25,77,66,64,16,63,56,46,3,6,43,32,4,44,37,7,19,51,72,22,14,79,57,34,62,1,12,55,45,30,24,8,26,76,73,50,69,60",,,,,,,,,,
land,120,465013,0.0-38.0-2.0,"""event"",""trial"",""time""
""fullscreenenter"",""1"",""3761""
","
","
","""event"",""trial"",""time""
""fullscreenenter"",""1"",""3761""
","
",,null,run_exp/static/images/task_images/land.jpg,null,,,,,,,92,,,6,,,,,,,,,,,,,,
dig,121,467025,0.0-38.0-3.0,"""event"",""trial"",""time""
""fullscreenenter"",""1"",""3761""
","
","
","""event"",""trial"",""time""
""fullscreenenter"",""1"",""3761""
","
",,,,,,,,,,,,"[{""stimulus"":""run_exp/static/images/task_images/dig.jpg"",""time"":0.20000004768371582},{""stimulus"":""run_exp/static/images/task_images/land.jpg"",""time"":673.6000000238419},{""stimulus"":""run_exp/static/images/task_images/dig.jpg"",""time"":1335.3999999761581}]",[],6,,,,,,,,,,,,,,
harvest,122,468033,0.0-38.0-4.0,"""event"",""trial"",""time""
""fullscreenenter"",""1"",""3761""
","
","
","""event"",""trial"",""time""
""fullscreenenter"",""1"",""3761""
","
",,null,run_exp/static/images/task_images/gems/92.jpg,null,,,,,,,73,,,6,,,,,92,0.79812834,0.793478261,,,,,,,
decision,123,468459,0.0-38.0-5.0,"""event"",""trial"",""time""
""fullscreenenter"",""1"",""3761""
","
","
","""event"",""trial"",""time""
""fullscreenenter"",""1"",""3761""
","
",,424.8,run_exp/static/images/task_images/land.jpg,65,,,,,,,73,,,6,,,,,,,,141933,1,0,FALSE,,,
dig,124,471041,0.0-39.0-0.0,"""event"",""trial"",""time""
""fullscreenenter"",""1"",""3761""
","
","
","""event"",""trial"",""time""
""fullscreenenter"",""1"",""3761""
","
",,,,,,,,,,,,"[{""stimulus"":""run_exp/static/images/task_images/dig.jpg"",""time"":0.20000004768371582},{""stimulus"":""run_exp/static/images/task_images/land.jpg"",""time"":873.8000000715256},{""stimulus"":""run_exp/static/images/task_images/dig.jpg"",""time"":1727}]",[],6,,,,,,,,,,,,,,
harvest,125,472055,0.0-39.0-1.0,"""event"",""trial"",""time""
""fullscreenenter"",""1"",""3761""
","
","
","""event"",""trial"",""time""
""fullscreenenter"",""1"",""3761""
","
",,null,run_exp/static/images/task_images/gems/73.jpg,null,,,,,,,62,,,6,,,,,73,0.849737253,0.849315068,,,,,,,
decision,126,472960,0.0-39.0-2.0,"""event"",""trial"",""time""
""fullscreenenter"",""1"",""3761""
","
","
","""event"",""trial"",""time""
""fullscreenenter"",""1"",""3761""
","
",,904.3000001,run_exp/static/images/task_images/land.jpg,65,,,,,,,62,,,6,,,,,,,,146434,1,1,FALSE,,,
dig,127,475068,0.0-40.0-0.0,"""event"",""trial"",""time""
""fullscreenenter"",""1"",""3761""
","
","
","""event"",""trial"",""time""
""fullscreenenter"",""1"",""3761""
","
",,,,,,,,,,,,"[{""stimulus"":""run_exp/static/images/task_images/dig.jpg"",""time"":0},{""stimulus"":""run_exp/static/images/task_images/land.jpg"",""time"":703},{""stimulus"":""run_exp/static/images/task_images/dig.jpg"",""time"":1412}]",[],6,,,,,,,,,,,,,,
harvest,128,476076,0.0-40.0-1.0,"""event"",""trial"",""time""
""fullscreenenter"",""1"",""3761""
","
","
","""event"",""trial"",""time""
""fullscreenenter"",""1"",""3761""
","
",,null,run_exp/static/images/task_images/gems/62.jpg,null,,,,,,,49,,,6,,,,,62,0.790147366,0.790322581,,,,,,,
decision,129,476721,0.0-40.0-2.0,"""event"",""trial"",""time""
""fullscreenenter"",""1"",""3761""
","
","
","""event"",""trial"",""time""
""fullscreenenter"",""1"",""3761""
","
",,644.1999999,run_exp/static/images/task_images/land.jpg,65,,,,,,,49,,,6,,,,,,,,150195,1,2,FALSE,,,
dig,130,479083,0.0-41.0-0.0,"""event"",""trial"",""time""
""fullscreenenter"",""1"",""3761""
","
","
","""event"",""trial"",""time""
""fullscreenenter"",""1"",""3761""
","
",,,,,,,,,,,,"[{""stimulus"":""run_exp/static/images/task_images/dig.jpg"",""time"":0.10000002384185791},{""stimulus"":""run_exp/static/images/task_images/land.jpg"",""time"":799.8000000715256},{""stimulus"":""run_exp/static/images/task_images/dig.jpg"",""time"":1576.5}]",[],6,,,,,,,,,,,,,,
harvest,131,480097,0.0-41.0-1.0,"""event"",""trial"",""time""
""fullscreenenter"",""1"",""3761""
","
","
","""event"",""trial"",""time""
""fullscreenenter"",""1"",""3761""
","
",,null,run_exp/static/images/task_images/gems/49.jpg,null,,,,,,,41,,,6,,,,,49,0.83568207,0.836734694,,,,,,,
decision,132,480743,0.0-41.0-2.0,"""event"",""trial"",""time""
""fullscreenenter"",""1"",""3761""
","
","
","""event"",""trial"",""time""
""fullscreenenter"",""1"",""3761""
","
",,644.8000001,run_exp/static/images/task_images/land.jpg,65,,,,,,,41,,,6,,,,,,,,154217,1,3,FALSE,,,
dig,133,483105,0.0-42.0-0.0,"""event"",""trial"",""time""
""fullscreenenter"",""1"",""3761""
","
","
","""event"",""trial"",""time""
""fullscreenenter"",""1"",""3761""
","
",,,,,,,,,,,,"[{""stimulus"":""run_exp/static/images/task_images/dig.jpg"",""time"":0.20000004768371582},{""stimulus"":""run_exp/static/images/task_images/land.jpg"",""time"":788.2000000476837},{""stimulus"":""run_exp/static/images/task_images/dig.jpg"",""time"":1579.2000000476837}]",[],6,,,,,,,,,,,,,,
harvest,134,484118,0.0-42.0-1.0,"""event"",""trial"",""time""
""fullscreenenter"",""1"",""3761""
","
","
","""event"",""trial"",""time""
""fullscreenenter"",""1"",""3761""
","
",,null,run_exp/static/images/task_images/gems/41.jpg,null,,,,,,,32,,,6,,,,,41,0.78986241,0.780487805,,,,,,,
decision,135,485065,0.0-42.0-2.0,"""event"",""trial"",""time""
""fullscreenenter"",""1"",""3761""
","
","
","""event"",""trial"",""time""
""fullscreenenter"",""1"",""3761""
","
",,946,run_exp/static/images/task_images/land.jpg,65,,,,,,,32,,,6,,,,,,,,158540,1,4,FALSE,,,
dig,136,487132,0.0-43.0-0.0,"""event"",""trial"",""time""
""fullscreenenter"",""1"",""3761""
","
","
","""event"",""trial"",""time""
""fullscreenenter"",""1"",""3761""
","
",,,,,,,,,,,,"[{""stimulus"":""run_exp/static/images/task_images/dig.jpg"",""time"":0.10000002384185791},{""stimulus"":""run_exp/static/images/task_images/land.jpg"",""time"":699.5},{""stimulus"":""run_exp/static/images/task_images/dig.jpg"",""time"":1370.1000000238419}]",[],6,,,,,,,,,,,,,,
harvest,137,488140,0.0-43.0-1.0,"""event"",""trial"",""time""
""fullscreenenter"",""1"",""3761""
","
","
","""event"",""trial"",""time""
""fullscreenenter"",""1"",""3761""
","
",,null,run_exp/static/images/task_images/gems/32.jpg,null,,,,,,,22,,,6,,,,,32,0.672070554,0.6875,,,,,,,
decision,138,488975,0.0-43.0-2.0,"""event"",""trial"",""time""
""fullscreenenter"",""1"",""3761""
","
","
","""event"",""trial"",""time""
""fullscreenenter"",""1"",""3761""
","
",,834.6,run_exp/static/images/task_images/land.jpg,65,,,,,,,22,,,6,,,,,,,,162450,1,5,FALSE,,,
dig,139,491148,0.0-44.0-0.0,"""event"",""trial"",""time""
""fullscreenenter"",""1"",""3761""
","
","
","""event"",""trial"",""time""
""fullscreenenter"",""1"",""3761""
","
",,,,,,,,,,,,"[{""stimulus"":""run_exp/static/images/task_images/dig.jpg"",""time"":0.10000002384185791},{""stimulus"":""run_exp/static/images/task_images/land.jpg"",""time"":723.7000000476837},{""stimulus"":""run_exp/static/images/task_images/dig.jpg"",""time"":1445.2000000476837}]",[],6,,,,,,,,,,,,,,
harvest,140,492156,0.0-44.0-1.0,"""event"",""trial"",""time""
""fullscreenenter"",""1"",""3761""
","
","
","""event"",""trial"",""time""
""fullscreenenter"",""1"",""3761""
","
",,null,run_exp/static/images/task_images/gems/22.jpg,null,,,,,,,17,,,6,,,,,22,0.754579701,0.772727273,,,,,,,
decision,141,493092,0.0-44.0-2.0,"""event"",""trial"",""time""
""fullscreenenter"",""1"",""3761""
","
","
","""event"",""trial"",""time""
""fullscreenenter"",""1"",""3761""
","
",,934.9,run_exp/static/images/task_images/land.jpg,76,,,,,,,17,,,6,,,,,,,,166566,1,6,TRUE,,,
travel,142,502166,0.0-45.0-0.0,"""event"",""trial"",""time""
""fullscreenenter"",""1"",""3761""
","
","
","""event"",""trial"",""time""
""fullscreenenter"",""1"",""3761""
","
",,,,,,,,,,,,"[{""stimulus"":""run_exp/static/images/task_images/rocket-01.jpg"",""time"":0.09999990463256836},{""stimulus"":""run_exp/static/images/task_images/rocket-02.jpg"",""time"":1020.2999999523163},{""stimulus"":""run_exp/static/images/task_images/rocket-03.jpg"",""time"":2017},{""stimulus"":""run_exp/static/images/task_images/rocket-04.jpg"",""time"":3035.7999999523163},{""stimulus"":""run_exp/static/images/task_images/rocket-05.jpg"",""time"":4032.899999976158},{""stimulus"":""run_exp/static/images/task_images/rocket-06.jpg"",""time"":5051.899999976158},{""stimulus"":""run_exp/static/images/task_images/rocket-07.jpg"",""time"":6054.599999904633},{""stimulus"":""run_exp/static/images/task_images/rocket-08.jpg"",""time"":7051.599999904633},{""stimulus"":""run_exp/static/images/task_images/rocket-09.jpg"",""time"":8070.599999904633}]",[],6,,,,,,,,,,,,,,
alien_welcome,143,507169,0.0-45.0-1.0,"""event"",""trial"",""time""
""fullscreenenter"",""1"",""3761""
","
","
","""event"",""trial"",""time""
""fullscreenenter"",""1"",""3761""
","
",,null,run_exp/static/images/task_images/aliens/old_aliens/planet/alien_planet-66.jpg,null,,,,,,,,,,,,,66,"31,75,15,52,25,77,66,64,16,63,56,46,3,6,43,32,4,44,37,7,19,51,72,22,14,79,57,34,62,1,12,55,45,30,24,8,26,76,73,50,69,60",,,,,,,,,,
land,144,507676,0.0-45.0-2.0,"""event"",""trial"",""time""
""fullscreenenter"",""1"",""3761""
","
","
","""event"",""trial"",""time""
""fullscreenenter"",""1"",""3761""
","
",,null,run_exp/static/images/task_images/land.jpg,null,,,,,,,105,,,7,,,,,,,,,,,,,,
dig,145,509686,0.0-45.0-3.0,"""event"",""trial"",""time""
""fullscreenenter"",""1"",""3761""
","
","
","""event"",""trial"",""time""
""fullscreenenter"",""1"",""3761""
","
",,,,,,,,,,,,"[{""stimulus"":""run_exp/static/images/task_images/dig.jpg"",""time"":0.3999999761581421},{""stimulus"":""run_exp/static/images/task_images/land.jpg"",""time"":676.2999999523163},{""stimulus"":""run_exp/static/images/task_images/dig.jpg"",""time"":1343.1000000238419}]",[],7,,,,,,,,,,,,,,
harvest,146,510694,0.0-45.0-4.0,"""event"",""trial"",""time""
""fullscreenenter"",""1"",""3761""
","
","
","""event"",""trial"",""time""
""fullscreenenter"",""1"",""3761""
","
",,null,run_exp/static/images/task_images/gems/105.jpg,null,,,,,,,90,,,7,,,,,105,0.858055675,0.857142857,,,,,,,
decision,147,511208,0.0-45.0-5.0,"""event"",""trial"",""time""
""fullscreenenter"",""1"",""3761""
","
","
","""event"",""trial"",""time""
""fullscreenenter"",""1"",""3761""
","
",,513.1,run_exp/static/images/task_images/land.jpg,65,,,,,,,90,,,7,,,,,,,,184682,1,0,FALSE,,,
dig,148,513701,0.0-46.0-0.0,"""event"",""trial"",""time""
""fullscreenenter"",""1"",""3761""
","
","
","""event"",""trial"",""time""
""fullscreenenter"",""1"",""3761""
","
",,,,,,,,,,,,"[{""stimulus"":""run_exp/static/images/task_images/dig.jpg"",""time"":0.10000002384185791},{""stimulus"":""run_exp/static/images/task_images/land.jpg"",""time"":839.1000000238419},{""stimulus"":""run_exp/static/images/task_images/dig.jpg"",""time"":1662.6000000238419}]",[],7,,,,,,,,,,,,,,
harvest,149,514718,0.0-46.0-1.0,"""event"",""trial"",""time""
""fullscreenenter"",""1"",""3761""
","
","
","""event"",""trial"",""time""
""fullscreenenter"",""1"",""3761""
","
",,null,run_exp/static/images/task_images/gems/90.jpg,null,,,,,,,69,,,7,,,,,90,0.771146501,0.766666667,,,,,,,
decision,150,515178,0.0-46.0-2.0,"""event"",""trial"",""time""
""fullscreenenter"",""1"",""3761""
","
","
","""event"",""trial"",""time""
""fullscreenenter"",""1"",""3761""
","
",,459,run_exp/static/images/task_images/land.jpg,65,,,,,,,69,,,7,,,,,,,,188652,1,1,FALSE,,,
dig,151,517726,0.0-47.0-0.0,"""event"",""trial"",""time""
""fullscreenenter"",""1"",""3761""
","
","
","""event"",""trial"",""time""
""fullscreenenter"",""1"",""3761""
","
",,,,,,,,,,,,"[{""stimulus"":""run_exp/static/images/task_images/dig.jpg"",""time"":0},{""stimulus"":""run_exp/static/images/task_images/land.jpg"",""time"":861.0999999046326},{""stimulus"":""run_exp/static/images/task_images/dig.jpg"",""time"":1698.8999999761581}]",[],7,,,,,,,,,,,,,,
harvest,152,518739,0.0-47.0-1.0,"""event"",""trial"",""time""
""fullscreenenter"",""1"",""3761""
","
","
","""event"",""trial"",""time""
""fullscreenenter"",""1"",""3761""
","
",,null,run_exp/static/images/task_images/gems/69.jpg,null,,,,,,,58,,,7,,,,,69,0.84671666,0.84057971,,,,,,,
decision,153,518985,0.0-47.0-2.0,"""event"",""trial"",""time""
""fullscreenenter"",""1"",""3761""
","
","
","""event"",""trial"",""time""
""fullscreenenter"",""1"",""3761""
","
",,244.3000001,run_exp/static/images/task_images/land.jpg,65,,,,,,,58,,,7,,,,,,,,192459,1,2,FALSE,,,
dig,154,521758,0.0-48.0-0.0,"""event"",""trial"",""time""
""fullscreenenter"",""1"",""3761""
","
","
","""event"",""trial"",""time""
""fullscreenenter"",""1"",""3761""
","
",,,,,,,,,,,,"[{""stimulus"":""run_exp/static/images/task_images/dig.jpg"",""time"":0.10000002384185791},{""stimulus"":""run_exp/static/images/task_images/land.jpg"",""time"":925.7000000476837},{""stimulus"":""run_exp/static/images/task_images/dig.jpg"",""time"":1853.6000000238419}]",[],7,,,,,,,,,,,,,,
harvest,155,522776,0.0-48.0-1.0,"""event"",""trial"",""time""
""fullscreenenter"",""1"",""3761""
","
","
","""event"",""trial"",""time""
""fullscreenenter"",""1"",""3761""
","
",,null,run_exp/static/images/task_images/gems/58.jpg,null,,,,,,,47,,,7,,,,,58,0.816274105,0.810344828,,,,,,,
decision,156,523151,0.0-48.0-2.0,"""event"",""trial"",""time""
""fullscreenenter"",""1"",""3761""
","
","
","""event"",""trial"",""time""
""fullscreenenter"",""1"",""3761""
","
",,374.7,run_exp/static/images/task_images/land.jpg,65,,,,,,,47,,,7,,,,,,,,196625,1,3,FALSE,,,
dig,157,525785,0.0-49.0-0.0,"""event"",""trial"",""time""
""fullscreenenter"",""1"",""3761""
","
","
","""event"",""trial"",""time""
""fullscreenenter"",""1"",""3761""
","
",,,,,,,,,,,,"[{""stimulus"":""run_exp/static/images/task_images/dig.jpg"",""time"":0},{""stimulus"":""run_exp/static/images/task_images/land.jpg"",""time"":887.7000000476837},{""stimulus"":""run_exp/static/images/task_images/dig.jpg"",""time"":1762.2000000476837}]",[],7,,,,,,,,,,,,,,
harvest,158,526793,0.0-49.0-1.0,"""event"",""trial"",""time""
""fullscreenenter"",""1"",""3761""
","
","
","""event"",""trial"",""time""
""fullscreenenter"",""1"",""3761""
","
",,null,run_exp/static/images/task_images/gems/47.jpg,null,,,,,,,39,,,7,,,,,47,0.828864025,0.829787234,,,,,,,
decision,159,527100,0.0-49.0-2.0,"""event"",""trial"",""time""
""fullscreenenter"",""1"",""3761""
","
","
","""event"",""trial"",""time""
""fullscreenenter"",""1"",""3761""
","
",,306,run_exp/static/images/task_images/land.jpg,65,,,,,,,39,,,7,,,,,,,,200574,1,4,FALSE,,,
dig,160,529801,0.0-50.0-0.0,"""event"",""trial"",""time""
""fullscreenenter"",""1"",""3761""
","
","
","""event"",""trial"",""time""
""fullscreenenter"",""1"",""3761""
","
",,,,,,,,,,,,"[{""stimulus"":""run_exp/static/images/task_images/dig.jpg"",""time"":0.10000002384185791},{""stimulus"":""run_exp/static/images/task_images/land.jpg"",""time"":901.6000000238419},{""stimulus"":""run_exp/static/images/task_images/dig.jpg"",""time"":1798}]",[],7,,,,,,,,,,,,,,
harvest,161,530803,0.0-50.0-1.0,"""event"",""trial"",""time""
""fullscreenenter"",""1"",""3761""
","
","
","""event"",""trial"",""time""
""fullscreenenter"",""1"",""3761""
","
",,null,run_exp/static/images/task_images/gems/39.jpg,null,,,,,,,30,,,7,,,,,39,0.776174992,0.769230769,,,,,,,
decision,162,531631,0.0-50.0-2.0,"""event"",""trial"",""time""
""fullscreenenter"",""1"",""3761""
","
","
","""event"",""trial"",""time""
""fullscreenenter"",""1"",""3761""
","
",,826.5,run_exp/static/images/task_images/land.jpg,65,,,,,,,30,,,7,,,,,,,,205105,1,5,FALSE,,,
dig,163,533816,0.0-51.0-0.0,"""event"",""trial"",""time""
""fullscreenenter"",""1"",""3761""
","
","
","""event"",""trial"",""time""
""fullscreenenter"",""1"",""3761""
","
",,,,,,,,,,,,"[{""stimulus"":""run_exp/static/images/task_images/dig.jpg"",""time"":0.10000002384185791},{""stimulus"":""run_exp/static/images/task_images/land.jpg"",""time"":728.3000000715256},{""stimulus"":""run_exp/static/images/task_images/dig.jpg"",""time"":1456.8000000715256}]",[],7,,,,,,,,,,,,,,
harvest,164,534819,0.0-51.0-1.0,"""event"",""trial"",""time""
""fullscreenenter"",""1"",""3761""
","
","
","""event"",""trial"",""time""
""fullscreenenter"",""1"",""3761""
","
",,null,run_exp/static/images/task_images/gems/30.jpg,null,,,,,,,28,,,7,,,,,30,0.932606949,0.933333333,,,,,,,
decision,165,535076,0.0-51.0-2.0,"""event"",""trial"",""time""
""fullscreenenter"",""1"",""3761""
","
","
","""event"",""trial"",""time""
""fullscreenenter"",""1"",""3761""
","
",,256,run_exp/static/images/task_images/land.jpg,76,,,,,,,28,,,7,,,,,,,,208551,1,6,TRUE,,,
travel,166,544825,0.0-52.0-0.0,"""event"",""trial"",""time""
""fullscreenenter"",""1"",""3761""
","
","
","""event"",""trial"",""time""
""fullscreenenter"",""1"",""3761""
","
",,,,,,,,,,,,"[{""stimulus"":""run_exp/static/images/task_images/rocket-01.jpg"",""time"":0.10000002384185791},{""stimulus"":""run_exp/static/images/task_images/rocket-02.jpg"",""time"":1096.2000000476837},{""stimulus"":""run_exp/static/images/task_images/rocket-03.jpg"",""time"":2173.7000000476837},{""stimulus"":""run_exp/static/images/task_images/rocket-04.jpg"",""time"":3261.399999976158},{""stimulus"":""run_exp/static/images/task_images/rocket-05.jpg"",""time"":4344},{""stimulus"":""run_exp/static/images/task_images/rocket-06.jpg"",""time"":5415.899999976158},{""stimulus"":""run_exp/static/images/task_images/rocket-07.jpg"",""time"":6498.799999952316},{""stimulus"":""run_exp/static/images/task_images/rocket-08.jpg"",""time"":7581.600000023842},{""stimulus"":""run_exp/static/images/task_images/rocket-09.jpg"",""time"":8669.5}]",[],7,,,,,,,,,,,,,,
alien_welcome,167,549827,0.0-52.0-1.0,"""event"",""trial"",""time""
""fullscreenenter"",""1"",""3761""
","
","
","""event"",""trial"",""time""
""fullscreenenter"",""1"",""3761""
","
",,null,run_exp/static/images/task_images/aliens/old_aliens/planet/alien_planet-64.jpg,null,,,,,,,,,,,,,64,"31,75,15,52,25,77,66,64,16,63,56,46,3,6,43,32,4,44,37,7,19,51,72,22,14,79,57,34,62,1,12,55,45,30,24,8,26,76,73,50,69,60",,,,,,,,,,
land,168,550343,0.0-52.0-2.0,"""event"",""trial"",""time""
""fullscreenenter"",""1"",""3761""
","
","
","""event"",""trial"",""time""
""fullscreenenter"",""1"",""3761""
","
",,null,run_exp/static/images/task_images/land.jpg,null,,,,,,,99,,,8,,,,,,,,,,,,,,
dig,169,552355,0.0-52.0-3.0,"""event"",""trial"",""time""
""fullscreenenter"",""1"",""3761""
","
","
","""event"",""trial"",""time""
""fullscreenenter"",""1"",""3761""
","
",,,,,,,,,,,,"[{""stimulus"":""run_exp/static/images/task_images/dig.jpg"",""time"":0.2999999523162842},{""stimulus"":""run_exp/static/images/task_images/land.jpg"",""time"":677.8999999761581},{""stimulus"":""run_exp/static/images/task_images/dig.jpg"",""time"":1344.6999999284744}]",[],8,,,,,,,,,,,,,,
harvest,170,553358,0.0-52.0-4.0,"""event"",""trial"",""time""
""fullscreenenter"",""1"",""3761""
","
","
","""event"",""trial"",""time""
""fullscreenenter"",""1"",""3761""
","
",,null,run_exp/static/images/task_images/gems/99.jpg,null,,,,,,,77,,,8,,,,,99,0.779252152,0.777777778,,,,,,,
decision,171,553750,0.0-52.0-5.0,"""event"",""trial"",""time""
""fullscreenenter"",""1"",""3761""
","
","
","""event"",""trial"",""time""
""fullscreenenter"",""1"",""3761""
","
",,389.9000001,run_exp/static/images/task_images/land.jpg,65,,,,,,,77,,,8,,,,,,,,227224,1,0,FALSE,,,
dig,172,556366,0.0-53.0-0.0,"""event"",""trial"",""time""
""fullscreenenter"",""1"",""3761""
","
","
","""event"",""trial"",""time""
""fullscreenenter"",""1"",""3761""
","
",,,,,,,,,,,,"[{""stimulus"":""run_exp/static/images/task_images/dig.jpg"",""time"":0.20000004768371582},{""stimulus"":""run_exp/static/images/task_images/land.jpg"",""time"":880.8000000715256},{""stimulus"":""run_exp/static/images/task_images/dig.jpg"",""time"":1750.4000000953674}]",[],8,,,,,,,,,,,,,,
harvest,173,557368,0.0-53.0-1.0,"""event"",""trial"",""time""
""fullscreenenter"",""1"",""3761""
","
","
","""event"",""trial"",""time""
""fullscreenenter"",""1"",""3761""
","
",,null,run_exp/static/images/task_images/gems/77.jpg,null,,,,,,,63,,,8,,,,,77,0.812755166,0.818181818,,,,,,,
decision,174,558740,0.0-53.0-2.0,"""event"",""trial"",""time""
""fullscreenenter"",""1"",""3761""
","
","
","""event"",""trial"",""time""
""fullscreenenter"",""1"",""3761""
","
",,1370.7,run_exp/static/images/task_images/land.jpg,65,,,,,,,63,,,8,,,,,,,,232214,1,1,FALSE,,,
dig,175,560377,0.0-54.0-0.0,"""event"",""trial"",""time""
""fullscreenenter"",""1"",""3761""
","
","
","""event"",""trial"",""time""
""fullscreenenter"",""1"",""3761""
","
",,,,,,,,,,,,"[{""stimulus"":""run_exp/static/images/task_images/dig.jpg"",""time"":0.19999992847442627},{""stimulus"":""run_exp/static/images/task_images/land.jpg"",""time"":557},{""stimulus"":""run_exp/static/images/task_images/dig.jpg"",""time"":1090.5}]",[],8,,,,,,,,,,,,,,
harvest,176,561384,0.0-54.0-1.0,"""event"",""trial"",""time""
""fullscreenenter"",""1"",""3761""
","
","
","""event"",""trial"",""time""
""fullscreenenter"",""1"",""3761""
","
",,null,run_exp/static/images/task_images/gems/63.jpg,null,,,,,,,54,,,8,,,,,63,0.850245303,0.857142857,,,,,,,
decision,177,561784,0.0-54.0-2.0,"""event"",""trial"",""time""
""fullscreenenter"",""1"",""3761""
","
","
","""event"",""trial"",""time""
""fullscreenenter"",""1"",""3761""
","
",,397.9,run_exp/static/images/task_images/land.jpg,65,,,,,,,54,,,8,,,,,,,,235258,1,2,FALSE,,,
dig,178,564393,0.0-55.0-0.0,"""event"",""trial"",""time""
""fullscreenenter"",""1"",""3761""
","
","
","""event"",""trial"",""time""
""fullscreenenter"",""1"",""3761""
","
",,,,,,,,,,,,"[{""stimulus"":""run_exp/static/images/task_images/dig.jpg"",""time"":0},{""stimulus"":""run_exp/static/images/task_images/land.jpg"",""time"":871.6999999284744},{""stimulus"":""run_exp/static/images/task_images/dig.jpg"",""time"":1738}]",[],8,,,,,,,,,,,,,,
harvest,179,565406,0.0-55.0-1.0,"""event"",""trial"",""time""
""fullscreenenter"",""1"",""3761""
","
","
","""event"",""trial"",""time""
""fullscreenenter"",""1"",""3761""
","
",,null,run_exp/static/images/task_images/gems/54.jpg,null,,,,,,,38,,,8,,,,,54,0.70627444,0.703703704,,,,,,,
decision,180,565865,0.0-55.0-2.0,"""event"",""trial"",""time""
""fullscreenenter"",""1"",""3761""
","
","
","""event"",""trial"",""time""
""fullscreenenter"",""1"",""3761""
","
",,458.4,run_exp/static/images/task_images/land.jpg,65,,,,,,,38,,,8,,,,,,,,239339,1,3,FALSE,,,
dig,181,568414,0.0-56.0-0.0,"""event"",""trial"",""time""
""fullscreenenter"",""1"",""3761""
","
","
","""event"",""trial"",""time""
""fullscreenenter"",""1"",""3761""
","
",,,,,,,,,,,,"[{""stimulus"":""run_exp/static/images/task_images/dig.jpg"",""time"":0.20000004768371582},{""stimulus"":""run_exp/static/images/task_images/land.jpg"",""time"":861.9000000953674},{""stimulus"":""run_exp/static/images/task_images/dig.jpg"",""time"":1699.5}]",[],8,,,,,,,,,,,,,,
harvest,182,569427,0.0-56.0-1.0,"""event"",""trial"",""time""
""fullscreenenter"",""1"",""3761""
","
","
","""event"",""trial"",""time""
""fullscreenenter"",""1"",""3761""
","
",,null,run_exp/static/images/task_images/gems/38.jpg,null,,,,,,,32,,,8,,,,,38,0.836240892,0.842105263,,,,,,,
decision,183,570070,0.0-56.0-2.0,"""event"",""trial"",""time""
""fullscreenenter"",""1"",""3761""
","
","
","""event"",""trial"",""time""
""fullscreenenter"",""1"",""3761""
","
",,641.9,run_exp/static/images/task_images/land.jpg,65,,,,,,,32,,,8,,,,,,,,243544,1,4,FALSE,,,
dig,184,572440,0.0-57.0-0.0,"""event"",""trial"",""time""
""fullscreenenter"",""1"",""3761""
","
","
","""event"",""trial"",""time""
""fullscreenenter"",""1"",""3761""
","
",,,,,,,,,,,,"[{""stimulus"":""run_exp/static/images/task_images/dig.jpg"",""time"":0.20000004768371582},{""stimulus"":""run_exp/static/images/task_images/land.jpg"",""time"":790},{""stimulus"":""run_exp/static/images/task_images/dig.jpg"",""time"":1584}]",[],8,,,,,,,,,,,,,,
harvest,185,573449,0.0-57.0-1.0,"""event"",""trial"",""time""
""fullscreenenter"",""1"",""3761""
","
","
","""event"",""trial"",""time""
""fullscreenenter"",""1"",""3761""
","
",,null,run_exp/static/images/task_images/gems/32.jpg,null,,,,,,,27,,,8,,,,,32,0.843008645,0.84375,,,,,,,
decision,186,573469,0.0-57.0-2.0,"""event"",""trial"",""time""
""fullscreenenter"",""1"",""3761""
","
","
","""event"",""trial"",""time""
""fullscreenenter"",""1"",""3761""
","
",,19.39999998,run_exp/static/images/task_images/land.jpg,65,,,,,,,27,,,8,,,,,,,,246943,1,5,FALSE,,,
dig,187,576459,0.0-58.0-0.0,"""event"",""trial"",""time""
""fullscreenenter"",""1"",""3761""
","
","
","""event"",""trial"",""time""
""fullscreenenter"",""1"",""3761""
","
",,,,,,,,,,,,"[{""stimulus"":""run_exp/static/images/task_images/dig.jpg"",""time"":0.19999992847442627},{""stimulus"":""run_exp/static/images/task_images/land.jpg"",""time"":1006.7999999523163},{""stimulus"":""run_exp/static/images/task_images/dig.jpg"",""time"":1987.7999999523163}]",[],8,,,,,,,,,,,,,,
harvest,188,577462,0.0-58.0-1.0,"""event"",""trial"",""time""
""fullscreenenter"",""1"",""3761""
","
","
","""event"",""trial"",""time""
""fullscreenenter"",""1"",""3761""
","
",,null,run_exp/static/images/task_images/gems/27.jpg,null,,,,,,,21,,,8,,,,,27,0.791057917,0.777777778,,,,,,,
decision,189,579117,0.0-58.0-2.0,"""event"",""trial"",""time""
""fullscreenenter"",""1"",""3761""
","
","
","""event"",""trial"",""time""
""fullscreenenter"",""1"",""3761""
","
",,1654.1,run_exp/static/images/task_images/land.jpg,76,,,,,,,21,,,8,,,,,,,,252591,1,6,TRUE,,,
travel,190,587472,0.0-59.0-0.0,"""event"",""trial"",""time""
""fullscreenenter"",""1"",""3761""
","
","
","""event"",""trial"",""time""
""fullscreenenter"",""1"",""3761""
","
",,,,,,,,,,,,"[{""stimulus"":""run_exp/static/images/task_images/rocket-01.jpg"",""time"":0.10000002384185791},{""stimulus"":""run_exp/static/images/task_images/rocket-02.jpg"",""time"":934.7999999523163},{""stimulus"":""run_exp/static/images/task_images/rocket-03.jpg"",""time"":1862.3999999761581},{""stimulus"":""run_exp/static/images/task_images/rocket-04.jpg"",""time"":2795.899999976158},{""stimulus"":""run_exp/static/images/task_images/rocket-05.jpg"",""time"":3713.1999999284744},{""stimulus"":""run_exp/static/images/task_images/rocket-06.jpg"",""time"":4646.100000023842},{""stimulus"":""run_exp/static/images/task_images/rocket-07.jpg"",""time"":5574.399999976158},{""stimulus"":""run_exp/static/images/task_images/rocket-08.jpg"",""time"":6501.699999928474},{""stimulus"":""run_exp/static/images/task_images/rocket-09.jpg"",""time"":7420}]",[],8,,,,,,,,,,,,,,
alien_welcome,191,592486,0.0-59.0-1.0,"""event"",""trial"",""time""
""fullscreenenter"",""1"",""3761""
","
","
","""event"",""trial"",""time""
""fullscreenenter"",""1"",""3761""
","
",,null,run_exp/static/images/task_images/aliens/old_aliens/planet/alien_planet-16.jpg,null,,,,,,,,,,,,,16,"31,75,15,52,25,77,66,64,16,63,56,46,3,6,43,32,4,44,37,7,19,51,72,22,14,79,57,34,62,1,12,55,45,30,24,8,26,76,73,50,69,60",,,,,,,,,,
land,192,592998,0.0-59.0-2.0,"""event"",""trial"",""time""
""fullscreenenter"",""1"",""3761""
","
","
","""event"",""trial"",""time""
""fullscreenenter"",""1"",""3761""
","
",,null,run_exp/static/images/task_images/land.jpg,null,,,,,,,95,,,9,,,,,,,,,,,,,,
dig,193,595008,0.0-59.0-3.0,"""event"",""trial"",""time""
""fullscreenenter"",""1"",""3761""
","
","
","""event"",""trial"",""time""
""fullscreenenter"",""1"",""3761""
","
",,,,,,,,,,,,"[{""stimulus"":""run_exp/static/images/task_images/dig.jpg"",""time"":0.2999999523162842},{""stimulus"":""run_exp/static/images/task_images/land.jpg"",""time"":676.1999999284744},{""stimulus"":""run_exp/static/images/task_images/dig.jpg"",""time"":1342.5999999046326}]",[],9,,,,,,,,,,,,,,
harvest,194,596011,0.0-59.0-4.0,"""event"",""trial"",""time""
""fullscreenenter"",""1"",""3761""
","
","
","""event"",""trial"",""time""
""fullscreenenter"",""1"",""3761""
","
",,null,run_exp/static/images/task_images/gems/95.jpg,null,,,,,,,25,,,9,,,,,95,0.267625908,0.263157895,,,,,,,
decision,195,596383,0.0-59.0-5.0,"""event"",""trial"",""time""
""fullscreenenter"",""1"",""3761""
","
","
","""event"",""trial"",""time""
""fullscreenenter"",""1"",""3761""
","
",,370.5,run_exp/static/images/task_images/land.jpg,65,,,,,,,25,,,9,,,,,,,,269857,1,0,FALSE,,,
dig,196,599024,0.0-60.0-0.0,"""event"",""trial"",""time""
""fullscreenenter"",""1"",""3761""
","
","
","""event"",""trial"",""time""
""fullscreenenter"",""1"",""3761""
","
",,,,,,,,,,,,"[{""stimulus"":""run_exp/static/images/task_images/dig.jpg"",""time"":0.09999990463256836},{""stimulus"":""run_exp/static/images/task_images/land.jpg"",""time"":885.2999999523163},{""stimulus"":""run_exp/static/images/task_images/dig.jpg"",""time"":1754.8999999761581}]",[],9,,,,,,,,,,,,,,
harvest,197,600032,0.0-60.0-1.0,"""event"",""trial"",""time""
""fullscreenenter"",""1"",""3761""
","
","
","""event"",""trial"",""time""
""fullscreenenter"",""1"",""3761""
","
",,null,run_exp/static/images/task_images/gems/25.jpg,null,,,,,,,8,,,9,,,,,25,0.328118799,0.32,,,,,,,
decision,198,600506,0.0-60.0-2.0,"""event"",""trial"",""time""
""fullscreenenter"",""1"",""3761""
","
","
","""event"",""trial"",""time""
""fullscreenenter"",""1"",""3761""
","
",,472.6,run_exp/static/images/task_images/land.jpg,76,,,,,,,8,,,9,,,,,,,,273980,1,1,TRUE,,,
travel,199,610040,0.0-61.0-0.0,"""event"",""trial"",""time""
""fullscreenenter"",""1"",""3761""
","
","
","""event"",""trial"",""time""
""fullscreenenter"",""1"",""3761""
","
",,,,,,,,,,,,"[{""stimulus"":""run_exp/static/images/task_images/rocket-01.jpg"",""time"":0.19999992847442627},{""stimulus"":""run_exp/static/images/task_images/rocket-02.jpg"",""time"":1063.5},{""stimulus"":""run_exp/static/images/task_images/rocket-03.jpg"",""time"":2126.1999999284744},{""stimulus"":""run_exp/static/images/task_images/rocket-04.jpg"",""time"":3182},{""stimulus"":""run_exp/static/images/task_images/rocket-05.jpg"",""time"":4243.399999976158},{""stimulus"":""run_exp/static/images/task_images/rocket-06.jpg"",""time"":5304.799999952316},{""stimulus"":""run_exp/static/images/task_images/rocket-07.jpg"",""time"":6360.699999928474},{""stimulus"":""run_exp/static/images/task_images/rocket-08.jpg"",""time"":7416.899999976158},{""stimulus"":""run_exp/static/images/task_images/rocket-09.jpg"",""time"":8477.899999976158}]",[],9,,,,,,,,,,,,,,
alien_welcome,200,615051,0.0-61.0-1.0,"""event"",""trial"",""time""
""fullscreenenter"",""1"",""3761""
","
","
","""event"",""trial"",""time""
""fullscreenenter"",""1"",""3761""
","
",,null,run_exp/static/images/task_images/aliens/old_aliens/planet/alien_planet-63.jpg,null,,,,,,,,,,,,,63,"31,75,15,52,25,77,66,64,16,63,56,46,3,6,43,32,4,44,37,7,19,51,72,22,14,79,57,34,62,1,12,55,45,30,24,8,26,76,73,50,69,60",,,,,,,,,,
land,201,615568,0.0-61.0-2.0,"""event"",""trial"",""time""
""fullscreenenter"",""1"",""3761""
","
","
","""event"",""trial"",""time""
""fullscreenenter"",""1"",""3761""
","
",,null,run_exp/static/images/task_images/land.jpg,null,,,,,,,97,,,10,,,,,,,,,,,,,,
dig,202,617584,0.0-61.0-3.0,"""event"",""trial"",""time""
""fullscreenenter"",""1"",""3761""
","
","
","""event"",""trial"",""time""
""fullscreenenter"",""1"",""3761""
","
",,,,,,,,,,,,"[{""stimulus"":""run_exp/static/images/task_images/dig.jpg"",""time"":0.30000007152557373},{""stimulus"":""run_exp/static/images/task_images/land.jpg"",""time"":676},{""stimulus"":""run_exp/static/images/task_images/dig.jpg"",""time"":1348.1000000238419}]",[],10,,,,,,,,,,,,,,
harvest,203,618592,0.0-61.0-4.0,"""event"",""trial"",""time""
""fullscreenenter"",""1"",""3761""
","
","
","""event"",""trial"",""time""
""fullscreenenter"",""1"",""3761""
","
",,null,run_exp/static/images/task_images/gems/97.jpg,null,,,,,,,20,,,10,,,,,97,0.201566758,0.206185567,,,,,,,
decision,204,619329,0.0-61.0-5.0,"""event"",""trial"",""time""
""fullscreenenter"",""1"",""3761""
","
","
","""event"",""trial"",""time""
""fullscreenenter"",""1"",""3761""
","
",,735,run_exp/static/images/task_images/land.jpg,65,,,,,,,20,,,10,,,,,,,,292803,1,0,FALSE,,,
dig,205,621601,0.0-62.0-0.0,"""event"",""trial"",""time""
""fullscreenenter"",""1"",""3761""
","
","
","""event"",""trial"",""time""
""fullscreenenter"",""1"",""3761""
","
",,,,,,,,,,,,"[{""stimulus"":""run_exp/static/images/task_images/dig.jpg"",""time"":0.09999990463256836},{""stimulus"":""run_exp/static/images/task_images/land.jpg"",""time"":760.3999999761581},{""stimulus"":""run_exp/static/images/task_images/dig.jpg"",""time"":1523.1999999284744}]",[],10,,,,,,,,,,,,,,
harvest,206,622613,0.0-62.0-1.0,"""event"",""trial"",""time""
""fullscreenenter"",""1"",""3761""
","
","
","""event"",""trial"",""time""
""fullscreenenter"",""1"",""3761""
","
",,null,run_exp/static/images/task_images/gems/20.jpg,null,,,,,,,4,,,10,,,,,20,0.192436883,0.2,,,,,,,
decision,207,622952,0.0-62.0-2.0,"""event"",""trial"",""time""
""fullscreenenter"",""1"",""3761""
","
","
","""event"",""trial"",""time""
""fullscreenenter"",""1"",""3761""
","
",,337.4,run_exp/static/images/task_images/land.jpg,76,,,,,,,4,,,10,,,,,,,,296426,1,1,TRUE,,,
travel,208,632619,0.0-63.0-0.0,"""event"",""trial"",""time""
""fullscreenenter"",""1"",""3761""
","
","
","""event"",""trial"",""time""
""fullscreenenter"",""1"",""3761""
","
",,,,,,,,,,,,"[{""stimulus"":""run_exp/static/images/task_images/rocket-01.jpg"",""time"":0.20000004768371582},{""stimulus"":""run_exp/static/images/task_images/rocket-02.jpg"",""time"":1078.7999999523163},{""stimulus"":""run_exp/static/images/task_images/rocket-03.jpg"",""time"":2155.899999976158},{""stimulus"":""run_exp/static/images/task_images/rocket-04.jpg"",""time"":3233.399999976158},{""stimulus"":""run_exp/static/images/task_images/rocket-05.jpg"",""time"":4305.399999976158},{""stimulus"":""run_exp/static/images/task_images/rocket-06.jpg"",""time"":5372},{""stimulus"":""run_exp/static/images/task_images/rocket-07.jpg"",""time"":6449.600000023842},{""stimulus"":""run_exp/static/images/task_images/rocket-08.jpg"",""time"":7526.399999976158},{""stimulus"":""run_exp/static/images/task_images/rocket-09.jpg"",""time"":8593}]",[],10,,,,,,,,,,,,,,
alien_welcome,209,637635,0.0-63.0-1.0,"""event"",""trial"",""time""
""fullscreenenter"",""1"",""3761""
","
","
","""event"",""trial"",""time""
""fullscreenenter"",""1"",""3761""
","
",,null,run_exp/static/images/task_images/aliens/old_aliens/planet/alien_planet-56.jpg,null,,,,,,,,,,,,,56,"31,75,15,52,25,77,66,64,16,63,56,46,3,6,43,32,4,44,37,7,19,51,72,22,14,79,57,34,62,1,12,55,45,30,24,8,26,76,73,50,69,60",,,,,,,,,,
land,210,638152,0.0-63.0-2.0,"""event"",""trial"",""time""
""fullscreenenter"",""1"",""3761""
","
","
","""event"",""trial"",""time""
""fullscreenenter"",""1"",""3761""
","
",,null,run_exp/static/images/task_images/land.jpg,null,,,,,,,94,,,11,,,,,,,,,,,,,,
dig,211,640162,0.0-63.0-3.0,"""event"",""trial"",""time""
""fullscreenenter"",""1"",""3761""
","
","
","""event"",""trial"",""time""
""fullscreenenter"",""1"",""3761""
","
",,,,,,,,,,,,"[{""stimulus"":""run_exp/static/images/task_images/dig.jpg"",""time"":0.2999999523162842},{""stimulus"":""run_exp/static/images/task_images/land.jpg"",""time"":676.6000000238419},{""stimulus"":""run_exp/static/images/task_images/dig.jpg"",""time"":1339.6000000238419}]",[],11,,,,,,,,,,,,,,
harvest,212,641170,0.0-63.0-4.0,"""event"",""trial"",""time""
""fullscreenenter"",""1"",""3761""
","
","
","""event"",""trial"",""time""
""fullscreenenter"",""1"",""3761""
","
",,null,run_exp/static/images/task_images/gems/94.jpg,null,,,,,,,28,,,11,,,,,94,0.297861654,0.29787234,,,,,,,
decision,213,641307,0.0-63.0-5.0,"""event"",""trial"",""time""
""fullscreenenter"",""1"",""3761""
","
","
","""event"",""trial"",""time""
""fullscreenenter"",""1"",""3761""
","
",,136.3000001,run_exp/static/images/task_images/land.jpg,65,,,,,,,28,,,11,,,,,,,,314782,1,0,TRUE,,,
end_of_block_continue,214,650286,0.0-64.0-0.0,"""event"",""trial"",""time""
""fullscreenenter"",""1"",""3761""
","
","
","""event"",""trial"",""time""
""fullscreenenter"",""1"",""3761""
","
",,null,run_exp/static/audio/clip_32_block_end.m4a,,,,,,,null,,,,,,,,,,,,,,,,,,
alien_welcome,215,655304,0.0-65.0-0.0,"""event"",""trial"",""time""
""fullscreenenter"",""1"",""3761""
","
","
","""event"",""trial"",""time""
""fullscreenenter"",""1"",""3761""
","
",,null,run_exp/static/images/task_images/aliens/old_aliens/planet/alien_planet-46.jpg,null,,,,,,,,,,,,,46,"31,75,15,52,25,77,66,64,16,63,56,46,3,6,43,32,4,44,37,7,19,51,72,22,14,79,57,34,62,1,12,55,45,30,24,8,26,76,73,50,69,60",,,,,,,,,,
land,216,655805,0.0-65.0-1.0,"""event"",""trial"",""time""
""fullscreenenter"",""1"",""3761""
","
","
","""event"",""trial"",""time""
""fullscreenenter"",""1"",""3761""
","
",,null,run_exp/static/images/task_images/land.jpg,null,,,,,,,98,,,12,,,,,,,,,,,,,,
dig,217,657822,0.0-65.0-2.0,"""event"",""trial"",""time""
""fullscreenenter"",""1"",""3761""
","
","
","""event"",""trial"",""time""
""fullscreenenter"",""1"",""3761""
","
",,,,,,,,,,,,"[{""stimulus"":""run_exp/static/images/task_images/dig.jpg"",""time"":0.19999992847442627},{""stimulus"":""run_exp/static/images/task_images/land.jpg"",""time"":675.6999999284744},{""stimulus"":""run_exp/static/images/task_images/dig.jpg"",""time"":1342.7999999523163}]",[],12,,,,,,,,,,,,,,
harvest,218,658830,0.0-65.0-3.0,"""event"",""trial"",""time""
""fullscreenenter"",""1"",""3761""
","
","
","""event"",""trial"",""time""
""fullscreenenter"",""1"",""3761""
","
",,null,run_exp/static/images/task_images/gems/98.jpg,null,,,,,,,22,,,12,,,,,98,0.229213901,0.224489796,,,,,,,
decision,219,659119,0.0-65.0-4.0,"""event"",""trial"",""time""
""fullscreenenter"",""1"",""3761""
","
","
","""event"",""trial"",""time""
""fullscreenenter"",""1"",""3761""
","
",,288.5,run_exp/static/images/task_images/land.jpg,65,,,,,,,22,,,12,,,,,,,,8831,2,0,FALSE,,,
dig,220,661832,0.0-66.0-0.0,"""event"",""trial"",""time""
""fullscreenenter"",""1"",""3761""
","
","
","""event"",""trial"",""time""
""fullscreenenter"",""1"",""3761""
","
",,,,,,,,,,,,"[{""stimulus"":""run_exp/static/images/task_images/dig.jpg"",""time"":0.10000002384185791},{""stimulus"":""run_exp/static/images/task_images/land.jpg"",""time"":907.7999999523163},{""stimulus"":""run_exp/static/images/task_images/dig.jpg"",""time"":1809.2999999523163}]",[],12,,,,,,,,,,,,,,
harvest,221,662845,0.0-66.0-1.0,"""event"",""trial"",""time""
""fullscreenenter"",""1"",""3761""
","
","
","""event"",""trial"",""time""
""fullscreenenter"",""1"",""3761""
","
",,null,run_exp/static/images/task_images/gems/22.jpg,null,,,,,,,5,,,12,,,,,22,0.207785137,0.227272727,,,,,,,
decision,222,663179,0.0-66.0-2.0,"""event"",""trial"",""time""
""fullscreenenter"",""1"",""3761""
","
","
","""event"",""trial"",""time""
""fullscreenenter"",""1"",""3761""
","
",,332.1,run_exp/static/images/task_images/land.jpg,76,,,,,,,5,,,12,,,,,,,,12890,2,1,TRUE,,,
travel,223,672856,0.0-67.0-0.0,"""event"",""trial"",""time""
""fullscreenenter"",""1"",""3761""
","
","
","""event"",""trial"",""time""
""fullscreenenter"",""1"",""3761""
","
",,,,,,,,,,,,"[{""stimulus"":""run_exp/static/images/task_images/rocket-01.jpg"",""time"":0.10000002384185791},{""stimulus"":""run_exp/static/images/task_images/rocket-02.jpg"",""time"":1083.3999999761581},{""stimulus"":""run_exp/static/images/task_images/rocket-03.jpg"",""time"":2160.2000000476837},{""stimulus"":""run_exp/static/images/task_images/rocket-04.jpg"",""time"":3227},{""stimulus"":""run_exp/static/images/task_images/rocket-05.jpg"",""time"":4299.100000023842},{""stimulus"":""run_exp/static/images/task_images/rocket-06.jpg"",""time"":5383.5},{""stimulus"":""run_exp/static/images/task_images/rocket-07.jpg"",""time"":6453.899999976158},{""stimulus"":""run_exp/static/images/task_images/rocket-08.jpg"",""time"":7531},{""stimulus"":""run_exp/static/images/task_images/rocket-09.jpg"",""time"":8603.300000071526}]",[],12,,,,,,,,,,,,,,
alien_welcome,224,677864,0.0-67.0-1.0,"""event"",""trial"",""time""
""fullscreenenter"",""1"",""3761""
","
","
","""event"",""trial"",""time""
""fullscreenenter"",""1"",""3761""
","
",,null,run_exp/static/images/task_images/aliens/old_aliens/planet/alien_planet-3.jpg,null,,,,,,,,,,,,,3,"31,75,15,52,25,77,66,64,16,63,56,46,3,6,43,32,4,44,37,7,19,51,72,22,14,79,57,34,62,1,12,55,45,30,24,8,26,76,73,50,69,60",,,,,,,,,,
land,225,678381,0.0-67.0-2.0,"""event"",""trial"",""time""
""fullscreenenter"",""1"",""3761""
","
","
","""event"",""trial"",""time""
""fullscreenenter"",""1"",""3761""
","
",,null,run_exp/static/images/task_images/land.jpg,null,,,,,,,94,,,13,,,,,,,,,,,,,,
dig,226,680392,0.0-67.0-3.0,"""event"",""trial"",""time""
""fullscreenenter"",""1"",""3761""
","
","
","""event"",""trial"",""time""
""fullscreenenter"",""1"",""3761""
","
",,,,,,,,,,,,"[{""stimulus"":""run_exp/static/images/task_images/dig.jpg"",""time"":0.2999999523162842},{""stimulus"":""run_exp/static/images/task_images/land.jpg"",""time"":676.3999999761581},{""stimulus"":""run_exp/static/images/task_images/dig.jpg"",""time"":1341.7000000476837}]",[],13,,,,,,,,,,,,,,
harvest,227,681395,0.0-67.0-4.0,"""event"",""trial"",""time""
""fullscreenenter"",""1"",""3761""
","
","
","""event"",""trial"",""time""
""fullscreenenter"",""1"",""3761""
","
",,null,run_exp/static/images/task_images/gems/94.jpg,null,,,,,,,19,,,13,,,,,94,0.199438373,0.20212766,,,,,,,
decision,228,681750,0.0-67.0-5.0,"""event"",""trial"",""time""
""fullscreenenter"",""1"",""3761""
","
","
","""event"",""trial"",""time""
""fullscreenenter"",""1"",""3761""
","
",,353.6,run_exp/static/images/task_images/land.jpg,65,,,,,,,19,,,13,,,,,,,,31461,2,0,FALSE,,,
dig,229,684408,0.0-68.0-0.0,"""event"",""trial"",""time""
""fullscreenenter"",""1"",""3761""
","
","
","""event"",""trial"",""time""
""fullscreenenter"",""1"",""3761""
","
",,,,,,,,,,,,"[{""stimulus"":""run_exp/static/images/task_images/dig.jpg"",""time"":0.19999992847442627},{""stimulus"":""run_exp/static/images/task_images/land.jpg"",""time"":885.6000000238419},{""stimulus"":""run_exp/static/images/task_images/dig.jpg"",""time"":1770.5}]",[],13,,,,,,,,,,,,,,
harvest,230,685410,0.0-68.0-1.0,"""event"",""trial"",""time""
""fullscreenenter"",""1"",""3761""
","
","
","""event"",""trial"",""time""
""fullscreenenter"",""1"",""3761""
","
",,null,run_exp/static/images/task_images/gems/19.jpg,null,,,,,,,3,,,13,,,,,19,0.151440553,0.157894737,,,,,,,
decision,231,685496,0.0-68.0-2.0,"""event"",""trial"",""time""
""fullscreenenter"",""1"",""3761""
","
","
","""event"",""trial"",""time""
""fullscreenenter"",""1"",""3761""
","
",,84.29999995,run_exp/static/images/task_images/land.jpg,76,,,,,,,3,,,13,,,,,,,,35207,2,1,TRUE,,,
travel,232,695411,0.0-69.0-0.0,"""event"",""trial"",""time""
""fullscreenenter"",""1"",""3761""
","
","
","""event"",""trial"",""time""
""fullscreenenter"",""1"",""3761""
","
",,,,,,,,,,,,"[{""stimulus"":""run_exp/static/images/task_images/rocket-01.jpg"",""time"":0.19999992847442627},{""stimulus"":""run_exp/static/images/task_images/rocket-02.jpg"",""time"":1107.3999999761581},{""stimulus"":""run_exp/static/images/task_images/rocket-03.jpg"",""time"":2216.899999976158},{""stimulus"":""run_exp/static/images/task_images/rocket-04.jpg"",""time"":3304.7999999523163},{""stimulus"":""run_exp/static/images/task_images/rocket-05.jpg"",""time"":4419.799999952316},{""stimulus"":""run_exp/static/images/task_images/rocket-06.jpg"",""time"":5507.599999904633},{""stimulus"":""run_exp/static/images/task_images/rocket-07.jpg"",""time"":6611.799999952316},{""stimulus"":""run_exp/static/images/task_images/rocket-08.jpg"",""time"":7710.599999904633},{""stimulus"":""run_exp/static/images/task_images/rocket-09.jpg"",""time"":8809}]",[],13,,,,,,,,,,,,,,
alien_welcome,233,700437,0.0-69.0-1.0,"""event"",""trial"",""time""
""fullscreenenter"",""1"",""3761""
","
","
","""event"",""trial"",""time""
""fullscreenenter"",""1"",""3761""
","
",,null,run_exp/static/images/task_images/aliens/old_aliens/planet/alien_planet-6.jpg,null,,,,,,,,,,,,,6,"31,75,15,52,25,77,66,64,16,63,56,46,3,6,43,32,4,44,37,7,19,51,72,22,14,79,57,34,62,1,12,55,45,30,24,8,26,76,73,50,69,60",,,,,,,,,,
land,234,700949,0.0-69.0-2.0,"""event"",""trial"",""time""
""fullscreenenter"",""1"",""3761""
","
","
","""event"",""trial"",""time""
""fullscreenenter"",""1"",""3761""
","
",,null,run_exp/static/images/task_images/land.jpg,null,,,,,,,94,,,14,,,,,,,,,,,,,,
dig,235,702960,0.0-69.0-3.0,"""event"",""trial"",""time""
""fullscreenenter"",""1"",""3761""
","
","
","""event"",""trial"",""time""
""fullscreenenter"",""1"",""3761""
","
",,,,,,,,,,,,"[{""stimulus"":""run_exp/static/images/task_images/dig.jpg"",""time"":0.2999999523162842},{""stimulus"":""run_exp/static/images/task_images/land.jpg"",""time"":675.2999999523163},{""stimulus"":""run_exp/static/images/task_images/dig.jpg"",""time"":1342.7999999523163}]",[],14,,,,,,,,,,,,,,
harvest,236,703963,0.0-69.0-4.0,"""event"",""trial"",""time""
""fullscreenenter"",""1"",""3761""
","
","
","""event"",""trial"",""time""
""fullscreenenter"",""1"",""3761""
","
",,null,run_exp/static/images/task_images/gems/94.jpg,null,,,,,,,20,,,14,,,,,94,0.214325397,0.212765957,,,,,,,
decision,237,704263,0.0-69.0-5.0,"""event"",""trial"",""time""
""fullscreenenter"",""1"",""3761""
","
","
","""event"",""trial"",""time""
""fullscreenenter"",""1"",""3761""
","
",,298.6,run_exp/static/images/task_images/land.jpg,65,,,,,,,20,,,14,,,,,,,,53974,2,0,FALSE,,,
dig,238,706971,0.0-70.0-0.0,"""event"",""trial"",""time""
""fullscreenenter"",""1"",""3761""
","
","
","""event"",""trial"",""time""
""fullscreenenter"",""1"",""3761""
","
",,,,,,,,,,,,"[{""stimulus"":""run_exp/static/images/task_images/dig.jpg"",""time"":0},{""stimulus"":""run_exp/static/images/task_images/land.jpg"",""time"":908.3999999761581},{""stimulus"":""run_exp/static/images/task_images/dig.jpg"",""time"":1804.5}]",[],14,,,,,,,,,,,,,,
harvest,239,707984,0.0-70.0-1.0,"""event"",""trial"",""time""
""fullscreenenter"",""1"",""3761""
","
","
","""event"",""trial"",""time""
""fullscreenenter"",""1"",""3761""
","
",,null,run_exp/static/images/task_images/gems/20.jpg,null,,,,,,,4,,,14,,,,,20,0.188437871,0.2,,,,,,,
decision,240,708427,0.0-70.0-2.0,"""event"",""trial"",""time""
""fullscreenenter"",""1"",""3761""
","
","
","""event"",""trial"",""time""
""fullscreenenter"",""1"",""3761""
","
",,441.1,run_exp/static/images/task_images/land.jpg,76,,,,,,,4,,,14,,,,,,,,58138,2,1,TRUE,,,
travel,241,717995,0.0-71.0-0.0,"""event"",""trial"",""time""
""fullscreenenter"",""1"",""3761""
","
","
","""event"",""trial"",""time""
""fullscreenenter"",""1"",""3761""
","
