trial_type,trial_index,time_elapsed,internal_node_id,success,rt,stimulus,key_press,prompt,subject_id,age,gender,button_pressed,next_reward,animation_sequence,responses,planet,curr_prac_trial,n_prac_rounds,alien,aliens,reward_received,decay_rate_actual,decay_rate_exp,time_in_block,block_num,prt,last_trial_on_planet,button_html,bonus,num_failures
pavlovia,0,5,0.0-0.0,,,,,,,,,,,,,,,,,,,,,,,,,,,
fullscreen,1,3082,0.0-1.0,TRUE,,,,,,,,,,,,,,,,,,,,,,,,,,
instruc_welcome,2,13061,0.0-2.0,,null,run_exp/static/audio/clip_1_welcome.m4a,null,"<p>Howdy! In this experiment, you’ll be an explorer traveling through space to collect space treasure.</p><p>Your mission is to collect as much treasure as possible.</p><br><br><p><img src='run_exp/static/images/task_images/opening_img-01.jpg' height='300' width='auto'></p>",yLNyOKoVGca8bOH_a5Ke5UddwllDBGZ_MLRP_6KGbmbongtv865E,10.73,male,,,,,,,,,,,,,,,,,,,
audio-keyboard-response,3,29688,0.0-3.0,,null,run_exp/static/audio/clip_2_move.m4a,null,,,,,,,,,,,,,,,,,,,,,,,
welcome_dec,4,30481,0.0-4.0,,787.9999999,"<p>Howdy! In this experiment, you’ll be an explorer traveling through space to collect space treasure.</p><p>Your mission is to collect as much treasure as possible.</p><br><br><p><img src='run_exp/static/images/task_images/opening_img-01.jpg' height='300' width='auto'></p>",,,,,,1,,,,,,,,,,,,,,,,,,
html-keyboard-response,5,31005,0.0-5.0,,521.2150001,"<p>Howdy! In this experiment, you’ll be an explorer traveling through space to collect space treasure.</p><p>Your mission is to collect as much treasure as possible.</p><br><br><p><img src='run_exp/static/images/task_images/opening_img-01.jpg' height='300' width='auto'></p><button class=""jspsych-html-btn-unchosen""><img src=""run_exp/static/images/task_images/planet-01.jpg"" height=""50""></button><button class=""jspsych-html-btn-chosen""><img src=""run_exp/static/images/task_images/planet-02.jpg"" height=""50""></button><p><b>[press the space bar to lock in your answer]<b><br></p>",32,,,,,,,,,,,,,,,,,,,,,,,
instruc_goal,6,41088,0.0-6.0-0.0,,null,run_exp/static/audio/clip_3_goal.m4a,null,"<p> As a space explorer, you’ll visit different planets to dig for space treasure, these pink gems.</p> <p> The more treasure you dig up, the more bonus money you’ll win! </p><br><br><p><img src='run_exp/static/images/task_images/pink_gem.jpg' height='300' width='auto'></p>",,,,,,,,,,,,,,,,,,,,,,
instruc_goal,7,43581,0.0-6.0-1.0,,2489.47,"<p> As a space explorer, you’ll visit different planets to dig for space treasure, these pink gems.</p> <p> The more treasure you dig up, the more bonus money you’ll win! </p><br><br><p><img src='run_exp/static/images/task_images/pink_gem.jpg' height='300' width='auto'></p>",,,,,,1,,,,,,,,,,,,,,,,,,
html-keyboard-response,8,44067,0.0-6.0-2.0,,483.635,"<p> As a space explorer, you’ll visit different planets to dig for space treasure, these pink gems.</p> <p> The more treasure you dig up, the more bonus money you’ll win! </p><br><br><p><img src='run_exp/static/images/task_images/pink_gem.jpg' height='300' width='auto'></p><button class=""jspsych-html-btn-unchosen""><img src=""run_exp/static/images/task_images/planet-01.jpg"" height=""50""></button><button class=""jspsych-html-btn-chosen""><img src=""run_exp/static/images/task_images/planet-02.jpg"" height=""50""></button><p><b>[press the space bar to lock in your answer]<b><br></p>",32,,,,,,,,,,,,,,,,,,,,,,,
instruc_dig,9,60109,0.0-7.0-0.0,,null,run_exp/static/audio/clip_4_dig.m4a,null,,,,,,100,,,,,,,,,,,,,,,,,
instruc_dig_try,10,60700,0.0-7.0-1.0,,582.36,"<p> When you’ve arrived at a new planet, you will dig once. </p> <p>Then, you get to decide if you want to stay on the planet and dig again or travel to a new planet and dig there.</p> <p> To stay and dig, press the letter <strong>‘A’</strong> on your keyboard. Try pressing it now! </p><p><img src='run_exp/static/images/task_images/land.jpg'  height='700' width='auto'></p>",65,"<p> When you’ve arrived at a new planet, you will dig once. </p> <p>Then, you get to decide if you want to stay on the planet and dig again or travel to a new planet and dig there.</p> <p> To stay and dig, press the letter <strong>‘A’</strong> on your keyboard. Try pressing it now! </p><p><img src='run_exp/static/images/task_images/land.jpg'  height='700' width='auto'></p>",,,,,100,,,,,,,,,,,,,,,,,
dig_prac,11,62710,0.0-7.0-2.0,,,,,,,,,,,"[{""stimulus"":""run_exp/static/images/task_images/dig.jpg"",""time"":1.7450000159442425},{""stimulus"":""run_exp/static/images/task_images/land.jpg"",""time"":670.4250000184402},{""stimulus"":""run_exp/static/images/task_images/dig.jpg"",""time"":1350.9799999883398}]",[],,,,,,,,,,,,,,,
instruc_travel,12,99011,0.0-7.0-3.0,,null,run_exp/static/audio/clip_5_travel.m4a,null,"<p>Every time you dig up gems, there are less gems on the planet, so the more you dig on a planet the fewer gems you’ll get with each dig.</p><p>When gems are running low, you may want to travel to a new planet. </p> <p>  Planets are very far apart in this galaxy, so it will take some time to travel between them. </p> <br><p>There are lots and lots of planets for you to visit, so you won’t be able to return to any planets you’ve seen before. </p><br><p>To leave this planet and travel to a new one, press the letter <strong>‘L’</strong> on your keyboard. Try pressing it now! </p><p><img src='run_exp/static/images/task_images/rocket-01.jpg'  height='600' width='auto'></p>",,,,,,,,,,,,,,,,,,,,,,
instruc_travel_try,13,100910,0.0-7.0-4.0,,1892.135,"<p>Every time you dig up gems, there are less gems on the planet, so the more you dig on a planet the fewer gems you’ll get with each dig.</p><p>When gems are running low, you may want to travel to a new planet. </p> <p>  Planets are very far apart in this galaxy, so it will take some time to travel between them. </p> <br><p>There are lots and lots of planets for you to visit, so you won’t be able to return to any planets you’ve seen before. </p><br><p>To leave this planet and travel to a new one, press the letter <strong>‘L’</strong> on your keyboard. Try pressing it now! </p><p><img src='run_exp/static/images/task_images/rocket-01.jpg'  height='600' width='auto'></p>",76,"<p>Every time you dig up gems, there are less gems on the planet, so the more you dig on a planet the fewer gems you’ll get with each dig.</p><p>When gems are running low, you may want to travel to a new planet. </p> <p>  Planets are very far apart in this galaxy, so it will take some time to travel between them. </p> <br><p>There are lots and lots of planets for you to visit, so you won’t be able to return to any planets you’ve seen before. </p><br><p>To leave this planet and travel to a new one, press the letter <strong>‘L’</strong> on your keyboard. Try pressing it now! </p><p><img src='run_exp/static/images/task_images/rocket-01.jpg'  height='600' width='auto'></p>",,,,,,,,,,,,,,,,,,,,,,
travel_prac,14,110933,0.0-7.0-5.0,,,,,,,,,,,"[{""stimulus"":""run_exp/static/images/task_images/rocket-01.jpg"",""time"":0.6099999882280827},{""stimulus"":""run_exp/static/images/task_images/rocket-02.jpg"",""time"":1122.6999999489635},{""stimulus"":""run_exp/static/images/task_images/rocket-03.jpg"",""time"":2234.1349999187514},{""stimulus"":""run_exp/static/images/task_images/rocket-04.jpg"",""time"":3338.67999992799},{""stimulus"":""run_exp/static/images/task_images/rocket-05.jpg"",""time"":4463.664999930188},{""stimulus"":""run_exp/static/images/task_images/rocket-06.jpg"",""time"":5564.364999998361},{""stimulus"":""run_exp/static/images/task_images/rocket-07.jpg"",""time"":6678.160000010394},{""stimulus"":""run_exp/static/images/task_images/rocket-08.jpg"",""time"":7783.24000001885},{""stimulus"":""run_exp/static/images/task_images/rocket-09.jpg"",""time"":8903.09499995783}]",[],0,,,,,,,,,,,,,,
instruc_alien_greet,15,138166,0.0-7.0-6.0,,null,run_exp/static/audio/clip_6_alien.m4a,null,"<p>When you arrive at a new planet, the alien who owns the treasure mine on that planet will greet you!</p><p>The better an alien takes care of their mine the easier it is to dig for gems. Some aliens take better care of their mine than others. So, you won’t get exactly the same amount of gems on each planet.</p><p>What the alien looks like does not tell you anything about how many gems there are on the planet.</p><br><p><img src=""run_exp/static/images/task_images/aliens/instructions_aliens/planet/alien_planet-1.jpg""  height=""600"" width=""auto""></p>",,,,,,,,,,,,,,,,,,,,,,
instruc_alien_greet,16,140935,0.0-7.0-7.0,,2759.235,"<p>When you arrive at a new planet, the alien who owns the treasure mine on that planet will greet you!</p><p>The better an alien takes care of their mine the easier it is to dig for gems. Some aliens take better care of their mine than others. So, you won’t get exactly the same amount of gems on each planet.</p><p>What the alien looks like does not tell you anything about how many gems there are on the planet.</p><br><p><img src=""run_exp/static/images/task_images/aliens/instructions_aliens/planet/alien_planet-1.jpg""  height=""600"" width=""auto""></p>",,,,,,1,,,,,,,,,,,,,,,,,,
html-keyboard-response,17,141604,0.0-7.0-8.0,,664.715,"<p>When you arrive at a new planet, the alien who owns the treasure mine on that planet will greet you!</p><p>The better an alien takes care of their mine the easier it is to dig for gems. Some aliens take better care of their mine than others. So, you won’t get exactly the same amount of gems on each planet.</p><p>What the alien looks like does not tell you anything about how many gems there are on the planet.</p><br><p><img src=""run_exp/static/images/task_images/aliens/instructions_aliens/planet/alien_planet-1.jpg""  height=""600"" width=""auto""></p><button class=""jspsych-html-btn-unchosen""><img src=""run_exp/static/images/task_images/planet-01.jpg"" height=""50""></button><button class=""jspsych-html-btn-chosen""><img src=""run_exp/static/images/task_images/planet-02.jpg"" height=""50""></button><p><b>[press the space bar to lock in your answer]<b><br></p>",32,,,,,,,,,,,,,,,,,,,,,,,
time_out,18,152738,0.0-8.0-0.0,,null,run_exp/static/audio/clip_7_timeout.m4a,null,"<p>If you don't make your choice fast enough, you’ll have to wait a few seconds before you can make another one.</p><p>You can’t dig for more gems or travel to new planets. You just have to sit and wait.</p><br><p><img src='run_exp/static/images/task_images/time_out.jpg'  height='600' width='auto'></p>",,,,,,,,,,,,,,,,,,,,,,
time_out,19,155002,0.0-8.0-1.0,,2257.58,"<p>If you don't make your choice fast enough, you’ll have to wait a few seconds before you can make another one.</p><p>You can’t dig for more gems or travel to new planets. You just have to sit and wait.</p><br><p><img src='run_exp/static/images/task_images/time_out.jpg'  height='600' width='auto'></p>",,,,,,1,,,,,,,,,,,,,,,,,,
html-keyboard-response,20,155918,0.0-8.0-2.0,,913.545,"<p>If you don't make your choice fast enough, you’ll have to wait a few seconds before you can make another one.</p><p>You can’t dig for more gems or travel to new planets. You just have to sit and wait.</p><br><p><img src='run_exp/static/images/task_images/time_out.jpg'  height='600' width='auto'></p><button class=""jspsych-html-btn-unchosen""><img src=""run_exp/static/images/task_images/planet-01.jpg"" height=""50""></button><button class=""jspsych-html-btn-chosen""><img src=""run_exp/static/images/task_images/planet-02.jpg"" height=""50""></button><p><b>[press the space bar to lock in your answer]<b><br></p>",32,,,,,,,,,,,,,,,,,,,,,,,
instruc_break,21,171618,0.0-9.0-0.0,,null,run_exp/static/audio/clip_8_break.m4a,null,"<p> After digging and traveling for a while, you’ll be able to take a break at home base. </p><p>The game will last 20 minutes no matter what.</p><p>You will visit home base every 5 minutes, so, you will visit home base three times during the game.</p><br><p><img src='run_exp/static/images/task_images/home_base.jpg' height='600' width='auto'></p>",,,,,,,,,,,,,,,,,,,,,,
instruc_break,22,175372,0.0-9.0-1.0,,3748.725,"<p> After digging and traveling for a while, you’ll be able to take a break at home base. </p><p>The game will last 20 minutes no matter what.</p><p>You will visit home base every 5 minutes, so, you will visit home base three times during the game.</p><br><p><img src='run_exp/static/images/task_images/home_base.jpg' height='600' width='auto'></p>",,,,,,1,,,,,,,,,,,,,,,,,,
html-keyboard-response,23,175911,0.0-9.0-2.0,,537.025,"<p> After digging and traveling for a while, you’ll be able to take a break at home base. </p><p>The game will last 20 minutes no matter what.</p><p>You will visit home base every 5 minutes, so, you will visit home base three times during the game.</p><br><p><img src='run_exp/static/images/task_images/home_base.jpg' height='600' width='auto'></p><button class=""jspsych-html-btn-unchosen""><img src=""run_exp/static/images/task_images/planet-01.jpg"" height=""50""></button><button class=""jspsych-html-btn-chosen""><img src=""run_exp/static/images/task_images/planet-02.jpg"" height=""50""></button><p><b>[press the space bar to lock in your answer]<b><br></p>",32,,,,,,,,,,,,,,,,,,,,,,,
instruc_prac_game,24,186058,0.0-10.0-0.0,,null,run_exp/static/audio/clip_9_practice.m4a,null,"<p> Are you ready to play a practice game? </p> <p>In this practice game, you'll be digging up barrels of gems. But, in the real game, you'll be digging up the gems themselves. </p>",,,,,,,,,,,,,,,,,,,,,,
html-button-response,25,188573,0.0-10.0-1.0,,2508.595,"<p> Are you ready to play a practice game? </p> <p>In this practice game, you'll be digging up barrels of gems. But, in the real game, you'll be digging up the gems themselves. </p>",,,,,,0,,,,,,,,,,,,,,,,,,
alien_welcome_prac,26,193583,0.0-11.0-0.0,,null,run_exp/static/images/task_images/aliens/practice_aliens/planet/alien_planet-5.jpg,null,,,,,,,,,,,,,,,,,,,,,,,
land_prac,27,194096,0.0-11.0-1.0,,null,run_exp/static/images/task_images/land.jpg,null,,,,,,94,,,0,,,,,,,,,,,,,,
dig_prac,28,196105,0.0-11.0-2.0,,,,,,,,,,,"[{""stimulus"":""run_exp/static/images/task_images/dig.jpg"",""time"":0.6099999882280827},{""stimulus"":""run_exp/static/images/task_images/land.jpg"",""time"":684.1499999864027},{""stimulus"":""run_exp/static/images/task_images/dig.jpg"",""time"":1338.9250000473112}]",[],,,,,,,,,,,,,,,
harvest_prac,29,197114,0.0-11.0-3.0,,null,run_exp/static/images/task_images/barrel_text.jpg,null,,,,,,,,,,,,,,,,,,,,,,,
decision_prac,30,197613,0.0-11.0-4.0,,497.0750001,run_exp/static/images/task_images/land.jpg,65,,,,,,,,,,1,,,,,,,,,,,,,
dig_prac,31,199632,0.0-12.0-0.0,,,,,,,,,,,"[{""stimulus"":""run_exp/static/images/task_images/dig.jpg"",""time"":0.16000005416572094},{""stimulus"":""run_exp/static/images/task_images/land.jpg"",""time"":669.0650000236928},{""stimulus"":""run_exp/static/images/task_images/dig.jpg"",""time"":1336.8250000057742}]",[],,,,,,,,,,,,,,,
harvest_prac,32,200655,0.0-12.0-1.0,,null,run_exp/static/images/task_images/barrel_text.jpg,null,,,,,,,,,,,,,,,,,,,,,,,
decision_prac,33,200755,0.0-12.0-2.0,,97.71,run_exp/static/images/task_images/land.jpg,76,,,,,,,,,,2,,,,,,,,,,,,,
travel,34,210666,0.0-13.0-0.0,,,,,,,,,,,"[{""stimulus"":""run_exp/static/images/task_images/rocket-01.jpg"",""time"":0.1700000138953328},{""stimulus"":""run_exp/static/images/task_images/rocket-02.jpg"",""time"":1107.3650000616908},{""stimulus"":""run_exp/static/images/task_images/rocket-03.jpg"",""time"":2206.3649999909103},{""stimulus"":""run_exp/static/images/task_images/rocket-04.jpg"",""time"":3315.8350000157952},{""stimulus"":""run_exp/static/images/task_images/rocket-05.jpg"",""time"":4407.4700000928715},{""stimulus"":""run_exp/static/images/task_images/rocket-06.jpg"",""time"":5507.245000102557},{""stimulus"":""run_exp/static/images/task_images/rocket-07.jpg"",""time"":6606.830000062473},{""stimulus"":""run_exp/static/images/task_images/rocket-08.jpg"",""time"":7706.185000017285},{""stimulus"":""run_exp/static/images/task_images/rocket-09.jpg"",""time"":8807.230000034906}]",[],0,,,,,,,,,,,,,,
alien_welcome_prac,35,215680,0.0-13.0-1.0,,null,run_exp/static/images/task_images/aliens/practice_aliens/planet/alien_planet-4.jpg,null,,,,,,,,,,,,,,,,,,,,,,,
land_prac,36,216206,0.0-13.0-2.0,,null,run_exp/static/images/task_images/land.jpg,null,,,,,,103,,,0,,,,,,,,,,,,,,
dig_prac,37,218226,0.0-13.0-3.0,,,,,,,,,,,"[{""stimulus"":""run_exp/static/images/task_images/dig.jpg"",""time"":0.5799999926239252},{""stimulus"":""run_exp/static/images/task_images/land.jpg"",""time"":676.0800000047311},{""stimulus"":""run_exp/static/images/task_images/dig.jpg"",""time"":1355.779999983497}]",[],,,,,,,,,,,,,,,
harvest_prac,38,219235,0.0-13.0-4.0,,null,run_exp/static/images/task_images/barrel_text.jpg,null,,,,,,,,,,,,,,,,,,,,,,,
decision_prac,39,219454,0.0-13.0-5.0,,215.68,run_exp/static/images/task_images/land.jpg,65,,,,,,,,,,3,,,,,,,,,,,,,
dig_prac,40,221480,0.0-14.0-0.0,,,,,,,,,,,"[{""stimulus"":""run_exp/static/images/task_images/dig.jpg"",""time"":0.39000005926936865},{""stimulus"":""run_exp/static/images/task_images/land.jpg"",""time"":682.7449999982491},{""stimulus"":""run_exp/static/images/task_images/dig.jpg"",""time"":1341.9050000375137}]",[],,,,,,,,,,,,,,,
harvest_prac,41,222486,0.0-14.0-1.0,,null,run_exp/static/images/task_images/barrel_text.jpg,null,,,,,,,,,,,,,,,,,,,,,,,
decision_prac,42,222546,0.0-14.0-2.0,,59.08000004,run_exp/static/images/task_images/land.jpg,65,,,,,,,,,,4,,,,,,,,,,,,,
dig_prac,43,224555,0.0-15.0-0.0,,,,,,,,,,,"[{""stimulus"":""run_exp/static/images/task_images/dig.jpg"",""time"":0.16000005416572094},{""stimulus"":""run_exp/static/images/task_images/land.jpg"",""time"":679.8450000351295},{""stimulus"":""run_exp/static/images/task_images/dig.jpg"",""time"":1340.9100000280887}]",[],,,,,,,,,,,,,,,
harvest_prac,44,225569,0.0-15.0-1.0,,null,run_exp/static/images/task_images/barrel_text.jpg,null,,,,,,,,,,,,,,,,,,,,,,,
decision_prac,45,227035,0.0-15.0-2.0,,1461.345,run_exp/static/images/task_images/land.jpg,65,,,,,,,,,,,1,,,,,,,,,,,,
quiz_instruc,46,239006,0.0-16.0-0.0,,11966.415,run_exp/static/audio/clip_10_quiz.m4a,,,,,,0,,,,,,,,,,,,,,,,,,
instruc_repeat,47,281801,0.0-16.0-1.0,,null,"<p> Are you ready to play a practice game? </p> <p>In this practice game, you'll be digging up barrels of gems. But, in the real game, you'll be digging up the gems themselves. </p>",null,"<p>In this game, your goal is to collect as many gems as you can. That’s how you will win bonus money. </p> <p>The entire game will last 20 minutes no matter how many gems you collect or how many planets you visit. </p><p>To stay on a planet and dig again, press the letter A on your keyboard. To leave for a new planet, press the letter L.</p><p>The more you dig on a planet, the fewer gems you’ll get with each dig which is why you might consider leaving for a new planet. </p><p>When you arrive at a new planet, you’ll be greeted by an alien. What the alien looks like does not tell you anything about how much treasure is on the planet. </p>",,,,,,,,,,,,,,,,,,,,,,
instruc_repeat_continue,48,283659,0.0-16.0-2.0,,1854.55,"<p> Are you ready to play a practice game? </p> <p>In this practice game, you'll be digging up barrels of gems. But, in the real game, you'll be digging up the gems themselves. </p>",,,,,,0,,,,,,,,,,,,,,,,,,
quiz_q_1_ask,49,294182,0.0-16.0-3.0,,10520.595,run_exp/static/audio/clip_11_q1_ask.m4a,,,,,,2,,,,,,,,,,,,,,,,,,
quiz_q_1_fb_correct,50,298041,0.0-17.0-0.0,,null,run_exp/static/audio/clip_12_q1_corrrect.m4a,null,<p>That’s correct. You win extra money by collecting more gems.</p>,,,,,,,,,,,,,,,,,,,,,,
quiz_q_2_ask,51,309953,0.0-17.0-1.0,,11908.71,run_exp/static/audio/clip_14_q2_ask.m4a,,,,,,1,,,,,,,,,,,,,,,,,,
quiz_q_2_fb_correct,52,313981,0.0-18.0-0.0,,null,run_exp/static/audio/clip_15_q2_correct.m4a,null,<p>That’s correct. The experiment is 20 minutes no matter what.</p>,,,,,,,,,,,,,,,,,,,,,,
quiz_q_3_ask,53,318532,0.0-18.0-1.0,,4546.28,run_exp/static/audio/clip_17_q3_ask.m4a,,,,,,1,,,,,,,,,,,,,,,,,,
quiz_q_3_fb_correct,54,322540,0.0-19.0-0.0,,null,run_exp/static/audio/clip_18_q3_correct.m4a,null,<p> That’s correct. You press the letter L to travel to a new planet.</p>,,,,,,,,,,,,,,,,,,,,,,
quiz_q_4_ask,55,331581,0.0-19.0-1.0,,9037.275,run_exp/static/audio/clip_20_q4_ask.m4a,,,,,,1,,,,,,,,,,,,,,,,,,
quiz_q_4_fb_incorrect,56,337401,0.0-20.0-0.0,,null,run_exp/static/audio/clip_22_q4_incorrect.m4a,null,<p>That’s incorrect.  The more you dig on a planet the fewer gems you’ll get with each dig.</p>,,,,,,,,,,,,,,,,,,,,,,
quiz_q_5_ask,57,342670,0.0-20.0-1.0,,5263.29,run_exp/static/audio/clip_23_q5_ask.m4a,,,,,,1,,,,,,,,,,,,,,,,,,
quiz_q_5_fb_correct,58,347705,0.0-21.0-0.0,,null,run_exp/static/audio/clip_24_q5_correct.m4a,null,<p> That’s correct. The alien tells you nothing about how much treasure is on the planet.</p>,,,,,,,,,,,,,,,,,,,,,,
quiz_incorrect,59,353278,0.0-22.0-0.0,,null,run_exp/static/audio/clip_27_incorrect_quiz.m4a,null,,,,,,,,,,,,,,,,,,,,,,,
quiz_incorrect_continue,60,354750,0.0-22.0-1.0,,1470.205,"<p>Oops, you missed some questions.</p><p>Now that you’ve heard the correct answers. Try the quiz again!</p>",,,,,,0,,,,,,,,,,,,,,,,,,
quiz_q_1_ask,61,357219,0.0-22.0-2.0,,2465.88,run_exp/static/audio/clip_11_q1_ask.m4a,,,,,,2,,,,,,,,,,,,,,,,,,
quiz_q_1_fb_correct,62,361081,0.0-23.0-0.0,,null,run_exp/static/audio/clip_12_q1_corrrect.m4a,null,<p>That’s correct. You win extra money by collecting more gems.</p>,,,,,,,,,,,,,,,,,,,,,,
quiz_q_2_ask,63,362948,0.0-23.0-1.0,,1862.105,run_exp/static/audio/clip_14_q2_ask.m4a,,,,,,1,,,,,,,,,,,,,,,,,,
quiz_q_2_fb_correct,64,366981,0.0-24.0-0.0,,null,run_exp/static/audio/clip_15_q2_correct.m4a,null,<p>That’s correct. The experiment is 20 minutes no matter what.</p>,,,,,,,,,,,,,,,,,,,,,,
quiz_q_3_ask,65,369731,0.0-24.0-1.0,,2746.62,run_exp/static/audio/clip_17_q3_ask.m4a,,,,,,1,,,,,,,,,,,,,,,,,,
quiz_q_3_fb_correct,66,373741,0.0-25.0-0.0,,null,run_exp/static/audio/clip_18_q3_correct.m4a,null,<p> That’s correct. You press the letter L to travel to a new planet.</p>,,,,,,,,,,,,,,,,,,,,,,
quiz_q_4_ask,67,376017,0.0-25.0-1.0,,2271.225,run_exp/static/audio/clip_20_q4_ask.m4a,,,,,,0,,,,,,,,,,,,,,,,,,
quiz_q_4_fb_correct,68,381360,0.0-26.0-0.0,,null,run_exp/static/audio/clip_21_q4_correct.m4a,null,<p> That’s correct. The more you dig on a planet the fewer gems you’ll get with each dig. </p>,,,,,,,,,,,,,,,,,,,,,,
quiz_q_5_ask,69,383680,0.0-26.0-1.0,,2313.875,run_exp/static/audio/clip_23_q5_ask.m4a,,,,,,1,,,,,,,,,,,,,,,,,,
quiz_q_5_fb_correct,70,388721,0.0-27.0-0.0,,null,run_exp/static/audio/clip_24_q5_correct.m4a,null,<p> That’s correct. The alien tells you nothing about how much treasure is on the planet.</p>,,,,,,,,,,,,,,,,,,,,,,
quiz_correct,71,392220,0.0-28.0-0.0,,null,run_exp/static/audio/clip_26_correct_quiz.m4a,null,,,,,,,,,,,,,,,,,,,,,,,
quiz_correct_continue,72,394009,0.0-28.0-1.0,,1786.16,<p>Good job! You're now ready to move on to the real game!</p>,,,,,,0,,,,,,,,,,,,,,,,,,
audio-keyboard-response,73,404161,0.0-28.0-2.0,,null,run_exp/static/audio/clip_28_real_game.m4a,null,,,,,,,,,,,,,,,,,,,,,,,
instruc_begin_exp_contine,74,406012,0.0-28.0-3.0,,1845.695,"<p>Now that you know how  to dig for space treasure and travel to new planets,you can start exploring! </p><p>Do you want to go over the instructions again or get started with the real game?</p>",,,,,,1,,,,,,1,,,,,,,,,,,,
alien_welcome,75,411029,0.0-29.0-0.0,,null,run_exp/static/images/task_images/aliens/old_aliens/planet/alien_planet-75.jpg,null,,,,,,,,,,,,75,"75,63,6,40,39,50,48,56,28,7,32,37,25,78,61,10,77,31,36,43,23,72,17,3,30",,,,,,,,,,
land,76,411539,0.0-29.0-1.0,,null,run_exp/static/images/task_images/land.jpg,null,,,,,,98,,,1,,,,,,,,,,,,,,
dig,77,413548,0.0-29.0-2.0,,,,,,,,,,,"[{""stimulus"":""run_exp/static/images/task_images/dig.jpg"",""time"":0.46500004827976227},{""stimulus"":""run_exp/static/images/task_images/land.jpg"",""time"":686.020000022836},{""stimulus"":""run_exp/static/images/task_images/dig.jpg"",""time"":1345.3150000423193}]",[],1,,,,,,,,,,,,,,
harvest,78,414557,0.0-29.0-3.0,,null,run_exp/static/images/task_images/gems/98.jpg,null,,,,,,25,,,1,,,,,98,0.254933829,0.255102041,,,,,,,
decision,79,415032,0.0-29.0-4.0,,471.715,run_exp/static/images/task_images/land.jpg,65,,,,,,25,,,1,,,,,,,,9017,1,0,FALSE,,,
dig,80,417587,0.0-30.0-0.0,,,,,,,,,,,"[{""stimulus"":""run_exp/static/images/task_images/dig.jpg"",""time"":0.14999997802078724},{""stimulus"":""run_exp/static/images/task_images/land.jpg"",""time"":862.1350000612438},{""stimulus"":""run_exp/static/images/task_images/dig.jpg"",""time"":1702.1800000220537}]",[],1,,,,,,,,,,,,,,
harvest,81,418592,0.0-30.0-1.0,,null,run_exp/static/images/task_images/gems/25.jpg,null,,,,,,7,,,1,,,,,25,0.281867124,0.28,,,,,,,
decision,82,418747,0.0-30.0-2.0,,152.865,run_exp/static/images/task_images/land.jpg,65,,,,,,7,,,1,,,,,,,,12732,1,1,FALSE,,,
dig,83,421606,0.0-31.0-0.0,,,,,,,,,,,"[{""stimulus"":""run_exp/static/images/task_images/dig.jpg"",""time"":0.23999996483325958},{""stimulus"":""run_exp/static/images/task_images/land.jpg"",""time"":961.2600000109524},{""stimulus"":""run_exp/static/images/task_images/dig.jpg"",""time"":1918.1899999966845}]",[],1,,,,,,,,,,,,,,
harvest,84,422613,0.0-31.0-1.0,,null,run_exp/static/images/task_images/gems/7.jpg,null,,,,,,2,,,1,,,,,7,0.226630116,0.285714286,,,,,,,
decision,85,423581,0.0-31.0-2.0,,965.985,run_exp/static/images/task_images/land.jpg,76,,,,,,2,,,1,,,,,,,,17567,1,2,TRUE,,,
travel,86,432628,0.0-32.0-0.0,,,,,,,,,,,"[{""stimulus"":""run_exp/static/images/task_images/rocket-01.jpg"",""time"":0.49000000581145287},{""stimulus"":""run_exp/static/images/task_images/rocket-02.jpg"",""time"":1017.2949999105185},{""stimulus"":""run_exp/static/images/task_images/rocket-03.jpg"",""time"":2017.479999922216},{""stimulus"":""run_exp/static/images/task_images/rocket-04.jpg"",""time"":3017.494999920018},{""stimulus"":""run_exp/static/images/task_images/rocket-05.jpg"",""time"":4016.759999911301},{""stimulus"":""run_exp/static/images/task_images/rocket-06.jpg"",""time"":5026.514999917708},{""stimulus"":""run_exp/static/images/task_images/rocket-07.jpg"",""time"":6037.619999959134},{""stimulus"":""run_exp/static/images/task_images/rocket-08.jpg"",""time"":7027.1399999037385},{""stimulus"":""run_exp/static/images/task_images/rocket-09.jpg"",""time"":8036.529999924824}]",[],1,,,,,,,,,,,,,,
alien_welcome,87,437654,0.0-32.0-1.0,,null,run_exp/static/images/task_images/aliens/old_aliens/planet/alien_planet-63.jpg,null,,,,,,,,,,,,63,"75,63,6,40,39,50,48,56,28,7,32,37,25,78,61,10,77,31,36,43,23,72,17,3,30",,,,,,,,,,
land,88,438182,0.0-32.0-2.0,,null,run_exp/static/images/task_images/land.jpg,null,,,,,,101,,,2,,,,,,,,,,,,,,
dig,89,440208,0.0-32.0-3.0,,,,,,,,,,,"[{""stimulus"":""run_exp/static/images/task_images/dig.jpg"",""time"":0.3600000636652112},{""stimulus"":""run_exp/static/images/task_images/land.jpg"",""time"":678.3800000557676},{""stimulus"":""run_exp/static/images/task_images/dig.jpg"",""time"":1350.7700000191107}]",[],2,,,,,,,,,,,,,,
harvest,90,441224,0.0-32.0-4.0,,null,run_exp/static/images/task_images/gems/101.jpg,null,,,,,,21,,,2,,,,,101,0.206383137,0.207920792,,,,,,,
decision,91,441272,0.0-32.0-5.0,,46.73000006,run_exp/static/images/task_images/land.jpg,65,,,,,,21,,,2,,,,,,,,35257,1,0,FALSE,,,
dig,92,444239,0.0-33.0-0.0,,,,,,,,,,,"[{""stimulus"":""run_exp/static/images/task_images/dig.jpg"",""time"":0.16499997582286596},{""stimulus"":""run_exp/static/images/task_images/land.jpg"",""time"":1001.215000054799},{""stimulus"":""run_exp/static/images/task_images/dig.jpg"",""time"":1982.8299999935552}]",[],2,,,,,,,,,,,,,,
harvest,93,445248,0.0-33.0-1.0,,null,run_exp/static/images/task_images/gems/21.jpg,null,,,,,,6,,,2,,,,,21,0.294720154,0.285714286,,,,,,,
decision,94,445509,0.0-33.0-2.0,,259.6100001,run_exp/static/images/task_images/land.jpg,65,,,,,,6,,,2,,,,,,,,39494,1,1,FALSE,,,
dig,95,448259,0.0-34.0-0.0,,,,,,,,,,,"[{""stimulus"":""run_exp/static/images/task_images/dig.jpg"",""time"":0.16499997582286596},{""stimulus"":""run_exp/static/images/task_images/land.jpg"",""time"":925.2800000831485},{""stimulus"":""run_exp/static/images/task_images/dig.jpg"",""time"":1831.415000022389}]",[],2,,,,,,,,,,,,,,
harvest,96,449280,0.0-34.0-1.0,,null,run_exp/static/images/task_images/gems/6.jpg,null,,,,,,1,,,2,,,,,6,0.184132899,0.166666667,,,,,,,
decision,97,449383,0.0-34.0-2.0,,100.945,run_exp/static/images/task_images/land.jpg,65,,,,,,1,,,2,,,,,,,,43368,1,2,FALSE,,,
dig,98,452290,0.0-35.0-0.0,,,,,,,,,,,"[{""stimulus"":""run_exp/static/images/task_images/dig.jpg"",""time"":0.1700000138953328},{""stimulus"":""run_exp/static/images/task_images/land.jpg"",""time"":975.9350001113489},{""stimulus"":""run_exp/static/images/task_images/dig.jpg"",""time"":1941.6650000493973}]",[],2,,,,,,,,,,,,,,
harvest,99,453307,0.0-35.0-1.0,,null,run_exp/static/images/task_images/gems/1.jpg,null,,,,,,0,,,2,,,,,1,0.187679808,0,,,,,,,
decision,100,453316,0.0-35.0-2.0,,7.08000001,run_exp/static/images/task_images/land.jpg,65,,,,,,0,,,2,,,,,,,,47301,1,3,FALSE,,,
dig,101,456319,0.0-36.0-0.0,,,,,,,,,,,"[{""stimulus"":""run_exp/static/images/task_images/dig.jpg"",""time"":0.1800000900402665},{""stimulus"":""run_exp/static/images/task_images/land.jpg"",""time"":1017.4650000408292},{""stimulus"":""run_exp/static/images/task_images/dig.jpg"",""time"":2007.1200000820681}]",[],2,,,,,,,,,,,,,,
harvest,102,457327,0.0-36.0-1.0,,null,run_exp/static/images/task_images/gems/0.jpg,null,,,,,,0,,,2,,,,,0,0.201407482,NaN,,,,,,,
decision,103,459195,0.0-36.0-2.0,,1865.2,run_exp/static/images/task_images/land.jpg,76,,,,,,0,,,2,,,,,,,,53180,1,4,TRUE,,,
travel,104,467348,0.0-37.0-0.0,,,,,,,,,,,"[{""stimulus"":""run_exp/static/images/task_images/rocket-01.jpg"",""time"":0.35500002559274435},{""stimulus"":""run_exp/static/images/task_images/rocket-02.jpg"",""time"":915.5350000364706},{""stimulus"":""run_exp/static/images/task_images/rocket-03.jpg"",""time"":1825.385000091046},{""stimulus"":""run_exp/static/images/task_images/rocket-04.jpg"",""time"":2713.6300000129268},{""stimulus"":""run_exp/static/images/task_images/rocket-05.jpg"",""time"":3625.895000062883},{""stimulus"":""run_exp/static/images/task_images/rocket-06.jpg"",""time"":4524.860000004992},{""stimulus"":""run_exp/static/images/task_images/rocket-07.jpg"",""time"":5425.870000035502},{""stimulus"":""run_exp/static/images/task_images/rocket-08.jpg"",""time"":6345.755000016652},{""stimulus"":""run_exp/static/images/task_images/rocket-09.jpg"",""time"":7245.1500000897795}]",[],2,,,,,,,,,,,,,,
alien_welcome,105,472364,0.0-37.0-1.0,,null,run_exp/static/images/task_images/aliens/old_aliens/planet/alien_planet-6.jpg,null,,,,,,,,,,,,6,"75,63,6,40,39,50,48,56,28,7,32,37,25,78,61,10,77,31,36,43,23,72,17,3,30",,,,,,,,,,
land,106,472882,0.0-37.0-2.0,,null,run_exp/static/images/task_images/land.jpg,null,,,,,,96,,,3,,,,,,,,,,,,,,
dig,107,474898,0.0-37.0-3.0,,,,,,,,,,,"[{""stimulus"":""run_exp/static/images/task_images/dig.jpg"",""time"":0.6350000621750951},{""stimulus"":""run_exp/static/images/task_images/land.jpg"",""time"":678.455000044778},{""stimulus"":""run_exp/static/images/task_images/dig.jpg"",""time"":1342.2900000587106}]",[],3,,,,,,,,,,,,,,
harvest,108,475918,0.0-37.0-4.0,,null,run_exp/static/images/task_images/gems/96.jpg,null,,,,,,48,,,3,,,,,96,0.500642646,0.5,,,,,,,
decision,109,476075,0.0-37.0-5.0,,154.925,run_exp/static/images/task_images/land.jpg,65,,,,,,48,,,3,,,,,,,,70060,1,0,FALSE,,,
dig,110,478939,0.0-38.0-0.0,,,,,,,,,,,"[{""stimulus"":""run_exp/static/images/task_images/dig.jpg"",""time"":0.4050000570714474},{""stimulus"":""run_exp/static/images/task_images/land.jpg"",""time"":951.5599999576807},{""stimulus"":""run_exp/static/images/task_images/dig.jpg"",""time"":1902.4249999783933}]",[],3,,,,,,,,,,,,,,
harvest,111,479947,0.0-38.0-1.0,,null,run_exp/static/images/task_images/gems/48.jpg,null,,,,,,26,,,3,,,,,48,0.536533167,0.541666667,,,,,,,
decision,112,480439,0.0-38.0-2.0,,490.305,run_exp/static/images/task_images/land.jpg,65,,,,,,26,,,3,,,,,,,,74424,1,1,FALSE,,,
dig,113,482963,0.0-39.0-0.0,,,,,,,,,,,"[{""stimulus"":""run_exp/static/images/task_images/dig.jpg"",""time"":0.15000009443610907},{""stimulus"":""run_exp/static/images/task_images/land.jpg"",""time"":845.339999999851},{""stimulus"":""run_exp/static/images/task_images/dig.jpg"",""time"":1685.7200000667945}]",[],3,,,,,,,,,,,,,,
harvest,114,483978,0.0-39.0-1.0,,null,run_exp/static/images/task_images/gems/26.jpg,null,,,,,,12,,,3,,,,,26,0.458460059,0.461538462,,,,,,,
decision,115,484068,0.0-39.0-2.0,,88.75,run_exp/static/images/task_images/land.jpg,65,,,,,,12,,,3,,,,,,,,78053,1,2,FALSE,,,
dig,116,486990,0.0-40.0-0.0,,,,,,,,,,,"[{""stimulus"":""run_exp/static/images/task_images/dig.jpg"",""time"":0.2300000051036477},{""stimulus"":""run_exp/static/images/task_images/land.jpg"",""time"":977.0199999911711},{""stimulus"":""run_exp/static/images/task_images/dig.jpg"",""time"":1944.0049999393523}]",[],3,,,,,,,,,,,,,,
harvest,117,488005,0.0-40.0-1.0,,null,run_exp/static/images/task_images/gems/12.jpg,null,,,,,,6,,,3,,,,,12,0.532394662,0.5,,,,,,,
decision,118,488266,0.0-40.0-2.0,,259.1899999,run_exp/static/images/task_images/land.jpg,65,,,,,,6,,,3,,,,,,,,82251,1,3,FALSE,,,
dig,119,491022,0.0-41.0-0.0,,,,,,,,,,,"[{""stimulus"":""run_exp/static/images/task_images/dig.jpg"",""time"":0.1550000160932541},{""stimulus"":""run_exp/static/images/task_images/land.jpg"",""time"":922.3299999721348},{""stimulus"":""run_exp/static/images/task_images/dig.jpg"",""time"":1838.6049999389797}]",[],3,,,,,,,,,,,,,,
harvest,120,492027,0.0-41.0-1.0,,null,run_exp/static/images/task_images/gems/6.jpg,null,,,,,,3,,,3,,,,,6,0.472800652,0.5,,,,,,,
decision,121,492343,0.0-41.0-2.0,,314.1000001,run_exp/static/images/task_images/land.jpg,65,,,,,,3,,,3,,,,,,,,86328,1,4,FALSE,,,
dig,122,495048,0.0-42.0-0.0,,,,,,,,,,,"[{""stimulus"":""run_exp/static/images/task_images/dig.jpg"",""time"":0.28000003658235073},{""stimulus"":""run_exp/static/images/task_images/land.jpg"",""time"":900.5400000605732},{""stimulus"":""run_exp/static/images/task_images/dig.jpg"",""time"":1800.5050000501797}]",[],3,,,,,,,,,,,,,,
harvest,123,496052,0.0-42.0-1.0,,null,run_exp/static/images/task_images/gems/3.jpg,null,,,,,,2,,,3,,,,,3,0.547982237,0.666666667,,,,,,,
decision,124,496486,0.0-42.0-2.0,,433.31,run_exp/static/images/task_images/land.jpg,65,,,,,,2,,,3,,,,,,,,90472,1,5,FALSE,,,
dig,125,499068,0.0-43.0-0.0,,,,,,,,,,,"[{""stimulus"":""run_exp/static/images/task_images/dig.jpg"",""time"":0.18500001169741154},{""stimulus"":""run_exp/static/images/task_images/land.jpg"",""time"":877.779999980703},{""stimulus"":""run_exp/static/images/task_images/dig.jpg"",""time"":1717.5350000616163}]",[],3,,,,,,,,,,,,,,
harvest,126,500090,0.0-43.0-1.0,,null,run_exp/static/images/task_images/gems/2.jpg,null,,,,,,1,,,3,,,,,2,0.536727487,0.5,,,,,,,
decision,127,500768,0.0-43.0-2.0,,675.6300001,run_exp/static/images/task_images/land.jpg,76,,,,,,1,,,3,,,,,,,,94753,1,6,TRUE,,,
travel,128,510108,0.0-44.0-0.0,,,,,,,,,,,"[{""stimulus"":""run_exp/static/images/task_images/rocket-01.jpg"",""time"":0.20000000949949026},{""stimulus"":""run_exp/static/images/task_images/rocket-02.jpg"",""time"":1047.3500000080094},{""stimulus"":""run_exp/static/images/task_images/rocket-03.jpg"",""time"":2075.970000005327},{""stimulus"":""run_exp/static/images/task_images/rocket-04.jpg"",""time"":3116.734999930486},{""stimulus"":""run_exp/static/images/task_images/rocket-05.jpg"",""time"":4155.4299999261275},{""stimulus"":""run_exp/static/images/task_images/rocket-06.jpg"",""time"":5185.315000009723},{""stimulus"":""run_exp/static/images/task_images/rocket-07.jpg"",""time"":6236.804999993183},{""stimulus"":""run_exp/static/images/task_images/rocket-08.jpg"",""time"":7257.935000001453},{""stimulus"":""run_exp/static/images/task_images/rocket-09.jpg"",""time"":8307.584999944083}]",[],3,,,,,,,,,,,,,,
alien_welcome,129,515128,0.0-44.0-1.0,,null,run_exp/static/images/task_images/aliens/old_aliens/planet/alien_planet-40.jpg,null,,,,,,,,,,,,40,"75,63,6,40,39,50,48,56,28,7,32,37,25,78,61,10,77,31,36,43,23,72,17,3,30",,,,,,,,,,
land,130,515648,0.0-44.0-2.0,,null,run_exp/static/images/task_images/land.jpg,null,,,,,,99,,,4,,,,,,,,,,,,,,
dig,131,517667,0.0-44.0-3.0,,,,,,,,,,,"[{""stimulus"":""run_exp/static/images/task_images/dig.jpg"",""time"":0.534999999217689},{""stimulus"":""run_exp/static/images/task_images/land.jpg"",""time"":686.5349999861792},{""stimulus"":""run_exp/static/images/task_images/dig.jpg"",""time"":1355.1699999952689}]",[],4,,,,,,,,,,,,,,
harvest,132,518679,0.0-44.0-4.0,,null,run_exp/static/images/task_images/gems/99.jpg,null,,,,,,42,,,4,,,,,99,0.426398878,0.424242424,,,,,,,
decision,133,518972,0.0-44.0-5.0,,289.8650001,run_exp/static/images/task_images/land.jpg,65,,,,,,42,,,4,,,,,,,,112957,1,0,FALSE,,,
dig,134,521698,0.0-45.0-0.0,,,,,,,,,,,"[{""stimulus"":""run_exp/static/images/task_images/dig.jpg"",""time"":0.37999998312443495},{""stimulus"":""run_exp/static/images/task_images/land.jpg"",""time"":908.5900000063702},{""stimulus"":""run_exp/static/images/task_images/dig.jpg"",""time"":1817.879999987781}]",[],4,,,,,,,,,,,,,,
harvest,135,522712,0.0-45.0-1.0,,null,run_exp/static/images/task_images/gems/42.jpg,null,,,,,,24,,,4,,,,,42,0.560122137,0.571428571,,,,,,,
decision,136,523081,0.0-45.0-2.0,,367.265,run_exp/static/images/task_images/land.jpg,65,,,,,,24,,,4,,,,,,,,117066,1,1,FALSE,,,
dig,137,525718,0.0-46.0-0.0,,,,,,,,,,,"[{""stimulus"":""run_exp/static/images/task_images/dig.jpg"",""time"":0.14999997802078724},{""stimulus"":""run_exp/static/images/task_images/land.jpg"",""time"":890.4750000219792},{""stimulus"":""run_exp/static/images/task_images/dig.jpg"",""time"":1774.1099999984726}]",[],4,,,,,,,,,,,,,,
harvest,138,526729,0.0-46.0-1.0,,null,run_exp/static/images/task_images/gems/24.jpg,null,,,,,,11,,,4,,,,,24,0.460962104,0.458333333,,,,,,,
decision,139,527232,0.0-46.0-2.0,,500.335,run_exp/static/images/task_images/land.jpg,65,,,,,,11,,,4,,,,,,,,121217,1,2,FALSE,,,
dig,140,529738,0.0-47.0-0.0,,,,,,,,,,,"[{""stimulus"":""run_exp/static/images/task_images/dig.jpg"",""time"":0.5199998850002885},{""stimulus"":""run_exp/static/images/task_images/land.jpg"",""time"":843.3399999048561},{""stimulus"":""run_exp/static/images/task_images/dig.jpg"",""time"":1673.2049999991432}]",[],4,,,,,,,,,,,,,,
harvest,141,530758,0.0-47.0-1.0,,null,run_exp/static/images/task_images/gems/11.jpg,null,,,,,,5,,,4,,,,,11,0.484702569,0.454545455,,,,,,,
decision,142,531024,0.0-47.0-2.0,,264.795,run_exp/static/images/task_images/land.jpg,65,,,,,,5,,,4,,,,,,,,125010,1,3,FALSE,,,
dig,143,533768,0.0-48.0-0.0,,,,,,,,,,,"[{""stimulus"":""run_exp/static/images/task_images/dig.jpg"",""time"":0.1700000138953328},{""stimulus"":""run_exp/static/images/task_images/land.jpg"",""time"":919.6750000119209},{""stimulus"":""run_exp/static/images/task_images/dig.jpg"",""time"":1829.494999954477}]",[],4,,,,,,,,,,,,,,
harvest,144,534777,0.0-48.0-1.0,,null,run_exp/static/images/task_images/gems/5.jpg,null,,,,,,2,,,4,,,,,5,0.473906626,0.4,,,,,,,
decision,145,535312,0.0-48.0-2.0,,533.4,run_exp/static/images/task_images/land.jpg,65,,,,,,2,,,4,,,,,,,,129297,1,4,FALSE,,,
dig,146,537785,0.0-49.0-0.0,,,,,,,,,,,"[{""stimulus"":""run_exp/static/images/task_images/dig.jpg"",""time"":0.15000009443610907},{""stimulus"":""run_exp/static/images/task_images/land.jpg"",""time"":837.9700001096353},{""stimulus"":""run_exp/static/images/task_images/dig.jpg"",""time"":1654.8900000052527}]",[],4,,,,,,,,,,,,,,
harvest,147,538809,0.0-49.0-1.0,,null,run_exp/static/images/task_images/gems/2.jpg,null,,,,,,1,,,4,,,,,2,0.489198043,0.5,,,,,,,
decision,148,539188,0.0-49.0-2.0,,376.1699999,run_exp/static/images/task_images/land.jpg,65,,,,,,1,,,4,,,,,,,,133173,1,5,FALSE,,,
dig,149,541818,0.0-50.0-0.0,,,,,,,,,,,"[{""stimulus"":""run_exp/static/images/task_images/dig.jpg"",""time"":0.14999997802078724},{""stimulus"":""run_exp/static/images/task_images/land.jpg"",""time"":896.1649999255314},{""stimulus"":""run_exp/static/images/task_images/dig.jpg"",""time"":1756.4349999884143}]",[],4,,,,,,,,,,,,,,
harvest,150,542831,0.0-50.0-1.0,,null,run_exp/static/images/task_images/gems/1.jpg,null,,,,,,0,,,4,,,,,1,0.464290688,0,,,,,,,
decision,151,543119,0.0-50.0-2.0,,286.33,run_exp/static/images/task_images/land.jpg,65,,,,,,0,,,4,,,,,,,,137104,1,6,FALSE,,,
dig,152,545839,0.0-51.0-0.0,,,,,,,,,,,"[{""stimulus"":""run_exp/static/images/task_images/dig.jpg"",""time"":0.1550000160932541},{""stimulus"":""run_exp/static/images/task_images/land.jpg"",""time"":924.6400000993162},{""stimulus"":""run_exp/static/images/task_images/dig.jpg"",""time"":1824.9900001101196}]",[],4,,,,,,,,,,,,,,
harvest,153,546848,0.0-51.0-1.0,,null,run_exp/static/images/task_images/gems/0.jpg,null,,,,,,0,,,4,,,,,0,0.443856711,NaN,,,,,,,
decision,154,547273,0.0-51.0-2.0,,423.645,run_exp/static/images/task_images/land.jpg,76,,,,,,0,,,4,,,,,,,,141258,1,7,TRUE,,,
travel,155,556858,0.0-52.0-0.0,,,,,,,,,,,"[{""stimulus"":""run_exp/static/images/task_images/rocket-01.jpg"",""time"":0.22000004537403584},{""stimulus"":""run_exp/static/images/task_images/rocket-02.jpg"",""time"":1080.7450000429526},{""stimulus"":""run_exp/static/images/task_images/rocket-03.jpg"",""time"":2141.0850000102073},{""stimulus"":""run_exp/static/images/task_images/rocket-04.jpg"",""time"":3210.07999998983},{""stimulus"":""run_exp/static/images/task_images/rocket-05.jpg"",""time"":4269.220000016503},{""stimulus"":""run_exp/static/images/task_images/rocket-06.jpg"",""time"":5330.480000004172},{""stimulus"":""run_exp/static/images/task_images/rocket-07.jpg"",""time"":6399.715000065044},{""stimulus"":""run_exp/static/images/task_images/rocket-08.jpg"",""time"":7460.550000076182},{""stimulus"":""run_exp/static/images/task_images/rocket-09.jpg"",""time"":8529.444999992847}]",[],4,,,,,,,,,,,,,,
alien_welcome,156,561868,0.0-52.0-1.0,,null,run_exp/static/images/task_images/aliens/old_aliens/planet/alien_planet-39.jpg,null,,,,,,,,,,,,39,"75,63,6,40,39,50,48,56,28,7,32,37,25,78,61,10,77,31,36,43,23,72,17,3,30",,,,,,,,,,
land,157,562392,0.0-52.0-2.0,,null,run_exp/static/images/task_images/land.jpg,null,,,,,,104,,,5,,,,,,,,,,,,,,
dig,158,564407,0.0-52.0-3.0,,,,,,,,,,,"[{""stimulus"":""run_exp/static/images/task_images/dig.jpg"",""time"":0.6150000263005495},{""stimulus"":""run_exp/static/images/task_images/land.jpg"",""time"":672.9749999940395},{""stimulus"":""run_exp/static/images/task_images/dig.jpg"",""time"":1352.4250000482425}]",[],5,,,,,,,,,,,,,,
harvest,159,565417,0.0-52.0-4.0,,null,run_exp/static/images/task_images/gems/104.jpg,null,,,,,,53,,,5,,,,,104,0.512766218,0.509615385,,,,,,,
decision,160,565529,0.0-52.0-5.0,,110.2499999,run_exp/static/images/task_images/land.jpg,65,,,,,,53,,,5,,,,,,,,159514,1,0,FALSE,,,
dig,161,568438,0.0-53.0-0.0,,,,,,,,,,,"[{""stimulus"":""run_exp/static/images/task_images/dig.jpg"",""time"":0.2899999963119626},{""stimulus"":""run_exp/static/images/task_images/land.jpg"",""time"":970.7849998958409},{""stimulus"":""run_exp/static/images/task_images/dig.jpg"",""time"":1931.514999945648}]",[],5,,,,,,,,,,,,,,
harvest,162,569446,0.0-53.0-1.0,,null,run_exp/static/images/task_images/gems/53.jpg,null,,,,,,29,,,5,,,,,53,0.549373695,0.547169811,,,,,,,
decision,163,569936,0.0-53.0-2.0,,487.83,run_exp/static/images/task_images/land.jpg,65,,,,,,29,,,5,,,,,,,,163921,1,1,FALSE,,,
dig,164,572468,0.0-54.0-0.0,,,,,,,,,,,"[{""stimulus"":""run_exp/static/images/task_images/dig.jpg"",""time"":0.1550000160932541},{""stimulus"":""run_exp/static/images/task_images/land.jpg"",""time"":856.6700000083074},{""stimulus"":""run_exp/static/images/task_images/dig.jpg"",""time"":1688.2399999303743}]",[],5,,,,,,,,,,,,,,
harvest,165,573487,0.0-54.0-1.0,,null,run_exp/static/images/task_images/gems/29.jpg,null,,,,,,13,,,5,,,,,29,0.431483456,0.448275862,,,,,,,
decision,166,573578,0.0-54.0-2.0,,88.995,run_exp/static/images/task_images/land.jpg,65,,,,,,13,,,5,,,,,,,,167563,1,2,FALSE,,,
dig,167,576509,0.0-55.0-0.0,,,,,,,,,,,"[{""stimulus"":""run_exp/static/images/task_images/dig.jpg"",""time"":0.17499993555247784},{""stimulus"":""run_exp/static/images/task_images/land.jpg"",""time"":990.749999997206},{""stimulus"":""run_exp/static/images/task_images/dig.jpg"",""time"":1952.4149999488145}]",[],5,,,,,,,,,,,,,,
harvest,168,577518,0.0-55.0-1.0,,null,run_exp/static/images/task_images/gems/13.jpg,null,,,,,,6,,,5,,,,,13,0.494638351,0.461538462,,,,,,,
decision,169,577639,0.0-55.0-2.0,,118.9850001,run_exp/static/images/task_images/land.jpg,65,,,,,,6,,,5,,,,,,,,171624,1,3,FALSE,,,
dig,170,580532,0.0-56.0-0.0,,,,,,,,,,,"[{""stimulus"":""run_exp/static/images/task_images/dig.jpg"",""time"":0.1550000160932541},{""stimulus"":""run_exp/static/images/task_images/land.jpg"",""time"":964.7099999710917},{""stimulus"":""run_exp/static/images/task_images/dig.jpg"",""time"":1925.7099999813363}]",[],5,,,,,,,,,,,,,,
harvest,171,581547,0.0-56.0-1.0,,null,run_exp/static/images/task_images/gems/6.jpg,null,,,,,,3,,,5,,,,,6,0.47863526,0.5,,,,,,,
decision,172,581844,0.0-56.0-2.0,,294.8149999,run_exp/static/images/task_images/land.jpg,65,,,,,,3,,,5,,,,,,,,175829,1,4,FALSE,,,
dig,173,584559,0.0-57.0-0.0,,,,,,,,,,,"[{""stimulus"":""run_exp/static/images/task_images/dig.jpg"",""time"":0.17500005196779966},{""stimulus"":""run_exp/static/images/task_images/land.jpg"",""time"":921.3999999919906},{""stimulus"":""run_exp/static/images/task_images/dig.jpg"",""time"":1822.1250000642613}]",[],5,,,,,,,,,,,,,,
harvest,174,585578,0.0-57.0-1.0,,null,run_exp/static/images/task_images/gems/3.jpg,null,,,,,,1,,,5,,,,,3,0.488125913,0.333333333,,,,,,,
decision,175,585942,0.0-57.0-2.0,,362.79,run_exp/static/images/task_images/land.jpg,65,,,,,,1,,,5,,,,,,,,179927,1,5,FALSE,,,
dig,176,588588,0.0-58.0-0.0,,,,,,,,,,,"[{""stimulus"":""run_exp/static/images/task_images/dig.jpg"",""time"":0.18999993335455656},{""stimulus"":""run_exp/static/images/task_images/land.jpg"",""time"":896.7899999115616},{""stimulus"":""run_exp/static/images/task_images/dig.jpg"",""time"":1760.9449999872595}]",[],5,,,,,,,,,,,,,,
harvest,177,589598,0.0-58.0-1.0,,null,run_exp/static/images/task_images/gems/1.jpg,null,,,,,,1,,,5,,,,,1,0.516164151,1,,,,,,,
decision,178,589696,0.0-58.0-2.0,,96.83499997,run_exp/static/images/task_images/land.jpg,65,,,,,,1,,,5,,,,,,,,183682,1,6,FALSE,,,
dig,179,592608,0.0-59.0-0.0,,,,,,,,,,,"[{""stimulus"":""run_exp/static/images/task_images/dig.jpg"",""time"":0.2500000409781933},{""stimulus"":""run_exp/static/images/task_images/land.jpg"",""time"":982.7550000045449},{""stimulus"":""run_exp/static/images/task_images/dig.jpg"",""time"":1937.4200000893325}]",[],5,,,,,,,,,,,,,,
harvest,180,593620,0.0-59.0-1.0,,null,run_exp/static/images/task_images/gems/1.jpg,null,,,,,,1,,,5,,,,,1,0.565344745,1,,,,,,,
decision,181,593976,0.0-59.0-2.0,,354.3949999,run_exp/static/images/task_images/land.jpg,65,,,,,,0,,,5,,,,,,,,187961,1,7,FALSE,,,
dig,182,596638,0.0-60.0-0.0,,,,,,,,,,,"[{""stimulus"":""run_exp/static/images/task_images/dig.jpg"",""time"":0.14999997802078724},{""stimulus"":""run_exp/static/images/task_images/land.jpg"",""time"":886.0749999294057},{""stimulus"":""run_exp/static/images/task_images/dig.jpg"",""time"":1770.5699999351054}]",[],5,,,,,,,,,,,,,,
harvest,183,597647,0.0-60.0-1.0,,null,run_exp/static/images/task_images/gems/0.jpg,null,,,,,,0,,,5,,,,,0,0.486666813,NaN,,,,,,,
decision,184,598433,0.0-60.0-2.0,,784.2550001,run_exp/static/images/task_images/land.jpg,76,,,,,,0,,,5,,,,,,,,192418,1,8,TRUE,,,
travel,185,607658,0.0-61.0-0.0,,,,,,,,,,,"[{""stimulus"":""run_exp/static/images/task_images/rocket-01.jpg"",""time"":0.265000038780272},{""stimulus"":""run_exp/static/images/task_images/rocket-02.jpg"",""time"":1032.5100000482053},{""stimulus"":""run_exp/static/images/task_images/rocket-03.jpg"",""time"":2051.0899999644607},{""stimulus"":""run_exp/static/images/task_images/rocket-04.jpg"",""time"":3070.7949999487028},{""stimulus"":""run_exp/static/images/task_images/rocket-05.jpg"",""time"":4111.520000034943},{""stimulus"":""run_exp/static/images/task_images/rocket-06.jpg"",""time"":5133.980000042357},{""stimulus"":""run_exp/static/images/task_images/rocket-07.jpg"",""time"":6150.894999969751},{""stimulus"":""run_exp/static/images/task_images/rocket-08.jpg"",""time"":7174.104999983683},{""stimulus"":""run_exp/static/images/task_images/rocket-09.jpg"",""time"":8191.1000000545755}]",[],5,,,,,,,,,,,,,,
alien_welcome,186,612671,0.0-61.0-1.0,,null,run_exp/static/images/task_images/aliens/old_aliens/planet/alien_planet-50.jpg,null,,,,,,,,,,,,50,"75,63,6,40,39,50,48,56,28,7,32,37,25,78,61,10,77,31,36,43,23,72,17,3,30",,,,,,,,,,
land,187,613192,0.0-61.0-2.0,,null,run_exp/static/images/task_images/land.jpg,null,,,,,,112,,,6,,,,,,,,,,,,,,
dig,188,615217,0.0-61.0-3.0,,,,,,,,,,,"[{""stimulus"":""run_exp/static/images/task_images/dig.jpg"",""time"":0.5600000731647015},{""stimulus"":""run_exp/static/images/task_images/land.jpg"",""time"":675.8250000420958},{""stimulus"":""run_exp/static/images/task_images/dig.jpg"",""time"":1351.3750000856817}]",[],6,,,,,,,,,,,,,,
harvest,189,616225,0.0-61.0-4.0,,null,run_exp/static/images/task_images/gems/112.jpg,null,,,,,,84,,,6,,,,,112,0.746406144,0.75,,,,,,,
decision,190,616465,0.0-61.0-5.0,,237.8900001,run_exp/static/images/task_images/land.jpg,65,,,,,,84,,,6,,,,,,,,210450,1,0,FALSE,,,
dig,191,619247,0.0-62.0-0.0,,,,,,,,,,,"[{""stimulus"":""run_exp/static/images/task_images/dig.jpg"",""time"":0.3800000995397568},{""stimulus"":""run_exp/static/images/task_images/land.jpg"",""time"":932.4600000400096},{""stimulus"":""run_exp/static/images/task_images/dig.jpg"",""time"":1853.59499999322}]",[],6,,,,,,,,,,,,,,
harvest,192,620262,0.0-62.0-1.0,,null,run_exp/static/images/task_images/gems/84.jpg,null,,,,,,69,,,6,,,,,84,0.815969316,0.821428571,,,,,,,
decision,193,621004,0.0-62.0-2.0,,739.035,run_exp/static/images/task_images/land.jpg,65,,,,,,69,,,6,,,,,,,,214989,1,1,FALSE,,,
dig,194,623289,0.0-63.0-0.0,,,,,,,,,,,"[{""stimulus"":""run_exp/static/images/task_images/dig.jpg"",""time"":0.15499989967793226},{""stimulus"":""run_exp/static/images/task_images/land.jpg"",""time"":759.6999999368563},{""stimulus"":""run_exp/static/images/task_images/dig.jpg"",""time"":1508.9299998944625}]",[],6,,,,,,,,,,,,,,
harvest,195,624297,0.0-63.0-1.0,,null,run_exp/static/images/task_images/gems/69.jpg,null,,,,,,50,,,6,,,,,69,0.729202131,0.724637681,,,,,,,
decision,196,624762,0.0-63.0-2.0,,463.095,run_exp/static/images/task_images/land.jpg,65,,,,,,50,,,6,,,,,,,,218747,1,2,FALSE,,,
dig,197,627319,0.0-64.0-0.0,,,,,,,,,,,"[{""stimulus"":""run_exp/static/images/task_images/dig.jpg"",""time"":0.2300000051036477},{""stimulus"":""run_exp/static/images/task_images/land.jpg"",""time"":851.3050000183284},{""stimulus"":""run_exp/static/images/task_images/dig.jpg"",""time"":1701.630000025034}]",[],6,,,,,,,,,,,,,,
harvest,198,628339,0.0-64.0-1.0,,null,run_exp/static/images/task_images/gems/50.jpg,null,,,,,,39,,,6,,,,,50,0.77239683,0.78,,,,,,,
decision,199,628582,0.0-64.0-2.0,,241.1700001,run_exp/static/images/task_images/land.jpg,65,,,,,,39,,,6,,,,,,,,222568,1,3,FALSE,,,
dig,200,631348,0.0-65.0-0.0,,,,,,,,,,,"[{""stimulus"":""run_exp/static/images/task_images/dig.jpg"",""time"":0.17499993555247784},{""stimulus"":""run_exp/static/images/task_images/land.jpg"",""time"":923.6099999397993},{""stimulus"":""run_exp/static/images/task_images/dig.jpg"",""time"":1846.929999999702}]",[],6,,,,,,,,,,,,,,
harvest,201,632362,0.0-65.0-1.0,,null,run_exp/static/images/task_images/gems/39.jpg,null,,,,,,31,,,6,,,,,39,0.806765465,0.794871795,,,,,,,
decision,202,632813,0.0-65.0-2.0,,449.345,run_exp/static/images/task_images/land.jpg,65,,,,,,31,,,6,,,,,,,,226798,1,4,FALSE,,,
dig,203,635377,0.0-66.0-0.0,,,,,,,,,,,"[{""stimulus"":""run_exp/static/images/task_images/dig.jpg"",""time"":0.1900000497698784},{""stimulus"":""run_exp/static/images/task_images/land.jpg"",""time"":861.0650000628084},{""stimulus"":""run_exp/static/images/task_images/dig.jpg"",""time"":1720.560000045225}]",[],6,,,,,,,,,,,,,,
harvest,204,636392,0.0-66.0-1.0,,null,run_exp/static/images/task_images/gems/31.jpg,null,,,,,,23,,,6,,,,,31,0.730523712,0.741935484,,,,,,,
decision,205,636690,0.0-66.0-2.0,,296.15,run_exp/static/images/task_images/land.jpg,65,,,,,,23,,,6,,,,,,,,230675,1,5,FALSE,,,
dig,206,639408,0.0-67.0-0.0,,,,,,,,,,,"[{""stimulus"":""run_exp/static/images/task_images/dig.jpg"",""time"":0.1550000160932541},{""stimulus"":""run_exp/static/images/task_images/land.jpg"",""time"":914.5700000226498},{""stimulus"":""run_exp/static/images/task_images/dig.jpg"",""time"":1814.4650000613183}]",[],6,,,,,,,,,,,,,,
harvest,207,640419,0.0-67.0-1.0,,null,run_exp/static/images/task_images/gems/23.jpg,null,,,,,,18,,,6,,,,,23,0.78960648,0.782608696,,,,,,,
decision,208,640509,0.0-67.0-2.0,,87.56999997,run_exp/static/images/task_images/land.jpg,65,,,,,,18,,,6,,,,,,,,234494,1,6,FALSE,,,
dig,209,643439,0.0-68.0-0.0,,,,,,,,,,,"[{""stimulus"":""run_exp/static/images/task_images/dig.jpg"",""time"":0.14999997802078724},{""stimulus"":""run_exp/static/images/task_images/land.jpg"",""time"":975.5000000586733},{""stimulus"":""run_exp/static/images/task_images/dig.jpg"",""time"":1950.2649999922141}]",[],6,,,,,,,,,,,,,,
harvest,210,644461,0.0-68.0-1.0,,null,run_exp/static/images/task_images/gems/18.jpg,null,,,,,,12,,,6,,,,,18,0.692175814,0.666666667,,,,,,,
decision,211,645191,0.0-68.0-2.0,,727.89,run_exp/static/images/task_images/land.jpg,76,,,,,,12,,,6,,,,,,,,239176,1,7,TRUE,,,
travel,212,654485,0.0-69.0-0.0,,,,,,,,,,,"[{""stimulus"":""run_exp/static/images/task_images/rocket-01.jpg"",""time"":0.40499994065612555},{""stimulus"":""run_exp/static/images/task_images/rocket-02.jpg"",""time"":1038.010000018403},{""stimulus"":""run_exp/static/images/task_images/rocket-03.jpg"",""time"":2066.92499993369},{""stimulus"":""run_exp/static/images/task_images/rocket-04.jpg"",""time"":3107.014999957755},{""stimulus"":""run_exp/static/images/task_images/rocket-05.jpg"",""time"":4137.2449999907985},{""stimulus"":""run_exp/static/images/task_images/rocket-06.jpg"",""time"":5157.709999941289},{""stimulus"":""run_exp/static/images/task_images/rocket-07.jpg"",""time"":6186.439999961294},{""stimulus"":""run_exp/static/images/task_images/rocket-08.jpg"",""time"":7226.780000026338},{""stimulus"":""run_exp/static/images/task_images/rocket-09.jpg"",""time"":8245.909999939613}]",[],6,,,,,,,,,,,,,,
alien_welcome,213,659505,0.0-69.0-1.0,,null,run_exp/static/images/task_images/aliens/old_aliens/planet/alien_planet-48.jpg,null,,,,,,,,,,,,48,"75,63,6,40,39,50,48,56,28,7,32,37,25,78,61,10,77,31,36,43,23,72,17,3,30",,,,,,,,,,
land,214,660029,0.0-69.0-2.0,,null,run_exp/static/images/task_images/land.jpg,null,,,,,,93,,,7,,,,,,,,,,,,,,
dig,215,662052,0.0-69.0-3.0,,,,,,,,,,,"[{""stimulus"":""run_exp/static/images/task_images/dig.jpg"",""time"":0.3750000614672899},{""stimulus"":""run_exp/static/images/task_images/land.jpg"",""time"":681.6200000466779},{""stimulus"":""run_exp/static/images/task_images/dig.jpg"",""time"":1351.2800000607967}]",[],7,,,,,,,,,,,,,,
harvest,216,663064,0.0-69.0-4.0,,null,run_exp/static/images/task_images/gems/93.jpg,null,,,,,,72,,,7,,,,,93,0.778122309,0.774193548,,,,,,,
decision,217,663299,0.0-69.0-5.0,,232.94,run_exp/static/images/task_images/land.jpg,65,,,,,,72,,,7,,,,,,,,257284,1,0,FALSE,,,
dig,218,666075,0.0-70.0-0.0,,,,,,,,,,,"[{""stimulus"":""run_exp/static/images/task_images/dig.jpg"",""time"":0.1550000160932541},{""stimulus"":""run_exp/static/images/task_images/land.jpg"",""time"":927.8949999716133},{""stimulus"":""run_exp/static/images/task_images/dig.jpg"",""time"":1849.80500000529}]",[],7,,,,,,,,,,,,,,
harvest,219,667096,0.0-70.0-1.0,,null,run_exp/static/images/task_images/gems/72.jpg,null,,,,,,58,,,7,,,,,72,0.804795461,0.805555556,,,,,,,
decision,220,667533,0.0-70.0-2.0,,433.0249999,run_exp/static/images/task_images/land.jpg,65,,,,,,58,,,7,,,,,,,,261518,1,1,FALSE,,,
dig,221,670106,0.0-71.0-0.0,,,,,,,,,,,"[{""stimulus"":""run_exp/static/images/task_images/dig.jpg"",""time"":0.14999997802078724},{""stimulus"":""run_exp/static/images/task_images/land.jpg"",""time"":869.6400000480935},{""stimulus"":""run_exp/static/images/task_images/dig.jpg"",""time"":1728.1450000591576}]",[],7,,,,,,,,,,,,,,
harvest,222,671125,0.0-71.0-1.0,,null,run_exp/static/images/task_images/gems/58.jpg,null,,,,,,44,,,7,,,,,58,0.757184964,0.75862069,,,,,,,
decision,223,671639,0.0-71.0-2.0,,512.61,run_exp/static/images/task_images/land.jpg,65,,,,,,44,,,7,,,,,,,,265624,1,2,FALSE,,,
dig,224,674150,0.0-72.0-0.0,,,,,,,,,,,"[{""stimulus"":""run_exp/static/images/task_images/dig.jpg"",""time"":0.2500000409781933},{""stimulus"":""run_exp/static/images/task_images/land.jpg"",""time"":841.6849999921396},{""stimulus"":""run_exp/static/images/task_images/dig.jpg"",""time"":1662.6450000330806}]",[],7,,,,,,,,,,,,,,
harvest,225,675162,0.0-72.0-1.0,,null,run_exp/static/images/task_images/gems/44.jpg,null,,,,,,35,,,7,,,,,44,0.806661703,0.795454545,,,,,,,
decision,226,675214,0.0-72.0-2.0,,49.51499996,run_exp/static/images/task_images/land.jpg,65,,,,,,35,,,7,,,,,,,,269199,1,3,FALSE,,,
dig,227,678176,0.0-73.0-0.0,,,,,,,,,,,"[{""stimulus"":""run_exp/static/images/task_images/dig.jpg"",""time"":0.16000005416572094},{""stimulus"":""run_exp/static/images/task_images/land.jpg"",""time"":986.4850000012666},{""stimulus"":""run_exp/static/images/task_images/dig.jpg"",""time"":1986.765000037849}]",[],7,,,,,,,,,,,,,,
harvest,228,679184,0.0-73.0-1.0,,null,run_exp/static/images/task_images/gems/35.jpg,null,,,,,,29,,,7,,,,,35,0.82520047,0.828571429,,,,,,,
decision,229,679357,0.0-73.0-2.0,,164.765,run_exp/static/images/task_images/land.jpg,65,,,,,,29,,,7,,,,,,,,273342,1,4,FALSE,,,
dig,230,682210,0.0-74.0-0.0,,,,,,,,,,,"[{""stimulus"":""run_exp/static/images/task_images/dig.jpg"",""time"":0.16499997582286596},{""stimulus"":""run_exp/static/images/task_images/land.jpg"",""time"":963.5550000239164},{""stimulus"":""run_exp/static/images/task_images/dig.jpg"",""time"":1897.8499999502674}]",[],7,,,,,,,,,,,,,,
harvest,231,683217,0.0-74.0-1.0,,null,run_exp/static/images/task_images/gems/29.jpg,null,,,,,,22,,,7,,,,,29,0.762568436,0.75862069,,,,,,,
decision,232,683537,0.0-74.0-2.0,,317.62,run_exp/static/images/task_images/land.jpg,65,,,,,,22,,,7,,,,,,,,277522,1,5,FALSE,,,
dig,233,686245,0.0-75.0-0.0,,,,,,,,,,,"[{""stimulus"":""run_exp/static/images/task_images/dig.jpg"",""time"":0.1550000160932541},{""stimulus"":""run_exp/static/images/task_images/land.jpg"",""time"":904.8049999400973},{""stimulus"":""run_exp/static/images/task_images/dig.jpg"",""time"":1804.4999999692664}]",[],7,,,,,,,,,,,,,,
harvest,234,687253,0.0-75.0-1.0,,null,run_exp/static/images/task_images/gems/22.jpg,null,,,,,,18,,,7,,,,,22,0.809796053,0.818181818,,,,,,,
decision,235,687373,0.0-75.0-2.0,,118.38,run_exp/static/images/task_images/land.jpg,65,,,,,,18,,,7,,,,,,,,281358,1,6,FALSE,,,
dig,236,690275,0.0-76.0-0.0,,,,,,,,,,,"[{""stimulus"":""run_exp/static/images/task_images/dig.jpg"",""time"":0.1550000160932541},{""stimulus"":""run_exp/static/images/task_images/land.jpg"",""time"":967.2649999847636},{""stimulus"":""run_exp/static/images/task_images/dig.jpg"",""time"":1927.2350000683218}]",[],7,,,,,,,,,,,,,,
harvest,237,691298,0.0-76.0-1.0,,null,run_exp/static/images/task_images/gems/18.jpg,null,,,,,,15,,,7,,,,,18,0.848422373,0.833333333,,,,,,,
decision,238,691691,0.0-76.0-2.0,,390.87,run_exp/static/images/task_images/land.jpg,65,,,,,,15,,,7,,,,,,,,285676,1,7,FALSE,,,
dig,239,694312,0.0-77.0-0.0,,,,,,,,,,,"[{""stimulus"":""run_exp/static/images/task_images/dig.jpg"",""time"":0.1550000160932541},{""stimulus"":""run_exp/static/images/task_images/land.jpg"",""time"":879.9550000112504},{""stimulus"":""run_exp/static/images/task_images/dig.jpg"",""time"":1758.4200000856072}]",[],7,,,,,,,,,,,,,,
harvest,240,695319,0.0-77.0-1.0,,null,run_exp/static/images/task_images/gems/15.jpg,null,,,,,,12,,,7,,,,,15,0.811713077,0.8,,,,,,,
decision,241,695654,0.0-77.0-2.0,,332.515,run_exp/static/images/task_images/land.jpg,65,,,,,,12,,,7,,,,,,,,289639,1,8,FALSE,,,
dig,242,698345,0.0-78.0-0.0,,,,,,,,,,,"[{""stimulus"":""run_exp/static/images/task_images/dig.jpg"",""time"":0.1949999714270234},{""stimulus"":""run_exp/static/images/task_images/land.jpg"",""time"":896.584999980405},{""stimulus"":""run_exp/static/images/task_images/dig.jpg"",""time"":1787.899999995716}]",[],7,,,,,,,,,,,,,,
harvest,243,699366,0.0-78.0-1.0,,null,run_exp/static/images/task_images/gems/12.jpg,null,,,,,,10,,,7,,,,,12,0.847146518,0.833333333,,,,,,,
decision,244,702380,0.0-78.0-2.0,,null,run_exp/static/images/task_images/land.jpg,null,,,,,,10,,,7,,,,,,,,296365,1,9,FALSE,,,
time_out,245,704390,0.0-79.0-0.0,,null,run_exp/static/images/task_images/time_out.jpg,null,,,,,,10,,,,,,,,,,,,,,,,,
decision,246,705209,0.0-79.0-1.0,,814.015,run_exp/static/images/task_images/land.jpg,76,,,,,,10,,,7,,,,,,,,299195,1,9,TRUE,,,
travel,247,714405,0.0-80.0-0.0,,,,,,,,,,,"[{""stimulus"":""run_exp/static/images/task_images/rocket-01.jpg"",""time"":0.434999936260283},{""stimulus"":""run_exp/static/images/task_images/rocket-02.jpg"",""time"":1025.4299999214709},{""stimulus"":""run_exp/static/images/task_images/rocket-03.jpg"",""time"":2043.5549999820068},{""stimulus"":""run_exp/static/images/task_images/rocket-04.jpg"",""time"":3065.4649999924004},{""stimulus"":""run_exp/static/images/task_images/rocket-05.jpg"",""time"":4084.8649999825284},{""stimulus"":""run_exp/static/images/task_images/rocket-06.jpg"",""time"":5103.7950000027195},{""stimulus"":""run_exp/static/images/task_images/rocket-07.jpg"",""time"":6143.659999943338},{""stimulus"":""run_exp/static/images/task_images/rocket-08.jpg"",""time"":7143.479999969713},{""stimulus"":""run_exp/static/images/task_images/rocket-09.jpg"",""time"":8164.204999920912}]",[],7,,,,,,,,,,,,,,
alien_welcome,248,719415,0.0-80.0-1.0,,null,run_exp/static/images/task_images/aliens/old_aliens/planet/alien_planet-56.jpg,null,,,,,,,,,,,,56,"75,63,6,40,39,50,48,56,28,7,32,37,25,78,61,10,77,31,36,43,23,72,17,3,30",,,,,,,,,,
land,249,719939,0.0-80.0-2.0,,null,run_exp/static/images/task_images/land.jpg,null,,,,,,101,,,8,,,,,,,,,,,,,,
dig,250,721956,0.0-80.0-3.0,,,,,,,,,,,"[{""stimulus"":""run_exp/static/images/task_images/dig.jpg"",""time"":0.5949999904260039},{""stimulus"":""run_exp/static/images/task_images/land.jpg"",""time"":677.9150000074878},{""stimulus"":""run_exp/static/images/task_images/dig.jpg"",""time"":1346.9099999638274}]",[],8,,,,,,,,,,,,,,
harvest,251,722975,0.0-80.0-4.0,,null,run_exp/static/images/task_images/gems/101.jpg,null,,,,,,76,,,8,,,,,101,0.752101516,0.752475248,,,,,,,
decision,252,723170,0.0-80.0-5.0,,192.225,run_exp/static/images/task_images/land.jpg,65,,,,,,76,,,8,,,,,,,,317155,1,0,TRUE,,,
end_of_block_continue,253,732068,0.0-81.0-0.0,,null,run_exp/static/audio/clip_32_block_end.m4a,,,,,,null,,,,,,,,,,,,,,,,,,
alien_welcome,254,737092,0.0-82.0-0.0,,null,run_exp/static/images/task_images/aliens/old_aliens/planet/alien_planet-28.jpg,null,,,,,,,,,,,,28,"75,63,6,40,39,50,48,56,28,7,32,37,25,78,61,10,77,31,36,43,23,72,17,3,30",,,,,,,,,,
land,255,737596,0.0-82.0-1.0,,null,run_exp/static/images/task_images/land.jpg,null,,,,,,104,,,9,,,,,,,,,,,,,,
dig,256,739605,0.0-82.0-2.0,,,,,,,,,,,"[{""stimulus"":""run_exp/static/images/task_images/dig.jpg"",""time"":0.2649999223649502},{""stimulus"":""run_exp/static/images/task_images/land.jpg"",""time"":682.1449999697506},{""stimulus"":""run_exp/static/images/task_images/dig.jpg"",""time"":1336.8849999969825}]",[],9,,,,,,,,,,,,,,
harvest,257,740609,0.0-82.0-3.0,,null,run_exp/static/images/task_images/gems/104.jpg,null,,,,,,21,,,9,,,,,104,0.200021404,0.201923077,,,,,,,
decision,258,740781,0.0-82.0-4.0,,170.0800001,run_exp/static/images/task_images/land.jpg,65,,,,,,21,,,9,,,,,,,,8700,2,0,FALSE,,,
dig,259,743624,0.0-83.0-0.0,,,,,,,,,,,"[{""stimulus"":""run_exp/static/images/task_images/dig.jpg"",""time"":0.1700000138953328},{""stimulus"":""run_exp/static/images/task_images/land.jpg"",""time"":953.7499999860302},{""stimulus"":""run_exp/static/images/task_images/dig.jpg"",""time"":1903.7449999013916}]",[],9,,,,,,,,,,,,,,
harvest,260,744644,0.0-83.0-1.0,,null,run_exp/static/images/task_images/gems/21.jpg,null,,,,,,5,,,9,,,,,21,0.248876039,0.238095238,,,,,,,
decision,261,744764,0.0-83.0-2.0,,117.625,run_exp/static/images/task_images/land.jpg,65,,,,,,5,,,9,,,,,,,,12683,2,1,FALSE,,,
dig,262,747665,0.0-84.0-0.0,,,,,,,,,,,"[{""stimulus"":""run_exp/static/images/task_images/dig.jpg"",""time"":0.14999997802078724},{""stimulus"":""run_exp/static/images/task_images/land.jpg"",""time"":975.6999999517575},{""stimulus"":""run_exp/static/images/task_images/dig.jpg"",""time"":1939.5999999251217}]",[],9,,,,,,,,,,,,,,
harvest,263,748675,0.0-84.0-1.0,,null,run_exp/static/images/task_images/gems/5.jpg,null,,,,,,1,,,9,,,,,5,0.161305916,0.2,,,,,,,
decision,264,748709,0.0-84.0-2.0,,31.92500002,run_exp/static/images/task_images/land.jpg,65,,,,,,1,,,9,,,,,,,,16628,2,2,FALSE,,,
dig,265,751696,0.0-85.0-0.0,,,,,,,,,,,"[{""stimulus"":""run_exp/static/images/task_images/dig.jpg"",""time"":0.17500005196779966},{""stimulus"":""run_exp/static/images/task_images/land.jpg"",""time"":995.2350000385195},{""stimulus"":""run_exp/static/images/task_images/dig.jpg"",""time"":1982.7050000894815}]",[],9,,,,,,,,,,,,,,
harvest,266,752715,0.0-85.0-1.0,,null,run_exp/static/images/task_images/gems/1.jpg,null,,,,,,0,,,9,,,,,1,0.246685056,0,,,,,,,
decision,267,753936,0.0-85.0-2.0,,1217.615,run_exp/static/images/task_images/land.jpg,76,,,,,,0,,,9,,,,,,,,21855,2,3,TRUE,,,
travel,268,762736,0.0-86.0-0.0,,,,,,,,,,,"[{""stimulus"":""run_exp/static/images/task_images/rocket-01.jpg"",""time"":0.4949999274685979},{""stimulus"":""run_exp/static/images/task_images/rocket-02.jpg"",""time"":981.2499999534339},{""stimulus"":""run_exp/static/images/task_images/rocket-03.jpg"",""time"":1967.5249999854714},{""stimulus"":""run_exp/static/images/task_images/rocket-04.jpg"",""time"":2947.609999915585},{""stimulus"":""run_exp/static/images/task_images/rocket-05.jpg"",""time"":3907.7899999683723},{""stimulus"":""run_exp/static/images/task_images/rocket-06.jpg"",""time"":4887.73499999661},{""stimulus"":""run_exp/static/images/task_images/rocket-07.jpg"",""time"":5867.8049999289215},{""stimulus"":""run_exp/static/images/task_images/rocket-08.jpg"",""time"":6846.56500001438},{""stimulus"":""run_exp/static/images/task_images/rocket-09.jpg"",""time"":7809.639999992214}]",[],9,,,,,,,,,,,,,,
alien_welcome,269,767756,0.0-86.0-1.0,,null,run_exp/static/images/task_images/aliens/old_aliens/planet/alien_planet-7.jpg,null,,,,,,,,,,,,7,"75,63,6,40,39,50,48,56,28,7,32,37,25,78,61,10,77,31,36,43,23,72,17,3,30",,,,,,,,,,
land,270,768260,0.0-86.0-2.0,,null,run_exp/static/images/task_images/land.jpg,null,,,,,,102,,,10,,,,,,,,,,,,,,
dig,271,770270,0.0-86.0-3.0,,,,,,,,,,,"[{""stimulus"":""run_exp/static/images/task_images/dig.jpg"",""time"":0.49000000581145287},{""stimulus"":""run_exp/static/images/task_images/land.jpg"",""time"":670.6199999898672},{""stimulus"":""run_exp/static/images/task_images/dig.jpg"",""time"":1351.9800000358373}]",[],10,,,,,,,,,,,,,,
harvest,272,771273,0.0-86.0-4.0,,null,run_exp/static/images/task_images/gems/102.jpg,null,,,,,,29,,,10,,,,,102,0.285818665,0.284313725,,,,,,,
decision,273,771484,0.0-86.0-5.0,,208.395,run_exp/static/images/task_images/land.jpg,65,,,,,,29,,,10,,,,,,,,39403,2,0,FALSE,,,
dig,274,774286,0.0-87.0-0.0,,,,,,,,,,,"[{""stimulus"":""run_exp/static/images/task_images/dig.jpg"",""time"":0.16499997582286596},{""stimulus"":""run_exp/static/images/task_images/land.jpg"",""time"":944.7899999795482},{""stimulus"":""run_exp/static/images/task_images/dig.jpg"",""time"":1865.540000027977}]",[],10,,,,,,,,,,,,,,
harvest,275,775293,0.0-87.0-1.0,,null,run_exp/static/images/task_images/gems/29.jpg,null,,,,,,6,,,10,,,,,29,0.204535417,0.206896552,,,,,,,
decision,276,775504,0.0-87.0-2.0,,208.695,run_exp/static/images/task_images/land.jpg,65,,,,,,6,,,10,,,,,,,,43423,2,1,FALSE,,,
dig,277,778315,0.0-88.0-0.0,,,,,,,,,,,"[{""stimulus"":""run_exp/static/images/task_images/dig.jpg"",""time"":0.1700000138953328},{""stimulus"":""run_exp/static/images/task_images/land.jpg"",""time"":936.0749999759719},{""stimulus"":""run_exp/static/images/task_images/dig.jpg"",""time"":1874.8449999839067}]",[],10,,,,,,,,,,,,,,
harvest,278,779325,0.0-88.0-1.0,,null,run_exp/static/images/task_images/gems/6.jpg,null,,,,,,1,,,10,,,,,6,0.152170679,0.166666667,,,,,,,
decision,279,779677,0.0-88.0-2.0,,350.4,run_exp/static/images/task_images/land.jpg,65,,,,,,1,,,10,,,,,,,,47596,2,2,FALSE,,,
dig,280,782346,0.0-89.0-0.0,,,,,,,,,,,"[{""stimulus"":""run_exp/static/images/task_images/dig.jpg"",""time"":0.16499997582286596},{""stimulus"":""run_exp/static/images/task_images/land.jpg"",""time"":893.5599999967963},{""stimulus"":""run_exp/static/images/task_images/dig.jpg"",""time"":1773.3249999582767}]",[],10,,,,,,,,,,,,,,
harvest,281,783358,0.0-89.0-1.0,,null,run_exp/static/images/task_images/gems/1.jpg,null,,,,,,0,,,10,,,,,1,0.272942042,0,,,,,,,
decision,282,783389,0.0-89.0-2.0,,29.19999999,run_exp/static/images/task_images/land.jpg,65,,,,,,0,,,10,,,,,,,,51309,2,3,FALSE,,,
dig,283,786376,0.0-90.0-0.0,,,,,,,,,,,"[{""stimulus"":""run_exp/static/images/task_images/dig.jpg"",""time"":0.2549999626353383},{""stimulus"":""run_exp/static/images/task_images/land.jpg"",""time"":999.6650000102818},{""stimulus"":""run_exp/static/images/task_images/dig.jpg"",""time"":1990.570000023581}]",[],10,,,,,,,,,,,,,,
harvest,284,787395,0.0-90.0-1.0,,null,run_exp/static/images/task_images/gems/0.jpg,null,,,,,,0,,,10,,,,,0,0.217875083,NaN,,,,,,,
decision,285,787579,0.0-90.0-2.0,,181.8199999,run_exp/static/images/task_images/land.jpg,65,,,,,,0,,,10,,,,,,,,55498,2,4,FALSE,,,
dig,286,790416,0.0-91.0-0.0,,,,,,,,,,,"[{""stimulus"":""run_exp/static/images/task_images/dig.jpg"",""time"":0.14999997802078724},{""stimulus"":""run_exp/static/images/task_images/land.jpg"",""time"":941.2800000282004},{""stimulus"":""run_exp/static/images/task_images/dig.jpg"",""time"":1881.7150000249967}]",[],10,,,,,,,,,,,,,,
harvest,287,791435,0.0-91.0-1.0,,null,run_exp/static/images/task_images/gems/0.jpg,null,,,,,,0,,,10,,,,,0,0.158108824,NaN,,,,,,,
decision,288,791956,0.0-91.0-2.0,,518.22,run_exp/static/images/task_images/land.jpg,76,,,,,,0,,,10,,,,,,,,59875,2,5,TRUE,,,
travel,289,801445,0.0-92.0-0.0,,,,,,,,,,,"[{""stimulus"":""run_exp/static/images/task_images/rocket-01.jpg"",""time"":0.1550000160932541},{""stimulus"":""run_exp/static/images/task_images/rocket-02.jpg"",""time"":1065.584999974817},{""stimulus"":""run_exp/static/images/task_images/rocket-03.jpg"",""time"":2124.765000073239},{""stimulus"":""run_exp/static/images/task_images/rocket-04.jpg"",""time"":3174.020000034943},{""stimulus"":""run_exp/static/images/task_images/rocket-05.jpg"",""time"":4225.680000032298},{""stimulus"":""run_exp/static/images/task_images/rocket-06.jpg"",""time"":5274.265000014566},{""stimulus"":""run_exp/static/images/task_images/rocket-07.jpg"",""time"":6325.659999973141},{""stimulus"":""run_exp/static/images/task_images/rocket-08.jpg"",""time"":7384.124999982305},{""stimulus"":""run_exp/static/images/task_images/rocket-09.jpg"",""time"":8435.375000000931}]",[],10,,,,,,,,,,,,,,
alien_welcome,290,806451,0.0-92.0-1.0,,null,run_exp/static/images/task_images/aliens/old_aliens/planet/alien_planet-32.jpg,null,,,,,,,,,,,,32,"75,63,6,40,39,50,48,56,28,7,32,37,25,78,61,10,77,31,36,43,23,72,17,3,30",,,,,,,,,,
land,291,806970,0.0-92.0-2.0,,null,run_exp/static/images/task_images/land.jpg,null,,,,,,90,,,11,,,,,,,,,,,,,,
dig,292,808983,0.0-92.0-3.0,,,,,,,,,,,"[{""stimulus"":""run_exp/static/images/task_images/dig.jpg"",""time"":0.534999999217689},{""stimulus"":""run_exp/static/images/task_images/land.jpg"",""time"":686.5250000264496},{""stimulus"":""run_exp/static/images/task_images/dig.jpg"",""time"":1341.3150000851601}]",[],11,,,,,,,,,,,,,,
harvest,293,810005,0.0-92.0-4.0,,null,run_exp/static/images/task_images/gems/90.jpg,null,,,,,,18,,,11,,,,,90,0.204666861,0.2,,,,,,,
decision,294,810146,0.0-92.0-5.0,,138.7100001,run_exp/static/images/task_images/land.jpg,65,,,,,,18,,,11,,,,,,,,78065,2,0,FALSE,,,
dig,295,813020,0.0-93.0-0.0,,,,,,,,,,,"[{""stimulus"":""run_exp/static/images/task_images/dig.jpg"",""time"":0.14999997802078724},{""stimulus"":""run_exp/static/images/task_images/land.jpg"",""time"":964.8850000230595},{""stimulus"":""run_exp/static/images/task_images/dig.jpg"",""time"":1934.320000000298}]",[],11,,,,,,,,,,,,,,
harvest,296,814036,0.0-93.0-1.0,,null,run_exp/static/images/task_images/gems/18.jpg,null,,,,,,2,,,11,,,,,18,0.132030916,0.111111111,,,,,,,
decision,297,814194,0.0-93.0-2.0,,156.6100001,run_exp/static/images/task_images/land.jpg,65,,,,,,2,,,11,,,,,,,,82113,2,1,FALSE,,,
dig,298,817056,0.0-94.0-0.0,,,,,,,,,,,"[{""stimulus"":""run_exp/static/images/task_images/dig.jpg"",""time"":0.1949999714270234},{""stimulus"":""run_exp/static/images/task_images/land.jpg"",""time"":956.7299999762326},{""stimulus"":""run_exp/static/images/task_images/dig.jpg"",""time"":1896.7399999964982}]",[],11,,,,,,,,,,,,,,
harvest,299,818065,0.0-94.0-1.0,,null,run_exp/static/images/task_images/gems/2.jpg,null,,,,,,0,,,11,,,,,2,0.225387793,0,,,,,,,
decision,300,818194,0.0-94.0-2.0,,126.87,run_exp/static/images/task_images/land.jpg,65,,,,,,0,,,11,,,,,,,,86113,2,2,FALSE,,,
dig,301,821079,0.0-95.0-0.0,,,,,,,,,,,"[{""stimulus"":""run_exp/static/images/task_images/dig.jpg"",""time"":0.3649999853223562},{""stimulus"":""run_exp/static/images/task_images/land.jpg"",""time"":969.8900000657886},{""stimulus"":""run_exp/static/images/task_images/dig.jpg"",""time"":1925.9450000245124}]",[],11,,,,,,,,,,,,,,
harvest,302,822088,0.0-95.0-1.0,,null,run_exp/static/images/task_images/gems/0.jpg,null,,,,,,0,,,11,,,,,0,0.174553487,NaN,,,,,,,
decision,303,822342,0.0-95.0-2.0,,251.3250001,run_exp/static/images/task_images/land.jpg,65,,,,,,0,,,11,,,,,,,,90261,2,3,FALSE,,,
dig,304,825106,0.0-96.0-0.0,,,,,,,,,,,"[{""stimulus"":""run_exp/static/images/task_images/dig.jpg"",""time"":0.19500008784234524},{""stimulus"":""run_exp/static/images/task_images/land.jpg"",""time"":929.5050000073388},{""stimulus"":""run_exp/static/images/task_images/dig.jpg"",""time"":1838.575000059791}]",[],11,,,,,,,,,,,,,,
harvest,305,826123,0.0-96.0-1.0,,null,run_exp/static/images/task_images/gems/0.jpg,null,,,,,,0,,,11,,,,,0,0.259635249,NaN,,,,,,,
decision,306,826379,0.0-96.0-2.0,,253.8450001,run_exp/static/images/task_images/land.jpg,65,,,,,,0,,,11,,,,,,,,94298,2,4,FALSE,,,
dig,307,829136,0.0-97.0-0.0,,,,,,,,,,,"[{""stimulus"":""run_exp/static/images/task_images/dig.jpg"",""time"":0.1550000160932541},{""stimulus"":""run_exp/static/images/task_images/land.jpg"",""time"":932.7950000297278},{""stimulus"":""run_exp/static/images/task_images/dig.jpg"",""time"":1839.2999999923632}]",[],11,,,,,,,,,,,,,,
harvest,308,830146,0.0-97.0-1.0,,null,run_exp/static/images/task_images/gems/0.jpg,null,,,,,,0,,,11,,,,,0,0.157016375,NaN,,,,,,,
decision,309,830467,0.0-97.0-2.0,,319.255,run_exp/static/images/task_images/land.jpg,65,,,,,,0,,,11,,,,,,,,98386,2,5,FALSE,,,
dig,310,833166,0.0-98.0-0.0,,,,,,,,,,,"[{""stimulus"":""run_exp/static/images/task_images/dig.jpg"",""time"":0.20499993115663528},{""stimulus"":""run_exp/static/images/task_images/land.jpg"",""time"":916.0999999148771},{""stimulus"":""run_exp/static/images/task_images/dig.jpg"",""time"":1806.125000002794}]",[],11,,,,,,,,,,,,,,
harvest,311,834173,0.0-98.0-1.0,,null,run_exp/static/images/task_images/gems/0.jpg,null,,,,,,0,,,11,,,,,0,0.199834268,NaN,,,,,,,
decision,312,835303,0.0-98.0-2.0,,1128.01,run_exp/static/images/task_images/land.jpg,76,,,,,,0,,,11,,,,,,,,103222,2,6,TRUE,,,
travel,313,844196,0.0-99.0-0.0,,,,,,,,,,,"[{""stimulus"":""run_exp/static/images/task_images/rocket-01.jpg"",""time"":0.18500001169741154},{""stimulus"":""run_exp/static/images/task_images/rocket-02.jpg"",""time"":996.5350000420585},{""stimulus"":""run_exp/static/images/task_images/rocket-03.jpg"",""time"":1986.5500000305474},{""stimulus"":""run_exp/static/images/task_images/rocket-04.jpg"",""time"":2967.9250000044703},{""stimulus"":""run_exp/static/images/task_images/rocket-05.jpg"",""time"":3949.224999989383},{""stimulus"":""run_exp/static/images/task_images/rocket-06.jpg"",""time"":4928.0049999943},{""stimulus"":""run_exp/static/images/task_images/rocket-07.jpg"",""time"":5928.0600000638515},{""stimulus"":""run_exp/static/images/task_images/rocket-08.jpg"",""time"":6918.560000020079},{""stimulus"":""run_exp/static/images/task_images/rocket-09.jpg"",""time"":7882.4850000673905}]",[],11,,,,,,,,,,,,,,
alien_welcome,314,849217,0.0-99.0-1.0,,null,run_exp/static/images/task_images/aliens/old_aliens/planet/alien_planet-37.jpg,null,,,,,,,,,,,,37,"75,63,6,40,39,50,48,56,28,7,32,37,25,78,61,10,77,31,36,43,23,72,17,3,30",,,,,,,,,,
land,315,849731,0.0-99.0-2.0,,null,run_exp/static/images/task_images/land.jpg,null,,,,,,99,,,12,,,,,,,,,,,,,,
dig,316,851747,0.0-99.0-3.0,,,,,,,,,,,"[{""stimulus"":""run_exp/static/images/task_images/dig.jpg"",""time"":0.6199999479576945},{""stimulus"":""run_exp/static/images/task_images/land.jpg"",""time"":681.2899999786168},{""stimulus"":""run_exp/static/images/task_images/dig.jpg"",""time"":1340.5499999644235}]",[],12,,,,,,,,,,,,,,
harvest,317,852761,0.0-99.0-4.0,,null,run_exp/static/images/task_images/gems/99.jpg,null,,,,,,81,,,12,,,,,99,0.820460147,0.818181818,,,,,,,
decision,318,852961,0.0-99.0-5.0,,195.2699999,run_exp/static/images/task_images/land.jpg,65,,,,,,81,,,12,,,,,,,,120880,2,0,FALSE,,,
dig,319,855788,0.0-100.0-0.0,,,,,,,,,,,"[{""stimulus"":""run_exp/static/images/task_images/dig.jpg"",""time"":0.265000038780272},{""stimulus"":""run_exp/static/images/task_images/land.jpg"",""time"":940.9650000743568},{""stimulus"":""run_exp/static/images/task_images/dig.jpg"",""time"":1876.189999980852}]",[],12,,,,,,,,,,,,,,
harvest,320,856792,0.0-100.0-1.0,,null,run_exp/static/images/task_images/gems/81.jpg,null,,,,,,63,,,12,,,,,81,0.780169435,0.777777778,,,,,,,
decision,321,857042,0.0-100.0-2.0,,248.505,run_exp/static/images/task_images/land.jpg,65,,,,,,63,,,12,,,,,,,,124961,2,1,FALSE,,,
dig,322,859806,0.0-101.0-0.0,,,,,,,,,,,"[{""stimulus"":""run_exp/static/images/task_images/dig.jpg"",""time"":0.16000005416572094},{""stimulus"":""run_exp/static/images/task_images/land.jpg"",""time"":934.7350000170991},{""stimulus"":""run_exp/static/images/task_images/dig.jpg"",""time"":1840.4650000156835}]",[],12,,,,,,,,,,,,,,
harvest,323,860825,0.0-101.0-1.0,,null,run_exp/static/images/task_images/gems/63.jpg,null,,,,,,44,,,12,,,,,63,0.696718947,0.698412698,,,,,,,
decision,324,860875,0.0-101.0-2.0,,47.24999995,run_exp/static/images/task_images/land.jpg,65,,,,,,44,,,12,,,,,,,,128794,2,2,FALSE,,,
dig,325,863847,0.0-102.0-0.0,,,,,,,,,,,"[{""stimulus"":""run_exp/static/images/task_images/dig.jpg"",""time"":0.1550000160932541},{""stimulus"":""run_exp/static/images/task_images/land.jpg"",""time"":996.2049999739975},{""stimulus"":""run_exp/static/images/task_images/dig.jpg"",""time"":1987.1949999360368}]",[],12,,,,,,,,,,,,,,
harvest,326,864870,0.0-102.0-1.0,,null,run_exp/static/images/task_images/gems/44.jpg,null,,,,,,35,,,12,,,,,44,0.800782043,0.795454545,,,,,,,
decision,327,865134,0.0-102.0-2.0,,261.91,run_exp/static/images/task_images/land.jpg,65,,,,,,35,,,12,,,,,,,,133053,2,3,FALSE,,,
dig,328,867896,0.0-103.0-0.0,,,,,,,,,,,"[{""stimulus"":""run_exp/static/images/task_images/dig.jpg"",""time"":0.18500001169741154},{""stimulus"":""run_exp/static/images/task_images/land.jpg"",""time"":916.4449999807402},{""stimulus"":""run_exp/static/images/task_images/dig.jpg"",""time"":1836.615000036545}]",[],12,,,,,,,,,,,,,,
harvest,329,868906,0.0-103.0-1.0,,null,run_exp/static/images/task_images/gems/35.jpg,null,,,,,,33,,,12,,,,,35,0.938225725,0.942857143,,,,,,,
decision,330,869262,0.0-103.0-2.0,,353.92,run_exp/static/images/task_images/land.jpg,65,,,,,,33,,,12,,,,,,,,137181,2,4,FALSE,,,
dig,331,871917,0.0-104.0-0.0,,,,,,,,,,,"[{""stimulus"":""run_exp/static/images/task_images/dig.jpg"",""time"":0.1599999377503991},{""stimulus"":""run_exp/static/images/task_images/land.jpg"",""time"":890.5350000131875},{""stimulus"":""run_exp/static/images/task_images/dig.jpg"",""time"":1779.5100000221282}]",[],12,,,,,,,,,,,,,,
harvest,332,872938,0.0-104.0-1.0,,null,run_exp/static/images/task_images/gems/33.jpg,null,,,,,,26,,,12,,,,,33,0.797121084,0.787878788,,,,,,,
decision,333,873026,0.0-104.0-2.0,,85.43999994,run_exp/static/images/task_images/land.jpg,65,,,,,,26,,,12,,,,,,,,140945,2,5,FALSE,,,
dig,334,875947,0.0-105.0-0.0,,,,,,,,,,,"[{""stimulus"":""run_exp/static/images/task_images/dig.jpg"",""time"":0.26000000070780516},{""stimulus"":""run_exp/static/images/task_images/land.jpg"",""time"":975.6849999539554},{""stimulus"":""run_exp/static/images/task_images/dig.jpg"",""time"":1955.9849998913705}]",[],12,,,,,,,,,,,,,,
harvest,335,876956,0.0-105.0-1.0,,null,run_exp/static/images/task_images/gems/26.jpg,null,,,,,,19,,,12,,,,,26,0.73624361,0.730769231,,,,,,,
decision,336,877366,0.0-105.0-2.0,,408.28,run_exp/static/images/task_images/land.jpg,65,,,,,,19,,,12,,,,,,,,145285,2,6,FALSE,,,
dig,337,879977,0.0-106.0-0.0,,,,,,,,,,,"[{""stimulus"":""run_exp/static/images/task_images/dig.jpg"",""time"":0.1550000160932541},{""stimulus"":""run_exp/static/images/task_images/land.jpg"",""time"":885.550000006333},{""stimulus"":""run_exp/static/images/task_images/dig.jpg"",""time"":1744.4000000832602}]",[],12,,,,,,,,,,,,,,
harvest,338,880981,0.0-106.0-1.0,,null,run_exp/static/images/task_images/gems/19.jpg,null,,,,,,15,,,12,,,,,19,0.794813442,0.789473684,,,,,,,
decision,339,881352,0.0-106.0-2.0,,369.31,run_exp/static/images/task_images/land.jpg,65,,,,,,15,,,12,,,,,,,,149271,2,7,FALSE,,,
dig,340,884001,0.0-107.0-0.0,,,,,,,,,,,"[{""stimulus"":""run_exp/static/images/task_images/dig.jpg"",""time"":0.1799999736249447},{""stimulus"":""run_exp/static/images/task_images/land.jpg"",""time"":879.1699999710545},{""stimulus"":""run_exp/static/images/task_images/dig.jpg"",""time"":1758.8449999457225}]",[],12,,,,,,,,,,,,,,
harvest,341,885006,0.0-107.0-1.0,,null,run_exp/static/images/task_images/gems/15.jpg,null,,,,,,12,,,12,,,,,15,0.80597459,0.8,,,,,,,
decision,342,885108,0.0-107.0-2.0,,99.87499996,run_exp/static/images/task_images/land.jpg,65,,,,,,12,,,12,,,,,,,,153027,2,8,FALSE,,,
dig,343,888025,0.0-108.0-0.0,,,,,,,,,,,"[{""stimulus"":""run_exp/static/images/task_images/dig.jpg"",""time"":0.1550000160932541},{""stimulus"":""run_exp/static/images/task_images/land.jpg"",""time"":983.0700000748038},{""stimulus"":""run_exp/static/images/task_images/dig.jpg"",""time"":1942.3550000647083}]",[],12,,,,,,,,,,,,,,
harvest,344,889039,0.0-108.0-1.0,,null,run_exp/static/images/task_images/gems/12.jpg,null,,,,,,9,,,12,,,,,12,0.776161997,0.75,,,,,,,
decision,345,889336,0.0-108.0-2.0,,294.875,run_exp/static/images/task_images/land.jpg,65,,,,,,9,,,12,,,,,,,,157255,2,9,FALSE,,,
dig,346,892055,0.0-109.0-0.0,,,,,,,,,,,"[{""stimulus"":""run_exp/static/images/task_images/dig.jpg"",""time"":0.1799999736249447},{""stimulus"":""run_exp/static/images/task_images/land.jpg"",""time"":910.909999976866},{""stimulus"":""run_exp/static/images/task_images/dig.jpg"",""time"":1810.3099999716505}]",[],12,,,,,,,,,,,,,,
harvest,347,893059,0.0-109.0-1.0,,null,run_exp/static/images/task_images/gems/9.jpg,null,,,,,,7,,,12,,,,,9,0.784446057,0.777777778,,,,,,,
decision,348,893469,0.0-109.0-2.0,,408.235,run_exp/static/images/task_images/land.jpg,65,,,,,,7,,,12,,,,,,,,161388,2,10,FALSE,,,
dig,349,896079,0.0-110.0-0.0,,,,,,,,,,,"[{""stimulus"":""run_exp/static/images/task_images/dig.jpg"",""time"":0.16000005416572094},{""stimulus"":""run_exp/static/images/task_images/land.jpg"",""time"":866.2500000791624},{""stimulus"":""run_exp/static/images/task_images/dig.jpg"",""time"":1746.5450000017881}]",[],12,,,,,,,,,,,,,,
harvest,350,897090,0.0-110.0-1.0,,null,run_exp/static/images/task_images/gems/7.jpg,null,,,,,,5,,,12,,,,,7,0.771161777,0.714285714,,,,,,,
decision,351,897339,0.0-110.0-2.0,,247.09,run_exp/static/images/task_images/land.jpg,65,,,,,,5,,,12,,,,,,,,165258,2,11,FALSE,,,
dig,352,900101,0.0-111.0-0.0,,,,,,,,,,,"[{""stimulus"":""run_exp/static/images/task_images/dig.jpg"",""time"":0.21000008564442396},{""stimulus"":""run_exp/static/images/task_images/land.jpg"",""time"":926.1050000786781},{""stimulus"":""run_exp/static/images/task_images/dig.jpg"",""time"":1839.2450000392273}]",[],12,,,,,,,,,,,,,,
harvest,353,901119,0.0-111.0-1.0,,null,run_exp/static/images/task_images/gems/5.jpg,null,,,,,,4,,,12,,,,,5,0.839304103,0.8,,,,,,,
decision,354,901432,0.0-111.0-2.0,,310.4300001,run_exp/static/images/task_images/land.jpg,65,,,,,,4,,,12,,,,,,,,169351,2,12,FALSE,,,
dig,355,904141,0.0-112.0-0.0,,,,,,,,,,,"[{""stimulus"":""run_exp/static/images/task_images/dig.jpg"",""time"":0.1550000160932541},{""stimulus"":""run_exp/static/images/task_images/land.jpg"",""time"":906.9100000197068},{""stimulus"":""run_exp/static/images/task_images/dig.jpg"",""time"":1813.4500000160187}]",[],12,,,,,,,,,,,,,,
harvest,356,905145,0.0-112.0-1.0,,null,run_exp/static/images/task_images/gems/4.jpg,null,,,,,,3,,,12,,,,,4,0.794240365,0.75,,,,,,,
decision,357,905180,0.0-112.0-2.0,,33.21999998,run_exp/static/images/task_images/land.jpg,65,,,,,,3,,,12,,,,,,,,173099,2,13,FALSE,,,
dig,358,908161,0.0-113.0-0.0,,,,,,,,,,,"[{""stimulus"":""run_exp/static/images/task_images/dig.jpg"",""time"":0.14999997802078724},{""stimulus"":""run_exp/static/images/task_images/land.jpg"",""time"":1004.6700000530109},{""stimulus"":""run_exp/static/images/task_images/dig.jpg"",""time"":1997.0700000412762}]",[],12,,,,,,,,,,,,,,
harvest,359,909180,0.0-113.0-1.0,,null,run_exp/static/images/task_images/gems/3.jpg,null,,,,,,2,,,12,,,,,3,0.823216011,0.666666667,,,,,,,
decision,360,909589,0.0-113.0-2.0,,407.92,run_exp/static/images/task_images/land.jpg,65,,,,,,2,,,12,,,,,,,,177509,2,14,FALSE,,,
dig,361,912190,0.0-114.0-0.0,,,,,,,,,,,"[{""stimulus"":""run_exp/static/images/task_images/dig.jpg"",""time"":0.2500000409781933},{""stimulus"":""run_exp/static/images/task_images/land.jpg"",""time"":868.1450000731274},{""stimulus"":""run_exp/static/images/task_images/dig.jpg"",""time"":1746.610000031069}]",[],12,,,,,,,,,,,,,,
harvest,362,913202,0.0-114.0-1.0,,null,run_exp/static/images/task_images/gems/2.jpg,null,,,,,,2,,,12,,,,,2,0.784311311,1,,,,,,,
decision,363,913227,0.0-114.0-2.0,,22.12999994,run_exp/static/images/task_images/land.jpg,65,,,,,,2,,,12,,,,,,,,181147,2,15,FALSE,,,
dig,364,916215,0.0-115.0-0.0,,,,,,,,,,,"[{""stimulus"":""run_exp/static/images/task_images/dig.jpg"",""time"":0.15000009443610907},{""stimulus"":""run_exp/static/images/task_images/land.jpg"",""time"":996.8550000339746},{""stimulus"":""run_exp/static/images/task_images/dig.jpg"",""time"":1988.3799999952316}]",[],12,,,,,,,,,,,,,,
harvest,365,917232,0.0-115.0-1.0,,null,run_exp/static/images/task_images/gems/2.jpg,null,,,,,,2,,,12,,,,,2,0.830662136,1,,,,,,,
decision,366,917620,0.0-115.0-2.0,,385.78,run_exp/static/images/task_images/land.jpg,65,,,,,,0,,,12,,,,,,,,185539,2,16,FALSE,,,
dig,367,920241,0.0-116.0-0.0,,,,,,,,,,,"[{""stimulus"":""run_exp/static/images/task_images/dig.jpg"",""time"":0.16000005416572094},{""stimulus"":""run_exp/static/images/task_images/land.jpg"",""time"":884.4350000144914},{""stimulus"":""run_exp/static/images/task_images/dig.jpg"",""time"":1757.41000007838}]",[],12,,,,,,,,,,,,,,
harvest,368,921252,0.0-116.0-1.0,,null,run_exp/static/images/task_images/gems/0.jpg,null,,,,,,0,,,12,,,,,0,0.864145522,NaN,,,,,,,
decision,369,921601,0.0-116.0-2.0,,346.5400001,run_exp/static/images/task_images/land.jpg,76,,,,,,0,,,12,,,,,,,,189520,2,17,TRUE,,,
travel,370,931272,0.0-117.0-0.0,,,,,,,,,,,"[{""stimulus"":""run_exp/static/images/task_images/rocket-01.jpg"",""time"":0.1550000160932541},{""stimulus"":""run_exp/static/images/task_images/rocket-02.jpg"",""time"":1083.7999999057502},{""stimulus"":""run_exp/static/images/task_images/rocket-03.jpg"",""time"":2154.9299999605864},{""stimulus"":""run_exp/static/images/task_images/rocket-04.jpg"",""time"":3224.309999961406},{""stimulus"":""run_exp/static/images/task_images/rocket-05.jpg"",""time"":4304.88999991212},{""stimulus"":""run_exp/static/images/task_images/rocket-06.jpg"",""time"":5364.674999960698},{""stimulus"":""run_exp/static/images/task_images/rocket-07.jpg"",""time"":6443.954999907874},{""stimulus"":""run_exp/static/images/task_images/rocket-08.jpg"",""time"":7524.64499999769},{""stimulus"":""run_exp/static/images/task_images/rocket-09.jpg"",""time"":8583.294999902137}]",[],12,,,,,,,,,,,,,,
alien_welcome,371,936290,0.0-117.0-1.0,,null,run_exp/static/images/task_images/aliens/old_aliens/planet/alien_planet-25.jpg,null,,,,,,,,,,,,25,"75,63,6,40,39,50,48,56,28,7,32,37,25,78,61,10,77,31,36,43,23,72,17,3,30",,,,,,,,,,
land,372,936815,0.0-117.0-2.0,,null,run_exp/static/images/task_images/land.jpg,null,,,,,,102,,,13,,,,,,,,,,,,,,
dig,373,938840,0.0-117.0-3.0,,,,,,,,,,,"[{""stimulus"":""run_exp/static/images/task_images/dig.jpg"",""time"":0.5400000372901559},{""stimulus"":""run_exp/static/images/task_images/land.jpg"",""time"":697.6449999492615},{""stimulus"":""run_exp/static/images/task_images/dig.jpg"",""time"":1341.8649999657646}]",[],13,,,,,,,,,,,,,,
harvest,374,939848,0.0-117.0-4.0,,null,run_exp/static/images/task_images/gems/102.jpg,null,,,,,,75,,,13,,,,,102,0.731692196,0.735294118,,,,,,,
decision,375,939865,0.0-117.0-5.0,,13.16500001,run_exp/static/images/task_images/land.jpg,65,,,,,,75,,,13,,,,,,,,207784,2,0,FALSE,,,
dig,376,942875,0.0-118.0-0.0,,,,,,,,,,,"[{""stimulus"":""run_exp/static/images/task_images/dig.jpg"",""time"":0.16000005416572094},{""stimulus"":""run_exp/static/images/task_images/land.jpg"",""time"":997.5649999687448},{""stimulus"":""run_exp/static/images/task_images/dig.jpg"",""time"":2007.4099999619648}]",[],13,,,,,,,,,,,,,,
harvest,377,943885,0.0-118.0-1.0,,null,run_exp/static/images/task_images/gems/75.jpg,null,,,,,,62,,,13,,,,,75,0.832312039,0.826666667,,,,,,,
decision,378,943905,0.0-118.0-2.0,,17.54000003,run_exp/static/images/task_images/land.jpg,65,,,,,,62,,,13,,,,,,,,211824,2,1,FALSE,,,
dig,379,946909,0.0-119.0-0.0,,,,,,,,,,,"[{""stimulus"":""run_exp/static/images/task_images/dig.jpg"",""time"":0.24500000290572643},{""stimulus"":""run_exp/static/images/task_images/land.jpg"",""time"":999.4249999290332},{""stimulus"":""run_exp/static/images/task_images/dig.jpg"",""time"":1997.2149999812245}]",[],13,,,,,,,,,,,,,,
harvest,380,947925,0.0-119.0-1.0,,null,run_exp/static/images/task_images/gems/62.jpg,null,,,,,,50,,,13,,,,,62,0.804864972,0.806451613,,,,,,,
decision,381,948195,0.0-119.0-2.0,,267.8800001,run_exp/static/images/task_images/land.jpg,65,,,,,,50,,,13,,,,,,,,216115,2,2,FALSE,,,
dig,382,950946,0.0-120.0-0.0,,,,,,,,,,,"[{""stimulus"":""run_exp/static/images/task_images/dig.jpg"",""time"":0.3100000321865082},{""stimulus"":""run_exp/static/images/task_images/land.jpg"",""time"":929.1850000154227},{""stimulus"":""run_exp/static/images/task_images/dig.jpg"",""time"":1829.3200000189245}]",[],13,,,,,,,,,,,,,,
harvest,383,951968,0.0-120.0-1.0,,null,run_exp/static/images/task_images/gems/50.jpg,null,,,,,,34,,,13,,,,,50,0.686612576,0.68,,,,,,,
decision,384,952520,0.0-120.0-2.0,,548.9500001,run_exp/static/images/task_images/land.jpg,65,,,,,,34,,,13,,,,,,,,220439,2,3,FALSE,,,
dig,385,954987,0.0-121.0-0.0,,,,,,,,,,,"[{""stimulus"":""run_exp/static/images/task_images/dig.jpg"",""time"":0.1550000160932541},{""stimulus"":""run_exp/static/images/task_images/land.jpg"",""time"":821.0249999538064},{""stimulus"":""run_exp/static/images/task_images/dig.jpg"",""time"":1642.1600000467151}]",[],13,,,,,,,,,,,,,,
harvest,386,955995,0.0-121.0-1.0,,null,run_exp/static/images/task_images/gems/34.jpg,null,,,,,,29,,,13,,,,,34,0.852959097,0.852941176,,,,,,,
decision,387,956538,0.0-121.0-2.0,,540.85,run_exp/static/images/task_images/land.jpg,65,,,,,,29,,,13,,,,,,,,224457,2,4,FALSE,,,
dig,388,959021,0.0-122.0-0.0,,,,,,,,,,,"[{""stimulus"":""run_exp/static/images/task_images/dig.jpg"",""time"":0.15499989967793226},{""stimulus"":""run_exp/static/images/task_images/land.jpg"",""time"":834.1500000096858},{""stimulus"":""run_exp/static/images/task_images/dig.jpg"",""time"":1653.344999998808}]",[],13,,,,,,,,,,,,,,
harvest,389,960025,0.0-122.0-1.0,,null,run_exp/static/images/task_images/gems/29.jpg,null,,,,,,23,,,13,,,,,29,0.795443168,0.793103448,,,,,,,
decision,390,960462,0.0-122.0-2.0,,434.715,run_exp/static/images/task_images/land.jpg,65,,,,,,23,,,13,,,,,,,,228381,2,5,FALSE,,,
dig,391,963036,0.0-123.0-0.0,,,,,,,,,,,"[{""stimulus"":""run_exp/static/images/task_images/dig.jpg"",""time"":0.1800000900402665},{""stimulus"":""run_exp/static/images/task_images/land.jpg"",""time"":868.2400000980124},{""stimulus"":""run_exp/static/images/task_images/dig.jpg"",""time"":1729.2950000846758}]",[],13,,,,,,,,,,,,,,
harvest,392,964049,0.0-123.0-1.0,,null,run_exp/static/images/task_images/gems/23.jpg,null,,,,,,20,,,13,,,,,23,0.848603381,0.869565217,,,,,,,
decision,393,964077,0.0-123.0-2.0,,25.67,run_exp/static/images/task_images/land.jpg,65,,,,,,20,,,13,,,,,,,,231996,2,6,FALSE,,,
dig,394,967063,0.0-124.0-0.0,,,,,,,,,,,"[{""stimulus"":""run_exp/static/images/task_images/dig.jpg"",""time"":0.1550000160932541},{""stimulus"":""run_exp/static/images/task_images/land.jpg"",""time"":1013.8949999818578},{""stimulus"":""run_exp/static/images/task_images/dig.jpg"",""time"":1992.9400000255555}]",[],13,,,,,,,,,,,,,,
harvest,395,968076,0.0-124.0-1.0,,null,run_exp/static/images/task_images/gems/20.jpg,null,,,,,,18,,,13,,,,,20,0.911611677,0.9,,,,,,,
decision,396,968398,0.0-124.0-2.0,,319.915,run_exp/static/images/task_images/land.jpg,65,,,,,,18,,,13,,,,,,,,236317,2,7,FALSE,,,
dig,397,971087,0.0-125.0-0.0,,,,,,,,,,,"[{""stimulus"":""run_exp/static/images/task_images/dig.jpg"",""time"":0.1599999377503991},{""stimulus"":""run_exp/static/images/task_images/land.jpg"",""time"":911.894999910146},{""stimulus"":""run_exp/static/images/task_images/dig.jpg"",""time"":1792.8700000047684}]",[],13,,,,,,,,,,,,,,
harvest,398,972106,0.0-125.0-1.0,,null,run_exp/static/images/task_images/gems/18.jpg,null,,,,,,14,,,13,,,,,18,0.799620239,0.777777778,,,,,,,
decision,399,972275,0.0-125.0-2.0,,167.26,run_exp/static/images/task_images/land.jpg,65,,,,,,14,,,13,,,,,,,,240194,2,8,FALSE,,,
dig,400,975117,0.0-126.0-0.0,,,,,,,,,,,"[{""stimulus"":""run_exp/static/images/task_images/dig.jpg"",""time"":0.31999999191612005},{""stimulus"":""run_exp/static/images/task_images/land.jpg"",""time"":966.5550000499934},{""stimulus"":""run_exp/static/images/task_images/dig.jpg"",""time"":1896.3650000514463}]",[],13,,,,,,,,,,,,,,
harvest,401,976138,0.0-126.0-1.0,,null,run_exp/static/images/task_images/gems/14.jpg,null,,,,,,11,,,13,,,,,14,0.812505374,0.785714286,,,,,,,
decision,402,976743,0.0-126.0-2.0,,603.0649999,run_exp/static/images/task_images/land.jpg,65,,,,,,11,,,13,,,,,,,,244663,2,9,FALSE,,,
dig,403,979156,0.0-127.0-0.0,,,,,,,,,,,"[{""stimulus"":""run_exp/static/images/task_images/dig.jpg"",""time"":0.1599999377503991},{""stimulus"":""run_exp/static/images/task_images/land.jpg"",""time"":816.4249999681488},{""stimulus"":""run_exp/static/images/task_images/dig.jpg"",""time"":1606.3299999805167}]",[],13,,,,,,,,,,,,,,
harvest,404,980178,0.0-127.0-1.0,,null,run_exp/static/images/task_images/gems/11.jpg,null,,,,,,9,,,13,,,,,11,0.850818925,0.818181818,,,,,,,
decision,405,980576,0.0-127.0-2.0,,394.22,run_exp/static/images/task_images/land.jpg,65,,,,,,9,,,13,,,,,,,,248495,2,10,FALSE,,,
dig,406,983197,0.0-128.0-0.0,,,,,,,,,,,"[{""stimulus"":""run_exp/static/images/task_images/dig.jpg"",""time"":0.1550000160932541},{""stimulus"":""run_exp/static/images/task_images/land.jpg"",""time"":883.644999936223},{""stimulus"":""run_exp/static/images/task_images/dig.jpg"",""time"":1753.2399999909103}]",[],13,,,,,,,,,,,,,,
harvest,407,984213,0.0-128.0-1.0,,null,run_exp/static/images/task_images/gems/9.jpg,null,,,,,,8,,,13,,,,,9,0.87260567,0.888888889,,,,,,,
decision,408,984576,0.0-128.0-2.0,,361.1249999,run_exp/static/images/task_images/land.jpg,65,,,,,,8,,,13,,,,,,,,252495,2,11,FALSE,,,
dig,409,987237,0.0-129.0-0.0,,,,,,,,,,,"[{""stimulus"":""run_exp/static/images/task_images/dig.jpg"",""time"":0.16499997582286596},{""stimulus"":""run_exp/static/images/task_images/land.jpg"",""time"":895.2299999073148},{""stimulus"":""run_exp/static/images/task_images/dig.jpg"",""time"":1774.9249999178573}]",[],13,,,,,,,,,,,,,,
harvest,410,988245,0.0-129.0-1.0,,null,run_exp/static/images/task_images/gems/8.jpg,null,,,,,,7,,,13,,,,,8,0.887069529,0.875,,,,,,,
decision,411,988309,0.0-129.0-2.0,,60.665,run_exp/static/images/task_images/land.jpg,65,,,,,,7,,,13,,,,,,,,256228,2,12,FALSE,,,
dig,412,991267,0.0-130.0-0.0,,,,,,,,,,,"[{""stimulus"":""run_exp/static/images/task_images/dig.jpg"",""time"":0.1949999714270234},{""stimulus"":""run_exp/static/images/task_images/land.jpg"",""time"":990.4699999606237},{""stimulus"":""run_exp/static/images/task_images/dig.jpg"",""time"":1970.9900000598282}]",[],13,,,,,,,,,,,,,,
harvest,413,992278,0.0-130.0-1.0,,null,run_exp/static/images/task_images/gems/7.jpg,null,,,,,,6,,,13,,,,,7,0.803681516,0.857142857,,,,,,,
decision,414,992609,0.0-130.0-2.0,,328.35,run_exp/static/images/task_images/land.jpg,65,,,,,,6,,,13,,,,,,,,260529,2,13,FALSE,,,
dig,415,995297,0.0-131.0-0.0,,,,,,,,,,,"[{""stimulus"":""run_exp/static/images/task_images/dig.jpg"",""time"":0.1900000497698784},{""stimulus"":""run_exp/static/images/task_images/land.jpg"",""time"":899.7949999757111},{""stimulus"":""run_exp/static/images/task_images/dig.jpg"",""time"":1781.7000000504777}]",[],13,,,,,,,,,,,,,,
harvest,416,996318,0.0-131.0-1.0,,null,run_exp/static/images/task_images/gems/6.jpg,null,,,,,,5,,,13,,,,,6,0.792246298,0.833333333,,,,,,,
decision,417,996434,0.0-131.0-2.0,,114.0050001,run_exp/static/images/task_images/land.jpg,65,,,,,,5,,,13,,,,,,,,264354,2,14,FALSE,,,
dig,418,999328,0.0-132.0-0.0,,,,,,,,,,,"[{""stimulus"":""run_exp/static/images/task_images/dig.jpg"",""time"":0.1599999377503991},{""stimulus"":""run_exp/static/images/task_images/land.jpg"",""time"":966.5049999020994},{""stimulus"":""run_exp/static/images/task_images/dig.jpg"",""time"":1926.3349999673665}]",[],13,,,,,,,,,,,,,,
harvest,419,1000346,0.0-132.0-1.0,,null,run_exp/static/images/task_images/gems/5.jpg,null,,,,,,4,,,13,,,,,5,0.84309376,0.8,,,,,,,
decision,420,1000830,0.0-132.0-2.0,,482.02,run_exp/static/images/task_images/land.jpg,65,,,,,,4,,,13,,,,,,,,268750,2,15,FALSE,,,
dig,421,1003357,0.0-133.0-0.0,,,,,,,,,,,"[{""stimulus"":""run_exp/static/images/task_images/dig.jpg"",""time"":0.17499993555247784},{""stimulus"":""run_exp/static/images/task_images/land.jpg"",""time"":854.9149999162182},{""stimulus"":""run_exp/static/images/task_images/dig.jpg"",""time"":1699.8049999820068}]",[],13,,,,,,,,,,,,,,
harvest,422,1004367,0.0-133.0-1.0,,null,run_exp/static/images/task_images/gems/4.jpg,null,,,,,,3,,,13,,,,,4,0.720303879,0.75,,,,,,,
decision,423,1004475,0.0-133.0-2.0,,106.35,run_exp/static/images/task_images/land.jpg,65,,,,,,3,,,13,,,,,,,,272394,2,16,FALSE,,,
dig,424,1007387,0.0-134.0-0.0,,,,,,,,,,,"[{""stimulus"":""run_exp/static/images/task_images/dig.jpg"",""time"":0.1550000160932541},{""stimulus"":""run_exp/static/images/task_images/land.jpg"",""time"":983.2800000440329},{""stimulus"":""run_exp/static/images/task_images/dig.jpg"",""time"":1935.3200000477955}]",[],13,,,,,,,,,,,,,,
harvest,425,1008397,0.0-134.0-1.0,,null,run_exp/static/images/task_images/gems/3.jpg,null,,,,,,2,,,13,,,,,3,0.733740548,0.666666667,,,,,,,
decision,426,1008402,0.0-134.0-2.0,,3.915000008,run_exp/static/images/task_images/land.jpg,65,,,,,,2,,,13,,,,,,,,276321,2,17,FALSE,,,
