trial_type,trial_index,time_elapsed,internal_node_id,interactions,blur_events,focus_events,fullscreenenter_events,fullscreenexit_events,success,rt,stimulus,key_press,prompt,subject_id,participant_id,age,gender,button_pressed,next_reward,animation_sequence,responses,planet,curr_prac_trial,n_prac_rounds,alien,aliens,reward_received,decay_rate_actual,decay_rate_exp,time_in_block,block_num,prt,last_trial_on_planet,button_html,bonus,num_failures
pavlovia,0,3,0.0-0.0,"""event"",""trial"",""time""
""fullscreenenter"",""1"",""1748""
","
","
","""event"",""trial"",""time""
""fullscreenenter"",""1"",""1748""
","
",,,,,,,,,,,,,,,,,,,,,,,,,,,,
fullscreen,1,2728,0.0-1.0,"""event"",""trial"",""time""
""fullscreenenter"",""1"",""1748""
""blur"",""2"",""8211""
","""event"",""trial"",""time""
""blur"",""2"",""8211""
","
","""event"",""trial"",""time""
""fullscreenenter"",""1"",""1748""
","
",TRUE,,,,,,,,,,,,,,,,,,,,,,,,,,,
instruc_welcome,2,12557,0.0-2.0,"""event"",""trial"",""time""
""fullscreenenter"",""1"",""1748""
""blur"",""2"",""8211""
""focus"",""3"",""18933""
","""event"",""trial"",""time""
""blur"",""2"",""8211""
","""event"",""trial"",""time""
""focus"",""3"",""18933""
","""event"",""trial"",""time""
""fullscreenenter"",""1"",""1748""
","
",,null,run_exp/static/audio/clip_1_welcome.m4a,null,"<p>Howdy! In this experiment, you’ll be an explorer traveling through space to collect space treasure.</p><p>Your mission is to collect as much treasure as possible.</p><br><br><p><img src='run_exp/static/images/task_images/opening_img-01.jpg' height='300' width='auto'></p>",9726,2789,18.83,Female,,,,,,,,,,,,,,,,,,,
audio-keyboard-response,3,29132,0.0-3.0,"""event"",""trial"",""time""
""fullscreenenter"",""1"",""1748""
""blur"",""2"",""8211""
""focus"",""3"",""18933""
","""event"",""trial"",""time""
""blur"",""2"",""8211""
","""event"",""trial"",""time""
""focus"",""3"",""18933""
","""event"",""trial"",""time""
""fullscreenenter"",""1"",""1748""
","
",,null,run_exp/static/audio/clip_2_move.m4a,null,,,,,,,,,,,,,,,,,,,,,,,,
welcome_dec,4,29756,0.0-4.0,"""event"",""trial"",""time""
""fullscreenenter"",""1"",""1748""
""blur"",""2"",""8211""
""focus"",""3"",""18933""
","""event"",""trial"",""time""
""blur"",""2"",""8211""
","""event"",""trial"",""time""
""focus"",""3"",""18933""
","""event"",""trial"",""time""
""fullscreenenter"",""1"",""1748""
","
",,620.3,"<p>Howdy! In this experiment, you’ll be an explorer traveling through space to collect space treasure.</p><p>Your mission is to collect as much treasure as possible.</p><br><br><p><img src='run_exp/static/images/task_images/opening_img-01.jpg' height='300' width='auto'></p>",,,,,,,1,,,,,,,,,,,,,,,,,,
html-keyboard-response,5,30251,0.0-5.0,"""event"",""trial"",""time""
""fullscreenenter"",""1"",""1748""
""blur"",""2"",""8211""
""focus"",""3"",""18933""
","""event"",""trial"",""time""
""blur"",""2"",""8211""
","""event"",""trial"",""time""
""focus"",""3"",""18933""
","""event"",""trial"",""time""
""fullscreenenter"",""1"",""1748""
","
",,491.5,"<p>Howdy! In this experiment, you’ll be an explorer traveling through space to collect space treasure.</p><p>Your mission is to collect as much treasure as possible.</p><br><br><p><img src='run_exp/static/images/task_images/opening_img-01.jpg' height='300' width='auto'></p><button class=""jspsych-html-btn-unchosen""><img src=""run_exp/static/images/task_images/planet-01.jpg"" height=""50""></button><button class=""jspsych-html-btn-chosen""><img src=""run_exp/static/images/task_images/planet-02.jpg"" height=""50""></button><p><b>[press the space bar to lock in your answer]<b><br></p>",32,,,,,,,,,,,,,,,,,,,,,,,,
instruc_goal,6,40311,0.0-6.0-0.0,"""event"",""trial"",""time""
""fullscreenenter"",""1"",""1748""
""blur"",""2"",""8211""
""focus"",""3"",""18933""
","""event"",""trial"",""time""
""blur"",""2"",""8211""
","""event"",""trial"",""time""
""focus"",""3"",""18933""
","""event"",""trial"",""time""
""fullscreenenter"",""1"",""1748""
","
",,null,run_exp/static/audio/clip_3_goal.m4a,null,"<p> As a space explorer, you’ll visit different planets to dig for space treasure, these pink gems.</p> <p> The more treasure you dig up, the more bonus money you’ll win! </p><br><br><p><img src='run_exp/static/images/task_images/pink_gem.jpg' height='300' width='auto'></p>",,,,,,,,,,,,,,,,,,,,,,,
instruc_goal,7,46521,0.0-6.0-1.0,"""event"",""trial"",""time""
""fullscreenenter"",""1"",""1748""
""blur"",""2"",""8211""
""focus"",""3"",""18933""
","""event"",""trial"",""time""
""blur"",""2"",""8211""
","""event"",""trial"",""time""
""focus"",""3"",""18933""
","""event"",""trial"",""time""
""fullscreenenter"",""1"",""1748""
","
",,6208.4,"<p> As a space explorer, you’ll visit different planets to dig for space treasure, these pink gems.</p> <p> The more treasure you dig up, the more bonus money you’ll win! </p><br><br><p><img src='run_exp/static/images/task_images/pink_gem.jpg' height='300' width='auto'></p>",,,,,,,0,,,,,,,,,,,,,,,,,,
html-keyboard-response,8,47619,0.0-6.0-2.0,"""event"",""trial"",""time""
""fullscreenenter"",""1"",""1748""
""blur"",""2"",""8211""
""focus"",""3"",""18933""
","""event"",""trial"",""time""
""blur"",""2"",""8211""
","""event"",""trial"",""time""
""focus"",""3"",""18933""
","""event"",""trial"",""time""
""fullscreenenter"",""1"",""1748""
","
",,1094.1,"<p> As a space explorer, you’ll visit different planets to dig for space treasure, these pink gems.</p> <p> The more treasure you dig up, the more bonus money you’ll win! </p><br><br><p><img src='run_exp/static/images/task_images/pink_gem.jpg' height='300' width='auto'></p><button class=""jspsych-html-btn-chosen""><img src=""run_exp/static/images/task_images/planet-01.jpg"" height=""50""></button><button class=""jspsych-html-btn-unchosen""><img src=""run_exp/static/images/task_images/planet-02.jpg"" height=""50""></button><p><b>[press the space bar to lock in your answer]<b><br></p>",32,,,,,,,,,,,,,,,,,,,,,,,,
instruc_welcome,9,57356,0.0-7.0-0.0,"""event"",""trial"",""time""
""fullscreenenter"",""1"",""1748""
""blur"",""2"",""8211""
""focus"",""3"",""18933""
","""event"",""trial"",""time""
""blur"",""2"",""8211""
","""event"",""trial"",""time""
""focus"",""3"",""18933""
","""event"",""trial"",""time""
""fullscreenenter"",""1"",""1748""
","
",,null,run_exp/static/audio/clip_1_welcome.m4a,null,"<p>Howdy! In this experiment, you’ll be an explorer traveling through space to collect space treasure.</p><p>Your mission is to collect as much treasure as possible.</p><br><br><p><img src='run_exp/static/images/task_images/opening_img-01.jpg' height='300' width='auto'></p>",9726,2789,18,Female,,,,,,,,,,,,,,,,,,,
audio-keyboard-response,10,73932,0.0-7.0-1.0,"""event"",""trial"",""time""
""fullscreenenter"",""1"",""1748""
""blur"",""2"",""8211""
""focus"",""3"",""18933""
","""event"",""trial"",""time""
""blur"",""2"",""8211""
","""event"",""trial"",""time""
""focus"",""3"",""18933""
","""event"",""trial"",""time""
""fullscreenenter"",""1"",""1748""
","
",,null,run_exp/static/audio/clip_2_move.m4a,null,,,,,,,,,,,,,,,,,,,,,,,,
welcome_dec,11,87989,0.0-7.0-2.0,"""event"",""trial"",""time""
""fullscreenenter"",""1"",""1748""
""blur"",""2"",""8211""
""focus"",""3"",""18933""
","""event"",""trial"",""time""
""blur"",""2"",""8211""
","""event"",""trial"",""time""
""focus"",""3"",""18933""
","""event"",""trial"",""time""
""fullscreenenter"",""1"",""1748""
","
",,14052.7,"<p>Howdy! In this experiment, you’ll be an explorer traveling through space to collect space treasure.</p><p>Your mission is to collect as much treasure as possible.</p><br><br><p><img src='run_exp/static/images/task_images/opening_img-01.jpg' height='300' width='auto'></p>",,,,,,,0,,,,,,,,,,,,,,,,,,
html-keyboard-response,12,89041,0.0-7.0-3.0,"""event"",""trial"",""time""
""fullscreenenter"",""1"",""1748""
""blur"",""2"",""8211""
""focus"",""3"",""18933""
","""event"",""trial"",""time""
""blur"",""2"",""8211""
","""event"",""trial"",""time""
""focus"",""3"",""18933""
","""event"",""trial"",""time""
""fullscreenenter"",""1"",""1748""
","
",,1050.9,"<p>Howdy! In this experiment, you’ll be an explorer traveling through space to collect space treasure.</p><p>Your mission is to collect as much treasure as possible.</p><br><br><p><img src='run_exp/static/images/task_images/opening_img-01.jpg' height='300' width='auto'></p><button class=""jspsych-html-btn-chosen""><img src=""run_exp/static/images/task_images/planet-01.jpg"" height=""50""></button><button class=""jspsych-html-btn-unchosen""><img src=""run_exp/static/images/task_images/planet-02.jpg"" height=""50""></button><p><b>[press the space bar to lock in your answer]<b><br></p>",32,,,,,,,,,,,,,,,,,,,,,,,,
instruc_welcome,13,98801,0.0-8.0-0.0,"""event"",""trial"",""time""
""fullscreenenter"",""1"",""1748""
""blur"",""2"",""8211""
""focus"",""3"",""18933""
","""event"",""trial"",""time""
""blur"",""2"",""8211""
","""event"",""trial"",""time""
""focus"",""3"",""18933""
","""event"",""trial"",""time""
""fullscreenenter"",""1"",""1748""
","
",,null,run_exp/static/audio/clip_1_welcome.m4a,null,"<p>Howdy! In this experiment, you’ll be an explorer traveling through space to collect space treasure.</p><p>Your mission is to collect as much treasure as possible.</p><br><br><p><img src='run_exp/static/images/task_images/opening_img-01.jpg' height='300' width='auto'></p>",9726,2789,18,Female,,,,,,,,,,,,,,,,,,,
audio-keyboard-response,14,115399,0.0-8.0-1.0,"""event"",""trial"",""time""
""fullscreenenter"",""1"",""1748""
""blur"",""2"",""8211""
""focus"",""3"",""18933""
","""event"",""trial"",""time""
""blur"",""2"",""8211""
","""event"",""trial"",""time""
""focus"",""3"",""18933""
","""event"",""trial"",""time""
""fullscreenenter"",""1"",""1748""
","
",,null,run_exp/static/audio/clip_2_move.m4a,null,,,,,,,,,,,,,,,,,,,,,,,,
welcome_dec,15,145957,0.0-8.0-2.0,"""event"",""trial"",""time""
""fullscreenenter"",""1"",""1748""
""blur"",""2"",""8211""
""focus"",""3"",""18933""
","""event"",""trial"",""time""
""blur"",""2"",""8211""
","""event"",""trial"",""time""
""focus"",""3"",""18933""
","""event"",""trial"",""time""
""fullscreenenter"",""1"",""1748""
","
",,30555,"<p>Howdy! In this experiment, you’ll be an explorer traveling through space to collect space treasure.</p><p>Your mission is to collect as much treasure as possible.</p><br><br><p><img src='run_exp/static/images/task_images/opening_img-01.jpg' height='300' width='auto'></p>",,,,,,,1,,,,,,,,,,,,,,,,,,
html-keyboard-response,16,146886,0.0-8.0-3.0,"""event"",""trial"",""time""
""fullscreenenter"",""1"",""1748""
""blur"",""2"",""8211""
""focus"",""3"",""18933""
","""event"",""trial"",""time""
""blur"",""2"",""8211""
","""event"",""trial"",""time""
""focus"",""3"",""18933""
","""event"",""trial"",""time""
""fullscreenenter"",""1"",""1748""
","
",,926.3000002,"<p>Howdy! In this experiment, you’ll be an explorer traveling through space to collect space treasure.</p><p>Your mission is to collect as much treasure as possible.</p><br><br><p><img src='run_exp/static/images/task_images/opening_img-01.jpg' height='300' width='auto'></p><button class=""jspsych-html-btn-unchosen""><img src=""run_exp/static/images/task_images/planet-01.jpg"" height=""50""></button><button class=""jspsych-html-btn-chosen""><img src=""run_exp/static/images/task_images/planet-02.jpg"" height=""50""></button><p><b>[press the space bar to lock in your answer]<b><br></p>",32,,,,,,,,,,,,,,,,,,,,,,,,
instruc_goal,17,156986,0.0-9.0-0.0,"""event"",""trial"",""time""
""fullscreenenter"",""1"",""1748""
""blur"",""2"",""8211""
""focus"",""3"",""18933""
","""event"",""trial"",""time""
""blur"",""2"",""8211""
","""event"",""trial"",""time""
""focus"",""3"",""18933""
","""event"",""trial"",""time""
""fullscreenenter"",""1"",""1748""
","
",,null,run_exp/static/audio/clip_3_goal.m4a,null,"<p> As a space explorer, you’ll visit different planets to dig for space treasure, these pink gems.</p> <p> The more treasure you dig up, the more bonus money you’ll win! </p><br><br><p><img src='run_exp/static/images/task_images/pink_gem.jpg' height='300' width='auto'></p>",,,,,,,,,,,,,,,,,,,,,,,
instruc_goal,18,160634,0.0-9.0-1.0,"""event"",""trial"",""time""
""fullscreenenter"",""1"",""1748""
""blur"",""2"",""8211""
""focus"",""3"",""18933""
","""event"",""trial"",""time""
""blur"",""2"",""8211""
","""event"",""trial"",""time""
""focus"",""3"",""18933""
","""event"",""trial"",""time""
""fullscreenenter"",""1"",""1748""
","
",,3645.8,"<p> As a space explorer, you’ll visit different planets to dig for space treasure, these pink gems.</p> <p> The more treasure you dig up, the more bonus money you’ll win! </p><br><br><p><img src='run_exp/static/images/task_images/pink_gem.jpg' height='300' width='auto'></p>",,,,,,,1,,,,,,,,,,,,,,,,,,
html-keyboard-response,19,161378,0.0-9.0-2.0,"""event"",""trial"",""time""
""fullscreenenter"",""1"",""1748""
""blur"",""2"",""8211""
""focus"",""3"",""18933""
","""event"",""trial"",""time""
""blur"",""2"",""8211""
","""event"",""trial"",""time""
""focus"",""3"",""18933""
","""event"",""trial"",""time""
""fullscreenenter"",""1"",""1748""
","
",,742.0999999,"<p> As a space explorer, you’ll visit different planets to dig for space treasure, these pink gems.</p> <p> The more treasure you dig up, the more bonus money you’ll win! </p><br><br><p><img src='run_exp/static/images/task_images/pink_gem.jpg' height='300' width='auto'></p><button class=""jspsych-html-btn-unchosen""><img src=""run_exp/static/images/task_images/planet-01.jpg"" height=""50""></button><button class=""jspsych-html-btn-chosen""><img src=""run_exp/static/images/task_images/planet-02.jpg"" height=""50""></button><p><b>[press the space bar to lock in your answer]<b><br></p>",32,,,,,,,,,,,,,,,,,,,,,,,,
instruc_dig,20,177381,0.0-10.0-0.0,"""event"",""trial"",""time""
""fullscreenenter"",""1"",""1748""
""blur"",""2"",""8211""
""focus"",""3"",""18933""
","""event"",""trial"",""time""
""blur"",""2"",""8211""
","""event"",""trial"",""time""
""focus"",""3"",""18933""
","""event"",""trial"",""time""
""fullscreenenter"",""1"",""1748""
","
",,null,run_exp/static/audio/clip_4_dig.m4a,null,,,,,,,100,,,,,,,,,,,,,,,,,
instruc_dig_try,21,177941,0.0-10.0-1.0,"""event"",""trial"",""time""
""fullscreenenter"",""1"",""1748""
""blur"",""2"",""8211""
""focus"",""3"",""18933""
","""event"",""trial"",""time""
""blur"",""2"",""8211""
","""event"",""trial"",""time""
""focus"",""3"",""18933""
","""event"",""trial"",""time""
""fullscreenenter"",""1"",""1748""
","
",,557.4000001,"<p> When you’ve arrived at a new planet, you will dig once. </p> <p>Then, you get to decide if you want to stay on the planet and dig again or travel to a new planet and dig there.</p> <p> To stay and dig, press the letter <strong>‘A’</strong> on your keyboard. Try pressing it now! </p><p><img src='run_exp/static/images/task_images/land.jpg'  height='700' width='auto'></p>",65,"<p> When you’ve arrived at a new planet, you will dig once. </p> <p>Then, you get to decide if you want to stay on the planet and dig again or travel to a new planet and dig there.</p> <p> To stay and dig, press the letter <strong>‘A’</strong> on your keyboard. Try pressing it now! </p><p><img src='run_exp/static/images/task_images/land.jpg'  height='700' width='auto'></p>",,,,,,100,,,,,,,,,,,,,,,,,
dig_prac,22,179960,0.0-10.0-2.0,"""event"",""trial"",""time""
""fullscreenenter"",""1"",""1748""
""blur"",""2"",""8211""
""focus"",""3"",""18933""
","""event"",""trial"",""time""
""blur"",""2"",""8211""
","""event"",""trial"",""time""
""focus"",""3"",""18933""
","""event"",""trial"",""time""
""fullscreenenter"",""1"",""1748""
","
",,,,,,,,,,,,"[{""stimulus"":""run_exp/static/images/task_images/dig.jpg"",""time"":0.40000009536743164},{""stimulus"":""run_exp/static/images/task_images/land.jpg"",""time"":674.2999999523163},{""stimulus"":""run_exp/static/images/task_images/dig.jpg"",""time"":1339.2999999523163}]",[],,,,,,,,,,,,,,,
instruc_travel,23,216186,0.0-10.0-3.0,"""event"",""trial"",""time""
""fullscreenenter"",""1"",""1748""
""blur"",""2"",""8211""
""focus"",""3"",""18933""
","""event"",""trial"",""time""
""blur"",""2"",""8211""
","""event"",""trial"",""time""
""focus"",""3"",""18933""
","""event"",""trial"",""time""
""fullscreenenter"",""1"",""1748""
","
",,null,run_exp/static/audio/clip_5_travel.m4a,null,"<p>Every time you dig up gems, there are less gems on the planet, so the more you dig on a planet the fewer gems you’ll get with each dig.</p><p>When gems are running low, you may want to travel to a new planet. </p> <p>  Planets are very far apart in this galaxy, so it will take some time to travel between them. </p> <br><p>There are lots and lots of planets for you to visit, so you won’t be able to return to any planets you’ve seen before. </p><br><p>To leave this planet and travel to a new one, press the letter <strong>‘L’</strong> on your keyboard. Try pressing it now! </p><p><img src='run_exp/static/images/task_images/rocket-01.jpg'  height='600' width='auto'></p>",,,,,,,,,,,,,,,,,,,,,,,
instruc_travel_try,24,218371,0.0-10.0-4.0,"""event"",""trial"",""time""
""fullscreenenter"",""1"",""1748""
""blur"",""2"",""8211""
""focus"",""3"",""18933""
","""event"",""trial"",""time""
""blur"",""2"",""8211""
","""event"",""trial"",""time""
""focus"",""3"",""18933""
","""event"",""trial"",""time""
""fullscreenenter"",""1"",""1748""
","
",,2182.8,"<p>Every time you dig up gems, there are less gems on the planet, so the more you dig on a planet the fewer gems you’ll get with each dig.</p><p>When gems are running low, you may want to travel to a new planet. </p> <p>  Planets are very far apart in this galaxy, so it will take some time to travel between them. </p> <br><p>There are lots and lots of planets for you to visit, so you won’t be able to return to any planets you’ve seen before. </p><br><p>To leave this planet and travel to a new one, press the letter <strong>‘L’</strong> on your keyboard. Try pressing it now! </p><p><img src='run_exp/static/images/task_images/rocket-01.jpg'  height='600' width='auto'></p>",76,"<p>Every time you dig up gems, there are less gems on the planet, so the more you dig on a planet the fewer gems you’ll get with each dig.</p><p>When gems are running low, you may want to travel to a new planet. </p> <p>  Planets are very far apart in this galaxy, so it will take some time to travel between them. </p> <br><p>There are lots and lots of planets for you to visit, so you won’t be able to return to any planets you’ve seen before. </p><br><p>To leave this planet and travel to a new one, press the letter <strong>‘L’</strong> on your keyboard. Try pressing it now! </p><p><img src='run_exp/static/images/task_images/rocket-01.jpg'  height='600' width='auto'></p>",,,,,,,,,,,,,,,,,,,,,,,
travel_prac,25,228384,0.0-10.0-5.0,"""event"",""trial"",""time""
""fullscreenenter"",""1"",""1748""
""blur"",""2"",""8211""
""focus"",""3"",""18933""
","""event"",""trial"",""time""
""blur"",""2"",""8211""
","""event"",""trial"",""time""
""focus"",""3"",""18933""
","""event"",""trial"",""time""
""fullscreenenter"",""1"",""1748""
","
",,,,,,,,,,,,"[{""stimulus"":""run_exp/static/images/task_images/rocket-01.jpg"",""time"":0.2999999523162842},{""stimulus"":""run_exp/static/images/task_images/rocket-02.jpg"",""time"":1125},{""stimulus"":""run_exp/static/images/task_images/rocket-03.jpg"",""time"":2228.899999856949},{""stimulus"":""run_exp/static/images/task_images/rocket-04.jpg"",""time"":3341},{""stimulus"":""run_exp/static/images/task_images/rocket-05.jpg"",""time"":4453.099999904633},{""stimulus"":""run_exp/static/images/task_images/rocket-06.jpg"",""time"":5560.799999952316},{""stimulus"":""run_exp/static/images/task_images/rocket-07.jpg"",""time"":6676.899999856949},{""stimulus"":""run_exp/static/images/task_images/rocket-08.jpg"",""time"":7785.099999904633},{""stimulus"":""run_exp/static/images/task_images/rocket-09.jpg"",""time"":8901}]",[],0,,,,,,,,,,,,,,
instruc_alien_greet,26,255568,0.0-10.0-6.0,"""event"",""trial"",""time""
""fullscreenenter"",""1"",""1748""
""blur"",""2"",""8211""
""focus"",""3"",""18933""
","""event"",""trial"",""time""
""blur"",""2"",""8211""
","""event"",""trial"",""time""
""focus"",""3"",""18933""
","""event"",""trial"",""time""
""fullscreenenter"",""1"",""1748""
","
",,null,run_exp/static/audio/clip_6_alien.m4a,null,"<p>When you arrive at a new planet, the alien who owns the treasure mine on that planet will greet you!</p><p>The better an alien takes care of their mine the easier it is to dig for gems. Some aliens take better care of their mine than others. So, you won’t get exactly the same amount of gems on each planet.</p><p>What the alien looks like does not tell you anything about how many gems there are on the planet.</p><br><p><img src=""run_exp/static/images/task_images/aliens/instructions_aliens/planet/alien_planet-1.jpg""  height=""600"" width=""auto""></p>",,,,,,,,,,,,,,,,,,,,,,,
instruc_alien_greet,27,258096,0.0-10.0-7.0,"""event"",""trial"",""time""
""fullscreenenter"",""1"",""1748""
""blur"",""2"",""8211""
""focus"",""3"",""18933""
","""event"",""trial"",""time""
""blur"",""2"",""8211""
","""event"",""trial"",""time""
""focus"",""3"",""18933""
","""event"",""trial"",""time""
""fullscreenenter"",""1"",""1748""
","
",,2525.5,"<p>When you arrive at a new planet, the alien who owns the treasure mine on that planet will greet you!</p><p>The better an alien takes care of their mine the easier it is to dig for gems. Some aliens take better care of their mine than others. So, you won’t get exactly the same amount of gems on each planet.</p><p>What the alien looks like does not tell you anything about how many gems there are on the planet.</p><br><p><img src=""run_exp/static/images/task_images/aliens/instructions_aliens/planet/alien_planet-1.jpg""  height=""600"" width=""auto""></p>",,,,,,,1,,,,,,,,,,,,,,,,,,
html-keyboard-response,28,258576,0.0-10.0-8.0,"""event"",""trial"",""time""
""fullscreenenter"",""1"",""1748""
""blur"",""2"",""8211""
""focus"",""3"",""18933""
","""event"",""trial"",""time""
""blur"",""2"",""8211""
","""event"",""trial"",""time""
""focus"",""3"",""18933""
","""event"",""trial"",""time""
""fullscreenenter"",""1"",""1748""
","
",,477.8999999,"<p>When you arrive at a new planet, the alien who owns the treasure mine on that planet will greet you!</p><p>The better an alien takes care of their mine the easier it is to dig for gems. Some aliens take better care of their mine than others. So, you won’t get exactly the same amount of gems on each planet.</p><p>What the alien looks like does not tell you anything about how many gems there are on the planet.</p><br><p><img src=""run_exp/static/images/task_images/aliens/instructions_aliens/planet/alien_planet-1.jpg""  height=""600"" width=""auto""></p><button class=""jspsych-html-btn-unchosen""><img src=""run_exp/static/images/task_images/planet-01.jpg"" height=""50""></button><button class=""jspsych-html-btn-chosen""><img src=""run_exp/static/images/task_images/planet-02.jpg"" height=""50""></button><p><b>[press the space bar to lock in your answer]<b><br></p>",32,,,,,,,,,,,,,,,,,,,,,,,,
time_out,29,269648,0.0-11.0-0.0,"""event"",""trial"",""time""
""fullscreenenter"",""1"",""1748""
""blur"",""2"",""8211""
""focus"",""3"",""18933""
","""event"",""trial"",""time""
""blur"",""2"",""8211""
","""event"",""trial"",""time""
""focus"",""3"",""18933""
","""event"",""trial"",""time""
""fullscreenenter"",""1"",""1748""
","
",,null,run_exp/static/audio/clip_7_timeout.m4a,null,"<p>If you don't make your choice fast enough, you’ll have to wait a few seconds before you can make another one.</p><p>You can’t dig for more gems or travel to new planets. You just have to sit and wait.</p><br><p><img src='run_exp/static/images/task_images/time_out.jpg'  height='600' width='auto'></p>",,,,,,,,,,,,,,,,,,,,,,,
time_out,30,271131,0.0-11.0-1.0,"""event"",""trial"",""time""
""fullscreenenter"",""1"",""1748""
""blur"",""2"",""8211""
""focus"",""3"",""18933""
","""event"",""trial"",""time""
""blur"",""2"",""8211""
","""event"",""trial"",""time""
""focus"",""3"",""18933""
","""event"",""trial"",""time""
""fullscreenenter"",""1"",""1748""
","
",,1480.2,"<p>If you don't make your choice fast enough, you’ll have to wait a few seconds before you can make another one.</p><p>You can’t dig for more gems or travel to new planets. You just have to sit and wait.</p><br><p><img src='run_exp/static/images/task_images/time_out.jpg'  height='600' width='auto'></p>",,,,,,,1,,,,,,,,,,,,,,,,,,
html-keyboard-response,31,272984,0.0-11.0-2.0,"""event"",""trial"",""time""
""fullscreenenter"",""1"",""1748""
""blur"",""2"",""8211""
""focus"",""3"",""18933""
","""event"",""trial"",""time""
""blur"",""2"",""8211""
","""event"",""trial"",""time""
""focus"",""3"",""18933""
","""event"",""trial"",""time""
""fullscreenenter"",""1"",""1748""
","
",,1851.9,"<p>If you don't make your choice fast enough, you’ll have to wait a few seconds before you can make another one.</p><p>You can’t dig for more gems or travel to new planets. You just have to sit and wait.</p><br><p><img src='run_exp/static/images/task_images/time_out.jpg'  height='600' width='auto'></p><button class=""jspsych-html-btn-unchosen""><img src=""run_exp/static/images/task_images/planet-01.jpg"" height=""50""></button><button class=""jspsych-html-btn-chosen""><img src=""run_exp/static/images/task_images/planet-02.jpg"" height=""50""></button><p><b>[press the space bar to lock in your answer]<b><br></p>",32,,,,,,,,,,,,,,,,,,,,,,,,
instruc_break,32,288656,0.0-12.0-0.0,"""event"",""trial"",""time""
""fullscreenenter"",""1"",""1748""
""blur"",""2"",""8211""
""focus"",""3"",""18933""
","""event"",""trial"",""time""
""blur"",""2"",""8211""
","""event"",""trial"",""time""
""focus"",""3"",""18933""
","""event"",""trial"",""time""
""fullscreenenter"",""1"",""1748""
","
",,null,run_exp/static/audio/clip_8_break.m4a,null,"<p> After digging and traveling for a while, you’ll be able to take a break at home base. </p><p>The game will last 20 minutes no matter what.</p><p>You will visit home base every 5 minutes, so, you will visit home base three times during the game.</p><br><p><img src='run_exp/static/images/task_images/home_base.jpg' height='600' width='auto'></p>",,,,,,,,,,,,,,,,,,,,,,,
instruc_break,33,294531,0.0-12.0-1.0,"""event"",""trial"",""time""
""fullscreenenter"",""1"",""1748""
""blur"",""2"",""8211""
""focus"",""3"",""18933""
","""event"",""trial"",""time""
""blur"",""2"",""8211""
","""event"",""trial"",""time""
""focus"",""3"",""18933""
","""event"",""trial"",""time""
""fullscreenenter"",""1"",""1748""
","
",,5871.1,"<p> After digging and traveling for a while, you’ll be able to take a break at home base. </p><p>The game will last 20 minutes no matter what.</p><p>You will visit home base every 5 minutes, so, you will visit home base three times during the game.</p><br><p><img src='run_exp/static/images/task_images/home_base.jpg' height='600' width='auto'></p>",,,,,,,1,,,,,,,,,,,,,,,,,,
html-keyboard-response,34,295306,0.0-12.0-2.0,"""event"",""trial"",""time""
""fullscreenenter"",""1"",""1748""
""blur"",""2"",""8211""
""focus"",""3"",""18933""
","""event"",""trial"",""time""
""blur"",""2"",""8211""
","""event"",""trial"",""time""
""focus"",""3"",""18933""
","""event"",""trial"",""time""
""fullscreenenter"",""1"",""1748""
","
",,772.2,"<p> After digging and traveling for a while, you’ll be able to take a break at home base. </p><p>The game will last 20 minutes no matter what.</p><p>You will visit home base every 5 minutes, so, you will visit home base three times during the game.</p><br><p><img src='run_exp/static/images/task_images/home_base.jpg' height='600' width='auto'></p><button class=""jspsych-html-btn-unchosen""><img src=""run_exp/static/images/task_images/planet-01.jpg"" height=""50""></button><button class=""jspsych-html-btn-chosen""><img src=""run_exp/static/images/task_images/planet-02.jpg"" height=""50""></button><p><b>[press the space bar to lock in your answer]<b><br></p>",32,,,,,,,,,,,,,,,,,,,,,,,,
instruc_prac_game,35,305424,0.0-13.0-0.0,"""event"",""trial"",""time""
""fullscreenenter"",""1"",""1748""
""blur"",""2"",""8211""
""focus"",""3"",""18933""
","""event"",""trial"",""time""
""blur"",""2"",""8211""
","""event"",""trial"",""time""
""focus"",""3"",""18933""
","""event"",""trial"",""time""
""fullscreenenter"",""1"",""1748""
","
",,null,run_exp/static/audio/clip_9_practice.m4a,null,"<p> Are you ready to play a practice game? </p> <p>In this practice game, you'll be digging up barrels of gems. But, in the real game, you'll be digging up the gems themselves. </p>",,,,,,,,,,,,,,,,,,,,,,,
html-button-response,36,307195,0.0-13.0-1.0,"""event"",""trial"",""time""
""fullscreenenter"",""1"",""1748""
""blur"",""2"",""8211""
""focus"",""3"",""18933""
","""event"",""trial"",""time""
""blur"",""2"",""8211""
","""event"",""trial"",""time""
""focus"",""3"",""18933""
","""event"",""trial"",""time""
""fullscreenenter"",""1"",""1748""
","
",,1769.4,"<p> Are you ready to play a practice game? </p> <p>In this practice game, you'll be digging up barrels of gems. But, in the real game, you'll be digging up the gems themselves. </p>",,,,,,,0,,,,,,,,,,,,,,,,,,
alien_welcome_prac,37,312208,0.0-14.0-0.0,"""event"",""trial"",""time""
""fullscreenenter"",""1"",""1748""
""blur"",""2"",""8211""
""focus"",""3"",""18933""
","""event"",""trial"",""time""
""blur"",""2"",""8211""
","""event"",""trial"",""time""
""focus"",""3"",""18933""
","""event"",""trial"",""time""
""fullscreenenter"",""1"",""1748""
","
",,null,run_exp/static/images/task_images/aliens/practice_aliens/planet/alien_planet-5.jpg,null,,,,,,,,,,,,,,,,,,,,,,,,
land_prac,38,312719,0.0-14.0-1.0,"""event"",""trial"",""time""
""fullscreenenter"",""1"",""1748""
""blur"",""2"",""8211""
""focus"",""3"",""18933""
","""event"",""trial"",""time""
""blur"",""2"",""8211""
","""event"",""trial"",""time""
""focus"",""3"",""18933""
","""event"",""trial"",""time""
""fullscreenenter"",""1"",""1748""
","
",,null,run_exp/static/images/task_images/land.jpg,null,,,,,,,110,,,0,,,,,,,,,,,,,,
dig_prac,39,314727,0.0-14.0-2.0,"""event"",""trial"",""time""
""fullscreenenter"",""1"",""1748""
""blur"",""2"",""8211""
""focus"",""3"",""18933""
","""event"",""trial"",""time""
""blur"",""2"",""8211""
","""event"",""trial"",""time""
""focus"",""3"",""18933""
","""event"",""trial"",""time""
""fullscreenenter"",""1"",""1748""
","
",,,,,,,,,,,,"[{""stimulus"":""run_exp/static/images/task_images/dig.jpg"",""time"":0.39999985694885254},{""stimulus"":""run_exp/static/images/task_images/land.jpg"",""time"":674.0999999046326},{""stimulus"":""run_exp/static/images/task_images/dig.jpg"",""time"":1337.7000000476837}]",[],,,,,,,,,,,,,,,
harvest_prac,40,315741,0.0-14.0-3.0,"""event"",""trial"",""time""
""fullscreenenter"",""1"",""1748""
""blur"",""2"",""8211""
""focus"",""3"",""18933""
","""event"",""trial"",""time""
""blur"",""2"",""8211""
","""event"",""trial"",""time""
""focus"",""3"",""18933""
","""event"",""trial"",""time""
""fullscreenenter"",""1"",""1748""
","
",,null,run_exp/static/images/task_images/barrel_text.jpg,null,,,,,,,,,,,,,,,,,,,,,,,,
decision_prac,41,317898,0.0-14.0-4.0,"""event"",""trial"",""time""
""fullscreenenter"",""1"",""1748""
""blur"",""2"",""8211""
""focus"",""3"",""18933""
","""event"",""trial"",""time""
""blur"",""2"",""8211""
","""event"",""trial"",""time""
""focus"",""3"",""18933""
","""event"",""trial"",""time""
""fullscreenenter"",""1"",""1748""
","
",,2155.1,run_exp/static/images/task_images/land.jpg,65,,,,,,,,,,,1,,,,,,,,,,,,,
dig_prac,42,319915,0.0-15.0-0.0,"""event"",""trial"",""time""
""fullscreenenter"",""1"",""1748""
""blur"",""2"",""8211""
""focus"",""3"",""18933""
","""event"",""trial"",""time""
""blur"",""2"",""8211""
","""event"",""trial"",""time""
""focus"",""3"",""18933""
","""event"",""trial"",""time""
""fullscreenenter"",""1"",""1748""
","
",,,,,,,,,,,,"[{""stimulus"":""run_exp/static/images/task_images/dig.jpg"",""time"":0.20000004768371582},{""stimulus"":""run_exp/static/images/task_images/land.jpg"",""time"":675},{""stimulus"":""run_exp/static/images/task_images/dig.jpg"",""time"":1338}]",[],,,,,,,,,,,,,,,
harvest_prac,43,320920,0.0-15.0-1.0,"""event"",""trial"",""time""
""fullscreenenter"",""1"",""1748""
""blur"",""2"",""8211""
""focus"",""3"",""18933""
","""event"",""trial"",""time""
""blur"",""2"",""8211""
","""event"",""trial"",""time""
""focus"",""3"",""18933""
","""event"",""trial"",""time""
""fullscreenenter"",""1"",""1748""
","
",,null,run_exp/static/images/task_images/barrel_text.jpg,null,,,,,,,,,,,,,,,,,,,,,,,,
decision_prac,44,321762,0.0-15.0-2.0,"""event"",""trial"",""time""
""fullscreenenter"",""1"",""1748""
""blur"",""2"",""8211""
""focus"",""3"",""18933""
","""event"",""trial"",""time""
""blur"",""2"",""8211""
","""event"",""trial"",""time""
""focus"",""3"",""18933""
","""event"",""trial"",""time""
""fullscreenenter"",""1"",""1748""
","
",,840.3999999,run_exp/static/images/task_images/land.jpg,65,,,,,,,,,,,2,,,,,,,,,,,,,
dig_prac,45,323775,0.0-16.0-0.0,"""event"",""trial"",""time""
""fullscreenenter"",""1"",""1748""
""blur"",""2"",""8211""
""focus"",""3"",""18933""
","""event"",""trial"",""time""
""blur"",""2"",""8211""
","""event"",""trial"",""time""
""focus"",""3"",""18933""
","""event"",""trial"",""time""
""fullscreenenter"",""1"",""1748""
","
",,,,,,,,,,,,"[{""stimulus"":""run_exp/static/images/task_images/dig.jpg"",""time"":0.2999999523162842},{""stimulus"":""run_exp/static/images/task_images/land.jpg"",""time"":677.6999998092651},{""stimulus"":""run_exp/static/images/task_images/dig.jpg"",""time"":1341.7999999523163}]",[],,,,,,,,,,,,,,,
harvest_prac,46,324783,0.0-16.0-1.0,"""event"",""trial"",""time""
""fullscreenenter"",""1"",""1748""
""blur"",""2"",""8211""
""focus"",""3"",""18933""
","""event"",""trial"",""time""
""blur"",""2"",""8211""
","""event"",""trial"",""time""
""focus"",""3"",""18933""
","""event"",""trial"",""time""
""fullscreenenter"",""1"",""1748""
","
",,null,run_exp/static/images/task_images/barrel_text.jpg,null,,,,,,,,,,,,,,,,,,,,,,,,
decision_prac,47,324892,0.0-16.0-2.0,"""event"",""trial"",""time""
""fullscreenenter"",""1"",""1748""
""blur"",""2"",""8211""
""focus"",""3"",""18933""
","""event"",""trial"",""time""
""blur"",""2"",""8211""
","""event"",""trial"",""time""
""focus"",""3"",""18933""
","""event"",""trial"",""time""
""fullscreenenter"",""1"",""1748""
","
",,107.8000002,run_exp/static/images/task_images/land.jpg,65,,,,,,,,,,,3,,,,,,,,,,,,,
dig_prac,48,326903,0.0-17.0-0.0,"""event"",""trial"",""time""
""fullscreenenter"",""1"",""1748""
""blur"",""2"",""8211""
""focus"",""3"",""18933""
","""event"",""trial"",""time""
""blur"",""2"",""8211""
","""event"",""trial"",""time""
""focus"",""3"",""18933""
","""event"",""trial"",""time""
""fullscreenenter"",""1"",""1748""
","
",,,,,,,,,,,,"[{""stimulus"":""run_exp/static/images/task_images/dig.jpg"",""time"":0.09999990463256836},{""stimulus"":""run_exp/static/images/task_images/land.jpg"",""time"":675},{""stimulus"":""run_exp/static/images/task_images/dig.jpg"",""time"":1346.5999999046326}]",[],,,,,,,,,,,,,,,
harvest_prac,49,327912,0.0-17.0-1.0,"""event"",""trial"",""time""
""fullscreenenter"",""1"",""1748""
""blur"",""2"",""8211""
""focus"",""3"",""18933""
","""event"",""trial"",""time""
""blur"",""2"",""8211""
","""event"",""trial"",""time""
""focus"",""3"",""18933""
","""event"",""trial"",""time""
""fullscreenenter"",""1"",""1748""
","
",,null,run_exp/static/images/task_images/barrel_text.jpg,null,,,,,,,,,,,,,,,,,,,,,,,,
decision_prac,50,328092,0.0-17.0-2.0,"""event"",""trial"",""time""
""fullscreenenter"",""1"",""1748""
""blur"",""2"",""8211""
""focus"",""3"",""18933""
","""event"",""trial"",""time""
""blur"",""2"",""8211""
","""event"",""trial"",""time""
""focus"",""3"",""18933""
","""event"",""trial"",""time""
""fullscreenenter"",""1"",""1748""
","
",,178.6000001,run_exp/static/images/task_images/land.jpg,65,,,,,,,,,,,4,,,,,,,,,,,,,
dig_prac,51,330103,0.0-18.0-0.0,"""event"",""trial"",""time""
""fullscreenenter"",""1"",""1748""
""blur"",""2"",""8211""
""focus"",""3"",""18933""
","""event"",""trial"",""time""
""blur"",""2"",""8211""
","""event"",""trial"",""time""
""focus"",""3"",""18933""
","""event"",""trial"",""time""
""fullscreenenter"",""1"",""1748""
","
",,,,,,,,,,,,"[{""stimulus"":""run_exp/static/images/task_images/dig.jpg"",""time"":0.20000004768371582},{""stimulus"":""run_exp/static/images/task_images/land.jpg"",""time"":672.1000001430511},{""stimulus"":""run_exp/static/images/task_images/dig.jpg"",""time"":1339}]",[],,,,,,,,,,,,,,,
harvest_prac,52,331115,0.0-18.0-1.0,"""event"",""trial"",""time""
""fullscreenenter"",""1"",""1748""
""blur"",""2"",""8211""
""focus"",""3"",""18933""
","""event"",""trial"",""time""
""blur"",""2"",""8211""
","""event"",""trial"",""time""
""focus"",""3"",""18933""
","""event"",""trial"",""time""
""fullscreenenter"",""1"",""1748""
","
",,null,run_exp/static/images/task_images/barrel_text.jpg,null,,,,,,,,,,,,,,,,,,,,,,,,
decision_prac,53,332518,0.0-18.0-2.0,"""event"",""trial"",""time""
""fullscreenenter"",""1"",""1748""
""blur"",""2"",""8211""
""focus"",""3"",""18933""
","""event"",""trial"",""time""
""blur"",""2"",""8211""
","""event"",""trial"",""time""
""focus"",""3"",""18933""
","""event"",""trial"",""time""
""fullscreenenter"",""1"",""1748""
","
",,1401.6,run_exp/static/images/task_images/land.jpg,65,,,,,,,,,,,,1,,,,,,,,,,,,
quiz_instruc,54,337192,0.0-19.0-0.0,"""event"",""trial"",""time""
""fullscreenenter"",""1"",""1748""
""blur"",""2"",""8211""
""focus"",""3"",""18933""
","""event"",""trial"",""time""
""blur"",""2"",""8211""
","""event"",""trial"",""time""
""focus"",""3"",""18933""
","""event"",""trial"",""time""
""fullscreenenter"",""1"",""1748""
","
",,4669.5,run_exp/static/audio/clip_10_quiz.m4a,,,,,,,0,,,,,,,,,,,,,,,,,,
instruc_repeat,55,379942,0.0-19.0-1.0,"""event"",""trial"",""time""
""fullscreenenter"",""1"",""1748""
""blur"",""2"",""8211""
""focus"",""3"",""18933""
","""event"",""trial"",""time""
""blur"",""2"",""8211""
","""event"",""trial"",""time""
""focus"",""3"",""18933""
","""event"",""trial"",""time""
""fullscreenenter"",""1"",""1748""
","
",,null,"<p> Are you ready to play a practice game? </p> <p>In this practice game, you'll be digging up barrels of gems. But, in the real game, you'll be digging up the gems themselves. </p>",null,"<p>In this game, your goal is to collect as many gems as you can. That’s how you will win bonus money. </p> <p>The entire game will last 20 minutes no matter how many gems you collect or how many planets you visit. </p><p>To stay on a planet and dig again, press the letter A on your keyboard. To leave for a new planet, press the letter L.</p><p>The more you dig on a planet, the fewer gems you’ll get with each dig which is why you might consider leaving for a new planet. </p><p>When you arrive at a new planet, you’ll be greeted by an alien. What the alien looks like does not tell you anything about how much treasure is on the planet. </p>",,,,,,,,,,,,,,,,,,,,,,,
instruc_repeat_continue,56,381900,0.0-19.0-2.0,"""event"",""trial"",""time""
""fullscreenenter"",""1"",""1748""
""blur"",""2"",""8211""
""focus"",""3"",""18933""
","""event"",""trial"",""time""
""blur"",""2"",""8211""
","""event"",""trial"",""time""
""focus"",""3"",""18933""
","""event"",""trial"",""time""
""fullscreenenter"",""1"",""1748""
","
",,1956.6,"<p> Are you ready to play a practice game? </p> <p>In this practice game, you'll be digging up barrels of gems. But, in the real game, you'll be digging up the gems themselves. </p>",,,,,,,0,,,,,,,,,,,,,,,,,,
quiz_q_1_ask,57,385432,0.0-19.0-3.0,"""event"",""trial"",""time""
""fullscreenenter"",""1"",""1748""
""blur"",""2"",""8211""
""focus"",""3"",""18933""
","""event"",""trial"",""time""
""blur"",""2"",""8211""
","""event"",""trial"",""time""
""focus"",""3"",""18933""
","""event"",""trial"",""time""
""fullscreenenter"",""1"",""1748""
","
",,3528.8,run_exp/static/audio/clip_11_q1_ask.m4a,,,,,,,2,,,,,,,,,,,,,,,,,,
quiz_q_1_fb_correct,58,389286,0.0-20.0-0.0,"""event"",""trial"",""time""
""fullscreenenter"",""1"",""1748""
""blur"",""2"",""8211""
""focus"",""3"",""18933""
","""event"",""trial"",""time""
""blur"",""2"",""8211""
","""event"",""trial"",""time""
""focus"",""3"",""18933""
","""event"",""trial"",""time""
""fullscreenenter"",""1"",""1748""
","
",,null,run_exp/static/audio/clip_12_q1_correct.m4a,null,<p>That’s correct. You win extra money by collecting more gems.</p>,,,,,,,,,,,,,,,,,,,,,,,
quiz_q_2_ask,59,391715,0.0-20.0-1.0,"""event"",""trial"",""time""
""fullscreenenter"",""1"",""1748""
""blur"",""2"",""8211""
""focus"",""3"",""18933""
","""event"",""trial"",""time""
""blur"",""2"",""8211""
","""event"",""trial"",""time""
""focus"",""3"",""18933""
","""event"",""trial"",""time""
""fullscreenenter"",""1"",""1748""
","
",,2426.3,run_exp/static/audio/clip_14_q2_ask.m4a,,,,,,,1,,,,,,,,,,,,,,,,,,
quiz_q_2_fb_correct,60,395707,0.0-21.0-0.0,"""event"",""trial"",""time""
""fullscreenenter"",""1"",""1748""
""blur"",""2"",""8211""
""focus"",""3"",""18933""
","""event"",""trial"",""time""
""blur"",""2"",""8211""
","""event"",""trial"",""time""
""focus"",""3"",""18933""
","""event"",""trial"",""time""
""fullscreenenter"",""1"",""1748""
","
",,null,run_exp/static/audio/clip_15_q2_correct.m4a,null,<p>That’s correct. The experiment is 20 minutes no matter what.</p>,,,,,,,,,,,,,,,,,,,,,,,
quiz_q_3_ask,61,397682,0.0-21.0-1.0,"""event"",""trial"",""time""
""fullscreenenter"",""1"",""1748""
""blur"",""2"",""8211""
""focus"",""3"",""18933""
","""event"",""trial"",""time""
""blur"",""2"",""8211""
","""event"",""trial"",""time""
""focus"",""3"",""18933""
","""event"",""trial"",""time""
""fullscreenenter"",""1"",""1748""
","
",,1973,run_exp/static/audio/clip_17_q3_ask.m4a,,,,,,,1,,,,,,,,,,,,,,,,,,
quiz_q_3_fb_correct,62,401659,0.0-22.0-0.0,"""event"",""trial"",""time""
""fullscreenenter"",""1"",""1748""
""blur"",""2"",""8211""
""focus"",""3"",""18933""
","""event"",""trial"",""time""
""blur"",""2"",""8211""
","""event"",""trial"",""time""
""focus"",""3"",""18933""
","""event"",""trial"",""time""
""fullscreenenter"",""1"",""1748""
","
",,null,run_exp/static/audio/clip_18_q3_correct.m4a,null,<p> That’s correct. You press the letter L to travel to a new planet.</p>,,,,,,,,,,,,,,,,,,,,,,,
quiz_q_4_ask,63,404118,0.0-22.0-1.0,"""event"",""trial"",""time""
""fullscreenenter"",""1"",""1748""
""blur"",""2"",""8211""
""focus"",""3"",""18933""
","""event"",""trial"",""time""
""blur"",""2"",""8211""
","""event"",""trial"",""time""
""focus"",""3"",""18933""
","""event"",""trial"",""time""
""fullscreenenter"",""1"",""1748""
","
",,2457.1,run_exp/static/audio/clip_20_q4_ask.m4a,,,,,,,0,,,,,,,,,,,,,,,,,,
quiz_q_4_fb_correct,64,409424,0.0-23.0-0.0,"""event"",""trial"",""time""
""fullscreenenter"",""1"",""1748""
""blur"",""2"",""8211""
""focus"",""3"",""18933""
","""event"",""trial"",""time""
""blur"",""2"",""8211""
","""event"",""trial"",""time""
""focus"",""3"",""18933""
","""event"",""trial"",""time""
""fullscreenenter"",""1"",""1748""
","
",,null,run_exp/static/audio/clip_21_q4_correct.m4a,null,<p> That’s correct. The more you dig on a planet the fewer gems you’ll get with each dig. </p>,,,,,,,,,,,,,,,,,,,,,,,
quiz_q_5_ask,65,411510,0.0-23.0-1.0,"""event"",""trial"",""time""
""fullscreenenter"",""1"",""1748""
""blur"",""2"",""8211""
""focus"",""3"",""18933""
","""event"",""trial"",""time""
""blur"",""2"",""8211""
","""event"",""trial"",""time""
""focus"",""3"",""18933""
","""event"",""trial"",""time""
""fullscreenenter"",""1"",""1748""
","
",,2084,run_exp/static/audio/clip_23_q5_ask.m4a,,,,,,,1,,,,,,,,,,,,,,,,,,
quiz_q_5_fb_correct,66,416507,0.0-24.0-0.0,"""event"",""trial"",""time""
""fullscreenenter"",""1"",""1748""
""blur"",""2"",""8211""
""focus"",""3"",""18933""
","""event"",""trial"",""time""
""blur"",""2"",""8211""
","""event"",""trial"",""time""
""focus"",""3"",""18933""
","""event"",""trial"",""time""
""fullscreenenter"",""1"",""1748""
","
",,null,run_exp/static/audio/clip_24_q5_correct.m4a,null,<p> That’s correct. The alien tells you nothing about how much treasure is on the planet.</p>,,,,,,,,,,,,,,,,,,,,,,,
quiz_correct,67,419942,0.0-25.0-0.0,"""event"",""trial"",""time""
""fullscreenenter"",""1"",""1748""
""blur"",""2"",""8211""
""focus"",""3"",""18933""
","""event"",""trial"",""time""
""blur"",""2"",""8211""
","""event"",""trial"",""time""
""focus"",""3"",""18933""
","""event"",""trial"",""time""
""fullscreenenter"",""1"",""1748""
","
",,null,run_exp/static/audio/clip_26_correct_quiz.m4a,null,,,,,,,,,,,,,,,,,,,,,,,,
quiz_correct_continue,68,421785,0.0-25.0-1.0,"""event"",""trial"",""time""
""fullscreenenter"",""1"",""1748""
""blur"",""2"",""8211""
""focus"",""3"",""18933""
","""event"",""trial"",""time""
""blur"",""2"",""8211""
","""event"",""trial"",""time""
""focus"",""3"",""18933""
","""event"",""trial"",""time""
""fullscreenenter"",""1"",""1748""
","
",,1841.5,<p>Good job! You're now ready to move on to the real game!</p>,,,,,,,0,,,,,,,,,,,,,,,,,,
audio-keyboard-response,69,431890,0.0-25.0-2.0,"""event"",""trial"",""time""
""fullscreenenter"",""1"",""1748""
""blur"",""2"",""8211""
""focus"",""3"",""18933""
","""event"",""trial"",""time""
""blur"",""2"",""8211""
","""event"",""trial"",""time""
""focus"",""3"",""18933""
","""event"",""trial"",""time""
""fullscreenenter"",""1"",""1748""
","
",,null,run_exp/static/audio/clip_28_real_game.m4a,null,,,,,,,,,,,,,,,,,,,,,,,,
instruc_begin_exp_contine,70,433233,0.0-25.0-3.0,"""event"",""trial"",""time""
""fullscreenenter"",""1"",""1748""
""blur"",""2"",""8211""
""focus"",""3"",""18933""
","""event"",""trial"",""time""
""blur"",""2"",""8211""
","""event"",""trial"",""time""
""focus"",""3"",""18933""
","""event"",""trial"",""time""
""fullscreenenter"",""1"",""1748""
","
",,1340.7,"<p>Now that you know how  to dig for space treasure and travel to new planets,you can start exploring! </p><p>Do you want to go over the instructions again or get started with the real game?</p>",,,,,,,1,,,,,,1,,,,,,,,,,,,
alien_welcome,71,438242,0.0-26.0-0.0,"""event"",""trial"",""time""
""fullscreenenter"",""1"",""1748""
""blur"",""2"",""8211""
""focus"",""3"",""18933""
","""event"",""trial"",""time""
""blur"",""2"",""8211""
","""event"",""trial"",""time""
""focus"",""3"",""18933""
","""event"",""trial"",""time""
""fullscreenenter"",""1"",""1748""
","
",,null,run_exp/static/images/task_images/aliens/old_aliens/planet/alien_planet-16.jpg,null,,,,,,,,,,,,,16,"16,71,58,53,22,30,40,48,31,35,23,27,66,43,1,6,80,61,79,2,59,69,78,36,20,75,32,38,34,13",,,,,,,,,,
land,72,438750,0.0-26.0-1.0,"""event"",""trial"",""time""
""fullscreenenter"",""1"",""1748""
""blur"",""2"",""8211""
""focus"",""3"",""18933""
","""event"",""trial"",""time""
""blur"",""2"",""8211""
","""event"",""trial"",""time""
""focus"",""3"",""18933""
","""event"",""trial"",""time""
""fullscreenenter"",""1"",""1748""
","
",,null,run_exp/static/images/task_images/land.jpg,null,,,,,,,97,,,1,,,,,,,,,,,,,,
dig,73,440763,0.0-26.0-2.0,"""event"",""trial"",""time""
""fullscreenenter"",""1"",""1748""
""blur"",""2"",""8211""
""focus"",""3"",""18933""
","""event"",""trial"",""time""
""blur"",""2"",""8211""
","""event"",""trial"",""time""
""focus"",""3"",""18933""
","""event"",""trial"",""time""
""fullscreenenter"",""1"",""1748""
","
",,,,,,,,,,,,"[{""stimulus"":""run_exp/static/images/task_images/dig.jpg"",""time"":0.19999980926513672},{""stimulus"":""run_exp/static/images/task_images/land.jpg"",""time"":674},{""stimulus"":""run_exp/static/images/task_images/dig.jpg"",""time"":1339}]",[],1,,,,,,,,,,,,,,
harvest,74,441767,0.0-26.0-3.0,"""event"",""trial"",""time""
""fullscreenenter"",""1"",""1748""
""blur"",""2"",""8211""
""focus"",""3"",""18933""
","""event"",""trial"",""time""
""blur"",""2"",""8211""
","""event"",""trial"",""time""
""focus"",""3"",""18933""
","""event"",""trial"",""time""
""fullscreenenter"",""1"",""1748""
","
",,null,run_exp/static/images/task_images/gems/97.jpg,null,,,,,,,27,,,1,,,,,97,0.279213623,0.278350515,,,,,,,
decision,75,442835,0.0-26.0-4.0,"""event"",""trial"",""time""
""fullscreenenter"",""1"",""1748""
""blur"",""2"",""8211""
""focus"",""3"",""18933""
","""event"",""trial"",""time""
""blur"",""2"",""8211""
","""event"",""trial"",""time""
""focus"",""3"",""18933""
","""event"",""trial"",""time""
""fullscreenenter"",""1"",""1748""
","
",,1065.5,run_exp/static/images/task_images/land.jpg,65,,,,,,,27,,,1,,,,,,,,9601,1,0,FALSE,,,
dig,76,444779,0.0-27.0-0.0,"""event"",""trial"",""time""
""fullscreenenter"",""1"",""1748""
""blur"",""2"",""8211""
""focus"",""3"",""18933""
","""event"",""trial"",""time""
""blur"",""2"",""8211""
","""event"",""trial"",""time""
""focus"",""3"",""18933""
","""event"",""trial"",""time""
""fullscreenenter"",""1"",""1748""
","
",,,,,,,,,,,,"[{""stimulus"":""run_exp/static/images/task_images/dig.jpg"",""time"":0.19999980926513672},{""stimulus"":""run_exp/static/images/task_images/land.jpg"",""time"":653},{""stimulus"":""run_exp/static/images/task_images/dig.jpg"",""time"":1300.6999998092651}]",[],1,,,,,,,,,,,,,,
harvest,77,445783,0.0-27.0-1.0,"""event"",""trial"",""time""
""fullscreenenter"",""1"",""1748""
""blur"",""2"",""8211""
""focus"",""3"",""18933""
","""event"",""trial"",""time""
""blur"",""2"",""8211""
","""event"",""trial"",""time""
""focus"",""3"",""18933""
","""event"",""trial"",""time""
""fullscreenenter"",""1"",""1748""
","
",,null,run_exp/static/images/task_images/gems/27.jpg,null,,,,,,,5,,,1,,,,,27,0.195086919,0.185185185,,,,,,,
decision,78,446328,0.0-27.0-2.0,"""event"",""trial"",""time""
""fullscreenenter"",""1"",""1748""
""blur"",""2"",""8211""
""focus"",""3"",""18933""
","""event"",""trial"",""time""
""blur"",""2"",""8211""
","""event"",""trial"",""time""
""focus"",""3"",""18933""
","""event"",""trial"",""time""
""fullscreenenter"",""1"",""1748""
","
",,542.3999999,run_exp/static/images/task_images/land.jpg,65,,,,,,,5,,,1,,,,,,,,13094,1,1,FALSE,,,
dig,79,448791,0.0-28.0-0.0,"""event"",""trial"",""time""
""fullscreenenter"",""1"",""1748""
""blur"",""2"",""8211""
""focus"",""3"",""18933""
","""event"",""trial"",""time""
""blur"",""2"",""8211""
","""event"",""trial"",""time""
""focus"",""3"",""18933""
","""event"",""trial"",""time""
""fullscreenenter"",""1"",""1748""
","
",,,,,,,,,,,,"[{""stimulus"":""run_exp/static/images/task_images/dig.jpg"",""time"":0.09999990463256836},{""stimulus"":""run_exp/static/images/task_images/land.jpg"",""time"":831.8999998569489},{""stimulus"":""run_exp/static/images/task_images/dig.jpg"",""time"":1648}]",[],1,,,,,,,,,,,,,,
harvest,80,449799,0.0-28.0-1.0,"""event"",""trial"",""time""
""fullscreenenter"",""1"",""1748""
""blur"",""2"",""8211""
""focus"",""3"",""18933""
","""event"",""trial"",""time""
""blur"",""2"",""8211""
","""event"",""trial"",""time""
""focus"",""3"",""18933""
","""event"",""trial"",""time""
""fullscreenenter"",""1"",""1748""
","
",,null,run_exp/static/images/task_images/gems/5.jpg,null,,,,,,,1,,,1,,,,,5,0.217074328,0.2,,,,,,,
decision,81,450252,0.0-28.0-2.0,"""event"",""trial"",""time""
""fullscreenenter"",""1"",""1748""
""blur"",""2"",""8211""
""focus"",""3"",""18933""
","""event"",""trial"",""time""
""blur"",""2"",""8211""
","""event"",""trial"",""time""
""focus"",""3"",""18933""
","""event"",""trial"",""time""
""fullscreenenter"",""1"",""1748""
","
",,452.0999999,run_exp/static/images/task_images/land.jpg,76,,,,,,,1,,,1,,,,,,,,17019,1,2,TRUE,,,
travel,82,459803,0.0-29.0-0.0,"""event"",""trial"",""time""
""fullscreenenter"",""1"",""1748""
""blur"",""2"",""8211""
""focus"",""3"",""18933""
","""event"",""trial"",""time""
""blur"",""2"",""8211""
","""event"",""trial"",""time""
""focus"",""3"",""18933""
","""event"",""trial"",""time""
""fullscreenenter"",""1"",""1748""
","
",,,,,,,,,,,,"[{""stimulus"":""run_exp/static/images/task_images/rocket-01.jpg"",""time"":0.20000004768371582},{""stimulus"":""run_exp/static/images/task_images/rocket-02.jpg"",""time"":1064.5999999046326},{""stimulus"":""run_exp/static/images/task_images/rocket-03.jpg"",""time"":2126.9000000953674},{""stimulus"":""run_exp/static/images/task_images/rocket-04.jpg"",""time"":3186.2000000476837},{""stimulus"":""run_exp/static/images/task_images/rocket-05.jpg"",""time"":4249.599999904633},{""stimulus"":""run_exp/static/images/task_images/rocket-06.jpg"",""time"":5302.099999904633},{""stimulus"":""run_exp/static/images/task_images/rocket-07.jpg"",""time"":6367.599999904633},{""stimulus"":""run_exp/static/images/task_images/rocket-08.jpg"",""time"":7422.200000047684},{""stimulus"":""run_exp/static/images/task_images/rocket-09.jpg"",""time"":8490.400000095367}]",[],1,,,,,,,,,,,,,,
alien_welcome,83,464808,0.0-29.0-1.0,"""event"",""trial"",""time""
""fullscreenenter"",""1"",""1748""
""blur"",""2"",""8211""
""focus"",""3"",""18933""
","""event"",""trial"",""time""
""blur"",""2"",""8211""
","""event"",""trial"",""time""
""focus"",""3"",""18933""
","""event"",""trial"",""time""
""fullscreenenter"",""1"",""1748""
","
",,null,run_exp/static/images/task_images/aliens/old_aliens/planet/alien_planet-71.jpg,null,,,,,,,,,,,,,71,"16,71,58,53,22,30,40,48,31,35,23,27,66,43,1,6,80,61,79,2,59,69,78,36,20,75,32,38,34,13",,,,,,,,,,
land,84,465323,0.0-29.0-2.0,"""event"",""trial"",""time""
""fullscreenenter"",""1"",""1748""
""blur"",""2"",""8211""
""focus"",""3"",""18933""
","""event"",""trial"",""time""
""blur"",""2"",""8211""
","""event"",""trial"",""time""
""focus"",""3"",""18933""
","""event"",""trial"",""time""
""fullscreenenter"",""1"",""1748""
","
",,null,run_exp/static/images/task_images/land.jpg,null,,,,,,,100,,,2,,,,,,,,,,,,,,
dig,85,467339,0.0-29.0-3.0,"""event"",""trial"",""time""
""fullscreenenter"",""1"",""1748""
""blur"",""2"",""8211""
""focus"",""3"",""18933""
","""event"",""trial"",""time""
""blur"",""2"",""8211""
","""event"",""trial"",""time""
""focus"",""3"",""18933""
","""event"",""trial"",""time""
""fullscreenenter"",""1"",""1748""
","
",,,,,,,,,,,,"[{""stimulus"":""run_exp/static/images/task_images/dig.jpg"",""time"":0.40000009536743164},{""stimulus"":""run_exp/static/images/task_images/land.jpg"",""time"":674.5},{""stimulus"":""run_exp/static/images/task_images/dig.jpg"",""time"":1339}]",[],2,,,,,,,,,,,,,,
harvest,86,468347,0.0-29.0-4.0,"""event"",""trial"",""time""
""fullscreenenter"",""1"",""1748""
""blur"",""2"",""8211""
""focus"",""3"",""18933""
","""event"",""trial"",""time""
""blur"",""2"",""8211""
","""event"",""trial"",""time""
""focus"",""3"",""18933""
","""event"",""trial"",""time""
""fullscreenenter"",""1"",""1748""
","
",,null,run_exp/static/images/task_images/gems/100.jpg,null,,,,,,,17,,,2,,,,,100,0.169880404,0.17,,,,,,,
decision,87,468926,0.0-29.0-5.0,"""event"",""trial"",""time""
""fullscreenenter"",""1"",""1748""
""blur"",""2"",""8211""
""focus"",""3"",""18933""
","""event"",""trial"",""time""
""blur"",""2"",""8211""
","""event"",""trial"",""time""
""focus"",""3"",""18933""
","""event"",""trial"",""time""
""fullscreenenter"",""1"",""1748""
","
",,576.9000001,run_exp/static/images/task_images/land.jpg,65,,,,,,,17,,,2,,,,,,,,35692,1,0,FALSE,,,
dig,88,471363,0.0-30.0-0.0,"""event"",""trial"",""time""
""fullscreenenter"",""1"",""1748""
""blur"",""2"",""8211""
""focus"",""3"",""18933""
","""event"",""trial"",""time""
""blur"",""2"",""8211""
","""event"",""trial"",""time""
""focus"",""3"",""18933""
","""event"",""trial"",""time""
""fullscreenenter"",""1"",""1748""
","
",,,,,,,,,,,,"[{""stimulus"":""run_exp/static/images/task_images/dig.jpg"",""time"":0.20000004768371582},{""stimulus"":""run_exp/static/images/task_images/land.jpg"",""time"":814.4000000953674},{""stimulus"":""run_exp/static/images/task_images/dig.jpg"",""time"":1626.2999999523163}]",[],2,,,,,,,,,,,,,,
harvest,89,472368,0.0-30.0-1.0,"""event"",""trial"",""time""
""fullscreenenter"",""1"",""1748""
""blur"",""2"",""8211""
""focus"",""3"",""18933""
","""event"",""trial"",""time""
""blur"",""2"",""8211""
","""event"",""trial"",""time""
""focus"",""3"",""18933""
","""event"",""trial"",""time""
""fullscreenenter"",""1"",""1748""
","
",,null,run_exp/static/images/task_images/gems/17.jpg,null,,,,,,,3,,,2,,,,,17,0.189340167,0.176470588,,,,,,,
decision,90,475379,0.0-30.0-2.0,"""event"",""trial"",""time""
""fullscreenenter"",""1"",""1748""
""blur"",""2"",""8211""
""focus"",""3"",""18933""
","""event"",""trial"",""time""
""blur"",""2"",""8211""
","""event"",""trial"",""time""
""focus"",""3"",""18933""
","""event"",""trial"",""time""
""fullscreenenter"",""1"",""1748""
","
",,null,run_exp/static/images/task_images/land.jpg,null,,,,,,,3,,,2,,,,,,,,42145,1,1,FALSE,,,
time_out,91,477394,0.0-31.0-0.0,"""event"",""trial"",""time""
""fullscreenenter"",""1"",""1748""
""blur"",""2"",""8211""
""focus"",""3"",""18933""
","""event"",""trial"",""time""
""blur"",""2"",""8211""
","""event"",""trial"",""time""
""focus"",""3"",""18933""
","""event"",""trial"",""time""
""fullscreenenter"",""1"",""1748""
","
",,null,run_exp/static/images/task_images/time_out.jpg,null,,,,,,,3,,,,,,,,,,,,,,,,,
decision,92,478537,0.0-31.0-1.0,"""event"",""trial"",""time""
""fullscreenenter"",""1"",""1748""
""blur"",""2"",""8211""
""focus"",""3"",""18933""
","""event"",""trial"",""time""
""blur"",""2"",""8211""
","""event"",""trial"",""time""
""focus"",""3"",""18933""
","""event"",""trial"",""time""
""fullscreenenter"",""1"",""1748""
","
",,1141.7,run_exp/static/images/task_images/land.jpg,76,,,,,,,3,,,2,,,,,,,,45303,1,1,TRUE,,,
travel,93,487399,0.0-32.0-0.0,"""event"",""trial"",""time""
""fullscreenenter"",""1"",""1748""
""blur"",""2"",""8211""
""focus"",""3"",""18933""
","""event"",""trial"",""time""
""blur"",""2"",""8211""
","""event"",""trial"",""time""
""focus"",""3"",""18933""
","""event"",""trial"",""time""
""fullscreenenter"",""1"",""1748""
","
",,,,,,,,,,,,"[{""stimulus"":""run_exp/static/images/task_images/rocket-01.jpg"",""time"":0.10000014305114746},{""stimulus"":""run_exp/static/images/task_images/rocket-02.jpg"",""time"":987.4000000953674},{""stimulus"":""run_exp/static/images/task_images/rocket-03.jpg"",""time"":1975.8000001907349},{""stimulus"":""run_exp/static/images/task_images/rocket-04.jpg"",""time"":2959.600000143051},{""stimulus"":""run_exp/static/images/task_images/rocket-05.jpg"",""time"":3943.800000190735},{""stimulus"":""run_exp/static/images/task_images/rocket-06.jpg"",""time"":4923.800000190735},{""stimulus"":""run_exp/static/images/task_images/rocket-07.jpg"",""time"":5911.400000095367},{""stimulus"":""run_exp/static/images/task_images/rocket-08.jpg"",""time"":6894.600000143051},{""stimulus"":""run_exp/static/images/task_images/rocket-09.jpg"",""time"":7879.800000190735}]",[],2,,,,,,,,,,,,,,
alien_welcome,94,492408,0.0-32.0-1.0,"""event"",""trial"",""time""
""fullscreenenter"",""1"",""1748""
""blur"",""2"",""8211""
""focus"",""3"",""18933""
","""event"",""trial"",""time""
""blur"",""2"",""8211""
","""event"",""trial"",""time""
""focus"",""3"",""18933""
","""event"",""trial"",""time""
""fullscreenenter"",""1"",""1748""
","
",,null,run_exp/static/images/task_images/aliens/old_aliens/planet/alien_planet-58.jpg,null,,,,,,,,,,,,,58,"16,71,58,53,22,30,40,48,31,35,23,27,66,43,1,6,80,61,79,2,59,69,78,36,20,75,32,38,34,13",,,,,,,,,,
land,95,492923,0.0-32.0-2.0,"""event"",""trial"",""time""
""fullscreenenter"",""1"",""1748""
""blur"",""2"",""8211""
""focus"",""3"",""18933""
","""event"",""trial"",""time""
""blur"",""2"",""8211""
","""event"",""trial"",""time""
""focus"",""3"",""18933""
","""event"",""trial"",""time""
""fullscreenenter"",""1"",""1748""
","
",,null,run_exp/static/images/task_images/land.jpg,null,,,,,,,107,,,3,,,,,,,,,,,,,,
dig,96,494934,0.0-32.0-3.0,"""event"",""trial"",""time""
""fullscreenenter"",""1"",""1748""
""blur"",""2"",""8211""
""focus"",""3"",""18933""
","""event"",""trial"",""time""
""blur"",""2"",""8211""
","""event"",""trial"",""time""
""focus"",""3"",""18933""
","""event"",""trial"",""time""
""fullscreenenter"",""1"",""1748""
","
",,,,,,,,,,,,"[{""stimulus"":""run_exp/static/images/task_images/dig.jpg"",""time"":0.40000009536743164},{""stimulus"":""run_exp/static/images/task_images/land.jpg"",""time"":678.4000000953674},{""stimulus"":""run_exp/static/images/task_images/dig.jpg"",""time"":1337.5}]",[],3,,,,,,,,,,,,,,
harvest,97,495946,0.0-32.0-4.0,"""event"",""trial"",""time""
""fullscreenenter"",""1"",""1748""
""blur"",""2"",""8211""
""focus"",""3"",""18933""
","""event"",""trial"",""time""
""blur"",""2"",""8211""
","""event"",""trial"",""time""
""focus"",""3"",""18933""
","""event"",""trial"",""time""
""fullscreenenter"",""1"",""1748""
","
",,null,run_exp/static/images/task_images/gems/107.jpg,null,,,,,,,57,,,3,,,,,107,0.529672475,0.53271028,,,,,,,
decision,98,496492,0.0-32.0-5.0,"""event"",""trial"",""time""
""fullscreenenter"",""1"",""1748""
""blur"",""2"",""8211""
""focus"",""3"",""18933""
","""event"",""trial"",""time""
""blur"",""2"",""8211""
","""event"",""trial"",""time""
""focus"",""3"",""18933""
","""event"",""trial"",""time""
""fullscreenenter"",""1"",""1748""
","
",,545.0999999,run_exp/static/images/task_images/land.jpg,65,,,,,,,57,,,3,,,,,,,,63258,1,0,FALSE,,,
dig,99,498951,0.0-33.0-0.0,"""event"",""trial"",""time""
""fullscreenenter"",""1"",""1748""
""blur"",""2"",""8211""
""focus"",""3"",""18933""
","""event"",""trial"",""time""
""blur"",""2"",""8211""
","""event"",""trial"",""time""
""focus"",""3"",""18933""
","""event"",""trial"",""time""
""fullscreenenter"",""1"",""1748""
","
",,,,,,,,,,,,"[{""stimulus"":""run_exp/static/images/task_images/dig.jpg"",""time"":0.10000014305114746},{""stimulus"":""run_exp/static/images/task_images/land.jpg"",""time"":824.5},{""stimulus"":""run_exp/static/images/task_images/dig.jpg"",""time"":1644.5}]",[],3,,,,,,,,,,,,,,
harvest,100,499963,0.0-33.0-1.0,"""event"",""trial"",""time""
""fullscreenenter"",""1"",""1748""
""blur"",""2"",""8211""
""focus"",""3"",""18933""
","""event"",""trial"",""time""
""blur"",""2"",""8211""
","""event"",""trial"",""time""
""focus"",""3"",""18933""
","""event"",""trial"",""time""
""fullscreenenter"",""1"",""1748""
","
",,null,run_exp/static/images/task_images/gems/57.jpg,null,,,,,,,32,,,3,,,,,57,0.552877229,0.561403509,,,,,,,
decision,101,500629,0.0-33.0-2.0,"""event"",""trial"",""time""
""fullscreenenter"",""1"",""1748""
""blur"",""2"",""8211""
""focus"",""3"",""18933""
","""event"",""trial"",""time""
""blur"",""2"",""8211""
","""event"",""trial"",""time""
""focus"",""3"",""18933""
","""event"",""trial"",""time""
""fullscreenenter"",""1"",""1748""
","
",,664.8,run_exp/static/images/task_images/land.jpg,65,,,,,,,32,,,3,,,,,,,,67395,1,1,FALSE,,,
dig,102,502978,0.0-34.0-0.0,"""event"",""trial"",""time""
""fullscreenenter"",""1"",""1748""
""blur"",""2"",""8211""
""focus"",""3"",""18933""
","""event"",""trial"",""time""
""blur"",""2"",""8211""
","""event"",""trial"",""time""
""focus"",""3"",""18933""
","""event"",""trial"",""time""
""fullscreenenter"",""1"",""1748""
","
",,,,,,,,,,,,"[{""stimulus"":""run_exp/static/images/task_images/dig.jpg"",""time"":0.10000014305114746},{""stimulus"":""run_exp/static/images/task_images/land.jpg"",""time"":786.8000001907349},{""stimulus"":""run_exp/static/images/task_images/dig.jpg"",""time"":1559}]",[],3,,,,,,,,,,,,,,
harvest,103,503984,0.0-34.0-1.0,"""event"",""trial"",""time""
""fullscreenenter"",""1"",""1748""
""blur"",""2"",""8211""
""focus"",""3"",""18933""
","""event"",""trial"",""time""
""blur"",""2"",""8211""
","""event"",""trial"",""time""
""focus"",""3"",""18933""
","""event"",""trial"",""time""
""fullscreenenter"",""1"",""1748""
","
",,null,run_exp/static/images/task_images/gems/32.jpg,null,,,,,,,16,,,3,,,,,32,0.494303119,0.5,,,,,,,
decision,104,504158,0.0-34.0-2.0,"""event"",""trial"",""time""
""fullscreenenter"",""1"",""1748""
""blur"",""2"",""8211""
""focus"",""3"",""18933""
","""event"",""trial"",""time""
""blur"",""2"",""8211""
","""event"",""trial"",""time""
""focus"",""3"",""18933""
","""event"",""trial"",""time""
""fullscreenenter"",""1"",""1748""
","
",,171.8999999,run_exp/static/images/task_images/land.jpg,65,,,,,,,16,,,3,,,,,,,,70924,1,2,FALSE,,,
dig,105,506991,0.0-35.0-0.0,"""event"",""trial"",""time""
""fullscreenenter"",""1"",""1748""
""blur"",""2"",""8211""
""focus"",""3"",""18933""
","""event"",""trial"",""time""
""blur"",""2"",""8211""
","""event"",""trial"",""time""
""focus"",""3"",""18933""
","""event"",""trial"",""time""
""fullscreenenter"",""1"",""1748""
","
",,,,,,,,,,,,"[{""stimulus"":""run_exp/static/images/task_images/dig.jpg"",""time"":0.10000014305114746},{""stimulus"":""run_exp/static/images/task_images/land.jpg"",""time"":952.5},{""stimulus"":""run_exp/static/images/task_images/dig.jpg"",""time"":1891}]",[],3,,,,,,,,,,,,,,
harvest,106,508003,0.0-35.0-1.0,"""event"",""trial"",""time""
""fullscreenenter"",""1"",""1748""
""blur"",""2"",""8211""
""focus"",""3"",""18933""
","""event"",""trial"",""time""
""blur"",""2"",""8211""
","""event"",""trial"",""time""
""focus"",""3"",""18933""
","""event"",""trial"",""time""
""fullscreenenter"",""1"",""1748""
","
",,null,run_exp/static/images/task_images/gems/16.jpg,null,,,,,,,9,,,3,,,,,16,0.550434588,0.5625,,,,,,,
decision,107,508105,0.0-35.0-2.0,"""event"",""trial"",""time""
""fullscreenenter"",""1"",""1748""
""blur"",""2"",""8211""
""focus"",""3"",""18933""
","""event"",""trial"",""time""
""blur"",""2"",""8211""
","""event"",""trial"",""time""
""focus"",""3"",""18933""
","""event"",""trial"",""time""
""fullscreenenter"",""1"",""1748""
","
",,99.5,run_exp/static/images/task_images/land.jpg,65,,,,,,,9,,,3,,,,,,,,74871,1,3,FALSE,,,
dig,108,511019,0.0-36.0-0.0,"""event"",""trial"",""time""
""fullscreenenter"",""1"",""1748""
""blur"",""2"",""8211""
""focus"",""3"",""18933""
","""event"",""trial"",""time""
""blur"",""2"",""8211""
","""event"",""trial"",""time""
""focus"",""3"",""18933""
","""event"",""trial"",""time""
""fullscreenenter"",""1"",""1748""
","
",,,,,,,,,,,,"[{""stimulus"":""run_exp/static/images/task_images/dig.jpg"",""time"":0.20000004768371582},{""stimulus"":""run_exp/static/images/task_images/land.jpg"",""time"":974.9000000953674},{""stimulus"":""run_exp/static/images/task_images/dig.jpg"",""time"":1942.7999999523163}]",[],3,,,,,,,,,,,,,,
harvest,109,512027,0.0-36.0-1.0,"""event"",""trial"",""time""
""fullscreenenter"",""1"",""1748""
""blur"",""2"",""8211""
""focus"",""3"",""18933""
","""event"",""trial"",""time""
""blur"",""2"",""8211""
","""event"",""trial"",""time""
""focus"",""3"",""18933""
","""event"",""trial"",""time""
""fullscreenenter"",""1"",""1748""
","
",,null,run_exp/static/images/task_images/gems/9.jpg,null,,,,,,,5,,,3,,,,,9,0.56668208,0.555555556,,,,,,,
decision,110,513093,0.0-36.0-2.0,"""event"",""trial"",""time""
""fullscreenenter"",""1"",""1748""
""blur"",""2"",""8211""
""focus"",""3"",""18933""
","""event"",""trial"",""time""
""blur"",""2"",""8211""
","""event"",""trial"",""time""
""focus"",""3"",""18933""
","""event"",""trial"",""time""
""fullscreenenter"",""1"",""1748""
","
",,1064.4,run_exp/static/images/task_images/land.jpg,76,,,,,,,5,,,3,,,,,,,,79859,1,4,TRUE,,,
travel,111,522033,0.0-37.0-0.0,"""event"",""trial"",""time""
""fullscreenenter"",""1"",""1748""
""blur"",""2"",""8211""
""focus"",""3"",""18933""
","""event"",""trial"",""time""
""blur"",""2"",""8211""
","""event"",""trial"",""time""
""focus"",""3"",""18933""
","""event"",""trial"",""time""
""fullscreenenter"",""1"",""1748""
","
",,,,,,,,,,,,"[{""stimulus"":""run_exp/static/images/task_images/rocket-01.jpg"",""time"":0.2999999523162842},{""stimulus"":""run_exp/static/images/task_images/rocket-02.jpg"",""time"":999.5999999046326},{""stimulus"":""run_exp/static/images/task_images/rocket-03.jpg"",""time"":1992.2000000476837},{""stimulus"":""run_exp/static/images/task_images/rocket-04.jpg"",""time"":2983.2000000476837},{""stimulus"":""run_exp/static/images/task_images/rocket-05.jpg"",""time"":3975.2000000476837},{""stimulus"":""run_exp/static/images/task_images/rocket-06.jpg"",""time"":4965.700000047684},{""stimulus"":""run_exp/static/images/task_images/rocket-07.jpg"",""time"":5961.400000095367},{""stimulus"":""run_exp/static/images/task_images/rocket-08.jpg"",""time"":6949.799999952316},{""stimulus"":""run_exp/static/images/task_images/rocket-09.jpg"",""time"":7943.200000047684}]",[],3,,,,,,,,,,,,,,
alien_welcome,112,527043,0.0-37.0-1.0,"""event"",""trial"",""time""
""fullscreenenter"",""1"",""1748""
""blur"",""2"",""8211""
""focus"",""3"",""18933""
","""event"",""trial"",""time""
""blur"",""2"",""8211""
","""event"",""trial"",""time""
""focus"",""3"",""18933""
","""event"",""trial"",""time""
""fullscreenenter"",""1"",""1748""
","
",,null,run_exp/static/images/task_images/aliens/old_aliens/planet/alien_planet-53.jpg,null,,,,,,,,,,,,,53,"16,71,58,53,22,30,40,48,31,35,23,27,66,43,1,6,80,61,79,2,59,69,78,36,20,75,32,38,34,13",,,,,,,,,,
land,113,527555,0.0-37.0-2.0,"""event"",""trial"",""time""
""fullscreenenter"",""1"",""1748""
""blur"",""2"",""8211""
""focus"",""3"",""18933""
","""event"",""trial"",""time""
""blur"",""2"",""8211""
","""event"",""trial"",""time""
""focus"",""3"",""18933""
","""event"",""trial"",""time""
""fullscreenenter"",""1"",""1748""
","
",,null,run_exp/static/images/task_images/land.jpg,null,,,,,,,100,,,4,,,,,,,,,,,,,,
dig,114,529569,0.0-37.0-3.0,"""event"",""trial"",""time""
""fullscreenenter"",""1"",""1748""
""blur"",""2"",""8211""
""focus"",""3"",""18933""
","""event"",""trial"",""time""
""blur"",""2"",""8211""
","""event"",""trial"",""time""
""focus"",""3"",""18933""
","""event"",""trial"",""time""
""fullscreenenter"",""1"",""1748""
","
",,,,,,,,,,,,"[{""stimulus"":""run_exp/static/images/task_images/dig.jpg"",""time"":0.39999985694885254},{""stimulus"":""run_exp/static/images/task_images/land.jpg"",""time"":677.1999998092651},{""stimulus"":""run_exp/static/images/task_images/dig.jpg"",""time"":1339.5999999046326}]",[],4,,,,,,,,,,,,,,
harvest,115,530579,0.0-37.0-4.0,"""event"",""trial"",""time""
""fullscreenenter"",""1"",""1748""
""blur"",""2"",""8211""
""focus"",""3"",""18933""
","""event"",""trial"",""time""
""blur"",""2"",""8211""
","""event"",""trial"",""time""
""focus"",""3"",""18933""
","""event"",""trial"",""time""
""fullscreenenter"",""1"",""1748""
","
",,null,run_exp/static/images/task_images/gems/100.jpg,null,,,,,,,55,,,4,,,,,100,0.552685714,0.55,,,,,,,
decision,116,530977,0.0-37.0-5.0,"""event"",""trial"",""time""
""fullscreenenter"",""1"",""1748""
""blur"",""2"",""8211""
""focus"",""3"",""18933""
","""event"",""trial"",""time""
""blur"",""2"",""8211""
","""event"",""trial"",""time""
""focus"",""3"",""18933""
","""event"",""trial"",""time""
""fullscreenenter"",""1"",""1748""
","
",,396.3,run_exp/static/images/task_images/land.jpg,65,,,,,,,55,,,4,,,,,,,,97744,1,0,FALSE,,,
dig,117,533595,0.0-38.0-0.0,"""event"",""trial"",""time""
""fullscreenenter"",""1"",""1748""
""blur"",""2"",""8211""
""focus"",""3"",""18933""
","""event"",""trial"",""time""
""blur"",""2"",""8211""
","""event"",""trial"",""time""
""focus"",""3"",""18933""
","""event"",""trial"",""time""
""fullscreenenter"",""1"",""1748""
","
",,,,,,,,,,,,"[{""stimulus"":""run_exp/static/images/task_images/dig.jpg"",""time"":0.19999980926513672},{""stimulus"":""run_exp/static/images/task_images/land.jpg"",""time"":877.5999999046326},{""stimulus"":""run_exp/static/images/task_images/dig.jpg"",""time"":1741.5}]",[],4,,,,,,,,,,,,,,
harvest,118,534600,0.0-38.0-1.0,"""event"",""trial"",""time""
""fullscreenenter"",""1"",""1748""
""blur"",""2"",""8211""
""focus"",""3"",""18933""
","""event"",""trial"",""time""
""blur"",""2"",""8211""
","""event"",""trial"",""time""
""focus"",""3"",""18933""
","""event"",""trial"",""time""
""fullscreenenter"",""1"",""1748""
","
",,null,run_exp/static/images/task_images/gems/55.jpg,null,,,,,,,30,,,4,,,,,55,0.546734969,0.545454545,,,,,,,
decision,119,535718,0.0-38.0-2.0,"""event"",""trial"",""time""
""fullscreenenter"",""1"",""1748""
""blur"",""2"",""8211""
""focus"",""3"",""18933""
","""event"",""trial"",""time""
""blur"",""2"",""8211""
","""event"",""trial"",""time""
""focus"",""3"",""18933""
","""event"",""trial"",""time""
""fullscreenenter"",""1"",""1748""
","
",,1116.3,run_exp/static/images/task_images/land.jpg,65,,,,,,,30,,,4,,,,,,,,102484,1,1,FALSE,,,
dig,120,537608,0.0-39.0-0.0,"""event"",""trial"",""time""
""fullscreenenter"",""1"",""1748""
""blur"",""2"",""8211""
""focus"",""3"",""18933""
","""event"",""trial"",""time""
""blur"",""2"",""8211""
","""event"",""trial"",""time""
""focus"",""3"",""18933""
","""event"",""trial"",""time""
""fullscreenenter"",""1"",""1748""
","
",,,,,,,,,,,,"[{""stimulus"":""run_exp/static/images/task_images/dig.jpg"",""time"":0.19999980926513672},{""stimulus"":""run_exp/static/images/task_images/land.jpg"",""time"":632.2999999523163},{""stimulus"":""run_exp/static/images/task_images/dig.jpg"",""time"":1261.6999998092651}]",[],4,,,,,,,,,,,,,,
harvest,121,538619,0.0-39.0-1.0,"""event"",""trial"",""time""
""fullscreenenter"",""1"",""1748""
""blur"",""2"",""8211""
""focus"",""3"",""18933""
","""event"",""trial"",""time""
""blur"",""2"",""8211""
","""event"",""trial"",""time""
""focus"",""3"",""18933""
","""event"",""trial"",""time""
""fullscreenenter"",""1"",""1748""
","
",,null,run_exp/static/images/task_images/gems/30.jpg,null,,,,,,,14,,,4,,,,,30,0.465073641,0.466666667,,,,,,,
decision,122,539972,0.0-39.0-2.0,"""event"",""trial"",""time""
""fullscreenenter"",""1"",""1748""
""blur"",""2"",""8211""
""focus"",""3"",""18933""
","""event"",""trial"",""time""
""blur"",""2"",""8211""
","""event"",""trial"",""time""
""focus"",""3"",""18933""
","""event"",""trial"",""time""
""fullscreenenter"",""1"",""1748""
","
",,1351,run_exp/static/images/task_images/land.jpg,65,,,,,,,14,,,4,,,,,,,,106738,1,2,FALSE,,,
dig,123,541634,0.0-40.0-0.0,"""event"",""trial"",""time""
""fullscreenenter"",""1"",""1748""
""blur"",""2"",""8211""
""focus"",""3"",""18933""
","""event"",""trial"",""time""
""blur"",""2"",""8211""
","""event"",""trial"",""time""
""focus"",""3"",""18933""
","""event"",""trial"",""time""
""fullscreenenter"",""1"",""1748""
","
",,,,,,,,,,,,"[{""stimulus"":""run_exp/static/images/task_images/dig.jpg"",""time"":0.10000014305114746},{""stimulus"":""run_exp/static/images/task_images/land.jpg"",""time"":551.2999999523163},{""stimulus"":""run_exp/static/images/task_images/dig.jpg"",""time"":1103.2999999523163}]",[],4,,,,,,,,,,,,,,
harvest,124,542640,0.0-40.0-1.0,"""event"",""trial"",""time""
""fullscreenenter"",""1"",""1748""
""blur"",""2"",""8211""
""focus"",""3"",""18933""
","""event"",""trial"",""time""
""blur"",""2"",""8211""
","""event"",""trial"",""time""
""focus"",""3"",""18933""
","""event"",""trial"",""time""
""fullscreenenter"",""1"",""1748""
","
",,null,run_exp/static/images/task_images/gems/14.jpg,null,,,,,,,7,,,4,,,,,14,0.508374677,0.5,,,,,,,
decision,125,542827,0.0-40.0-2.0,"""event"",""trial"",""time""
""fullscreenenter"",""1"",""1748""
""blur"",""2"",""8211""
""focus"",""3"",""18933""
","""event"",""trial"",""time""
""blur"",""2"",""8211""
","""event"",""trial"",""time""
""focus"",""3"",""18933""
","""event"",""trial"",""time""
""fullscreenenter"",""1"",""1748""
","
",,185,run_exp/static/images/task_images/land.jpg,65,,,,,,,7,,,4,,,,,,,,109593,1,3,FALSE,,,
dig,126,545651,0.0-41.0-0.0,"""event"",""trial"",""time""
""fullscreenenter"",""1"",""1748""
""blur"",""2"",""8211""
""focus"",""3"",""18933""
","""event"",""trial"",""time""
""blur"",""2"",""8211""
","""event"",""trial"",""time""
""focus"",""3"",""18933""
","""event"",""trial"",""time""
""fullscreenenter"",""1"",""1748""
","
",,,,,,,,,,,,"[{""stimulus"":""run_exp/static/images/task_images/dig.jpg"",""time"":0.2999999523162842},{""stimulus"":""run_exp/static/images/task_images/land.jpg"",""time"":944.3999998569489},{""stimulus"":""run_exp/static/images/task_images/dig.jpg"",""time"":1882.0999999046326}]",[],4,,,,,,,,,,,,,,
harvest,127,546659,0.0-41.0-1.0,"""event"",""trial"",""time""
""fullscreenenter"",""1"",""1748""
""blur"",""2"",""8211""
""focus"",""3"",""18933""
","""event"",""trial"",""time""
""blur"",""2"",""8211""
","""event"",""trial"",""time""
""focus"",""3"",""18933""
","""event"",""trial"",""time""
""fullscreenenter"",""1"",""1748""
","
",,null,run_exp/static/images/task_images/gems/7.jpg,null,,,,,,,3,,,4,,,,,7,0.482824781,0.428571429,,,,,,,
decision,128,547422,0.0-41.0-2.0,"""event"",""trial"",""time""
""fullscreenenter"",""1"",""1748""
""blur"",""2"",""8211""
""focus"",""3"",""18933""
","""event"",""trial"",""time""
""blur"",""2"",""8211""
","""event"",""trial"",""time""
""focus"",""3"",""18933""
","""event"",""trial"",""time""
""fullscreenenter"",""1"",""1748""
","
",,761.1999998,run_exp/static/images/task_images/land.jpg,76,,,,,,,3,,,4,,,,,,,,114188,1,4,TRUE,,,
travel,129,556667,0.0-42.0-0.0,"""event"",""trial"",""time""
""fullscreenenter"",""1"",""1748""
""blur"",""2"",""8211""
""focus"",""3"",""18933""
","""event"",""trial"",""time""
""blur"",""2"",""8211""
","""event"",""trial"",""time""
""focus"",""3"",""18933""
","""event"",""trial"",""time""
""fullscreenenter"",""1"",""1748""
","
",,,,,,,,,,,,"[{""stimulus"":""run_exp/static/images/task_images/rocket-01.jpg"",""time"":0.20000004768371582},{""stimulus"":""run_exp/static/images/task_images/rocket-02.jpg"",""time"":1033.2999999523163},{""stimulus"":""run_exp/static/images/task_images/rocket-03.jpg"",""time"":2065.4000000953674},{""stimulus"":""run_exp/static/images/task_images/rocket-04.jpg"",""time"":3085.7999999523163},{""stimulus"":""run_exp/static/images/task_images/rocket-05.jpg"",""time"":4113.799999952316},{""stimulus"":""run_exp/static/images/task_images/rocket-06.jpg"",""time"":5137.799999952316},{""stimulus"":""run_exp/static/images/task_images/rocket-07.jpg"",""time"":6168.200000047684},{""stimulus"":""run_exp/static/images/task_images/rocket-08.jpg"",""time"":7191.5},{""stimulus"":""run_exp/static/images/task_images/rocket-09.jpg"",""time"":8217.099999904633}]",[],4,,,,,,,,,,,,,,
alien_welcome,130,561674,0.0-42.0-1.0,"""event"",""trial"",""time""
""fullscreenenter"",""1"",""1748""
""blur"",""2"",""8211""
""focus"",""3"",""18933""
","""event"",""trial"",""time""
""blur"",""2"",""8211""
","""event"",""trial"",""time""
""focus"",""3"",""18933""
","""event"",""trial"",""time""
""fullscreenenter"",""1"",""1748""
","
",,null,run_exp/static/images/task_images/aliens/old_aliens/planet/alien_planet-22.jpg,null,,,,,,,,,,,,,22,"16,71,58,53,22,30,40,48,31,35,23,27,66,43,1,6,80,61,79,2,59,69,78,36,20,75,32,38,34,13",,,,,,,,,,
land,131,562184,0.0-42.0-2.0,"""event"",""trial"",""time""
""fullscreenenter"",""1"",""1748""
""blur"",""2"",""8211""
""focus"",""3"",""18933""
","""event"",""trial"",""time""
""blur"",""2"",""8211""
","""event"",""trial"",""time""
""focus"",""3"",""18933""
","""event"",""trial"",""time""
""fullscreenenter"",""1"",""1748""
","
",,null,run_exp/static/images/task_images/land.jpg,null,,,,,,,97,,,5,,,,,,,,,,,,,,
dig,132,564195,0.0-42.0-3.0,"""event"",""trial"",""time""
""fullscreenenter"",""1"",""1748""
""blur"",""2"",""8211""
""focus"",""3"",""18933""
","""event"",""trial"",""time""
""blur"",""2"",""8211""
","""event"",""trial"",""time""
""focus"",""3"",""18933""
","""event"",""trial"",""time""
""fullscreenenter"",""1"",""1748""
","
",,,,,,,,,,,,"[{""stimulus"":""run_exp/static/images/task_images/dig.jpg"",""time"":0.5},{""stimulus"":""run_exp/static/images/task_images/land.jpg"",""time"":673.5},{""stimulus"":""run_exp/static/images/task_images/dig.jpg"",""time"":1337.7000000476837}]",[],5,,,,,,,,,,,,,,
harvest,133,565203,0.0-42.0-4.0,"""event"",""trial"",""time""
""fullscreenenter"",""1"",""1748""
""blur"",""2"",""8211""
""focus"",""3"",""18933""
","""event"",""trial"",""time""
""blur"",""2"",""8211""
","""event"",""trial"",""time""
""focus"",""3"",""18933""
","""event"",""trial"",""time""
""fullscreenenter"",""1"",""1748""
","
",,null,run_exp/static/images/task_images/gems/97.jpg,null,,,,,,,42,,,5,,,,,97,0.429731937,0.432989691,,,,,,,
decision,134,566091,0.0-42.0-5.0,"""event"",""trial"",""time""
""fullscreenenter"",""1"",""1748""
""blur"",""2"",""8211""
""focus"",""3"",""18933""
","""event"",""trial"",""time""
""blur"",""2"",""8211""
","""event"",""trial"",""time""
""focus"",""3"",""18933""
","""event"",""trial"",""time""
""fullscreenenter"",""1"",""1748""
","
",,885.9000001,run_exp/static/images/task_images/land.jpg,65,,,,,,,42,,,5,,,,,,,,132857,1,0,FALSE,,,
dig,135,568217,0.0-43.0-0.0,"""event"",""trial"",""time""
""fullscreenenter"",""1"",""1748""
""blur"",""2"",""8211""
""focus"",""3"",""18933""
","""event"",""trial"",""time""
""blur"",""2"",""8211""
","""event"",""trial"",""time""
""focus"",""3"",""18933""
","""event"",""trial"",""time""
""fullscreenenter"",""1"",""1748""
","
",,,,,,,,,,,,"[{""stimulus"":""run_exp/static/images/task_images/dig.jpg"",""time"":0.10000014305114746},{""stimulus"":""run_exp/static/images/task_images/land.jpg"",""time"":713.7000000476837},{""stimulus"":""run_exp/static/images/task_images/dig.jpg"",""time"":1415.5}]",[],5,,,,,,,,,,,,,,
harvest,136,569223,0.0-43.0-1.0,"""event"",""trial"",""time""
""fullscreenenter"",""1"",""1748""
""blur"",""2"",""8211""
""focus"",""3"",""18933""
","""event"",""trial"",""time""
""blur"",""2"",""8211""
","""event"",""trial"",""time""
""focus"",""3"",""18933""
","""event"",""trial"",""time""
""fullscreenenter"",""1"",""1748""
","
",,null,run_exp/static/images/task_images/gems/42.jpg,null,,,,,,,23,,,5,,,,,42,0.539202399,0.547619048,,,,,,,
decision,137,569978,0.0-43.0-2.0,"""event"",""trial"",""time""
""fullscreenenter"",""1"",""1748""
""blur"",""2"",""8211""
""focus"",""3"",""18933""
","""event"",""trial"",""time""
""blur"",""2"",""8211""
","""event"",""trial"",""time""
""focus"",""3"",""18933""
","""event"",""trial"",""time""
""fullscreenenter"",""1"",""1748""
","
",,753,run_exp/static/images/task_images/land.jpg,65,,,,,,,23,,,5,,,,,,,,136744,1,1,FALSE,,,
dig,138,572231,0.0-44.0-0.0,"""event"",""trial"",""time""
""fullscreenenter"",""1"",""1748""
""blur"",""2"",""8211""
""focus"",""3"",""18933""
","""event"",""trial"",""time""
""blur"",""2"",""8211""
","""event"",""trial"",""time""
""focus"",""3"",""18933""
","""event"",""trial"",""time""
""fullscreenenter"",""1"",""1748""
","
",,,,,,,,,,,,"[{""stimulus"":""run_exp/static/images/task_images/dig.jpg"",""time"":0.09999990463256836},{""stimulus"":""run_exp/static/images/task_images/land.jpg"",""time"":752.2999999523163},{""stimulus"":""run_exp/static/images/task_images/dig.jpg"",""time"":1509.3999998569489}]",[],5,,,,,,,,,,,,,,
harvest,139,573240,0.0-44.0-1.0,"""event"",""trial"",""time""
""fullscreenenter"",""1"",""1748""
""blur"",""2"",""8211""
""focus"",""3"",""18933""
","""event"",""trial"",""time""
""blur"",""2"",""8211""
","""event"",""trial"",""time""
""focus"",""3"",""18933""
","""event"",""trial"",""time""
""fullscreenenter"",""1"",""1748""
","
",,null,run_exp/static/images/task_images/gems/23.jpg,null,,,,,,,9,,,5,,,,,23,0.393834147,0.391304348,,,,,,,
decision,140,574649,0.0-44.0-2.0,"""event"",""trial"",""time""
""fullscreenenter"",""1"",""1748""
""blur"",""2"",""8211""
""focus"",""3"",""18933""
","""event"",""trial"",""time""
""blur"",""2"",""8211""
","""event"",""trial"",""time""
""focus"",""3"",""18933""
","""event"",""trial"",""time""
""fullscreenenter"",""1"",""1748""
","
",,1407.1,run_exp/static/images/task_images/land.jpg,65,,,,,,,9,,,5,,,,,,,,141416,1,2,FALSE,,,
dig,141,576248,0.0-45.0-0.0,"""event"",""trial"",""time""
""fullscreenenter"",""1"",""1748""
""blur"",""2"",""8211""
""focus"",""3"",""18933""
","""event"",""trial"",""time""
""blur"",""2"",""8211""
","""event"",""trial"",""time""
""focus"",""3"",""18933""
","""event"",""trial"",""time""
""fullscreenenter"",""1"",""1748""
","
",,,,,,,,,,,,"[{""stimulus"":""run_exp/static/images/task_images/dig.jpg"",""time"":0.10000014305114746},{""stimulus"":""run_exp/static/images/task_images/land.jpg"",""time"":531.2000000476837},{""stimulus"":""run_exp/static/images/task_images/dig.jpg"",""time"":1066.1000001430511}]",[],5,,,,,,,,,,,,,,
harvest,142,577256,0.0-45.0-1.0,"""event"",""trial"",""time""
""fullscreenenter"",""1"",""1748""
""blur"",""2"",""8211""
""focus"",""3"",""18933""
","""event"",""trial"",""time""
""blur"",""2"",""8211""
","""event"",""trial"",""time""
""focus"",""3"",""18933""
","""event"",""trial"",""time""
""fullscreenenter"",""1"",""1748""
","
",,null,run_exp/static/images/task_images/gems/9.jpg,null,,,,,,,5,,,5,,,,,9,0.52467703,0.555555556,,,,,,,
decision,143,577711,0.0-45.0-2.0,"""event"",""trial"",""time""
""fullscreenenter"",""1"",""1748""
""blur"",""2"",""8211""
""focus"",""3"",""18933""
","""event"",""trial"",""time""
""blur"",""2"",""8211""
","""event"",""trial"",""time""
""focus"",""3"",""18933""
","""event"",""trial"",""time""
""fullscreenenter"",""1"",""1748""
","
",,453.3,run_exp/static/images/task_images/land.jpg,76,,,,,,,5,,,5,,,,,,,,144477,1,3,TRUE,,,
travel,144,587263,0.0-46.0-0.0,"""event"",""trial"",""time""
""fullscreenenter"",""1"",""1748""
""blur"",""2"",""8211""
""focus"",""3"",""18933""
","""event"",""trial"",""time""
""blur"",""2"",""8211""
","""event"",""trial"",""time""
""focus"",""3"",""18933""
","""event"",""trial"",""time""
""fullscreenenter"",""1"",""1748""
","
",,,,,,,,,,,,"[{""stimulus"":""run_exp/static/images/task_images/rocket-01.jpg"",""time"":0.20000004768371582},{""stimulus"":""run_exp/static/images/task_images/rocket-02.jpg"",""time"":1069.2000000476837},{""stimulus"":""run_exp/static/images/task_images/rocket-03.jpg"",""time"":2128.2999999523163},{""stimulus"":""run_exp/static/images/task_images/rocket-04.jpg"",""time"":3189.0999999046326},{""stimulus"":""run_exp/static/images/task_images/rocket-05.jpg"",""time"":4248.299999952316},{""stimulus"":""run_exp/static/images/task_images/rocket-06.jpg"",""time"":5304.299999952316},{""stimulus"":""run_exp/static/images/task_images/rocket-07.jpg"",""time"":6364.400000095367},{""stimulus"":""run_exp/static/images/task_images/rocket-08.jpg"",""time"":7432.200000047684},{""stimulus"":""run_exp/static/images/task_images/rocket-09.jpg"",""time"":8486.599999904633}]",[],5,,,,,,,,,,,,,,
alien_welcome,145,592275,0.0-46.0-1.0,"""event"",""trial"",""time""
""fullscreenenter"",""1"",""1748""
""blur"",""2"",""8211""
""focus"",""3"",""18933""
","""event"",""trial"",""time""
""blur"",""2"",""8211""
","""event"",""trial"",""time""
""focus"",""3"",""18933""
","""event"",""trial"",""time""
""fullscreenenter"",""1"",""1748""
","
",,null,run_exp/static/images/task_images/aliens/old_aliens/planet/alien_planet-30.jpg,null,,,,,,,,,,,,,30,"16,71,58,53,22,30,40,48,31,35,23,27,66,43,1,6,80,61,79,2,59,69,78,36,20,75,32,38,34,13",,,,,,,,,,
land,146,592784,0.0-46.0-2.0,"""event"",""trial"",""time""
""fullscreenenter"",""1"",""1748""
""blur"",""2"",""8211""
""focus"",""3"",""18933""
","""event"",""trial"",""time""
""blur"",""2"",""8211""
","""event"",""trial"",""time""
""focus"",""3"",""18933""
","""event"",""trial"",""time""
""fullscreenenter"",""1"",""1748""
","
",,null,run_exp/static/images/task_images/land.jpg,null,,,,,,,92,,,6,,,,,,,,,,,,,,
dig,147,594795,0.0-46.0-3.0,"""event"",""trial"",""time""
""fullscreenenter"",""1"",""1748""
""blur"",""2"",""8211""
""focus"",""3"",""18933""
","""event"",""trial"",""time""
""blur"",""2"",""8211""
","""event"",""trial"",""time""
""focus"",""3"",""18933""
","""event"",""trial"",""time""
""fullscreenenter"",""1"",""1748""
","
",,,,,,,,,,,,"[{""stimulus"":""run_exp/static/images/task_images/dig.jpg"",""time"":0.5999999046325684},{""stimulus"":""run_exp/static/images/task_images/land.jpg"",""time"":669.5999999046326},{""stimulus"":""run_exp/static/images/task_images/dig.jpg"",""time"":1337.7999999523163}]",[],6,,,,,,,,,,,,,,
harvest,148,595803,0.0-46.0-4.0,"""event"",""trial"",""time""
""fullscreenenter"",""1"",""1748""
""blur"",""2"",""8211""
""focus"",""3"",""18933""
","""event"",""trial"",""time""
""blur"",""2"",""8211""
","""event"",""trial"",""time""
""focus"",""3"",""18933""
","""event"",""trial"",""time""
""fullscreenenter"",""1"",""1748""
","
",,null,run_exp/static/images/task_images/gems/92.jpg,null,,,,,,,74,,,6,,,,,92,0.802254772,0.804347826,,,,,,,
decision,149,596377,0.0-46.0-5.0,"""event"",""trial"",""time""
""fullscreenenter"",""1"",""1748""
""blur"",""2"",""8211""
""focus"",""3"",""18933""
","""event"",""trial"",""time""
""blur"",""2"",""8211""
","""event"",""trial"",""time""
""focus"",""3"",""18933""
","""event"",""trial"",""time""
""fullscreenenter"",""1"",""1748""
","
",,572.3,run_exp/static/images/task_images/land.jpg,65,,,,,,,74,,,6,,,,,,,,163143,1,0,FALSE,,,
dig,150,598819,0.0-47.0-0.0,"""event"",""trial"",""time""
""fullscreenenter"",""1"",""1748""
""blur"",""2"",""8211""
""focus"",""3"",""18933""
","""event"",""trial"",""time""
""blur"",""2"",""8211""
","""event"",""trial"",""time""
""focus"",""3"",""18933""
","""event"",""trial"",""time""
""fullscreenenter"",""1"",""1748""
","
",,,,,,,,,,,,"[{""stimulus"":""run_exp/static/images/task_images/dig.jpg"",""time"":0.10000014305114746},{""stimulus"":""run_exp/static/images/task_images/land.jpg"",""time"":821.7000000476837},{""stimulus"":""run_exp/static/images/task_images/dig.jpg"",""time"":1628.1000001430511}]",[],6,,,,,,,,,,,,,,
harvest,151,599827,0.0-47.0-1.0,"""event"",""trial"",""time""
""fullscreenenter"",""1"",""1748""
""blur"",""2"",""8211""
""focus"",""3"",""18933""
","""event"",""trial"",""time""
""blur"",""2"",""8211""
","""event"",""trial"",""time""
""focus"",""3"",""18933""
","""event"",""trial"",""time""
""fullscreenenter"",""1"",""1748""
","
",,null,run_exp/static/images/task_images/gems/74.jpg,null,,,,,,,55,,,6,,,,,74,0.743489165,0.743243243,,,,,,,
decision,152,600365,0.0-47.0-2.0,"""event"",""trial"",""time""
""fullscreenenter"",""1"",""1748""
""blur"",""2"",""8211""
""focus"",""3"",""18933""
","""event"",""trial"",""time""
""blur"",""2"",""8211""
","""event"",""trial"",""time""
""focus"",""3"",""18933""
","""event"",""trial"",""time""
""fullscreenenter"",""1"",""1748""
","
",,535.7,run_exp/static/images/task_images/land.jpg,65,,,,,,,55,,,6,,,,,,,,167131,1,1,FALSE,,,
dig,153,602843,0.0-48.0-0.0,"""event"",""trial"",""time""
""fullscreenenter"",""1"",""1748""
""blur"",""2"",""8211""
""focus"",""3"",""18933""
","""event"",""trial"",""time""
""blur"",""2"",""8211""
","""event"",""trial"",""time""
""focus"",""3"",""18933""
","""event"",""trial"",""time""
""fullscreenenter"",""1"",""1748""
","
",,,,,,,,,,,,"[{""stimulus"":""run_exp/static/images/task_images/dig.jpg"",""time"":0.19999980926513672},{""stimulus"":""run_exp/static/images/task_images/land.jpg"",""time"":834.8999998569489},{""stimulus"":""run_exp/static/images/task_images/dig.jpg"",""time"":1650.8999998569489}]",[],6,,,,,,,,,,,,,,
harvest,154,603848,0.0-48.0-1.0,"""event"",""trial"",""time""
""fullscreenenter"",""1"",""1748""
""blur"",""2"",""8211""
""focus"",""3"",""18933""
","""event"",""trial"",""time""
""blur"",""2"",""8211""
","""event"",""trial"",""time""
""focus"",""3"",""18933""
","""event"",""trial"",""time""
""fullscreenenter"",""1"",""1748""
","
",,null,run_exp/static/images/task_images/gems/55.jpg,null,,,,,,,44,,,6,,,,,55,0.792077677,0.8,,,,,,,
decision,155,604459,0.0-48.0-2.0,"""event"",""trial"",""time""
""fullscreenenter"",""1"",""1748""
""blur"",""2"",""8211""
""focus"",""3"",""18933""
","""event"",""trial"",""time""
""blur"",""2"",""8211""
","""event"",""trial"",""time""
""focus"",""3"",""18933""
","""event"",""trial"",""time""
""fullscreenenter"",""1"",""1748""
","
",,609,run_exp/static/images/task_images/land.jpg,65,,,,,,,44,,,6,,,,,,,,171225,1,2,FALSE,,,
dig,156,606859,0.0-49.0-0.0,"""event"",""trial"",""time""
""fullscreenenter"",""1"",""1748""
""blur"",""2"",""8211""
""focus"",""3"",""18933""
","""event"",""trial"",""time""
""blur"",""2"",""8211""
","""event"",""trial"",""time""
""focus"",""3"",""18933""
","""event"",""trial"",""time""
""fullscreenenter"",""1"",""1748""
","
",,,,,,,,,,,,"[{""stimulus"":""run_exp/static/images/task_images/dig.jpg"",""time"":0.2999999523162842},{""stimulus"":""run_exp/static/images/task_images/land.jpg"",""time"":800.7999999523163},{""stimulus"":""run_exp/static/images/task_images/dig.jpg"",""time"":1604.5}]",[],6,,,,,,,,,,,,,,
harvest,157,607867,0.0-49.0-1.0,"""event"",""trial"",""time""
""fullscreenenter"",""1"",""1748""
""blur"",""2"",""8211""
""focus"",""3"",""18933""
","""event"",""trial"",""time""
""blur"",""2"",""8211""
","""event"",""trial"",""time""
""focus"",""3"",""18933""
","""event"",""trial"",""time""
""fullscreenenter"",""1"",""1748""
","
",,null,run_exp/static/images/task_images/gems/44.jpg,null,,,,,,,35,,,6,,,,,44,0.804673392,0.795454545,,,,,,,
decision,158,607945,0.0-49.0-2.0,"""event"",""trial"",""time""
""fullscreenenter"",""1"",""1748""
""blur"",""2"",""8211""
""focus"",""3"",""18933""
","""event"",""trial"",""time""
""blur"",""2"",""8211""
","""event"",""trial"",""time""
""focus"",""3"",""18933""
","""event"",""trial"",""time""
""fullscreenenter"",""1"",""1748""
","
",,76.29999995,run_exp/static/images/task_images/land.jpg,65,,,,,,,35,,,6,,,,,,,,174711,1,3,FALSE,,,
dig,159,610883,0.0-50.0-0.0,"""event"",""trial"",""time""
""fullscreenenter"",""1"",""1748""
""blur"",""2"",""8211""
""focus"",""3"",""18933""
","""event"",""trial"",""time""
""blur"",""2"",""8211""
","""event"",""trial"",""time""
""focus"",""3"",""18933""
","""event"",""trial"",""time""
""fullscreenenter"",""1"",""1748""
","
",,,,,,,,,,,,"[{""stimulus"":""run_exp/static/images/task_images/dig.jpg"",""time"":0.20000004768371582},{""stimulus"":""run_exp/static/images/task_images/land.jpg"",""time"":982.7000000476837},{""stimulus"":""run_exp/static/images/task_images/dig.jpg"",""time"":1959.3000001907349}]",[],6,,,,,,,,,,,,,,
harvest,160,611891,0.0-50.0-1.0,"""event"",""trial"",""time""
""fullscreenenter"",""1"",""1748""
""blur"",""2"",""8211""
""focus"",""3"",""18933""
","""event"",""trial"",""time""
""blur"",""2"",""8211""
","""event"",""trial"",""time""
""focus"",""3"",""18933""
","""event"",""trial"",""time""
""fullscreenenter"",""1"",""1748""
","
",,null,run_exp/static/images/task_images/gems/35.jpg,null,,,,,,,29,,,6,,,,,35,0.822505743,0.828571429,,,,,,,
decision,161,612502,0.0-50.0-2.0,"""event"",""trial"",""time""
""fullscreenenter"",""1"",""1748""
""blur"",""2"",""8211""
""focus"",""3"",""18933""
","""event"",""trial"",""time""
""blur"",""2"",""8211""
","""event"",""trial"",""time""
""focus"",""3"",""18933""
","""event"",""trial"",""time""
""fullscreenenter"",""1"",""1748""
","
",,609.0999999,run_exp/static/images/task_images/land.jpg,65,,,,,,,29,,,6,,,,,,,,179268,1,4,FALSE,,,
dig,162,614906,0.0-51.0-0.0,"""event"",""trial"",""time""
""fullscreenenter"",""1"",""1748""
""blur"",""2"",""8211""
""focus"",""3"",""18933""
","""event"",""trial"",""time""
""blur"",""2"",""8211""
","""event"",""trial"",""time""
""focus"",""3"",""18933""
","""event"",""trial"",""time""
""fullscreenenter"",""1"",""1748""
","
",,,,,,,,,,,,"[{""stimulus"":""run_exp/static/images/task_images/dig.jpg"",""time"":0.2999999523162842},{""stimulus"":""run_exp/static/images/task_images/land.jpg"",""time"":801.8999998569489},{""stimulus"":""run_exp/static/images/task_images/dig.jpg"",""time"":1597.2999999523163}]",[],6,,,,,,,,,,,,,,
harvest,163,615911,0.0-51.0-1.0,"""event"",""trial"",""time""
""fullscreenenter"",""1"",""1748""
""blur"",""2"",""8211""
""focus"",""3"",""18933""
","""event"",""trial"",""time""
""blur"",""2"",""8211""
","""event"",""trial"",""time""
""focus"",""3"",""18933""
","""event"",""trial"",""time""
""fullscreenenter"",""1"",""1748""
","
",,null,run_exp/static/images/task_images/gems/29.jpg,null,,,,,,,23,,,6,,,,,29,0.790783406,0.793103448,,,,,,,
decision,164,615945,0.0-51.0-2.0,"""event"",""trial"",""time""
""fullscreenenter"",""1"",""1748""
""blur"",""2"",""8211""
""focus"",""3"",""18933""
","""event"",""trial"",""time""
""blur"",""2"",""8211""
","""event"",""trial"",""time""
""focus"",""3"",""18933""
","""event"",""trial"",""time""
""fullscreenenter"",""1"",""1748""
","
",,32.69999981,run_exp/static/images/task_images/land.jpg,65,,,,,,,23,,,6,,,,,,,,182711,1,5,FALSE,,,
dig,165,618922,0.0-52.0-0.0,"""event"",""trial"",""time""
""fullscreenenter"",""1"",""1748""
""blur"",""2"",""8211""
""focus"",""3"",""18933""
","""event"",""trial"",""time""
""blur"",""2"",""8211""
","""event"",""trial"",""time""
""focus"",""3"",""18933""
","""event"",""trial"",""time""
""fullscreenenter"",""1"",""1748""
","
",,,,,,,,,,,,"[{""stimulus"":""run_exp/static/images/task_images/dig.jpg"",""time"":0.19999980926513672},{""stimulus"":""run_exp/static/images/task_images/land.jpg"",""time"":998.2999999523163},{""stimulus"":""run_exp/static/images/task_images/dig.jpg"",""time"":1989.5999999046326}]",[],6,,,,,,,,,,,,,,
harvest,166,619927,0.0-52.0-1.0,"""event"",""trial"",""time""
""fullscreenenter"",""1"",""1748""
""blur"",""2"",""8211""
""focus"",""3"",""18933""
","""event"",""trial"",""time""
""blur"",""2"",""8211""
","""event"",""trial"",""time""
""focus"",""3"",""18933""
","""event"",""trial"",""time""
""fullscreenenter"",""1"",""1748""
","
",,null,run_exp/static/images/task_images/gems/23.jpg,null,,,,,,,17,,,6,,,,,23,0.753735339,0.739130435,,,,,,,
decision,167,620702,0.0-52.0-2.0,"""event"",""trial"",""time""
""fullscreenenter"",""1"",""1748""
""blur"",""2"",""8211""
""focus"",""3"",""18933""
","""event"",""trial"",""time""
""blur"",""2"",""8211""
","""event"",""trial"",""time""
""focus"",""3"",""18933""
","""event"",""trial"",""time""
""fullscreenenter"",""1"",""1748""
","
",,773.7,run_exp/static/images/task_images/land.jpg,65,,,,,,,17,,,6,,,,,,,,187468,1,6,FALSE,,,
dig,168,622935,0.0-53.0-0.0,"""event"",""trial"",""time""
""fullscreenenter"",""1"",""1748""
""blur"",""2"",""8211""
""focus"",""3"",""18933""
","""event"",""trial"",""time""
""blur"",""2"",""8211""
","""event"",""trial"",""time""
""focus"",""3"",""18933""
","""event"",""trial"",""time""
""fullscreenenter"",""1"",""1748""
","
",,,,,,,,,,,,"[{""stimulus"":""run_exp/static/images/task_images/dig.jpg"",""time"":0.2999999523162842},{""stimulus"":""run_exp/static/images/task_images/land.jpg"",""time"":753.5999999046326},{""stimulus"":""run_exp/static/images/task_images/dig.jpg"",""time"":1497.7000000476837}]",[],6,,,,,,,,,,,,,,
harvest,169,623947,0.0-53.0-1.0,"""event"",""trial"",""time""
""fullscreenenter"",""1"",""1748""
""blur"",""2"",""8211""
""focus"",""3"",""18933""
","""event"",""trial"",""time""
""blur"",""2"",""8211""
","""event"",""trial"",""time""
""focus"",""3"",""18933""
","""event"",""trial"",""time""
""fullscreenenter"",""1"",""1748""
","
",,null,run_exp/static/images/task_images/gems/17.jpg,null,,,,,,,12,,,6,,,,,17,0.71572349,0.705882353,,,,,,,
decision,170,624923,0.0-53.0-2.0,"""event"",""trial"",""time""
""fullscreenenter"",""1"",""1748""
""blur"",""2"",""8211""
""focus"",""3"",""18933""
","""event"",""trial"",""time""
""blur"",""2"",""8211""
","""event"",""trial"",""time""
""focus"",""3"",""18933""
","""event"",""trial"",""time""
""fullscreenenter"",""1"",""1748""
","
",,974.3999999,run_exp/static/images/task_images/land.jpg,65,,,,,,,12,,,6,,,,,,,,191689,1,7,FALSE,,,
dig,171,626961,0.0-54.0-0.0,"""event"",""trial"",""time""
""fullscreenenter"",""1"",""1748""
""blur"",""2"",""8211""
""focus"",""3"",""18933""
","""event"",""trial"",""time""
""blur"",""2"",""8211""
","""event"",""trial"",""time""
""focus"",""3"",""18933""
","""event"",""trial"",""time""
""fullscreenenter"",""1"",""1748""
","
",,,,,,,,,,,,"[{""stimulus"":""run_exp/static/images/task_images/dig.jpg"",""time"":0.2999999523162842},{""stimulus"":""run_exp/static/images/task_images/land.jpg"",""time"":681.4000000953674},{""stimulus"":""run_exp/static/images/task_images/dig.jpg"",""time"":1355.7999999523163}]",[],6,,,,,,,,,,,,,,
harvest,172,627971,0.0-54.0-1.0,"""event"",""trial"",""time""
""fullscreenenter"",""1"",""1748""
""blur"",""2"",""8211""
""focus"",""3"",""18933""
","""event"",""trial"",""time""
""blur"",""2"",""8211""
","""event"",""trial"",""time""
""focus"",""3"",""18933""
","""event"",""trial"",""time""
""fullscreenenter"",""1"",""1748""
","
