trial_type,trial_index,time_elapsed,internal_node_id,success,rt,stimulus,key_press,prompt,subject_id,age,gender,button_pressed,next_reward,animation_sequence,responses,planet,curr_prac_trial,n_prac_rounds,alien,aliens,reward_received,decay_rate_actual,decay_rate_exp,time_in_block,block_num,prt,last_trial_on_planet,button_html,bonus,num_failures
pavlovia,0,3,0.0-0.0,,,,,,,,,,,,,,,,,,,,,,,,,,,
fullscreen,1,4436,0.0-1.0,TRUE,,,,,,,,,,,,,,,,,,,,,,,,,,
instruc_welcome,2,14129,0.0-2.0,,null,run_exp/static/audio/clip_1_welcome.m4a,null,"<p>Howdy! In this experiment, you’ll be an explorer traveling through space to collect space treasure.</p><p>Your mission is to collect as much treasure as possible.</p><br><br><p><img src='run_exp/static/images/task_images/opening_img-01.jpg' height='300' width='auto'></p>",ScZlWtJmDLGDRVe_a5Ke5UddwllDBGZ_MLRP_0J68hc16w9WiYh8,10.44,female,,,,,,,,,,,,,,,,,,,
audio-keyboard-response,3,30677,0.0-3.0,,null,run_exp/static/audio/clip_2_move.m4a,null,,,,,,,,,,,,,,,,,,,,,,,
welcome_dec,4,31825,0.0-4.0,,1147,"<p>Howdy! In this experiment, you’ll be an explorer traveling through space to collect space treasure.</p><p>Your mission is to collect as much treasure as possible.</p><br><br><p><img src='run_exp/static/images/task_images/opening_img-01.jpg' height='300' width='auto'></p>",,,,,,1,,,,,,,,,,,,,,,,,,
html-keyboard-response,5,33663,0.0-5.0,,1836,"<p>Howdy! In this experiment, you’ll be an explorer traveling through space to collect space treasure.</p><p>Your mission is to collect as much treasure as possible.</p><br><br><p><img src='run_exp/static/images/task_images/opening_img-01.jpg' height='300' width='auto'></p><button class=""jspsych-html-btn-unchosen""><img src=""run_exp/static/images/task_images/planet-01.jpg"" height=""50""></button><button class=""jspsych-html-btn-chosen""><img src=""run_exp/static/images/task_images/planet-02.jpg"" height=""50""></button><p><b>[press the space bar to lock in your answer]<b><br></p>",32,,,,,,,,,,,,,,,,,,,,,,,
instruc_goal,6,43679,0.0-6.0-0.0,,null,run_exp/static/audio/clip_3_goal.m4a,null,"<p> As a space explorer, you’ll visit different planets to dig for space treasure, these pink gems.</p> <p> The more treasure you dig up, the more bonus money you’ll win! </p><br><br><p><img src='run_exp/static/images/task_images/pink_gem.jpg' height='300' width='auto'></p>",,,,,,,,,,,,,,,,,,,,,,
instruc_goal,7,46323,0.0-6.0-1.0,,2644,"<p> As a space explorer, you’ll visit different planets to dig for space treasure, these pink gems.</p> <p> The more treasure you dig up, the more bonus money you’ll win! </p><br><br><p><img src='run_exp/static/images/task_images/pink_gem.jpg' height='300' width='auto'></p>",,,,,,1,,,,,,,,,,,,,,,,,,
html-keyboard-response,8,47559,0.0-6.0-2.0,,1234,"<p> As a space explorer, you’ll visit different planets to dig for space treasure, these pink gems.</p> <p> The more treasure you dig up, the more bonus money you’ll win! </p><br><br><p><img src='run_exp/static/images/task_images/pink_gem.jpg' height='300' width='auto'></p><button class=""jspsych-html-btn-unchosen""><img src=""run_exp/static/images/task_images/planet-01.jpg"" height=""50""></button><button class=""jspsych-html-btn-chosen""><img src=""run_exp/static/images/task_images/planet-02.jpg"" height=""50""></button><p><b>[press the space bar to lock in your answer]<b><br></p>",32,,,,,,,,,,,,,,,,,,,,,,,
instruc_dig,9,63529,0.0-7.0-0.0,,null,run_exp/static/audio/clip_4_dig.m4a,null,,,,,,100,,,,,,,,,,,,,,,,,
instruc_dig_try,10,64032,0.0-7.0-1.0,,502,"<p> When you’ve arrived at a new planet, you will dig once. </p> <p>Then, you get to decide if you want to stay on the planet and dig again or travel to a new planet and dig there.</p> <p> To stay and dig, press the letter <strong>‘A’</strong> on your keyboard. Try pressing it now! </p><p><img src='run_exp/static/images/task_images/land.jpg'  height='700' width='auto'></p>",65,"<p> When you’ve arrived at a new planet, you will dig once. </p> <p>Then, you get to decide if you want to stay on the planet and dig again or travel to a new planet and dig there.</p> <p> To stay and dig, press the letter <strong>‘A’</strong> on your keyboard. Try pressing it now! </p><p><img src='run_exp/static/images/task_images/land.jpg'  height='700' width='auto'></p>",,,,,100,,,,,,,,,,,,,,,,,
dig_prac,11,66095,0.0-7.0-2.0,,,,,,,,,,,"[{""stimulus"":""run_exp/static/images/task_images/dig.jpg"",""time"":0},{""stimulus"":""run_exp/static/images/task_images/land.jpg"",""time"":687},{""stimulus"":""run_exp/static/images/task_images/dig.jpg"",""time"":1367}]",[],,,,,,,,,,,,,,,
instruc_travel,12,102289,0.0-7.0-3.0,,null,run_exp/static/audio/clip_5_travel.m4a,null,"<p>Every time you dig up gems, there are less gems on the planet, so the more you dig on a planet the fewer gems you’ll get with each dig.</p><p>When gems are running low, you may want to travel to a new planet. </p> <p>  Planets are very far apart in this galaxy, so it will take some time to travel between them. </p> <br><p>There are lots and lots of planets for you to visit, so you won’t be able to return to any planets you’ve seen before. </p><br><p>To leave this planet and travel to a new one, press the letter <strong>‘L’</strong> on your keyboard. Try pressing it now! </p><p><img src='run_exp/static/images/task_images/rocket-01.jpg'  height='600' width='auto'></p>",,,,,,,,,,,,,,,,,,,,,,
instruc_travel_try,13,103255,0.0-7.0-4.0,,965,"<p>Every time you dig up gems, there are less gems on the planet, so the more you dig on a planet the fewer gems you’ll get with each dig.</p><p>When gems are running low, you may want to travel to a new planet. </p> <p>  Planets are very far apart in this galaxy, so it will take some time to travel between them. </p> <br><p>There are lots and lots of planets for you to visit, so you won’t be able to return to any planets you’ve seen before. </p><br><p>To leave this planet and travel to a new one, press the letter <strong>‘L’</strong> on your keyboard. Try pressing it now! </p><p><img src='run_exp/static/images/task_images/rocket-01.jpg'  height='600' width='auto'></p>",76,"<p>Every time you dig up gems, there are less gems on the planet, so the more you dig on a planet the fewer gems you’ll get with each dig.</p><p>When gems are running low, you may want to travel to a new planet. </p> <p>  Planets are very far apart in this galaxy, so it will take some time to travel between them. </p> <br><p>There are lots and lots of planets for you to visit, so you won’t be able to return to any planets you’ve seen before. </p><br><p>To leave this planet and travel to a new one, press the letter <strong>‘L’</strong> on your keyboard. Try pressing it now! </p><p><img src='run_exp/static/images/task_images/rocket-01.jpg'  height='600' width='auto'></p>",,,,,,,,,,,,,,,,,,,,,,
travel_prac,14,113336,0.0-7.0-5.0,,,,,,,,,,,"[{""stimulus"":""run_exp/static/images/task_images/rocket-01.jpg"",""time"":0},{""stimulus"":""run_exp/static/images/task_images/rocket-02.jpg"",""time"":1117},{""stimulus"":""run_exp/static/images/task_images/rocket-03.jpg"",""time"":2236},{""stimulus"":""run_exp/static/images/task_images/rocket-04.jpg"",""time"":3356},{""stimulus"":""run_exp/static/images/task_images/rocket-05.jpg"",""time"":4476},{""stimulus"":""run_exp/static/images/task_images/rocket-06.jpg"",""time"":5596},{""stimulus"":""run_exp/static/images/task_images/rocket-07.jpg"",""time"":6716},{""stimulus"":""run_exp/static/images/task_images/rocket-08.jpg"",""time"":7837},{""stimulus"":""run_exp/static/images/task_images/rocket-09.jpg"",""time"":8957}]",[],0,,,,,,,,,,,,,,
instruc_alien_greet,15,140509,0.0-7.0-6.0,,null,run_exp/static/audio/clip_6_alien.m4a,null,"<p>When you arrive at a new planet, the alien who owns the treasure mine on that planet will greet you!</p><p>The better an alien takes care of their mine the easier it is to dig for gems. Some aliens take better care of their mine than others. So, you won’t get exactly the same amount of gems on each planet.</p><p>What the alien looks like does not tell you anything about how many gems there are on the planet.</p><br><p><img src=""run_exp/static/images/task_images/aliens/instructions_aliens/planet/alien_planet-1.jpg""  height=""600"" width=""auto""></p>",,,,,,,,,,,,,,,,,,,,,,
instruc_alien_greet,16,143510,0.0-7.0-7.0,,3000,"<p>When you arrive at a new planet, the alien who owns the treasure mine on that planet will greet you!</p><p>The better an alien takes care of their mine the easier it is to dig for gems. Some aliens take better care of their mine than others. So, you won’t get exactly the same amount of gems on each planet.</p><p>What the alien looks like does not tell you anything about how many gems there are on the planet.</p><br><p><img src=""run_exp/static/images/task_images/aliens/instructions_aliens/planet/alien_planet-1.jpg""  height=""600"" width=""auto""></p>",,,,,,1,,,,,,,,,,,,,,,,,,
html-keyboard-response,17,145184,0.0-7.0-8.0,,1673,"<p>When you arrive at a new planet, the alien who owns the treasure mine on that planet will greet you!</p><p>The better an alien takes care of their mine the easier it is to dig for gems. Some aliens take better care of their mine than others. So, you won’t get exactly the same amount of gems on each planet.</p><p>What the alien looks like does not tell you anything about how many gems there are on the planet.</p><br><p><img src=""run_exp/static/images/task_images/aliens/instructions_aliens/planet/alien_planet-1.jpg""  height=""600"" width=""auto""></p><button class=""jspsych-html-btn-unchosen""><img src=""run_exp/static/images/task_images/planet-01.jpg"" height=""50""></button><button class=""jspsych-html-btn-chosen""><img src=""run_exp/static/images/task_images/planet-02.jpg"" height=""50""></button><p><b>[press the space bar to lock in your answer]<b><br></p>",32,,,,,,,,,,,,,,,,,,,,,,,
time_out,18,156218,0.0-8.0-0.0,,null,run_exp/static/audio/clip_7_timeout.m4a,null,"<p>If you don't make your choice fast enough, you’ll have to wait a few seconds before you can make another one.</p><p>You can’t dig for more gems or travel to new planets. You just have to sit and wait.</p><br><p><img src='run_exp/static/images/task_images/time_out.jpg'  height='600' width='auto'></p>",,,,,,,,,,,,,,,,,,,,,,
time_out,19,157610,0.0-8.0-1.0,,1392,"<p>If you don't make your choice fast enough, you’ll have to wait a few seconds before you can make another one.</p><p>You can’t dig for more gems or travel to new planets. You just have to sit and wait.</p><br><p><img src='run_exp/static/images/task_images/time_out.jpg'  height='600' width='auto'></p>",,,,,,1,,,,,,,,,,,,,,,,,,
html-keyboard-response,20,159438,0.0-8.0-2.0,,1827,"<p>If you don't make your choice fast enough, you’ll have to wait a few seconds before you can make another one.</p><p>You can’t dig for more gems or travel to new planets. You just have to sit and wait.</p><br><p><img src='run_exp/static/images/task_images/time_out.jpg'  height='600' width='auto'></p><button class=""jspsych-html-btn-unchosen""><img src=""run_exp/static/images/task_images/planet-01.jpg"" height=""50""></button><button class=""jspsych-html-btn-chosen""><img src=""run_exp/static/images/task_images/planet-02.jpg"" height=""50""></button><p><b>[press the space bar to lock in your answer]<b><br></p>",32,,,,,,,,,,,,,,,,,,,,,,,
instruc_break,21,175088,0.0-9.0-0.0,,null,run_exp/static/audio/clip_8_break.m4a,null,"<p> After digging and traveling for a while, you’ll be able to take a break at home base. </p><p>The game will last 20 minutes no matter what.</p><p>You will visit home base every 5 minutes, so, you will visit home base three times during the game.</p><br><p><img src='run_exp/static/images/task_images/home_base.jpg' height='600' width='auto'></p>",,,,,,,,,,,,,,,,,,,,,,
instruc_break,22,176687,0.0-9.0-1.0,,1599,"<p> After digging and traveling for a while, you’ll be able to take a break at home base. </p><p>The game will last 20 minutes no matter what.</p><p>You will visit home base every 5 minutes, so, you will visit home base three times during the game.</p><br><p><img src='run_exp/static/images/task_images/home_base.jpg' height='600' width='auto'></p>",,,,,,1,,,,,,,,,,,,,,,,,,
html-keyboard-response,23,176903,0.0-9.0-2.0,,215,"<p> After digging and traveling for a while, you’ll be able to take a break at home base. </p><p>The game will last 20 minutes no matter what.</p><p>You will visit home base every 5 minutes, so, you will visit home base three times during the game.</p><br><p><img src='run_exp/static/images/task_images/home_base.jpg' height='600' width='auto'></p><button class=""jspsych-html-btn-unchosen""><img src=""run_exp/static/images/task_images/planet-01.jpg"" height=""50""></button><button class=""jspsych-html-btn-chosen""><img src=""run_exp/static/images/task_images/planet-02.jpg"" height=""50""></button><p><b>[press the space bar to lock in your answer]<b><br></p>",32,,,,,,,,,,,,,,,,,,,,,,,
instruc_prac_game,24,186979,0.0-10.0-0.0,,null,run_exp/static/audio/clip_9_practice.m4a,null,"<p> Are you ready to play a practice game? </p> <p>In this practice game, you'll be digging up barrels of gems. But, in the real game, you'll be digging up the gems themselves. </p>",,,,,,,,,,,,,,,,,,,,,,
html-button-response,25,188587,0.0-10.0-1.0,,1607,"<p> Are you ready to play a practice game? </p> <p>In this practice game, you'll be digging up barrels of gems. But, in the real game, you'll be digging up the gems themselves. </p>",,,,,,0,,,,,,,,,,,,,,,,,,
alien_welcome_prac,26,193606,0.0-11.0-0.0,,null,run_exp/static/images/task_images/aliens/practice_aliens/planet/alien_planet-5.jpg,null,,,,,,,,,,,,,,,,,,,,,,,
land_prac,27,194126,0.0-11.0-1.0,,null,run_exp/static/images/task_images/land.jpg,null,,,,,,108,,,0,,,,,,,,,,,,,,
dig_prac,28,196166,0.0-11.0-2.0,,,,,,,,,,,"[{""stimulus"":""run_exp/static/images/task_images/dig.jpg"",""time"":0},{""stimulus"":""run_exp/static/images/task_images/land.jpg"",""time"":674},{""stimulus"":""run_exp/static/images/task_images/dig.jpg"",""time"":1355}]",[],,,,,,,,,,,,,,,
harvest_prac,29,197186,0.0-11.0-3.0,,null,run_exp/static/images/task_images/barrel_text.jpg,null,,,,,,,,,,,,,,,,,,,,,,,
decision_prac,30,200207,0.0-11.0-4.0,,null,run_exp/static/images/task_images/land.jpg,null,,,,,,,,,,1,,,,,,,,,,,,,
time_out,31,202226,0.0-12.0-0.0,,null,run_exp/static/images/task_images/time_out.jpg,null,,,,,,,,,,,,,,,,,,,,,,,
decision_prac,32,203432,0.0-12.0-1.0,,1205,run_exp/static/images/task_images/land.jpg,65,,,,,,,,,,2,,,,,,,,,,,,,
dig_prac,33,205466,0.0-13.0-0.0,,,,,,,,,,,"[{""stimulus"":""run_exp/static/images/task_images/dig.jpg"",""time"":0},{""stimulus"":""run_exp/static/images/task_images/land.jpg"",""time"":669},{""stimulus"":""run_exp/static/images/task_images/dig.jpg"",""time"":1349}]",[],,,,,,,,,,,,,,,
harvest_prac,34,206486,0.0-13.0-1.0,,null,run_exp/static/images/task_images/barrel_text.jpg,null,,,,,,,,,,,,,,,,,,,,,,,
decision_prac,35,207064,0.0-13.0-2.0,,578,run_exp/static/images/task_images/land.jpg,65,,,,,,,,,,3,,,,,,,,,,,,,
dig_prac,36,209106,0.0-14.0-0.0,,,,,,,,,,,"[{""stimulus"":""run_exp/static/images/task_images/dig.jpg"",""time"":0},{""stimulus"":""run_exp/static/images/task_images/land.jpg"",""time"":676},{""stimulus"":""run_exp/static/images/task_images/dig.jpg"",""time"":1357}]",[],,,,,,,,,,,,,,,
harvest_prac,37,210126,0.0-14.0-1.0,,null,run_exp/static/images/task_images/barrel_text.jpg,null,,,,,,,,,,,,,,,,,,,,,,,
decision_prac,38,210359,0.0-14.0-2.0,,234,run_exp/static/images/task_images/land.jpg,65,,,,,,,,,,4,,,,,,,,,,,,,
dig_prac,39,212407,0.0-15.0-0.0,,,,,,,,,,,"[{""stimulus"":""run_exp/static/images/task_images/dig.jpg"",""time"":0},{""stimulus"":""run_exp/static/images/task_images/land.jpg"",""time"":681},{""stimulus"":""run_exp/static/images/task_images/dig.jpg"",""time"":1361}]",[],,,,,,,,,,,,,,,
harvest_prac,40,213426,0.0-15.0-1.0,,null,run_exp/static/images/task_images/barrel_text.jpg,null,,,,,,,,,,,,,,,,,,,,,,,
decision_prac,41,214056,0.0-15.0-2.0,,629,run_exp/static/images/task_images/land.jpg,65,,,,,,,,,,,1,,,,,,,,,,,,
quiz_instruc,42,225054,0.0-16.0-0.0,,10996,run_exp/static/audio/clip_10_quiz.m4a,,,,,,0,,,,,,,,,,,,,,,,,,
instruc_repeat,43,267769,0.0-16.0-1.0,,null,"<p> Are you ready to play a practice game? </p> <p>In this practice game, you'll be digging up barrels of gems. But, in the real game, you'll be digging up the gems themselves. </p>",null,"<p>In this game, your goal is to collect as many gems as you can. That’s how you will win bonus money. </p> <p>The entire game will last 20 minutes no matter how many gems you collect or how many planets you visit. </p><p>To stay on a planet and dig again, press the letter A on your keyboard. To leave for a new planet, press the letter L.</p><p>The more you dig on a planet, the fewer gems you’ll get with each dig which is why you might consider leaving for a new planet. </p><p>When you arrive at a new planet, you’ll be greeted by an alien. What the alien looks like does not tell you anything about how much treasure is on the planet. </p>",,,,,,,,,,,,,,,,,,,,,,
instruc_repeat_continue,44,268680,0.0-16.0-2.0,,910,"<p> Are you ready to play a practice game? </p> <p>In this practice game, you'll be digging up barrels of gems. But, in the real game, you'll be digging up the gems themselves. </p>",,,,,,0,,,,,,,,,,,,,,,,,,
quiz_q_1_ask,45,272008,0.0-16.0-3.0,,3328,run_exp/static/audio/clip_11_q1_ask.m4a,,,,,,2,,,,,,,,,,,,,,,,,,
quiz_q_1_fb_correct,46,275819,0.0-17.0-0.0,,null,run_exp/static/audio/clip_12_q1_corrrect.m4a,null,<p>That’s correct. You win extra money by collecting more gems.</p>,,,,,,,,,,,,,,,,,,,,,,
quiz_q_2_ask,47,278046,0.0-17.0-1.0,,2227,run_exp/static/audio/clip_14_q2_ask.m4a,,,,,,1,,,,,,,,,,,,,,,,,,
quiz_q_2_fb_correct,48,282008,0.0-18.0-0.0,,null,run_exp/static/audio/clip_15_q2_correct.m4a,null,<p>That’s correct. The experiment is 20 minutes no matter what.</p>,,,,,,,,,,,,,,,,,,,,,,
quiz_q_3_ask,49,284546,0.0-18.0-1.0,,2538,run_exp/static/audio/clip_17_q3_ask.m4a,,,,,,1,,,,,,,,,,,,,,,,,,
quiz_q_3_fb_correct,50,288479,0.0-19.0-0.0,,null,run_exp/static/audio/clip_18_q3_correct.m4a,null,<p> That’s correct. You press the letter L to travel to a new planet.</p>,,,,,,,,,,,,,,,,,,,,,,
quiz_q_4_ask,51,291173,0.0-19.0-1.0,,2694,run_exp/static/audio/clip_20_q4_ask.m4a,,,,,,0,,,,,,,,,,,,,,,,,,
quiz_q_4_fb_correct,52,296449,0.0-20.0-0.0,,null,run_exp/static/audio/clip_21_q4_correct.m4a,null,<p> That’s correct. The more you dig on a planet the fewer gems you’ll get with each dig. </p>,,,,,,,,,,,,,,,,,,,,,,
quiz_q_5_ask,53,300617,0.0-20.0-1.0,,4168,run_exp/static/audio/clip_23_q5_ask.m4a,,,,,,1,,,,,,,,,,,,,,,,,,
quiz_q_5_fb_correct,54,305578,0.0-21.0-0.0,,null,run_exp/static/audio/clip_24_q5_correct.m4a,null,<p> That’s correct. The alien tells you nothing about how much treasure is on the planet.</p>,,,,,,,,,,,,,,,,,,,,,,
quiz_correct,55,309008,0.0-22.0-0.0,,null,run_exp/static/audio/clip_26_correct_quiz.m4a,null,,,,,,,,,,,,,,,,,,,,,,,
quiz_correct_continue,56,311108,0.0-22.0-1.0,,2099,<p>Good job! You're now ready to move on to the real game!</p>,,,,,,0,,,,,,,,,,,,,,,,,,
audio-keyboard-response,57,321188,0.0-22.0-2.0,,null,run_exp/static/audio/clip_28_real_game.m4a,null,,,,,,,,,,,,,,,,,,,,,,,
instruc_begin_exp_contine,58,322210,0.0-22.0-3.0,,1021,"<p>Now that you know how  to dig for space treasure and travel to new planets,you can start exploring! </p><p>Do you want to go over the instructions again or get started with the real game?</p>",,,,,,1,,,,,,1,,,,,,,,,,,,
alien_welcome,59,327226,0.0-23.0-0.0,,null,run_exp/static/images/task_images/aliens/old_aliens/planet/alien_planet-77.jpg,null,,,,,,,,,,,,77,"77,60,29,22,26,2,52,32,24,35,40,65,9,44,64,11,25,48,54,76,57,46,4,41,10,56,8,39,13,20,15,73,58,43,6,61,72,38,80,53,1,67",,,,,,,,,,
land,60,327746,0.0-23.0-1.0,,null,run_exp/static/images/task_images/land.jpg,null,,,,,,108,,,1,,,,,,,,,,,,,,
dig,61,329786,0.0-23.0-2.0,,,,,,,,,,,"[{""stimulus"":""run_exp/static/images/task_images/dig.jpg"",""time"":0},{""stimulus"":""run_exp/static/images/task_images/land.jpg"",""time"":675},{""stimulus"":""run_exp/static/images/task_images/dig.jpg"",""time"":1354}]",[],1,,,,,,,,,,,,,,
harvest,62,330806,0.0-23.0-3.0,,null,run_exp/static/images/task_images/gems/108.jpg,null,,,,,,21,,,1,,,,,108,0.198535715,0.194444444,,,,,,,
decision,63,331592,0.0-23.0-4.0,,785,run_exp/static/images/task_images/land.jpg,65,,,,,,21,,,1,,,,,,,,9381,1,0,FALSE,,,
dig,64,333826,0.0-24.0-0.0,,,,,,,,,,,"[{""stimulus"":""run_exp/static/images/task_images/dig.jpg"",""time"":0},{""stimulus"":""run_exp/static/images/task_images/land.jpg"",""time"":749},{""stimulus"":""run_exp/static/images/task_images/dig.jpg"",""time"":1488}]",[],1,,,,,,,,,,,,,,
harvest,65,334846,0.0-24.0-1.0,,null,run_exp/static/images/task_images/gems/21.jpg,null,,,,,,6,,,1,,,,,21,0.263235726,0.285714286,,,,,,,
decision,66,335312,0.0-24.0-2.0,,465,run_exp/static/images/task_images/land.jpg,65,,,,,,6,,,1,,,,,,,,13101,1,1,FALSE,,,
dig,67,337886,0.0-25.0-0.0,,,,,,,,,,,"[{""stimulus"":""run_exp/static/images/task_images/dig.jpg"",""time"":0},{""stimulus"":""run_exp/static/images/task_images/land.jpg"",""time"":848},{""stimulus"":""run_exp/static/images/task_images/dig.jpg"",""time"":1710}]",[],1,,,,,,,,,,,,,,
harvest,68,338907,0.0-25.0-1.0,,null,run_exp/static/images/task_images/gems/6.jpg,null,,,,,,1,,,1,,,,,6,0.236909816,0.166666667,,,,,,,
decision,69,340968,0.0-25.0-2.0,,2060,run_exp/static/images/task_images/land.jpg,76,,,,,,1,,,1,,,,,,,,18757,1,2,TRUE,,,
travel,70,349066,0.0-26.0-0.0,,,,,,,,,,,"[{""stimulus"":""run_exp/static/images/task_images/rocket-01.jpg"",""time"":0},{""stimulus"":""run_exp/static/images/task_images/rocket-02.jpg"",""time"":893},{""stimulus"":""run_exp/static/images/task_images/rocket-03.jpg"",""time"":1793},{""stimulus"":""run_exp/static/images/task_images/rocket-04.jpg"",""time"":2693},{""stimulus"":""run_exp/static/images/task_images/rocket-05.jpg"",""time"":3594},{""stimulus"":""run_exp/static/images/task_images/rocket-06.jpg"",""time"":4492},{""stimulus"":""run_exp/static/images/task_images/rocket-07.jpg"",""time"":5392},{""stimulus"":""run_exp/static/images/task_images/rocket-08.jpg"",""time"":6294},{""stimulus"":""run_exp/static/images/task_images/rocket-09.jpg"",""time"":7193}]",[],1,,,,,,,,,,,,,,
alien_welcome,71,354086,0.0-26.0-1.0,,null,run_exp/static/images/task_images/aliens/old_aliens/planet/alien_planet-60.jpg,null,,,,,,,,,,,,60,"77,60,29,22,26,2,52,32,24,35,40,65,9,44,64,11,25,48,54,76,57,46,4,41,10,56,8,39,13,20,15,73,58,43,6,61,72,38,80,53,1,67",,,,,,,,,,
land,72,354606,0.0-26.0-2.0,,null,run_exp/static/images/task_images/land.jpg,null,,,,,,108,,,2,,,,,,,,,,,,,,
dig,73,356646,0.0-26.0-3.0,,,,,,,,,,,"[{""stimulus"":""run_exp/static/images/task_images/dig.jpg"",""time"":0},{""stimulus"":""run_exp/static/images/task_images/land.jpg"",""time"":676},{""stimulus"":""run_exp/static/images/task_images/dig.jpg"",""time"":1356}]",[],2,,,,,,,,,,,,,,
harvest,74,357666,0.0-26.0-4.0,,null,run_exp/static/images/task_images/gems/108.jpg,null,,,,,,27,,,2,,,,,108,0.253188768,0.25,,,,,,,
decision,75,358056,0.0-26.0-5.0,,390,run_exp/static/images/task_images/land.jpg,65,,,,,,27,,,2,,,,,,,,35845,1,0,FALSE,,,
dig,76,360705,0.0-27.0-0.0,,,,,,,,,,,"[{""stimulus"":""run_exp/static/images/task_images/dig.jpg"",""time"":0},{""stimulus"":""run_exp/static/images/task_images/land.jpg"",""time"":885},{""stimulus"":""run_exp/static/images/task_images/dig.jpg"",""time"":1765}]",[],2,,,,,,,,,,,,,,
harvest,77,361725,0.0-27.0-1.0,,null,run_exp/static/images/task_images/gems/27.jpg,null,,,,,,7,,,2,,,,,27,0.273456098,0.259259259,,,,,,,
decision,78,362024,0.0-27.0-2.0,,298,run_exp/static/images/task_images/land.jpg,76,,,,,,7,,,2,,,,,,,,39813,1,1,TRUE,,,
travel,79,371766,0.0-28.0-0.0,,,,,,,,,,,"[{""stimulus"":""run_exp/static/images/task_images/rocket-01.jpg"",""time"":0},{""stimulus"":""run_exp/static/images/task_images/rocket-02.jpg"",""time"":1097},{""stimulus"":""run_exp/static/images/task_images/rocket-03.jpg"",""time"":2177},{""stimulus"":""run_exp/static/images/task_images/rocket-04.jpg"",""time"":3257},{""stimulus"":""run_exp/static/images/task_images/rocket-05.jpg"",""time"":4337},{""stimulus"":""run_exp/static/images/task_images/rocket-06.jpg"",""time"":5417},{""stimulus"":""run_exp/static/images/task_images/rocket-07.jpg"",""time"":6497},{""stimulus"":""run_exp/static/images/task_images/rocket-08.jpg"",""time"":7577},{""stimulus"":""run_exp/static/images/task_images/rocket-09.jpg"",""time"":8657}]",[],2,,,,,,,,,,,,,,
alien_welcome,80,376777,0.0-28.0-1.0,,null,run_exp/static/images/task_images/aliens/old_aliens/planet/alien_planet-29.jpg,null,,,,,,,,,,,,29,"77,60,29,22,26,2,52,32,24,35,40,65,9,44,64,11,25,48,54,76,57,46,4,41,10,56,8,39,13,20,15,73,58,43,6,61,72,38,80,53,1,67",,,,,,,,,,
land,81,377296,0.0-28.0-2.0,,null,run_exp/static/images/task_images/land.jpg,null,,,,,,102,,,3,,,,,,,,,,,,,,
dig,82,379336,0.0-28.0-3.0,,,,,,,,,,,"[{""stimulus"":""run_exp/static/images/task_images/dig.jpg"",""time"":0},{""stimulus"":""run_exp/static/images/task_images/land.jpg"",""time"":676},{""stimulus"":""run_exp/static/images/task_images/dig.jpg"",""time"":1356}]",[],3,,,,,,,,,,,,,,
harvest,83,380357,0.0-28.0-4.0,,null,run_exp/static/images/task_images/gems/102.jpg,null,,,,,,51,,,3,,,,,102,0.500413924,0.5,,,,,,,
decision,84,380991,0.0-28.0-5.0,,635,run_exp/static/images/task_images/land.jpg,65,,,,,,51,,,3,,,,,,,,58780,1,0,FALSE,,,
dig,85,383396,0.0-29.0-0.0,,,,,,,,,,,"[{""stimulus"":""run_exp/static/images/task_images/dig.jpg"",""time"":0},{""stimulus"":""run_exp/static/images/task_images/land.jpg"",""time"":800},{""stimulus"":""run_exp/static/images/task_images/dig.jpg"",""time"":1600}]",[],3,,,,,,,,,,,,,,
harvest,86,384416,0.0-29.0-1.0,,null,run_exp/static/images/task_images/gems/51.jpg,null,,,,,,30,,,3,,,,,51,0.579599782,0.588235294,,,,,,,
decision,87,385840,0.0-29.0-2.0,,1422,run_exp/static/images/task_images/land.jpg,65,,,,,,30,,,3,,,,,,,,63629,1,1,FALSE,,,
dig,88,387457,0.0-30.0-0.0,,,,,,,,,,,"[{""stimulus"":""run_exp/static/images/task_images/dig.jpg"",""time"":0},{""stimulus"":""run_exp/static/images/task_images/land.jpg"",""time"":533},{""stimulus"":""run_exp/static/images/task_images/dig.jpg"",""time"":1073}]",[],3,,,,,,,,,,,,,,
harvest,89,388476,0.0-30.0-1.0,,null,run_exp/static/images/task_images/gems/30.jpg,null,,,,,,15,,,3,,,,,30,0.504102693,0.5,,,,,,,
decision,90,389056,0.0-30.0-2.0,,580,run_exp/static/images/task_images/land.jpg,76,,,,,,15,,,3,,,,,,,,66845,1,2,TRUE,,,
travel,91,398596,0.0-31.0-0.0,,,,,,,,,,,"[{""stimulus"":""run_exp/static/images/task_images/rocket-01.jpg"",""time"":0},{""stimulus"":""run_exp/static/images/task_images/rocket-02.jpg"",""time"":1055},{""stimulus"":""run_exp/static/images/task_images/rocket-03.jpg"",""time"":2114},{""stimulus"":""run_exp/static/images/task_images/rocket-04.jpg"",""time"":3175},{""stimulus"":""run_exp/static/images/task_images/rocket-05.jpg"",""time"":4235},{""stimulus"":""run_exp/static/images/task_images/rocket-06.jpg"",""time"":5295},{""stimulus"":""run_exp/static/images/task_images/rocket-07.jpg"",""time"":6354},{""stimulus"":""run_exp/static/images/task_images/rocket-08.jpg"",""time"":7415},{""stimulus"":""run_exp/static/images/task_images/rocket-09.jpg"",""time"":8475}]",[],3,,,,,,,,,,,,,,
alien_welcome,92,403599,0.0-31.0-1.0,,null,run_exp/static/images/task_images/aliens/old_aliens/planet/alien_planet-22.jpg,null,,,,,,,,,,,,22,"77,60,29,22,26,2,52,32,24,35,40,65,9,44,64,11,25,48,54,76,57,46,4,41,10,56,8,39,13,20,15,73,58,43,6,61,72,38,80,53,1,67",,,,,,,,,,
land,93,404114,0.0-31.0-2.0,,null,run_exp/static/images/task_images/land.jpg,null,,,,,,101,,,4,,,,,,,,,,,,,,
dig,94,406146,0.0-31.0-3.0,,,,,,,,,,,"[{""stimulus"":""run_exp/static/images/task_images/dig.jpg"",""time"":0},{""stimulus"":""run_exp/static/images/task_images/land.jpg"",""time"":675},{""stimulus"":""run_exp/static/images/task_images/dig.jpg"",""time"":1347}]",[],4,,,,,,,,,,,,,,
harvest,95,407167,0.0-31.0-4.0,,null,run_exp/static/images/task_images/gems/101.jpg,null,,,,,,53,,,4,,,,,101,0.52261849,0.524752475,,,,,,,
decision,96,407624,0.0-31.0-5.0,,457,run_exp/static/images/task_images/land.jpg,65,,,,,,53,,,4,,,,,,,,85413,1,0,FALSE,,,
dig,97,410207,0.0-32.0-0.0,,,,,,,,,,,"[{""stimulus"":""run_exp/static/images/task_images/dig.jpg"",""time"":0},{""stimulus"":""run_exp/static/images/task_images/land.jpg"",""time"":858},{""stimulus"":""run_exp/static/images/task_images/dig.jpg"",""time"":1718}]",[],4,,,,,,,,,,,,,,
harvest,98,411226,0.0-32.0-1.0,,null,run_exp/static/images/task_images/gems/53.jpg,null,,,,,,27,,,4,,,,,53,0.505519033,0.509433962,,,,,,,
decision,99,412296,0.0-32.0-2.0,,1070,run_exp/static/images/task_images/land.jpg,65,,,,,,27,,,4,,,,,,,,90085,1,1,FALSE,,,
dig,100,414267,0.0-33.0-0.0,,,,,,,,,,,"[{""stimulus"":""run_exp/static/images/task_images/dig.jpg"",""time"":0},{""stimulus"":""run_exp/static/images/task_images/land.jpg"",""time"":645},{""stimulus"":""run_exp/static/images/task_images/dig.jpg"",""time"":1305}]",[],4,,,,,,,,,,,,,,
harvest,101,415286,0.0-33.0-1.0,,null,run_exp/static/images/task_images/gems/27.jpg,null,,,,,,13,,,4,,,,,27,0.477928055,0.481481481,,,,,,,
decision,102,415632,0.0-33.0-2.0,,345,run_exp/static/images/task_images/land.jpg,76,,,,,,13,,,4,,,,,,,,93421,1,2,TRUE,,,
travel,103,425366,0.0-34.0-0.0,,,,,,,,,,,"[{""stimulus"":""run_exp/static/images/task_images/rocket-01.jpg"",""time"":0},{""stimulus"":""run_exp/static/images/task_images/rocket-02.jpg"",""time"":1089},{""stimulus"":""run_exp/static/images/task_images/rocket-03.jpg"",""time"":2170},{""stimulus"":""run_exp/static/images/task_images/rocket-04.jpg"",""time"":3249},{""stimulus"":""run_exp/static/images/task_images/rocket-05.jpg"",""time"":4330},{""stimulus"":""run_exp/static/images/task_images/rocket-06.jpg"",""time"":5409},{""stimulus"":""run_exp/static/images/task_images/rocket-07.jpg"",""time"":6491},{""stimulus"":""run_exp/static/images/task_images/rocket-08.jpg"",""time"":7570},{""stimulus"":""run_exp/static/images/task_images/rocket-09.jpg"",""time"":8651}]",[],4,,,,,,,,,,,,,,
alien_welcome,104,430386,0.0-34.0-1.0,,null,run_exp/static/images/task_images/aliens/old_aliens/planet/alien_planet-26.jpg,null,,,,,,,,,,,,26,"77,60,29,22,26,2,52,32,24,35,40,65,9,44,64,11,25,48,54,76,57,46,4,41,10,56,8,39,13,20,15,73,58,43,6,61,72,38,80,53,1,67",,,,,,,,,,
land,105,430886,0.0-34.0-2.0,,null,run_exp/static/images/task_images/land.jpg,null,,,,,,100,,,5,,,,,,,,,,,,,,
dig,106,432926,0.0-34.0-3.0,,,,,,,,,,,"[{""stimulus"":""run_exp/static/images/task_images/dig.jpg"",""time"":0},{""stimulus"":""run_exp/static/images/task_images/land.jpg"",""time"":676},{""stimulus"":""run_exp/static/images/task_images/dig.jpg"",""time"":1355}]",[],5,,,,,,,,,,,,,,
harvest,107,433947,0.0-34.0-4.0,,null,run_exp/static/images/task_images/gems/100.jpg,null,,,,,,49,,,5,,,,,100,0.489347575,0.49,,,,,,,
decision,108,434385,0.0-34.0-5.0,,437,run_exp/static/images/task_images/land.jpg,65,,,,,,49,,,5,,,,,,,,112174,1,0,FALSE,,,
dig,109,436966,0.0-35.0-0.0,,,,,,,,,,,"[{""stimulus"":""run_exp/static/images/task_images/dig.jpg"",""time"":1},{""stimulus"":""run_exp/static/images/task_images/land.jpg"",""time"":857},{""stimulus"":""run_exp/static/images/task_images/dig.jpg"",""time"":1717}]",[],5,,,,,,,,,,,,,,
harvest,110,437986,0.0-35.0-1.0,,null,run_exp/static/images/task_images/gems/49.jpg,null,,,,,,25,,,5,,,,,49,0.500394117,0.510204082,,,,,,,
decision,111,438584,0.0-35.0-2.0,,598,run_exp/static/images/task_images/land.jpg,65,,,,,,25,,,5,,,,,,,,116373,1,1,FALSE,,,
dig,112,441027,0.0-36.0-0.0,,,,,,,,,,,"[{""stimulus"":""run_exp/static/images/task_images/dig.jpg"",""time"":0},{""stimulus"":""run_exp/static/images/task_images/land.jpg"",""time"":816},{""stimulus"":""run_exp/static/images/task_images/dig.jpg"",""time"":1636}]",[],5,,,,,,,,,,,,,,
harvest,113,442046,0.0-36.0-1.0,,null,run_exp/static/images/task_images/gems/25.jpg,null,,,,,,13,,,5,,,,,25,0.513710138,0.52,,,,,,,
decision,114,442247,0.0-36.0-2.0,,200,run_exp/static/images/task_images/land.jpg,76,,,,,,13,,,5,,,,,,,,120036,1,2,TRUE,,,
travel,115,452147,0.0-37.0-0.0,,,,,,,,,,,"[{""stimulus"":""run_exp/static/images/task_images/rocket-01.jpg"",""time"":0},{""stimulus"":""run_exp/static/images/task_images/rocket-02.jpg"",""time"":1094},{""stimulus"":""run_exp/static/images/task_images/rocket-03.jpg"",""time"":2193},{""stimulus"":""run_exp/static/images/task_images/rocket-04.jpg"",""time"":3294},{""stimulus"":""run_exp/static/images/task_images/rocket-05.jpg"",""time"":4395},{""stimulus"":""run_exp/static/images/task_images/rocket-06.jpg"",""time"":5495},{""stimulus"":""run_exp/static/images/task_images/rocket-07.jpg"",""time"":6595},{""stimulus"":""run_exp/static/images/task_images/rocket-08.jpg"",""time"":7694},{""stimulus"":""run_exp/static/images/task_images/rocket-09.jpg"",""time"":8795}]",[],5,,,,,,,,,,,,,,
alien_welcome,116,457167,0.0-37.0-1.0,,null,run_exp/static/images/task_images/aliens/old_aliens/planet/alien_planet-2.jpg,null,,,,,,,,,,,,2,"77,60,29,22,26,2,52,32,24,35,40,65,9,44,64,11,25,48,54,76,57,46,4,41,10,56,8,39,13,20,15,73,58,43,6,61,72,38,80,53,1,67",,,,,,,,,,
land,117,457687,0.0-37.0-2.0,,null,run_exp/static/images/task_images/land.jpg,null,,,,,,112,,,6,,,,,,,,,,,,,,
dig,118,459726,0.0-37.0-3.0,,,,,,,,,,,"[{""stimulus"":""run_exp/static/images/task_images/dig.jpg"",""time"":0},{""stimulus"":""run_exp/static/images/task_images/land.jpg"",""time"":677},{""stimulus"":""run_exp/static/images/task_images/dig.jpg"",""time"":1355}]",[],6,,,,,,,,,,,,,,
harvest,119,460746,0.0-37.0-4.0,,null,run_exp/static/images/task_images/gems/112.jpg,null,,,,,,91,,,6,,,,,112,0.808595038,0.8125,,,,,,,
decision,120,461152,0.0-37.0-5.0,,406,run_exp/static/images/task_images/land.jpg,65,,,,,,91,,,6,,,,,,,,138941,1,0,FALSE,,,
dig,121,463786,0.0-38.0-0.0,,,,,,,,,,,"[{""stimulus"":""run_exp/static/images/task_images/dig.jpg"",""time"":0},{""stimulus"":""run_exp/static/images/task_images/land.jpg"",""time"":869},{""stimulus"":""run_exp/static/images/task_images/dig.jpg"",""time"":1749}]",[],6,,,,,,,,,,,,,,
harvest,122,464807,0.0-38.0-1.0,,null,run_exp/static/images/task_images/gems/91.jpg,null,,,,,,69,,,6,,,,,91,0.755559004,0.758241758,,,,,,,
decision,123,465905,0.0-38.0-2.0,,1097,run_exp/static/images/task_images/land.jpg,65,,,,,,69,,,6,,,,,,,,143694,1,1,FALSE,,,
dig,124,467826,0.0-39.0-0.0,,,,,,,,,,,"[{""stimulus"":""run_exp/static/images/task_images/dig.jpg"",""time"":1},{""stimulus"":""run_exp/static/images/task_images/land.jpg"",""time"":638},{""stimulus"":""run_exp/static/images/task_images/dig.jpg"",""time"":1278}]",[],6,,,,,,,,,,,,,,
harvest,125,468846,0.0-39.0-1.0,,null,run_exp/static/images/task_images/gems/69.jpg,null,,,,,,51,,,6,,,,,69,0.745546372,0.739130435,,,,,,,
decision,126,470160,0.0-39.0-2.0,,1313,run_exp/static/images/task_images/land.jpg,65,,,,,,51,,,6,,,,,,,,147949,1,2,FALSE,,,
dig,127,471906,0.0-40.0-0.0,,,,,,,,,,,"[{""stimulus"":""run_exp/static/images/task_images/dig.jpg"",""time"":0},{""stimulus"":""run_exp/static/images/task_images/land.jpg"",""time"":582},{""stimulus"":""run_exp/static/images/task_images/dig.jpg"",""time"":1161}]",[],6,,,,,,,,,,,,,,
harvest,128,472926,0.0-40.0-1.0,,null,run_exp/static/images/task_images/gems/51.jpg,null,,,,,,45,,,6,,,,,51,0.890083691,0.882352941,,,,,,,
decision,129,473400,0.0-40.0-2.0,,475,run_exp/static/images/task_images/land.jpg,65,,,,,,45,,,6,,,,,,,,151189,1,3,FALSE,,,
dig,130,475966,0.0-41.0-0.0,,,,,,,,,,,"[{""stimulus"":""run_exp/static/images/task_images/dig.jpg"",""time"":0},{""stimulus"":""run_exp/static/images/task_images/land.jpg"",""time"":841},{""stimulus"":""run_exp/static/images/task_images/dig.jpg"",""time"":1701}]",[],6,,,,,,,,,,,,,,
harvest,131,476986,0.0-41.0-1.0,,null,run_exp/static/images/task_images/gems/45.jpg,null,,,,,,37,,,6,,,,,45,0.818754166,0.822222222,,,,,,,
decision,132,477832,0.0-41.0-2.0,,845,run_exp/static/images/task_images/land.jpg,65,,,,,,37,,,6,,,,,,,,155621,1,4,FALSE,,,
dig,133,480006,0.0-42.0-0.0,,,,,,,,,,,"[{""stimulus"":""run_exp/static/images/task_images/dig.jpg"",""time"":0},{""stimulus"":""run_exp/static/images/task_images/land.jpg"",""time"":729},{""stimulus"":""run_exp/static/images/task_images/dig.jpg"",""time"":1450}]",[],6,,,,,,,,,,,,,,
harvest,134,481026,0.0-42.0-1.0,,null,run_exp/static/images/task_images/gems/37.jpg,null,,,,,,30,,,6,,,,,37,0.823947533,0.810810811,,,,,,,
decision,135,481095,0.0-42.0-2.0,,69,run_exp/static/images/task_images/land.jpg,65,,,,,,30,,,6,,,,,,,,158884,1,5,FALSE,,,
dig,136,484046,0.0-43.0-0.0,,,,,,,,,,,"[{""stimulus"":""run_exp/static/images/task_images/dig.jpg"",""time"":0},{""stimulus"":""run_exp/static/images/task_images/land.jpg"",""time"":986},{""stimulus"":""run_exp/static/images/task_images/dig.jpg"",""time"":1966}]",[],6,,,,,,,,,,,,,,
harvest,137,485066,0.0-43.0-1.0,,null,run_exp/static/images/task_images/gems/30.jpg,null,,,,,,26,,,6,,,,,30,0.881831397,0.866666667,,,,,,,
decision,138,487488,0.0-43.0-2.0,,2422,run_exp/static/images/task_images/land.jpg,65,,,,,,26,,,6,,,,,,,,165277,1,6,FALSE,,,
dig,139,488086,0.0-44.0-0.0,,,,,,,,,,,"[{""stimulus"":""run_exp/static/images/task_images/dig.jpg"",""time"":0},{""stimulus"":""run_exp/static/images/task_images/land.jpg"",""time"":192},{""stimulus"":""run_exp/static/images/task_images/dig.jpg"",""time"":394}]",[],6,,,,,,,,,,,,,,
harvest,140,489106,0.0-44.0-1.0,,null,run_exp/static/images/task_images/gems/26.jpg,null,,,,,,20,,,6,,,,,26,0.777880548,0.769230769,,,,,,,
decision,141,489520,0.0-44.0-2.0,,414,run_exp/static/images/task_images/land.jpg,76,,,,,,20,,,6,,,,,,,,167309,1,7,TRUE,,,
travel,142,499246,0.0-45.0-0.0,,,,,,,,,,,"[{""stimulus"":""run_exp/static/images/task_images/rocket-01.jpg"",""time"":0},{""stimulus"":""run_exp/static/images/task_images/rocket-02.jpg"",""time"":1080},{""stimulus"":""run_exp/static/images/task_images/rocket-03.jpg"",""time"":2162},{""stimulus"":""run_exp/static/images/task_images/rocket-04.jpg"",""time"":3241},{""stimulus"":""run_exp/static/images/task_images/rocket-05.jpg"",""time"":4321},{""stimulus"":""run_exp/static/images/task_images/rocket-06.jpg"",""time"":5402},{""stimulus"":""run_exp/static/images/task_images/rocket-07.jpg"",""time"":6481},{""stimulus"":""run_exp/static/images/task_images/rocket-08.jpg"",""time"":7562},{""stimulus"":""run_exp/static/images/task_images/rocket-09.jpg"",""time"":8640}]",[],6,,,,,,,,,,,,,,
alien_welcome,143,504267,0.0-45.0-1.0,,null,run_exp/static/images/task_images/aliens/old_aliens/planet/alien_planet-52.jpg,null,,,,,,,,,,,,52,"77,60,29,22,26,2,52,32,24,35,40,65,9,44,64,11,25,48,54,76,57,46,4,41,10,56,8,39,13,20,15,73,58,43,6,61,72,38,80,53,1,67",,,,,,,,,,
land,144,504786,0.0-45.0-2.0,,null,run_exp/static/images/task_images/land.jpg,null,,,,,,100,,,7,,,,,,,,,,,,,,
dig,145,506827,0.0-45.0-3.0,,,,,,,,,,,"[{""stimulus"":""run_exp/static/images/task_images/dig.jpg"",""time"":0},{""stimulus"":""run_exp/static/images/task_images/land.jpg"",""time"":677},{""stimulus"":""run_exp/static/images/task_images/dig.jpg"",""time"":1358}]",[],7,,,,,,,,,,,,,,
harvest,146,507847,0.0-45.0-4.0,,null,run_exp/static/images/task_images/gems/100.jpg,null,,,,,,89,,,7,,,,,100,0.888758313,0.89,,,,,,,
decision,147,508120,0.0-45.0-5.0,,273,run_exp/static/images/task_images/land.jpg,65,,,,,,89,,,7,,,,,,,,185909,1,0,FALSE,,,
dig,148,510886,0.0-46.0-0.0,,,,,,,,,,,"[{""stimulus"":""run_exp/static/images/task_images/dig.jpg"",""time"":0},{""stimulus"":""run_exp/static/images/task_images/land.jpg"",""time"":922},{""stimulus"":""run_exp/static/images/task_images/dig.jpg"",""time"":1842}]",[],7,,,,,,,,,,,,,,
harvest,149,511907,0.0-46.0-1.0,,null,run_exp/static/images/task_images/gems/89.jpg,null,,,,,,73,,,7,,,,,89,0.821066597,0.820224719,,,,,,,
decision,150,512584,0.0-46.0-2.0,,676,run_exp/static/images/task_images/land.jpg,65,,,,,,73,,,7,,,,,,,,190373,1,1,FALSE,,,
dig,151,514927,0.0-47.0-0.0,,,,,,,,,,,"[{""stimulus"":""run_exp/static/images/task_images/dig.jpg"",""time"":0},{""stimulus"":""run_exp/static/images/task_images/land.jpg"",""time"":778},{""stimulus"":""run_exp/static/images/task_images/dig.jpg"",""time"":1558}]",[],7,,,,,,,,,,,,,,
harvest,152,515947,0.0-47.0-1.0,,null,run_exp/static/images/task_images/gems/73.jpg,null,,,,,,60,,,7,,,,,73,0.824734138,0.821917808,,,,,,,
decision,153,516784,0.0-47.0-2.0,,836,run_exp/static/images/task_images/land.jpg,65,,,,,,60,,,7,,,,,,,,194573,1,2,FALSE,,,
dig,154,519006,0.0-48.0-0.0,,,,,,,,,,,"[{""stimulus"":""run_exp/static/images/task_images/dig.jpg"",""time"":0},{""stimulus"":""run_exp/static/images/task_images/land.jpg"",""time"":738},{""stimulus"":""run_exp/static/images/task_images/dig.jpg"",""time"":1478}]",[],7,,,,,,,,,,,,,,
harvest,155,520006,0.0-48.0-1.0,,null,run_exp/static/images/task_images/gems/60.jpg,null,,,,,,51,,,7,,,,,60,0.85488451,0.85,,,,,,,
decision,156,520448,0.0-48.0-2.0,,441,run_exp/static/images/task_images/land.jpg,65,,,,,,51,,,7,,,,,,,,198237,1,3,FALSE,,,
dig,157,523027,0.0-49.0-0.0,,,,,,,,,,,"[{""stimulus"":""run_exp/static/images/task_images/dig.jpg"",""time"":0},{""stimulus"":""run_exp/static/images/task_images/land.jpg"",""time"":854},{""stimulus"":""run_exp/static/images/task_images/dig.jpg"",""time"":1714}]",[],7,,,,,,,,,,,,,,
harvest,158,524046,0.0-49.0-1.0,,null,run_exp/static/images/task_images/gems/51.jpg,null,,,,,,41,,,7,,,,,51,0.813284418,0.803921569,,,,,,,
decision,159,524320,0.0-49.0-2.0,,274,run_exp/static/images/task_images/land.jpg,65,,,,,,41,,,7,,,,,,,,202109,1,4,FALSE,,,
dig,160,527086,0.0-50.0-0.0,,,,,,,,,,,"[{""stimulus"":""run_exp/static/images/task_images/dig.jpg"",""time"":0},{""stimulus"":""run_exp/static/images/task_images/land.jpg"",""time"":921},{""stimulus"":""run_exp/static/images/task_images/dig.jpg"",""time"":1841}]",[],7,,,,,,,,,,,,,,
harvest,161,528107,0.0-50.0-1.0,,null,run_exp/static/images/task_images/gems/41.jpg,null,,,,,,32,,,7,,,,,41,0.78939967,0.780487805,,,,,,,
decision,162,528560,0.0-50.0-2.0,,452,run_exp/static/images/task_images/land.jpg,65,,,,,,32,,,7,,,,,,,,206349,1,5,FALSE,,,
dig,163,531146,0.0-51.0-0.0,,,,,,,,,,,"[{""stimulus"":""run_exp/static/images/task_images/dig.jpg"",""time"":0},{""stimulus"":""run_exp/static/images/task_images/land.jpg"",""time"":863},{""stimulus"":""run_exp/static/images/task_images/dig.jpg"",""time"":1723}]",[],7,,,,,,,,,,,,,,
harvest,164,532166,0.0-51.0-1.0,,null,run_exp/static/images/task_images/gems/32.jpg,null,,,,,,26,,,7,,,,,32,0.8077742,0.8125,,,,,,,
decision,165,532537,0.0-51.0-2.0,,369,run_exp/static/images/task_images/land.jpg,65,,,,,,26,,,7,,,,,,,,210326,1,6,FALSE,,,
dig,166,535187,0.0-52.0-0.0,,,,,,,,,,,"[{""stimulus"":""run_exp/static/images/task_images/dig.jpg"",""time"":0},{""stimulus"":""run_exp/static/images/task_images/land.jpg"",""time"":886},{""stimulus"":""run_exp/static/images/task_images/dig.jpg"",""time"":1766}]",[],7,,,,,,,,,,,,,,
harvest,167,536207,0.0-52.0-1.0,,null,run_exp/static/images/task_images/gems/26.jpg,null,,,,,,21,,,7,,,,,26,0.811640131,0.807692308,,,,,,,
decision,168,536728,0.0-52.0-2.0,,521,run_exp/static/images/task_images/land.jpg,76,,,,,,21,,,7,,,,,,,,214517,1,7,TRUE,,,
travel,169,546266,0.0-53.0-0.0,,,,,,,,,,,"[{""stimulus"":""run_exp/static/images/task_images/rocket-01.jpg"",""time"":0},{""stimulus"":""run_exp/static/images/task_images/rocket-02.jpg"",""time"":1054},{""stimulus"":""run_exp/static/images/task_images/rocket-03.jpg"",""time"":2114},{""stimulus"":""run_exp/static/images/task_images/rocket-04.jpg"",""time"":3174},{""stimulus"":""run_exp/static/images/task_images/rocket-05.jpg"",""time"":4233},{""stimulus"":""run_exp/static/images/task_images/rocket-06.jpg"",""time"":5293},{""stimulus"":""run_exp/static/images/task_images/rocket-07.jpg"",""time"":6353},{""stimulus"":""run_exp/static/images/task_images/rocket-08.jpg"",""time"":7413},{""stimulus"":""run_exp/static/images/task_images/rocket-09.jpg"",""time"":8473}]",[],7,,,,,,,,,,,,,,
alien_welcome,170,551267,0.0-53.0-1.0,,null,run_exp/static/images/task_images/aliens/old_aliens/planet/alien_planet-32.jpg,null,,,,,,,,,,,,32,"77,60,29,22,26,2,52,32,24,35,40,65,9,44,64,11,25,48,54,76,57,46,4,41,10,56,8,39,13,20,15,73,58,43,6,61,72,38,80,53,1,67",,,,,,,,,,
land,171,551788,0.0-53.0-2.0,,null,run_exp/static/images/task_images/land.jpg,null,,,,,,96,,,8,,,,,,,,,,,,,,
dig,172,553826,0.0-53.0-3.0,,,,,,,,,,,"[{""stimulus"":""run_exp/static/images/task_images/dig.jpg"",""time"":0},{""stimulus"":""run_exp/static/images/task_images/land.jpg"",""time"":675},{""stimulus"":""run_exp/static/images/task_images/dig.jpg"",""time"":1356}]",[],8,,,,,,,,,,,,,,
harvest,173,554846,0.0-53.0-4.0,,null,run_exp/static/images/task_images/gems/96.jpg,null,,,,,,62,,,8,,,,,96,0.643914408,0.645833333,,,,,,,
decision,174,555352,0.0-53.0-5.0,,506,run_exp/static/images/task_images/land.jpg,65,,,,,,62,,,8,,,,,,,,233141,1,0,FALSE,,,
dig,175,557887,0.0-54.0-0.0,,,,,,,,,,,"[{""stimulus"":""run_exp/static/images/task_images/dig.jpg"",""time"":0},{""stimulus"":""run_exp/static/images/task_images/land.jpg"",""time"":849},{""stimulus"":""run_exp/static/images/task_images/dig.jpg"",""time"":1689}]",[],8,,,,,,,,,,,,,,
harvest,176,558906,0.0-54.0-1.0,,null,run_exp/static/images/task_images/gems/62.jpg,null,,,,,,51,,,8,,,,,62,0.817637677,0.822580645,,,,,,,
decision,177,561217,0.0-54.0-2.0,,2310,run_exp/static/images/task_images/land.jpg,65,,,,,,51,,,8,,,,,,,,239006,1,1,FALSE,,,
dig,178,561946,0.0-55.0-0.0,,,,,,,,,,,"[{""stimulus"":""run_exp/static/images/task_images/dig.jpg"",""time"":0},{""stimulus"":""run_exp/static/images/task_images/land.jpg"",""time"":244},{""stimulus"":""run_exp/static/images/task_images/dig.jpg"",""time"":483}]",[],8,,,,,,,,,,,,,,
harvest,179,562966,0.0-55.0-1.0,,null,run_exp/static/images/task_images/gems/51.jpg,null,,,,,,40,,,8,,,,,51,0.784753448,0.784313725,,,,,,,
decision,180,564200,0.0-55.0-2.0,,1232,run_exp/static/images/task_images/land.jpg,65,,,,,,40,,,8,,,,,,,,241989,1,2,FALSE,,,
dig,181,566007,0.0-56.0-0.0,,,,,,,,,,,"[{""stimulus"":""run_exp/static/images/task_images/dig.jpg"",""time"":1},{""stimulus"":""run_exp/static/images/task_images/land.jpg"",""time"":602},{""stimulus"":""run_exp/static/images/task_images/dig.jpg"",""time"":1202}]",[],8,,,,,,,,,,,,,,
harvest,182,567027,0.0-56.0-1.0,,null,run_exp/static/images/task_images/gems/40.jpg,null,,,,,,33,,,8,,,,,40,0.825230488,0.825,,,,,,,
decision,183,567408,0.0-56.0-2.0,,381,run_exp/static/images/task_images/land.jpg,65,,,,,,33,,,8,,,,,,,,245197,1,3,FALSE,,,
dig,184,570047,0.0-57.0-0.0,,,,,,,,,,,"[{""stimulus"":""run_exp/static/images/task_images/dig.jpg"",""time"":0},{""stimulus"":""run_exp/static/images/task_images/land.jpg"",""time"":873},{""stimulus"":""run_exp/static/images/task_images/dig.jpg"",""time"":1754}]",[],8,,,,,,,,,,,,,,
harvest,185,571066,0.0-57.0-1.0,,null,run_exp/static/images/task_images/gems/33.jpg,null,,,,,,25,,,8,,,,,33,0.760831696,0.757575758,,,,,,,
decision,186,571496,0.0-57.0-2.0,,430,run_exp/static/images/task_images/land.jpg,65,,,,,,25,,,8,,,,,,,,249285,1,4,FALSE,,,
dig,187,574087,0.0-58.0-0.0,,,,,,,,,,,"[{""stimulus"":""run_exp/static/images/task_images/dig.jpg"",""time"":0},{""stimulus"":""run_exp/static/images/task_images/land.jpg"",""time"":866},{""stimulus"":""run_exp/static/images/task_images/dig.jpg"",""time"":1725}]",[],8,,,,,,,,,,,,,,
harvest,188,575106,0.0-58.0-1.0,,null,run_exp/static/images/task_images/gems/25.jpg,null,,,,,,20,,,8,,,,,25,0.81700447,0.8,,,,,,,
decision,189,575336,0.0-58.0-2.0,,229,run_exp/static/images/task_images/land.jpg,76,,,,,,20,,,8,,,,,,,,253125,1,5,TRUE,,,
travel,190,585246,0.0-59.0-0.0,,,,,,,,,,,"[{""stimulus"":""run_exp/static/images/task_images/rocket-01.jpg"",""time"":0},{""stimulus"":""run_exp/static/images/task_images/rocket-02.jpg"",""time"":1105},{""stimulus"":""run_exp/static/images/task_images/rocket-03.jpg"",""time"":2204},{""stimulus"":""run_exp/static/images/task_images/rocket-04.jpg"",""time"":3304},{""stimulus"":""run_exp/static/images/task_images/rocket-05.jpg"",""time"":4404},{""stimulus"":""run_exp/static/images/task_images/rocket-06.jpg"",""time"":5505},{""stimulus"":""run_exp/static/images/task_images/rocket-07.jpg"",""time"":6604},{""stimulus"":""run_exp/static/images/task_images/rocket-08.jpg"",""time"":7704},{""stimulus"":""run_exp/static/images/task_images/rocket-09.jpg"",""time"":8805}]",[],8,,,,,,,,,,,,,,
alien_welcome,191,590267,0.0-59.0-1.0,,null,run_exp/static/images/task_images/aliens/old_aliens/planet/alien_planet-24.jpg,null,,,,,,,,,,,,24,"77,60,29,22,26,2,52,32,24,35,40,65,9,44,64,11,25,48,54,76,57,46,4,41,10,56,8,39,13,20,15,73,58,43,6,61,72,38,80,53,1,67",,,,,,,,,,
land,192,590787,0.0-59.0-2.0,,null,run_exp/static/images/task_images/land.jpg,null,,,,,,99,,,9,,,,,,,,,,,,,,
dig,193,592827,0.0-59.0-3.0,,,,,,,,,,,"[{""stimulus"":""run_exp/static/images/task_images/dig.jpg"",""time"":0},{""stimulus"":""run_exp/static/images/task_images/land.jpg"",""time"":676},{""stimulus"":""run_exp/static/images/task_images/dig.jpg"",""time"":1355}]",[],9,,,,,,,,,,,,,,
harvest,194,593847,0.0-59.0-4.0,,null,run_exp/static/images/task_images/gems/99.jpg,null,,,,,,17,,,9,,,,,99,0.170081966,0.171717172,,,,,,,
decision,195,594024,0.0-59.0-5.0,,177,run_exp/static/images/task_images/land.jpg,65,,,,,,17,,,9,,,,,,,,271814,1,0,FALSE,,,
dig,196,596907,0.0-60.0-0.0,,,,,,,,,,,"[{""stimulus"":""run_exp/static/images/task_images/dig.jpg"",""time"":0},{""stimulus"":""run_exp/static/images/task_images/land.jpg"",""time"":957},{""stimulus"":""run_exp/static/images/task_images/dig.jpg"",""time"":1917}]",[],9,,,,,,,,,,,,,,
harvest,197,597926,0.0-60.0-1.0,,null,run_exp/static/images/task_images/gems/17.jpg,null,,,,,,3,,,9,,,,,17,0.148283145,0.176470588,,,,,,,
decision,198,598777,0.0-60.0-2.0,,850,run_exp/static/images/task_images/land.jpg,76,,,,,,3,,,9,,,,,,,,276566,1,1,TRUE,,,
travel,199,607967,0.0-61.0-0.0,,,,,,,,,,,"[{""stimulus"":""run_exp/static/images/task_images/rocket-01.jpg"",""time"":0},{""stimulus"":""run_exp/static/images/task_images/rocket-02.jpg"",""time"":1023},{""stimulus"":""run_exp/static/images/task_images/rocket-03.jpg"",""time"":2042},{""stimulus"":""run_exp/static/images/task_images/rocket-04.jpg"",""time"":3063},{""stimulus"":""run_exp/static/images/task_images/rocket-05.jpg"",""time"":4083},{""stimulus"":""run_exp/static/images/task_images/rocket-06.jpg"",""time"":5103},{""stimulus"":""run_exp/static/images/task_images/rocket-07.jpg"",""time"":6123},{""stimulus"":""run_exp/static/images/task_images/rocket-08.jpg"",""time"":7143},{""stimulus"":""run_exp/static/images/task_images/rocket-09.jpg"",""time"":8164}]",[],9,,,,,,,,,,,,,,
alien_welcome,200,612987,0.0-61.0-1.0,,null,run_exp/static/images/task_images/aliens/old_aliens/planet/alien_planet-35.jpg,null,,,,,,,,,,,,35,"77,60,29,22,26,2,52,32,24,35,40,65,9,44,64,11,25,48,54,76,57,46,4,41,10,56,8,39,13,20,15,73,58,43,6,61,72,38,80,53,1,67",,,,,,,,,,
land,201,613507,0.0-61.0-2.0,,null,run_exp/static/images/task_images/land.jpg,null,,,,,,87,,,10,,,,,,,,,,,,,,
dig,202,615547,0.0-61.0-3.0,,,,,,,,,,,"[{""stimulus"":""run_exp/static/images/task_images/dig.jpg"",""time"":0},{""stimulus"":""run_exp/static/images/task_images/land.jpg"",""time"":676},{""stimulus"":""run_exp/static/images/task_images/dig.jpg"",""time"":1355}]",[],10,,,,,,,,,,,,,,
harvest,203,616567,0.0-61.0-4.0,,null,run_exp/static/images/task_images/gems/87.jpg,null,,,,,,16,,,10,,,,,87,0.183936859,0.183908046,,,,,,,
decision,204,616992,0.0-61.0-5.0,,426,run_exp/static/images/task_images/land.jpg,65,,,,,,16,,,10,,,,,,,,294781,1,0,FALSE,,,
dig,205,619587,0.0-62.0-0.0,,,,,,,,,,,"[{""stimulus"":""run_exp/static/images/task_images/dig.jpg"",""time"":0},{""stimulus"":""run_exp/static/images/task_images/land.jpg"",""time"":868},{""stimulus"":""run_exp/static/images/task_images/dig.jpg"",""time"":1728}]",[],10,,,,,,,,,,,,,,
harvest,206,620607,0.0-62.0-1.0,,null,run_exp/static/images/task_images/gems/16.jpg,null,,,,,,2,,,10,,,,,16,0.118818777,0.125,,,,,,,
decision,207,621073,0.0-62.0-2.0,,464,run_exp/static/images/task_images/land.jpg,76,,,,,,2,,,10,,,,,,,,298862,1,1,TRUE,,,
travel,208,630627,0.0-63.0-0.0,,,,,,,,,,,"[{""stimulus"":""run_exp/static/images/task_images/rocket-01.jpg"",""time"":0},{""stimulus"":""run_exp/static/images/task_images/rocket-02.jpg"",""time"":1069},{""stimulus"":""run_exp/static/images/task_images/rocket-03.jpg"",""time"":2129},{""stimulus"":""run_exp/static/images/task_images/rocket-04.jpg"",""time"":3189},{""stimulus"":""run_exp/static/images/task_images/rocket-05.jpg"",""time"":4248},{""stimulus"":""run_exp/static/images/task_images/rocket-06.jpg"",""time"":5308},{""stimulus"":""run_exp/static/images/task_images/rocket-07.jpg"",""time"":6369},{""stimulus"":""run_exp/static/images/task_images/rocket-08.jpg"",""time"":7429},{""stimulus"":""run_exp/static/images/task_images/rocket-09.jpg"",""time"":8489}]",[],10,,,,,,,,,,,,,,
alien_welcome,209,635647,0.0-63.0-1.0,,null,run_exp/static/images/task_images/aliens/old_aliens/planet/alien_planet-40.jpg,null,,,,,,,,,,,,40,"77,60,29,22,26,2,52,32,24,35,40,65,9,44,64,11,25,48,54,76,57,46,4,41,10,56,8,39,13,20,15,73,58,43,6,61,72,38,80,53,1,67",,,,,,,,,,
land,210,636167,0.0-63.0-2.0,,null,run_exp/static/images/task_images/land.jpg,null,,,,,,102,,,11,,,,,,,,,,,,,,
dig,211,638206,0.0-63.0-3.0,,,,,,,,,,,"[{""stimulus"":""run_exp/static/images/task_images/dig.jpg"",""time"":0},{""stimulus"":""run_exp/static/images/task_images/land.jpg"",""time"":676},{""stimulus"":""run_exp/static/images/task_images/dig.jpg"",""time"":1355}]",[],11,,,,,,,,,,,,,,
harvest,212,639226,0.0-63.0-4.0,,null,run_exp/static/images/task_images/gems/102.jpg,null,,,,,,21,,,11,,,,,102,0.205369591,0.205882353,,,,,,,
decision,213,639697,0.0-63.0-5.0,,470,run_exp/static/images/task_images/land.jpg,65,,,,,,21,,,11,,,,,,,,317486,1,0,TRUE,,,
end_of_block_continue,214,646763,0.0-64.0-0.0,,7063,run_exp/static/audio/clip_32_block_end.m4a,,,,,,0,,,,,,,,,,,,,,,,,,
alien_welcome,215,651767,0.0-65.0-0.0,,null,run_exp/static/images/task_images/aliens/old_aliens/planet/alien_planet-65.jpg,null,,,,,,,,,,,,65,"77,60,29,22,26,2,52,32,24,35,40,65,9,44,64,11,25,48,54,76,57,46,4,41,10,56,8,39,13,20,15,73,58,43,6,61,72,38,80,53,1,67",,,,,,,,,,
land,216,652267,0.0-65.0-1.0,,null,run_exp/static/images/task_images/land.jpg,null,,,,,,99,,,12,,,,,,,,,,,,,,
dig,217,654308,0.0-65.0-2.0,,,,,,,,,,,"[{""stimulus"":""run_exp/static/images/task_images/dig.jpg"",""time"":0},{""stimulus"":""run_exp/static/images/task_images/land.jpg"",""time"":676},{""stimulus"":""run_exp/static/images/task_images/dig.jpg"",""time"":1356}]",[],12,,,,,,,,,,,,,,
harvest,218,655327,0.0-65.0-3.0,,null,run_exp/static/images/task_images/gems/99.jpg,null,,,,,,30,,,12,,,,,99,0.304363428,0.303030303,,,,,,,
decision,219,655688,0.0-65.0-4.0,,361,run_exp/static/images/task_images/land.jpg,65,,,,,,30,,,12,,,,,,,,8923,2,0,FALSE,,,
dig,220,658347,0.0-66.0-0.0,,,,,,,,,,,"[{""stimulus"":""run_exp/static/images/task_images/dig.jpg"",""time"":0},{""stimulus"":""run_exp/static/images/task_images/land.jpg"",""time"":892},{""stimulus"":""run_exp/static/images/task_images/dig.jpg"",""time"":1773}]",[],12,,,,,,,,,,,,,,
harvest,221,659367,0.0-66.0-1.0,,null,run_exp/static/images/task_images/gems/30.jpg,null,,,,,,5,,,12,,,,,30,0.176402656,0.166666667,,,,,,,
decision,222,659584,0.0-66.0-2.0,,217,run_exp/static/images/task_images/land.jpg,65,,,,,,5,,,12,,,,,,,,12819,2,1,FALSE,,,
dig,223,662407,0.0-67.0-0.0,,,,,,,,,,,"[{""stimulus"":""run_exp/static/images/task_images/dig.jpg"",""time"":0},{""stimulus"":""run_exp/static/images/task_images/land.jpg"",""time"":937},{""stimulus"":""run_exp/static/images/task_images/dig.jpg"",""time"":1877}]",[],12,,,,,,,,,,,,,,
harvest,224,663417,0.0-67.0-1.0,,null,run_exp/static/images/task_images/gems/5.jpg,null,,,,,,1,,,12,,,,,5,0.170051934,0.2,,,,,,,
decision,225,663921,0.0-67.0-2.0,,503,run_exp/static/images/task_images/land.jpg,76,,,,,,1,,,12,,,,,,,,17156,2,2,TRUE,,,
travel,226,673477,0.0-68.0-0.0,,,,,,,,,,,"[{""stimulus"":""run_exp/static/images/task_images/rocket-01.jpg"",""time"":0},{""stimulus"":""run_exp/static/images/task_images/rocket-02.jpg"",""time"":1071},{""stimulus"":""run_exp/static/images/task_images/rocket-03.jpg"",""time"":2131},{""stimulus"":""run_exp/static/images/task_images/rocket-04.jpg"",""time"":3192},{""stimulus"":""run_exp/static/images/task_images/rocket-05.jpg"",""time"":4251},{""stimulus"":""run_exp/static/images/task_images/rocket-06.jpg"",""time"":5312},{""stimulus"":""run_exp/static/images/task_images/rocket-07.jpg"",""time"":6371},{""stimulus"":""run_exp/static/images/task_images/rocket-08.jpg"",""time"":7432},{""stimulus"":""run_exp/static/images/task_images/rocket-09.jpg"",""time"":8492}]",[],12,,,,,,,,,,,,,,
alien_welcome,227,678497,0.0-68.0-1.0,,null,run_exp/static/images/task_images/aliens/old_aliens/planet/alien_planet-9.jpg,null,,,,,,,,,,,,9,"77,60,29,22,26,2,52,32,24,35,40,65,9,44,64,11,25,48,54,76,57,46,4,41,10,56,8,39,13,20,15,73,58,43,6,61,72,38,80,53,1,67",,,,,,,,,,
land,228,679017,0.0-68.0-2.0,,null,run_exp/static/images/task_images/land.jpg,null,,,,,,98,,,13,,,,,,,,,,,,,,
dig,229,681057,0.0-68.0-3.0,,,,,,,,,,,"[{""stimulus"":""run_exp/static/images/task_images/dig.jpg"",""time"":0},{""stimulus"":""run_exp/static/images/task_images/land.jpg"",""time"":675},{""stimulus"":""run_exp/static/images/task_images/dig.jpg"",""time"":1355}]",[],13,,,,,,,,,,,,,,
harvest,230,682076,0.0-68.0-4.0,,null,run_exp/static/images/task_images/gems/98.jpg,null,,,,,,11,,,13,,,,,98,0.116744201,0.112244898,,,,,,,
decision,231,682584,0.0-68.0-5.0,,508,run_exp/static/images/task_images/land.jpg,65,,,,,,11,,,13,,,,,,,,35820,2,0,FALSE,,,
dig,232,685117,0.0-69.0-0.0,,,,,,,,,,,"[{""stimulus"":""run_exp/static/images/task_images/dig.jpg"",""time"":0},{""stimulus"":""run_exp/static/images/task_images/land.jpg"",""time"":847},{""stimulus"":""run_exp/static/images/task_images/dig.jpg"",""time"":1686}]",[],13,,,,,,,,,,,,,,
harvest,233,686138,0.0-69.0-1.0,,null,run_exp/static/images/task_images/gems/11.jpg,null,,,,,,2,,,13,,,,,11,0.217207305,0.181818182,,,,,,,
decision,234,686440,0.0-69.0-2.0,,303,run_exp/static/images/task_images/land.jpg,76,,,,,,2,,,13,,,,,,,,39675,2,1,TRUE,,,
travel,235,696176,0.0-70.0-0.0,,,,,,,,,,,"[{""stimulus"":""run_exp/static/images/task_images/rocket-01.jpg"",""time"":0},{""stimulus"":""run_exp/static/images/task_images/rocket-02.jpg"",""time"":1091},{""stimulus"":""run_exp/static/images/task_images/rocket-03.jpg"",""time"":2170},{""stimulus"":""run_exp/static/images/task_images/rocket-04.jpg"",""time"":3250},{""stimulus"":""run_exp/static/images/task_images/rocket-05.jpg"",""time"":4331},{""stimulus"":""run_exp/static/images/task_images/rocket-06.jpg"",""time"":5410},{""stimulus"":""run_exp/static/images/task_images/rocket-07.jpg"",""time"":6490},{""stimulus"":""run_exp/static/images/task_images/rocket-08.jpg"",""time"":7571},{""stimulus"":""run_exp/static/images/task_images/rocket-09.jpg"",""time"":8651}]",[],13,,,,,,,,,,,,,,
alien_welcome,236,701197,0.0-70.0-1.0,,null,run_exp/static/images/task_images/aliens/old_aliens/planet/alien_planet-44.jpg,null,,,,,,,,,,,,44,"77,60,29,22,26,2,52,32,24,35,40,65,9,44,64,11,25,48,54,76,57,46,4,41,10,56,8,39,13,20,15,73,58,43,6,61,72,38,80,53,1,67",,,,,,,,,,
land,237,701716,0.0-70.0-2.0,,null,run_exp/static/images/task_images/land.jpg,null,,,,,,103,,,14,,,,,,,,,,,,,,
dig,238,703757,0.0-70.0-3.0,,,,,,,,,,,"[{""stimulus"":""run_exp/static/images/task_images/dig.jpg"",""time"":0},{""stimulus"":""run_exp/static/images/task_images/land.jpg"",""time"":675},{""stimulus"":""run_exp/static/images/task_images/dig.jpg"",""time"":1356}]",[],14,,,,,,,,,,,,,,
harvest,239,704777,0.0-70.0-4.0,,null,run_exp/static/images/task_images/gems/103.jpg,null,,,,,,29,,,14,,,,,103,0.280290932,0.281553398,,,,,,,
decision,240,705209,0.0-70.0-5.0,,431,run_exp/static/images/task_images/land.jpg,65,,,,,,29,,,14,,,,,,,,58444,2,0,FALSE,,,
dig,241,707797,0.0-71.0-0.0,,,,,,,,,,,"[{""stimulus"":""run_exp/static/images/task_images/dig.jpg"",""time"":0},{""stimulus"":""run_exp/static/images/task_images/land.jpg"",""time"":863},{""stimulus"":""run_exp/static/images/task_images/dig.jpg"",""time"":1723}]",[],14,,,,,,,,,,,,,,
harvest,242,708817,0.0-71.0-1.0,,null,run_exp/static/images/task_images/gems/29.jpg,null,,,,,,5,,,14,,,,,29,0.168795282,0.172413793,,,,,,,
decision,243,709585,0.0-71.0-2.0,,768,run_exp/static/images/task_images/land.jpg,76,,,,,,5,,,14,,,,,,,,62820,2,1,TRUE,,,
travel,244,718937,0.0-72.0-0.0,,,,,,,,,,,"[{""stimulus"":""run_exp/static/images/task_images/rocket-01.jpg"",""time"":0},{""stimulus"":""run_exp/static/images/task_images/rocket-02.jpg"",""time"":1026},{""stimulus"":""run_exp/static/images/task_images/rocket-03.jpg"",""time"":2066},{""stimulus"":""run_exp/static/images/task_images/rocket-04.jpg"",""time"":3106},{""stimulus"":""run_exp/static/images/task_images/rocket-05.jpg"",""time"":4146},{""stimulus"":""run_exp/static/images/task_images/rocket-06.jpg"",""time"":5186},{""stimulus"":""run_exp/static/images/task_images/rocket-07.jpg"",""time"":6226},{""stimulus"":""run_exp/static/images/task_images/rocket-08.jpg"",""time"":7267},{""stimulus"":""run_exp/static/images/task_images/rocket-09.jpg"",""time"":8307}]",[],14,,,,,,,,,,,,,,
alien_welcome,245,723957,0.0-72.0-1.0,,null,run_exp/static/images/task_images/aliens/old_aliens/planet/alien_planet-64.jpg,null,,,,,,,,,,,,64,"77,60,29,22,26,2,52,32,24,35,40,65,9,44,64,11,25,48,54,76,57,46,4,41,10,56,8,39,13,20,15,73,58,43,6,61,72,38,80,53,1,67",,,,,,,,,,
land,246,724473,0.0-72.0-2.0,,null,run_exp/static/images/task_images/land.jpg,null,,,,,,94,,,15,,,,,,,,,,,,,,
dig,247,726517,0.0-72.0-3.0,,,,,,,,,,,"[{""stimulus"":""run_exp/static/images/task_images/dig.jpg"",""time"":0},{""stimulus"":""run_exp/static/images/task_images/land.jpg"",""time"":681},{""stimulus"":""run_exp/static/images/task_images/dig.jpg"",""time"":1360}]",[],15,,,,,,,,,,,,,,
harvest,248,727537,0.0-72.0-4.0,,null,run_exp/static/images/task_images/gems/94.jpg,null,,,,,,74,,,15,,,,,94,0.791378743,0.787234043,,,,,,,
decision,249,727641,0.0-72.0-5.0,,102,run_exp/static/images/task_images/land.jpg,65,,,,,,74,,,15,,,,,,,,80876,2,0,FALSE,,,
dig,250,730577,0.0-73.0-0.0,,,,,,,,,,,"[{""stimulus"":""run_exp/static/images/task_images/dig.jpg"",""time"":0},{""stimulus"":""run_exp/static/images/task_images/land.jpg"",""time"":971},{""stimulus"":""run_exp/static/images/task_images/dig.jpg"",""time"":1951}]",[],15,,,,,,,,,,,,,,
harvest,251,731577,0.0-73.0-1.0,,null,run_exp/static/images/task_images/gems/74.jpg,null,,,,,,61,,,15,,,,,74,0.822272603,0.824324324,,,,,,,
decision,252,732457,0.0-73.0-2.0,,880,run_exp/static/images/task_images/land.jpg,65,,,,,,61,,,15,,,,,,,,85692,2,1,FALSE,,,
dig,253,734617,0.0-74.0-0.0,,,,,,,,,,,"[{""stimulus"":""run_exp/static/images/task_images/dig.jpg"",""time"":0},{""stimulus"":""run_exp/static/images/task_images/land.jpg"",""time"":714},{""stimulus"":""run_exp/static/images/task_images/dig.jpg"",""time"":1433}]",[],15,,,,,,,,,,,,,,
harvest,254,735628,0.0-74.0-1.0,,null,run_exp/static/images/task_images/gems/61.jpg,null,,,,,,46,,,15,,,,,61,0.760003248,0.754098361,,,,,,,
decision,255,736081,0.0-74.0-2.0,,453,run_exp/static/images/task_images/land.jpg,65,,,,,,46,,,15,,,,,,,,89316,2,2,FALSE,,,
dig,256,738667,0.0-75.0-0.0,,,,,,,,,,,"[{""stimulus"":""run_exp/static/images/task_images/dig.jpg"",""time"":0},{""stimulus"":""run_exp/static/images/task_images/land.jpg"",""time"":860},{""stimulus"":""run_exp/static/images/task_images/dig.jpg"",""time"":1720}]",[],15,,,,,,,,,,,,,,
harvest,257,739687,0.0-75.0-1.0,,null,run_exp/static/images/task_images/gems/46.jpg,null,,,,,,43,,,15,,,,,46,0.924648443,0.934782609,,,,,,,
decision,258,740056,0.0-75.0-2.0,,368,run_exp/static/images/task_images/land.jpg,65,,,,,,43,,,15,,,,,,,,93291,2,3,FALSE,,,
dig,259,742707,0.0-76.0-0.0,,,,,,,,,,,"[{""stimulus"":""run_exp/static/images/task_images/dig.jpg"",""time"":0},{""stimulus"":""run_exp/static/images/task_images/land.jpg"",""time"":885},{""stimulus"":""run_exp/static/images/task_images/dig.jpg"",""time"":1765}]",[],15,,,,,,,,,,,,,,
harvest,260,743717,0.0-76.0-1.0,,null,run_exp/static/images/task_images/gems/43.jpg,null,,,,,,36,,,15,,,,,43,0.847218212,0.837209302,,,,,,,
decision,261,744096,0.0-76.0-2.0,,378,run_exp/static/images/task_images/land.jpg,65,,,,,,36,,,15,,,,,,,,97331,2,4,FALSE,,,
dig,262,746738,0.0-77.0-0.0,,,,,,,,,,,"[{""stimulus"":""run_exp/static/images/task_images/dig.jpg"",""time"":0},{""stimulus"":""run_exp/static/images/task_images/land.jpg"",""time"":876},{""stimulus"":""run_exp/static/images/task_images/dig.jpg"",""time"":1756}]",[],15,,,,,,,,,,,,,,
harvest,263,747748,0.0-77.0-1.0,,null,run_exp/static/images/task_images/gems/36.jpg,null,,,,,,31,,,15,,,,,36,0.856077685,0.861111111,,,,,,,
decision,264,748385,0.0-77.0-2.0,,637,run_exp/static/images/task_images/land.jpg,65,,,,,,31,,,15,,,,,,,,101620,2,5,FALSE,,,
dig,265,750787,0.0-78.0-0.0,,,,,,,,,,,"[{""stimulus"":""run_exp/static/images/task_images/dig.jpg"",""time"":0},{""stimulus"":""run_exp/static/images/task_images/land.jpg"",""time"":797},{""stimulus"":""run_exp/static/images/task_images/dig.jpg"",""time"":1597}]",[],15,,,,,,,,,,,,,,
harvest,266,751807,0.0-78.0-1.0,,null,run_exp/static/images/task_images/gems/31.jpg,null,,,,,,27,,,15,,,,,31,0.884170642,0.870967742,,,,,,,
decision,267,752225,0.0-78.0-2.0,,418,run_exp/static/images/task_images/land.jpg,76,,,,,,27,,,15,,,,,,,,105460,2,6,TRUE,,,
travel,268,761947,0.0-79.0-0.0,,,,,,,,,,,"[{""stimulus"":""run_exp/static/images/task_images/rocket-01.jpg"",""time"":0},{""stimulus"":""run_exp/static/images/task_images/rocket-02.jpg"",""time"":1075},{""stimulus"":""run_exp/static/images/task_images/rocket-03.jpg"",""time"":2156},{""stimulus"":""run_exp/static/images/task_images/rocket-04.jpg"",""time"":3235},{""stimulus"":""run_exp/static/images/task_images/rocket-05.jpg"",""time"":4315},{""stimulus"":""run_exp/static/images/task_images/rocket-06.jpg"",""time"":5395},{""stimulus"":""run_exp/static/images/task_images/rocket-07.jpg"",""time"":6476},{""stimulus"":""run_exp/static/images/task_images/rocket-08.jpg"",""time"":7556},{""stimulus"":""run_exp/static/images/task_images/rocket-09.jpg"",""time"":8636}]",[],15,,,,,,,,,,,,,,
alien_welcome,269,766967,0.0-79.0-1.0,,null,run_exp/static/images/task_images/aliens/old_aliens/planet/alien_planet-11.jpg,null,,,,,,,,,,,,11,"77,60,29,22,26,2,52,32,24,35,40,65,9,44,64,11,25,48,54,76,57,46,4,41,10,56,8,39,13,20,15,73,58,43,6,61,72,38,80,53,1,67",,,,,,,,,,
land,270,767486,0.0-79.0-2.0,,null,run_exp/static/images/task_images/land.jpg,null,,,,,,85,,,16,,,,,,,,,,,,,,
dig,271,769527,0.0-79.0-3.0,,,,,,,,,,,"[{""stimulus"":""run_exp/static/images/task_images/dig.jpg"",""time"":0},{""stimulus"":""run_exp/static/images/task_images/land.jpg"",""time"":677},{""stimulus"":""run_exp/static/images/task_images/dig.jpg"",""time"":1357}]",[],16,,,,,,,,,,,,,,
harvest,272,770546,0.0-79.0-4.0,,null,run_exp/static/images/task_images/gems/85.jpg,null,,,,,,66,,,16,,,,,85,0.771686862,0.776470588,,,,,,,
decision,273,771000,0.0-79.0-5.0,,453,run_exp/static/images/task_images/land.jpg,65,,,,,,66,,,16,,,,,,,,124235,2,0,FALSE,,,
dig,274,773588,0.0-80.0-0.0,,,,,,,,,,,"[{""stimulus"":""run_exp/static/images/task_images/dig.jpg"",""time"":0},{""stimulus"":""run_exp/static/images/task_images/land.jpg"",""time"":860},{""stimulus"":""run_exp/static/images/task_images/dig.jpg"",""time"":1720}]",[],16,,,,,,,,,,,,,,
harvest,275,774608,0.0-80.0-1.0,,null,run_exp/static/images/task_images/gems/66.jpg,null,,,,,,56,,,16,,,,,66,0.844456684,0.848484848,,,,,,,
decision,276,774824,0.0-80.0-2.0,,216,run_exp/static/images/task_images/land.jpg,65,,,,,,56,,,16,,,,,,,,128059,2,1,FALSE,,,
dig,277,777647,0.0-81.0-0.0,,,,,,,,,,,"[{""stimulus"":""run_exp/static/images/task_images/dig.jpg"",""time"":0},{""stimulus"":""run_exp/static/images/task_images/land.jpg"",""time"":937},{""stimulus"":""run_exp/static/images/task_images/dig.jpg"",""time"":1877}]",[],16,,,,,,,,,,,,,,
harvest,278,778667,0.0-81.0-1.0,,null,run_exp/static/images/task_images/gems/56.jpg,null,,,,,,44,,,16,,,,,56,0.785179268,0.785714286,,,,,,,
decision,279,779049,0.0-81.0-2.0,,381,run_exp/static/images/task_images/land.jpg,65,,,,,,44,,,16,,,,,,,,132284,2,2,FALSE,,,
dig,280,781707,0.0-82.0-0.0,,,,,,,,,,,"[{""stimulus"":""run_exp/static/images/task_images/dig.jpg"",""time"":0},{""stimulus"":""run_exp/static/images/task_images/land.jpg"",""time"":891},{""stimulus"":""run_exp/static/images/task_images/dig.jpg"",""time"":1772}]",[],16,,,,,,,,,,,,,,
harvest,281,782727,0.0-82.0-1.0,,null,run_exp/static/images/task_images/gems/44.jpg,null,,,,,,39,,,16,,,,,44,0.879331153,0.886363636,,,,,,,
decision,282,782913,0.0-82.0-2.0,,185,run_exp/static/images/task_images/land.jpg,65,,,,,,39,,,16,,,,,,,,136148,2,3,FALSE,,,
dig,283,785747,0.0-83.0-0.0,,,,,,,,,,,"[{""stimulus"":""run_exp/static/images/task_images/dig.jpg"",""time"":0},{""stimulus"":""run_exp/static/images/task_images/land.jpg"",""time"":949},{""stimulus"":""run_exp/static/images/task_images/dig.jpg"",""time"":1889}]",[],16,,,,,,,,,,,,,,
harvest,284,786768,0.0-83.0-1.0,,null,run_exp/static/images/task_images/gems/39.jpg,null,,,,,,34,,,16,,,,,39,0.860039887,0.871794872,,,,,,,
decision,285,787208,0.0-83.0-2.0,,441,run_exp/static/images/task_images/land.jpg,65,,,,,,34,,,16,,,,,,,,140443,2,4,FALSE,,,
dig,286,789808,0.0-84.0-0.0,,,,,,,,,,,"[{""stimulus"":""run_exp/static/images/task_images/dig.jpg"",""time"":0},{""stimulus"":""run_exp/static/images/task_images/land.jpg"",""time"":872},{""stimulus"":""run_exp/static/images/task_images/dig.jpg"",""time"":1733}]",[],16,,,,,,,,,,,,,,
harvest,287,790827,0.0-84.0-1.0,,null,run_exp/static/images/task_images/gems/34.jpg,null,,,,,,27,,,16,,,,,34,0.789868971,0.794117647,,,,,,,
decision,288,791240,0.0-84.0-2.0,,413,run_exp/static/images/task_images/land.jpg,76,,,,,,27,,,16,,,,,,,,144475,2,5,TRUE,,,
travel,289,800967,0.0-85.0-0.0,,,,,,,,,,,"[{""stimulus"":""run_exp/static/images/task_images/rocket-01.jpg"",""time"":0},{""stimulus"":""run_exp/static/images/task_images/rocket-02.jpg"",""time"":1080},{""stimulus"":""run_exp/static/images/task_images/rocket-03.jpg"",""time"":2161},{""stimulus"":""run_exp/static/images/task_images/rocket-04.jpg"",""time"":3241},{""stimulus"":""run_exp/static/images/task_images/rocket-05.jpg"",""time"":4320},{""stimulus"":""run_exp/static/images/task_images/rocket-06.jpg"",""time"":5401},{""stimulus"":""run_exp/static/images/task_images/rocket-07.jpg"",""time"":6481},{""stimulus"":""run_exp/static/images/task_images/rocket-08.jpg"",""time"":7561},{""stimulus"":""run_exp/static/images/task_images/rocket-09.jpg"",""time"":8641}]",[],16,,,,,,,,,,,,,,
alien_welcome,290,805987,0.0-85.0-1.0,,null,run_exp/static/images/task_images/aliens/old_aliens/planet/alien_planet-25.jpg,null,,,,,,,,,,,,25,"77,60,29,22,26,2,52,32,24,35,40,65,9,44,64,11,25,48,54,76,57,46,4,41,10,56,8,39,13,20,15,73,58,43,6,61,72,38,80,53,1,67",,,,,,,,,,
land,291,806507,0.0-85.0-2.0,,null,run_exp/static/images/task_images/land.jpg,null,,,,,,106,,,17,,,,,,,,,,,,,,
dig,292,808547,0.0-85.0-3.0,,,,,,,,,,,"[{""stimulus"":""run_exp/static/images/task_images/dig.jpg"",""time"":0},{""stimulus"":""run_exp/static/images/task_images/land.jpg"",""time"":677},{""stimulus"":""run_exp/static/images/task_images/dig.jpg"",""time"":1357}]",[],17,,,,,,,,,,,,,,
harvest,293,809567,0.0-85.0-4.0,,null,run_exp/static/images/task_images/gems/106.jpg,null,,,,,,86,,,17,,,,,106,0.806969693,0.811320755,,,,,,,
decision,294,809977,0.0-85.0-5.0,,409,run_exp/static/images/task_images/land.jpg,65,,,,,,86,,,17,,,,,,,,163212,2,0,FALSE,,,
dig,295,812607,0.0-86.0-0.0,,,,,,,,,,,"[{""stimulus"":""run_exp/static/images/task_images/dig.jpg"",""time"":0},{""stimulus"":""run_exp/static/images/task_images/land.jpg"",""time"":866},{""stimulus"":""run_exp/static/images/task_images/dig.jpg"",""time"":1744}]",[],17,,,,,,,,,,,,,,
harvest,296,813627,0.0-86.0-1.0,,null,run_exp/static/images/task_images/gems/86.jpg,null,,,,,,73,,,17,,,,,86,0.854079888,0.848837209,,,,,,,
decision,297,813937,0.0-86.0-2.0,,309,run_exp/static/images/task_images/land.jpg,65,,,,,,73,,,17,,,,,,,,167172,2,1,FALSE,,,
dig,298,816647,0.0-87.0-0.0,,,,,,,,,,,"[{""stimulus"":""run_exp/static/images/task_images/dig.jpg"",""time"":0},{""stimulus"":""run_exp/static/images/task_images/land.jpg"",""time"":904},{""stimulus"":""run_exp/static/images/task_images/dig.jpg"",""time"":1804}]",[],17,,,,,,,,,,,,,,
harvest,299,817666,0.0-87.0-1.0,,null,run_exp/static/images/task_images/gems/73.jpg,null,,,,,,49,,,17,,,,,73,0.6705693,0.671232877,,,,,,,
decision,300,818265,0.0-87.0-2.0,,599,run_exp/static/images/task_images/land.jpg,65,,,,,,49,,,17,,,,,,,,171500,2,2,FALSE,,,
dig,301,820707,0.0-88.0-0.0,,,,,,,,,,,"[{""stimulus"":""run_exp/static/images/task_images/dig.jpg"",""time"":0},{""stimulus"":""run_exp/static/images/task_images/land.jpg"",""time"":816},{""stimulus"":""run_exp/static/images/task_images/dig.jpg"",""time"":1616}]",[],17,,,,,,,,,,,,,,
harvest,302,821727,0.0-88.0-1.0,,null,run_exp/static/images/task_images/gems/49.jpg,null,,,,,,38,,,17,,,,,49,0.784896536,0.775510204,,,,,,,
decision,303,822121,0.0-88.0-2.0,,393,run_exp/static/images/task_images/land.jpg,65,,,,,,38,,,17,,,,,,,,175356,2,3,FALSE,,,
dig,304,824767,0.0-89.0-0.0,,,,,,,,,,,"[{""stimulus"":""run_exp/static/images/task_images/dig.jpg"",""time"":0},{""stimulus"":""run_exp/static/images/task_images/land.jpg"",""time"":881},{""stimulus"":""run_exp/static/images/task_images/dig.jpg"",""time"":1761}]",[],17,,,,,,,,,,,,,,
harvest,305,825786,0.0-89.0-1.0,,null,run_exp/static/images/task_images/gems/38.jpg,null,,,,,,28,,,17,,,,,38,0.749110988,0.736842105,,,,,,,
decision,306,826257,0.0-89.0-2.0,,470,run_exp/static/images/task_images/land.jpg,65,,,,,,28,,,17,,,,,,,,179492,2,4,FALSE,,,
dig,307,828827,0.0-90.0-0.0,,,,,,,,,,,"[{""stimulus"":""run_exp/static/images/task_images/dig.jpg"",""time"":0},{""stimulus"":""run_exp/static/images/task_images/land.jpg"",""time"":844},{""stimulus"":""run_exp/static/images/task_images/dig.jpg"",""time"":1704}]",[],17,,,,,,,,,,,,,,
harvest,308,829846,0.0-90.0-1.0,,null,run_exp/static/images/task_images/gems/28.jpg,null,,,,,,23,,,17,,,,,28,0.809437249,0.821428571,,,,,,,
decision,309,830241,0.0-90.0-2.0,,393,run_exp/static/images/task_images/land.jpg,76,,,,,,23,,,17,,,,,,,,183476,2,5,TRUE,,,
travel,310,839967,0.0-91.0-0.0,,,,,,,,,,,"[{""stimulus"":""run_exp/static/images/task_images/rocket-01.jpg"",""time"":0},{""stimulus"":""run_exp/static/images/task_images/rocket-02.jpg"",""time"":1080},{""stimulus"":""run_exp/static/images/task_images/rocket-03.jpg"",""time"":2160},{""stimulus"":""run_exp/static/images/task_images/rocket-04.jpg"",""time"":3241},{""stimulus"":""run_exp/static/images/task_images/rocket-05.jpg"",""time"":4320},{""stimulus"":""run_exp/static/images/task_images/rocket-06.jpg"",""time"":5400},{""stimulus"":""run_exp/static/images/task_images/rocket-07.jpg"",""time"":6480},{""stimulus"":""run_exp/static/images/task_images/rocket-08.jpg"",""time"":7561},{""stimulus"":""run_exp/static/images/task_images/rocket-09.jpg"",""time"":8636}]",[],17,,,,,,,,,,,,,,
alien_welcome,311,844987,0.0-91.0-1.0,,null,run_exp/static/images/task_images/aliens/old_aliens/planet/alien_planet-48.jpg,null,,,,,,,,,,,,48,"77,60,29,22,26,2,52,32,24,35,40,65,9,44,64,11,25,48,54,76,57,46,4,41,10,56,8,39,13,20,15,73,58,43,6,61,72,38,80,53,1,67",,,,,,,,,,
land,312,845508,0.0-91.0-2.0,,null,run_exp/static/images/task_images/land.jpg,null,,,,,,106,,,18,,,,,,,,,,,,,,
dig,313,847547,0.0-91.0-3.0,,,,,,,,,,,"[{""stimulus"":""run_exp/static/images/task_images/dig.jpg"",""time"":0},{""stimulus"":""run_exp/static/images/task_images/land.jpg"",""time"":675},{""stimulus"":""run_exp/static/images/task_images/dig.jpg"",""time"":1356}]",[],18,,,,,,,,,,,,,,
harvest,314,848548,0.0-91.0-4.0,,null,run_exp/static/images/task_images/gems/106.jpg,null,,,,,,91,,,18,,,,,106,0.859174368,0.858490566,,,,,,,
decision,315,848913,0.0-91.0-5.0,,364,run_exp/static/images/task_images/land.jpg,65,,,,,,91,,,18,,,,,,,,202148,2,0,FALSE,,,
dig,316,851567,0.0-92.0-0.0,,,,,,,,,,,"[{""stimulus"":""run_exp/static/images/task_images/dig.jpg"",""time"":0},{""stimulus"":""run_exp/static/images/task_images/land.jpg"",""time"":889},{""stimulus"":""run_exp/static/images/task_images/dig.jpg"",""time"":1769}]",[],18,,,,,,,,,,,,,,
harvest,317,852587,0.0-92.0-1.0,,null,run_exp/static/images/task_images/gems/91.jpg,null,,,,,,81,,,18,,,,,91,0.890439389,0.89010989,,,,,,,
decision,318,852953,0.0-92.0-2.0,,365,run_exp/static/images/task_images/land.jpg,65,,,,,,81,,,18,,,,,,,,206188,2,1,FALSE,,,
dig,319,855607,0.0-93.0-0.0,,,,,,,,,,,"[{""stimulus"":""run_exp/static/images/task_images/dig.jpg"",""time"":0},{""stimulus"":""run_exp/static/images/task_images/land.jpg"",""time"":888},{""stimulus"":""run_exp/static/images/task_images/dig.jpg"",""time"":1768}]",[],18,,,,,,,,,,,,,,
harvest,320,856627,0.0-93.0-1.0,,null,run_exp/static/images/task_images/gems/81.jpg,null,,,,,,63,,,18,,,,,81,0.779200482,0.777777778,,,,,,,
decision,321,856978,0.0-93.0-2.0,,349,run_exp/static/images/task_images/land.jpg,65,,,,,,63,,,18,,,,,,,,210213,2,2,FALSE,,,
dig,322,859667,0.0-94.0-0.0,,,,,,,,,,,"[{""stimulus"":""run_exp/static/images/task_images/dig.jpg"",""time"":0},{""stimulus"":""run_exp/static/images/task_images/land.jpg"",""time"":884},{""stimulus"":""run_exp/static/images/task_images/dig.jpg"",""time"":1784}]",[],18,,,,,,,,,,,,,,
harvest,323,860687,0.0-94.0-1.0,,null,run_exp/static/images/task_images/gems/63.jpg,null,,,,,,47,,,18,,,,,63,0.746002311,0.746031746,,,,,,,
decision,324,860777,0.0-94.0-2.0,,89,run_exp/static/images/task_images/land.jpg,65,,,,,,47,,,18,,,,,,,,214012,2,3,FALSE,,,
dig,325,863728,0.0-95.0-0.0,,,,,,,,,,,"[{""stimulus"":""run_exp/static/images/task_images/dig.jpg"",""time"":0},{""stimulus"":""run_exp/static/images/task_images/land.jpg"",""time"":984},{""stimulus"":""run_exp/static/images/task_images/dig.jpg"",""time"":1965}]",[],18,,,,,,,,,,,,,,
harvest,326,864738,0.0-95.0-1.0,,null,run_exp/static/images/task_images/gems/47.jpg,null,,,,,,40,,,18,,,,,47,0.846436344,0.85106383,,,,,,,
decision,327,865137,0.0-95.0-2.0,,398,run_exp/static/images/task_images/land.jpg,65,,,,,,40,,,18,,,,,,,,218372,2,4,FALSE,,,
dig,328,867768,0.0-96.0-0.0,,,,,,,,,,,"[{""stimulus"":""run_exp/static/images/task_images/dig.jpg"",""time"":0},{""stimulus"":""run_exp/static/images/task_images/land.jpg"",""time"":875},{""stimulus"":""run_exp/static/images/task_images/dig.jpg"",""time"":1745}]",[],18,,,,,,,,,,,,,,
harvest,329,868778,0.0-96.0-1.0,,null,run_exp/static/images/task_images/gems/40.jpg,null,,,,,,30,,,18,,,,,40,0.758196194,0.75,,,,,,,
decision,330,869313,0.0-96.0-2.0,,535,run_exp/static/images/task_images/land.jpg,76,,,,,,30,,,18,,,,,,,,222548,2,5,TRUE,,,
travel,331,878857,0.0-97.0-0.0,,,,,,,,,,,"[{""stimulus"":""run_exp/static/images/task_images/rocket-01.jpg"",""time"":0},{""stimulus"":""run_exp/static/images/task_images/rocket-02.jpg"",""time"":1059},{""stimulus"":""run_exp/static/images/task_images/rocket-03.jpg"",""time"":2118},{""stimulus"":""run_exp/static/images/task_images/rocket-04.jpg"",""time"":3179},{""stimulus"":""run_exp/static/images/task_images/rocket-05.jpg"",""time"":4239},{""stimulus"":""run_exp/static/images/task_images/rocket-06.jpg"",""time"":5299},{""stimulus"":""run_exp/static/images/task_images/rocket-07.jpg"",""time"":6359},{""stimulus"":""run_exp/static/images/task_images/rocket-08.jpg"",""time"":7419},{""stimulus"":""run_exp/static/images/task_images/rocket-09.jpg"",""time"":8478}]",[],18,,,,,,,,,,,,,,
alien_welcome,332,883877,0.0-97.0-1.0,,null,run_exp/static/images/task_images/aliens/old_aliens/planet/alien_planet-54.jpg,null,,,,,,,,,,,,54,"77,60,29,22,26,2,52,32,24,35,40,65,9,44,64,11,25,48,54,76,57,46,4,41,10,56,8,39,13,20,15,73,58,43,6,61,72,38,80,53,1,67",,,,,,,,,,
land,333,884398,0.0-97.0-2.0,,null,run_exp/static/images/task_images/land.jpg,null,,,,,,106,,,19,,,,,,,,,,,,,,
dig,334,886437,0.0-97.0-3.0,,,,,,,,,,,"[{""stimulus"":""run_exp/static/images/task_images/dig.jpg"",""time"":1},{""stimulus"":""run_exp/static/images/task_images/land.jpg"",""time"":676},{""stimulus"":""run_exp/static/images/task_images/dig.jpg"",""time"":1356}]",[],19,,,,,,,,,,,,,,
harvest,335,887458,0.0-97.0-4.0,,null,run_exp/static/images/task_images/gems/106.jpg,null,,,,,,84,,,19,,,,,106,0.796208972,0.79245283,,,,,,,
decision,336,887976,0.0-97.0-5.0,,518,run_exp/static/images/task_images/land.jpg,65,,,,,,84,,,19,,,,,,,,241211,2,0,FALSE,,,
dig,337,890498,0.0-98.0-0.0,,,,,,,,,,,"[{""stimulus"":""run_exp/static/images/task_images/dig.jpg"",""time"":0},{""stimulus"":""run_exp/static/images/task_images/land.jpg"",""time"":836},{""stimulus"":""run_exp/static/images/task_images/dig.jpg"",""time"":1675}]",[],19,,,,,,,,,,,,,,
harvest,338,891508,0.0-98.0-1.0,,null,run_exp/static/images/task_images/gems/84.jpg,null,,,,,,72,,,19,,,,,84,0.852715129,0.857142857,,,,,,,
decision,339,891864,0.0-98.0-2.0,,356,run_exp/static/images/task_images/land.jpg,65,,,,,,72,,,19,,,,,,,,245099,2,1,FALSE,,,
dig,340,894567,0.0-99.0-0.0,,,,,,,,,,,"[{""stimulus"":""run_exp/static/images/task_images/dig.jpg"",""time"":0},{""stimulus"":""run_exp/static/images/task_images/land.jpg"",""time"":898},{""stimulus"":""run_exp/static/images/task_images/dig.jpg"",""time"":1797}]",[],19,,,,,,,,,,,,,,
harvest,341,895588,0.0-99.0-1.0,,null,run_exp/static/images/task_images/gems/72.jpg,null,,,,,,58,,,19,,,,,72,0.805834556,0.805555556,,,,,,,
decision,342,895929,0.0-99.0-2.0,,340,run_exp/static/images/task_images/land.jpg,65,,,,,,58,,,19,,,,,,,,249164,2,2,FALSE,,,
dig,343,898628,0.0-100.0-0.0,,,,,,,,,,,"[{""stimulus"":""run_exp/static/images/task_images/dig.jpg"",""time"":0},{""stimulus"":""run_exp/static/images/task_images/land.jpg"",""time"":892},{""stimulus"":""run_exp/static/images/task_images/dig.jpg"",""time"":1792}]",[],19,,,,,,,,,,,,,,
harvest,344,899648,0.0-100.0-1.0,,null,run_exp/static/images/task_images/gems/58.jpg,null,,,,,,50,,,19,,,,,58,0.862293626,0.862068966,,,,,,,
decision,345,900225,0.0-100.0-2.0,,577,run_exp/static/images/task_images/land.jpg,65,,,,,,50,,,19,,,,,,,,253460,2,3,FALSE,,,
dig,346,902688,0.0-101.0-0.0,,,,,,,,,,,"[{""stimulus"":""run_exp/static/images/task_images/dig.jpg"",""time"":0},{""stimulus"":""run_exp/static/images/task_images/land.jpg"",""time"":816},{""stimulus"":""run_exp/static/images/task_images/dig.jpg"",""time"":1636}]",[],19,,,,,,,,,,,,,,
harvest,347,903707,0.0-101.0-1.0,,null,run_exp/static/images/task_images/gems/50.jpg,null,,,,,,42,,,19,,,,,50,0.839119764,0.84,,,,,,,
decision,348,904176,0.0-101.0-2.0,,468,run_exp/static/images/task_images/land.jpg,65,,,,,,42,,,19,,,,,,,,257411,2,4,FALSE,,,
dig,349,906747,0.0-102.0-0.0,,,,,,,,,,,"[{""stimulus"":""run_exp/static/images/task_images/dig.jpg"",""time"":0},{""stimulus"":""run_exp/static/images/task_images/land.jpg"",""time"":845},{""stimulus"":""run_exp/static/images/task_images/dig.jpg"",""time"":1705}]",[],19,,,,,,,,,,,,,,
harvest,350,907768,0.0-102.0-1.0,,null,run_exp/static/images/task_images/gems/42.jpg,null,,,,,,31,,,19,,,,,42,0.745927863,0.738095238,,,,,,,
decision,351,908121,0.0-102.0-2.0,,353,run_exp/static/images/task_images/land.jpg,65,,,,,,31,,,19,,,,,,,,261356,2,5,FALSE,,,
dig,352,910827,0.0-103.0-0.0,,,,,,,,,,,"[{""stimulus"":""run_exp/static/images/task_images/dig.jpg"",""time"":0},{""stimulus"":""run_exp/static/images/task_images/land.jpg"",""time"":900},{""stimulus"":""run_exp/static/images/task_images/dig.jpg"",""time"":1800}]",[],19,,,,,,,,,,,,,,
harvest,353,911847,0.0-103.0-1.0,,null,run_exp/static/images/task_images/gems/31.jpg,null,,,,,,24,,,19,,,,,31,0.759809823,0.774193548,,,,,,,
decision,354,912281,0.0-103.0-2.0,,434,run_exp/static/images/task_images/land.jpg,76,,,,,,24,,,19,,,,,,,,265516,2,6,TRUE,,,
travel,355,922007,0.0-104.0-0.0,,,,,,,,,,,"[{""stimulus"":""run_exp/static/images/task_images/rocket-01.jpg"",""time"":1},{""stimulus"":""run_exp/static/images/task_images/rocket-02.jpg"",""time"":1079},{""stimulus"":""run_exp/static/images/task_images/rocket-03.jpg"",""time"":2160},{""stimulus"":""run_exp/static/images/task_images/rocket-04.jpg"",""time"":3239},{""stimulus"":""run_exp/static/images/task_images/rocket-05.jpg"",""time"":4320},{""stimulus"":""run_exp/static/images/task_images/rocket-06.jpg"",""time"":5399},{""stimulus"":""run_exp/static/images/task_images/rocket-07.jpg"",""time"":6480},{""stimulus"":""run_exp/static/images/task_images/rocket-08.jpg"",""time"":7560},{""stimulus"":""run_exp/static/images/task_images/rocket-09.jpg"",""time"":8640}]",[],19,,,,,,,,,,,,,,
alien_welcome,356,927027,0.0-104.0-1.0,,null,run_exp/static/images/task_images/aliens/old_aliens/planet/alien_planet-76.jpg,null,,,,,,,,,,,,76,"77,60,29,22,26,2,52,32,24,35,40,65,9,44,64,11,25,48,54,76,57,46,4,41,10,56,8,39,13,20,15,73,58,43,6,61,72,38,80,53,1,67",,,,,,,,,,
land,357,927548,0.0-104.0-2.0,,null,run_exp/static/images/task_images/land.jpg,null,,,,,,95,,,20,,,,,,,,,,,,,,
dig,358,929587,0.0-104.0-3.0,,,,,,,,,,,"[{""stimulus"":""run_exp/static/images/task_images/dig.jpg"",""time"":0},{""stimulus"":""run_exp/static/images/task_images/land.jpg"",""time"":676},{""stimulus"":""run_exp/static/images/task_images/dig.jpg"",""time"":1356}]",[],20,,,,,,,,,,,,,,
harvest,359,930607,0.0-104.0-4.0,,null,run_exp/static/images/task_images/gems/95.jpg,null,,,,,,49,,,20,,,,,95,0.51093018,0.515789474,,,,,,,
decision,360,931033,0.0-104.0-5.0,,425,run_exp/static/images/task_images/land.jpg,65,,,,,,49,,,20,,,,,,,,284268,2,0,FALSE,,,
dig,361,933628,0.0-105.0-0.0,,,,,,,,,,,"[{""stimulus"":""run_exp/static/images/task_images/dig.jpg"",""time"":0},{""stimulus"":""run_exp/static/images/task_images/land.jpg"",""time"":866},{""stimulus"":""run_exp/static/images/task_images/dig.jpg"",""time"":1728}]",[],20,,,,,,,,,,,,,,
harvest,362,934647,0.0-105.0-1.0,,null,run_exp/static/images/task_images/gems/49.jpg,null,,,,,,25,,,20,,,,,49,0.51176557,0.510204082,,,,,,,
decision,363,934880,0.0-105.0-2.0,,233,run_exp/static/images/task_images/land.jpg,65,,,,,,25,,,20,,,,,,,,288116,2,1,FALSE,,,
dig,364,937708,0.0-106.0-0.0,,,,,,,,,,,"[{""stimulus"":""run_exp/static/images/task_images/dig.jpg"",""time"":0},{""stimulus"":""run_exp/static/images/task_images/land.jpg"",""time"":940},{""stimulus"":""run_exp/static/images/task_images/dig.jpg"",""time"":1880}]",[],20,,,,,,,,,,,,,,
harvest,365,938718,0.0-106.0-1.0,,null,run_exp/static/images/task_images/gems/25.jpg,null,,,,,,13,,,20,,,,,25,0.538528998,0.52,,,,,,,
decision,366,939081,0.0-106.0-2.0,,362,run_exp/static/images/task_images/land.jpg,76,,,,,,13,,,20,,,,,,,,292316,2,2,TRUE,,,
travel,367,948817,0.0-107.0-0.0,,,,,,,,,,,"[{""stimulus"":""run_exp/static/images/task_images/rocket-01.jpg"",""time"":0},{""stimulus"":""run_exp/static/images/task_images/rocket-02.jpg"",""time"":1090},{""stimulus"":""run_exp/static/images/task_images/rocket-03.jpg"",""time"":2169},{""stimulus"":""run_exp/static/images/task_images/rocket-04.jpg"",""time"":3251},{""stimulus"":""run_exp/static/images/task_images/rocket-05.jpg"",""time"":4330},{""stimulus"":""run_exp/static/images/task_images/rocket-06.jpg"",""time"":5411},{""stimulus"":""run_exp/static/images/task_images/rocket-07.jpg"",""time"":6489},{""stimulus"":""run_exp/static/images/task_images/rocket-08.jpg"",""time"":7571},{""stimulus"":""run_exp/static/images/task_images/rocket-09.jpg"",""time"":8650}]",[],20,,,,,,,,,,,,,,
alien_welcome,368,953828,0.0-107.0-1.0,,null,run_exp/static/images/task_images/aliens/old_aliens/planet/alien_planet-57.jpg,null,,,,,,,,,,,,57,"77,60,29,22,26,2,52,32,24,35,40,65,9,44,64,11,25,48,54,76,57,46,4,41,10,56,8,39,13,20,15,73,58,43,6,61,72,38,80,53,1,67",,,,,,,,,,
land,369,954346,0.0-107.0-2.0,,null,run_exp/static/images/task_images/land.jpg,null,,,,,,98,,,21,,,,,,,,,,,,,,
dig,370,956387,0.0-107.0-3.0,,,,,,,,,,,"[{""stimulus"":""run_exp/static/images/task_images/dig.jpg"",""time"":0},{""stimulus"":""run_exp/static/images/task_images/land.jpg"",""time"":677},{""stimulus"":""run_exp/static/images/task_images/dig.jpg"",""time"":1356}]",[],21,,,,,,,,,,,,,,
harvest,371,957407,0.0-107.0-4.0,,null,run_exp/static/images/task_images/gems/98.jpg,null,,,,,,80,,,21,,,,,98,0.818616953,0.816326531,,,,,,,
decision,372,957841,0.0-107.0-5.0,,433,run_exp/static/images/task_images/land.jpg,65,,,,,,80,,,21,,,,,,,,311076,2,0,TRUE,,,
end_of_block_continue,373,966711,0.0-108.0-0.0,,null,run_exp/static/audio/clip_32_block_end.m4a,,,,,,null,,,,,,,,,,,,,,,,,,
alien_welcome,374,971718,0.0-109.0-0.0,,null,run_exp/static/images/task_images/aliens/old_aliens/planet/alien_planet-46.jpg,null,,,,,,,,,,,,46,"77,60,29,22,26,2,52,32,24,35,40,65,9,44,64,11,25,48,54,76,57,46,4,41,10,56,8,39,13,20,15,73,58,43,6,61,72,38,80,53,1,67",,,,,,,,,,
land,375,972237,0.0-109.0-1.0,,null,run_exp/static/images/task_images/land.jpg,null,,,,,,98,,,22,,,,,,,,,,,,,,
dig,376,974277,0.0-109.0-2.0,,,,,,,,,,,"[{""stimulus"":""run_exp/static/images/task_images/dig.jpg"",""time"":0},{""stimulus"":""run_exp/static/images/task_images/land.jpg"",""time"":675},{""stimulus"":""run_exp/static/images/task_images/dig.jpg"",""time"":1356}]",[],22,,,,,,,,,,,,,,
harvest,377,975298,0.0-109.0-3.0,,null,run_exp/static/images/task_images/gems/98.jpg,null,,,,,,49,,,22,,,,,98,0.502062203,0.5,,,,,,,
decision,378,975705,0.0-109.0-4.0,,407,run_exp/static/images/task_images/land.jpg,65,,,,,,49,,,22,,,,,,,,8992,3,0,FALSE,,,
dig,379,978338,0.0-110.0-0.0,,,,,,,,,,,"[{""stimulus"":""run_exp/static/images/task_images/dig.jpg"",""time"":0},{""stimulus"":""run_exp/static/images/task_images/land.jpg"",""time"":867},{""stimulus"":""run_exp/static/images/task_images/dig.jpg"",""time"":1746}]",[],22,,,,,,,,,,,,,,
harvest,380,979358,0.0-110.0-1.0,,null,run_exp/static/images/task_images/gems/49.jpg,null,,,,,,26,,,22,,,,,49,0.537692151,0.530612245,,,,,,,
decision,381,979793,0.0-110.0-2.0,,434,run_exp/static/images/task_images/land.jpg,65,,,,,,26,,,22,,,,,,,,13080,3,1,FALSE,,,
dig,382,982377,0.0-111.0-0.0,,,,,,,,,,,"[{""stimulus"":""run_exp/static/images/task_images/dig.jpg"",""time"":0},{""stimulus"":""run_exp/static/images/task_images/land.jpg"",""time"":859},{""stimulus"":""run_exp/static/images/task_images/dig.jpg"",""time"":1719}]",[],22,,,,,,,,,,,,,,
harvest,383,983398,0.0-111.0-1.0,,null,run_exp/static/images/task_images/gems/26.jpg,null,,,,,,13,,,22,,,,,26,0.503760574,0.5,,,,,,,
decision,384,984386,0.0-111.0-2.0,,985,run_exp/static/images/task_images/land.jpg,76,,,,,,13,,,22,,,,,,,,17673,3,2,TRUE,,,
travel,385,993557,0.0-112.0-0.0,,,,,,,,,,,"[{""stimulus"":""run_exp/static/images/task_images/rocket-01.jpg"",""time"":0},{""stimulus"":""run_exp/static/images/task_images/rocket-02.jpg"",""time"":1005},{""stimulus"":""run_exp/static/images/task_images/rocket-03.jpg"",""time"":2024},{""stimulus"":""run_exp/static/images/task_images/rocket-04.jpg"",""time"":3045},{""stimulus"":""run_exp/static/images/task_images/rocket-05.jpg"",""time"":4066},{""stimulus"":""run_exp/static/images/task_images/rocket-06.jpg"",""time"":5085},{""stimulus"":""run_exp/static/images/task_images/rocket-07.jpg"",""time"":6106},{""stimulus"":""run_exp/static/images/task_images/rocket-08.jpg"",""time"":7126},{""stimulus"":""run_exp/static/images/task_images/rocket-09.jpg"",""time"":8145}]",[],22,,,,,,,,,,,,,,
alien_welcome,386,998567,0.0-112.0-1.0,,null,run_exp/static/images/task_images/aliens/old_aliens/planet/alien_planet-4.jpg,null,,,,,,,,,,,,4,"77,60,29,22,26,2,52,32,24,35,40,65,9,44,64,11,25,48,54,76,57,46,4,41,10,56,8,39,13,20,15,73,58,43,6,61,72,38,80,53,1,67",,,,,,,,,,
land,387,999088,0.0-112.0-2.0,,null,run_exp/static/images/task_images/land.jpg,null,,,,,,104,,,23,,,,,,,,,,,,,,
dig,388,1001128,0.0-112.0-3.0,,,,,,,,,,,"[{""stimulus"":""run_exp/static/images/task_images/dig.jpg"",""time"":0},{""stimulus"":""run_exp/static/images/task_images/land.jpg"",""time"":676},{""stimulus"":""run_exp/static/images/task_images/dig.jpg"",""time"":1356}]",[],23,,,,,,,,,,,,,,
harvest,389,1002148,0.0-112.0-4.0,,null,run_exp/static/images/task_images/gems/104.jpg,null,,,,,,81,,,23,,,,,104,0.778331313,0.778846154,,,,,,,
decision,390,1002578,0.0-112.0-5.0,,429,run_exp/static/images/task_images/land.jpg,65,,,,,,81,,,23,,,,,,,,35865,3,0,FALSE,,,
dig,391,1005168,0.0-113.0-0.0,,,,,,,,,,,"[{""stimulus"":""run_exp/static/images/task_images/dig.jpg"",""time"":0},{""stimulus"":""run_exp/static/images/task_images/land.jpg"",""time"":863},{""stimulus"":""run_exp/static/images/task_images/dig.jpg"",""time"":1721}]",[],23,,,,,,,,,,,,,,
harvest,392,1006188,0.0-113.0-1.0,,null,run_exp/static/images/task_images/gems/81.jpg,null,,,,,,66,,,23,,,,,81,0.812361599,0.814814815,,,,,,,
decision,393,1006504,0.0-113.0-2.0,,316,run_exp/static/images/task_images/land.jpg,65,,,,,,66,,,23,,,,,,,,39791,3,1,FALSE,,,
dig,394,1009208,0.0-114.0-0.0,,,,,,,,,,,"[{""stimulus"":""run_exp/static/images/task_images/dig.jpg"",""time"":0},{""stimulus"":""run_exp/static/images/task_images/land.jpg"",""time"":895},{""stimulus"":""run_exp/static/images/task_images/dig.jpg"",""time"":1797}]",[],23,,,,,,,,,,,,,,
harvest,395,1010227,0.0-114.0-1.0,,null,run_exp/static/images/task_images/gems/66.jpg,null,,,,,,57,,,23,,,,,66,0.858983027,0.863636364,,,,,,,
decision,396,1010706,0.0-114.0-2.0,,477,run_exp/static/images/task_images/land.jpg,65,,,,,,57,,,23,,,,,,,,43993,3,2,FALSE,,,
dig,397,1013287,0.0-115.0-0.0,,,,,,,,,,,"[{""stimulus"":""run_exp/static/images/task_images/dig.jpg"",""time"":0},{""stimulus"":""run_exp/static/images/task_images/land.jpg"",""time"":854},{""stimulus"":""run_exp/static/images/task_images/dig.jpg"",""time"":1715}]",[],23,,,,,,,,,,,,,,
harvest,398,1014307,0.0-115.0-1.0,,null,run_exp/static/images/task_images/gems/57.jpg,null,,,,,,47,,,23,,,,,57,0.822928413,0.824561404,,,,,,,
decision,399,1014841,0.0-115.0-2.0,,533,run_exp/static/images/task_images/land.jpg,65,,,,,,47,,,23,,,,,,,,48128,3,3,FALSE,,,
dig,400,1017368,0.0-116.0-0.0,,,,,,,,,,,"[{""stimulus"":""run_exp/static/images/task_images/dig.jpg"",""time"":1},{""stimulus"":""run_exp/static/images/task_images/land.jpg"",""time"":839},{""stimulus"":""run_exp/static/images/task_images/dig.jpg"",""time"":1679}]",[],23,,,,,,,,,,,,,,
harvest,401,1018388,0.0-116.0-1.0,,null,run_exp/static/images/task_images/gems/47.jpg,null,,,,,,37,,,23,,,,,47,0.797214286,0.787234043,,,,,,,
decision,402,1018889,0.0-116.0-2.0,,500,run_exp/static/images/task_images/land.jpg,65,,,,,,37,,,23,,,,,,,,52176,3,4,FALSE,,,
dig,403,1021428,0.0-117.0-0.0,,,,,,,,,,,"[{""stimulus"":""run_exp/static/images/task_images/dig.jpg"",""time"":0},{""stimulus"":""run_exp/static/images/task_images/land.jpg"",""time"":851},{""stimulus"":""run_exp/static/images/task_images/dig.jpg"",""time"":1691}]",[],23,,,,,,,,,,,,,,
harvest,404,1022448,0.0-117.0-1.0,,null,run_exp/static/images/task_images/gems/37.jpg,null,,,,,,30,,,23,,,,,37,0.813072774,0.810810811,,,,,,,
decision,405,1023098,0.0-117.0-2.0,,649,run_exp/static/images/task_images/land.jpg,76,,,,,,30,,,23,,,,,,,,56385,3,5,TRUE,,,
travel,406,1032468,0.0-118.0-0.0,,,,,,,,,,,"[{""stimulus"":""run_exp/static/images/task_images/rocket-01.jpg"",""time"":0},{""stimulus"":""run_exp/static/images/task_images/rocket-02.jpg"",""time"":1042},{""stimulus"":""run_exp/static/images/task_images/rocket-03.jpg"",""time"":2082},{""stimulus"":""run_exp/static/images/task_images/rocket-04.jpg"",""time"":3123},{""stimulus"":""run_exp/static/images/task_images/rocket-05.jpg"",""time"":4164},{""stimulus"":""run_exp/static/images/task_images/rocket-06.jpg"",""time"":5203},{""stimulus"":""run_exp/static/images/task_images/rocket-07.jpg"",""time"":6244},{""stimulus"":""run_exp/static/images/task_images/rocket-08.jpg"",""time"":7284},{""stimulus"":""run_exp/static/images/task_images/rocket-09.jpg"",""time"":8322}]",[],23,,,,,,,,,,,,,,
alien_welcome,407,1037489,0.0-118.0-1.0,,null,run_exp/static/images/task_images/aliens/old_aliens/planet/alien_planet-41.jpg,null,,,,,,,,,,,,41,"77,60,29,22,26,2,52,32,24,35,40,65,9,44,64,11,25,48,54,76,57,46,4,41,10,56,8,39,13,20,15,73,58,43,6,61,72,38,80,53,1,67",,,,,,,,,,
land,408,1038007,0.0-118.0-2.0,,null,run_exp/static/images/task_images/land.jpg,null,,,,,,100,,,24,,,,,,,,,,,,,,
dig,409,1040047,0.0-118.0-3.0,,,,,,,,,,,"[{""stimulus"":""run_exp/static/images/task_images/dig.jpg"",""time"":0},{""stimulus"":""run_exp/static/images/task_images/land.jpg"",""time"":676},{""stimulus"":""run_exp/static/images/task_images/dig.jpg"",""time"":1357}]",[],24,,,,,,,,,,,,,,
harvest,410,1041067,0.0-118.0-4.0,,null,run_exp/static/images/task_images/gems/100.jpg,null,,,,,,50,,,24,,,,,100,0.504190295,0.5,,,,,,,
decision,411,1041513,0.0-118.0-5.0,,446,run_exp/static/images/task_images/land.jpg,65,,,,,,50,,,24,,,,,,,,74800,3,0,FALSE,,,
dig,412,1044107,0.0-119.0-0.0,,,,,,,,,,,"[{""stimulus"":""run_exp/static/images/task_images/dig.jpg"",""time"":0},{""stimulus"":""run_exp/static/images/task_images/land.jpg"",""time"":867},{""stimulus"":""run_exp/static/images/task_images/dig.jpg"",""time"":1728}]",[],24,,,,,,,,,,,,,,
harvest,413,1045127,0.0-119.0-1.0,,null,run_exp/static/images/task_images/gems/50.jpg,null,,,,,,25,,,24,,,,,50,0.499592096,0.5,,,,,,,
decision,414,1045481,0.0-119.0-2.0,,354,run_exp/static/images/task_images/land.jpg,65,,,,,,25,,,24,,,,,,,,78768,3,1,FALSE,,,
dig,415,1048187,0.0-120.0-0.0,,,,,,,,,,,"[{""stimulus"":""run_exp/static/images/task_images/dig.jpg"",""time"":1},{""stimulus"":""run_exp/static/images/task_images/land.jpg"",""time"":899},{""stimulus"":""run_exp/static/images/task_images/dig.jpg"",""time"":1799}]",[],24,,,,,,,,,,,,,,
harvest,416,1049207,0.0-120.0-1.0,,null,run_exp/static/images/task_images/gems/25.jpg,null,,,,,,12,,,24,,,,,25,0.463493543,0.48,,,,,,,
decision,417,1051153,0.0-120.0-2.0,,1944,run_exp/static/images/task_images/land.jpg,76,,,,,,12,,,24,,,,,,,,84440,3,2,TRUE,,,
travel,418,1059268,0.0-121.0-0.0,,,,,,,,,,,"[{""stimulus"":""run_exp/static/images/task_images/rocket-01.jpg"",""time"":0},{""stimulus"":""run_exp/static/images/task_images/rocket-02.jpg"",""time"":908},{""stimulus"":""run_exp/static/images/task_images/rocket-03.jpg"",""time"":1807},{""stimulus"":""run_exp/static/images/task_images/rocket-04.jpg"",""time"":2707},{""stimulus"":""run_exp/static/images/task_images/rocket-05.jpg"",""time"":3607},{""stimulus"":""run_exp/static/images/task_images/rocket-06.jpg"",""time"":4507},{""stimulus"":""run_exp/static/images/task_images/rocket-07.jpg"",""time"":5406},{""stimulus"":""run_exp/static/images/task_images/rocket-08.jpg"",""time"":6306},{""stimulus"":""run_exp/static/images/task_images/rocket-09.jpg"",""time"":7207}]",[],24,,,,,,,,,,,,,,
alien_welcome,419,1064288,0.0-121.0-1.0,,null,run_exp/static/images/task_images/aliens/old_aliens/planet/alien_planet-10.jpg,null,,,,,,,,,,,,10,"77,60,29,22,26,2,52,32,24,35,40,65,9,44,64,11,25,48,54,76,57,46,4,41,10,56,8,39,13,20,15,73,58,43,6,61,72,38,80,53,1,67",,,,,,,,,,
land,420,1064807,0.0-121.0-2.0,,null,run_exp/static/images/task_images/land.jpg,null,,,,,,105,,,25,,,,,,,,,,,,,,
dig,421,1066847,0.0-121.0-3.0,,,,,,,,,,,"[{""stimulus"":""run_exp/static/images/task_images/dig.jpg"",""time"":0},{""stimulus"":""run_exp/static/images/task_images/land.jpg"",""time"":676},{""stimulus"":""run_exp/static/images/task_images/dig.jpg"",""time"":1356}]",[],25,,,,,,,,,,,,,,
harvest,422,1067868,0.0-121.0-4.0,,null,run_exp/static/images/task_images/gems/105.jpg,null,,,,,,55,,,25,,,,,105,0.52497746,0.523809524,,,,,,,
decision,423,1068809,0.0-121.0-5.0,,940,run_exp/static/images/task_images/land.jpg,65,,,,,,55,,,25,,,,,,,,102096,3,0,FALSE,,,
