trial_type,trial_index,time_elapsed,internal_node_id,interactions,blur_events,focus_events,fullscreenenter_events,fullscreenexit_events,success,rt,stimulus,key_press,prompt,subject_id,participant_id,age,gender,button_pressed,next_reward,animation_sequence,responses,planet,curr_prac_trial,n_prac_rounds,alien,aliens,reward_received,decay_rate_actual,decay_rate_exp,time_in_block,block_num,prt,last_trial_on_planet,button_html,bonus,num_failures
pavlovia,0,77,0.0-0.0,"""event"",""trial"",""time""
""fullscreenenter"",""1"",""3822""
","
","
","""event"",""trial"",""time""
""fullscreenenter"",""1"",""3822""
","
",,,,,,,,,,,,,,,,,,,,,,,,,,,,
fullscreen,1,4791,0.0-1.0,"""event"",""trial"",""time""
""fullscreenenter"",""1"",""3822""
","
","
","""event"",""trial"",""time""
""fullscreenenter"",""1"",""3822""
","
",TRUE,,,,,,,,,,,,,,,,,,,,,,,,,,,
instruc_welcome,2,14811,0.0-2.0,"""event"",""trial"",""time""
""fullscreenenter"",""1"",""3822""
","
","
","""event"",""trial"",""time""
""fullscreenenter"",""1"",""3822""
","
",,null,run_exp/static/audio/clip_1_welcome.m4a,null,"<p>Howdy! In this experiment, you’ll be an explorer traveling through space to collect space treasure.</p><p>Your mission is to collect as much treasure as possible.</p><br><br><p><img src='run_exp/static/images/task_images/opening_img-01.jpg' height='300' width='auto'></p>",9354,1299,12.88,Male,,,,,,,,,,,,,,,,,,,
audio-keyboard-response,3,31471,0.0-3.0,"""event"",""trial"",""time""
""fullscreenenter"",""1"",""3822""
","
","
","""event"",""trial"",""time""
""fullscreenenter"",""1"",""3822""
","
",,null,run_exp/static/audio/clip_2_move.m4a,null,,,,,,,,,,,,,,,,,,,,,,,,
welcome_dec,4,32557,0.0-4.0,"""event"",""trial"",""time""
""fullscreenenter"",""1"",""3822""
","
","
","""event"",""trial"",""time""
""fullscreenenter"",""1"",""3822""
","
",,1083,"<p>Howdy! In this experiment, you’ll be an explorer traveling through space to collect space treasure.</p><p>Your mission is to collect as much treasure as possible.</p><br><br><p><img src='run_exp/static/images/task_images/opening_img-01.jpg' height='300' width='auto'></p>",,,,,,,1,,,,,,,,,,,,,,,,,,
html-keyboard-response,5,41225,0.0-5.0,"""event"",""trial"",""time""
""fullscreenenter"",""1"",""3822""
","
","
","""event"",""trial"",""time""
""fullscreenenter"",""1"",""3822""
","
",,8664.8,"<p>Howdy! In this experiment, you’ll be an explorer traveling through space to collect space treasure.</p><p>Your mission is to collect as much treasure as possible.</p><br><br><p><img src='run_exp/static/images/task_images/opening_img-01.jpg' height='300' width='auto'></p><button class=""jspsych-html-btn-unchosen""><img src=""run_exp/static/images/task_images/planet-01.jpg"" height=""50""></button><button class=""jspsych-html-btn-chosen""><img src=""run_exp/static/images/task_images/planet-02.jpg"" height=""50""></button><p><b>[press the space bar to lock in your answer]<b><br></p>",32,,,,,,,,,,,,,,,,,,,,,,,,
instruc_goal,6,51332,0.0-6.0-0.0,"""event"",""trial"",""time""
""fullscreenenter"",""1"",""3822""
","
","
","""event"",""trial"",""time""
""fullscreenenter"",""1"",""3822""
","
",,null,run_exp/static/audio/clip_3_goal.m4a,null,"<p> As a space explorer, you’ll visit different planets to dig for space treasure, these pink gems.</p> <p> The more treasure you dig up, the more bonus money you’ll win! </p><br><br><p><img src='run_exp/static/images/task_images/pink_gem.jpg' height='300' width='auto'></p>",,,,,,,,,,,,,,,,,,,,,,,
instruc_goal,7,55627,0.0-6.0-1.0,"""event"",""trial"",""time""
""fullscreenenter"",""1"",""3822""
","
","
","""event"",""trial"",""time""
""fullscreenenter"",""1"",""3822""
","
",,4293.9,"<p> As a space explorer, you’ll visit different planets to dig for space treasure, these pink gems.</p> <p> The more treasure you dig up, the more bonus money you’ll win! </p><br><br><p><img src='run_exp/static/images/task_images/pink_gem.jpg' height='300' width='auto'></p>",,,,,,,1,,,,,,,,,,,,,,,,,,
html-keyboard-response,8,58108,0.0-6.0-2.0,"""event"",""trial"",""time""
""fullscreenenter"",""1"",""3822""
","
","
","""event"",""trial"",""time""
""fullscreenenter"",""1"",""3822""
","
",,2478.7,"<p> As a space explorer, you’ll visit different planets to dig for space treasure, these pink gems.</p> <p> The more treasure you dig up, the more bonus money you’ll win! </p><br><br><p><img src='run_exp/static/images/task_images/pink_gem.jpg' height='300' width='auto'></p><button class=""jspsych-html-btn-unchosen""><img src=""run_exp/static/images/task_images/planet-01.jpg"" height=""50""></button><button class=""jspsych-html-btn-chosen""><img src=""run_exp/static/images/task_images/planet-02.jpg"" height=""50""></button><p><b>[press the space bar to lock in your answer]<b><br></p>",32,,,,,,,,,,,,,,,,,,,,,,,,
instruc_dig,9,74159,0.0-7.0-0.0,"""event"",""trial"",""time""
""fullscreenenter"",""1"",""3822""
","
","
","""event"",""trial"",""time""
""fullscreenenter"",""1"",""3822""
","
",,null,run_exp/static/audio/clip_4_dig.m4a,null,,,,,,,100,,,,,,,,,,,,,,,,,
instruc_dig_try,10,74879,0.0-7.0-1.0,"""event"",""trial"",""time""
""fullscreenenter"",""1"",""3822""
","
","
","""event"",""trial"",""time""
""fullscreenenter"",""1"",""3822""
","
",,718.3,"<p> When you’ve arrived at a new planet, you will dig once. </p> <p>Then, you get to decide if you want to stay on the planet and dig again or travel to a new planet and dig there.</p> <p> To stay and dig, press the letter <strong>‘A’</strong> on your keyboard. Try pressing it now! </p><p><img src='run_exp/static/images/task_images/land.jpg'  height='700' width='auto'></p>",65,"<p> When you’ve arrived at a new planet, you will dig once. </p> <p>Then, you get to decide if you want to stay on the planet and dig again or travel to a new planet and dig there.</p> <p> To stay and dig, press the letter <strong>‘A’</strong> on your keyboard. Try pressing it now! </p><p><img src='run_exp/static/images/task_images/land.jpg'  height='700' width='auto'></p>",,,,,,100,,,,,,,,,,,,,,,,,
dig_prac,11,76894,0.0-7.0-2.0,"""event"",""trial"",""time""
""fullscreenenter"",""1"",""3822""
","
","
","""event"",""trial"",""time""
""fullscreenenter"",""1"",""3822""
","
",,,,,,,,,,,,"[{""stimulus"":""run_exp/static/images/task_images/dig.jpg"",""time"":0.5},{""stimulus"":""run_exp/static/images/task_images/land.jpg"",""time"":677.1999999880791},{""stimulus"":""run_exp/static/images/task_images/dig.jpg"",""time"":1341.8999999761581}]",[],,,,,,,,,,,,,,,
instruc_travel,12,113154,0.0-7.0-3.0,"""event"",""trial"",""time""
""fullscreenenter"",""1"",""3822""
","
","
","""event"",""trial"",""time""
""fullscreenenter"",""1"",""3822""
","
",,null,run_exp/static/audio/clip_5_travel.m4a,null,"<p>Every time you dig up gems, there are less gems on the planet, so the more you dig on a planet the fewer gems you’ll get with each dig.</p><p>When gems are running low, you may want to travel to a new planet. </p> <p>  Planets are very far apart in this galaxy, so it will take some time to travel between them. </p> <br><p>There are lots and lots of planets for you to visit, so you won’t be able to return to any planets you’ve seen before. </p><br><p>To leave this planet and travel to a new one, press the letter <strong>‘L’</strong> on your keyboard. Try pressing it now! </p><p><img src='run_exp/static/images/task_images/rocket-01.jpg'  height='600' width='auto'></p>",,,,,,,,,,,,,,,,,,,,,,,
instruc_travel_try,13,114110,0.0-7.0-4.0,"""event"",""trial"",""time""
""fullscreenenter"",""1"",""3822""
","
","
","""event"",""trial"",""time""
""fullscreenenter"",""1"",""3822""
","
",,954.4,"<p>Every time you dig up gems, there are less gems on the planet, so the more you dig on a planet the fewer gems you’ll get with each dig.</p><p>When gems are running low, you may want to travel to a new planet. </p> <p>  Planets are very far apart in this galaxy, so it will take some time to travel between them. </p> <br><p>There are lots and lots of planets for you to visit, so you won’t be able to return to any planets you’ve seen before. </p><br><p>To leave this planet and travel to a new one, press the letter <strong>‘L’</strong> on your keyboard. Try pressing it now! </p><p><img src='run_exp/static/images/task_images/rocket-01.jpg'  height='600' width='auto'></p>",76,"<p>Every time you dig up gems, there are less gems on the planet, so the more you dig on a planet the fewer gems you’ll get with each dig.</p><p>When gems are running low, you may want to travel to a new planet. </p> <p>  Planets are very far apart in this galaxy, so it will take some time to travel between them. </p> <br><p>There are lots and lots of planets for you to visit, so you won’t be able to return to any planets you’ve seen before. </p><br><p>To leave this planet and travel to a new one, press the letter <strong>‘L’</strong> on your keyboard. Try pressing it now! </p><p><img src='run_exp/static/images/task_images/rocket-01.jpg'  height='600' width='auto'></p>",,,,,,,,,,,,,,,,,,,,,,,
travel_prac,14,124116,0.0-7.0-5.0,"""event"",""trial"",""time""
""fullscreenenter"",""1"",""3822""
","
","
","""event"",""trial"",""time""
""fullscreenenter"",""1"",""3822""
","
",,,,,,,,,,,,"[{""stimulus"":""run_exp/static/images/task_images/rocket-01.jpg"",""time"":0.3999999761581421},{""stimulus"":""run_exp/static/images/task_images/rocket-02.jpg"",""time"":1120.8999999761581},{""stimulus"":""run_exp/static/images/task_images/rocket-03.jpg"",""time"":2225.699999988079},{""stimulus"":""run_exp/static/images/task_images/rocket-04.jpg"",""time"":3341.399999976158},{""stimulus"":""run_exp/static/images/task_images/rocket-05.jpg"",""time"":4453.800000011921},{""stimulus"":""run_exp/static/images/task_images/rocket-06.jpg"",""time"":5565.100000023842},{""stimulus"":""run_exp/static/images/task_images/rocket-07.jpg"",""time"":6669.199999988079},{""stimulus"":""run_exp/static/images/task_images/rocket-08.jpg"",""time"":7782.600000023842},{""stimulus"":""run_exp/static/images/task_images/rocket-09.jpg"",""time"":8894.800000011921}]",[],0,,,,,,,,,,,,,,
instruc_alien_greet,15,151361,0.0-7.0-6.0,"""event"",""trial"",""time""
""fullscreenenter"",""1"",""3822""
","
","
","""event"",""trial"",""time""
""fullscreenenter"",""1"",""3822""
","
",,null,run_exp/static/audio/clip_6_alien.m4a,null,"<p>When you arrive at a new planet, the alien who owns the treasure mine on that planet will greet you!</p><p>The better an alien takes care of their mine the easier it is to dig for gems. Some aliens take better care of their mine than others. So, you won’t get exactly the same amount of gems on each planet.</p><p>What the alien looks like does not tell you anything about how many gems there are on the planet.</p><br><p><img src=""run_exp/static/images/task_images/aliens/instructions_aliens/planet/alien_planet-1.jpg""  height=""600"" width=""auto""></p>",,,,,,,,,,,,,,,,,,,,,,,
instruc_alien_greet,16,154954,0.0-7.0-7.0,"""event"",""trial"",""time""
""fullscreenenter"",""1"",""3822""
","
","
","""event"",""trial"",""time""
""fullscreenenter"",""1"",""3822""
","
",,3591,"<p>When you arrive at a new planet, the alien who owns the treasure mine on that planet will greet you!</p><p>The better an alien takes care of their mine the easier it is to dig for gems. Some aliens take better care of their mine than others. So, you won’t get exactly the same amount of gems on each planet.</p><p>What the alien looks like does not tell you anything about how many gems there are on the planet.</p><br><p><img src=""run_exp/static/images/task_images/aliens/instructions_aliens/planet/alien_planet-1.jpg""  height=""600"" width=""auto""></p>",,,,,,,1,,,,,,,,,,,,,,,,,,
html-keyboard-response,17,156928,0.0-7.0-8.0,"""event"",""trial"",""time""
""fullscreenenter"",""1"",""3822""
","
","
","""event"",""trial"",""time""
""fullscreenenter"",""1"",""3822""
","
",,1973,"<p>When you arrive at a new planet, the alien who owns the treasure mine on that planet will greet you!</p><p>The better an alien takes care of their mine the easier it is to dig for gems. Some aliens take better care of their mine than others. So, you won’t get exactly the same amount of gems on each planet.</p><p>What the alien looks like does not tell you anything about how many gems there are on the planet.</p><br><p><img src=""run_exp/static/images/task_images/aliens/instructions_aliens/planet/alien_planet-1.jpg""  height=""600"" width=""auto""></p><button class=""jspsych-html-btn-unchosen""><img src=""run_exp/static/images/task_images/planet-01.jpg"" height=""50""></button><button class=""jspsych-html-btn-chosen""><img src=""run_exp/static/images/task_images/planet-02.jpg"" height=""50""></button><p><b>[press the space bar to lock in your answer]<b><br></p>",32,,,,,,,,,,,,,,,,,,,,,,,,
time_out,18,168043,0.0-8.0-0.0,"""event"",""trial"",""time""
""fullscreenenter"",""1"",""3822""
","
","
","""event"",""trial"",""time""
""fullscreenenter"",""1"",""3822""
","
",,null,run_exp/static/audio/clip_7_timeout.m4a,null,"<p>If you don't make your choice fast enough, you’ll have to wait a few seconds before you can make another one.</p><p>You can’t dig for more gems or travel to new planets. You just have to sit and wait.</p><br><p><img src='run_exp/static/images/task_images/time_out.jpg'  height='600' width='auto'></p>",,,,,,,,,,,,,,,,,,,,,,,
time_out,19,170871,0.0-8.0-1.0,"""event"",""trial"",""time""
""fullscreenenter"",""1"",""3822""
","
","
","""event"",""trial"",""time""
""fullscreenenter"",""1"",""3822""
","
",,2826.3,"<p>If you don't make your choice fast enough, you’ll have to wait a few seconds before you can make another one.</p><p>You can’t dig for more gems or travel to new planets. You just have to sit and wait.</p><br><p><img src='run_exp/static/images/task_images/time_out.jpg'  height='600' width='auto'></p>",,,,,,,1,,,,,,,,,,,,,,,,,,
html-keyboard-response,20,171448,0.0-8.0-2.0,"""event"",""trial"",""time""
""fullscreenenter"",""1"",""3822""
","
","
","""event"",""trial"",""time""
""fullscreenenter"",""1"",""3822""
","
",,575.5,"<p>If you don't make your choice fast enough, you’ll have to wait a few seconds before you can make another one.</p><p>You can’t dig for more gems or travel to new planets. You just have to sit and wait.</p><br><p><img src='run_exp/static/images/task_images/time_out.jpg'  height='600' width='auto'></p><button class=""jspsych-html-btn-unchosen""><img src=""run_exp/static/images/task_images/planet-01.jpg"" height=""50""></button><button class=""jspsych-html-btn-chosen""><img src=""run_exp/static/images/task_images/planet-02.jpg"" height=""50""></button><p><b>[press the space bar to lock in your answer]<b><br></p>",32,,,,,,,,,,,,,,,,,,,,,,,,
instruc_break,21,187157,0.0-9.0-0.0,"""event"",""trial"",""time""
""fullscreenenter"",""1"",""3822""
","
","
","""event"",""trial"",""time""
""fullscreenenter"",""1"",""3822""
","
",,null,run_exp/static/audio/clip_8_break.m4a,null,"<p> After digging and traveling for a while, you’ll be able to take a break at home base. </p><p>The game will last 20 minutes no matter what.</p><p>You will visit home base every 5 minutes, so, you will visit home base three times during the game.</p><br><p><img src='run_exp/static/images/task_images/home_base.jpg' height='600' width='auto'></p>",,,,,,,,,,,,,,,,,,,,,,,
instruc_break,22,192873,0.0-9.0-1.0,"""event"",""trial"",""time""
""fullscreenenter"",""1"",""3822""
","
","
","""event"",""trial"",""time""
""fullscreenenter"",""1"",""3822""
","
",,5714.2,"<p> After digging and traveling for a while, you’ll be able to take a break at home base. </p><p>The game will last 20 minutes no matter what.</p><p>You will visit home base every 5 minutes, so, you will visit home base three times during the game.</p><br><p><img src='run_exp/static/images/task_images/home_base.jpg' height='600' width='auto'></p>",,,,,,,1,,,,,,,,,,,,,,,,,,
html-keyboard-response,23,193286,0.0-9.0-2.0,"""event"",""trial"",""time""
""fullscreenenter"",""1"",""3822""
","
","
","""event"",""trial"",""time""
""fullscreenenter"",""1"",""3822""
","
",,412,"<p> After digging and traveling for a while, you’ll be able to take a break at home base. </p><p>The game will last 20 minutes no matter what.</p><p>You will visit home base every 5 minutes, so, you will visit home base three times during the game.</p><br><p><img src='run_exp/static/images/task_images/home_base.jpg' height='600' width='auto'></p><button class=""jspsych-html-btn-unchosen""><img src=""run_exp/static/images/task_images/planet-01.jpg"" height=""50""></button><button class=""jspsych-html-btn-chosen""><img src=""run_exp/static/images/task_images/planet-02.jpg"" height=""50""></button><p><b>[press the space bar to lock in your answer]<b><br></p>",32,,,,,,,,,,,,,,,,,,,,,,,,
instruc_prac_game,24,203456,0.0-10.0-0.0,"""event"",""trial"",""time""
""fullscreenenter"",""1"",""3822""
","
","
","""event"",""trial"",""time""
""fullscreenenter"",""1"",""3822""
","
",,null,run_exp/static/audio/clip_9_practice.m4a,null,"<p> Are you ready to play a practice game? </p> <p>In this practice game, you'll be digging up barrels of gems. But, in the real game, you'll be digging up the gems themselves. </p>",,,,,,,,,,,,,,,,,,,,,,,
html-button-response,25,231504,0.0-10.0-1.0,"""event"",""trial"",""time""
""fullscreenenter"",""1"",""3822""
","
","
","""event"",""trial"",""time""
""fullscreenenter"",""1"",""3822""
","
",,28046.2,"<p> Are you ready to play a practice game? </p> <p>In this practice game, you'll be digging up barrels of gems. But, in the real game, you'll be digging up the gems themselves. </p>",,,,,,,0,,,,,,,,,,,,,,,,,,
alien_welcome_prac,26,236512,0.0-11.0-0.0,"""event"",""trial"",""time""
""fullscreenenter"",""1"",""3822""
","
","
","""event"",""trial"",""time""
""fullscreenenter"",""1"",""3822""
","
",,null,run_exp/static/images/task_images/aliens/practice_aliens/planet/alien_planet-5.jpg,null,,,,,,,,,,,,,,,,,,,,,,,,
land_prac,27,237021,0.0-11.0-1.0,"""event"",""trial"",""time""
""fullscreenenter"",""1"",""3822""
","
","
","""event"",""trial"",""time""
""fullscreenenter"",""1"",""3822""
","
",,null,run_exp/static/images/task_images/land.jpg,null,,,,,,,98,,,0,,,,,,,,,,,,,,
dig_prac,28,239029,0.0-11.0-2.0,"""event"",""trial"",""time""
""fullscreenenter"",""1"",""3822""
","
","
","""event"",""trial"",""time""
""fullscreenenter"",""1"",""3822""
","
",,,,,,,,,,,,"[{""stimulus"":""run_exp/static/images/task_images/dig.jpg"",""time"":0.3999999761581421},{""stimulus"":""run_exp/static/images/task_images/land.jpg"",""time"":669.3000000119209},{""stimulus"":""run_exp/static/images/task_images/dig.jpg"",""time"":1339.8999999761581}]",[],,,,,,,,,,,,,,,
harvest_prac,29,240034,0.0-11.0-3.0,"""event"",""trial"",""time""
""fullscreenenter"",""1"",""3822""
","
","
","""event"",""trial"",""time""
""fullscreenenter"",""1"",""3822""
","
",,null,run_exp/static/images/task_images/barrel_text.jpg,null,,,,,,,,,,,,,,,,,,,,,,,,
decision_prac,30,243048,0.0-11.0-4.0,"""event"",""trial"",""time""
""fullscreenenter"",""1"",""3822""
","
","
","""event"",""trial"",""time""
""fullscreenenter"",""1"",""3822""
","
",,null,run_exp/static/images/task_images/land.jpg,null,,,,,,,,,,,1,,,,,,,,,,,,,
time_out,31,245059,0.0-12.0-0.0,"""event"",""trial"",""time""
""fullscreenenter"",""1"",""3822""
","
","
","""event"",""trial"",""time""
""fullscreenenter"",""1"",""3822""
","
",,null,run_exp/static/images/task_images/time_out.jpg,null,,,,,,,,,,,,,,,,,,,,,,,,
decision_prac,32,245329,0.0-12.0-1.0,"""event"",""trial"",""time""
""fullscreenenter"",""1"",""3822""
","
","
","""event"",""trial"",""time""
""fullscreenenter"",""1"",""3822""
","
",,266.7,run_exp/static/images/task_images/land.jpg,65,,,,,,,,,,,2,,,,,,,,,,,,,
dig_prac,33,247342,0.0-13.0-0.0,"""event"",""trial"",""time""
""fullscreenenter"",""1"",""3822""
","
","
","""event"",""trial"",""time""
""fullscreenenter"",""1"",""3822""
","
",,,,,,,,,,,,"[{""stimulus"":""run_exp/static/images/task_images/dig.jpg"",""time"":0.09999996423721313},{""stimulus"":""run_exp/static/images/task_images/land.jpg"",""time"":672.6999999880791},{""stimulus"":""run_exp/static/images/task_images/dig.jpg"",""time"":1344}]",[],,,,,,,,,,,,,,,
harvest_prac,34,248348,0.0-13.0-1.0,"""event"",""trial"",""time""
""fullscreenenter"",""1"",""3822""
","
","
","""event"",""trial"",""time""
""fullscreenenter"",""1"",""3822""
","
",,null,run_exp/static/images/task_images/barrel_text.jpg,null,,,,,,,,,,,,,,,,,,,,,,,,
decision_prac,35,251351,0.0-13.0-2.0,"""event"",""trial"",""time""
""fullscreenenter"",""1"",""3822""
","
","
","""event"",""trial"",""time""
""fullscreenenter"",""1"",""3822""
","
",,null,run_exp/static/images/task_images/land.jpg,null,,,,,,,,,,,3,,,,,,,,,,,,,
time_out,36,253363,0.0-14.0-0.0,"""event"",""trial"",""time""
""fullscreenenter"",""1"",""3822""
","
","
","""event"",""trial"",""time""
""fullscreenenter"",""1"",""3822""
","
",,null,run_exp/static/images/task_images/time_out.jpg,null,,,,,,,,,,,,,,,,,,,,,,,,
decision_prac,37,253616,0.0-14.0-1.0,"""event"",""trial"",""time""
""fullscreenenter"",""1"",""3822""
","
","
","""event"",""trial"",""time""
""fullscreenenter"",""1"",""3822""
","
",,251.3,run_exp/static/images/task_images/land.jpg,65,,,,,,,,,,,4,,,,,,,,,,,,,
dig_prac,38,255627,0.0-15.0-0.0,"""event"",""trial"",""time""
""fullscreenenter"",""1"",""3822""
","
","
","""event"",""trial"",""time""
""fullscreenenter"",""1"",""3822""
","
",,,,,,,,,,,,"[{""stimulus"":""run_exp/static/images/task_images/dig.jpg"",""time"":0.19999998807907104},{""stimulus"":""run_exp/static/images/task_images/land.jpg"",""time"":673.0999999642372},{""stimulus"":""run_exp/static/images/task_images/dig.jpg"",""time"":1339.699999988079}]",[],,,,,,,,,,,,,,,
harvest_prac,39,256628,0.0-15.0-1.0,"""event"",""trial"",""time""
""fullscreenenter"",""1"",""3822""
","
","
","""event"",""trial"",""time""
""fullscreenenter"",""1"",""3822""
","
",,null,run_exp/static/images/task_images/barrel_text.jpg,null,,,,,,,,,,,,,,,,,,,,,,,,
decision_prac,40,259639,0.0-15.0-2.0,"""event"",""trial"",""time""
""fullscreenenter"",""1"",""3822""
","
","
","""event"",""trial"",""time""
""fullscreenenter"",""1"",""3822""
","
",,null,run_exp/static/images/task_images/land.jpg,null,,,,,,,,,,,,1,,,,,,,,,,,,
quiz_instruc,41,275137,0.0-16.0-0.0,"""event"",""trial"",""time""
""fullscreenenter"",""1"",""3822""
""blur"",""42"",""275585""
""focus"",""42"",""276542""
""blur"",""42"",""276571""
""focus"",""42"",""277044""
","""event"",""trial"",""time""
""blur"",""42"",""275585""
""blur"",""42"",""276571""
","""event"",""trial"",""time""
""focus"",""42"",""276542""
""focus"",""42"",""277044""
","""event"",""trial"",""time""
""fullscreenenter"",""1"",""3822""
","
",,15492.5,run_exp/static/audio/clip_10_quiz.m4a,,,,,,,0,,,,,,,,,,,,,,,,,,
instruc_repeat,42,317955,0.0-16.0-1.0,"""event"",""trial"",""time""
""fullscreenenter"",""1"",""3822""
""blur"",""42"",""275585""
""focus"",""42"",""276542""
""blur"",""42"",""276571""
""focus"",""42"",""277044""
","""event"",""trial"",""time""
""blur"",""42"",""275585""
""blur"",""42"",""276571""
","""event"",""trial"",""time""
""focus"",""42"",""276542""
""focus"",""42"",""277044""
","""event"",""trial"",""time""
""fullscreenenter"",""1"",""3822""
","
",,null,"<p> Are you ready to play a practice game? </p> <p>In this practice game, you'll be digging up barrels of gems. But, in the real game, you'll be digging up the gems themselves. </p>",null,"<p>In this game, your goal is to collect as many gems as you can. That’s how you will win bonus money. </p> <p>The entire game will last 20 minutes no matter how many gems you collect or how many planets you visit. </p><p>To stay on a planet and dig again, press the letter A on your keyboard. To leave for a new planet, press the letter L.</p><p>The more you dig on a planet, the fewer gems you’ll get with each dig which is why you might consider leaving for a new planet. </p><p>When you arrive at a new planet, you’ll be greeted by an alien. What the alien looks like does not tell you anything about how much treasure is on the planet. </p>",,,,,,,,,,,,,,,,,,,,,,,
instruc_repeat_continue,43,319209,0.0-16.0-2.0,"""event"",""trial"",""time""
""fullscreenenter"",""1"",""3822""
""blur"",""42"",""275585""
""focus"",""42"",""276542""
""blur"",""42"",""276571""
""focus"",""42"",""277044""
","""event"",""trial"",""time""
""blur"",""42"",""275585""
""blur"",""42"",""276571""
","""event"",""trial"",""time""
""focus"",""42"",""276542""
""focus"",""42"",""277044""
","""event"",""trial"",""time""
""fullscreenenter"",""1"",""3822""
","
",,1251.8,"<p> Are you ready to play a practice game? </p> <p>In this practice game, you'll be digging up barrels of gems. But, in the real game, you'll be digging up the gems themselves. </p>",,,,,,,0,,,,,,,,,,,,,,,,,,
quiz_q_1_ask,44,324341,0.0-16.0-3.0,"""event"",""trial"",""time""
""fullscreenenter"",""1"",""3822""
""blur"",""42"",""275585""
""focus"",""42"",""276542""
""blur"",""42"",""276571""
""focus"",""42"",""277044""
","""event"",""trial"",""time""
""blur"",""42"",""275585""
""blur"",""42"",""276571""
","""event"",""trial"",""time""
""focus"",""42"",""276542""
""focus"",""42"",""277044""
","""event"",""trial"",""time""
""fullscreenenter"",""1"",""3822""
","
",,5130.7,run_exp/static/audio/clip_11_q1_ask.m4a,,,,,,,2,,,,,,,,,,,,,,,,,,
quiz_q_1_fb_correct,45,328195,0.0-17.0-0.0,"""event"",""trial"",""time""
""fullscreenenter"",""1"",""3822""
""blur"",""42"",""275585""
""focus"",""42"",""276542""
""blur"",""42"",""276571""
""focus"",""42"",""277044""
","""event"",""trial"",""time""
""blur"",""42"",""275585""
""blur"",""42"",""276571""
","""event"",""trial"",""time""
""focus"",""42"",""276542""
""focus"",""42"",""277044""
","""event"",""trial"",""time""
""fullscreenenter"",""1"",""3822""
","
",,null,run_exp/static/audio/clip_12_q1_correct.m4a,null,<p>That’s correct. You win extra money by collecting more gems.</p>,,,,,,,,,,,,,,,,,,,,,,,
quiz_q_2_ask,46,333971,0.0-17.0-1.0,"""event"",""trial"",""time""
""fullscreenenter"",""1"",""3822""
""blur"",""42"",""275585""
""focus"",""42"",""276542""
""blur"",""42"",""276571""
""focus"",""42"",""277044""
","""event"",""trial"",""time""
""blur"",""42"",""275585""
""blur"",""42"",""276571""
","""event"",""trial"",""time""
""focus"",""42"",""276542""
""focus"",""42"",""277044""
","""event"",""trial"",""time""
""fullscreenenter"",""1"",""3822""
","
",,5773.6,run_exp/static/audio/clip_14_q2_ask.m4a,,,,,,,1,,,,,,,,,,,,,,,,,,
quiz_q_2_fb_correct,47,338007,0.0-18.0-0.0,"""event"",""trial"",""time""
""fullscreenenter"",""1"",""3822""
""blur"",""42"",""275585""
""focus"",""42"",""276542""
""blur"",""42"",""276571""
""focus"",""42"",""277044""
","""event"",""trial"",""time""
""blur"",""42"",""275585""
""blur"",""42"",""276571""
","""event"",""trial"",""time""
""focus"",""42"",""276542""
""focus"",""42"",""277044""
","""event"",""trial"",""time""
""fullscreenenter"",""1"",""3822""
","
",,null,run_exp/static/audio/clip_15_q2_correct.m4a,null,<p>That’s correct. The experiment is 20 minutes no matter what.</p>,,,,,,,,,,,,,,,,,,,,,,,
quiz_q_3_ask,48,345044,0.0-18.0-1.0,"""event"",""trial"",""time""
""fullscreenenter"",""1"",""3822""
""blur"",""42"",""275585""
""focus"",""42"",""276542""
""blur"",""42"",""276571""
""focus"",""42"",""277044""
","""event"",""trial"",""time""
""blur"",""42"",""275585""
""blur"",""42"",""276571""
","""event"",""trial"",""time""
""focus"",""42"",""276542""
""focus"",""42"",""277044""
","""event"",""trial"",""time""
""fullscreenenter"",""1"",""3822""
","
",,7034.9,run_exp/static/audio/clip_17_q3_ask.m4a,,,,,,,1,,,,,,,,,,,,,,,,,,
quiz_q_3_fb_correct,49,349058,0.0-19.0-0.0,"""event"",""trial"",""time""
""fullscreenenter"",""1"",""3822""
""blur"",""42"",""275585""
""focus"",""42"",""276542""
""blur"",""42"",""276571""
""focus"",""42"",""277044""
","""event"",""trial"",""time""
""blur"",""42"",""275585""
""blur"",""42"",""276571""
","""event"",""trial"",""time""
""focus"",""42"",""276542""
""focus"",""42"",""277044""
","""event"",""trial"",""time""
""fullscreenenter"",""1"",""3822""
","
",,null,run_exp/static/audio/clip_18_q3_correct.m4a,null,<p> That’s correct. You press the letter L to travel to a new planet.</p>,,,,,,,,,,,,,,,,,,,,,,,
quiz_q_4_ask,50,360789,0.0-19.0-1.0,"""event"",""trial"",""time""
""fullscreenenter"",""1"",""3822""
""blur"",""42"",""275585""
""focus"",""42"",""276542""
""blur"",""42"",""276571""
""focus"",""42"",""277044""
","""event"",""trial"",""time""
""blur"",""42"",""275585""
""blur"",""42"",""276571""
","""event"",""trial"",""time""
""focus"",""42"",""276542""
""focus"",""42"",""277044""
","""event"",""trial"",""time""
""fullscreenenter"",""1"",""3822""
","
",,11729.5,run_exp/static/audio/clip_20_q4_ask.m4a,,,,,,,1,,,,,,,,,,,,,,,,,,
quiz_q_4_fb_incorrect,51,366636,0.0-20.0-0.0,"""event"",""trial"",""time""
""fullscreenenter"",""1"",""3822""
""blur"",""42"",""275585""
""focus"",""42"",""276542""
""blur"",""42"",""276571""
""focus"",""42"",""277044""
","""event"",""trial"",""time""
""blur"",""42"",""275585""
""blur"",""42"",""276571""
","""event"",""trial"",""time""
""focus"",""42"",""276542""
""focus"",""42"",""277044""
","""event"",""trial"",""time""
""fullscreenenter"",""1"",""3822""
","
",,null,run_exp/static/audio/clip_22_q4_incorrect.m4a,null,<p>That’s incorrect.  The more you dig on a planet the fewer gems you’ll get with each dig.</p>,,,,,,,,,,,,,,,,,,,,,,,
quiz_q_5_ask,52,371629,0.0-20.0-1.0,"""event"",""trial"",""time""
""fullscreenenter"",""1"",""3822""
""blur"",""42"",""275585""
""focus"",""42"",""276542""
""blur"",""42"",""276571""
""focus"",""42"",""277044""
","""event"",""trial"",""time""
""blur"",""42"",""275585""
""blur"",""42"",""276571""
","""event"",""trial"",""time""
""focus"",""42"",""276542""
""focus"",""42"",""277044""
","""event"",""trial"",""time""
""fullscreenenter"",""1"",""3822""
","
",,4990.8,run_exp/static/audio/clip_23_q5_ask.m4a,,,,,,,1,,,,,,,,,,,,,,,,,,
quiz_q_5_fb_correct,53,376641,0.0-21.0-0.0,"""event"",""trial"",""time""
""fullscreenenter"",""1"",""3822""
""blur"",""42"",""275585""
""focus"",""42"",""276542""
""blur"",""42"",""276571""
""focus"",""42"",""277044""
","""event"",""trial"",""time""
""blur"",""42"",""275585""
""blur"",""42"",""276571""
","""event"",""trial"",""time""
""focus"",""42"",""276542""
""focus"",""42"",""277044""
","""event"",""trial"",""time""
""fullscreenenter"",""1"",""3822""
","
",,null,run_exp/static/audio/clip_24_q5_correct.m4a,null,<p> That’s correct. The alien tells you nothing about how much treasure is on the planet.</p>,,,,,,,,,,,,,,,,,,,,,,,
quiz_incorrect,54,382230,0.0-22.0-0.0,"""event"",""trial"",""time""
""fullscreenenter"",""1"",""3822""
""blur"",""42"",""275585""
""focus"",""42"",""276542""
""blur"",""42"",""276571""
""focus"",""42"",""277044""
","""event"",""trial"",""time""
""blur"",""42"",""275585""
""blur"",""42"",""276571""
","""event"",""trial"",""time""
""focus"",""42"",""276542""
""focus"",""42"",""277044""
","""event"",""trial"",""time""
""fullscreenenter"",""1"",""3822""
","
",,null,run_exp/static/audio/clip_27_incorrect_quiz.m4a,null,,,,,,,,,,,,,,,,,,,,,,,,
quiz_incorrect_continue,55,384402,0.0-22.0-1.0,"""event"",""trial"",""time""
""fullscreenenter"",""1"",""3822""
""blur"",""42"",""275585""
""focus"",""42"",""276542""
""blur"",""42"",""276571""
""focus"",""42"",""277044""
","""event"",""trial"",""time""
""blur"",""42"",""275585""
""blur"",""42"",""276571""
","""event"",""trial"",""time""
""focus"",""42"",""276542""
""focus"",""42"",""277044""
","""event"",""trial"",""time""
""fullscreenenter"",""1"",""3822""
","
",,2170.7,"<p>Oops, you missed some questions.</p><p>Now that you’ve heard the correct answers. Try the quiz again!</p>",,,,,,,0,,,,,,,,,,,,,,,,,,
quiz_q_1_ask,56,387830,0.0-22.0-2.0,"""event"",""trial"",""time""
""fullscreenenter"",""1"",""3822""
""blur"",""42"",""275585""
""focus"",""42"",""276542""
""blur"",""42"",""276571""
""focus"",""42"",""277044""
","""event"",""trial"",""time""
""blur"",""42"",""275585""
""blur"",""42"",""276571""
","""event"",""trial"",""time""
""focus"",""42"",""276542""
""focus"",""42"",""277044""
","""event"",""trial"",""time""
""fullscreenenter"",""1"",""3822""
","
",,3427,run_exp/static/audio/clip_11_q1_ask.m4a,,,,,,,2,,,,,,,,,,,,,,,,,,
quiz_q_1_fb_correct,57,391681,0.0-23.0-0.0,"""event"",""trial"",""time""
""fullscreenenter"",""1"",""3822""
""blur"",""42"",""275585""
""focus"",""42"",""276542""
""blur"",""42"",""276571""
""focus"",""42"",""277044""
","""event"",""trial"",""time""
""blur"",""42"",""275585""
""blur"",""42"",""276571""
","""event"",""trial"",""time""
""focus"",""42"",""276542""
""focus"",""42"",""277044""
","""event"",""trial"",""time""
""fullscreenenter"",""1"",""3822""
","
",,null,run_exp/static/audio/clip_12_q1_correct.m4a,null,<p>That’s correct. You win extra money by collecting more gems.</p>,,,,,,,,,,,,,,,,,,,,,,,
quiz_q_2_ask,58,393327,0.0-23.0-1.0,"""event"",""trial"",""time""
""fullscreenenter"",""1"",""3822""
""blur"",""42"",""275585""
""focus"",""42"",""276542""
""blur"",""42"",""276571""
""focus"",""42"",""277044""
","""event"",""trial"",""time""
""blur"",""42"",""275585""
""blur"",""42"",""276571""
","""event"",""trial"",""time""
""focus"",""42"",""276542""
""focus"",""42"",""277044""
","""event"",""trial"",""time""
""fullscreenenter"",""1"",""3822""
","
",,1643.4,run_exp/static/audio/clip_14_q2_ask.m4a,,,,,,,1,,,,,,,,,,,,,,,,,,
quiz_q_2_fb_correct,59,397355,0.0-24.0-0.0,"""event"",""trial"",""time""
""fullscreenenter"",""1"",""3822""
""blur"",""42"",""275585""
""focus"",""42"",""276542""
""blur"",""42"",""276571""
""focus"",""42"",""277044""
","""event"",""trial"",""time""
""blur"",""42"",""275585""
""blur"",""42"",""276571""
","""event"",""trial"",""time""
""focus"",""42"",""276542""
""focus"",""42"",""277044""
","""event"",""trial"",""time""
""fullscreenenter"",""1"",""3822""
","
",,null,run_exp/static/audio/clip_15_q2_correct.m4a,null,<p>That’s correct. The experiment is 20 minutes no matter what.</p>,,,,,,,,,,,,,,,,,,,,,,,
quiz_q_3_ask,60,400344,0.0-24.0-1.0,"""event"",""trial"",""time""
""fullscreenenter"",""1"",""3822""
""blur"",""42"",""275585""
""focus"",""42"",""276542""
""blur"",""42"",""276571""
""focus"",""42"",""277044""
","""event"",""trial"",""time""
""blur"",""42"",""275585""
""blur"",""42"",""276571""
","""event"",""trial"",""time""
""focus"",""42"",""276542""
""focus"",""42"",""277044""
","""event"",""trial"",""time""
""fullscreenenter"",""1"",""3822""
","
",,2986.9,run_exp/static/audio/clip_17_q3_ask.m4a,,,,,,,1,,,,,,,,,,,,,,,,,,
quiz_q_3_fb_correct,61,404330,0.0-25.0-0.0,"""event"",""trial"",""time""
""fullscreenenter"",""1"",""3822""
""blur"",""42"",""275585""
""focus"",""42"",""276542""
""blur"",""42"",""276571""
""focus"",""42"",""277044""
","""event"",""trial"",""time""
""blur"",""42"",""275585""
""blur"",""42"",""276571""
","""event"",""trial"",""time""
""focus"",""42"",""276542""
""focus"",""42"",""277044""
","""event"",""trial"",""time""
""fullscreenenter"",""1"",""3822""
","
",,null,run_exp/static/audio/clip_18_q3_correct.m4a,null,<p> That’s correct. You press the letter L to travel to a new planet.</p>,,,,,,,,,,,,,,,,,,,,,,,
quiz_q_4_ask,62,407648,0.0-25.0-1.0,"""event"",""trial"",""time""
""fullscreenenter"",""1"",""3822""
""blur"",""42"",""275585""
""focus"",""42"",""276542""
""blur"",""42"",""276571""
""focus"",""42"",""277044""
","""event"",""trial"",""time""
""blur"",""42"",""275585""
""blur"",""42"",""276571""
","""event"",""trial"",""time""
""focus"",""42"",""276542""
""focus"",""42"",""277044""
","""event"",""trial"",""time""
""fullscreenenter"",""1"",""3822""
","
",,3316.4,run_exp/static/audio/clip_20_q4_ask.m4a,,,,,,,0,,,,,,,,,,,,,,,,,,
quiz_q_4_fb_correct,63,412971,0.0-26.0-0.0,"""event"",""trial"",""time""
""fullscreenenter"",""1"",""3822""
""blur"",""42"",""275585""
""focus"",""42"",""276542""
""blur"",""42"",""276571""
""focus"",""42"",""277044""
","""event"",""trial"",""time""
""blur"",""42"",""275585""
""blur"",""42"",""276571""
","""event"",""trial"",""time""
""focus"",""42"",""276542""
""focus"",""42"",""277044""
","""event"",""trial"",""time""
""fullscreenenter"",""1"",""3822""
","
",,null,run_exp/static/audio/clip_21_q4_correct.m4a,null,<p> That’s correct. The more you dig on a planet the fewer gems you’ll get with each dig. </p>,,,,,,,,,,,,,,,,,,,,,,,
quiz_q_5_ask,64,417621,0.0-26.0-1.0,"""event"",""trial"",""time""
""fullscreenenter"",""1"",""3822""
""blur"",""42"",""275585""
""focus"",""42"",""276542""
""blur"",""42"",""276571""
""focus"",""42"",""277044""
","""event"",""trial"",""time""
""blur"",""42"",""275585""
""blur"",""42"",""276571""
","""event"",""trial"",""time""
""focus"",""42"",""276542""
""focus"",""42"",""277044""
","""event"",""trial"",""time""
""fullscreenenter"",""1"",""3822""
","
",,4647.1,run_exp/static/audio/clip_23_q5_ask.m4a,,,,,,,1,,,,,,,,,,,,,,,,,,
quiz_q_5_fb_correct,65,422635,0.0-27.0-0.0,"""event"",""trial"",""time""
""fullscreenenter"",""1"",""3822""
""blur"",""42"",""275585""
""focus"",""42"",""276542""
""blur"",""42"",""276571""
""focus"",""42"",""277044""
","""event"",""trial"",""time""
""blur"",""42"",""275585""
""blur"",""42"",""276571""
","""event"",""trial"",""time""
""focus"",""42"",""276542""
""focus"",""42"",""277044""
","""event"",""trial"",""time""
""fullscreenenter"",""1"",""3822""
","
",,null,run_exp/static/audio/clip_24_q5_correct.m4a,null,<p> That’s correct. The alien tells you nothing about how much treasure is on the planet.</p>,,,,,,,,,,,,,,,,,,,,,,,
quiz_correct,66,426090,0.0-28.0-0.0,"""event"",""trial"",""time""
""fullscreenenter"",""1"",""3822""
""blur"",""42"",""275585""
""focus"",""42"",""276542""
""blur"",""42"",""276571""
""focus"",""42"",""277044""
","""event"",""trial"",""time""
""blur"",""42"",""275585""
""blur"",""42"",""276571""
","""event"",""trial"",""time""
""focus"",""42"",""276542""
""focus"",""42"",""277044""
","""event"",""trial"",""time""
""fullscreenenter"",""1"",""3822""
","
",,null,run_exp/static/audio/clip_26_correct_quiz.m4a,null,,,,,,,,,,,,,,,,,,,,,,,,
quiz_correct_continue,67,427809,0.0-28.0-1.0,"""event"",""trial"",""time""
""fullscreenenter"",""1"",""3822""
""blur"",""42"",""275585""
""focus"",""42"",""276542""
""blur"",""42"",""276571""
""focus"",""42"",""277044""
","""event"",""trial"",""time""
""blur"",""42"",""275585""
""blur"",""42"",""276571""
","""event"",""trial"",""time""
""focus"",""42"",""276542""
""focus"",""42"",""277044""
","""event"",""trial"",""time""
""fullscreenenter"",""1"",""3822""
","
",,1717.3,<p>Good job! You're now ready to move on to the real game!</p>,,,,,,,0,,,,,,,,,,,,,,,,,,
audio-keyboard-response,68,437951,0.0-28.0-2.0,"""event"",""trial"",""time""
""fullscreenenter"",""1"",""3822""
""blur"",""42"",""275585""
""focus"",""42"",""276542""
""blur"",""42"",""276571""
""focus"",""42"",""277044""
","""event"",""trial"",""time""
""blur"",""42"",""275585""
""blur"",""42"",""276571""
","""event"",""trial"",""time""
""focus"",""42"",""276542""
""focus"",""42"",""277044""
","""event"",""trial"",""time""
""fullscreenenter"",""1"",""3822""
","
",,null,run_exp/static/audio/clip_28_real_game.m4a,null,,,,,,,,,,,,,,,,,,,,,,,,
instruc_begin_exp_contine,69,440645,0.0-28.0-3.0,"""event"",""trial"",""time""
""fullscreenenter"",""1"",""3822""
""blur"",""42"",""275585""
""focus"",""42"",""276542""
""blur"",""42"",""276571""
""focus"",""42"",""277044""
","""event"",""trial"",""time""
""blur"",""42"",""275585""
""blur"",""42"",""276571""
","""event"",""trial"",""time""
""focus"",""42"",""276542""
""focus"",""42"",""277044""
","""event"",""trial"",""time""
""fullscreenenter"",""1"",""3822""
","
",,2691.6,"<p>Now that you know how  to dig for space treasure and travel to new planets,you can start exploring! </p><p>Do you want to go over the instructions again or get started with the real game?</p>",,,,,,,1,,,,,,1,,,,,,,,,,,,
alien_welcome,70,445650,0.0-29.0-0.0,"""event"",""trial"",""time""
""fullscreenenter"",""1"",""3822""
""blur"",""42"",""275585""
""focus"",""42"",""276542""
""blur"",""42"",""276571""
""focus"",""42"",""277044""
","""event"",""trial"",""time""
""blur"",""42"",""275585""
""blur"",""42"",""276571""
","""event"",""trial"",""time""
""focus"",""42"",""276542""
""focus"",""42"",""277044""
","""event"",""trial"",""time""
""fullscreenenter"",""1"",""3822""
","
",,null,run_exp/static/images/task_images/aliens/old_aliens/planet/alien_planet-22.jpg,null,,,,,,,,,,,,,22,"22,37,12,23,21,20,31,71,49,41,24,46,14,30,59,10,47,63,36,9,75,60,17,58,77,73,5,35,64,70,61,76,19",,,,,,,,,,
land,71,446154,0.0-29.0-1.0,"""event"",""trial"",""time""
""fullscreenenter"",""1"",""3822""
""blur"",""42"",""275585""
""focus"",""42"",""276542""
""blur"",""42"",""276571""
""focus"",""42"",""277044""
","""event"",""trial"",""time""
""blur"",""42"",""275585""
""blur"",""42"",""276571""
","""event"",""trial"",""time""
""focus"",""42"",""276542""
""focus"",""42"",""277044""
","""event"",""trial"",""time""
""fullscreenenter"",""1"",""3822""
","
",,null,run_exp/static/images/task_images/land.jpg,null,,,,,,,96,,,1,,,,,,,,,,,,,,
dig,72,448160,0.0-29.0-2.0,"""event"",""trial"",""time""
""fullscreenenter"",""1"",""3822""
""blur"",""42"",""275585""
""focus"",""42"",""276542""
""blur"",""42"",""276571""
""focus"",""42"",""277044""
","""event"",""trial"",""time""
""blur"",""42"",""275585""
""blur"",""42"",""276571""
","""event"",""trial"",""time""
""focus"",""42"",""276542""
""focus"",""42"",""277044""
","""event"",""trial"",""time""
""fullscreenenter"",""1"",""3822""
","
",,,,,,,,,,,,"[{""stimulus"":""run_exp/static/images/task_images/dig.jpg"",""time"":0.5},{""stimulus"":""run_exp/static/images/task_images/land.jpg"",""time"":669.5},{""stimulus"":""run_exp/static/images/task_images/dig.jpg"",""time"":1344.3999999761581}]",[],1,,,,,,,,,,,,,,
harvest,73,449166,0.0-29.0-3.0,"""event"",""trial"",""time""
""fullscreenenter"",""1"",""3822""
""blur"",""42"",""275585""
""focus"",""42"",""276542""
""blur"",""42"",""276571""
""focus"",""42"",""277044""
","""event"",""trial"",""time""
""blur"",""42"",""275585""
""blur"",""42"",""276571""
","""event"",""trial"",""time""
""focus"",""42"",""276542""
""focus"",""42"",""277044""
","""event"",""trial"",""time""
""fullscreenenter"",""1"",""3822""
","
",,null,run_exp/static/images/task_images/gems/96.jpg,null,,,,,,,17,,,1,,,,,96,0.177916332,0.177083333,,,,,,,
decision,74,449286,0.0-29.0-4.0,"""event"",""trial"",""time""
""fullscreenenter"",""1"",""3822""
""blur"",""42"",""275585""
""focus"",""42"",""276542""
""blur"",""42"",""276571""
""focus"",""42"",""277044""
","""event"",""trial"",""time""
""blur"",""42"",""275585""
""blur"",""42"",""276571""
","""event"",""trial"",""time""
""focus"",""42"",""276542""
""focus"",""42"",""277044""
","""event"",""trial"",""time""
""fullscreenenter"",""1"",""3822""
","
",,115.7,run_exp/static/images/task_images/land.jpg,65,,,,,,,17,,,1,,,,,,,,8640,1,0,FALSE,,,
dig,75,452180,0.0-30.0-0.0,"""event"",""trial"",""time""
""fullscreenenter"",""1"",""3822""
""blur"",""42"",""275585""
""focus"",""42"",""276542""
""blur"",""42"",""276571""
""focus"",""42"",""277044""
","""event"",""trial"",""time""
""blur"",""42"",""275585""
""blur"",""42"",""276571""
","""event"",""trial"",""time""
""focus"",""42"",""276542""
""focus"",""42"",""277044""
","""event"",""trial"",""time""
""fullscreenenter"",""1"",""3822""
","
",,,,,,,,,,,,"[{""stimulus"":""run_exp/static/images/task_images/dig.jpg"",""time"":0.10000002384185791},{""stimulus"":""run_exp/static/images/task_images/land.jpg"",""time"":963.6000000238419},{""stimulus"":""run_exp/static/images/task_images/dig.jpg"",""time"":1930.199999988079}]",[],1,,,,,,,,,,,,,,
harvest,76,453183,0.0-30.0-1.0,"""event"",""trial"",""time""
""fullscreenenter"",""1"",""3822""
""blur"",""42"",""275585""
""focus"",""42"",""276542""
""blur"",""42"",""276571""
""focus"",""42"",""277044""
","""event"",""trial"",""time""
""blur"",""42"",""275585""
""blur"",""42"",""276571""
","""event"",""trial"",""time""
""focus"",""42"",""276542""
""focus"",""42"",""277044""
","""event"",""trial"",""time""
""fullscreenenter"",""1"",""3822""
","
",,null,run_exp/static/images/task_images/gems/17.jpg,null,,,,,,,3,,,1,,,,,17,0.160596129,0.176470588,,,,,,,
decision,77,453337,0.0-30.0-2.0,"""event"",""trial"",""time""
""fullscreenenter"",""1"",""3822""
""blur"",""42"",""275585""
""focus"",""42"",""276542""
""blur"",""42"",""276571""
""focus"",""42"",""277044""
","""event"",""trial"",""time""
""blur"",""42"",""275585""
""blur"",""42"",""276571""
","""event"",""trial"",""time""
""focus"",""42"",""276542""
""focus"",""42"",""277044""
","""event"",""trial"",""time""
""fullscreenenter"",""1"",""3822""
","
",,152.6,run_exp/static/images/task_images/land.jpg,65,,,,,,,3,,,1,,,,,,,,12691,1,1,FALSE,,,
dig,78,456196,0.0-31.0-0.0,"""event"",""trial"",""time""
""fullscreenenter"",""1"",""3822""
""blur"",""42"",""275585""
""focus"",""42"",""276542""
""blur"",""42"",""276571""
""focus"",""42"",""277044""
","""event"",""trial"",""time""
""blur"",""42"",""275585""
""blur"",""42"",""276571""
","""event"",""trial"",""time""
""focus"",""42"",""276542""
""focus"",""42"",""277044""
","""event"",""trial"",""time""
""fullscreenenter"",""1"",""3822""
","
",,,,,,,,,,,,"[{""stimulus"":""run_exp/static/images/task_images/dig.jpg"",""time"":0.19999998807907104},{""stimulus"":""run_exp/static/images/task_images/land.jpg"",""time"":957.8999999761581},{""stimulus"":""run_exp/static/images/task_images/dig.jpg"",""time"":1904.300000011921}]",[],1,,,,,,,,,,,,,,
harvest,79,457201,0.0-31.0-1.0,"""event"",""trial"",""time""
""fullscreenenter"",""1"",""3822""
""blur"",""42"",""275585""
""focus"",""42"",""276542""
""blur"",""42"",""276571""
""focus"",""42"",""277044""
","""event"",""trial"",""time""
""blur"",""42"",""275585""
""blur"",""42"",""276571""
","""event"",""trial"",""time""
""focus"",""42"",""276542""
""focus"",""42"",""277044""
","""event"",""trial"",""time""
""fullscreenenter"",""1"",""3822""
","
",,null,run_exp/static/images/task_images/gems/3.jpg,null,,,,,,,1,,,1,,,,,3,0.195819473,0.333333333,,,,,,,
decision,80,457363,0.0-31.0-2.0,"""event"",""trial"",""time""
""fullscreenenter"",""1"",""3822""
""blur"",""42"",""275585""
""focus"",""42"",""276542""
""blur"",""42"",""276571""
""focus"",""42"",""277044""
","""event"",""trial"",""time""
""blur"",""42"",""275585""
""blur"",""42"",""276571""
","""event"",""trial"",""time""
""focus"",""42"",""276542""
""focus"",""42"",""277044""
","""event"",""trial"",""time""
""fullscreenenter"",""1"",""3822""
","
",,160,run_exp/static/images/task_images/land.jpg,76,,,,,,,1,,,1,,,,,,,,16718,1,2,TRUE,,,
travel,81,467214,0.0-32.0-0.0,"""event"",""trial"",""time""
""fullscreenenter"",""1"",""3822""
""blur"",""42"",""275585""
""focus"",""42"",""276542""
""blur"",""42"",""276571""
""focus"",""42"",""277044""
","""event"",""trial"",""time""
""blur"",""42"",""275585""
""blur"",""42"",""276571""
","""event"",""trial"",""time""
""focus"",""42"",""276542""
""focus"",""42"",""277044""
","""event"",""trial"",""time""
""fullscreenenter"",""1"",""3822""
","
",,,,,,,,,,,,"[{""stimulus"":""run_exp/static/images/task_images/rocket-01.jpg"",""time"":0.30000001192092896},{""stimulus"":""run_exp/static/images/task_images/rocket-02.jpg"",""time"":1095.1000000238419},{""stimulus"":""run_exp/static/images/task_images/rocket-03.jpg"",""time"":2194.300000011921},{""stimulus"":""run_exp/static/images/task_images/rocket-04.jpg"",""time"":3287.100000023842},{""stimulus"":""run_exp/static/images/task_images/rocket-05.jpg"",""time"":4379.100000023842},{""stimulus"":""run_exp/static/images/task_images/rocket-06.jpg"",""time"":5468.200000047684},{""stimulus"":""run_exp/static/images/task_images/rocket-07.jpg"",""time"":6566},{""stimulus"":""run_exp/static/images/task_images/rocket-08.jpg"",""time"":7660.200000047684},{""stimulus"":""run_exp/static/images/task_images/rocket-09.jpg"",""time"":8746.200000047684}]",[],1,,,,,,,,,,,,,,
alien_welcome,82,472226,0.0-32.0-1.0,"""event"",""trial"",""time""
""fullscreenenter"",""1"",""3822""
""blur"",""42"",""275585""
""focus"",""42"",""276542""
""blur"",""42"",""276571""
""focus"",""42"",""277044""
","""event"",""trial"",""time""
""blur"",""42"",""275585""
""blur"",""42"",""276571""
","""event"",""trial"",""time""
""focus"",""42"",""276542""
""focus"",""42"",""277044""
","""event"",""trial"",""time""
""fullscreenenter"",""1"",""3822""
","
",,null,run_exp/static/images/task_images/aliens/old_aliens/planet/alien_planet-37.jpg,null,,,,,,,,,,,,,37,"22,37,12,23,21,20,31,71,49,41,24,46,14,30,59,10,47,63,36,9,75,60,17,58,77,73,5,35,64,70,61,76,19",,,,,,,,,,
land,83,472733,0.0-32.0-2.0,"""event"",""trial"",""time""
""fullscreenenter"",""1"",""3822""
""blur"",""42"",""275585""
""focus"",""42"",""276542""
""blur"",""42"",""276571""
""focus"",""42"",""277044""
","""event"",""trial"",""time""
""blur"",""42"",""275585""
""blur"",""42"",""276571""
","""event"",""trial"",""time""
""focus"",""42"",""276542""
""focus"",""42"",""277044""
","""event"",""trial"",""time""
""fullscreenenter"",""1"",""3822""
","
",,null,run_exp/static/images/task_images/land.jpg,null,,,,,,,105,,,2,,,,,,,,,,,,,,
dig,84,474746,0.0-32.0-3.0,"""event"",""trial"",""time""
""fullscreenenter"",""1"",""3822""
""blur"",""42"",""275585""
""focus"",""42"",""276542""
""blur"",""42"",""276571""
""focus"",""42"",""277044""
","""event"",""trial"",""time""
""blur"",""42"",""275585""
""blur"",""42"",""276571""
","""event"",""trial"",""time""
""focus"",""42"",""276542""
""focus"",""42"",""277044""
","""event"",""trial"",""time""
""fullscreenenter"",""1"",""3822""
","
",,,,,,,,,,,,"[{""stimulus"":""run_exp/static/images/task_images/dig.jpg"",""time"":0.5},{""stimulus"":""run_exp/static/images/task_images/land.jpg"",""time"":674.5},{""stimulus"":""run_exp/static/images/task_images/dig.jpg"",""time"":1340}]",[],2,,,,,,,,,,,,,,
harvest,85,475754,0.0-32.0-4.0,"""event"",""trial"",""time""
""fullscreenenter"",""1"",""3822""
""blur"",""42"",""275585""
""focus"",""42"",""276542""
""blur"",""42"",""276571""
""focus"",""42"",""277044""
","""event"",""trial"",""time""
""blur"",""42"",""275585""
""blur"",""42"",""276571""
","""event"",""trial"",""time""
""focus"",""42"",""276542""
""focus"",""42"",""277044""
","""event"",""trial"",""time""
""fullscreenenter"",""1"",""3822""
","
",,null,run_exp/static/images/task_images/gems/105.jpg,null,,,,,,,14,,,2,,,,,105,0.131735603,0.133333333,,,,,,,
decision,86,475803,0.0-32.0-5.0,"""event"",""trial"",""time""
""fullscreenenter"",""1"",""3822""
""blur"",""42"",""275585""
""focus"",""42"",""276542""
""blur"",""42"",""276571""
""focus"",""42"",""277044""
","""event"",""trial"",""time""
""blur"",""42"",""275585""
""blur"",""42"",""276571""
","""event"",""trial"",""time""
""focus"",""42"",""276542""
""focus"",""42"",""277044""
","""event"",""trial"",""time""
""fullscreenenter"",""1"",""3822""
","
",,47.89999998,run_exp/static/images/task_images/land.jpg,65,,,,,,,14,,,2,,,,,,,,35158,1,0,FALSE,,,
dig,87,478761,0.0-33.0-0.0,"""event"",""trial"",""time""
""fullscreenenter"",""1"",""3822""
""blur"",""42"",""275585""
""focus"",""42"",""276542""
""blur"",""42"",""276571""
""focus"",""42"",""277044""
","""event"",""trial"",""time""
""blur"",""42"",""275585""
""blur"",""42"",""276571""
","""event"",""trial"",""time""
""focus"",""42"",""276542""
""focus"",""42"",""277044""
","""event"",""trial"",""time""
""fullscreenenter"",""1"",""3822""
","
",,,,,,,,,,,,"[{""stimulus"":""run_exp/static/images/task_images/dig.jpg"",""time"":0.30000001192092896},{""stimulus"":""run_exp/static/images/task_images/land.jpg"",""time"":986.6000000238419},{""stimulus"":""run_exp/static/images/task_images/dig.jpg"",""time"":1971.6000000238419}]",[],2,,,,,,,,,,,,,,
harvest,88,479772,0.0-33.0-1.0,"""event"",""trial"",""time""
""fullscreenenter"",""1"",""3822""
""blur"",""42"",""275585""
""focus"",""42"",""276542""
""blur"",""42"",""276571""
""focus"",""42"",""277044""
","""event"",""trial"",""time""
""blur"",""42"",""275585""
""blur"",""42"",""276571""
","""event"",""trial"",""time""
""focus"",""42"",""276542""
""focus"",""42"",""277044""
","""event"",""trial"",""time""
""fullscreenenter"",""1"",""3822""
","
",,null,run_exp/static/images/task_images/gems/14.jpg,null,,,,,,,3,,,2,,,,,14,0.233616418,0.214285714,,,,,,,
decision,89,479919,0.0-33.0-2.0,"""event"",""trial"",""time""
""fullscreenenter"",""1"",""3822""
""blur"",""42"",""275585""
""focus"",""42"",""276542""
""blur"",""42"",""276571""
""focus"",""42"",""277044""
","""event"",""trial"",""time""
""blur"",""42"",""275585""
""blur"",""42"",""276571""
","""event"",""trial"",""time""
""focus"",""42"",""276542""
""focus"",""42"",""277044""
","""event"",""trial"",""time""
""fullscreenenter"",""1"",""3822""
","
",,145.6,run_exp/static/images/task_images/land.jpg,65,,,,,,,3,,,2,,,,,,,,39273,1,1,FALSE,,,
dig,90,482780,0.0-34.0-0.0,"""event"",""trial"",""time""
""fullscreenenter"",""1"",""3822""
""blur"",""42"",""275585""
""focus"",""42"",""276542""
""blur"",""42"",""276571""
""focus"",""42"",""277044""
","""event"",""trial"",""time""
""blur"",""42"",""275585""
""blur"",""42"",""276571""
","""event"",""trial"",""time""
""focus"",""42"",""276542""
""focus"",""42"",""277044""
","""event"",""trial"",""time""
""fullscreenenter"",""1"",""3822""
","
",,,,,,,,,,,,"[{""stimulus"":""run_exp/static/images/task_images/dig.jpg"",""time"":0.10000002384185791},{""stimulus"":""run_exp/static/images/task_images/land.jpg"",""time"":961.5},{""stimulus"":""run_exp/static/images/task_images/dig.jpg"",""time"":1911.3999999761581}]",[],2,,,,,,,,,,,,,,
harvest,91,483790,0.0-34.0-1.0,"""event"",""trial"",""time""
""fullscreenenter"",""1"",""3822""
""blur"",""42"",""275585""
""focus"",""42"",""276542""
""blur"",""42"",""276571""
""focus"",""42"",""277044""
","""event"",""trial"",""time""
""blur"",""42"",""275585""
""blur"",""42"",""276571""
","""event"",""trial"",""time""
""focus"",""42"",""276542""
""focus"",""42"",""277044""
","""event"",""trial"",""time""
""fullscreenenter"",""1"",""3822""
","
",,null,run_exp/static/images/task_images/gems/3.jpg,null,,,,,,,1,,,2,,,,,3,0.192467531,0.333333333,,,,,,,
decision,92,483929,0.0-34.0-2.0,"""event"",""trial"",""time""
""fullscreenenter"",""1"",""3822""
""blur"",""42"",""275585""
""focus"",""42"",""276542""
""blur"",""42"",""276571""
""focus"",""42"",""277044""
","""event"",""trial"",""time""
""blur"",""42"",""275585""
""blur"",""42"",""276571""
","""event"",""trial"",""time""
""focus"",""42"",""276542""
""focus"",""42"",""277044""
","""event"",""trial"",""time""
""fullscreenenter"",""1"",""3822""
","
",,137.9,run_exp/static/images/task_images/land.jpg,76,,,,,,,1,,,2,,,,,,,,43283,1,2,TRUE,,,
travel,93,493796,0.0-35.0-0.0,"""event"",""trial"",""time""
""fullscreenenter"",""1"",""3822""
""blur"",""42"",""275585""
""focus"",""42"",""276542""
""blur"",""42"",""276571""
""focus"",""42"",""277044""
","""event"",""trial"",""time""
""blur"",""42"",""275585""
""blur"",""42"",""276571""
","""event"",""trial"",""time""
""focus"",""42"",""276542""
""focus"",""42"",""277044""
","""event"",""trial"",""time""
""fullscreenenter"",""1"",""3822""
","
",,,,,,,,,,,,"[{""stimulus"":""run_exp/static/images/task_images/rocket-01.jpg"",""time"":0.19999998807907104},{""stimulus"":""run_exp/static/images/task_images/rocket-02.jpg"",""time"":1105.199999988079},{""stimulus"":""run_exp/static/images/task_images/rocket-03.jpg"",""time"":2195.599999964237},{""stimulus"":""run_exp/static/images/task_images/rocket-04.jpg"",""time"":3292.599999964237},{""stimulus"":""run_exp/static/images/task_images/rocket-05.jpg"",""time"":4391.5},{""stimulus"":""run_exp/static/images/task_images/rocket-06.jpg"",""time"":5488.800000011921},{""stimulus"":""run_exp/static/images/task_images/rocket-07.jpg"",""time"":6572.399999976158},{""stimulus"":""run_exp/static/images/task_images/rocket-08.jpg"",""time"":7669.899999976158},{""stimulus"":""run_exp/static/images/task_images/rocket-09.jpg"",""time"":8765.300000011921}]",[],2,,,,,,,,,,,,,,
alien_welcome,94,498806,0.0-35.0-1.0,"""event"",""trial"",""time""
""fullscreenenter"",""1"",""3822""
""blur"",""42"",""275585""
""focus"",""42"",""276542""
""blur"",""42"",""276571""
""focus"",""42"",""277044""
","""event"",""trial"",""time""
""blur"",""42"",""275585""
""blur"",""42"",""276571""
","""event"",""trial"",""time""
""focus"",""42"",""276542""
""focus"",""42"",""277044""
","""event"",""trial"",""time""
""fullscreenenter"",""1"",""3822""
","
",,null,run_exp/static/images/task_images/aliens/old_aliens/planet/alien_planet-12.jpg,null,,,,,,,,,,,,,12,"22,37,12,23,21,20,31,71,49,41,24,46,14,30,59,10,47,63,36,9,75,60,17,58,77,73,5,35,64,70,61,76,19",,,,,,,,,,
land,95,499312,0.0-35.0-2.0,"""event"",""trial"",""time""
""fullscreenenter"",""1"",""3822""
""blur"",""42"",""275585""
""focus"",""42"",""276542""
""blur"",""42"",""276571""
""focus"",""42"",""277044""
","""event"",""trial"",""time""
""blur"",""42"",""275585""
""blur"",""42"",""276571""
","""event"",""trial"",""time""
""focus"",""42"",""276542""
""focus"",""42"",""277044""
","""event"",""trial"",""time""
""fullscreenenter"",""1"",""3822""
","
",,null,run_exp/static/images/task_images/land.jpg,null,,,,,,,99,,,3,,,,,,,,,,,,,,
dig,96,501320,0.0-35.0-3.0,"""event"",""trial"",""time""
""fullscreenenter"",""1"",""3822""
""blur"",""42"",""275585""
""focus"",""42"",""276542""
""blur"",""42"",""276571""
""focus"",""42"",""277044""
","""event"",""trial"",""time""
""blur"",""42"",""275585""
""blur"",""42"",""276571""
","""event"",""trial"",""time""
""focus"",""42"",""276542""
""focus"",""42"",""277044""
","""event"",""trial"",""time""
""fullscreenenter"",""1"",""3822""
","
",,,,,,,,,,,,"[{""stimulus"":""run_exp/static/images/task_images/dig.jpg"",""time"":0.30000001192092896},{""stimulus"":""run_exp/static/images/task_images/land.jpg"",""time"":673},{""stimulus"":""run_exp/static/images/task_images/dig.jpg"",""time"":1336.300000011921}]",[],3,,,,,,,,,,,,,,
harvest,97,502328,0.0-35.0-4.0,"""event"",""trial"",""time""
""fullscreenenter"",""1"",""3822""
""blur"",""42"",""275585""
""focus"",""42"",""276542""
""blur"",""42"",""276571""
""focus"",""42"",""277044""
","""event"",""trial"",""time""
""blur"",""42"",""275585""
""blur"",""42"",""276571""
","""event"",""trial"",""time""
""focus"",""42"",""276542""
""focus"",""42"",""277044""
","""event"",""trial"",""time""
""fullscreenenter"",""1"",""3822""
","
",,null,run_exp/static/images/task_images/gems/99.jpg,null,,,,,,,41,,,3,,,,,99,0.415347096,0.414141414,,,,,,,
decision,98,502549,0.0-35.0-5.0,"""event"",""trial"",""time""
""fullscreenenter"",""1"",""3822""
""blur"",""42"",""275585""
""focus"",""42"",""276542""
""blur"",""42"",""276571""
""focus"",""42"",""277044""
","""event"",""trial"",""time""
""blur"",""42"",""275585""
""blur"",""42"",""276571""
","""event"",""trial"",""time""
""focus"",""42"",""276542""
""focus"",""42"",""277044""
","""event"",""trial"",""time""
""fullscreenenter"",""1"",""3822""
","
",,218.5,run_exp/static/images/task_images/land.jpg,65,,,,,,,41,,,3,,,,,,,,61903,1,0,FALSE,,,
dig,99,505340,0.0-36.0-0.0,"""event"",""trial"",""time""
""fullscreenenter"",""1"",""3822""
""blur"",""42"",""275585""
""focus"",""42"",""276542""
""blur"",""42"",""276571""
""focus"",""42"",""277044""
","""event"",""trial"",""time""
""blur"",""42"",""275585""
""blur"",""42"",""276571""
","""event"",""trial"",""time""
""focus"",""42"",""276542""
""focus"",""42"",""277044""
","""event"",""trial"",""time""
""fullscreenenter"",""1"",""3822""
","
",,,,,,,,,,,,"[{""stimulus"":""run_exp/static/images/task_images/dig.jpg"",""time"":0.19999998807907104},{""stimulus"":""run_exp/static/images/task_images/land.jpg"",""time"":932.1999999880791},{""stimulus"":""run_exp/static/images/task_images/dig.jpg"",""time"":1857.699999988079}]",[],3,,,,,,,,,,,,,,
harvest,100,506348,0.0-36.0-1.0,"""event"",""trial"",""time""
""fullscreenenter"",""1"",""3822""
""blur"",""42"",""275585""
""focus"",""42"",""276542""
""blur"",""42"",""276571""
""focus"",""42"",""277044""
","""event"",""trial"",""time""
""blur"",""42"",""275585""
""blur"",""42"",""276571""
","""event"",""trial"",""time""
""focus"",""42"",""276542""
""focus"",""42"",""277044""
","""event"",""trial"",""time""
""fullscreenenter"",""1"",""3822""
","
",,null,run_exp/static/images/task_images/gems/41.jpg,null,,,,,,,22,,,3,,,,,41,0.531727842,0.536585366,,,,,,,
decision,101,506462,0.0-36.0-2.0,"""event"",""trial"",""time""
""fullscreenenter"",""1"",""3822""
""blur"",""42"",""275585""
""focus"",""42"",""276542""
""blur"",""42"",""276571""
""focus"",""42"",""277044""
","""event"",""trial"",""time""
""blur"",""42"",""275585""
""blur"",""42"",""276571""
","""event"",""trial"",""time""
""focus"",""42"",""276542""
""focus"",""42"",""277044""
","""event"",""trial"",""time""
""fullscreenenter"",""1"",""3822""
","
",,113.8,run_exp/static/images/task_images/land.jpg,65,,,,,,,22,,,3,,,,,,,,65816,1,1,FALSE,,,
dig,102,509353,0.0-37.0-0.0,"""event"",""trial"",""time""
""fullscreenenter"",""1"",""3822""
""blur"",""42"",""275585""
""focus"",""42"",""276542""
""blur"",""42"",""276571""
""focus"",""42"",""277044""
","""event"",""trial"",""time""
""blur"",""42"",""275585""
""blur"",""42"",""276571""
","""event"",""trial"",""time""
""focus"",""42"",""276542""
""focus"",""42"",""277044""
","""event"",""trial"",""time""
""fullscreenenter"",""1"",""3822""
","
",,,,,,,,,,,,"[{""stimulus"":""run_exp/static/images/task_images/dig.jpg"",""time"":0.30000001192092896},{""stimulus"":""run_exp/static/images/task_images/land.jpg"",""time"":964.5},{""stimulus"":""run_exp/static/images/task_images/dig.jpg"",""time"":1929.199999988079}]",[],3,,,,,,,,,,,,,,
harvest,103,510362,0.0-37.0-1.0,"""event"",""trial"",""time""
""fullscreenenter"",""1"",""3822""
""blur"",""42"",""275585""
""focus"",""42"",""276542""
""blur"",""42"",""276571""
""focus"",""42"",""277044""
","""event"",""trial"",""time""
""blur"",""42"",""275585""
""blur"",""42"",""276571""
","""event"",""trial"",""time""
""focus"",""42"",""276542""
""focus"",""42"",""277044""
","""event"",""trial"",""time""
""fullscreenenter"",""1"",""3822""
","
",,null,run_exp/static/images/task_images/gems/22.jpg,null,,,,,,,12,,,3,,,,,22,0.547183095,0.545454545,,,,,,,
decision,104,510973,0.0-37.0-2.0,"""event"",""trial"",""time""
""fullscreenenter"",""1"",""3822""
""blur"",""42"",""275585""
""focus"",""42"",""276542""
""blur"",""42"",""276571""
""focus"",""42"",""277044""
","""event"",""trial"",""time""
""blur"",""42"",""275585""
""blur"",""42"",""276571""
","""event"",""trial"",""time""
""focus"",""42"",""276542""
""focus"",""42"",""277044""
","""event"",""trial"",""time""
""fullscreenenter"",""1"",""3822""
","
",,608.4,run_exp/static/images/task_images/land.jpg,65,,,,,,,12,,,3,,,,,,,,70327,1,2,FALSE,,,
dig,105,513378,0.0-38.0-0.0,"""event"",""trial"",""time""
""fullscreenenter"",""1"",""3822""
""blur"",""42"",""275585""
""focus"",""42"",""276542""
""blur"",""42"",""276571""
""focus"",""42"",""277044""
","""event"",""trial"",""time""
""blur"",""42"",""275585""
""blur"",""42"",""276571""
","""event"",""trial"",""time""
""focus"",""42"",""276542""
""focus"",""42"",""277044""
","""event"",""trial"",""time""
""fullscreenenter"",""1"",""3822""
","
",,,,,,,,,,,,"[{""stimulus"":""run_exp/static/images/task_images/dig.jpg"",""time"":0.20000004768371582},{""stimulus"":""run_exp/static/images/task_images/land.jpg"",""time"":800.4000000357628},{""stimulus"":""run_exp/static/images/task_images/dig.jpg"",""time"":1600.2000000476837}]",[],3,,,,,,,,,,,,,,
harvest,106,514385,0.0-38.0-1.0,"""event"",""trial"",""time""
""fullscreenenter"",""1"",""3822""
""blur"",""42"",""275585""
""focus"",""42"",""276542""
""blur"",""42"",""276571""
""focus"",""42"",""277044""
","""event"",""trial"",""time""
""blur"",""42"",""275585""
""blur"",""42"",""276571""
","""event"",""trial"",""time""
""focus"",""42"",""276542""
""focus"",""42"",""277044""
","""event"",""trial"",""time""
""fullscreenenter"",""1"",""3822""
","
",,null,run_exp/static/images/task_images/gems/12.jpg,null,,,,,,,6,,,3,,,,,12,0.466096096,0.5,,,,,,,
decision,107,514509,0.0-38.0-2.0,"""event"",""trial"",""time""
""fullscreenenter"",""1"",""3822""
""blur"",""42"",""275585""
""focus"",""42"",""276542""
""blur"",""42"",""276571""
""focus"",""42"",""277044""
","""event"",""trial"",""time""
""blur"",""42"",""275585""
""blur"",""42"",""276571""
","""event"",""trial"",""time""
""focus"",""42"",""276542""
""focus"",""42"",""277044""
","""event"",""trial"",""time""
""fullscreenenter"",""1"",""3822""
","
",,123.1,run_exp/static/images/task_images/land.jpg,76,,,,,,,6,,,3,,,,,,,,73864,1,3,TRUE,,,
travel,108,524393,0.0-39.0-0.0,"""event"",""trial"",""time""
""fullscreenenter"",""1"",""3822""
""blur"",""42"",""275585""
""focus"",""42"",""276542""
""blur"",""42"",""276571""
""focus"",""42"",""277044""
","""event"",""trial"",""time""
""blur"",""42"",""275585""
""blur"",""42"",""276571""
","""event"",""trial"",""time""
""focus"",""42"",""276542""
""focus"",""42"",""277044""
","""event"",""trial"",""time""
""fullscreenenter"",""1"",""3822""
","
",,,,,,,,,,,,"[{""stimulus"":""run_exp/static/images/task_images/rocket-01.jpg"",""time"":0.30000001192092896},{""stimulus"":""run_exp/static/images/task_images/rocket-02.jpg"",""time"":1104.6000000238419},{""stimulus"":""run_exp/static/images/task_images/rocket-03.jpg"",""time"":2203},{""stimulus"":""run_exp/static/images/task_images/rocket-04.jpg"",""time"":3298.5},{""stimulus"":""run_exp/static/images/task_images/rocket-05.jpg"",""time"":4395.5},{""stimulus"":""run_exp/static/images/task_images/rocket-06.jpg"",""time"":5489.5},{""stimulus"":""run_exp/static/images/task_images/rocket-07.jpg"",""time"":6588.100000023842},{""stimulus"":""run_exp/static/images/task_images/rocket-08.jpg"",""time"":7682.199999988079},{""stimulus"":""run_exp/static/images/task_images/rocket-09.jpg"",""time"":8782.900000035763}]",[],3,,,,,,,,,,,,,,
alien_welcome,109,529404,0.0-39.0-1.0,"""event"",""trial"",""time""
""fullscreenenter"",""1"",""3822""
""blur"",""42"",""275585""
""focus"",""42"",""276542""
""blur"",""42"",""276571""
""focus"",""42"",""277044""
","""event"",""trial"",""time""
""blur"",""42"",""275585""
""blur"",""42"",""276571""
","""event"",""trial"",""time""
""focus"",""42"",""276542""
""focus"",""42"",""277044""
","""event"",""trial"",""time""
""fullscreenenter"",""1"",""3822""
","
",,null,run_exp/static/images/task_images/aliens/old_aliens/planet/alien_planet-23.jpg,null,,,,,,,,,,,,,23,"22,37,12,23,21,20,31,71,49,41,24,46,14,30,59,10,47,63,36,9,75,60,17,58,77,73,5,35,64,70,61,76,19",,,,,,,,,,
land,110,529913,0.0-39.0-2.0,"""event"",""trial"",""time""
""fullscreenenter"",""1"",""3822""
""blur"",""42"",""275585""
""focus"",""42"",""276542""
""blur"",""42"",""276571""
""focus"",""42"",""277044""
","""event"",""trial"",""time""
""blur"",""42"",""275585""
""blur"",""42"",""276571""
","""event"",""trial"",""time""
""focus"",""42"",""276542""
""focus"",""42"",""277044""
","""event"",""trial"",""time""
""fullscreenenter"",""1"",""3822""
","
",,null,run_exp/static/images/task_images/land.jpg,null,,,,,,,97,,,4,,,,,,,,,,,,,,
dig,111,531921,0.0-39.0-3.0,"""event"",""trial"",""time""
""fullscreenenter"",""1"",""3822""
""blur"",""42"",""275585""
""focus"",""42"",""276542""
""blur"",""42"",""276571""
""focus"",""42"",""277044""
","""event"",""trial"",""time""
""blur"",""42"",""275585""
""blur"",""42"",""276571""
","""event"",""trial"",""time""
""focus"",""42"",""276542""
""focus"",""42"",""277044""
","""event"",""trial"",""time""
""fullscreenenter"",""1"",""3822""
","
",,,,,,,,,,,,"[{""stimulus"":""run_exp/static/images/task_images/dig.jpg"",""time"":0.3999999761581421},{""stimulus"":""run_exp/static/images/task_images/land.jpg"",""time"":672.8999999761581},{""stimulus"":""run_exp/static/images/task_images/dig.jpg"",""time"":1338.6000000238419}]",[],4,,,,,,,,,,,,,,
harvest,112,532925,0.0-39.0-4.0,"""event"",""trial"",""time""
""fullscreenenter"",""1"",""3822""
""blur"",""42"",""275585""
""focus"",""42"",""276542""
""blur"",""42"",""276571""
""focus"",""42"",""277044""
","""event"",""trial"",""time""
""blur"",""42"",""275585""
""blur"",""42"",""276571""
","""event"",""trial"",""time""
""focus"",""42"",""276542""
""focus"",""42"",""277044""
","""event"",""trial"",""time""
""fullscreenenter"",""1"",""3822""
","
",,null,run_exp/static/images/task_images/gems/97.jpg,null,,,,,,,52,,,4,,,,,97,0.536020474,0.536082474,,,,,,,
decision,113,532955,0.0-39.0-5.0,"""event"",""trial"",""time""
""fullscreenenter"",""1"",""3822""
""blur"",""42"",""275585""
""focus"",""42"",""276542""
""blur"",""42"",""276571""
""focus"",""42"",""277044""
","""event"",""trial"",""time""
""blur"",""42"",""275585""
""blur"",""42"",""276571""
","""event"",""trial"",""time""
""focus"",""42"",""276542""
""focus"",""42"",""277044""
","""event"",""trial"",""time""
""fullscreenenter"",""1"",""3822""
","
",,27.60000002,run_exp/static/images/task_images/land.jpg,65,,,,,,,52,,,4,,,,,,,,92309,1,0,FALSE,,,
dig,114,535937,0.0-40.0-0.0,"""event"",""trial"",""time""
""fullscreenenter"",""1"",""3822""
""blur"",""42"",""275585""
""focus"",""42"",""276542""
""blur"",""42"",""276571""
""focus"",""42"",""277044""
","""event"",""trial"",""time""
""blur"",""42"",""275585""
""blur"",""42"",""276571""
","""event"",""trial"",""time""
""focus"",""42"",""276542""
""focus"",""42"",""277044""
","""event"",""trial"",""time""
""fullscreenenter"",""1"",""3822""
","
",,,,,,,,,,,,"[{""stimulus"":""run_exp/static/images/task_images/dig.jpg"",""time"":0.10000002384185791},{""stimulus"":""run_exp/static/images/task_images/land.jpg"",""time"":996.6000000238419},{""stimulus"":""run_exp/static/images/task_images/dig.jpg"",""time"":1985.1000000238419}]",[],4,,,,,,,,,,,,,,
harvest,115,536941,0.0-40.0-1.0,"""event"",""trial"",""time""
""fullscreenenter"",""1"",""3822""
""blur"",""42"",""275585""
""focus"",""42"",""276542""
""blur"",""42"",""276571""
""focus"",""42"",""277044""
","""event"",""trial"",""time""
""blur"",""42"",""275585""
""blur"",""42"",""276571""
","""event"",""trial"",""time""
""focus"",""42"",""276542""
""focus"",""42"",""277044""
","""event"",""trial"",""time""
""fullscreenenter"",""1"",""3822""
","
",,null,run_exp/static/images/task_images/gems/52.jpg,null,,,,,,,27,,,4,,,,,52,0.520225069,0.519230769,,,,,,,
decision,116,536990,0.0-40.0-2.0,"""event"",""trial"",""time""
""fullscreenenter"",""1"",""3822""
""blur"",""42"",""275585""
""focus"",""42"",""276542""
""blur"",""42"",""276571""
""focus"",""42"",""277044""
","""event"",""trial"",""time""
""blur"",""42"",""275585""
""blur"",""42"",""276571""
","""event"",""trial"",""time""
""focus"",""42"",""276542""
""focus"",""42"",""277044""
","""event"",""trial"",""time""
""fullscreenenter"",""1"",""3822""
","
",,46.39999998,run_exp/static/images/task_images/land.jpg,65,,,,,,,27,,,4,,,,,,,,96344,1,1,FALSE,,,
dig,117,539954,0.0-41.0-0.0,"""event"",""trial"",""time""
""fullscreenenter"",""1"",""3822""
""blur"",""42"",""275585""
""focus"",""42"",""276542""
""blur"",""42"",""276571""
""focus"",""42"",""277044""
","""event"",""trial"",""time""
""blur"",""42"",""275585""
""blur"",""42"",""276571""
","""event"",""trial"",""time""
""focus"",""42"",""276542""
""focus"",""42"",""277044""
","""event"",""trial"",""time""
""fullscreenenter"",""1"",""3822""
","
",,,,,,,,,,,,"[{""stimulus"":""run_exp/static/images/task_images/dig.jpg"",""time"":0.20000004768371582},{""stimulus"":""run_exp/static/images/task_images/land.jpg"",""time"":993.9000000357628},{""stimulus"":""run_exp/static/images/task_images/dig.jpg"",""time"":1977.7000000476837}]",[],4,,,,,,,,,,,,,,
harvest,118,540965,0.0-41.0-1.0,"""event"",""trial"",""time""
""fullscreenenter"",""1"",""3822""
""blur"",""42"",""275585""
""focus"",""42"",""276542""
""blur"",""42"",""276571""
""focus"",""42"",""277044""
","""event"",""trial"",""time""
""blur"",""42"",""275585""
""blur"",""42"",""276571""
","""event"",""trial"",""time""
""focus"",""42"",""276542""
""focus"",""42"",""277044""
","""event"",""trial"",""time""
""fullscreenenter"",""1"",""3822""
","
",,null,run_exp/static/images/task_images/gems/27.jpg,null,,,,,,,16,,,4,,,,,27,0.601219223,0.592592593,,,,,,,
decision,119,541315,0.0-41.0-2.0,"""event"",""trial"",""time""
""fullscreenenter"",""1"",""3822""
""blur"",""42"",""275585""
""focus"",""42"",""276542""
""blur"",""42"",""276571""
""focus"",""42"",""277044""
","""event"",""trial"",""time""
""blur"",""42"",""275585""
""blur"",""42"",""276571""
","""event"",""trial"",""time""
""focus"",""42"",""276542""
""focus"",""42"",""277044""
","""event"",""trial"",""time""
""fullscreenenter"",""1"",""3822""
","
",,348.5,run_exp/static/images/task_images/land.jpg,65,,,,,,,16,,,4,,,,,,,,100669,1,2,FALSE,,,
dig,120,543980,0.0-42.0-0.0,"""event"",""trial"",""time""
""fullscreenenter"",""1"",""3822""
""blur"",""42"",""275585""
""focus"",""42"",""276542""
""blur"",""42"",""276571""
""focus"",""42"",""277044""
","""event"",""trial"",""time""
""blur"",""42"",""275585""
""blur"",""42"",""276571""
","""event"",""trial"",""time""
""focus"",""42"",""276542""
""focus"",""42"",""277044""
","""event"",""trial"",""time""
""fullscreenenter"",""1"",""3822""
","
",,,,,,,,,,,,"[{""stimulus"":""run_exp/static/images/task_images/dig.jpg"",""time"":0.30000001192092896},{""stimulus"":""run_exp/static/images/task_images/land.jpg"",""time"":891.6999999880791},{""stimulus"":""run_exp/static/images/task_images/dig.jpg"",""time"":1775}]",[],4,,,,,,,,,,,,,,
harvest,121,544986,0.0-42.0-1.0,"""event"",""trial"",""time""
""fullscreenenter"",""1"",""3822""
""blur"",""42"",""275585""
""focus"",""42"",""276542""
""blur"",""42"",""276571""
""focus"",""42"",""277044""
","""event"",""trial"",""time""
""blur"",""42"",""275585""
""blur"",""42"",""276571""
","""event"",""trial"",""time""
""focus"",""42"",""276542""
""focus"",""42"",""277044""
","""event"",""trial"",""time""
""fullscreenenter"",""1"",""3822""
","
",,null,run_exp/static/images/task_images/gems/16.jpg,null,,,,,,,9,,,4,,,,,16,0.560195989,0.5625,,,,,,,
decision,122,545136,0.0-42.0-2.0,"""event"",""trial"",""time""
""fullscreenenter"",""1"",""3822""
""blur"",""42"",""275585""
""focus"",""42"",""276542""
""blur"",""42"",""276571""
""focus"",""42"",""277044""
","""event"",""trial"",""time""
""blur"",""42"",""275585""
""blur"",""42"",""276571""
","""event"",""trial"",""time""
""focus"",""42"",""276542""
""focus"",""42"",""277044""
","""event"",""trial"",""time""
""fullscreenenter"",""1"",""3822""
","
",,148.2,run_exp/static/images/task_images/land.jpg,76,,,,,,,9,,,4,,,,,,,,104490,1,3,TRUE,,,
travel,123,554996,0.0-43.0-0.0,"""event"",""trial"",""time""
""fullscreenenter"",""1"",""3822""
""blur"",""42"",""275585""
""focus"",""42"",""276542""
""blur"",""42"",""276571""
""focus"",""42"",""277044""
","""event"",""trial"",""time""
""blur"",""42"",""275585""
""blur"",""42"",""276571""
","""event"",""trial"",""time""
""focus"",""42"",""276542""
""focus"",""42"",""277044""
","""event"",""trial"",""time""
""fullscreenenter"",""1"",""3822""
","
",,,,,,,,,,,,"[{""stimulus"":""run_exp/static/images/task_images/rocket-01.jpg"",""time"":0.30000001192092896},{""stimulus"":""run_exp/static/images/task_images/rocket-02.jpg"",""time"":1103.9000000357628},{""stimulus"":""run_exp/static/images/task_images/rocket-03.jpg"",""time"":2200},{""stimulus"":""run_exp/static/images/task_images/rocket-04.jpg"",""time"":3286.5},{""stimulus"":""run_exp/static/images/task_images/rocket-05.jpg"",""time"":4381.800000011921},{""stimulus"":""run_exp/static/images/task_images/rocket-06.jpg"",""time"":5478.5},{""stimulus"":""run_exp/static/images/task_images/rocket-07.jpg"",""time"":6575.900000035763},{""stimulus"":""run_exp/static/images/task_images/rocket-08.jpg"",""time"":7662.199999988079},{""stimulus"":""run_exp/static/images/task_images/rocket-09.jpg"",""time"":8755.600000023842}]",[],4,,,,,,,,,,,,,,
alien_welcome,124,560001,0.0-43.0-1.0,"""event"",""trial"",""time""
""fullscreenenter"",""1"",""3822""
""blur"",""42"",""275585""
""focus"",""42"",""276542""
""blur"",""42"",""276571""
""focus"",""42"",""277044""
","""event"",""trial"",""time""
""blur"",""42"",""275585""
""blur"",""42"",""276571""
","""event"",""trial"",""time""
""focus"",""42"",""276542""
""focus"",""42"",""277044""
","""event"",""trial"",""time""
""fullscreenenter"",""1"",""3822""
","
",,null,run_exp/static/images/task_images/aliens/old_aliens/planet/alien_planet-21.jpg,null,,,,,,,,,,,,,21,"22,37,12,23,21,20,31,71,49,41,24,46,14,30,59,10,47,63,36,9,75,60,17,58,77,73,5,35,64,70,61,76,19",,,,,,,,,,
land,125,560505,0.0-43.0-2.0,"""event"",""trial"",""time""
""fullscreenenter"",""1"",""3822""
""blur"",""42"",""275585""
""focus"",""42"",""276542""
""blur"",""42"",""276571""
""focus"",""42"",""277044""
","""event"",""trial"",""time""
""blur"",""42"",""275585""
""blur"",""42"",""276571""
","""event"",""trial"",""time""
""focus"",""42"",""276542""
""focus"",""42"",""277044""
","""event"",""trial"",""time""
""fullscreenenter"",""1"",""3822""
","
",,null,run_exp/static/images/task_images/land.jpg,null,,,,,,,101,,,5,,,,,,,,,,,,,,
dig,126,562510,0.0-43.0-3.0,"""event"",""trial"",""time""
""fullscreenenter"",""1"",""3822""
""blur"",""42"",""275585""
""focus"",""42"",""276542""
""blur"",""42"",""276571""
""focus"",""42"",""277044""
","""event"",""trial"",""time""
""blur"",""42"",""275585""
""blur"",""42"",""276571""
","""event"",""trial"",""time""
""focus"",""42"",""276542""
""focus"",""42"",""277044""
","""event"",""trial"",""time""
""fullscreenenter"",""1"",""3822""
","
",,,,,,,,,,,,"[{""stimulus"":""run_exp/static/images/task_images/dig.jpg"",""time"":0.5999999642372131},{""stimulus"":""run_exp/static/images/task_images/land.jpg"",""time"":681.7999999523163},{""stimulus"":""run_exp/static/images/task_images/dig.jpg"",""time"":1336.8999999761581}]",[],5,,,,,,,,,,,,,,
harvest,127,563515,0.0-43.0-4.0,"""event"",""trial"",""time""
""fullscreenenter"",""1"",""3822""
""blur"",""42"",""275585""
""focus"",""42"",""276542""
""blur"",""42"",""276571""
""focus"",""42"",""277044""
","""event"",""trial"",""time""
""blur"",""42"",""275585""
""blur"",""42"",""276571""
","""event"",""trial"",""time""
""focus"",""42"",""276542""
""focus"",""42"",""277044""
","""event"",""trial"",""time""
""fullscreenenter"",""1"",""3822""
","
",,null,run_exp/static/images/task_images/gems/101.jpg,null,,,,,,,53,,,5,,,,,101,0.5248381,0.524752475,,,,,,,
decision,128,563610,0.0-43.0-5.0,"""event"",""trial"",""time""
""fullscreenenter"",""1"",""3822""
""blur"",""42"",""275585""
""focus"",""42"",""276542""
""blur"",""42"",""276571""
""focus"",""42"",""277044""
","""event"",""trial"",""time""
""blur"",""42"",""275585""
""blur"",""42"",""276571""
","""event"",""trial"",""time""
""focus"",""42"",""276542""
""focus"",""42"",""277044""
","""event"",""trial"",""time""
""fullscreenenter"",""1"",""3822""
","
",,93.80000001,run_exp/static/images/task_images/land.jpg,65,,,,,,,53,,,5,,,,,,,,122965,1,0,FALSE,,,
dig,129,566522,0.0-44.0-0.0,"""event"",""trial"",""time""
""fullscreenenter"",""1"",""3822""
""blur"",""42"",""275585""
""focus"",""42"",""276542""
""blur"",""42"",""276571""
""focus"",""42"",""277044""
","""event"",""trial"",""time""
""blur"",""42"",""275585""
""blur"",""42"",""276571""
","""event"",""trial"",""time""
""focus"",""42"",""276542""
""focus"",""42"",""277044""
","""event"",""trial"",""time""
""fullscreenenter"",""1"",""3822""
","
",,,,,,,,,,,,"[{""stimulus"":""run_exp/static/images/task_images/dig.jpg"",""time"":0.2999999523162842},{""stimulus"":""run_exp/static/images/task_images/land.jpg"",""time"":972},{""stimulus"":""run_exp/static/images/task_images/dig.jpg"",""time"":1941.5999999642372}]",[],5,,,,,,,,,,,,,,
harvest,130,567526,0.0-44.0-1.0,"""event"",""trial"",""time""
""fullscreenenter"",""1"",""3822""
""blur"",""42"",""275585""
""focus"",""42"",""276542""
""blur"",""42"",""276571""
""focus"",""42"",""277044""
","""event"",""trial"",""time""
""blur"",""42"",""275585""
""blur"",""42"",""276571""
","""event"",""trial"",""time""
""focus"",""42"",""276542""
""focus"",""42"",""277044""
","""event"",""trial"",""time""
""fullscreenenter"",""1"",""3822""
","
",,null,run_exp/static/images/task_images/gems/53.jpg,null,,,,,,,27,,,5,,,,,53,0.504578708,0.509433962,,,,,,,
decision,131,567550,0.0-44.0-2.0,"""event"",""trial"",""time""
""fullscreenenter"",""1"",""3822""
""blur"",""42"",""275585""
""focus"",""42"",""276542""
""blur"",""42"",""276571""
""focus"",""42"",""277044""
","""event"",""trial"",""time""
""blur"",""42"",""275585""
""blur"",""42"",""276571""
","""event"",""trial"",""time""
""focus"",""42"",""276542""
""focus"",""42"",""277044""
","""event"",""trial"",""time""
""fullscreenenter"",""1"",""3822""
","
",,21.5,run_exp/static/images/task_images/land.jpg,65,,,,,,,27,,,5,,,,,,,,126904,1,1,FALSE,,,
dig,132,570537,0.0-45.0-0.0,"""event"",""trial"",""time""
""fullscreenenter"",""1"",""3822""
""blur"",""42"",""275585""
""focus"",""42"",""276542""
""blur"",""42"",""276571""
""focus"",""42"",""277044""
","""event"",""trial"",""time""
""blur"",""42"",""275585""
""blur"",""42"",""276571""
","""event"",""trial"",""time""
""focus"",""42"",""276542""
""focus"",""42"",""277044""
","""event"",""trial"",""time""
""fullscreenenter"",""1"",""3822""
","
",,,,,,,,,,,,"[{""stimulus"":""run_exp/static/images/task_images/dig.jpg"",""time"":0.5},{""stimulus"":""run_exp/static/images/task_images/land.jpg"",""time"":1000.9000000357628},{""stimulus"":""run_exp/static/images/task_images/dig.jpg"",""time"":1988.199999988079}]",[],5,,,,,,,,,,,,,,
harvest,133,571538,0.0-45.0-1.0,"""event"",""trial"",""time""
""fullscreenenter"",""1"",""3822""
""blur"",""42"",""275585""
""focus"",""42"",""276542""
""blur"",""42"",""276571""
""focus"",""42"",""277044""
","""event"",""trial"",""time""
""blur"",""42"",""275585""
""blur"",""42"",""276571""
","""event"",""trial"",""time""
""focus"",""42"",""276542""
""focus"",""42"",""277044""
","""event"",""trial"",""time""
""fullscreenenter"",""1"",""3822""
","
",,null,run_exp/static/images/task_images/gems/27.jpg,null,,,,,,,14,,,5,,,,,27,0.526737746,0.518518519,,,,,,,
decision,134,571655,0.0-45.0-2.0,"""event"",""trial"",""time""
""fullscreenenter"",""1"",""3822""
""blur"",""42"",""275585""
""focus"",""42"",""276542""
""blur"",""42"",""276571""
""focus"",""42"",""277044""
","""event"",""trial"",""time""
""blur"",""42"",""275585""
""blur"",""42"",""276571""
","""event"",""trial"",""time""
""focus"",""42"",""276542""
""focus"",""42"",""277044""
","""event"",""trial"",""time""
""fullscreenenter"",""1"",""3822""
","
",,115.5,run_exp/static/images/task_images/land.jpg,65,,,,,,,14,,,5,,,,,,,,131009,1,2,FALSE,,,
dig,135,574544,0.0-46.0-0.0,"""event"",""trial"",""time""
""fullscreenenter"",""1"",""3822""
""blur"",""42"",""275585""
""focus"",""42"",""276542""
""blur"",""42"",""276571""
""focus"",""42"",""277044""
","""event"",""trial"",""time""
""blur"",""42"",""275585""
""blur"",""42"",""276571""
","""event"",""trial"",""time""
""focus"",""42"",""276542""
""focus"",""42"",""277044""
","""event"",""trial"",""time""
""fullscreenenter"",""1"",""3822""
","
",,,,,,,,,,,,"[{""stimulus"":""run_exp/static/images/task_images/dig.jpg"",""time"":0.19999998807907104},{""stimulus"":""run_exp/static/images/task_images/land.jpg"",""time"":965.3000000119209},{""stimulus"":""run_exp/static/images/task_images/dig.jpg"",""time"":1926.8999999761581}]",[],5,,,,,,,,,,,,,,
harvest,136,575556,0.0-46.0-1.0,"""event"",""trial"",""time""
""fullscreenenter"",""1"",""3822""
""blur"",""42"",""275585""
""focus"",""42"",""276542""
""blur"",""42"",""276571""
""focus"",""42"",""277044""
","""event"",""trial"",""time""
""blur"",""42"",""275585""
""blur"",""42"",""276571""
","""event"",""trial"",""time""
""focus"",""42"",""276542""
""focus"",""42"",""277044""
","""event"",""trial"",""time""
""fullscreenenter"",""1"",""3822""
","
",,null,run_exp/static/images/task_images/gems/14.jpg,null,,,,,,,7,,,5,,,,,14,0.513138714,0.5,,,,,,,
decision,137,575912,0.0-46.0-2.0,"""event"",""trial"",""time""
""fullscreenenter"",""1"",""3822""
""blur"",""42"",""275585""
""focus"",""42"",""276542""
""blur"",""42"",""276571""
""focus"",""42"",""277044""
","""event"",""trial"",""time""
""blur"",""42"",""275585""
""blur"",""42"",""276571""
","""event"",""trial"",""time""
""focus"",""42"",""276542""
""focus"",""42"",""277044""
","""event"",""trial"",""time""
""fullscreenenter"",""1"",""3822""
","
",,354.5,run_exp/static/images/task_images/land.jpg,76,,,,,,,7,,,5,,,,,,,,135266,1,3,TRUE,,,
travel,138,585559,0.0-47.0-0.0,"""event"",""trial"",""time""
""fullscreenenter"",""1"",""3822""
""blur"",""42"",""275585""
""focus"",""42"",""276542""
""blur"",""42"",""276571""
""focus"",""42"",""277044""
","""event"",""trial"",""time""
""blur"",""42"",""275585""
""blur"",""42"",""276571""
","""event"",""trial"",""time""
""focus"",""42"",""276542""
""focus"",""42"",""277044""
","""event"",""trial"",""time""
""fullscreenenter"",""1"",""3822""
","
",,,,,,,,,,,,"[{""stimulus"":""run_exp/static/images/task_images/rocket-01.jpg"",""time"":0.09999996423721313},{""stimulus"":""run_exp/static/images/task_images/rocket-02.jpg"",""time"":1071.699999988079},{""stimulus"":""run_exp/static/images/task_images/rocket-03.jpg"",""time"":2152.599999964237},{""stimulus"":""run_exp/static/images/task_images/rocket-04.jpg"",""time"":3218.5},{""stimulus"":""run_exp/static/images/task_images/rocket-05.jpg"",""time"":4288.299999952316},{""stimulus"":""run_exp/static/images/task_images/rocket-06.jpg"",""time"":5358.399999976158},{""stimulus"":""run_exp/static/images/task_images/rocket-07.jpg"",""time"":6430.699999988079},{""stimulus"":""run_exp/static/images/task_images/rocket-08.jpg"",""time"":7504.799999952316},{""stimulus"":""run_exp/static/images/task_images/rocket-09.jpg"",""time"":8574.199999988079}]",[],5,,,,,,,,,,,,,,
alien_welcome,139,590572,0.0-47.0-1.0,"""event"",""trial"",""time""
""fullscreenenter"",""1"",""3822""
""blur"",""42"",""275585""
""focus"",""42"",""276542""
""blur"",""42"",""276571""
""focus"",""42"",""277044""
","""event"",""trial"",""time""
""blur"",""42"",""275585""
""blur"",""42"",""276571""
","""event"",""trial"",""time""
""focus"",""42"",""276542""
""focus"",""42"",""277044""
","""event"",""trial"",""time""
""fullscreenenter"",""1"",""3822""
","
",,null,run_exp/static/images/task_images/aliens/old_aliens/planet/alien_planet-20.jpg,null,,,,,,,,,,,,,20,"22,37,12,23,21,20,31,71,49,41,24,46,14,30,59,10,47,63,36,9,75,60,17,58,77,73,5,35,64,70,61,76,19",,,,,,,,,,
land,140,591080,0.0-47.0-2.0,"""event"",""trial"",""time""
""fullscreenenter"",""1"",""3822""
""blur"",""42"",""275585""
""focus"",""42"",""276542""
""blur"",""42"",""276571""
""focus"",""42"",""277044""
","""event"",""trial"",""time""
""blur"",""42"",""275585""
""blur"",""42"",""276571""
","""event"",""trial"",""time""
""focus"",""42"",""276542""
""focus"",""42"",""277044""
","""event"",""trial"",""time""
""fullscreenenter"",""1"",""3822""
","
",,null,run_exp/static/images/task_images/land.jpg,null,,,,,,,103,,,6,,,,,,,,,,,,,,
dig,141,593093,0.0-47.0-3.0,"""event"",""trial"",""time""
""fullscreenenter"",""1"",""3822""
""blur"",""42"",""275585""
""focus"",""42"",""276542""
""blur"",""42"",""276571""
""focus"",""42"",""277044""
","""event"",""trial"",""time""
""blur"",""42"",""275585""
""blur"",""42"",""276571""
","""event"",""trial"",""time""
""focus"",""42"",""276542""
""focus"",""42"",""277044""
","""event"",""trial"",""time""
""fullscreenenter"",""1"",""3822""
","
",,,,,,,,,,,,"[{""stimulus"":""run_exp/static/images/task_images/dig.jpg"",""time"":0.5},{""stimulus"":""run_exp/static/images/task_images/land.jpg"",""time"":671.6000000238419},{""stimulus"":""run_exp/static/images/task_images/dig.jpg"",""time"":1339.6000000238419}]",[],6,,,,,,,,,,,,,,
harvest,142,594099,0.0-47.0-4.0,"""event"",""trial"",""time""
""fullscreenenter"",""1"",""3822""
""blur"",""42"",""275585""
""focus"",""42"",""276542""
""blur"",""42"",""276571""
""focus"",""42"",""277044""
","""event"",""trial"",""time""
""blur"",""42"",""275585""
""blur"",""42"",""276571""
","""event"",""trial"",""time""
""focus"",""42"",""276542""
""focus"",""42"",""277044""
","""event"",""trial"",""time""
""fullscreenenter"",""1"",""3822""
","
",,null,run_exp/static/images/task_images/gems/103.jpg,null,,,,,,,80,,,6,,,,,103,0.779049193,0.776699029,,,,,,,
decision,143,594395,0.0-47.0-5.0,"""event"",""trial"",""time""
""fullscreenenter"",""1"",""3822""
""blur"",""42"",""275585""
""focus"",""42"",""276542""
""blur"",""42"",""276571""
""focus"",""42"",""277044""
","""event"",""trial"",""time""
""blur"",""42"",""275585""
""blur"",""42"",""276571""
","""event"",""trial"",""time""
""focus"",""42"",""276542""
""focus"",""42"",""277044""
","""event"",""trial"",""time""
""fullscreenenter"",""1"",""3822""
","
",,294.1,run_exp/static/images/task_images/land.jpg,65,,,,,,,80,,,6,,,,,,,,153749,1,0,FALSE,,,
dig,144,597103,0.0-48.0-0.0,"""event"",""trial"",""time""
""fullscreenenter"",""1"",""3822""
""blur"",""42"",""275585""
""focus"",""42"",""276542""
""blur"",""42"",""276571""
""focus"",""42"",""277044""
","""event"",""trial"",""time""
""blur"",""42"",""275585""
""blur"",""42"",""276571""
","""event"",""trial"",""time""
""focus"",""42"",""276542""
""focus"",""42"",""277044""
","""event"",""trial"",""time""
""fullscreenenter"",""1"",""3822""
","
",,,,,,,,,,,,"[{""stimulus"":""run_exp/static/images/task_images/dig.jpg"",""time"":0.30000001192092896},{""stimulus"":""run_exp/static/images/task_images/land.jpg"",""time"":905.1999999880791},{""stimulus"":""run_exp/static/images/task_images/dig.jpg"",""time"":1810.4000000357628}]",[],6,,,,,,,,,,,,,,
harvest,145,598112,0.0-48.0-1.0,"""event"",""trial"",""time""
""fullscreenenter"",""1"",""3822""
""blur"",""42"",""275585""
""focus"",""42"",""276542""
""blur"",""42"",""276571""
""focus"",""42"",""277044""
","""event"",""trial"",""time""
""blur"",""42"",""275585""
""blur"",""42"",""276571""
","""event"",""trial"",""time""
""focus"",""42"",""276542""
""focus"",""42"",""277044""
","""event"",""trial"",""time""
""fullscreenenter"",""1"",""3822""
","
",,null,run_exp/static/images/task_images/gems/80.jpg,null,,,,,,,65,,,6,,,,,80,0.80810687,0.8125,,,,,,,
decision,146,598195,0.0-48.0-2.0,"""event"",""trial"",""time""
""fullscreenenter"",""1"",""3822""
""blur"",""42"",""275585""
""focus"",""42"",""276542""
""blur"",""42"",""276571""
""focus"",""42"",""277044""
","""event"",""trial"",""time""
""blur"",""42"",""275585""
""blur"",""42"",""276571""
","""event"",""trial"",""time""
""focus"",""42"",""276542""
""focus"",""42"",""277044""
","""event"",""trial"",""time""
""fullscreenenter"",""1"",""3822""
","
",,82.09999996,run_exp/static/images/task_images/land.jpg,65,,,,,,,65,,,6,,,,,,,,157550,1,1,FALSE,,,
dig,147,601120,0.0-49.0-0.0,"""event"",""trial"",""time""
""fullscreenenter"",""1"",""3822""
""blur"",""42"",""275585""
""focus"",""42"",""276542""
""blur"",""42"",""276571""
""focus"",""42"",""277044""
","""event"",""trial"",""time""
""blur"",""42"",""275585""
""blur"",""42"",""276571""
","""event"",""trial"",""time""
""focus"",""42"",""276542""
""focus"",""42"",""277044""
","""event"",""trial"",""time""
""fullscreenenter"",""1"",""3822""
","
",,,,,,,,,,,,"[{""stimulus"":""run_exp/static/images/task_images/dig.jpg"",""time"":0.19999998807907104},{""stimulus"":""run_exp/static/images/task_images/land.jpg"",""time"":977},{""stimulus"":""run_exp/static/images/task_images/dig.jpg"",""time"":1944.8999999761581}]",[],6,,,,,,,,,,,,,,
harvest,148,602125,0.0-49.0-1.0,"""event"",""trial"",""time""
""fullscreenenter"",""1"",""3822""
""blur"",""42"",""275585""
""focus"",""42"",""276542""
""blur"",""42"",""276571""
""focus"",""42"",""277044""
","""event"",""trial"",""time""
""blur"",""42"",""275585""
""blur"",""42"",""276571""
","""event"",""trial"",""time""
""focus"",""42"",""276542""
""focus"",""42"",""277044""
","""event"",""trial"",""time""
""fullscreenenter"",""1"",""3822""
","
",,null,run_exp/static/images/task_images/gems/65.jpg,null,,,,,,,55,,,6,,,,,65,0.83986842,0.846153846,,,,,,,
decision,149,603950,0.0-49.0-2.0,"""event"",""trial"",""time""
""fullscreenenter"",""1"",""3822""
""blur"",""42"",""275585""
""focus"",""42"",""276542""
""blur"",""42"",""276571""
""focus"",""42"",""277044""
","""event"",""trial"",""time""
""blur"",""42"",""275585""
""blur"",""42"",""276571""
","""event"",""trial"",""time""
""focus"",""42"",""276542""
""focus"",""42"",""277044""
","""event"",""trial"",""time""
""fullscreenenter"",""1"",""3822""
","
",,1824.6,run_exp/static/images/task_images/land.jpg,65,,,,,,,55,,,6,,,,,,,,163305,1,2,FALSE,,,
dig,150,605133,0.0-50.0-0.0,"""event"",""trial"",""time""
""fullscreenenter"",""1"",""3822""
""blur"",""42"",""275585""
""focus"",""42"",""276542""
""blur"",""42"",""276571""
""focus"",""42"",""277044""
","""event"",""trial"",""time""
""blur"",""42"",""275585""
""blur"",""42"",""276571""
","""event"",""trial"",""time""
""focus"",""42"",""276542""
""focus"",""42"",""277044""
","""event"",""trial"",""time""
""fullscreenenter"",""1"",""3822""
","
",,,,,,,,,,,,"[{""stimulus"":""run_exp/static/images/task_images/dig.jpg"",""time"":0.19999998807907104},{""stimulus"":""run_exp/static/images/task_images/land.jpg"",""time"":392.69999998807907},{""stimulus"":""run_exp/static/images/task_images/dig.jpg"",""time"":795.1999999880791}]",[],6,,,,,,,,,,,,,,
harvest,151,606137,0.0-50.0-1.0,"""event"",""trial"",""time""
""fullscreenenter"",""1"",""3822""
""blur"",""42"",""275585""
""focus"",""42"",""276542""
""blur"",""42"",""276571""
""focus"",""42"",""277044""
","""event"",""trial"",""time""
""blur"",""42"",""275585""
""blur"",""42"",""276571""
","""event"",""trial"",""time""
""focus"",""42"",""276542""
""focus"",""42"",""277044""
","""event"",""trial"",""time""
""fullscreenenter"",""1"",""3822""
","
",,null,run_exp/static/images/task_images/gems/55.jpg,null,,,,,,,43,,,6,,,,,55,0.785733957,0.781818182,,,,,,,
decision,152,606210,0.0-50.0-2.0,"""event"",""trial"",""time""
""fullscreenenter"",""1"",""3822""
""blur"",""42"",""275585""
""focus"",""42"",""276542""
""blur"",""42"",""276571""
""focus"",""42"",""277044""
","""event"",""trial"",""time""
""blur"",""42"",""275585""
""blur"",""42"",""276571""
","""event"",""trial"",""time""
""focus"",""42"",""276542""
""focus"",""42"",""277044""
","""event"",""trial"",""time""
""fullscreenenter"",""1"",""3822""
","
",,71,run_exp/static/images/task_images/land.jpg,65,,,,,,,43,,,6,,,,,,,,165564,1,3,FALSE,,,
dig,153,609145,0.0-51.0-0.0,"""event"",""trial"",""time""
""fullscreenenter"",""1"",""3822""
""blur"",""42"",""275585""
""focus"",""42"",""276542""
""blur"",""42"",""276571""
""focus"",""42"",""277044""
","""event"",""trial"",""time""
""blur"",""42"",""275585""
""blur"",""42"",""276571""
","""event"",""trial"",""time""
""focus"",""42"",""276542""
""focus"",""42"",""277044""
","""event"",""trial"",""time""
""fullscreenenter"",""1"",""3822""
","
",,,,,,,,,,,,"[{""stimulus"":""run_exp/static/images/task_images/dig.jpg"",""time"":0.19999998807907104},{""stimulus"":""run_exp/static/images/task_images/land.jpg"",""time"":983.3999999761581},{""stimulus"":""run_exp/static/images/task_images/dig.jpg"",""time"":1957.300000011921}]",[],6,,,,,,,,,,,,,,
harvest,154,610148,0.0-51.0-1.0,"""event"",""trial"",""time""
""fullscreenenter"",""1"",""3822""
""blur"",""42"",""275585""
""focus"",""42"",""276542""
""blur"",""42"",""276571""
""focus"",""42"",""277044""
","""event"",""trial"",""time""
""blur"",""42"",""275585""
""blur"",""42"",""276571""
","""event"",""trial"",""time""
""focus"",""42"",""276542""
""focus"",""42"",""277044""
","""event"",""trial"",""time""
""fullscreenenter"",""1"",""3822""
","
",,null,run_exp/static/images/task_images/gems/43.jpg,null,,,,,,,34,,,6,,,,,43,0.783659668,0.790697674,,,,,,,
decision,155,610324,0.0-51.0-2.0,"""event"",""trial"",""time""
""fullscreenenter"",""1"",""3822""
""blur"",""42"",""275585""
""focus"",""42"",""276542""
""blur"",""42"",""276571""
""focus"",""42"",""277044""
","""event"",""trial"",""time""
""blur"",""42"",""275585""
""blur"",""42"",""276571""
","""event"",""trial"",""time""
""focus"",""42"",""276542""
""focus"",""42"",""277044""
","""event"",""trial"",""time""
""fullscreenenter"",""1"",""3822""
","
",,174,run_exp/static/images/task_images/land.jpg,65,,,,,,,34,,,6,,,,,,,,169679,1,4,FALSE,,,
dig,156,613162,0.0-52.0-0.0,"""event"",""trial"",""time""
""fullscreenenter"",""1"",""3822""
""blur"",""42"",""275585""
""focus"",""42"",""276542""
""blur"",""42"",""276571""
""focus"",""42"",""277044""
","""event"",""trial"",""time""
""blur"",""42"",""275585""
""blur"",""42"",""276571""
","""event"",""trial"",""time""
""focus"",""42"",""276542""
""focus"",""42"",""277044""
","""event"",""trial"",""time""
""fullscreenenter"",""1"",""3822""
","
",,,,,,,,,,,,"[{""stimulus"":""run_exp/static/images/task_images/dig.jpg"",""time"":0.19999998807907104},{""stimulus"":""run_exp/static/images/task_images/land.jpg"",""time"":943},{""stimulus"":""run_exp/static/images/task_images/dig.jpg"",""time"":1889.300000011921}]",[],6,,,,,,,,,,,,,,
harvest,157,614170,0.0-52.0-1.0,"""event"",""trial"",""time""
""fullscreenenter"",""1"",""3822""
""blur"",""42"",""275585""
""focus"",""42"",""276542""
""blur"",""42"",""276571""
""focus"",""42"",""277044""
","""event"",""trial"",""time""
""blur"",""42"",""275585""
""blur"",""42"",""276571""
","""event"",""trial"",""time""
""focus"",""42"",""276542""
""focus"",""42"",""277044""
","""event"",""trial"",""time""
""fullscreenenter"",""1"",""3822""
","
",,null,run_exp/static/images/task_images/gems/34.jpg,null,,,,,,,28,,,6,,,,,34,0.823726071,0.823529412,,,,,,,
decision,158,614381,0.0-52.0-2.0,"""event"",""trial"",""time""
""fullscreenenter"",""1"",""3822""
""blur"",""42"",""275585""
""focus"",""42"",""276542""
""blur"",""42"",""276571""
""focus"",""42"",""277044""
","""event"",""trial"",""time""
""blur"",""42"",""275585""
""blur"",""42"",""276571""
","""event"",""trial"",""time""
""focus"",""42"",""276542""
""focus"",""42"",""277044""
","""event"",""trial"",""time""
""fullscreenenter"",""1"",""3822""
","
",,210.1,run_exp/static/images/task_images/land.jpg,65,,,,,,,28,,,6,,,,,,,,173735,1,5,FALSE,,,
dig,159,617176,0.0-53.0-0.0,"""event"",""trial"",""time""
""fullscreenenter"",""1"",""3822""
""blur"",""42"",""275585""
""focus"",""42"",""276542""
""blur"",""42"",""276571""
""focus"",""42"",""277044""
","""event"",""trial"",""time""
""blur"",""42"",""275585""
""blur"",""42"",""276571""
","""event"",""trial"",""time""
""focus"",""42"",""276542""
""focus"",""42"",""277044""
","""event"",""trial"",""time""
""fullscreenenter"",""1"",""3822""
","
",,,,,,,,,,,,"[{""stimulus"":""run_exp/static/images/task_images/dig.jpg"",""time"":0.19999998807907104},{""stimulus"":""run_exp/static/images/task_images/land.jpg"",""time"":935.6999999880791},{""stimulus"":""run_exp/static/images/task_images/dig.jpg"",""time"":1864.7999999523163}]",[],6,,,,,,,,,,,,,,
harvest,160,618185,0.0-53.0-1.0,"""event"",""trial"",""time""
""fullscreenenter"",""1"",""3822""
""blur"",""42"",""275585""
""focus"",""42"",""276542""
""blur"",""42"",""276571""
""focus"",""42"",""277044""
","""event"",""trial"",""time""
""blur"",""42"",""275585""
""blur"",""42"",""276571""
","""event"",""trial"",""time""
""focus"",""42"",""276542""
""focus"",""42"",""277044""
","""event"",""trial"",""time""
""fullscreenenter"",""1"",""3822""
","
",,null,run_exp/static/images/task_images/gems/28.jpg,null,,,,,,,22,,,6,,,,,28,0.774168951,0.785714286,,,,,,,
decision,161,618251,0.0-53.0-2.0,"""event"",""trial"",""time""
""fullscreenenter"",""1"",""3822""
""blur"",""42"",""275585""
""focus"",""42"",""276542""
""blur"",""42"",""276571""
""focus"",""42"",""277044""
","""event"",""trial"",""time""
""blur"",""42"",""275585""
""blur"",""42"",""276571""
","""event"",""trial"",""time""
""focus"",""42"",""276542""
""focus"",""42"",""277044""
","""event"",""trial"",""time""
""fullscreenenter"",""1"",""3822""
","
",,64.19999999,run_exp/static/images/task_images/land.jpg,65,,,,,,,22,,,6,,,,,,,,177605,1,6,FALSE,,,
dig,162,621192,0.0-54.0-0.0,"""event"",""trial"",""time""
""fullscreenenter"",""1"",""3822""
