trial_type,trial_index,time_elapsed,internal_node_id,success,rt,stimulus,key_press,prompt,subject_id,age,gender,button_pressed,next_reward,animation_sequence,responses,planet,curr_prac_trial,n_prac_rounds,alien,aliens,reward_received,decay_rate_actual,decay_rate_exp,time_in_block,block_num,prt,last_trial_on_planet,button_html,bonus,num_failures
pavlovia,0,5,0.0-0.0,,,,,,,,,,,,,,,,,,,,,,,,,,,
fullscreen,1,11967,0.0-1.0,TRUE,,,,,,,,,,,,,,,,,,,,,,,,,,
instruc_welcome,2,22227,0.0-2.0,,null,run_exp/static/audio/clip_1_welcome.m4a,null,"<p>Howdy! In this experiment, you’ll be an explorer traveling through space to collect space treasure.</p><p>Your mission is to collect as much treasure as possible.</p><br><br><p><img src='run_exp/static/images/task_images/opening_img-01.jpg' height='300' width='auto'></p>",qg0xa3LZw5abJIK_1Y3uCvx5VSxv8Zo_MLRP_7Prkf0VDaQocJ7g,13.8,female,,,,,,,,,,,,,,,,,,,
audio-keyboard-response,3,38825,0.0-3.0,,null,run_exp/static/audio/clip_2_move.m4a,null,,,,,,,,,,,,,,,,,,,,,,,
welcome_dec,4,41895,0.0-4.0,,3061.1,"<p>Howdy! In this experiment, you’ll be an explorer traveling through space to collect space treasure.</p><p>Your mission is to collect as much treasure as possible.</p><br><br><p><img src='run_exp/static/images/task_images/opening_img-01.jpg' height='300' width='auto'></p>",,,,,,1,,,,,,,,,,,,,,,,,,
html-keyboard-response,5,43169,0.0-5.0,,1272.9,"<p>Howdy! In this experiment, you’ll be an explorer traveling through space to collect space treasure.</p><p>Your mission is to collect as much treasure as possible.</p><br><br><p><img src='run_exp/static/images/task_images/opening_img-01.jpg' height='300' width='auto'></p><button class=""jspsych-html-btn-unchosen""><img src=""run_exp/static/images/task_images/planet-01.jpg"" height=""50""></button><button class=""jspsych-html-btn-chosen""><img src=""run_exp/static/images/task_images/planet-02.jpg"" height=""50""></button><p><b>[press the space bar to lock in your answer]<b><br></p>",32,,,,,,,,,,,,,,,,,,,,,,,
instruc_goal,6,53225,0.0-6.0-0.0,,null,run_exp/static/audio/clip_3_goal.m4a,null,"<p> As a space explorer, you’ll visit different planets to dig for space treasure, these pink gems.</p> <p> The more treasure you dig up, the more bonus money you’ll win! </p><br><br><p><img src='run_exp/static/images/task_images/pink_gem.jpg' height='300' width='auto'></p>",,,,,,,,,,,,,,,,,,,,,,
instruc_goal,7,57195,0.0-6.0-1.0,,3965.9,"<p> As a space explorer, you’ll visit different planets to dig for space treasure, these pink gems.</p> <p> The more treasure you dig up, the more bonus money you’ll win! </p><br><br><p><img src='run_exp/static/images/task_images/pink_gem.jpg' height='300' width='auto'></p>",,,,,,1,,,,,,,,,,,,,,,,,,
html-keyboard-response,8,57411,0.0-6.0-2.0,,213.9000001,"<p> As a space explorer, you’ll visit different planets to dig for space treasure, these pink gems.</p> <p> The more treasure you dig up, the more bonus money you’ll win! </p><br><br><p><img src='run_exp/static/images/task_images/pink_gem.jpg' height='300' width='auto'></p><button class=""jspsych-html-btn-unchosen""><img src=""run_exp/static/images/task_images/planet-01.jpg"" height=""50""></button><button class=""jspsych-html-btn-chosen""><img src=""run_exp/static/images/task_images/planet-02.jpg"" height=""50""></button><p><b>[press the space bar to lock in your answer]<b><br></p>",32,,,,,,,,,,,,,,,,,,,,,,,
instruc_dig,9,73425,0.0-7.0-0.0,,null,run_exp/static/audio/clip_4_dig.m4a,null,,,,,,100,,,,,,,,,,,,,,,,,
instruc_dig_try,10,73981,0.0-7.0-1.0,,552.7,"<p> When you’ve arrived at a new planet, you will dig once. </p> <p>Then, you get to decide if you want to stay on the planet and dig again or travel to a new planet and dig there.</p> <p> To stay and dig, press the letter <strong>‘A’</strong> on your keyboard. Try pressing it now! </p><p><img src='run_exp/static/images/task_images/land.jpg'  height='700' width='auto'></p>",65,"<p> When you’ve arrived at a new planet, you will dig once. </p> <p>Then, you get to decide if you want to stay on the planet and dig again or travel to a new planet and dig there.</p> <p> To stay and dig, press the letter <strong>‘A’</strong> on your keyboard. Try pressing it now! </p><p><img src='run_exp/static/images/task_images/land.jpg'  height='700' width='auto'></p>",,,,,100,,,,,,,,,,,,,,,,,
dig_prac,11,75989,0.0-7.0-2.0,,,,,,,,,,,"[{""stimulus"":""run_exp/static/images/task_images/dig.jpg"",""time"":0.20000004768371582},{""stimulus"":""run_exp/static/images/task_images/land.jpg"",""time"":670.0999999046326},{""stimulus"":""run_exp/static/images/task_images/dig.jpg"",""time"":1336.5}]",[],,,,,,,,,,,,,,,
instruc_travel,12,112243,0.0-7.0-3.0,,null,run_exp/static/audio/clip_5_travel.m4a,null,"<p>Every time you dig up gems, there are less gems on the planet, so the more you dig on a planet the fewer gems you’ll get with each dig.</p><p>When gems are running low, you may want to travel to a new planet. </p> <p>  Planets are very far apart in this galaxy, so it will take some time to travel between them. </p> <br><p>There are lots and lots of planets for you to visit, so you won’t be able to return to any planets you’ve seen before. </p><br><p>To leave this planet and travel to a new one, press the letter <strong>‘L’</strong> on your keyboard. Try pressing it now! </p><p><img src='run_exp/static/images/task_images/rocket-01.jpg'  height='600' width='auto'></p>",,,,,,,,,,,,,,,,,,,,,,
instruc_travel_try,13,112657,0.0-7.0-4.0,,411,"<p>Every time you dig up gems, there are less gems on the planet, so the more you dig on a planet the fewer gems you’ll get with each dig.</p><p>When gems are running low, you may want to travel to a new planet. </p> <p>  Planets are very far apart in this galaxy, so it will take some time to travel between them. </p> <br><p>There are lots and lots of planets for you to visit, so you won’t be able to return to any planets you’ve seen before. </p><br><p>To leave this planet and travel to a new one, press the letter <strong>‘L’</strong> on your keyboard. Try pressing it now! </p><p><img src='run_exp/static/images/task_images/rocket-01.jpg'  height='600' width='auto'></p>",76,"<p>Every time you dig up gems, there are less gems on the planet, so the more you dig on a planet the fewer gems you’ll get with each dig.</p><p>When gems are running low, you may want to travel to a new planet. </p> <p>  Planets are very far apart in this galaxy, so it will take some time to travel between them. </p> <br><p>There are lots and lots of planets for you to visit, so you won’t be able to return to any planets you’ve seen before. </p><br><p>To leave this planet and travel to a new one, press the letter <strong>‘L’</strong> on your keyboard. Try pressing it now! </p><p><img src='run_exp/static/images/task_images/rocket-01.jpg'  height='600' width='auto'></p>",,,,,,,,,,,,,,,,,,,,,,
travel_prac,14,122674,0.0-7.0-5.0,,,,,,,,,,,"[{""stimulus"":""run_exp/static/images/task_images/rocket-01.jpg"",""time"":0.20000004768371582},{""stimulus"":""run_exp/static/images/task_images/rocket-02.jpg"",""time"":1123.4000000953674},{""stimulus"":""run_exp/static/images/task_images/rocket-03.jpg"",""time"":2233.2999999523163},{""stimulus"":""run_exp/static/images/task_images/rocket-04.jpg"",""time"":3354.5},{""stimulus"":""run_exp/static/images/task_images/rocket-05.jpg"",""time"":4453.400000095367},{""stimulus"":""run_exp/static/images/task_images/rocket-06.jpg"",""time"":5573.599999904633},{""stimulus"":""run_exp/static/images/task_images/rocket-07.jpg"",""time"":6684.700000047684},{""stimulus"":""run_exp/static/images/task_images/rocket-08.jpg"",""time"":7783.299999952316},{""stimulus"":""run_exp/static/images/task_images/rocket-09.jpg"",""time"":8893.700000047684}]",[],0,,,,,,,,,,,,,,
instruc_alien_greet,15,149853,0.0-7.0-6.0,,null,run_exp/static/audio/clip_6_alien.m4a,null,"<p>When you arrive at a new planet, the alien who owns the treasure mine on that planet will greet you!</p><p>The better an alien takes care of their mine the easier it is to dig for gems. Some aliens take better care of their mine than others. So, you won’t get exactly the same amount of gems on each planet.</p><p>What the alien looks like does not tell you anything about how many gems there are on the planet.</p><br><p><img src=""run_exp/static/images/task_images/aliens/instructions_aliens/planet/alien_planet-1.jpg""  height=""600"" width=""auto""></p>",,,,,,,,,,,,,,,,,,,,,,
instruc_alien_greet,16,156743,0.0-7.0-7.0,,6886.5,"<p>When you arrive at a new planet, the alien who owns the treasure mine on that planet will greet you!</p><p>The better an alien takes care of their mine the easier it is to dig for gems. Some aliens take better care of their mine than others. So, you won’t get exactly the same amount of gems on each planet.</p><p>What the alien looks like does not tell you anything about how many gems there are on the planet.</p><br><p><img src=""run_exp/static/images/task_images/aliens/instructions_aliens/planet/alien_planet-1.jpg""  height=""600"" width=""auto""></p>",,,,,,1,,,,,,,,,,,,,,,,,,
html-keyboard-response,17,156980,0.0-7.0-8.0,,235.9000001,"<p>When you arrive at a new planet, the alien who owns the treasure mine on that planet will greet you!</p><p>The better an alien takes care of their mine the easier it is to dig for gems. Some aliens take better care of their mine than others. So, you won’t get exactly the same amount of gems on each planet.</p><p>What the alien looks like does not tell you anything about how many gems there are on the planet.</p><br><p><img src=""run_exp/static/images/task_images/aliens/instructions_aliens/planet/alien_planet-1.jpg""  height=""600"" width=""auto""></p><button class=""jspsych-html-btn-unchosen""><img src=""run_exp/static/images/task_images/planet-01.jpg"" height=""50""></button><button class=""jspsych-html-btn-chosen""><img src=""run_exp/static/images/task_images/planet-02.jpg"" height=""50""></button><p><b>[press the space bar to lock in your answer]<b><br></p>",32,,,,,,,,,,,,,,,,,,,,,,,
time_out,18,168073,0.0-8.0-0.0,,null,run_exp/static/audio/clip_7_timeout.m4a,null,"<p>If you don't make your choice fast enough, you’ll have to wait a few seconds before you can make another one.</p><p>You can’t dig for more gems or travel to new planets. You just have to sit and wait.</p><br><p><img src='run_exp/static/images/task_images/time_out.jpg'  height='600' width='auto'></p>",,,,,,,,,,,,,,,,,,,,,,
time_out,19,169952,0.0-8.0-1.0,,1876.2,"<p>If you don't make your choice fast enough, you’ll have to wait a few seconds before you can make another one.</p><p>You can’t dig for more gems or travel to new planets. You just have to sit and wait.</p><br><p><img src='run_exp/static/images/task_images/time_out.jpg'  height='600' width='auto'></p>",,,,,,1,,,,,,,,,,,,,,,,,,
html-keyboard-response,20,171147,0.0-8.0-2.0,,1194,"<p>If you don't make your choice fast enough, you’ll have to wait a few seconds before you can make another one.</p><p>You can’t dig for more gems or travel to new planets. You just have to sit and wait.</p><br><p><img src='run_exp/static/images/task_images/time_out.jpg'  height='600' width='auto'></p><button class=""jspsych-html-btn-unchosen""><img src=""run_exp/static/images/task_images/planet-01.jpg"" height=""50""></button><button class=""jspsych-html-btn-chosen""><img src=""run_exp/static/images/task_images/planet-02.jpg"" height=""50""></button><p><b>[press the space bar to lock in your answer]<b><br></p>",32,,,,,,,,,,,,,,,,,,,,,,,
instruc_break,21,186814,0.0-9.0-0.0,,null,run_exp/static/audio/clip_8_break.m4a,null,"<p> After digging and traveling for a while, you’ll be able to take a break at home base. </p><p>The game will last 20 minutes no matter what.</p><p>You will visit home base every 5 minutes, so, you will visit home base three times during the game.</p><br><p><img src='run_exp/static/images/task_images/home_base.jpg' height='600' width='auto'></p>",,,,,,,,,,,,,,,,,,,,,,
instruc_break,22,189474,0.0-9.0-1.0,,2656.4,"<p> After digging and traveling for a while, you’ll be able to take a break at home base. </p><p>The game will last 20 minutes no matter what.</p><p>You will visit home base every 5 minutes, so, you will visit home base three times during the game.</p><br><p><img src='run_exp/static/images/task_images/home_base.jpg' height='600' width='auto'></p>",,,,,,1,,,,,,,,,,,,,,,,,,
html-keyboard-response,23,189861,0.0-9.0-2.0,,385.8,"<p> After digging and traveling for a while, you’ll be able to take a break at home base. </p><p>The game will last 20 minutes no matter what.</p><p>You will visit home base every 5 minutes, so, you will visit home base three times during the game.</p><br><p><img src='run_exp/static/images/task_images/home_base.jpg' height='600' width='auto'></p><button class=""jspsych-html-btn-unchosen""><img src=""run_exp/static/images/task_images/planet-01.jpg"" height=""50""></button><button class=""jspsych-html-btn-chosen""><img src=""run_exp/static/images/task_images/planet-02.jpg"" height=""50""></button><p><b>[press the space bar to lock in your answer]<b><br></p>",32,,,,,,,,,,,,,,,,,,,,,,,
instruc_prac_game,24,199994,0.0-10.0-0.0,,null,run_exp/static/audio/clip_9_practice.m4a,null,"<p> Are you ready to play a practice game? </p> <p>In this practice game, you'll be digging up barrels of gems. But, in the real game, you'll be digging up the gems themselves. </p>",,,,,,,,,,,,,,,,,,,,,,
html-button-response,25,201436,0.0-10.0-1.0,,1439.6,"<p> Are you ready to play a practice game? </p> <p>In this practice game, you'll be digging up barrels of gems. But, in the real game, you'll be digging up the gems themselves. </p>",,,,,,0,,,,,,,,,,,,,,,,,,
alien_welcome_prac,26,206444,0.0-11.0-0.0,,null,run_exp/static/images/task_images/aliens/practice_aliens/planet/alien_planet-5.jpg,null,,,,,,,,,,,,,,,,,,,,,,,
land_prac,27,206962,0.0-11.0-1.0,,null,run_exp/static/images/task_images/land.jpg,null,,,,,,91,,,0,,,,,,,,,,,,,,
dig_prac,28,208977,0.0-11.0-2.0,,,,,,,,,,,"[{""stimulus"":""run_exp/static/images/task_images/dig.jpg"",""time"":0.40000009536743164},{""stimulus"":""run_exp/static/images/task_images/land.jpg"",""time"":678.9000000953674},{""stimulus"":""run_exp/static/images/task_images/dig.jpg"",""time"":1348.6000001430511}]",[],,,,,,,,,,,,,,,
harvest_prac,29,209992,0.0-11.0-3.0,,null,run_exp/static/images/task_images/barrel_text.jpg,null,,,,,,,,,,,,,,,,,,,,,,,
decision_prac,30,211004,0.0-11.0-4.0,,1010.7,run_exp/static/images/task_images/land.jpg,65,,,,,,,,,,1,,,,,,,,,,,,,
dig_prac,31,213022,0.0-12.0-0.0,,,,,,,,,,,"[{""stimulus"":""run_exp/static/images/task_images/dig.jpg"",""time"":0.09999990463256836},{""stimulus"":""run_exp/static/images/task_images/land.jpg"",""time"":674.5999999046326},{""stimulus"":""run_exp/static/images/task_images/dig.jpg"",""time"":1354.7000000476837}]",[],,,,,,,,,,,,,,,
harvest_prac,32,214042,0.0-12.0-1.0,,null,run_exp/static/images/task_images/barrel_text.jpg,null,,,,,,,,,,,,,,,,,,,,,,,
decision_prac,33,214481,0.0-12.0-2.0,,437.6000001,run_exp/static/images/task_images/land.jpg,65,,,,,,,,,,2,,,,,,,,,,,,,
dig_prac,34,216491,0.0-13.0-0.0,,,,,,,,,,,"[{""stimulus"":""run_exp/static/images/task_images/dig.jpg"",""time"":0.2999999523162842},{""stimulus"":""run_exp/static/images/task_images/land.jpg"",""time"":677.9000000953674},{""stimulus"":""run_exp/static/images/task_images/dig.jpg"",""time"":1348.2000000476837}]",[],,,,,,,,,,,,,,,
harvest_prac,35,217502,0.0-13.0-1.0,,null,run_exp/static/images/task_images/barrel_text.jpg,null,,,,,,,,,,,,,,,,,,,,,,,
decision_prac,36,218053,0.0-13.0-2.0,,549.5,run_exp/static/images/task_images/land.jpg,65,,,,,,,,,,3,,,,,,,,,,,,,
dig_prac,37,220072,0.0-14.0-0.0,,,,,,,,,,,"[{""stimulus"":""run_exp/static/images/task_images/dig.jpg"",""time"":0.20000004768371582},{""stimulus"":""run_exp/static/images/task_images/land.jpg"",""time"":681.7000000476837},{""stimulus"":""run_exp/static/images/task_images/dig.jpg"",""time"":1346.2000000476837}]",[],,,,,,,,,,,,,,,
harvest_prac,38,221082,0.0-14.0-1.0,,null,run_exp/static/images/task_images/barrel_text.jpg,null,,,,,,,,,,,,,,,,,,,,,,,
decision_prac,39,221809,0.0-14.0-2.0,,726.3999999,run_exp/static/images/task_images/land.jpg,65,,,,,,,,,,4,,,,,,,,,,,,,
dig_prac,40,223821,0.0-15.0-0.0,,,,,,,,,,,"[{""stimulus"":""run_exp/static/images/task_images/dig.jpg"",""time"":0.2999999523162842},{""stimulus"":""run_exp/static/images/task_images/land.jpg"",""time"":679.2000000476837},{""stimulus"":""run_exp/static/images/task_images/dig.jpg"",""time"":1340.2000000476837}]",[],,,,,,,,,,,,,,,
harvest_prac,41,224832,0.0-15.0-1.0,,null,run_exp/static/images/task_images/barrel_text.jpg,null,,,,,,,,,,,,,,,,,,,,,,,
decision_prac,42,225738,0.0-15.0-2.0,,904.6000001,run_exp/static/images/task_images/land.jpg,65,,,,,,,,,,,1,,,,,,,,,,,,
quiz_instruc,43,237162,0.0-16.0-0.0,,11420.6,run_exp/static/audio/clip_10_quiz.m4a,,,,,,0,,,,,,,,,,,,,,,,,,
instruc_repeat,44,279923,0.0-16.0-1.0,,null,"<p> Are you ready to play a practice game? </p> <p>In this practice game, you'll be digging up barrels of gems. But, in the real game, you'll be digging up the gems themselves. </p>",null,"<p>In this game, your goal is to collect as many gems as you can. That’s how you will win bonus money. </p> <p>The entire game will last 20 minutes no matter how many gems you collect or how many planets you visit. </p><p>To stay on a planet and dig again, press the letter A on your keyboard. To leave for a new planet, press the letter L.</p><p>The more you dig on a planet, the fewer gems you’ll get with each dig which is why you might consider leaving for a new planet. </p><p>When you arrive at a new planet, you’ll be greeted by an alien. What the alien looks like does not tell you anything about how much treasure is on the planet. </p>",,,,,,,,,,,,,,,,,,,,,,
instruc_repeat_continue,45,281050,0.0-16.0-2.0,,1124,"<p> Are you ready to play a practice game? </p> <p>In this practice game, you'll be digging up barrels of gems. But, in the real game, you'll be digging up the gems themselves. </p>",,,,,,0,,,,,,,,,,,,,,,,,,
quiz_q_1_ask,46,286446,0.0-16.0-3.0,,5394.9,run_exp/static/audio/clip_11_q1_ask.m4a,,,,,,2,,,,,,,,,,,,,,,,,,
quiz_q_1_fb_correct,47,290303,0.0-17.0-0.0,,null,run_exp/static/audio/clip_12_q1_corrrect.m4a,null,<p>That’s correct. You win extra money by collecting more gems.</p>,,,,,,,,,,,,,,,,,,,,,,
quiz_q_2_ask,48,294682,0.0-17.0-1.0,,4376.6,run_exp/static/audio/clip_14_q2_ask.m4a,,,,,,1,,,,,,,,,,,,,,,,,,
quiz_q_2_fb_correct,49,298683,0.0-18.0-0.0,,null,run_exp/static/audio/clip_15_q2_correct.m4a,null,<p>That’s correct. The experiment is 20 minutes no matter what.</p>,,,,,,,,,,,,,,,,,,,,,,
quiz_q_3_ask,50,302482,0.0-18.0-1.0,,3795.1,run_exp/static/audio/clip_17_q3_ask.m4a,,,,,,1,,,,,,,,,,,,,,,,,,
quiz_q_3_fb_correct,51,306463,0.0-19.0-0.0,,null,run_exp/static/audio/clip_18_q3_correct.m4a,null,<p> That’s correct. You press the letter L to travel to a new planet.</p>,,,,,,,,,,,,,,,,,,,,,,
quiz_q_4_ask,52,311005,0.0-19.0-1.0,,4540.2,run_exp/static/audio/clip_20_q4_ask.m4a,,,,,,0,,,,,,,,,,,,,,,,,,
quiz_q_4_fb_correct,53,316323,0.0-20.0-0.0,,null,run_exp/static/audio/clip_21_q4_correct.m4a,null,<p> That’s correct. The more you dig on a planet the fewer gems you’ll get with each dig. </p>,,,,,,,,,,,,,,,,,,,,,,
quiz_q_5_ask,54,319680,0.0-20.0-1.0,,3353.9,run_exp/static/audio/clip_23_q5_ask.m4a,,,,,,1,,,,,,,,,,,,,,,,,,
quiz_q_5_fb_correct,55,324702,0.0-21.0-0.0,,null,run_exp/static/audio/clip_24_q5_correct.m4a,null,<p> That’s correct. The alien tells you nothing about how much treasure is on the planet.</p>,,,,,,,,,,,,,,,,,,,,,,
quiz_correct,56,328163,0.0-22.0-0.0,,null,run_exp/static/audio/clip_26_correct_quiz.m4a,null,,,,,,,,,,,,,,,,,,,,,,,
quiz_correct_continue,57,332020,0.0-22.0-1.0,,3854.5,<p>Good job! You're now ready to move on to the real game!</p>,,,,,,0,,,,,,,,,,,,,,,,,,
audio-keyboard-response,58,342143,0.0-22.0-2.0,,null,run_exp/static/audio/clip_28_real_game.m4a,null,,,,,,,,,,,,,,,,,,,,,,,
instruc_begin_exp_contine,59,343517,0.0-22.0-3.0,,1372.2,"<p>Now that you know how  to dig for space treasure and travel to new planets,you can start exploring! </p><p>Do you want to go over the instructions again or get started with the real game?</p>",,,,,,1,,,,,,1,,,,,,,,,,,,
alien_welcome,60,348521,0.0-23.0-0.0,,null,run_exp/static/images/task_images/aliens/old_aliens/planet/alien_planet-63.jpg,null,,,,,,,,,,,,63,"63,25,29,11,74,35,53,33,39,41,18,2,55,24,76,15,10,36,38,52,49,8,9,21,31,14,4,80,19,45,79,32,6,50,37,7",,,,,,,,,,
land,61,349031,0.0-23.0-1.0,,null,run_exp/static/images/task_images/land.jpg,null,,,,,,103,,,1,,,,,,,,,,,,,,
dig,62,351041,0.0-23.0-2.0,,,,,,,,,,,"[{""stimulus"":""run_exp/static/images/task_images/dig.jpg"",""time"":0.2999999523162842},{""stimulus"":""run_exp/static/images/task_images/land.jpg"",""time"":688.7000000476837},{""stimulus"":""run_exp/static/images/task_images/dig.jpg"",""time"":1338.9000000953674}]",[],1,,,,,,,,,,,,,,
harvest,63,352051,0.0-23.0-3.0,,null,run_exp/static/images/task_images/gems/103.jpg,null,,,,,,26,,,1,,,,,103,0.249046839,0.252427184,,,,,,,
decision,64,353315,0.0-23.0-4.0,,1262.9,run_exp/static/images/task_images/land.jpg,65,,,,,,26,,,1,,,,,,,,9797,1,0,FALSE,,,
dig,65,355073,0.0-24.0-0.0,,,,,,,,,,,"[{""stimulus"":""run_exp/static/images/task_images/dig.jpg"",""time"":0.19999980926513672},{""stimulus"":""run_exp/static/images/task_images/land.jpg"",""time"":582.6999998092651},{""stimulus"":""run_exp/static/images/task_images/dig.jpg"",""time"":1162.5999999046326}]",[],1,,,,,,,,,,,,,,
harvest,66,356091,0.0-24.0-1.0,,null,run_exp/static/images/task_images/gems/26.jpg,null,,,,,,4,,,1,,,,,26,0.153254246,0.153846154,,,,,,,
decision,67,357510,0.0-24.0-2.0,,1417.7,run_exp/static/images/task_images/land.jpg,65,,,,,,4,,,1,,,,,,,,13991,1,1,FALSE,,,
dig,68,359111,0.0-25.0-0.0,,,,,,,,,,,"[{""stimulus"":""run_exp/static/images/task_images/dig.jpg"",""time"":0.20000004768371582},{""stimulus"":""run_exp/static/images/task_images/land.jpg"",""time"":536.9000000953674},{""stimulus"":""run_exp/static/images/task_images/dig.jpg"",""time"":1066.7000000476837}]",[],1,,,,,,,,,,,,,,
harvest,69,360121,0.0-25.0-1.0,,null,run_exp/static/images/task_images/gems/4.jpg,null,,,,,,1,,,1,,,,,4,0.223615831,0.25,,,,,,,
decision,70,360270,0.0-25.0-2.0,,147.3,run_exp/static/images/task_images/land.jpg,76,,,,,,1,,,1,,,,,,,,16751,1,2,TRUE,,,
travel,71,370133,0.0-26.0-0.0,,,,,,,,,,,"[{""stimulus"":""run_exp/static/images/task_images/rocket-01.jpg"",""time"":0.20000004768371582},{""stimulus"":""run_exp/static/images/task_images/rocket-02.jpg"",""time"":1108},{""stimulus"":""run_exp/static/images/task_images/rocket-03.jpg"",""time"":2207.899999856949},{""stimulus"":""run_exp/static/images/task_images/rocket-04.jpg"",""time"":3297.7999999523163},{""stimulus"":""run_exp/static/images/task_images/rocket-05.jpg"",""time"":4379},{""stimulus"":""run_exp/static/images/task_images/rocket-06.jpg"",""time"":5477.599999904633},{""stimulus"":""run_exp/static/images/task_images/rocket-07.jpg"",""time"":6567.899999856949},{""stimulus"":""run_exp/static/images/task_images/rocket-08.jpg"",""time"":7667.700000047684},{""stimulus"":""run_exp/static/images/task_images/rocket-09.jpg"",""time"":8757.899999856949}]",[],1,,,,,,,,,,,,,,
alien_welcome,72,375143,0.0-26.0-1.0,,null,run_exp/static/images/task_images/aliens/old_aliens/planet/alien_planet-25.jpg,null,,,,,,,,,,,,25,"63,25,29,11,74,35,53,33,39,41,18,2,55,24,76,15,10,36,38,52,49,8,9,21,31,14,4,80,19,45,79,32,6,50,37,7",,,,,,,,,,
land,73,375653,0.0-26.0-2.0,,null,run_exp/static/images/task_images/land.jpg,null,,,,,,92,,,2,,,,,,,,,,,,,,
dig,74,377673,0.0-26.0-3.0,,,,,,,,,,,"[{""stimulus"":""run_exp/static/images/task_images/dig.jpg"",""time"":0.20000004768371582},{""stimulus"":""run_exp/static/images/task_images/land.jpg"",""time"":669.2999999523163},{""stimulus"":""run_exp/static/images/task_images/dig.jpg"",""time"":1339}]",[],2,,,,,,,,,,,,,,
harvest,75,378693,0.0-26.0-4.0,,null,run_exp/static/images/task_images/gems/92.jpg,null,,,,,,16,,,2,,,,,92,0.172899939,0.173913043,,,,,,,
decision,76,379335,0.0-26.0-5.0,,641.3,run_exp/static/images/task_images/land.jpg,65,,,,,,16,,,2,,,,,,,,35817,1,0,FALSE,,,
dig,77,381713,0.0-27.0-0.0,,,,,,,,,,,"[{""stimulus"":""run_exp/static/images/task_images/dig.jpg"",""time"":0.10000014305114746},{""stimulus"":""run_exp/static/images/task_images/land.jpg"",""time"":805.9000000953674},{""stimulus"":""run_exp/static/images/task_images/dig.jpg"",""time"":1575.7000000476837}]",[],2,,,,,,,,,,,,,,
harvest,78,382723,0.0-27.0-1.0,,null,run_exp/static/images/task_images/gems/16.jpg,null,,,,,,3,,,2,,,,,16,0.207151762,0.1875,,,,,,,
decision,79,382818,0.0-27.0-2.0,,93.39999986,run_exp/static/images/task_images/land.jpg,76,,,,,,3,,,2,,,,,,,,39299,1,1,TRUE,,,
travel,80,392733,0.0-28.0-0.0,,,,,,,,,,,"[{""stimulus"":""run_exp/static/images/task_images/rocket-01.jpg"",""time"":0.19999980926513672},{""stimulus"":""run_exp/static/images/task_images/rocket-02.jpg"",""time"":1119.0999999046326},{""stimulus"":""run_exp/static/images/task_images/rocket-03.jpg"",""time"":2209.899999856949},{""stimulus"":""run_exp/static/images/task_images/rocket-04.jpg"",""time"":3320.199999809265},{""stimulus"":""run_exp/static/images/task_images/rocket-05.jpg"",""time"":4420.799999952316},{""stimulus"":""run_exp/static/images/task_images/rocket-06.jpg"",""time"":5520.599999904633},{""stimulus"":""run_exp/static/images/task_images/rocket-07.jpg"",""time"":6610.799999952316},{""stimulus"":""run_exp/static/images/task_images/rocket-08.jpg"",""time"":7720.399999856949},{""stimulus"":""run_exp/static/images/task_images/rocket-09.jpg"",""time"":8811.099999904633}]",[],2,,,,,,,,,,,,,,
alien_welcome,81,397754,0.0-28.0-1.0,,null,run_exp/static/images/task_images/aliens/old_aliens/planet/alien_planet-29.jpg,null,,,,,,,,,,,,29,"63,25,29,11,74,35,53,33,39,41,18,2,55,24,76,15,10,36,38,52,49,8,9,21,31,14,4,80,19,45,79,32,6,50,37,7",,,,,,,,,,
land,82,398263,0.0-28.0-2.0,,null,run_exp/static/images/task_images/land.jpg,null,,,,,,101,,,3,,,,,,,,,,,,,,
dig,83,400283,0.0-28.0-3.0,,,,,,,,,,,"[{""stimulus"":""run_exp/static/images/task_images/dig.jpg"",""time"":0.2999999523162842},{""stimulus"":""run_exp/static/images/task_images/land.jpg"",""time"":668.7000000476837},{""stimulus"":""run_exp/static/images/task_images/dig.jpg"",""time"":1350}]",[],3,,,,,,,,,,,,,,
harvest,84,401303,0.0-28.0-4.0,,null,run_exp/static/images/task_images/gems/101.jpg,null,,,,,,53,,,3,,,,,101,0.527076746,0.524752475,,,,,,,
decision,85,401939,0.0-28.0-5.0,,634,run_exp/static/images/task_images/land.jpg,65,,,,,,53,,,3,,,,,,,,58420,1,0,FALSE,,,
dig,86,404323,0.0-29.0-0.0,,,,,,,,,,,"[{""stimulus"":""run_exp/static/images/task_images/dig.jpg"",""time"":0.10000014305114746},{""stimulus"":""run_exp/static/images/task_images/land.jpg"",""time"":789.4000000953674},{""stimulus"":""run_exp/static/images/task_images/dig.jpg"",""time"":1593.4000000953674}]",[],3,,,,,,,,,,,,,,
harvest,87,405331,0.0-29.0-1.0,,null,run_exp/static/images/task_images/gems/53.jpg,null,,,,,,31,,,3,,,,,53,0.58878689,0.58490566,,,,,,,
decision,88,406661,0.0-29.0-2.0,,1327.9,run_exp/static/images/task_images/land.jpg,65,,,,,,31,,,3,,,,,,,,63142,1,1,FALSE,,,
dig,89,408353,0.0-30.0-0.0,,,,,,,,,,,"[{""stimulus"":""run_exp/static/images/task_images/dig.jpg"",""time"":0.20000004768371582},{""stimulus"":""run_exp/static/images/task_images/land.jpg"",""time"":569},{""stimulus"":""run_exp/static/images/task_images/dig.jpg"",""time"":1121}]",[],3,,,,,,,,,,,,,,
harvest,90,409372,0.0-30.0-1.0,,null,run_exp/static/images/task_images/gems/31.jpg,null,,,,,,15,,,3,,,,,31,0.496851971,0.483870968,,,,,,,
decision,91,409980,0.0-30.0-2.0,,606.5,run_exp/static/images/task_images/land.jpg,65,,,,,,15,,,3,,,,,,,,66462,1,2,FALSE,,,
dig,92,412393,0.0-31.0-0.0,,,,,,,,,,,"[{""stimulus"":""run_exp/static/images/task_images/dig.jpg"",""time"":0.10000014305114746},{""stimulus"":""run_exp/static/images/task_images/land.jpg"",""time"":811},{""stimulus"":""run_exp/static/images/task_images/dig.jpg"",""time"":1611.3000001907349}]",[],3,,,,,,,,,,,,,,
harvest,93,413403,0.0-31.0-1.0,,null,run_exp/static/images/task_images/gems/15.jpg,null,,,,,,7,,,3,,,,,15,0.499072279,0.466666667,,,,,,,
decision,94,413644,0.0-31.0-2.0,,240,run_exp/static/images/task_images/land.jpg,76,,,,,,7,,,3,,,,,,,,70126,1,3,TRUE,,,
travel,95,423413,0.0-32.0-0.0,,,,,,,,,,,"[{""stimulus"":""run_exp/static/images/task_images/rocket-01.jpg"",""time"":0.10000014305114746},{""stimulus"":""run_exp/static/images/task_images/rocket-02.jpg"",""time"":1104.7999999523163},{""stimulus"":""run_exp/static/images/task_images/rocket-03.jpg"",""time"":2184.7000000476837},{""stimulus"":""run_exp/static/images/task_images/rocket-04.jpg"",""time"":3254.7999999523163},{""stimulus"":""run_exp/static/images/task_images/rocket-05.jpg"",""time"":4346.400000095367},{""stimulus"":""run_exp/static/images/task_images/rocket-06.jpg"",""time"":5434.700000047684},{""stimulus"":""run_exp/static/images/task_images/rocket-07.jpg"",""time"":6505.100000143051},{""stimulus"":""run_exp/static/images/task_images/rocket-08.jpg"",""time"":7604.5},{""stimulus"":""run_exp/static/images/task_images/rocket-09.jpg"",""time"":8680.400000095367}]",[],3,,,,,,,,,,,,,,
alien_welcome,96,428433,0.0-32.0-1.0,,null,run_exp/static/images/task_images/aliens/old_aliens/planet/alien_planet-11.jpg,null,,,,,,,,,,,,11,"63,25,29,11,74,35,53,33,39,41,18,2,55,24,76,15,10,36,38,52,49,8,9,21,31,14,4,80,19,45,79,32,6,50,37,7",,,,,,,,,,
land,97,428943,0.0-32.0-2.0,,null,run_exp/static/images/task_images/land.jpg,null,,,,,,98,,,4,,,,,,,,,,,,,,
dig,98,430963,0.0-32.0-3.0,,,,,,,,,,,"[{""stimulus"":""run_exp/static/images/task_images/dig.jpg"",""time"":0.20000004768371582},{""stimulus"":""run_exp/static/images/task_images/land.jpg"",""time"":668.5999999046326},{""stimulus"":""run_exp/static/images/task_images/dig.jpg"",""time"":1339.0999999046326}]",[],4,,,,,,,,,,,,,,
harvest,99,431984,0.0-32.0-4.0,,null,run_exp/static/images/task_images/gems/98.jpg,null,,,,,,55,,,4,,,,,98,0.558429305,0.56122449,,,,,,,
decision,100,432056,0.0-32.0-5.0,,70.5,run_exp/static/images/task_images/land.jpg,65,,,,,,55,,,4,,,,,,,,88537,1,0,FALSE,,,
dig,101,434994,0.0-33.0-0.0,,,,,,,,,,,"[{""stimulus"":""run_exp/static/images/task_images/dig.jpg"",""time"":0.2999999523162842},{""stimulus"":""run_exp/static/images/task_images/land.jpg"",""time"":993.7000000476837},{""stimulus"":""run_exp/static/images/task_images/dig.jpg"",""time"":1973.7999999523163}]",[],4,,,,,,,,,,,,,,
harvest,102,436003,0.0-33.0-1.0,,null,run_exp/static/images/task_images/gems/55.jpg,null,,,,,,26,,,4,,,,,55,0.479061065,0.472727273,,,,,,,
decision,103,436046,0.0-33.0-2.0,,42.10000014,run_exp/static/images/task_images/land.jpg,65,,,,,,26,,,4,,,,,,,,92527,1,1,FALSE,,,
dig,104,439013,0.0-34.0-0.0,,,,,,,,,,,"[{""stimulus"":""run_exp/static/images/task_images/dig.jpg"",""time"":0.20000004768371582},{""stimulus"":""run_exp/static/images/task_images/land.jpg"",""time"":1005.5999999046326},{""stimulus"":""run_exp/static/images/task_images/dig.jpg"",""time"":1985.5}]",[],4,,,,,,,,,,,,,,
harvest,105,440023,0.0-34.0-1.0,,null,run_exp/static/images/task_images/gems/26.jpg,null,,,,,,13,,,4,,,,,26,0.506116106,0.5,,,,,,,
decision,106,441010,0.0-34.0-2.0,,986,run_exp/static/images/task_images/land.jpg,65,,,,,,13,,,4,,,,,,,,97491,1,2,FALSE,,,
dig,107,443034,0.0-35.0-0.0,,,,,,,,,,,"[{""stimulus"":""run_exp/static/images/task_images/dig.jpg"",""time"":0.09999990463256836},{""stimulus"":""run_exp/static/images/task_images/land.jpg"",""time"":690.6999998092651},{""stimulus"":""run_exp/static/images/task_images/dig.jpg"",""time"":1346.5}]",[],4,,,,,,,,,,,,,,
harvest,108,444053,0.0-35.0-1.0,,null,run_exp/static/images/task_images/gems/13.jpg,null,,,,,,6,,,4,,,,,13,0.468958587,0.461538462,,,,,,,
decision,109,444425,0.0-35.0-2.0,,370.1000001,run_exp/static/images/task_images/land.jpg,76,,,,,,6,,,4,,,,,,,,100906,1,3,TRUE,,,
travel,110,454053,0.0-36.0-0.0,,,,,,,,,,,"[{""stimulus"":""run_exp/static/images/task_images/rocket-01.jpg"",""time"":0.20000004768371582},{""stimulus"":""run_exp/static/images/task_images/rocket-02.jpg"",""time"":1074.9000000953674},{""stimulus"":""run_exp/static/images/task_images/rocket-03.jpg"",""time"":2144.5},{""stimulus"":""run_exp/static/images/task_images/rocket-04.jpg"",""time"":3216.5},{""stimulus"":""run_exp/static/images/task_images/rocket-05.jpg"",""time"":4295.099999904633},{""stimulus"":""run_exp/static/images/task_images/rocket-06.jpg"",""time"":5355.200000047684},{""stimulus"":""run_exp/static/images/task_images/rocket-07.jpg"",""time"":6435.200000047684},{""stimulus"":""run_exp/static/images/task_images/rocket-08.jpg"",""time"":7504.799999952316},{""stimulus"":""run_exp/static/images/task_images/rocket-09.jpg"",""time"":8565.200000047684}]",[],4,,,,,,,,,,,,,,
alien_welcome,111,459075,0.0-36.0-1.0,,null,run_exp/static/images/task_images/aliens/old_aliens/planet/alien_planet-74.jpg,null,,,,,,,,,,,,74,"63,25,29,11,74,35,53,33,39,41,18,2,55,24,76,15,10,36,38,52,49,8,9,21,31,14,4,80,19,45,79,32,6,50,37,7",,,,,,,,,,
land,112,459583,0.0-36.0-2.0,,null,run_exp/static/images/task_images/land.jpg,null,,,,,,102,,,5,,,,,,,,,,,,,,
dig,113,461593,0.0-36.0-3.0,,,,,,,,,,,"[{""stimulus"":""run_exp/static/images/task_images/dig.jpg"",""time"":0.2999999523162842},{""stimulus"":""run_exp/static/images/task_images/land.jpg"",""time"":669.5999999046326},{""stimulus"":""run_exp/static/images/task_images/dig.jpg"",""time"":1339.1999998092651}]",[],5,,,,,,,,,,,,,,
harvest,114,462603,0.0-36.0-4.0,,null,run_exp/static/images/task_images/gems/102.jpg,null,,,,,,49,,,5,,,,,102,0.479307761,0.480392157,,,,,,,
decision,115,462774,0.0-36.0-5.0,,168.5,run_exp/static/images/task_images/land.jpg,65,,,,,,49,,,5,,,,,,,,119255,1,0,FALSE,,,
dig,116,465623,0.0-37.0-0.0,,,,,,,,,,,"[{""stimulus"":""run_exp/static/images/task_images/dig.jpg"",""time"":0.20000004768371582},{""stimulus"":""run_exp/static/images/task_images/land.jpg"",""time"":948.5},{""stimulus"":""run_exp/static/images/task_images/dig.jpg"",""time"":1888}]",[],5,,,,,,,,,,,,,,
harvest,117,466631,0.0-37.0-1.0,,null,run_exp/static/images/task_images/gems/49.jpg,null,,,,,,23,,,5,,,,,49,0.460758134,0.469387755,,,,,,,
decision,118,466938,0.0-37.0-2.0,,306.1999998,run_exp/static/images/task_images/land.jpg,65,,,,,,23,,,5,,,,,,,,123419,1,1,FALSE,,,
dig,119,469633,0.0-38.0-0.0,,,,,,,,,,,"[{""stimulus"":""run_exp/static/images/task_images/dig.jpg"",""time"":0.09999990463256836},{""stimulus"":""run_exp/static/images/task_images/land.jpg"",""time"":912.7999999523163},{""stimulus"":""run_exp/static/images/task_images/dig.jpg"",""time"":1812.2999999523163}]",[],5,,,,,,,,,,,,,,
harvest,120,470653,0.0-38.0-1.0,,null,run_exp/static/images/task_images/gems/23.jpg,null,,,,,,12,,,5,,,,,23,0.516899362,0.52173913,,,,,,,
decision,121,470793,0.0-38.0-2.0,,137.8999999,run_exp/static/images/task_images/land.jpg,65,,,,,,12,,,5,,,,,,,,127274,1,2,FALSE,,,
dig,122,473673,0.0-39.0-0.0,,,,,,,,,,,"[{""stimulus"":""run_exp/static/images/task_images/dig.jpg"",""time"":0.20000004768371582},{""stimulus"":""run_exp/static/images/task_images/land.jpg"",""time"":967},{""stimulus"":""run_exp/static/images/task_images/dig.jpg"",""time"":1919.7000000476837}]",[],5,,,,,,,,,,,,,,
harvest,123,474693,0.0-39.0-1.0,,null,run_exp/static/images/task_images/gems/12.jpg,null,,,,,,6,,,5,,,,,12,0.507804509,0.5,,,,,,,
decision,124,475202,0.0-39.0-2.0,,507.5,run_exp/static/images/task_images/land.jpg,76,,,,,,6,,,5,,,,,,,,131683,1,3,TRUE,,,
travel,125,484714,0.0-40.0-0.0,,,,,,,,,,,"[{""stimulus"":""run_exp/static/images/task_images/rocket-01.jpg"",""time"":0.2999999523162842},{""stimulus"":""run_exp/static/images/task_images/rocket-02.jpg"",""time"":1075},{""stimulus"":""run_exp/static/images/task_images/rocket-03.jpg"",""time"":2124.7999999523163},{""stimulus"":""run_exp/static/images/task_images/rocket-04.jpg"",""time"":3174.7999999523163},{""stimulus"":""run_exp/static/images/task_images/rocket-05.jpg"",""time"":4234.799999952316},{""stimulus"":""run_exp/static/images/task_images/rocket-06.jpg"",""time"":5274.799999952316},{""stimulus"":""run_exp/static/images/task_images/rocket-07.jpg"",""time"":6334.900000095367},{""stimulus"":""run_exp/static/images/task_images/rocket-08.jpg"",""time"":7384.700000047684},{""stimulus"":""run_exp/static/images/task_images/rocket-09.jpg"",""time"":8434.900000095367}]",[],5,,,,,,,,,,,,,,
alien_welcome,126,489733,0.0-40.0-1.0,,null,run_exp/static/images/task_images/aliens/old_aliens/planet/alien_planet-35.jpg,null,,,,,,,,,,,,35,"63,25,29,11,74,35,53,33,39,41,18,2,55,24,76,15,10,36,38,52,49,8,9,21,31,14,4,80,19,45,79,32,6,50,37,7",,,,,,,,,,
land,127,490253,0.0-40.0-2.0,,null,run_exp/static/images/task_images/land.jpg,null,,,,,,100,,,6,,,,,,,,,,,,,,
dig,128,492273,0.0-40.0-3.0,,,,,,,,,,,"[{""stimulus"":""run_exp/static/images/task_images/dig.jpg"",""time"":0.20000004768371582},{""stimulus"":""run_exp/static/images/task_images/land.jpg"",""time"":689.1000001430511},{""stimulus"":""run_exp/static/images/task_images/dig.jpg"",""time"":1338.4000000953674}]",[],6,,,,,,,,,,,,,,
harvest,129,493293,0.0-40.0-4.0,,null,run_exp/static/images/task_images/gems/100.jpg,null,,,,,,80,,,6,,,,,100,0.803009303,0.8,,,,,,,
decision,130,495185,0.0-40.0-5.0,,1890.4,run_exp/static/images/task_images/land.jpg,65,,,,,,80,,,6,,,,,,,,151666,1,0,FALSE,,,
dig,131,496313,0.0-41.0-0.0,,,,,,,,,,,"[{""stimulus"":""run_exp/static/images/task_images/dig.jpg"",""time"":0.19999980926513672},{""stimulus"":""run_exp/static/images/task_images/land.jpg"",""time"":385.19999980926514},{""stimulus"":""run_exp/static/images/task_images/dig.jpg"",""time"":746.0999999046326}]",[],6,,,,,,,,,,,,,,
harvest,132,497335,0.0-41.0-1.0,,null,run_exp/static/images/task_images/gems/80.jpg,null,,,,,,57,,,6,,,,,80,0.714288975,0.7125,,,,,,,
decision,133,497820,0.0-41.0-2.0,,482.8,run_exp/static/images/task_images/land.jpg,65,,,,,,57,,,6,,,,,,,,154301,1,1,FALSE,,,
dig,134,500343,0.0-42.0-0.0,,,,,,,,,,,"[{""stimulus"":""run_exp/static/images/task_images/dig.jpg"",""time"":0.19999980926513672},{""stimulus"":""run_exp/static/images/task_images/land.jpg"",""time"":850.0999999046326},{""stimulus"":""run_exp/static/images/task_images/dig.jpg"",""time"":1690.0999999046326}]",[],6,,,,,,,,,,,,,,
harvest,135,501364,0.0-42.0-1.0,,null,run_exp/static/images/task_images/gems/57.jpg,null,,,,,,46,,,6,,,,,57,0.810574272,0.807017544,,,,,,,
decision,136,501498,0.0-42.0-2.0,,133.0999999,run_exp/static/images/task_images/land.jpg,65,,,,,,46,,,6,,,,,,,,157979,1,2,FALSE,,,
dig,137,504374,0.0-43.0-0.0,,,,,,,,,,,"[{""stimulus"":""run_exp/static/images/task_images/dig.jpg"",""time"":0.20000004768371582},{""stimulus"":""run_exp/static/images/task_images/land.jpg"",""time"":971.8000001907349},{""stimulus"":""run_exp/static/images/task_images/dig.jpg"",""time"":1921.5}]",[],6,,,,,,,,,,,,,,
harvest,138,505395,0.0-43.0-1.0,,null,run_exp/static/images/task_images/gems/46.jpg,null,,,,,,39,,,6,,,,,46,0.84713066,0.847826087,,,,,,,
decision,139,505889,0.0-43.0-2.0,,492.3,run_exp/static/images/task_images/land.jpg,65,,,,,,39,,,6,,,,,,,,162370,1,3,FALSE,,,
dig,140,508413,0.0-44.0-0.0,,,,,,,,,,,"[{""stimulus"":""run_exp/static/images/task_images/dig.jpg"",""time"":0.40000009536743164},{""stimulus"":""run_exp/static/images/task_images/land.jpg"",""time"":841},{""stimulus"":""run_exp/static/images/task_images/dig.jpg"",""time"":1680.9000000953674}]",[],6,,,,,,,,,,,,,,
harvest,141,509423,0.0-44.0-1.0,,null,run_exp/static/images/task_images/gems/39.jpg,null,,,,,,30,,,6,,,,,39,0.758483944,0.769230769,,,,,,,
decision,142,509861,0.0-44.0-2.0,,435.8,run_exp/static/images/task_images/land.jpg,65,,,,,,30,,,6,,,,,,,,166342,1,4,FALSE,,,
dig,143,512433,0.0-45.0-0.0,,,,,,,,,,,"[{""stimulus"":""run_exp/static/images/task_images/dig.jpg"",""time"":0.09999990463256836},{""stimulus"":""run_exp/static/images/task_images/land.jpg"",""time"":859.5},{""stimulus"":""run_exp/static/images/task_images/dig.jpg"",""time"":1729.7000000476837}]",[],6,,,,,,,,,,,,,,
harvest,144,513453,0.0-45.0-1.0,,null,run_exp/static/images/task_images/gems/30.jpg,null,,,,,,24,,,6,,,,,30,0.798964475,0.8,,,,,,,
decision,145,513888,0.0-45.0-2.0,,433.7,run_exp/static/images/task_images/land.jpg,65,,,,,,24,,,6,,,,,,,,170369,1,5,FALSE,,,
dig,146,516473,0.0-46.0-0.0,,,,,,,,,,,"[{""stimulus"":""run_exp/static/images/task_images/dig.jpg"",""time"":0.19999980926513672},{""stimulus"":""run_exp/static/images/task_images/land.jpg"",""time"":863.5},{""stimulus"":""run_exp/static/images/task_images/dig.jpg"",""time"":1723.5}]",[],6,,,,,,,,,,,,,,
harvest,147,517481,0.0-46.0-1.0,,null,run_exp/static/images/task_images/gems/24.jpg,null,,,,,,20,,,6,,,,,24,0.843802617,0.833333333,,,,,,,
decision,148,518012,0.0-46.0-2.0,,529.8,run_exp/static/images/task_images/land.jpg,65,,,,,,20,,,6,,,,,,,,174493,1,6,FALSE,,,
dig,149,520489,0.0-47.0-0.0,,,,,,,,,,,"[{""stimulus"":""run_exp/static/images/task_images/dig.jpg"",""time"":0.20000004768371582},{""stimulus"":""run_exp/static/images/task_images/land.jpg"",""time"":836.8999998569489},{""stimulus"":""run_exp/static/images/task_images/dig.jpg"",""time"":1667.3999998569489}]",[],6,,,,,,,,,,,,,,
harvest,150,521493,0.0-47.0-1.0,,null,run_exp/static/images/task_images/gems/20.jpg,null,,,,,,16,,,6,,,,,20,0.81292107,0.8,,,,,,,
decision,151,521587,0.0-47.0-2.0,,91.9000001,run_exp/static/images/task_images/land.jpg,76,,,,,,16,,,6,,,,,,,,178068,1,7,TRUE,,,
travel,152,531504,0.0-48.0-0.0,,,,,,,,,,,"[{""stimulus"":""run_exp/static/images/task_images/rocket-01.jpg"",""time"":0.2999999523162842},{""stimulus"":""run_exp/static/images/task_images/rocket-02.jpg"",""time"":1103.5999999046326},{""stimulus"":""run_exp/static/images/task_images/rocket-03.jpg"",""time"":2203},{""stimulus"":""run_exp/static/images/task_images/rocket-04.jpg"",""time"":3303},{""stimulus"":""run_exp/static/images/task_images/rocket-05.jpg"",""time"":4403.299999952316},{""stimulus"":""run_exp/static/images/task_images/rocket-06.jpg"",""time"":5513.199999809265},{""stimulus"":""run_exp/static/images/task_images/rocket-07.jpg"",""time"":6602.699999809265},{""stimulus"":""run_exp/static/images/task_images/rocket-08.jpg"",""time"":7703.299999952316},{""stimulus"":""run_exp/static/images/task_images/rocket-09.jpg"",""time"":8803.299999952316}]",[],6,,,,,,,,,,,,,,
alien_welcome,153,536514,0.0-48.0-1.0,,null,run_exp/static/images/task_images/aliens/old_aliens/planet/alien_planet-53.jpg,null,,,,,,,,,,,,53,"63,25,29,11,74,35,53,33,39,41,18,2,55,24,76,15,10,36,38,52,49,8,9,21,31,14,4,80,19,45,79,32,6,50,37,7",,,,,,,,,,
land,154,537023,0.0-48.0-2.0,,null,run_exp/static/images/task_images/land.jpg,null,,,,,,92,,,7,,,,,,,,,,,,,,
dig,155,539034,0.0-48.0-3.0,,,,,,,,,,,"[{""stimulus"":""run_exp/static/images/task_images/dig.jpg"",""time"":0.20000004768371582},{""stimulus"":""run_exp/static/images/task_images/land.jpg"",""time"":688.3999998569489},{""stimulus"":""run_exp/static/images/task_images/dig.jpg"",""time"":1340.5}]",[],7,,,,,,,,,,,,,,
harvest,156,540053,0.0-48.0-4.0,,null,run_exp/static/images/task_images/gems/92.jpg,null,,,,,,72,,,7,,,,,92,0.780848351,0.782608696,,,,,,,
decision,157,540566,0.0-48.0-5.0,,511.3999999,run_exp/static/images/task_images/land.jpg,65,,,,,,72,,,7,,,,,,,,197047,1,0,FALSE,,,
dig,158,543074,0.0-49.0-0.0,,,,,,,,,,,"[{""stimulus"":""run_exp/static/images/task_images/dig.jpg"",""time"":0.20000004768371582},{""stimulus"":""run_exp/static/images/task_images/land.jpg"",""time"":846.6000001430511},{""stimulus"":""run_exp/static/images/task_images/dig.jpg"",""time"":1663.9000000953674}]",[],7,,,,,,,,,,,,,,
harvest,159,544083,0.0-49.0-1.0,,null,run_exp/static/images/task_images/gems/72.jpg,null,,,,,,63,,,7,,,,,72,0.877741782,0.875,,,,,,,
decision,160,544477,0.0-49.0-2.0,,392.4000001,run_exp/static/images/task_images/land.jpg,65,,,,,,63,,,7,,,,,,,,200958,1,1,FALSE,,,
dig,161,547104,0.0-50.0-0.0,,,,,,,,,,,"[{""stimulus"":""run_exp/static/images/task_images/dig.jpg"",""time"":0.2999999523162842},{""stimulus"":""run_exp/static/images/task_images/land.jpg"",""time"":883},{""stimulus"":""run_exp/static/images/task_images/dig.jpg"",""time"":1742.9000000953674}]",[],7,,,,,,,,,,,,,,
harvest,162,548114,0.0-50.0-1.0,,null,run_exp/static/images/task_images/gems/63.jpg,null,,,,,,47,,,7,,,,,63,0.751461096,0.746031746,,,,,,,
decision,163,548642,0.0-50.0-2.0,,526.7,run_exp/static/images/task_images/land.jpg,65,,,,,,47,,,7,,,,,,,,205123,1,2,FALSE,,,
dig,164,551134,0.0-51.0-0.0,,,,,,,,,,,"[{""stimulus"":""run_exp/static/images/task_images/dig.jpg"",""time"":0.19999980926513672},{""stimulus"":""run_exp/static/images/task_images/land.jpg"",""time"":827.6999998092651},{""stimulus"":""run_exp/static/images/task_images/dig.jpg"",""time"":1667.5999999046326}]",[],7,,,,,,,,,,,,,,
harvest,165,552143,0.0-51.0-1.0,,null,run_exp/static/images/task_images/gems/47.jpg,null,,,,,,37,,,7,,,,,47,0.778552889,0.787234043,,,,,,,
decision,166,552626,0.0-51.0-2.0,,480.9000001,run_exp/static/images/task_images/land.jpg,65,,,,,,37,,,7,,,,,,,,209107,1,3,FALSE,,,
dig,167,555164,0.0-52.0-0.0,,,,,,,,,,,"[{""stimulus"":""run_exp/static/images/task_images/dig.jpg"",""time"":0.39999985694885254},{""stimulus"":""run_exp/static/images/task_images/land.jpg"",""time"":849.1999998092651},{""stimulus"":""run_exp/static/images/task_images/dig.jpg"",""time"":1699.0999999046326}]",[],7,,,,,,,,,,,,,,
harvest,168,556183,0.0-52.0-1.0,,null,run_exp/static/images/task_images/gems/37.jpg,null,,,,,,30,,,7,,,,,37,0.812495799,0.810810811,,,,,,,
decision,169,556866,0.0-52.0-2.0,,679.8,run_exp/static/images/task_images/land.jpg,65,,,,,,30,,,7,,,,,,,,213347,1,4,FALSE,,,
dig,170,559196,0.0-53.0-0.0,,,,,,,,,,,"[{""stimulus"":""run_exp/static/images/task_images/dig.jpg"",""time"":0.2999999523162842},{""stimulus"":""run_exp/static/images/task_images/land.jpg"",""time"":783.3999998569489},{""stimulus"":""run_exp/static/images/task_images/dig.jpg"",""time"":1563.3999998569489}]",[],7,,,,,,,,,,,,,,
harvest,171,560204,0.0-53.0-1.0,,null,run_exp/static/images/task_images/gems/30.jpg,null,,,,,,24,,,7,,,,,30,0.804275235,0.8,,,,,,,
decision,172,560592,0.0-53.0-2.0,,386.5,run_exp/static/images/task_images/land.jpg,65,,,,,,24,,,7,,,,,,,,217073,1,5,FALSE,,,
dig,173,563215,0.0-54.0-0.0,,,,,,,,,,,"[{""stimulus"":""run_exp/static/images/task_images/dig.jpg"",""time"":0.20000004768371582},{""stimulus"":""run_exp/static/images/task_images/land.jpg"",""time"":877.9000000953674},{""stimulus"":""run_exp/static/images/task_images/dig.jpg"",""time"":1757.9000000953674}]",[],7,,,,,,,,,,,,,,
harvest,174,564223,0.0-54.0-1.0,,null,run_exp/static/images/task_images/gems/24.jpg,null,,,,,,21,,,7,,,,,24,0.8786116,0.875,,,,,,,
decision,175,564594,0.0-54.0-2.0,,369.8,run_exp/static/images/task_images/land.jpg,65,,,,,,21,,,7,,,,,,,,221075,1,6,FALSE,,,
dig,176,567233,0.0-55.0-0.0,,,,,,,,,,,"[{""stimulus"":""run_exp/static/images/task_images/dig.jpg"",""time"":0.20000004768371582},{""stimulus"":""run_exp/static/images/task_images/land.jpg"",""time"":896.5},{""stimulus"":""run_exp/static/images/task_images/dig.jpg"",""time"":1766.8000001907349}]",[],7,,,,,,,,,,,,,,
harvest,177,568243,0.0-55.0-1.0,,null,run_exp/static/images/task_images/gems/21.jpg,null,,,,,,16,,,7,,,,,21,0.771418538,0.761904762,,,,,,,
decision,178,568668,0.0-55.0-2.0,,423.2,run_exp/static/images/task_images/land.jpg,76,,,,,,16,,,7,,,,,,,,225150,1,7,TRUE,,,
travel,179,578253,0.0-56.0-0.0,,,,,,,,,,,"[{""stimulus"":""run_exp/static/images/task_images/rocket-01.jpg"",""time"":0.09999990463256836},{""stimulus"":""run_exp/static/images/task_images/rocket-02.jpg"",""time"":1071.4000000953674},{""stimulus"":""run_exp/static/images/task_images/rocket-03.jpg"",""time"":2136.5999999046326},{""stimulus"":""run_exp/static/images/task_images/rocket-04.jpg"",""time"":3211},{""stimulus"":""run_exp/static/images/task_images/rocket-05.jpg"",""time"":4261.099999904633},{""stimulus"":""run_exp/static/images/task_images/rocket-06.jpg"",""time"":5321.400000095367},{""stimulus"":""run_exp/static/images/task_images/rocket-07.jpg"",""time"":6391.5},{""stimulus"":""run_exp/static/images/task_images/rocket-08.jpg"",""time"":7461.299999952316},{""stimulus"":""run_exp/static/images/task_images/rocket-09.jpg"",""time"":8522.599999904633}]",[],7,,,,,,,,,,,,,,
alien_welcome,180,583274,0.0-56.0-1.0,,null,run_exp/static/images/task_images/aliens/old_aliens/planet/alien_planet-33.jpg,null,,,,,,,,,,,,33,"63,25,29,11,74,35,53,33,39,41,18,2,55,24,76,15,10,36,38,52,49,8,9,21,31,14,4,80,19,45,79,32,6,50,37,7",,,,,,,,,,
land,181,583783,0.0-56.0-2.0,,null,run_exp/static/images/task_images/land.jpg,null,,,,,,106,,,8,,,,,,,,,,,,,,
dig,182,585794,0.0-56.0-3.0,,,,,,,,,,,"[{""stimulus"":""run_exp/static/images/task_images/dig.jpg"",""time"":0.39999985694885254},{""stimulus"":""run_exp/static/images/task_images/land.jpg"",""time"":678.5},{""stimulus"":""run_exp/static/images/task_images/dig.jpg"",""time"":1344}]",[],8,,,,,,,,,,,,,,
harvest,183,586813,0.0-56.0-4.0,,null,run_exp/static/images/task_images/gems/106.jpg,null,,,,,,89,,,8,,,,,106,0.838818044,0.839622642,,,,,,,
decision,184,587269,0.0-56.0-5.0,,453.9000001,run_exp/static/images/task_images/land.jpg,65,,,,,,89,,,8,,,,,,,,243750,1,0,FALSE,,,
dig,185,589823,0.0-57.0-0.0,,,,,,,,,,,"[{""stimulus"":""run_exp/static/images/task_images/dig.jpg"",""time"":0.19999980926513672},{""stimulus"":""run_exp/static/images/task_images/land.jpg"",""time"":861},{""stimulus"":""run_exp/static/images/task_images/dig.jpg"",""time"":1701.1999998092651}]",[],8,,,,,,,,,,,,,,
harvest,186,590843,0.0-57.0-1.0,,null,run_exp/static/images/task_images/gems/89.jpg,null,,,,,,73,,,8,,,,,89,0.821479537,0.820224719,,,,,,,
decision,187,591279,0.0-57.0-2.0,,433.8,run_exp/static/images/task_images/land.jpg,65,,,,,,73,,,8,,,,,,,,247760,1,1,FALSE,,,
dig,188,593853,0.0-58.0-0.0,,,,,,,,,,,"[{""stimulus"":""run_exp/static/images/task_images/dig.jpg"",""time"":0.20000004768371582},{""stimulus"":""run_exp/static/images/task_images/land.jpg"",""time"":871.2999999523163},{""stimulus"":""run_exp/static/images/task_images/dig.jpg"",""time"":1731.2000000476837}]",[],8,,,,,,,,,,,,,,
harvest,189,594863,0.0-58.0-1.0,,null,run_exp/static/images/task_images/gems/73.jpg,null,,,,,,57,,,8,,,,,73,0.785988057,0.780821918,,,,,,,
decision,190,595289,0.0-58.0-2.0,,423.5,run_exp/static/images/task_images/land.jpg,65,,,,,,57,,,8,,,,,,,,251770,1,2,FALSE,,,
dig,191,597873,0.0-59.0-0.0,,,,,,,,,,,"[{""stimulus"":""run_exp/static/images/task_images/dig.jpg"",""time"":0.20000004768371582},{""stimulus"":""run_exp/static/images/task_images/land.jpg"",""time"":870.5999999046326},{""stimulus"":""run_exp/static/images/task_images/dig.jpg"",""time"":1729.7999999523163}]",[],8,,,,,,,,,,,,,,
harvest,192,598884,0.0-59.0-1.0,,null,run_exp/static/images/task_images/gems/57.jpg,null,,,,,,47,,,8,,,,,57,0.828469845,0.824561404,,,,,,,
decision,193,599414,0.0-59.0-2.0,,528.3999999,run_exp/static/images/task_images/land.jpg,65,,,,,,47,,,8,,,,,,,,255895,1,3,FALSE,,,
dig,194,601903,0.0-60.0-0.0,,,,,,,,,,,"[{""stimulus"":""run_exp/static/images/task_images/dig.jpg"",""time"":0.09999990463256836},{""stimulus"":""run_exp/static/images/task_images/land.jpg"",""time"":836.5999999046326},{""stimulus"":""run_exp/static/images/task_images/dig.jpg"",""time"":1656.8999998569489}]",[],8,,,,,,,,,,,,,,
harvest,195,602913,0.0-60.0-1.0,,null,run_exp/static/images/task_images/gems/47.jpg,null,,,,,,36,,,8,,,,,47,0.759623064,0.765957447,,,,,,,
decision,196,603302,0.0-60.0-2.0,,387.3,run_exp/static/images/task_images/land.jpg,65,,,,,,36,,,8,,,,,,,,259783,1,4,FALSE,,,
dig,197,605934,0.0-61.0-0.0,,,,,,,,,,,"[{""stimulus"":""run_exp/static/images/task_images/dig.jpg"",""time"":0.09999990463256836},{""stimulus"":""run_exp/static/images/task_images/land.jpg"",""time"":888.0999999046326},{""stimulus"":""run_exp/static/images/task_images/dig.jpg"",""time"":1748.2000000476837}]",[],8,,,,,,,,,,,,,,
harvest,198,606943,0.0-61.0-1.0,,null,run_exp/static/images/task_images/gems/36.jpg,null,,,,,,31,,,8,,,,,36,0.874061357,0.861111111,,,,,,,
decision,199,607386,0.0-61.0-2.0,,441.2,run_exp/static/images/task_images/land.jpg,65,,,,,,31,,,8,,,,,,,,263867,1,5,FALSE,,,
dig,200,609953,0.0-62.0-0.0,,,,,,,,,,,"[{""stimulus"":""run_exp/static/images/task_images/dig.jpg"",""time"":0.2999999523162842},{""stimulus"":""run_exp/static/images/task_images/land.jpg"",""time"":872.6999998092651},{""stimulus"":""run_exp/static/images/task_images/dig.jpg"",""time"":1722.6999998092651}]",[],8,,,,,,,,,,,,,,
harvest,201,610974,0.0-62.0-1.0,,null,run_exp/static/images/task_images/gems/31.jpg,null,,,,,,26,,,8,,,,,31,0.845134562,0.838709677,,,,,,,
decision,202,611808,0.0-62.0-2.0,,833.0999999,run_exp/static/images/task_images/land.jpg,65,,,,,,26,,,8,,,,,,,,268289,1,6,FALSE,,,
dig,203,613983,0.0-63.0-0.0,,,,,,,,,,,"[{""stimulus"":""run_exp/static/images/task_images/dig.jpg"",""time"":0.2999999523162842},{""stimulus"":""run_exp/static/images/task_images/land.jpg"",""time"":744.3999998569489},{""stimulus"":""run_exp/static/images/task_images/dig.jpg"",""time"":1461.8999998569489}]",[],8,,,,,,,,,,,,,,
harvest,204,614994,0.0-63.0-1.0,,null,run_exp/static/images/task_images/gems/26.jpg,null,,,,,,18,,,8,,,,,26,0.702817971,0.692307692,,,,,,,
decision,205,615834,0.0-63.0-2.0,,839.3,run_exp/static/images/task_images/land.jpg,65,,,,,,18,,,8,,,,,,,,272315,1,7,FALSE,,,
dig,206,618014,0.0-64.0-0.0,,,,,,,,,,,"[{""stimulus"":""run_exp/static/images/task_images/dig.jpg"",""time"":0.20000004768371582},{""stimulus"":""run_exp/static/images/task_images/land.jpg"",""time"":736},{""stimulus"":""run_exp/static/images/task_images/dig.jpg"",""time"":1455.7999999523163}]",[],8,,,,,,,,,,,,,,
harvest,207,619033,0.0-64.0-1.0,,null,run_exp/static/images/task_images/gems/18.jpg,null,,,,,,14,,,8,,,,,18,0.777324769,0.777777778,,,,,,,
decision,208,619262,0.0-64.0-2.0,,227.8000002,run_exp/static/images/task_images/land.jpg,76,,,,,,14,,,8,,,,,,,,275743,1,8,TRUE,,,
travel,209,629033,0.0-65.0-0.0,,,,,,,,,,,"[{""stimulus"":""run_exp/static/images/task_images/rocket-01.jpg"",""time"":0.09999990463256836},{""stimulus"":""run_exp/static/images/task_images/rocket-02.jpg"",""time"":1089.2999999523163},{""stimulus"":""run_exp/static/images/task_images/rocket-03.jpg"",""time"":2189.0999999046326},{""stimulus"":""run_exp/static/images/task_images/rocket-04.jpg"",""time"":3259.2999999523163},{""stimulus"":""run_exp/static/images/task_images/rocket-05.jpg"",""time"":4349.200000047684},{""stimulus"":""run_exp/static/images/task_images/rocket-06.jpg"",""time"":5429.099999904633},{""stimulus"":""run_exp/static/images/task_images/rocket-07.jpg"",""time"":6529.299999952316},{""stimulus"":""run_exp/static/images/task_images/rocket-08.jpg"",""time"":7599.399999856949},{""stimulus"":""run_exp/static/images/task_images/rocket-09.jpg"",""time"":8699.099999904633}]",[],8,,,,,,,,,,,,,,
alien_welcome,210,634044,0.0-65.0-1.0,,null,run_exp/static/images/task_images/aliens/old_aliens/planet/alien_planet-39.jpg,null,,,,,,,,,,,,39,"63,25,29,11,74,35,53,33,39,41,18,2,55,24,76,15,10,36,38,52,49,8,9,21,31,14,4,80,19,45,79,32,6,50,37,7",,,,,,,,,,
land,211,634563,0.0-65.0-2.0,,null,run_exp/static/images/task_images/land.jpg,null,,,,,,104,,,9,,,,,,,,,,,,,,
dig,212,636573,0.0-65.0-3.0,,,,,,,,,,,"[{""stimulus"":""run_exp/static/images/task_images/dig.jpg"",""time"":0.20000004768371582},{""stimulus"":""run_exp/static/images/task_images/land.jpg"",""time"":668.5999999046326},{""stimulus"":""run_exp/static/images/task_images/dig.jpg"",""time"":1339}]",[],9,,,,,,,,,,,,,,
harvest,213,637583,0.0-65.0-4.0,,null,run_exp/static/images/task_images/gems/104.jpg,null,,,,,,24,,,9,,,,,104,0.227586658,0.230769231,,,,,,,
decision,214,638314,0.0-65.0-5.0,,728.7,run_exp/static/images/task_images/land.jpg,65,,,,,,24,,,9,,,,,,,,294795,1,0,FALSE,,,
dig,215,640603,0.0-66.0-0.0,,,,,,,,,,,"[{""stimulus"":""run_exp/static/images/task_images/dig.jpg"",""time"":0.2999999523162842},{""stimulus"":""run_exp/static/images/task_images/land.jpg"",""time"":775.5},{""stimulus"":""run_exp/static/images/task_images/dig.jpg"",""time"":1525.5}]",[],9,,,,,,,,,,,,,,
harvest,216,641624,0.0-66.0-1.0,,null,run_exp/static/images/task_images/gems/24.jpg,null,,,,,,5,,,9,,,,,24,0.217759642,0.208333333,,,,,,,
decision,217,642485,0.0-66.0-2.0,,860.2,run_exp/static/images/task_images/land.jpg,65,,,,,,5,,,9,,,,,,,,298967,1,1,FALSE,,,
dig,218,644634,0.0-67.0-0.0,,,,,,,,,,,"[{""stimulus"":""run_exp/static/images/task_images/dig.jpg"",""time"":0.09999990463256836},{""stimulus"":""run_exp/static/images/task_images/land.jpg"",""time"":734.8999998569489},{""stimulus"":""run_exp/static/images/task_images/dig.jpg"",""time"":1434.5999999046326}]",[],9,,,,,,,,,,,,,,
harvest,219,645654,0.0-67.0-1.0,,null,run_exp/static/images/task_images/gems/5.jpg,null,,,,,,1,,,9,,,,,5,0.172747362,0.2,,,,,,,
decision,220,646041,0.0-67.0-2.0,,385.3000002,run_exp/static/images/task_images/land.jpg,76,,,,,,1,,,9,,,,,,,,302522,1,2,TRUE,,,
end_of_block_continue,221,654895,0.0-68.0-0.0,,null,run_exp/static/audio/clip_32_block_end.m4a,,,,,,null,,,,,,,,,,,,,,,,,,
alien_welcome,222,659905,0.0-69.0-0.0,,null,run_exp/static/images/task_images/aliens/old_aliens/planet/alien_planet-41.jpg,null,,,,,,,,,,,,41,"63,25,29,11,74,35,53,33,39,41,18,2,55,24,76,15,10,36,38,52,49,8,9,21,31,14,4,80,19,45,79,32,6,50,37,7",,,,,,,,,,
land,223,660414,0.0-69.0-1.0,,null,run_exp/static/images/task_images/land.jpg,null,,,,,,95,,,10,,,,,,,,,,,,,,
dig,224,662424,0.0-69.0-2.0,,,,,,,,,,,"[{""stimulus"":""run_exp/static/images/task_images/dig.jpg"",""time"":0.20000004768371582},{""stimulus"":""run_exp/static/images/task_images/land.jpg"",""time"":669},{""stimulus"":""run_exp/static/images/task_images/dig.jpg"",""time"":1339.2999999523163}]",[],10,,,,,,,,,,,,,,
harvest,225,663433,0.0-69.0-3.0,,null,run_exp/static/images/task_images/gems/95.jpg,null,,,,,,30,,,10,,,,,95,0.320894442,0.315789474,,,,,,,
decision,226,664012,0.0-69.0-4.0,,577.0999999,run_exp/static/images/task_images/land.jpg,65,,,,,,30,,,10,,,,,,,,9114,2,0,FALSE,,,
dig,227,666444,0.0-70.0-0.0,,,,,,,,,,,"[{""stimulus"":""run_exp/static/images/task_images/dig.jpg"",""time"":0.20000004768371582},{""stimulus"":""run_exp/static/images/task_images/land.jpg"",""time"":811.2000000476837},{""stimulus"":""run_exp/static/images/task_images/dig.jpg"",""time"":1628.6000001430511}]",[],10,,,,,,,,,,,,,,
harvest,228,667464,0.0-70.0-1.0,,null,run_exp/static/images/task_images/gems/30.jpg,null,,,,,,5,,,10,,,,,30,0.167261637,0.166666667,,,,,,,
decision,229,668011,0.0-70.0-2.0,,545.6000001,run_exp/static/images/task_images/land.jpg,65,,,,,,5,,,10,,,,,,,,13113,2,1,FALSE,,,
dig,230,670474,0.0-71.0-0.0,,,,,,,,,,,"[{""stimulus"":""run_exp/static/images/task_images/dig.jpg"",""time"":0.3000001907348633},{""stimulus"":""run_exp/static/images/task_images/land.jpg"",""time"":830.1000001430511},{""stimulus"":""run_exp/static/images/task_images/dig.jpg"",""time"":1648.7000000476837}]",[],10,,,,,,,,,,,,,,
harvest,231,671493,0.0-71.0-1.0,,null,run_exp/static/images/task_images/gems/5.jpg,null,,,,,,1,,,10,,,,,5,0.204135718,0.2,,,,,,,
decision,232,671537,0.0-71.0-2.0,,42.0999999,run_exp/static/images/task_images/land.jpg,76,,,,,,1,,,10,,,,,,,,16639,2,2,TRUE,,,
travel,233,681502,0.0-72.0-0.0,,,,,,,,,,,"[{""stimulus"":""run_exp/static/images/task_images/rocket-01.jpg"",""time"":0.20000004768371582},{""stimulus"":""run_exp/static/images/task_images/rocket-02.jpg"",""time"":1123.1000001430511},{""stimulus"":""run_exp/static/images/task_images/rocket-03.jpg"",""time"":2232.9000000953674},{""stimulus"":""run_exp/static/images/task_images/rocket-04.jpg"",""time"":3333.4000000953674},{""stimulus"":""run_exp/static/images/task_images/rocket-05.jpg"",""time"":4433.200000047684},{""stimulus"":""run_exp/static/images/task_images/rocket-06.jpg"",""time"":5533.300000190735},{""stimulus"":""run_exp/static/images/task_images/rocket-07.jpg"",""time"":6653.700000047684},{""stimulus"":""run_exp/static/images/task_images/rocket-08.jpg"",""time"":7753.400000095367},{""stimulus"":""run_exp/static/images/task_images/rocket-09.jpg"",""time"":8853.200000047684}]",[],10,,,,,,,,,,,,,,
alien_welcome,234,686523,0.0-72.0-1.0,,null,run_exp/static/images/task_images/aliens/old_aliens/planet/alien_planet-18.jpg,null,,,,,,,,,,,,18,"63,25,29,11,74,35,53,33,39,41,18,2,55,24,76,15,10,36,38,52,49,8,9,21,31,14,4,80,19,45,79,32,6,50,37,7",,,,,,,,,,
land,235,687043,0.0-72.0-2.0,,null,run_exp/static/images/task_images/land.jpg,null,,,,,,101,,,11,,,,,,,,,,,,,,
dig,236,689065,0.0-72.0-3.0,,,,,,,,,,,"[{""stimulus"":""run_exp/static/images/task_images/dig.jpg"",""time"":0.2999999523162842},{""stimulus"":""run_exp/static/images/task_images/land.jpg"",""time"":678.7999999523163},{""stimulus"":""run_exp/static/images/task_images/dig.jpg"",""time"":1338.4000000953674}]",[],11,,,,,,,,,,,,,,
harvest,237,690073,0.0-72.0-4.0,,null,run_exp/static/images/task_images/gems/101.jpg,null,,,,,,22,,,11,,,,,101,0.220002956,0.217821782,,,,,,,
decision,238,690419,0.0-72.0-5.0,,344.3,run_exp/static/images/task_images/land.jpg,65,,,,,,22,,,11,,,,,,,,35521,2,0,FALSE,,,
dig,239,693083,0.0-73.0-0.0,,,,,,,,,,,"[{""stimulus"":""run_exp/static/images/task_images/dig.jpg"",""time"":0},{""stimulus"":""run_exp/static/images/task_images/land.jpg"",""time"":900.5999999046326},{""stimulus"":""run_exp/static/images/task_images/dig.jpg"",""time"":1790.7999999523163}]",[],11,,,,,,,,,,,,,,
harvest,240,694103,0.0-73.0-1.0,,null,run_exp/static/images/task_images/gems/22.jpg,null,,,,,,4,,,11,,,,,22,0.185861515,0.181818182,,,,,,,
decision,241,695005,0.0-73.0-2.0,,901,run_exp/static/images/task_images/land.jpg,65,,,,,,4,,,11,,,,,,,,40107,2,1,FALSE,,,
dig,242,697123,0.0-74.0-0.0,,,,,,,,,,,"[{""stimulus"":""run_exp/static/images/task_images/dig.jpg"",""time"":0.10000014305114746},{""stimulus"":""run_exp/static/images/task_images/land.jpg"",""time"":706.2000000476837},{""stimulus"":""run_exp/static/images/task_images/dig.jpg"",""time"":1416.2000000476837}]",[],11,,,,,,,,,,,,,,
harvest,243,698143,0.0-74.0-1.0,,null,run_exp/static/images/task_images/gems/4.jpg,null,,,,,,1,,,11,,,,,4,0.152090216,0.25,,,,,,,
decision,244,698460,0.0-74.0-2.0,,314.8,run_exp/static/images/task_images/land.jpg,76,,,,,,1,,,11,,,,,,,,43562,2,2,TRUE,,,
travel,245,708163,0.0-75.0-0.0,,,,,,,,,,,"[{""stimulus"":""run_exp/static/images/task_images/rocket-01.jpg"",""time"":0.20000004768371582},{""stimulus"":""run_exp/static/images/task_images/rocket-02.jpg"",""time"":1078.9000000953674},{""stimulus"":""run_exp/static/images/task_images/rocket-03.jpg"",""time"":2168.9000000953674},{""stimulus"":""run_exp/static/images/task_images/rocket-04.jpg"",""time"":3241.4000000953674},{""stimulus"":""run_exp/static/images/task_images/rocket-05.jpg"",""time"":4319.099999904633},{""stimulus"":""run_exp/static/images/task_images/rocket-06.jpg"",""time"":5398.700000047684},{""stimulus"":""run_exp/static/images/task_images/rocket-07.jpg"",""time"":6459.200000047684},{""stimulus"":""run_exp/static/images/task_images/rocket-08.jpg"",""time"":7549.099999904633},{""stimulus"":""run_exp/static/images/task_images/rocket-09.jpg"",""time"":8618.5}]",[],11,,,,,,,,,,,,,,
alien_welcome,246,713184,0.0-75.0-1.0,,null,run_exp/static/images/task_images/aliens/old_aliens/planet/alien_planet-2.jpg,null,,,,,,,,,,,,2,"63,25,29,11,74,35,53,33,39,41,18,2,55,24,76,15,10,36,38,52,49,8,9,21,31,14,4,80,19,45,79,32,6,50,37,7",,,,,,,,,,
land,247,713703,0.0-75.0-2.0,,null,run_exp/static/images/task_images/land.jpg,null,,,,,,104,,,12,,,,,,,,,,,,,,
dig,248,715708,0.0-75.0-3.0,,,,,,,,,,,"[{""stimulus"":""run_exp/static/images/task_images/dig.jpg"",""time"":0.20000004768371582},{""stimulus"":""run_exp/static/images/task_images/land.jpg"",""time"":688.4000000953674},{""stimulus"":""run_exp/static/images/task_images/dig.jpg"",""time"":1338.7000000476837}]",[],12,,,,,,,,,,,,,,
harvest,249,716713,0.0-75.0-4.0,,null,run_exp/static/images/task_images/gems/104.jpg,null,,,,,,20,,,12,,,,,104,0.194073654,0.192307692,,,,,,,
decision,250,717100,0.0-75.0-5.0,,384.9000001,run_exp/static/images/task_images/land.jpg,65,,,,,,20,,,12,,,,,,,,62202,2,0,FALSE,,,
dig,251,719733,0.0-76.0-0.0,,,,,,,,,,,"[{""stimulus"":""run_exp/static/images/task_images/dig.jpg"",""time"":0.09999990463256836},{""stimulus"":""run_exp/static/images/task_images/land.jpg"",""time"":885.3999998569489},{""stimulus"":""run_exp/static/images/task_images/dig.jpg"",""time"":1749.7999999523163}]",[],12,,,,,,,,,,,,,,
harvest,252,720753,0.0-76.0-1.0,,null,run_exp/static/images/task_images/gems/20.jpg,null,,,,,,5,,,12,,,,,20,0.229329245,0.25,,,,,,,
decision,253,721088,0.0-76.0-2.0,,333.3,run_exp/static/images/task_images/land.jpg,65,,,,,,5,,,12,,,,,,,,66190,2,1,FALSE,,,
dig,254,723763,0.0-77.0-0.0,,,,,,,,,,,"[{""stimulus"":""run_exp/static/images/task_images/dig.jpg"",""time"":0.2999999523162842},{""stimulus"":""run_exp/static/images/task_images/land.jpg"",""time"":890.7999999523163},{""stimulus"":""run_exp/static/images/task_images/dig.jpg"",""time"":1790.9000000953674}]",[],12,,,,,,,,,,,,,,
harvest,255,724773,0.0-77.0-1.0,,null,run_exp/static/images/task_images/gems/5.jpg,null,,,,,,1,,,12,,,,,5,0.221925802,0.2,,,,,,,
decision,256,725030,0.0-77.0-2.0,,256.1000001,run_exp/static/images/task_images/land.jpg,76,,,,,,1,,,12,,,,,,,,70133,2,2,TRUE,,,
travel,257,734783,0.0-78.0-0.0,,,,,,,,,,,"[{""stimulus"":""run_exp/static/images/task_images/rocket-01.jpg"",""time"":0.09999990463256836},{""stimulus"":""run_exp/static/images/task_images/rocket-02.jpg"",""time"":1100.7999999523163},{""stimulus"":""run_exp/static/images/task_images/rocket-03.jpg"",""time"":2170.7999999523163},{""stimulus"":""run_exp/static/images/task_images/rocket-04.jpg"",""time"":3260.399999856949},{""stimulus"":""run_exp/static/images/task_images/rocket-05.jpg"",""time"":4330.5},{""stimulus"":""run_exp/static/images/task_images/rocket-06.jpg"",""time"":5430.799999952316},{""stimulus"":""run_exp/static/images/task_images/rocket-07.jpg"",""time"":6510.899999856949},{""stimulus"":""run_exp/static/images/task_images/rocket-08.jpg"",""time"":7580.599999904633},{""stimulus"":""run_exp/static/images/task_images/rocket-09.jpg"",""time"":8670.799999952316}]",[],12,,,,,,,,,,,,,,
alien_welcome,258,739793,0.0-78.0-1.0,,null,run_exp/static/images/task_images/aliens/old_aliens/planet/alien_planet-55.jpg,null,,,,,,,,,,,,55,"63,25,29,11,74,35,53,33,39,41,18,2,55,24,76,15,10,36,38,52,49,8,9,21,31,14,4,80,19,45,79,32,6,50,37,7",,,,,,,,,,
land,259,740303,0.0-78.0-2.0,,null,run_exp/static/images/task_images/land.jpg,null,,,,,,88,,,13,,,,,,,,,,,,,,
dig,260,742323,0.0-78.0-3.0,,,,,,,,,,,"[{""stimulus"":""run_exp/static/images/task_images/dig.jpg"",""time"":0.20000004768371582},{""stimulus"":""run_exp/static/images/task_images/land.jpg"",""time"":688.4000000953674},{""stimulus"":""run_exp/static/images/task_images/dig.jpg"",""time"":1335.7999999523163}]",[],13,,,,,,,,,,,,,,
harvest,261,743333,0.0-78.0-4.0,,null,run_exp/static/images/task_images/gems/88.jpg,null,,,,,,69,,,13,,,,,88,0.783540213,0.784090909,,,,,,,
decision,262,744063,0.0-78.0-5.0,,728.5,run_exp/static/images/task_images/land.jpg,65,,,,,,69,,,13,,,,,,,,89165,2,0,FALSE,,,
dig,263,746343,0.0-79.0-0.0,,,,,,,,,,,"[{""stimulus"":""run_exp/static/images/task_images/dig.jpg"",""time"":0.2999999523162842},{""stimulus"":""run_exp/static/images/task_images/land.jpg"",""time"":765.7000000476837},{""stimulus"":""run_exp/static/images/task_images/dig.jpg"",""time"":1515.7000000476837}]",[],13,,,,,,,,,,,,,,
harvest,264,747354,0.0-79.0-1.0,,null,run_exp/static/images/task_images/gems/69.jpg,null,,,,,,49,,,13,,,,,69,0.709695186,0.710144928,,,,,,,
decision,265,747904,0.0-79.0-2.0,,548.2,run_exp/static/images/task_images/land.jpg,65,,,,,,49,,,13,,,,,,,,93006,2,1,FALSE,,,
dig,266,750363,0.0-80.0-0.0,,,,,,,,,,,"[{""stimulus"":""run_exp/static/images/task_images/dig.jpg"",""time"":0.2999999523162842},{""stimulus"":""run_exp/static/images/task_images/land.jpg"",""time"":824.7999999523163},{""stimulus"":""run_exp/static/images/task_images/dig.jpg"",""time"":1644.7999999523163}]",[],13,,,,,,,,,,,,,,
harvest,267,751386,0.0-80.0-1.0,,null,run_exp/static/images/task_images/gems/49.jpg,null,,,,,,42,,,13,,,,,49,0.862848992,0.857142857,,,,,,,
decision,268,751835,0.0-80.0-2.0,,447,run_exp/static/images/task_images/land.jpg,65,,,,,,42,,,13,,,,,,,,96937,2,2,FALSE,,,
dig,269,754403,0.0-81.0-0.0,,,,,,,,,,,"[{""stimulus"":""run_exp/static/images/task_images/dig.jpg"",""time"":0.09999990463256836},{""stimulus"":""run_exp/static/images/task_images/land.jpg"",""time"":863.5},{""stimulus"":""run_exp/static/images/task_images/dig.jpg"",""time"":1712.4000000953674}]",[],13,,,,,,,,,,,,,,
harvest,270,755421,0.0-81.0-1.0,,null,run_exp/static/images/task_images/gems/42.jpg,null,,,,,,32,,,13,,,,,42,0.761544963,0.761904762,,,,,,,
decision,271,756332,0.0-81.0-2.0,,909.5,run_exp/static/images/task_images/land.jpg,65,,,,,,32,,,13,,,,,,,,101434,2,3,FALSE,,,
dig,272,758433,0.0-82.0-0.0,,,,,,,,,,,"[{""stimulus"":""run_exp/static/images/task_images/dig.jpg"",""time"":0.09999990463256836},{""stimulus"":""run_exp/static/images/task_images/land.jpg"",""time"":707.0999999046326},{""stimulus"":""run_exp/static/images/task_images/dig.jpg"",""time"":1396.0999999046326}]",[],13,,,,,,,,,,,,,,
harvest,273,759444,0.0-82.0-1.0,,null,run_exp/static/images/task_images/gems/32.jpg,null,,,,,,24,,,13,,,,,32,0.746983309,0.75,,,,,,,
decision,274,760084,0.0-82.0-2.0,,638.5999999,run_exp/static/images/task_images/land.jpg,65,,,,,,24,,,13,,,,,,,,105186,2,4,FALSE,,,
dig,275,762463,0.0-83.0-0.0,,,,,,,,,,,"[{""stimulus"":""run_exp/static/images/task_images/dig.jpg"",""time"":0.10000014305114746},{""stimulus"":""run_exp/static/images/task_images/land.jpg"",""time"":802.6000001430511},{""stimulus"":""run_exp/static/images/task_images/dig.jpg"",""time"":1582.4000000953674}]",[],13,,,,,,,,,,,,,,
harvest,276,763483,0.0-83.0-1.0,,null,run_exp/static/images/task_images/gems/24.jpg,null,,,,,,21,,,13,,,,,24,0.857555508,0.875,,,,,,,
decision,277,764243,0.0-83.0-2.0,,757.5999999,run_exp/static/images/task_images/land.jpg,65,,,,,,21,,,13,,,,,,,,109345,2,5,FALSE,,,
dig,278,766493,0.0-84.0-0.0,,,,,,,,,,,"[{""stimulus"":""run_exp/static/images/task_images/dig.jpg"",""time"":0.09999990463256836},{""stimulus"":""run_exp/static/images/task_images/land.jpg"",""time"":756},{""stimulus"":""run_exp/static/images/task_images/dig.jpg"",""time"":1506.2999999523163}]",[],13,,,,,,,,,,,,,,
harvest,279,767513,0.0-84.0-1.0,,null,run_exp/static/images/task_images/gems/21.jpg,null,,,,,,17,,,13,,,,,21,0.804873989,0.80952381,,,,,,,
decision,280,767908,0.0-84.0-2.0,,393.9000001,run_exp/static/images/task_images/land.jpg,65,,,,,,17,,,13,,,,,,,,113010,2,6,FALSE,,,
dig,281,770523,0.0-85.0-0.0,,,,,,,,,,,"[{""stimulus"":""run_exp/static/images/task_images/dig.jpg"",""time"":0.09999990463256836},{""stimulus"":""run_exp/static/images/task_images/land.jpg"",""time"":882.5},{""stimulus"":""run_exp/static/images/task_images/dig.jpg"",""time"":1755}]",[],13,,,,,,,,,,,,,,
harvest,282,771543,0.0-85.0-1.0,,null,run_exp/static/images/task_images/gems/17.jpg,null,,,,,,12,,,13,,,,,17,0.718232616,0.705882353,,,,,,,
decision,283,771771,0.0-85.0-2.0,,225.6000001,run_exp/static/images/task_images/land.jpg,76,,,,,,12,,,13,,,,,,,,116873,2,7,TRUE,,,
travel,284,781563,0.0-86.0-0.0,,,,,,,,,,,"[{""stimulus"":""run_exp/static/images/task_images/rocket-01.jpg"",""time"":0.2999999523162842},{""stimulus"":""run_exp/static/images/task_images/rocket-02.jpg"",""time"":1106.7999999523163},{""stimulus"":""run_exp/static/images/task_images/rocket-03.jpg"",""time"":2186.5999999046326},{""stimulus"":""run_exp/static/images/task_images/rocket-04.jpg"",""time"":3266.2999999523163},{""stimulus"":""run_exp/static/images/task_images/rocket-05.jpg"",""time"":4346.399999856949},{""stimulus"":""run_exp/static/images/task_images/rocket-06.jpg"",""time"":5436.399999856949},{""stimulus"":""run_exp/static/images/task_images/rocket-07.jpg"",""time"":6516.899999856949},{""stimulus"":""run_exp/static/images/task_images/rocket-08.jpg"",""time"":7620.399999856949},{""stimulus"":""run_exp/static/images/task_images/rocket-09.jpg"",""time"":8706.399999856949}]",[],13,,,,,,,,,,,,,,
alien_welcome,285,786584,0.0-86.0-1.0,,null,run_exp/static/images/task_images/aliens/old_aliens/planet/alien_planet-24.jpg,null,,,,,,,,,,,,24,"63,25,29,11,74,35,53,33,39,41,18,2,55,24,76,15,10,36,38,52,49,8,9,21,31,14,4,80,19,45,79,32,6,50,37,7",,,,,,,,,,
land,286,787103,0.0-86.0-2.0,,null,run_exp/static/images/task_images/land.jpg,null,,,,,,100,,,14,,,,,,,,,,,,,,
dig,287,789124,0.0-86.0-3.0,,,,,,,,,,,"[{""stimulus"":""run_exp/static/images/task_images/dig.jpg"",""time"":0.2999999523162842},{""stimulus"":""run_exp/static/images/task_images/land.jpg"",""time"":678.7000000476837},{""stimulus"":""run_exp/static/images/task_images/dig.jpg"",""time"":1348.5}]",[],14,,,,,,,,,,,,,,
harvest,288,790143,0.0-86.0-4.0,,null,run_exp/static/images/task_images/gems/100.jpg,null,,,,,,77,,,14,,,,,100,0.768054776,0.77,,,,,,,
decision,289,791192,0.0-86.0-5.0,,1047.2,run_exp/static/images/task_images/land.jpg,65,,,,,,77,,,14,,,,,,,,136294,2,0,FALSE,,,
dig,290,793163,0.0-87.0-0.0,,,,,,,,,,,"[{""stimulus"":""run_exp/static/images/task_images/dig.jpg"",""time"":0.10000014305114746},{""stimulus"":""run_exp/static/images/task_images/land.jpg"",""time"":657.2000000476837},{""stimulus"":""run_exp/static/images/task_images/dig.jpg"",""time"":1307}]",[],14,,,,,,,,,,,,,,
harvest,291,794184,0.0-87.0-1.0,,null,run_exp/static/images/task_images/gems/77.jpg,null,,,,,,53,,,14,,,,,77,0.691668405,0.688311688,,,,,,,
decision,292,794848,0.0-87.0-2.0,,662.5999999,run_exp/static/images/task_images/land.jpg,65,,,,,,53,,,14,,,,,,,,139950,2,1,FALSE,,,
dig,293,797203,0.0-88.0-0.0,,,,,,,,,,,"[{""stimulus"":""run_exp/static/images/task_images/dig.jpg"",""time"":0.09999990463256836},{""stimulus"":""run_exp/static/images/task_images/land.jpg"",""time"":780.6999998092651},{""stimulus"":""run_exp/static/images/task_images/dig.jpg"",""time"":1570.2999999523163}]",[],14,,,,,,,,,,,,,,
harvest,294,798213,0.0-88.0-1.0,,null,run_exp/static/images/task_images/gems/53.jpg,null,,,,,,43,,,14,,,,,53,0.806841436,0.811320755,,,,,,,
decision,295,798797,0.0-88.0-2.0,,582.8,run_exp/static/images/task_images/land.jpg,65,,,,,,43,,,14,,,,,,,,143900,2,2,FALSE,,,
dig,296,801223,0.0-89.0-0.0,,,,,,,,,,,"[{""stimulus"":""run_exp/static/images/task_images/dig.jpg"",""time"":0.3000001907348633},{""stimulus"":""run_exp/static/images/task_images/land.jpg"",""time"":821.1000001430511},{""stimulus"":""run_exp/static/images/task_images/dig.jpg"",""time"":1621.5}]",[],14,,,,,,,,,,,,,,
harvest,297,802244,0.0-89.0-1.0,,null,run_exp/static/images/task_images/gems/43.jpg,null,,,,,,34,,,14,,,,,43,0.779333247,0.790697674,,,,,,,
decision,298,802625,0.0-89.0-2.0,,378.5,run_exp/static/images/task_images/land.jpg,65,,,,,,34,,,14,,,,,,,,147727,2,3,FALSE,,,
dig,299,805253,0.0-90.0-0.0,,,,,,,,,,,"[{""stimulus"":""run_exp/static/images/task_images/dig.jpg"",""time"":0.10000014305114746},{""stimulus"":""run_exp/static/images/task_images/land.jpg"",""time"":884.7999999523163},{""stimulus"":""run_exp/static/images/task_images/dig.jpg"",""time"":1753.7999999523163}]",[],14,,,,,,,,,,,,,,
harvest,300,806263,0.0-90.0-1.0,,null,run_exp/static/images/task_images/gems/34.jpg,null,,,,,,28,,,14,,,,,34,0.809566103,0.823529412,,,,,,,
decision,301,806535,0.0-90.0-2.0,,268.4000001,run_exp/static/images/task_images/land.jpg,65,,,,,,28,,,14,,,,,,,,151637,2,4,FALSE,,,
dig,302,809279,0.0-91.0-0.0,,,,,,,,,,,"[{""stimulus"":""run_exp/static/images/task_images/dig.jpg"",""time"":0.20000004768371582},{""stimulus"":""run_exp/static/images/task_images/land.jpg"",""time"":924.0999999046326},{""stimulus"":""run_exp/static/images/task_images/dig.jpg"",""time"":1824.2000000476837}]",[],14,,,,,,,,,,,,,,
harvest,303,810283,0.0-91.0-1.0,,null,run_exp/static/images/task_images/gems/28.jpg,null,,,,,,25,,,14,,,,,28,0.890391671,0.892857143,,,,,,,
decision,304,810808,0.0-91.0-2.0,,524.4000001,run_exp/static/images/task_images/land.jpg,76,,,,,,25,,,14,,,,,,,,155911,2,5,TRUE,,,
travel,305,820293,0.0-92.0-0.0,,,,,,,,,,,"[{""stimulus"":""run_exp/static/images/task_images/rocket-01.jpg"",""time"":0.2999999523162842},{""stimulus"":""run_exp/static/images/task_images/rocket-02.jpg"",""time"":1070.2999999523163},{""stimulus"":""run_exp/static/images/task_images/rocket-03.jpg"",""time"":2119.9000000953674},{""stimulus"":""run_exp/static/images/task_images/rocket-04.jpg"",""time"":3161.100000143051},{""stimulus"":""run_exp/static/images/task_images/rocket-05.jpg"",""time"":4210.5},{""stimulus"":""run_exp/static/images/task_images/rocket-06.jpg"",""time"":5275.400000095367},{""stimulus"":""run_exp/static/images/task_images/rocket-07.jpg"",""time"":6320},{""stimulus"":""run_exp/static/images/task_images/rocket-08.jpg"",""time"":7370.299999952316},{""stimulus"":""run_exp/static/images/task_images/rocket-09.jpg"",""time"":8420.299999952316}]",[],14,,,,,,,,,,,,,,
alien_welcome,306,825304,0.0-92.0-1.0,,null,run_exp/static/images/task_images/aliens/old_aliens/planet/alien_planet-76.jpg,null,,,,,,,,,,,,76,"63,25,29,11,74,35,53,33,39,41,18,2,55,24,76,15,10,36,38,52,49,8,9,21,31,14,4,80,19,45,79,32,6,50,37,7",,,,,,,,,,
land,307,825824,0.0-92.0-2.0,,null,run_exp/static/images/task_images/land.jpg,null,,,,,,92,,,15,,,,,,,,,,,,,,
dig,308,827834,0.0-92.0-3.0,,,,,,,,,,,"[{""stimulus"":""run_exp/static/images/task_images/dig.jpg"",""time"":0.2999999523162842},{""stimulus"":""run_exp/static/images/task_images/land.jpg"",""time"":678},{""stimulus"":""run_exp/static/images/task_images/dig.jpg"",""time"":1337.9000000953674}]",[],15,,,,,,,,,,,,,,
harvest,309,828844,0.0-92.0-4.0,,null,run_exp/static/images/task_images/gems/92.jpg,null,,,,,,73,,,15,,,,,92,0.798866897,0.793478261,,,,,,,
decision,310,829187,0.0-92.0-5.0,,341.5,run_exp/static/images/task_images/land.jpg,65,,,,,,73,,,15,,,,,,,,174289,2,0,FALSE,,,
dig,311,831863,0.0-93.0-0.0,,,,,,,,,,,"[{""stimulus"":""run_exp/static/images/task_images/dig.jpg"",""time"":0.2999999523162842},{""stimulus"":""run_exp/static/images/task_images/land.jpg"",""time"":891.7999999523163},{""stimulus"":""run_exp/static/images/task_images/dig.jpg"",""time"":1781.5999999046326}]",[],15,,,,,,,,,,,,,,
harvest,312,832874,0.0-93.0-1.0,,null,run_exp/static/images/task_images/gems/73.jpg,null,,,,,,60,,,15,,,,,73,0.827295689,0.821917808,,,,,,,
decision,313,833269,0.0-93.0-2.0,,391.6000001,run_exp/static/images/task_images/land.jpg,65,,,,,,60,,,15,,,,,,,,178371,2,1,FALSE,,,
dig,314,835883,0.0-94.0-0.0,,,,,,,,,,,"[{""stimulus"":""run_exp/static/images/task_images/dig.jpg"",""time"":0.2999999523162842},{""stimulus"":""run_exp/static/images/task_images/land.jpg"",""time"":870.7999999523163},{""stimulus"":""run_exp/static/images/task_images/dig.jpg"",""time"":1759.9000000953674}]",[],15,,,,,,,,,,,,,,
harvest,315,836893,0.0-94.0-1.0,,null,run_exp/static/images/task_images/gems/60.jpg,null,,,,,,45,,,15,,,,,60,0.753216987,0.75,,,,,,,
decision,316,837606,0.0-94.0-2.0,,711.5,run_exp/static/images/task_images/land.jpg,65,,,,,,45,,,15,,,,,,,,182708,2,2,FALSE,,,
dig,317,839917,0.0-95.0-0.0,,,,,,,,,,,"[{""stimulus"":""run_exp/static/images/task_images/dig.jpg"",""time"":0.19999980926513672},{""stimulus"":""run_exp/static/images/task_images/land.jpg"",""time"":772.6999998092651},{""stimulus"":""run_exp/static/images/task_images/dig.jpg"",""time"":1532.6999998092651}]",[],15,,,,,,,,,,,,,,
harvest,318,840933,0.0-95.0-1.0,,null,run_exp/static/images/task_images/gems/45.jpg,null,,,,,,36,,,15,,,,,45,0.799721242,0.8,,,,,,,
decision,319,841793,0.0-95.0-2.0,,857.3999999,run_exp/static/images/task_images/land.jpg,65,,,,,,36,,,15,,,,,,,,186895,2,3,FALSE,,,
dig,320,843954,0.0-96.0-0.0,,,,,,,,,,,"[{""stimulus"":""run_exp/static/images/task_images/dig.jpg"",""time"":0.20000004768371582},{""stimulus"":""run_exp/static/images/task_images/land.jpg"",""time"":726.5},{""stimulus"":""run_exp/static/images/task_images/dig.jpg"",""time"":1446.5}]",[],15,,,,,,,,,,,,,,
harvest,321,844964,0.0-96.0-1.0,,null,run_exp/static/images/task_images/gems/36.jpg,null,,,,,,28,,,15,,,,,36,0.783819336,0.777777778,,,,,,,
decision,322,845787,0.0-96.0-2.0,,821.3,run_exp/static/images/task_images/land.jpg,65,,,,,,28,,,15,,,,,,,,190889,2,4,FALSE,,,
dig,323,847974,0.0-97.0-0.0,,,,,,,,,,,"[{""stimulus"":""run_exp/static/images/task_images/dig.jpg"",""time"":0.09999990463256836},{""stimulus"":""run_exp/static/images/task_images/land.jpg"",""time"":729},{""stimulus"":""run_exp/static/images/task_images/dig.jpg"",""time"":1469.4000000953674}]",[],15,,,,,,,,,,,,,,
harvest,324,848986,0.0-97.0-1.0,,null,run_exp/static/images/task_images/gems/28.jpg,null,,,,,,23,,,15,,,,,28,0.834283255,0.821428571,,,,,,,
decision,325,849541,0.0-97.0-2.0,,553.3999999,run_exp/static/images/task_images/land.jpg,65,,,,,,23,,,15,,,,,,,,194643,2,5,FALSE,,,
dig,326,852004,0.0-98.0-0.0,,,,,,,,,,,"[{""stimulus"":""run_exp/static/images/task_images/dig.jpg"",""time"":0.19999980926513672},{""stimulus"":""run_exp/static/images/task_images/land.jpg"",""time"":817.3999998569489},{""stimulus"":""run_exp/static/images/task_images/dig.jpg"",""time"":1632.6999998092651}]",[],15,,,,,,,,,,,,,,
harvest,327,853023,0.0-98.0-1.0,,null,run_exp/static/images/task_images/gems/23.jpg,null,,,,,,19,,,15,,,,,23,0.804407774,0.826086957,,,,,,,
decision,328,853512,0.0-98.0-2.0,,486.4000001,run_exp/static/images/task_images/land.jpg,76,,,,,,19,,,15,,,,,,,,198614,2,6,TRUE,,,
travel,329,863043,0.0-99.0-0.0,,,,,,,,,,,"[{""stimulus"":""run_exp/static/images/task_images/rocket-01.jpg"",""time"":0.20000004768371582},{""stimulus"":""run_exp/static/images/task_images/rocket-02.jpg"",""time"":1067.2999999523163},{""stimulus"":""run_exp/static/images/task_images/rocket-03.jpg"",""time"":2127.0999999046326},{""stimulus"":""run_exp/static/images/task_images/rocket-04.jpg"",""time"":3176.5999999046326},{""stimulus"":""run_exp/static/images/task_images/rocket-05.jpg"",""time"":4247.099999904633},{""stimulus"":""run_exp/static/images/task_images/rocket-06.jpg"",""time"":5297.099999904633},{""stimulus"":""run_exp/static/images/task_images/rocket-07.jpg"",""time"":6356.799999952316},{""stimulus"":""run_exp/static/images/task_images/rocket-08.jpg"",""time"":7417.099999904633},{""stimulus"":""run_exp/static/images/task_images/rocket-09.jpg"",""time"":8467.200000047684}]",[],15,,,,,,,,,,,,,,
alien_welcome,330,868064,0.0-99.0-1.0,,null,run_exp/static/images/task_images/aliens/old_aliens/planet/alien_planet-15.jpg,null,,,,,,,,,,,,15,"63,25,29,11,74,35,53,33,39,41,18,2,55,24,76,15,10,36,38,52,49,8,9,21,31,14,4,80,19,45,79,32,6,50,37,7",,,,,,,,,,
land,331,868586,0.0-99.0-2.0,,null,run_exp/static/images/task_images/land.jpg,null,,,,,,93,,,16,,,,,,,,,,,,,,
dig,332,870594,0.0-99.0-3.0,,,,,,,,,,,"[{""stimulus"":""run_exp/static/images/task_images/dig.jpg"",""time"":0.20000004768371582},{""stimulus"":""run_exp/static/images/task_images/land.jpg"",""time"":676},{""stimulus"":""run_exp/static/images/task_images/dig.jpg"",""time"":1356}]",[],16,,,,,,,,,,,,,,
harvest,333,871613,0.0-99.0-4.0,,null,run_exp/static/images/task_images/gems/93.jpg,null,,,,,,70,,,16,,,,,93,0.752365523,0.752688172,,,,,,,
decision,334,872043,0.0-99.0-5.0,,429.2,run_exp/static/images/task_images/land.jpg,65,,,,,,70,,,16,,,,,,,,217145,2,0,FALSE,,,
dig,335,874623,0.0-100.0-0.0,,,,,,,,,,,"[{""stimulus"":""run_exp/static/images/task_images/dig.jpg"",""time"":0.20000004768371582},{""stimulus"":""run_exp/static/images/task_images/land.jpg"",""time"":857.7999999523163},{""stimulus"":""run_exp/static/images/task_images/dig.jpg"",""time"":1717.2999999523163}]",[],16,,,,,,,,,,,,,,
harvest,336,875643,0.0-100.0-1.0,,null,run_exp/static/images/task_images/gems/70.jpg,null,,,,,,57,,,16,,,,,70,0.818642823,0.814285714,,,,,,,
decision,337,876332,0.0-100.0-2.0,,687.6000001,run_exp/static/images/task_images/land.jpg,65,,,,,,57,,,16,,,,,,,,221434,2,1,FALSE,,,
dig,338,878663,0.0-101.0-0.0,,,,,,,,,,,"[{""stimulus"":""run_exp/static/images/task_images/dig.jpg"",""time"":0.2999999523162842},{""stimulus"":""run_exp/static/images/task_images/land.jpg"",""time"":786.1999998092651},{""stimulus"":""run_exp/static/images/task_images/dig.jpg"",""time"":1545.8999998569489}]",[],16,,,,,,,,,,,,,,
harvest,339,879673,0.0-101.0-1.0,,null,run_exp/static/images/task_images/gems/57.jpg,null,,,,,,47,,,16,,,,,57,0.823137934,0.824561404,,,,,,,
decision,340,880441,0.0-101.0-2.0,,765.5999999,run_exp/static/images/task_images/land.jpg,65,,,,,,47,,,16,,,,,,,,225543,2,2,FALSE,,,
dig,341,882683,0.0-102.0-0.0,,,,,,,,,,,"[{""stimulus"":""run_exp/static/images/task_images/dig.jpg"",""time"":0.20000004768371582},{""stimulus"":""run_exp/static/images/task_images/land.jpg"",""time"":758},{""stimulus"":""run_exp/static/images/task_images/dig.jpg"",""time"":1508.5999999046326}]",[],16,,,,,,,,,,,,,,
harvest,342,883704,0.0-102.0-1.0,,null,run_exp/static/images/task_images/gems/47.jpg,null,,,,,,32,,,16,,,,,47,0.677777316,0.680851064,,,,,,,
decision,343,884114,0.0-102.0-2.0,,408.8,run_exp/static/images/task_images/land.jpg,65,,,,,,32,,,16,,,,,,,,229216,2,3,FALSE,,,
dig,344,886724,0.0-103.0-0.0,,,,,,,,,,,"[{""stimulus"":""run_exp/static/images/task_images/dig.jpg"",""time"":0.09999990463256836},{""stimulus"":""run_exp/static/images/task_images/land.jpg"",""time"":864.7000000476837},{""stimulus"":""run_exp/static/images/task_images/dig.jpg"",""time"":1744.2000000476837}]",[],16,,,,,,,,,,,,,,
harvest,345,887743,0.0-103.0-1.0,,null,run_exp/static/images/task_images/gems/32.jpg,null,,,,,,23,,,16,,,,,32,0.718609018,0.71875,,,,,,,
decision,346,888382,0.0-103.0-2.0,,636.8,run_exp/static/images/task_images/land.jpg,65,,,,,,23,,,16,,,,,,,,233484,2,4,FALSE,,,
dig,347,890763,0.0-104.0-0.0,,,,,,,,,,,"[{""stimulus"":""run_exp/static/images/task_images/dig.jpg"",""time"":0.2999999523162842},{""stimulus"":""run_exp/static/images/task_images/land.jpg"",""time"":796.6000001430511},{""stimulus"":""run_exp/static/images/task_images/dig.jpg"",""time"":1586.1000001430511}]",[],16,,,,,,,,,,,,,,
harvest,348,891783,0.0-104.0-1.0,,null,run_exp/static/images/task_images/gems/23.jpg,null,,,,,,18,,,16,,,,,23,0.767926534,0.782608696,,,,,,,
decision,349,892413,0.0-104.0-2.0,,628.8,run_exp/static/images/task_images/land.jpg,65,,,,,,18,,,16,,,,,,,,237515,2,5,FALSE,,,
dig,350,894803,0.0-105.0-0.0,,,,,,,,,,,"[{""stimulus"":""run_exp/static/images/task_images/dig.jpg"",""time"":0.20000004768371582},{""stimulus"":""run_exp/static/images/task_images/land.jpg"",""time"":804.7000000476837},{""stimulus"":""run_exp/static/images/task_images/dig.jpg"",""time"":1595.5999999046326}]",[],16,,,,,,,,,,,,,,
harvest,351,895824,0.0-105.0-1.0,,null,run_exp/static/images/task_images/gems/18.jpg,null,,,,,,14,,,16,,,,,18,0.788475139,0.777777778,,,,,,,
decision,352,896074,0.0-105.0-2.0,,248.8,run_exp/static/images/task_images/land.jpg,76,,,,,,14,,,16,,,,,,,,241177,2,6,TRUE,,,
travel,353,905843,0.0-106.0-0.0,,,,,,,,,,,"[{""stimulus"":""run_exp/static/images/task_images/rocket-01.jpg"",""time"":0.19999980926513672},{""stimulus"":""run_exp/static/images/task_images/rocket-02.jpg"",""time"":1103.2999999523163},{""stimulus"":""run_exp/static/images/task_images/rocket-03.jpg"",""time"":2183.5},{""stimulus"":""run_exp/static/images/task_images/rocket-04.jpg"",""time"":3263.5999999046326},{""stimulus"":""run_exp/static/images/task_images/rocket-05.jpg"",""time"":4343.099999904633},{""stimulus"":""run_exp/static/images/task_images/rocket-06.jpg"",""time"":5433.399999856949},{""stimulus"":""run_exp/static/images/task_images/rocket-07.jpg"",""time"":6509.399999856949},{""stimulus"":""run_exp/static/images/task_images/rocket-08.jpg"",""time"":7583.599999904633},{""stimulus"":""run_exp/static/images/task_images/rocket-09.jpg"",""time"":8683.099999904633}]",[],16,,,,,,,,,,,,,,
alien_welcome,354,910863,0.0-106.0-1.0,,null,run_exp/static/images/task_images/aliens/old_aliens/planet/alien_planet-10.jpg,null,,,,,,,,,,,,10,"63,25,29,11,74,35,53,33,39,41,18,2,55,24,76,15,10,36,38,52,49,8,9,21,31,14,4,80,19,45,79,32,6,50,37,7",,,,,,,,,,
land,355,911383,0.0-106.0-2.0,,null,run_exp/static/images/task_images/land.jpg,null,,,,,,100,,,17,,,,,,,,,,,,,,
dig,356,913394,0.0-106.0-3.0,,,,,,,,,,,"[{""stimulus"":""run_exp/static/images/task_images/dig.jpg"",""time"":0.2999999523162842},{""stimulus"":""run_exp/static/images/task_images/land.jpg"",""time"":679.0999999046326},{""stimulus"":""run_exp/static/images/task_images/dig.jpg"",""time"":1338.5}]",[],17,,,,,,,,,,,,,,
harvest,357,914414,0.0-106.0-4.0,,null,run_exp/static/images/task_images/gems/100.jpg,null,,,,,,81,,,17,,,,,100,0.810631764,0.81,,,,,,,
decision,358,915138,0.0-106.0-5.0,,722.7,run_exp/static/images/task_images/land.jpg,65,,,,,,81,,,17,,,,,,,,260240,2,0,FALSE,,,
dig,359,917424,0.0-107.0-0.0,,,,,,,,,,,"[{""stimulus"":""run_exp/static/images/task_images/dig.jpg"",""time"":0.20000004768371582},{""stimulus"":""run_exp/static/images/task_images/land.jpg"",""time"":770.3999998569489},{""stimulus"":""run_exp/static/images/task_images/dig.jpg"",""time"":1526.0999999046326}]",[],17,,,,,,,,,,,,,,
harvest,360,918434,0.0-107.0-1.0,,null,run_exp/static/images/task_images/gems/81.jpg,null,,,,,,72,,,17,,,,,81,0.887903361,0.888888889,,,,,,,
decision,361,918551,0.0-107.0-2.0,,116.0999999,run_exp/static/images/task_images/land.jpg,65,,,,,,72,,,17,,,,,,,,263654,2,1,FALSE,,,
dig,362,921444,0.0-108.0-0.0,,,,,,,,,,,"[{""stimulus"":""run_exp/static/images/task_images/dig.jpg"",""time"":0.19999980926513672},{""stimulus"":""run_exp/static/images/task_images/land.jpg"",""time"":965.5},{""stimulus"":""run_exp/static/images/task_images/dig.jpg"",""time"":1926.5999999046326}]",[],17,,,,,,,,,,,,,,
harvest,363,922464,0.0-108.0-1.0,,null,run_exp/static/images/task_images/gems/72.jpg,null,,,,,,60,,,17,,,,,72,0.831062267,0.833333333,,,,,,,
decision,364,922865,0.0-108.0-2.0,,399.9000001,run_exp/static/images/task_images/land.jpg,65,,,,,,60,,,17,,,,,,,,267967,2,2,FALSE,,,
dig,365,925483,0.0-109.0-0.0,,,,,,,,,,,"[{""stimulus"":""run_exp/static/images/task_images/dig.jpg"",""time"":0.20000004768371582},{""stimulus"":""run_exp/static/images/task_images/land.jpg"",""time"":872.0999999046326},{""stimulus"":""run_exp/static/images/task_images/dig.jpg"",""time"":1752.4000000953674}]",[],17,,,,,,,,,,,,,,
harvest,366,926504,0.0-109.0-1.0,,null,run_exp/static/images/task_images/gems/60.jpg,null,,,,,,42,,,17,,,,,60,0.696909887,0.7,,,,,,,
decision,367,926999,0.0-109.0-2.0,,493.8,run_exp/static/images/task_images/land.jpg,65,,,,,,42,,,17,,,,,,,,272101,2,3,FALSE,,,
dig,368,929524,0.0-110.0-0.0,,,,,,,,,,,"[{""stimulus"":""run_exp/static/images/task_images/dig.jpg"",""time"":0.20000004768371582},{""stimulus"":""run_exp/static/images/task_images/land.jpg"",""time"":837.3999998569489},{""stimulus"":""run_exp/static/images/task_images/dig.jpg"",""time"":1688.7999999523163}]",[],17,,,,,,,,,,,,,,
harvest,369,930544,0.0-110.0-1.0,,null,run_exp/static/images/task_images/gems/42.jpg,null,,,,,,36,,,17,,,,,42,0.864236235,0.857142857,,,,,,,
decision,370,931263,0.0-110.0-2.0,,717.9000001,run_exp/static/images/task_images/land.jpg,65,,,,,,36,,,17,,,,,,,,276365,2,4,FALSE,,,
dig,371,933554,0.0-111.0-0.0,,,,,,,,,,,"[{""stimulus"":""run_exp/static/images/task_images/dig.jpg"",""time"":0.09999990463256836},{""stimulus"":""run_exp/static/images/task_images/land.jpg"",""time"":778.3999998569489},{""stimulus"":""run_exp/static/images/task_images/dig.jpg"",""time"":1528.2999999523163}]",[],17,,,,,,,,,,,,,,
harvest,372,934573,0.0-111.0-1.0,,null,run_exp/static/images/task_images/gems/36.jpg,null,,,,,,27,,,17,,,,,36,0.74057655,0.75,,,,,,,
decision,373,937583,0.0-111.0-2.0,,null,run_exp/static/images/task_images/land.jpg,null,,,,,,27,,,17,,,,,,,,282685,2,5,FALSE,,,
time_out,374,939594,0.0-112.0-0.0,,null,run_exp/static/images/task_images/time_out.jpg,null,,,,,,27,,,,,,,,,,,,,,,,,
decision,375,940124,0.0-112.0-1.0,,528.3,run_exp/static/images/task_images/land.jpg,65,,,,,,27,,,17,,,,,,,,285226,2,5,FALSE,,,
dig,376,942613,0.0-113.0-0.0,,,,,,,,,,,"[{""stimulus"":""run_exp/static/images/task_images/dig.jpg"",""time"":0.19999980926513672},{""stimulus"":""run_exp/static/images/task_images/land.jpg"",""time"":838.0999999046326},{""stimulus"":""run_exp/static/images/task_images/dig.jpg"",""time"":1656.5}]",[],17,,,,,,,,,,,,,,
harvest,377,943623,0.0-113.0-1.0,,null,run_exp/static/images/task_images/gems/27.jpg,null,,,,,,22,,,17,,,,,27,0.811705326,0.814814815,,,,,,,
decision,378,943923,0.0-113.0-2.0,,297.8,run_exp/static/images/task_images/land.jpg,76,,,,,,22,,,17,,,,,,,,289025,2,6,TRUE,,,
travel,379,953643,0.0-114.0-0.0,,,,,,,,,,,"[{""stimulus"":""run_exp/static/images/task_images/rocket-01.jpg"",""time"":0.20000004768371582},{""stimulus"":""run_exp/static/images/task_images/rocket-02.jpg"",""time"":1087.6000001430511},{""stimulus"":""run_exp/static/images/task_images/rocket-03.jpg"",""time"":2166.2000000476837},{""stimulus"":""run_exp/static/images/task_images/rocket-04.jpg"",""time"":3245.7999999523163},{""stimulus"":""run_exp/static/images/task_images/rocket-05.jpg"",""time"":4325.799999952316},{""stimulus"":""run_exp/static/images/task_images/rocket-06.jpg"",""time"":5396.600000143051},{""stimulus"":""run_exp/static/images/task_images/rocket-07.jpg"",""time"":6476.200000047684},{""stimulus"":""run_exp/static/images/task_images/rocket-08.jpg"",""time"":7556.100000143051},{""stimulus"":""run_exp/static/images/task_images/rocket-09.jpg"",""time"":8626}]",[],17,,,,,,,,,,,,,,
alien_welcome,380,958664,0.0-114.0-1.0,,null,run_exp/static/images/task_images/aliens/old_aliens/planet/alien_planet-36.jpg,null,,,,,,,,,,,,36,"63,25,29,11,74,35,53,33,39,41,18,2,55,24,76,15,10,36,38,52,49,8,9,21,31,14,4,80,19,45,79,32,6,50,37,7",,,,,,,,,,
land,381,959183,0.0-114.0-2.0,,null,run_exp/static/images/task_images/land.jpg,null,,,,,,95,,,18,,,,,,,,,,,,,,
dig,382,961204,0.0-114.0-3.0,,,,,,,,,,,"[{""stimulus"":""run_exp/static/images/task_images/dig.jpg"",""time"":0.20000004768371582},{""stimulus"":""run_exp/static/images/task_images/land.jpg"",""time"":668.7999999523163},{""stimulus"":""run_exp/static/images/task_images/dig.jpg"",""time"":1344.7999999523163}]",[],18,,,,,,,,,,,,,,
harvest,383,962224,0.0-114.0-4.0,,null,run_exp/static/images/task_images/gems/95.jpg,null,,,,,,41,,,18,,,,,95,0.430842667,0.431578947,,,,,,,
decision,384,962555,0.0-114.0-5.0,,328.9000001,run_exp/static/images/task_images/land.jpg,65,,,,,,41,,,18,,,,,,,,307657,2,0,TRUE,,,
end_of_block_continue,385,971415,0.0-115.0-0.0,,null,run_exp/static/audio/clip_32_block_end.m4a,,,,,,null,,,,,,,,,,,,,,,,,,
alien_welcome,386,976438,0.0-116.0-0.0,,null,run_exp/static/images/task_images/aliens/old_aliens/planet/alien_planet-38.jpg,null,,,,,,,,,,,,38,"63,25,29,11,74,35,53,33,39,41,18,2,55,24,76,15,10,36,38,52,49,8,9,21,31,14,4,80,19,45,79,32,6,50,37,7",,,,,,,,,,
land,387,976944,0.0-116.0-1.0,,null,run_exp/static/images/task_images/land.jpg,null,,,,,,101,,,19,,,,,,,,,,,,,,
dig,388,978964,0.0-116.0-2.0,,,,,,,,,,,"[{""stimulus"":""run_exp/static/images/task_images/dig.jpg"",""time"":0.39999985694885254},{""stimulus"":""run_exp/static/images/task_images/land.jpg"",""time"":688.2000000476837},{""stimulus"":""run_exp/static/images/task_images/dig.jpg"",""time"":1338.0999999046326}]",[],19,,,,,,,,,,,,,,
harvest,389,979984,0.0-116.0-3.0,,null,run_exp/static/images/task_images/gems/101.jpg,null,,,,,,49,,,19,,,,,101,0.48591902,0.485148515,,,,,,,
decision,390,980843,0.0-116.0-4.0,,857.7,run_exp/static/images/task_images/land.jpg,65,,,,,,49,,,19,,,,,,,,9420,3,0,FALSE,,,
dig,391,982999,0.0-117.0-0.0,,,,,,,,,,,"[{""stimulus"":""run_exp/static/images/task_images/dig.jpg"",""time"":0.19999980926513672},{""stimulus"":""run_exp/static/images/task_images/land.jpg"",""time"":726.5},{""stimulus"":""run_exp/static/images/task_images/dig.jpg"",""time"":1446.6999998092651}]",[],19,,,,,,,,,,,,,,
harvest,392,984014,0.0-117.0-1.0,,null,run_exp/static/images/task_images/gems/49.jpg,null,,,,,,23,,,19,,,,,49,0.476086332,0.469387755,,,,,,,
decision,393,984991,0.0-117.0-2.0,,975.8999999,run_exp/static/images/task_images/land.jpg,65,,,,,,23,,,19,,,,,,,,13569,3,1,FALSE,,,
dig,394,987024,0.0-118.0-0.0,,,,,,,,,,,"[{""stimulus"":""run_exp/static/images/task_images/dig.jpg"",""time"":0.20000004768371582},{""stimulus"":""run_exp/static/images/task_images/land.jpg"",""time"":679.5},{""stimulus"":""run_exp/static/images/task_images/dig.jpg"",""time"":1359.2999999523163}]",[],19,,,,,,,,,,,,,,
harvest,395,988034,0.0-118.0-1.0,,null,run_exp/static/images/task_images/gems/23.jpg,null,,,,,,10,,,19,,,,,23,0.421378442,0.434782609,,,,,,,
decision,396,988397,0.0-118.0-2.0,,361.9000001,run_exp/static/images/task_images/land.jpg,76,,,,,,10,,,19,,,,,,,,16975,3,2,TRUE,,,
travel,397,998035,0.0-119.0-0.0,,,,,,,,,,,"[{""stimulus"":""run_exp/static/images/task_images/rocket-01.jpg"",""time"":0.10000014305114746},{""stimulus"":""run_exp/static/images/task_images/rocket-02.jpg"",""time"":1072.7000000476837},{""stimulus"":""run_exp/static/images/task_images/rocket-03.jpg"",""time"":2153.2000000476837},{""stimulus"":""run_exp/static/images/task_images/rocket-04.jpg"",""time"":3222.9000000953674},{""stimulus"":""run_exp/static/images/task_images/rocket-05.jpg"",""time"":4292.5},{""stimulus"":""run_exp/static/images/task_images/rocket-06.jpg"",""time"":5364.900000095367},{""stimulus"":""run_exp/static/images/task_images/rocket-07.jpg"",""time"":6432.5},{""stimulus"":""run_exp/static/images/task_images/rocket-08.jpg"",""time"":7492.900000095367},{""stimulus"":""run_exp/static/images/task_images/rocket-09.jpg"",""time"":8563}]",[],19,,,,,,,,,,,,,,
alien_welcome,398,1003054,0.0-119.0-1.0,,null,run_exp/static/images/task_images/aliens/old_aliens/planet/alien_planet-52.jpg,null,,,,,,,,,,,,52,"63,25,29,11,74,35,53,33,39,41,18,2,55,24,76,15,10,36,38,52,49,8,9,21,31,14,4,80,19,45,79,32,6,50,37,7",,,,,,,,,,
land,399,1003574,0.0-119.0-2.0,,null,run_exp/static/images/task_images/land.jpg,null,,,,,,100,,,20,,,,,,,,,,,,,,
dig,400,1005594,0.0-119.0-3.0,,,,,,,,,,,"[{""stimulus"":""run_exp/static/images/task_images/dig.jpg"",""time"":0.2999999523162842},{""stimulus"":""run_exp/static/images/task_images/land.jpg"",""time"":687.6000001430511},{""stimulus"":""run_exp/static/images/task_images/dig.jpg"",""time"":1348.6000001430511}]",[],20,,,,,,,,,,,,,,
harvest,401,1006604,0.0-119.0-4.0,,null,run_exp/static/images/task_images/gems/100.jpg,null,,,,,,80,,,20,,,,,100,0.795630723,0.8,,,,,,,
decision,402,1007606,0.0-119.0-5.0,,1001,run_exp/static/images/task_images/land.jpg,65,,,,,,80,,,20,,,,,,,,36183,3,0,FALSE,,,
dig,403,1009614,0.0-120.0-0.0,,,,,,,,,,,"[{""stimulus"":""run_exp/static/images/task_images/dig.jpg"",""time"":0.10000014305114746},{""stimulus"":""run_exp/static/images/task_images/land.jpg"",""time"":672.7000000476837},{""stimulus"":""run_exp/static/images/task_images/dig.jpg"",""time"":1344.1000001430511}]",[],20,,,,,,,,,,,,,,
harvest,404,1010634,0.0-120.0-1.0,,null,run_exp/static/images/task_images/gems/80.jpg,null,,,,,,67,,,20,,,,,80,0.831944658,0.8375,,,,,,,
decision,405,1011119,0.0-120.0-2.0,,484.3000002,run_exp/static/images/task_images/land.jpg,65,,,,,,67,,,20,,,,,,,,39696,3,1,FALSE,,,
dig,406,1013654,0.0-121.0-0.0,,,,,,,,,,,"[{""stimulus"":""run_exp/static/images/task_images/dig.jpg"",""time"":0.40000009536743164},{""stimulus"":""run_exp/static/images/task_images/land.jpg"",""time"":851.1000001430511},{""stimulus"":""run_exp/static/images/task_images/dig.jpg"",""time"":1692.9000000953674}]",[],20,,,,,,,,,,,,,,
harvest,407,1014664,0.0-121.0-1.0,,null,run_exp/static/images/task_images/gems/67.jpg,null,,,,,,53,,,20,,,,,67,0.793623046,0.791044776,,,,,,,
decision,408,1015118,0.0-121.0-2.0,,453.4000001,run_exp/static/images/task_images/land.jpg,65,,,,,,53,,,20,,,,,,,,43696,3,2,FALSE,,,
