trial_type,trial_index,time_elapsed,internal_node_id,interactions,blur_events,focus_events,fullscreenenter_events,fullscreenexit_events,success,rt,stimulus,key_press,prompt,subject_id,participant_id,age,gender,button_pressed,next_reward,animation_sequence,responses,planet,curr_prac_trial,n_prac_rounds,alien,aliens,reward_received,decay_rate_actual,decay_rate_exp,time_in_block,block_num,prt,last_trial_on_planet,button_html,bonus,num_failures
pavlovia,0,11,0.0-0.0,"""event"",""trial"",""time""
""fullscreenenter"",""1"",""2977""
","
","
","""event"",""trial"",""time""
""fullscreenenter"",""1"",""2977""
","
",,,,,,,,,,,,,,,,,,,,,,,,,,,,
fullscreen,1,3837,0.0-1.0,"""event"",""trial"",""time""
""fullscreenenter"",""1"",""2977""
","
","
","""event"",""trial"",""time""
""fullscreenenter"",""1"",""2977""
","
",TRUE,,,,,,,,,,,,,,,,,,,,,,,,,,,
instruc_welcome,2,13634,0.0-2.0,"""event"",""trial"",""time""
""fullscreenenter"",""1"",""2977""
","
","
","""event"",""trial"",""time""
""fullscreenenter"",""1"",""2977""
","
",,null,run_exp/static/audio/clip_1_welcome.m4a,null,"<p>Howdy! In this experiment, you’ll be an explorer traveling through space to collect space treasure.</p><p>Your mission is to collect as much treasure as possible.</p><br><br><p><img src='run_exp/static/images/task_images/opening_img-01.jpg' height='300' width='auto'></p>",9493,4320,9.65,Male,,,,,,,,,,,,,,,,,,,
audio-keyboard-response,3,30233,0.0-3.0,"""event"",""trial"",""time""
""fullscreenenter"",""1"",""2977""
","
","
","""event"",""trial"",""time""
""fullscreenenter"",""1"",""2977""
","
",,null,run_exp/static/audio/clip_2_move.m4a,null,,,,,,,,,,,,,,,,,,,,,,,,
welcome_dec,4,32955,0.0-4.0,"""event"",""trial"",""time""
""fullscreenenter"",""1"",""2977""
","
","
","""event"",""trial"",""time""
""fullscreenenter"",""1"",""2977""
","
",,2713.5,"<p>Howdy! In this experiment, you’ll be an explorer traveling through space to collect space treasure.</p><p>Your mission is to collect as much treasure as possible.</p><br><br><p><img src='run_exp/static/images/task_images/opening_img-01.jpg' height='300' width='auto'></p>",,,,,,,1,,,,,,,,,,,,,,,,,,
html-keyboard-response,5,125841,0.0-5.0,"""event"",""trial"",""time""
""fullscreenenter"",""1"",""2977""
","
","
","""event"",""trial"",""time""
""fullscreenenter"",""1"",""2977""
","
",,92877.4,"<p>Howdy! In this experiment, you’ll be an explorer traveling through space to collect space treasure.</p><p>Your mission is to collect as much treasure as possible.</p><br><br><p><img src='run_exp/static/images/task_images/opening_img-01.jpg' height='300' width='auto'></p><button class=""jspsych-html-btn-unchosen""><img src=""run_exp/static/images/task_images/planet-01.jpg"" height=""50""></button><button class=""jspsych-html-btn-chosen""><img src=""run_exp/static/images/task_images/planet-02.jpg"" height=""50""></button><p><b>[press the space bar to lock in your answer]<b><br></p>",32,,,,,,,,,,,,,,,,,,,,,,,,
instruc_goal,6,136488,0.0-6.0-0.0,"""event"",""trial"",""time""
""fullscreenenter"",""1"",""2977""
","
","
","""event"",""trial"",""time""
""fullscreenenter"",""1"",""2977""
","
",,null,run_exp/static/audio/clip_3_goal.m4a,null,"<p> As a space explorer, you’ll visit different planets to dig for space treasure, these pink gems.</p> <p> The more treasure you dig up, the more bonus money you’ll win! </p><br><br><p><img src='run_exp/static/images/task_images/pink_gem.jpg' height='300' width='auto'></p>",,,,,,,,,,,,,,,,,,,,,,,
instruc_goal,7,145235,0.0-6.0-1.0,"""event"",""trial"",""time""
""fullscreenenter"",""1"",""2977""
","
","
","""event"",""trial"",""time""
""fullscreenenter"",""1"",""2977""
","
",,8741.4,"<p> As a space explorer, you’ll visit different planets to dig for space treasure, these pink gems.</p> <p> The more treasure you dig up, the more bonus money you’ll win! </p><br><br><p><img src='run_exp/static/images/task_images/pink_gem.jpg' height='300' width='auto'></p>",,,,,,,1,,,,,,,,,,,,,,,,,,
html-keyboard-response,8,146130,0.0-6.0-2.0,"""event"",""trial"",""time""
""fullscreenenter"",""1"",""2977""
","
","
","""event"",""trial"",""time""
""fullscreenenter"",""1"",""2977""
","
",,892,"<p> As a space explorer, you’ll visit different planets to dig for space treasure, these pink gems.</p> <p> The more treasure you dig up, the more bonus money you’ll win! </p><br><br><p><img src='run_exp/static/images/task_images/pink_gem.jpg' height='300' width='auto'></p><button class=""jspsych-html-btn-unchosen""><img src=""run_exp/static/images/task_images/planet-01.jpg"" height=""50""></button><button class=""jspsych-html-btn-chosen""><img src=""run_exp/static/images/task_images/planet-02.jpg"" height=""50""></button><p><b>[press the space bar to lock in your answer]<b><br></p>",32,,,,,,,,,,,,,,,,,,,,,,,,
instruc_dig,9,162168,0.0-7.0-0.0,"""event"",""trial"",""time""
""fullscreenenter"",""1"",""2977""
","
","
","""event"",""trial"",""time""
""fullscreenenter"",""1"",""2977""
","
",,null,run_exp/static/audio/clip_4_dig.m4a,null,,,,,,,100,,,,,,,,,,,,,,,,,
instruc_dig_try,10,167502,0.0-7.0-1.0,"""event"",""trial"",""time""
""fullscreenenter"",""1"",""2977""
","
","
","""event"",""trial"",""time""
""fullscreenenter"",""1"",""2977""
","
",,5331.200001,"<p> When you’ve arrived at a new planet, you will dig once. </p> <p>Then, you get to decide if you want to stay on the planet and dig again or travel to a new planet and dig there.</p> <p> To stay and dig, press the letter <strong>‘A’</strong> on your keyboard. Try pressing it now! </p><p><img src='run_exp/static/images/task_images/land.jpg'  height='700' width='auto'></p>",65,"<p> When you’ve arrived at a new planet, you will dig once. </p> <p>Then, you get to decide if you want to stay on the planet and dig again or travel to a new planet and dig there.</p> <p> To stay and dig, press the letter <strong>‘A’</strong> on your keyboard. Try pressing it now! </p><p><img src='run_exp/static/images/task_images/land.jpg'  height='700' width='auto'></p>",,,,,,100,,,,,,,,,,,,,,,,,
dig_prac,11,169529,0.0-7.0-2.0,"""event"",""trial"",""time""
""fullscreenenter"",""1"",""2977""
","
","
","""event"",""trial"",""time""
""fullscreenenter"",""1"",""2977""
","
",,,,,,,,,,,,"[{""stimulus"":""run_exp/static/images/task_images/dig.jpg"",""time"":0.39999961853027344},{""stimulus"":""run_exp/static/images/task_images/land.jpg"",""time"":687.8999996185303},{""stimulus"":""run_exp/static/images/task_images/dig.jpg"",""time"":1347.5999994277954}]",[],,,,,,,,,,,,,,,
instruc_travel,12,205806,0.0-7.0-3.0,"""event"",""trial"",""time""
""fullscreenenter"",""1"",""2977""
","
","
","""event"",""trial"",""time""
""fullscreenenter"",""1"",""2977""
","
",,null,run_exp/static/audio/clip_5_travel.m4a,null,"<p>Every time you dig up gems, there are less gems on the planet, so the more you dig on a planet the fewer gems you’ll get with each dig.</p><p>When gems are running low, you may want to travel to a new planet. </p> <p>  Planets are very far apart in this galaxy, so it will take some time to travel between them. </p> <br><p>There are lots and lots of planets for you to visit, so you won’t be able to return to any planets you’ve seen before. </p><br><p>To leave this planet and travel to a new one, press the letter <strong>‘L’</strong> on your keyboard. Try pressing it now! </p><p><img src='run_exp/static/images/task_images/rocket-01.jpg'  height='600' width='auto'></p>",,,,,,,,,,,,,,,,,,,,,,,
instruc_travel_try,13,207843,0.0-7.0-4.0,"""event"",""trial"",""time""
""fullscreenenter"",""1"",""2977""
","
","
","""event"",""trial"",""time""
""fullscreenenter"",""1"",""2977""
","
",,2033.2,"<p>Every time you dig up gems, there are less gems on the planet, so the more you dig on a planet the fewer gems you’ll get with each dig.</p><p>When gems are running low, you may want to travel to a new planet. </p> <p>  Planets are very far apart in this galaxy, so it will take some time to travel between them. </p> <br><p>There are lots and lots of planets for you to visit, so you won’t be able to return to any planets you’ve seen before. </p><br><p>To leave this planet and travel to a new one, press the letter <strong>‘L’</strong> on your keyboard. Try pressing it now! </p><p><img src='run_exp/static/images/task_images/rocket-01.jpg'  height='600' width='auto'></p>",76,"<p>Every time you dig up gems, there are less gems on the planet, so the more you dig on a planet the fewer gems you’ll get with each dig.</p><p>When gems are running low, you may want to travel to a new planet. </p> <p>  Planets are very far apart in this galaxy, so it will take some time to travel between them. </p> <br><p>There are lots and lots of planets for you to visit, so you won’t be able to return to any planets you’ve seen before. </p><br><p>To leave this planet and travel to a new one, press the letter <strong>‘L’</strong> on your keyboard. Try pressing it now! </p><p><img src='run_exp/static/images/task_images/rocket-01.jpg'  height='600' width='auto'></p>",,,,,,,,,,,,,,,,,,,,,,,
travel_prac,14,217846,0.0-7.0-5.0,"""event"",""trial"",""time""
""fullscreenenter"",""1"",""2977""
","
","
","""event"",""trial"",""time""
""fullscreenenter"",""1"",""2977""
","
",,,,,,,,,,,,"[{""stimulus"":""run_exp/static/images/task_images/rocket-01.jpg"",""time"":0.3000001907348633},{""stimulus"":""run_exp/static/images/task_images/rocket-02.jpg"",""time"":1113.8000001907349},{""stimulus"":""run_exp/static/images/task_images/rocket-03.jpg"",""time"":2230.1000003814697},{""stimulus"":""run_exp/static/images/task_images/rocket-04.jpg"",""time"":3341.4000005722046},{""stimulus"":""run_exp/static/images/task_images/rocket-05.jpg"",""time"":4449.900000572205},{""stimulus"":""run_exp/static/images/task_images/rocket-06.jpg"",""time"":5569.5},{""stimulus"":""run_exp/static/images/task_images/rocket-07.jpg"",""time"":6669.699999809265},{""stimulus"":""run_exp/static/images/task_images/rocket-08.jpg"",""time"":7780.10000038147},{""stimulus"":""run_exp/static/images/task_images/rocket-09.jpg"",""time"":8909.199999809265}]",[],0,,,,,,,,,,,,,,
instruc_alien_greet,15,245056,0.0-7.0-6.0,"""event"",""trial"",""time""
""fullscreenenter"",""1"",""2977""
","
","
","""event"",""trial"",""time""
""fullscreenenter"",""1"",""2977""
","
",,null,run_exp/static/audio/clip_6_alien.m4a,null,"<p>When you arrive at a new planet, the alien who owns the treasure mine on that planet will greet you!</p><p>The better an alien takes care of their mine the easier it is to dig for gems. Some aliens take better care of their mine than others. So, you won’t get exactly the same amount of gems on each planet.</p><p>What the alien looks like does not tell you anything about how many gems there are on the planet.</p><br><p><img src=""run_exp/static/images/task_images/aliens/instructions_aliens/planet/alien_planet-1.jpg""  height=""600"" width=""auto""></p>",,,,,,,,,,,,,,,,,,,,,,,
instruc_alien_greet,16,258444,0.0-7.0-7.0,"""event"",""trial"",""time""
""fullscreenenter"",""1"",""2977""
","
","
","""event"",""trial"",""time""
""fullscreenenter"",""1"",""2977""
","
",,13384.1,"<p>When you arrive at a new planet, the alien who owns the treasure mine on that planet will greet you!</p><p>The better an alien takes care of their mine the easier it is to dig for gems. Some aliens take better care of their mine than others. So, you won’t get exactly the same amount of gems on each planet.</p><p>What the alien looks like does not tell you anything about how many gems there are on the planet.</p><br><p><img src=""run_exp/static/images/task_images/aliens/instructions_aliens/planet/alien_planet-1.jpg""  height=""600"" width=""auto""></p>",,,,,,,1,,,,,,,,,,,,,,,,,,
html-keyboard-response,17,260099,0.0-7.0-8.0,"""event"",""trial"",""time""
""fullscreenenter"",""1"",""2977""
","
","
","""event"",""trial"",""time""
""fullscreenenter"",""1"",""2977""
","
",,1651.9,"<p>When you arrive at a new planet, the alien who owns the treasure mine on that planet will greet you!</p><p>The better an alien takes care of their mine the easier it is to dig for gems. Some aliens take better care of their mine than others. So, you won’t get exactly the same amount of gems on each planet.</p><p>What the alien looks like does not tell you anything about how many gems there are on the planet.</p><br><p><img src=""run_exp/static/images/task_images/aliens/instructions_aliens/planet/alien_planet-1.jpg""  height=""600"" width=""auto""></p><button class=""jspsych-html-btn-unchosen""><img src=""run_exp/static/images/task_images/planet-01.jpg"" height=""50""></button><button class=""jspsych-html-btn-chosen""><img src=""run_exp/static/images/task_images/planet-02.jpg"" height=""50""></button><p><b>[press the space bar to lock in your answer]<b><br></p>",32,,,,,,,,,,,,,,,,,,,,,,,,
time_out,18,271628,0.0-8.0-0.0,"""event"",""trial"",""time""
""fullscreenenter"",""1"",""2977""
","
","
","""event"",""trial"",""time""
""fullscreenenter"",""1"",""2977""
","
",,null,run_exp/static/audio/clip_7_timeout.m4a,null,"<p>If you don't make your choice fast enough, you’ll have to wait a few seconds before you can make another one.</p><p>You can’t dig for more gems or travel to new planets. You just have to sit and wait.</p><br><p><img src='run_exp/static/images/task_images/time_out.jpg'  height='600' width='auto'></p>",,,,,,,,,,,,,,,,,,,,,,,
time_out,19,276433,0.0-8.0-1.0,"""event"",""trial"",""time""
""fullscreenenter"",""1"",""2977""
","
","
","""event"",""trial"",""time""
""fullscreenenter"",""1"",""2977""
","
",,4799.3,"<p>If you don't make your choice fast enough, you’ll have to wait a few seconds before you can make another one.</p><p>You can’t dig for more gems or travel to new planets. You just have to sit and wait.</p><br><p><img src='run_exp/static/images/task_images/time_out.jpg'  height='600' width='auto'></p>",,,,,,,1,,,,,,,,,,,,,,,,,,
html-keyboard-response,20,281535,0.0-8.0-2.0,"""event"",""trial"",""time""
""fullscreenenter"",""1"",""2977""
","
","
","""event"",""trial"",""time""
""fullscreenenter"",""1"",""2977""
","
",,5099.900001,"<p>If you don't make your choice fast enough, you’ll have to wait a few seconds before you can make another one.</p><p>You can’t dig for more gems or travel to new planets. You just have to sit and wait.</p><br><p><img src='run_exp/static/images/task_images/time_out.jpg'  height='600' width='auto'></p><button class=""jspsych-html-btn-unchosen""><img src=""run_exp/static/images/task_images/planet-01.jpg"" height=""50""></button><button class=""jspsych-html-btn-chosen""><img src=""run_exp/static/images/task_images/planet-02.jpg"" height=""50""></button><p><b>[press the space bar to lock in your answer]<b><br></p>",32,,,,,,,,,,,,,,,,,,,,,,,,
instruc_break,21,297248,0.0-9.0-0.0,"""event"",""trial"",""time""
""fullscreenenter"",""1"",""2977""
","
","
","""event"",""trial"",""time""
""fullscreenenter"",""1"",""2977""
","
",,null,run_exp/static/audio/clip_8_break.m4a,null,"<p> After digging and traveling for a while, you’ll be able to take a break at home base. </p><p>The game will last 20 minutes no matter what.</p><p>You will visit home base every 5 minutes, so, you will visit home base three times during the game.</p><br><p><img src='run_exp/static/images/task_images/home_base.jpg' height='600' width='auto'></p>",,,,,,,,,,,,,,,,,,,,,,,
instruc_break,22,304871,0.0-9.0-1.0,"""event"",""trial"",""time""
""fullscreenenter"",""1"",""2977""
","
","
","""event"",""trial"",""time""
""fullscreenenter"",""1"",""2977""
","
",,7619.5,"<p> After digging and traveling for a while, you’ll be able to take a break at home base. </p><p>The game will last 20 minutes no matter what.</p><p>You will visit home base every 5 minutes, so, you will visit home base three times during the game.</p><br><p><img src='run_exp/static/images/task_images/home_base.jpg' height='600' width='auto'></p>",,,,,,,1,,,,,,,,,,,,,,,,,,
html-keyboard-response,23,308048,0.0-9.0-2.0,"""event"",""trial"",""time""
""fullscreenenter"",""1"",""2977""
","
","
","""event"",""trial"",""time""
""fullscreenenter"",""1"",""2977""
","
",,3173.1,"<p> After digging and traveling for a while, you’ll be able to take a break at home base. </p><p>The game will last 20 minutes no matter what.</p><p>You will visit home base every 5 minutes, so, you will visit home base three times during the game.</p><br><p><img src='run_exp/static/images/task_images/home_base.jpg' height='600' width='auto'></p><button class=""jspsych-html-btn-unchosen""><img src=""run_exp/static/images/task_images/planet-01.jpg"" height=""50""></button><button class=""jspsych-html-btn-chosen""><img src=""run_exp/static/images/task_images/planet-02.jpg"" height=""50""></button><p><b>[press the space bar to lock in your answer]<b><br></p>",32,,,,,,,,,,,,,,,,,,,,,,,,
instruc_prac_game,24,318176,0.0-10.0-0.0,"""event"",""trial"",""time""
""fullscreenenter"",""1"",""2977""
","
","
","""event"",""trial"",""time""
""fullscreenenter"",""1"",""2977""
","
",,null,run_exp/static/audio/clip_9_practice.m4a,null,"<p> Are you ready to play a practice game? </p> <p>In this practice game, you'll be digging up barrels of gems. But, in the real game, you'll be digging up the gems themselves. </p>",,,,,,,,,,,,,,,,,,,,,,,
html-button-response,25,323784,0.0-10.0-1.0,"""event"",""trial"",""time""
""fullscreenenter"",""1"",""2977""
","
","
","""event"",""trial"",""time""
""fullscreenenter"",""1"",""2977""
","
",,5605.2,"<p> Are you ready to play a practice game? </p> <p>In this practice game, you'll be digging up barrels of gems. But, in the real game, you'll be digging up the gems themselves. </p>",,,,,,,0,,,,,,,,,,,,,,,,,,
alien_welcome_prac,26,328810,0.0-11.0-0.0,"""event"",""trial"",""time""
""fullscreenenter"",""1"",""2977""
","
","
","""event"",""trial"",""time""
""fullscreenenter"",""1"",""2977""
","
",,null,run_exp/static/images/task_images/aliens/practice_aliens/planet/alien_planet-5.jpg,null,,,,,,,,,,,,,,,,,,,,,,,,
land_prac,27,329327,0.0-11.0-1.0,"""event"",""trial"",""time""
""fullscreenenter"",""1"",""2977""
","
","
","""event"",""trial"",""time""
""fullscreenenter"",""1"",""2977""
","
",,null,run_exp/static/images/task_images/land.jpg,null,,,,,,,103,,,0,,,,,,,,,,,,,,
dig_prac,28,331336,0.0-11.0-2.0,"""event"",""trial"",""time""
""fullscreenenter"",""1"",""2977""
","
","
","""event"",""trial"",""time""
""fullscreenenter"",""1"",""2977""
","
",,,,,,,,,,,,"[{""stimulus"":""run_exp/static/images/task_images/dig.jpg"",""time"":0.5},{""stimulus"":""run_exp/static/images/task_images/land.jpg"",""time"":677.3999996185303},{""stimulus"":""run_exp/static/images/task_images/dig.jpg"",""time"":1336.6999998092651}]",[],,,,,,,,,,,,,,,
harvest_prac,29,332347,0.0-11.0-3.0,"""event"",""trial"",""time""
""fullscreenenter"",""1"",""2977""
","
","
","""event"",""trial"",""time""
""fullscreenenter"",""1"",""2977""
","
",,null,run_exp/static/images/task_images/barrel_text.jpg,null,,,,,,,,,,,,,,,,,,,,,,,,
decision_prac,30,332426,0.0-11.0-4.0,"""event"",""trial"",""time""
""fullscreenenter"",""1"",""2977""
","
","
","""event"",""trial"",""time""
""fullscreenenter"",""1"",""2977""
","
",,77.09999943,run_exp/static/images/task_images/land.jpg,65,,,,,,,,,,,1,,,,,,,,,,,,,
dig_prac,31,334446,0.0-12.0-0.0,"""event"",""trial"",""time""
""fullscreenenter"",""1"",""2977""
","
","
","""event"",""trial"",""time""
""fullscreenenter"",""1"",""2977""
","
",,,,,,,,,,,,"[{""stimulus"":""run_exp/static/images/task_images/dig.jpg"",""time"":0.3000001907348633},{""stimulus"":""run_exp/static/images/task_images/land.jpg"",""time"":686.3999996185303},{""stimulus"":""run_exp/static/images/task_images/dig.jpg"",""time"":1343}]",[],,,,,,,,,,,,,,,
harvest_prac,32,335457,0.0-12.0-1.0,"""event"",""trial"",""time""
""fullscreenenter"",""1"",""2977""
","
","
","""event"",""trial"",""time""
""fullscreenenter"",""1"",""2977""
","
",,null,run_exp/static/images/task_images/barrel_text.jpg,null,,,,,,,,,,,,,,,,,,,,,,,,
decision_prac,33,335462,0.0-12.0-2.0,"""event"",""trial"",""time""
""fullscreenenter"",""1"",""2977""
","
","
","""event"",""trial"",""time""
""fullscreenenter"",""1"",""2977""
","
",,3.599999428,run_exp/static/images/task_images/land.jpg,65,,,,,,,,,,,2,,,,,,,,,,,,,
dig_prac,34,337484,0.0-13.0-0.0,"""event"",""trial"",""time""
""fullscreenenter"",""1"",""2977""
","
","
","""event"",""trial"",""time""
""fullscreenenter"",""1"",""2977""
","
",,,,,,,,,,,,"[{""stimulus"":""run_exp/static/images/task_images/dig.jpg"",""time"":0.19999980926513672},{""stimulus"":""run_exp/static/images/task_images/land.jpg"",""time"":680.8000001907349},{""stimulus"":""run_exp/static/images/task_images/dig.jpg"",""time"":1346.6999998092651}]",[],,,,,,,,,,,,,,,
harvest_prac,35,338495,0.0-13.0-1.0,"""event"",""trial"",""time""
""fullscreenenter"",""1"",""2977""
","
","
","""event"",""trial"",""time""
""fullscreenenter"",""1"",""2977""
","
",,null,run_exp/static/images/task_images/barrel_text.jpg,null,,,,,,,,,,,,,,,,,,,,,,,,
decision_prac,36,340134,0.0-13.0-2.0,"""event"",""trial"",""time""
""fullscreenenter"",""1"",""2977""
","
","
","""event"",""trial"",""time""
""fullscreenenter"",""1"",""2977""
","
",,1635,run_exp/static/images/task_images/land.jpg,65,,,,,,,,,,,3,,,,,,,,,,,,,
dig_prac,37,342146,0.0-14.0-0.0,"""event"",""trial"",""time""
""fullscreenenter"",""1"",""2977""
","
","
","""event"",""trial"",""time""
""fullscreenenter"",""1"",""2977""
","
",,,,,,,,,,,,"[{""stimulus"":""run_exp/static/images/task_images/dig.jpg"",""time"":0.19999980926513672},{""stimulus"":""run_exp/static/images/task_images/land.jpg"",""time"":688.1000003814697},{""stimulus"":""run_exp/static/images/task_images/dig.jpg"",""time"":1337.1000003814697}]",[],,,,,,,,,,,,,,,
harvest_prac,38,343166,0.0-14.0-1.0,"""event"",""trial"",""time""
""fullscreenenter"",""1"",""2977""
","
","
","""event"",""trial"",""time""
""fullscreenenter"",""1"",""2977""
","
",,null,run_exp/static/images/task_images/barrel_text.jpg,null,,,,,,,,,,,,,,,,,,,,,,,,
decision_prac,39,343242,0.0-14.0-2.0,"""event"",""trial"",""time""
""fullscreenenter"",""1"",""2977""
","
","
","""event"",""trial"",""time""
""fullscreenenter"",""1"",""2977""
","
",,74.80000019,run_exp/static/images/task_images/land.jpg,65,,,,,,,,,,,4,,,,,,,,,,,,,
dig_prac,40,345253,0.0-15.0-0.0,"""event"",""trial"",""time""
""fullscreenenter"",""1"",""2977""
","
","
","""event"",""trial"",""time""
""fullscreenenter"",""1"",""2977""
","
",,,,,,,,,,,,"[{""stimulus"":""run_exp/static/images/task_images/dig.jpg"",""time"":0.39999961853027344},{""stimulus"":""run_exp/static/images/task_images/land.jpg"",""time"":674},{""stimulus"":""run_exp/static/images/task_images/dig.jpg"",""time"":1339.7999992370605}]",[],,,,,,,,,,,,,,,
harvest_prac,41,346256,0.0-15.0-1.0,"""event"",""trial"",""time""
""fullscreenenter"",""1"",""2977""
","
","
","""event"",""trial"",""time""
""fullscreenenter"",""1"",""2977""
","
",,null,run_exp/static/images/task_images/barrel_text.jpg,null,,,,,,,,,,,,,,,,,,,,,,,,
decision_prac,42,346588,0.0-15.0-2.0,"""event"",""trial"",""time""
""fullscreenenter"",""1"",""2977""
","
","
","""event"",""trial"",""time""
""fullscreenenter"",""1"",""2977""
","
",,329.6000004,run_exp/static/images/task_images/land.jpg,65,,,,,,,,,,,,1,,,,,,,,,,,,
quiz_instruc,43,349962,0.0-16.0-0.0,"""event"",""trial"",""time""
""fullscreenenter"",""1"",""2977""
","
","
","""event"",""trial"",""time""
""fullscreenenter"",""1"",""2977""
","
",,3368.3,run_exp/static/audio/clip_10_quiz.m4a,,,,,,,0,,,,,,,,,,,,,,,,,,
instruc_repeat,44,392747,0.0-16.0-1.0,"""event"",""trial"",""time""
""fullscreenenter"",""1"",""2977""
","
","
","""event"",""trial"",""time""
""fullscreenenter"",""1"",""2977""
","
",,null,"<p> Are you ready to play a practice game? </p> <p>In this practice game, you'll be digging up barrels of gems. But, in the real game, you'll be digging up the gems themselves. </p>",null,"<p>In this game, your goal is to collect as many gems as you can. That’s how you will win bonus money. </p> <p>The entire game will last 20 minutes no matter how many gems you collect or how many planets you visit. </p><p>To stay on a planet and dig again, press the letter A on your keyboard. To leave for a new planet, press the letter L.</p><p>The more you dig on a planet, the fewer gems you’ll get with each dig which is why you might consider leaving for a new planet. </p><p>When you arrive at a new planet, you’ll be greeted by an alien. What the alien looks like does not tell you anything about how much treasure is on the planet. </p>",,,,,,,,,,,,,,,,,,,,,,,
instruc_repeat_continue,45,394950,0.0-16.0-2.0,"""event"",""trial"",""time""
""fullscreenenter"",""1"",""2977""
","
","
","""event"",""trial"",""time""
""fullscreenenter"",""1"",""2977""
","
",,2199.900001,"<p> Are you ready to play a practice game? </p> <p>In this practice game, you'll be digging up barrels of gems. But, in the real game, you'll be digging up the gems themselves. </p>",,,,,,,0,,,,,,,,,,,,,,,,,,
quiz_q_1_ask,46,405750,0.0-16.0-3.0,"""event"",""trial"",""time""
""fullscreenenter"",""1"",""2977""
","
","
","""event"",""trial"",""time""
""fullscreenenter"",""1"",""2977""
","
",,10797.8,run_exp/static/audio/clip_11_q1_ask.m4a,,,,,,,2,,,,,,,,,,,,,,,,,,
quiz_q_1_fb_correct,47,409627,0.0-17.0-0.0,"""event"",""trial"",""time""
""fullscreenenter"",""1"",""2977""
","
","
","""event"",""trial"",""time""
""fullscreenenter"",""1"",""2977""
","
",,null,run_exp/static/audio/clip_12_q1_correct.m4a,null,<p>That’s correct. You win extra money by collecting more gems.</p>,,,,,,,,,,,,,,,,,,,,,,,
quiz_q_2_ask,48,437969,0.0-17.0-1.0,"""event"",""trial"",""time""
""fullscreenenter"",""1"",""2977""
","
","
","""event"",""trial"",""time""
""fullscreenenter"",""1"",""2977""
","
",,28336.9,run_exp/static/audio/clip_14_q2_ask.m4a,,,,,,,1,,,,,,,,,,,,,,,,,,
quiz_q_2_fb_correct,49,442409,0.0-18.0-0.0,"""event"",""trial"",""time""
""fullscreenenter"",""1"",""2977""
","
","
","""event"",""trial"",""time""
""fullscreenenter"",""1"",""2977""
","
",,null,run_exp/static/audio/clip_15_q2_correct.m4a,null,<p>That’s correct. The experiment is 20 minutes no matter what.</p>,,,,,,,,,,,,,,,,,,,,,,,
quiz_q_3_ask,50,450446,0.0-18.0-1.0,"""event"",""trial"",""time""
""fullscreenenter"",""1"",""2977""
","
","
","""event"",""trial"",""time""
""fullscreenenter"",""1"",""2977""
","
",,8033.6,run_exp/static/audio/clip_17_q3_ask.m4a,,,,,,,1,,,,,,,,,,,,,,,,,,
quiz_q_3_fb_correct,51,454449,0.0-19.0-0.0,"""event"",""trial"",""time""
""fullscreenenter"",""1"",""2977""
","
","
","""event"",""trial"",""time""
""fullscreenenter"",""1"",""2977""
","
",,null,run_exp/static/audio/clip_18_q3_correct.m4a,null,<p> That’s correct. You press the letter L to travel to a new planet.</p>,,,,,,,,,,,,,,,,,,,,,,,
quiz_q_4_ask,52,462079,0.0-19.0-1.0,"""event"",""trial"",""time""
""fullscreenenter"",""1"",""2977""
","
","
","""event"",""trial"",""time""
""fullscreenenter"",""1"",""2977""
","
",,7627.3,run_exp/static/audio/clip_20_q4_ask.m4a,,,,,,,0,,,,,,,,,,,,,,,,,,
quiz_q_4_fb_correct,53,467429,0.0-20.0-0.0,"""event"",""trial"",""time""
""fullscreenenter"",""1"",""2977""
","
","
","""event"",""trial"",""time""
""fullscreenenter"",""1"",""2977""
","
",,null,run_exp/static/audio/clip_21_q4_correct.m4a,null,<p> That’s correct. The more you dig on a planet the fewer gems you’ll get with each dig. </p>,,,,,,,,,,,,,,,,,,,,,,,
quiz_q_5_ask,54,471268,0.0-20.0-1.0,"""event"",""trial"",""time""
""fullscreenenter"",""1"",""2977""
","
","
","""event"",""trial"",""time""
""fullscreenenter"",""1"",""2977""
","
",,3835.8,run_exp/static/audio/clip_23_q5_ask.m4a,,,,,,,1,,,,,,,,,,,,,,,,,,
quiz_q_5_fb_correct,55,476309,0.0-21.0-0.0,"""event"",""trial"",""time""
""fullscreenenter"",""1"",""2977""
","
","
","""event"",""trial"",""time""
""fullscreenenter"",""1"",""2977""
","
",,null,run_exp/static/audio/clip_24_q5_correct.m4a,null,<p> That’s correct. The alien tells you nothing about how much treasure is on the planet.</p>,,,,,,,,,,,,,,,,,,,,,,,
quiz_correct,56,479788,0.0-22.0-0.0,"""event"",""trial"",""time""
""fullscreenenter"",""1"",""2977""
","
","
","""event"",""trial"",""time""
""fullscreenenter"",""1"",""2977""
","
",,null,run_exp/static/audio/clip_26_correct_quiz.m4a,null,,,,,,,,,,,,,,,,,,,,,,,,
quiz_correct_continue,57,483040,0.0-22.0-1.0,"""event"",""trial"",""time""
""fullscreenenter"",""1"",""2977""
","
","
","""event"",""trial"",""time""
""fullscreenenter"",""1"",""2977""
","
",,3249.6,<p>Good job! You're now ready to move on to the real game!</p>,,,,,,,0,,,,,,,,,,,,,,,,,,
audio-keyboard-response,58,493189,0.0-22.0-2.0,"""event"",""trial"",""time""
""fullscreenenter"",""1"",""2977""
","
","
","""event"",""trial"",""time""
""fullscreenenter"",""1"",""2977""
","
",,null,run_exp/static/audio/clip_28_real_game.m4a,null,,,,,,,,,,,,,,,,,,,,,,,,
instruc_begin_exp_contine,59,498135,0.0-22.0-3.0,"""event"",""trial"",""time""
""fullscreenenter"",""1"",""2977""
","
","
","""event"",""trial"",""time""
""fullscreenenter"",""1"",""2977""
","
",,4943.099999,"<p>Now that you know how  to dig for space treasure and travel to new planets,you can start exploring! </p><p>Do you want to go over the instructions again or get started with the real game?</p>",,,,,,,1,,,,,,1,,,,,,,,,,,,
alien_welcome,60,503157,0.0-23.0-0.0,"""event"",""trial"",""time""
""fullscreenenter"",""1"",""2977""
","
","
","""event"",""trial"",""time""
""fullscreenenter"",""1"",""2977""
","
",,null,run_exp/static/images/task_images/aliens/old_aliens/planet/alien_planet-69.jpg,null,,,,,,,,,,,,,69,"69,41,36,21,42,74,31,15,3,14,70,55,76,19,67,30,73,24,49,5,6,26,65",,,,,,,,,,
land,61,503673,0.0-23.0-1.0,"""event"",""trial"",""time""
""fullscreenenter"",""1"",""2977""
","
","
","""event"",""trial"",""time""
""fullscreenenter"",""1"",""2977""
","
",,null,run_exp/static/images/task_images/land.jpg,null,,,,,,,95,,,1,,,,,,,,,,,,,,
dig,62,505680,0.0-23.0-2.0,"""event"",""trial"",""time""
""fullscreenenter"",""1"",""2977""
","
","
","""event"",""trial"",""time""
""fullscreenenter"",""1"",""2977""
","
",,,,,,,,,,,,"[{""stimulus"":""run_exp/static/images/task_images/dig.jpg"",""time"":0.19999980926513672},{""stimulus"":""run_exp/static/images/task_images/land.jpg"",""time"":679.1999998092651},{""stimulus"":""run_exp/static/images/task_images/dig.jpg"",""time"":1349.5999994277954}]",[],1,,,,,,,,,,,,,,
harvest,63,506695,0.0-23.0-3.0,"""event"",""trial"",""time""
""fullscreenenter"",""1"",""2977""
","
","
","""event"",""trial"",""time""
""fullscreenenter"",""1"",""2977""
","
",,null,run_exp/static/images/task_images/gems/95.jpg,null,,,,,,,24,,,1,,,,,95,0.254425244,0.252631579,,,,,,,
decision,64,507100,0.0-23.0-4.0,"""event"",""trial"",""time""
""fullscreenenter"",""1"",""2977""
","
","
","""event"",""trial"",""time""
""fullscreenenter"",""1"",""2977""
","
",,402.5,run_exp/static/images/task_images/land.jpg,65,,,,,,,24,,,1,,,,,,,,8964,1,0,FALSE,,,
dig,65,509715,0.0-24.0-0.0,"""event"",""trial"",""time""
""fullscreenenter"",""1"",""2977""
","
","
","""event"",""trial"",""time""
""fullscreenenter"",""1"",""2977""
","
",,,,,,,,,,,,"[{""stimulus"":""run_exp/static/images/task_images/dig.jpg"",""time"":0.3000001907348633},{""stimulus"":""run_exp/static/images/task_images/land.jpg"",""time"":877.3999996185303},{""stimulus"":""run_exp/static/images/task_images/dig.jpg"",""time"":1742.1999998092651}]",[],1,,,,,,,,,,,,,,
harvest,66,510725,0.0-24.0-1.0,"""event"",""trial"",""time""
""fullscreenenter"",""1"",""2977""
","
","
","""event"",""trial"",""time""
""fullscreenenter"",""1"",""2977""
","
",,null,run_exp/static/images/task_images/gems/24.jpg,null,,,,,,,6,,,1,,,,,24,0.258998663,0.25,,,,,,,
decision,67,511247,0.0-24.0-2.0,"""event"",""trial"",""time""
""fullscreenenter"",""1"",""2977""
","
","
","""event"",""trial"",""time""
""fullscreenenter"",""1"",""2977""
","
",,519.9000006,run_exp/static/images/task_images/land.jpg,65,,,,,,,6,,,1,,,,,,,,13110,1,1,FALSE,,,
dig,68,513734,0.0-25.0-0.0,"""event"",""trial"",""time""
""fullscreenenter"",""1"",""2977""
","
","
","""event"",""trial"",""time""
""fullscreenenter"",""1"",""2977""
","
",,,,,,,,,,,,"[{""stimulus"":""run_exp/static/images/task_images/dig.jpg"",""time"":0.39999961853027344},{""stimulus"":""run_exp/static/images/task_images/land.jpg"",""time"":842.8999996185303},{""stimulus"":""run_exp/static/images/task_images/dig.jpg"",""time"":1672.6999998092651}]",[],1,,,,,,,,,,,,,,
harvest,69,514753,0.0-25.0-1.0,"""event"",""trial"",""time""
""fullscreenenter"",""1"",""2977""
","
","
","""event"",""trial"",""time""
""fullscreenenter"",""1"",""2977""
","
",,null,run_exp/static/images/task_images/gems/6.jpg,null,,,,,,,1,,,1,,,,,6,0.219951309,0.166666667,,,,,,,
decision,70,515150,0.0-25.0-2.0,"""event"",""trial"",""time""
""fullscreenenter"",""1"",""2977""
","
","
","""event"",""trial"",""time""
""fullscreenenter"",""1"",""2977""
","
",,395.5,run_exp/static/images/task_images/land.jpg,65,,,,,,,1,,,1,,,,,,,,17014,1,2,FALSE,,,
dig,71,517775,0.0-26.0-0.0,"""event"",""trial"",""time""
""fullscreenenter"",""1"",""2977""
","
","
","""event"",""trial"",""time""
""fullscreenenter"",""1"",""2977""
","
",,,,,,,,,,,,"[{""stimulus"":""run_exp/static/images/task_images/dig.jpg"",""time"":0.3000001907348633},{""stimulus"":""run_exp/static/images/task_images/land.jpg"",""time"":885.1999998092651},{""stimulus"":""run_exp/static/images/task_images/dig.jpg"",""time"":1744.4000005722046}]",[],1,,,,,,,,,,,,,,
harvest,72,518785,0.0-26.0-1.0,"""event"",""trial"",""time""
""fullscreenenter"",""1"",""2977""
","
","
","""event"",""trial"",""time""
""fullscreenenter"",""1"",""2977""
","
",,null,run_exp/static/images/task_images/gems/1.jpg,null,,,,,,,0,,,1,,,,,1,0.198891786,0,,,,,,,
decision,73,518809,0.0-26.0-2.0,"""event"",""trial"",""time""
""fullscreenenter"",""1"",""2977""
","
","
","""event"",""trial"",""time""
""fullscreenenter"",""1"",""2977""
","
",,22,run_exp/static/images/task_images/land.jpg,76,,,,,,,0,,,1,,,,,,,,20672,1,3,TRUE,,,
travel,74,528805,0.0-27.0-0.0,"""event"",""trial"",""time""
""fullscreenenter"",""1"",""2977""
","
","
","""event"",""trial"",""time""
""fullscreenenter"",""1"",""2977""
","
",,,,,,,,,,,,"[{""stimulus"":""run_exp/static/images/task_images/rocket-01.jpg"",""time"":0.19999980926513672},{""stimulus"":""run_exp/static/images/task_images/rocket-02.jpg"",""time"":1113.3000001907349},{""stimulus"":""run_exp/static/images/task_images/rocket-03.jpg"",""time"":2226.9000005722046},{""stimulus"":""run_exp/static/images/task_images/rocket-04.jpg"",""time"":3341.699999809265},{""stimulus"":""run_exp/static/images/task_images/rocket-05.jpg"",""time"":4442},{""stimulus"":""run_exp/static/images/task_images/rocket-06.jpg"",""time"":5551.699999809265},{""stimulus"":""run_exp/static/images/task_images/rocket-07.jpg"",""time"":6661.60000038147},{""stimulus"":""run_exp/static/images/task_images/rocket-08.jpg"",""time"":7762},{""stimulus"":""run_exp/static/images/task_images/rocket-09.jpg"",""time"":8871.699999809265}]",[],1,,,,,,,,,,,,,,
alien_welcome,75,533825,0.0-27.0-1.0,"""event"",""trial"",""time""
""fullscreenenter"",""1"",""2977""
","
","
","""event"",""trial"",""time""
""fullscreenenter"",""1"",""2977""
","
",,null,run_exp/static/images/task_images/aliens/old_aliens/planet/alien_planet-41.jpg,null,,,,,,,,,,,,,41,"69,41,36,21,42,74,31,15,3,14,70,55,76,19,67,30,73,24,49,5,6,26,65",,,,,,,,,,
land,76,534345,0.0-27.0-2.0,"""event"",""trial"",""time""
""fullscreenenter"",""1"",""2977""
","
","
","""event"",""trial"",""time""
""fullscreenenter"",""1"",""2977""
","
",,null,run_exp/static/images/task_images/land.jpg,null,,,,,,,93,,,2,,,,,,,,,,,,,,
dig,77,536355,0.0-27.0-3.0,"""event"",""trial"",""time""
""fullscreenenter"",""1"",""2977""
","
","
","""event"",""trial"",""time""
""fullscreenenter"",""1"",""2977""
","
",,,,,,,,,,,,"[{""stimulus"":""run_exp/static/images/task_images/dig.jpg"",""time"":0.2999992370605469},{""stimulus"":""run_exp/static/images/task_images/land.jpg"",""time"":688.1999998092651},{""stimulus"":""run_exp/static/images/task_images/dig.jpg"",""time"":1335.6999998092651}]",[],2,,,,,,,,,,,,,,
harvest,78,537375,0.0-27.0-4.0,"""event"",""trial"",""time""
""fullscreenenter"",""1"",""2977""
","
","
","""event"",""trial"",""time""
""fullscreenenter"",""1"",""2977""
","
",,null,run_exp/static/images/task_images/gems/93.jpg,null,,,,,,,26,,,2,,,,,93,0.275924496,0.279569892,,,,,,,
decision,79,537703,0.0-27.0-5.0,"""event"",""trial"",""time""
""fullscreenenter"",""1"",""2977""
","
","
","""event"",""trial"",""time""
""fullscreenenter"",""1"",""2977""
","
",,326.5,run_exp/static/images/task_images/land.jpg,65,,,,,,,26,,,2,,,,,,,,39566,1,0,FALSE,,,
dig,80,540395,0.0-28.0-0.0,"""event"",""trial"",""time""
""fullscreenenter"",""1"",""2977""
","
","
","""event"",""trial"",""time""
""fullscreenenter"",""1"",""2977""
","
",,,,,,,,,,,,"[{""stimulus"":""run_exp/static/images/task_images/dig.jpg"",""time"":0.19999980926513672},{""stimulus"":""run_exp/static/images/task_images/land.jpg"",""time"":903.3000001907349},{""stimulus"":""run_exp/static/images/task_images/dig.jpg"",""time"":1784.8000001907349}]",[],2,,,,,,,,,,,,,,
harvest,81,541415,0.0-28.0-1.0,"""event"",""trial"",""time""
""fullscreenenter"",""1"",""2977""
","
","
","""event"",""trial"",""time""
""fullscreenenter"",""1"",""2977""
","
",,null,run_exp/static/images/task_images/gems/26.jpg,null,,,,,,,5,,,2,,,,,26,0.211217638,0.192307692,,,,,,,
decision,82,541674,0.0-28.0-2.0,"""event"",""trial"",""time""
""fullscreenenter"",""1"",""2977""
","
","
","""event"",""trial"",""time""
""fullscreenenter"",""1"",""2977""
","
",,257.5999994,run_exp/static/images/task_images/land.jpg,65,,,,,,,5,,,2,,,,,,,,43537,1,1,FALSE,,,
dig,83,544425,0.0-29.0-0.0,"""event"",""trial"",""time""
""fullscreenenter"",""1"",""2977""
","
","
","""event"",""trial"",""time""
""fullscreenenter"",""1"",""2977""
","
",,,,,,,,,,,,"[{""stimulus"":""run_exp/static/images/task_images/dig.jpg"",""time"":0.19999980926513672},{""stimulus"":""run_exp/static/images/task_images/land.jpg"",""time"":925.7999992370605},{""stimulus"":""run_exp/static/images/task_images/dig.jpg"",""time"":1837.3999996185303}]",[],2,,,,,,,,,,,,,,
harvest,84,545433,0.0-29.0-1.0,"""event"",""trial"",""time""
""fullscreenenter"",""1"",""2977""
","
","
","""event"",""trial"",""time""
""fullscreenenter"",""1"",""2977""
","
",,null,run_exp/static/images/task_images/gems/5.jpg,null,,,,,,,1,,,2,,,,,5,0.222059906,0.2,,,,,,,
decision,85,545777,0.0-29.0-2.0,"""event"",""trial"",""time""
""fullscreenenter"",""1"",""2977""
","
","
","""event"",""trial"",""time""
""fullscreenenter"",""1"",""2977""
","
",,343.1000004,run_exp/static/images/task_images/land.jpg,65,,,,,,,1,,,2,,,,,,,,47640,1,2,FALSE,,,
dig,86,548454,0.0-30.0-0.0,"""event"",""trial"",""time""
""fullscreenenter"",""1"",""2977""
","
","
","""event"",""trial"",""time""
""fullscreenenter"",""1"",""2977""
","
",,,,,,,,,,,,"[{""stimulus"":""run_exp/static/images/task_images/dig.jpg"",""time"":0.39999961853027344},{""stimulus"":""run_exp/static/images/task_images/land.jpg"",""time"":895.8000001907349},{""stimulus"":""run_exp/static/images/task_images/dig.jpg"",""time"":1780.8000001907349}]",[],2,,,,,,,,,,,,,,
harvest,87,549459,0.0-30.0-1.0,"""event"",""trial"",""time""
""fullscreenenter"",""1"",""2977""
","
","
","""event"",""trial"",""time""
""fullscreenenter"",""1"",""2977""
","
",,null,run_exp/static/images/task_images/gems/1.jpg,null,,,,,,,0,,,2,,,,,1,0.187497338,0,,,,,,,
decision,88,549679,0.0-30.0-2.0,"""event"",""trial"",""time""
""fullscreenenter"",""1"",""2977""
","
","
","""event"",""trial"",""time""
""fullscreenenter"",""1"",""2977""
","
",,217.8000002,run_exp/static/images/task_images/land.jpg,65,,,,,,,0,,,2,,,,,,,,51542,1,3,FALSE,,,
dig,89,552475,0.0-31.0-0.0,"""event"",""trial"",""time""
""fullscreenenter"",""1"",""2977""
","
","
","""event"",""trial"",""time""
""fullscreenenter"",""1"",""2977""
","
",,,,,,,,,,,,"[{""stimulus"":""run_exp/static/images/task_images/dig.jpg"",""time"":0.19999980926513672},{""stimulus"":""run_exp/static/images/task_images/land.jpg"",""time"":933.6000003814697},{""stimulus"":""run_exp/static/images/task_images/dig.jpg"",""time"":1855.8000001907349}]",[],2,,,,,,,,,,,,,,
harvest,90,553496,0.0-31.0-1.0,"""event"",""trial"",""time""
""fullscreenenter"",""1"",""2977""
","
","
","""event"",""trial"",""time""
""fullscreenenter"",""1"",""2977""
","
",,null,run_exp/static/images/task_images/gems/0.jpg,null,,,,,,,0,,,2,,,,,0,0.223707419,NaN,,,,,,,
decision,91,553814,0.0-31.0-2.0,"""event"",""trial"",""time""
""fullscreenenter"",""1"",""2977""
","
","
","""event"",""trial"",""time""
""fullscreenenter"",""1"",""2977""
","
",,316,run_exp/static/images/task_images/land.jpg,76,,,,,,,0,,,2,,,,,,,,55677,1,4,TRUE,,,
travel,92,563505,0.0-32.0-0.0,"""event"",""trial"",""time""
""fullscreenenter"",""1"",""2977""
","
","
","""event"",""trial"",""time""
""fullscreenenter"",""1"",""2977""
","
",,,,,,,,,,,,"[{""stimulus"":""run_exp/static/images/task_images/rocket-01.jpg"",""time"":0.3000001907348633},{""stimulus"":""run_exp/static/images/task_images/rocket-02.jpg"",""time"":1096.0999994277954},{""stimulus"":""run_exp/static/images/task_images/rocket-03.jpg"",""time"":2156.5},{""stimulus"":""run_exp/static/images/task_images/rocket-04.jpg"",""time"":3236.300000190735},{""stimulus"":""run_exp/static/images/task_images/rocket-05.jpg"",""time"":4316.199999809265},{""stimulus"":""run_exp/static/images/task_images/rocket-06.jpg"",""time"":5395.89999961853},{""stimulus"":""run_exp/static/images/task_images/rocket-07.jpg"",""time"":6461.300000190735},{""stimulus"":""run_exp/static/images/task_images/rocket-08.jpg"",""time"":7535.800000190735},{""stimulus"":""run_exp/static/images/task_images/rocket-09.jpg"",""time"":8615.599999427795}]",[],2,,,,,,,,,,,,,,
alien_welcome,93,568515,0.0-32.0-1.0,"""event"",""trial"",""time""
""fullscreenenter"",""1"",""2977""
","
","
","""event"",""trial"",""time""
""fullscreenenter"",""1"",""2977""
","
",,null,run_exp/static/images/task_images/aliens/old_aliens/planet/alien_planet-36.jpg,null,,,,,,,,,,,,,36,"69,41,36,21,42,74,31,15,3,14,70,55,76,19,67,30,73,24,49,5,6,26,65",,,,,,,,,,
land,94,569035,0.0-32.0-2.0,"""event"",""trial"",""time""
""fullscreenenter"",""1"",""2977""
","
","
","""event"",""trial"",""time""
""fullscreenenter"",""1"",""2977""
","
",,null,run_exp/static/images/task_images/land.jpg,null,,,,,,,109,,,3,,,,,,,,,,,,,,
dig,95,571055,0.0-32.0-3.0,"""event"",""trial"",""time""
""fullscreenenter"",""1"",""2977""
","
","
","""event"",""trial"",""time""
""fullscreenenter"",""1"",""2977""
","
",,,,,,,,,,,,"[{""stimulus"":""run_exp/static/images/task_images/dig.jpg"",""time"":0.3000001907348633},{""stimulus"":""run_exp/static/images/task_images/land.jpg"",""time"":678.3000001907349},{""stimulus"":""run_exp/static/images/task_images/dig.jpg"",""time"":1338.9000005722046}]",[],3,,,,,,,,,,,,,,
harvest,96,572066,0.0-32.0-4.0,"""event"",""trial"",""time""
""fullscreenenter"",""1"",""2977""
","
","
","""event"",""trial"",""time""
""fullscreenenter"",""1"",""2977""
","
",,null,run_exp/static/images/task_images/gems/109.jpg,null,,,,,,,53,,,3,,,,,109,0.486336983,0.486238532,,,,,,,
decision,97,572504,0.0-32.0-5.0,"""event"",""trial"",""time""
""fullscreenenter"",""1"",""2977""
","
","
","""event"",""trial"",""time""
""fullscreenenter"",""1"",""2977""
","
",,436.4000006,run_exp/static/images/task_images/land.jpg,65,,,,,,,53,,,3,,,,,,,,74367,1,0,FALSE,,,
dig,98,575075,0.0-33.0-0.0,"""event"",""trial"",""time""
""fullscreenenter"",""1"",""2977""
","
","
","""event"",""trial"",""time""
""fullscreenenter"",""1"",""2977""
","
",,,,,,,,,,,,"[{""stimulus"":""run_exp/static/images/task_images/dig.jpg"",""time"":0.40000057220458984},{""stimulus"":""run_exp/static/images/task_images/land.jpg"",""time"":858.5},{""stimulus"":""run_exp/static/images/task_images/dig.jpg"",""time"":1717.7000007629395}]",[],3,,,,,,,,,,,,,,
harvest,99,576095,0.0-33.0-1.0,"""event"",""trial"",""time""
""fullscreenenter"",""1"",""2977""
","
","
","""event"",""trial"",""time""
""fullscreenenter"",""1"",""2977""
","
",,null,run_exp/static/images/task_images/gems/53.jpg,null,,,,,,,27,,,3,,,,,53,0.504974837,0.509433962,,,,,,,
decision,100,576173,0.0-33.0-2.0,"""event"",""trial"",""time""
""fullscreenenter"",""1"",""2977""
","
","
","""event"",""trial"",""time""
""fullscreenenter"",""1"",""2977""
","
",,77.10000038,run_exp/static/images/task_images/land.jpg,65,,,,,,,27,,,3,,,,,,,,78037,1,1,FALSE,,,
dig,101,579115,0.0-34.0-0.0,"""event"",""trial"",""time""
""fullscreenenter"",""1"",""2977""
","
","
","""event"",""trial"",""time""
""fullscreenenter"",""1"",""2977""
","
",,,,,,,,,,,,"[{""stimulus"":""run_exp/static/images/task_images/dig.jpg"",""time"":0.40000057220458984},{""stimulus"":""run_exp/static/images/task_images/land.jpg"",""time"":981.6999998092651},{""stimulus"":""run_exp/static/images/task_images/dig.jpg"",""time"":1967}]",[],3,,,,,,,,,,,,,,
harvest,102,580120,0.0-34.0-1.0,"""event"",""trial"",""time""
""fullscreenenter"",""1"",""2977""
","
","
","""event"",""trial"",""time""
""fullscreenenter"",""1"",""2977""
","
",,null,run_exp/static/images/task_images/gems/27.jpg,null,,,,,,,12,,,3,,,,,27,0.458816897,0.444444444,,,,,,,
decision,103,581031,0.0-34.0-2.0,"""event"",""trial"",""time""
""fullscreenenter"",""1"",""2977""
","
","
","""event"",""trial"",""time""
""fullscreenenter"",""1"",""2977""
","
",,909.0999994,run_exp/static/images/task_images/land.jpg,65,,,,,,,12,,,3,,,,,,,,82895,1,2,FALSE,,,
dig,104,583145,0.0-35.0-0.0,"""event"",""trial"",""time""
""fullscreenenter"",""1"",""2977""
","
","
","""event"",""trial"",""time""
""fullscreenenter"",""1"",""2977""
","
",,,,,,,,,,,,"[{""stimulus"":""run_exp/static/images/task_images/dig.jpg"",""time"":0.3000001907348633},{""stimulus"":""run_exp/static/images/task_images/land.jpg"",""time"":699.1999998092651},{""stimulus"":""run_exp/static/images/task_images/dig.jpg"",""time"":1399.5}]",[],3,,,,,,,,,,,,,,
harvest,105,584155,0.0-35.0-1.0,"""event"",""trial"",""time""
""fullscreenenter"",""1"",""2977""
","
","
","""event"",""trial"",""time""
""fullscreenenter"",""1"",""2977""
","
",,null,run_exp/static/images/task_images/gems/12.jpg,null,,,,,,,5,,,3,,,,,12,0.433827716,0.416666667,,,,,,,
decision,106,584477,0.0-35.0-2.0,"""event"",""trial"",""time""
""fullscreenenter"",""1"",""2977""
","
","
","""event"",""trial"",""time""
""fullscreenenter"",""1"",""2977""
","
",,319.8000002,run_exp/static/images/task_images/land.jpg,65,,,,,,,5,,,3,,,,,,,,86340,1,3,FALSE,,,
dig,107,587175,0.0-36.0-0.0,"""event"",""trial"",""time""
""fullscreenenter"",""1"",""2977""
","
","
","""event"",""trial"",""time""
""fullscreenenter"",""1"",""2977""
","
",,,,,,,,,,,,"[{""stimulus"":""run_exp/static/images/task_images/dig.jpg"",""time"":0.3000001907348633},{""stimulus"":""run_exp/static/images/task_images/land.jpg"",""time"":896.7000007629395},{""stimulus"":""run_exp/static/images/task_images/dig.jpg"",""time"":1803.6000003814697}]",[],3,,,,,,,,,,,,,,
harvest,108,588190,0.0-36.0-1.0,"""event"",""trial"",""time""
""fullscreenenter"",""1"",""2977""
","
","
","""event"",""trial"",""time""
""fullscreenenter"",""1"",""2977""
","
",,null,run_exp/static/images/task_images/gems/5.jpg,null,,,,,,,3,,,3,,,,,5,0.574913907,0.6,,,,,,,
decision,109,588631,0.0-36.0-2.0,"""event"",""trial"",""time""
""fullscreenenter"",""1"",""2977""
","
","
","""event"",""trial"",""time""
""fullscreenenter"",""1"",""2977""
","
",,439.3999996,run_exp/static/images/task_images/land.jpg,65,,,,,,,3,,,3,,,,,,,,90495,1,4,FALSE,,,
dig,110,591215,0.0-37.0-0.0,"""event"",""trial"",""time""
""fullscreenenter"",""1"",""2977""
","
","
","""event"",""trial"",""time""
""fullscreenenter"",""1"",""2977""
","
",,,,,,,,,,,,"[{""stimulus"":""run_exp/static/images/task_images/dig.jpg"",""time"":0.3000001907348633},{""stimulus"":""run_exp/static/images/task_images/land.jpg"",""time"":859.3999996185303},{""stimulus"":""run_exp/static/images/task_images/dig.jpg"",""time"":1717.1999998092651}]",[],3,,,,,,,,,,,,,,
harvest,111,592236,0.0-37.0-1.0,"""event"",""trial"",""time""
""fullscreenenter"",""1"",""2977""
","
","
","""event"",""trial"",""time""
""fullscreenenter"",""1"",""2977""
","
",,null,run_exp/static/images/task_images/gems/3.jpg,null,,,,,,,2,,,3,,,,,3,0.619996294,0.666666667,,,,,,,
decision,112,592664,0.0-37.0-2.0,"""event"",""trial"",""time""
""fullscreenenter"",""1"",""2977""
","
","
","""event"",""trial"",""time""
""fullscreenenter"",""1"",""2977""
","
",,426.2000008,run_exp/static/images/task_images/land.jpg,65,,,,,,,2,,,3,,,,,,,,94527,1,5,FALSE,,,
dig,113,595255,0.0-38.0-0.0,"""event"",""trial"",""time""
""fullscreenenter"",""1"",""2977""
","
","
","""event"",""trial"",""time""
""fullscreenenter"",""1"",""2977""
","
",,,,,,,,,,,,"[{""stimulus"":""run_exp/static/images/task_images/dig.jpg"",""time"":0.3000001907348633},{""stimulus"":""run_exp/static/images/task_images/land.jpg"",""time"":861.8000001907349},{""stimulus"":""run_exp/static/images/task_images/dig.jpg"",""time"":1727.1000003814697}]",[],3,,,,,,,,,,,,,,
harvest,114,596275,0.0-38.0-1.0,"""event"",""trial"",""time""
""fullscreenenter"",""1"",""2977""
","
","
","""event"",""trial"",""time""
""fullscreenenter"",""1"",""2977""
","
",,null,run_exp/static/images/task_images/gems/2.jpg,null,,,,,,,1,,,3,,,,,2,0.522593867,0.5,,,,,,,
decision,115,596628,0.0-38.0-2.0,"""event"",""trial"",""time""
""fullscreenenter"",""1"",""2977""
","
","
","""event"",""trial"",""time""
""fullscreenenter"",""1"",""2977""
","
",,350.5,run_exp/static/images/task_images/land.jpg,65,,,,,,,1,,,3,,,,,,,,98491,1,6,FALSE,,,
dig,116,599296,0.0-39.0-0.0,"""event"",""trial"",""time""
""fullscreenenter"",""1"",""2977""
","
","
","""event"",""trial"",""time""
""fullscreenenter"",""1"",""2977""
","
",,,,,,,,,,,,"[{""stimulus"":""run_exp/static/images/task_images/dig.jpg"",""time"":0.19999980926513672},{""stimulus"":""run_exp/static/images/task_images/land.jpg"",""time"":889.1000003814697},{""stimulus"":""run_exp/static/images/task_images/dig.jpg"",""time"":1773.8000001907349}]",[],3,,,,,,,,,,,,,,
harvest,117,600315,0.0-39.0-1.0,"""event"",""trial"",""time""
""fullscreenenter"",""1"",""2977""
","
","
","""event"",""trial"",""time""
""fullscreenenter"",""1"",""2977""
","
",,null,run_exp/static/images/task_images/gems/1.jpg,null,,,,,,,1,,,3,,,,,1,0.586883175,1,,,,,,,
decision,118,601726,0.0-39.0-2.0,"""event"",""trial"",""time""
""fullscreenenter"",""1"",""2977""
","
","
","""event"",""trial"",""time""
""fullscreenenter"",""1"",""2977""
","
",,1409.1,run_exp/static/images/task_images/land.jpg,76,,,,,,,1,,,3,,,,,,,,103589,1,7,TRUE,,,
travel,119,610335,0.0-40.0-0.0,"""event"",""trial"",""time""
""fullscreenenter"",""1"",""2977""
","
","
","""event"",""trial"",""time""
""fullscreenenter"",""1"",""2977""
","
",,,,,,,,,,,,"[{""stimulus"":""run_exp/static/images/task_images/rocket-01.jpg"",""time"":0.2999992370605469},{""stimulus"":""run_exp/static/images/task_images/rocket-02.jpg"",""time"":968.2999992370605},{""stimulus"":""run_exp/static/images/task_images/rocket-03.jpg"",""time"":1925.8999996185303},{""stimulus"":""run_exp/static/images/task_images/rocket-04.jpg"",""time"":2865.3999996185303},{""stimulus"":""run_exp/static/images/task_images/rocket-05.jpg"",""time"":3821.7999992370605},{""stimulus"":""run_exp/static/images/task_images/rocket-06.jpg"",""time"":4785.5},{""stimulus"":""run_exp/static/images/task_images/rocket-07.jpg"",""time"":5745.699999809265},{""stimulus"":""run_exp/static/images/task_images/rocket-08.jpg"",""time"":6696.099999427795},{""stimulus"":""run_exp/static/images/task_images/rocket-09.jpg"",""time"":7645.699999809265}]",[],3,,,,,,,,,,,,,,
alien_welcome,120,615346,0.0-40.0-1.0,"""event"",""trial"",""time""
""fullscreenenter"",""1"",""2977""
","
","
","""event"",""trial"",""time""
""fullscreenenter"",""1"",""2977""
","
",,null,run_exp/static/images/task_images/aliens/old_aliens/planet/alien_planet-21.jpg,null,,,,,,,,,,,,,21,"69,41,36,21,42,74,31,15,3,14,70,55,76,19,67,30,73,24,49,5,6,26,65",,,,,,,,,,
land,121,615855,0.0-40.0-2.0,"""event"",""trial"",""time""
""fullscreenenter"",""1"",""2977""
","
","
","""event"",""trial"",""time""
""fullscreenenter"",""1"",""2977""
","
",,null,run_exp/static/images/task_images/land.jpg,null,,,,,,,104,,,4,,,,,,,,,,,,,,
dig,122,617872,0.0-40.0-3.0,"""event"",""trial"",""time""
""fullscreenenter"",""1"",""2977""
","
","
","""event"",""trial"",""time""
""fullscreenenter"",""1"",""2977""
","
",,,,,,,,,,,,"[{""stimulus"":""run_exp/static/images/task_images/dig.jpg"",""time"":0.3000001907348633},{""stimulus"":""run_exp/static/images/task_images/land.jpg"",""time"":688.9000005722046},{""stimulus"":""run_exp/static/images/task_images/dig.jpg"",""time"":1348.5}]",[],4,,,,,,,,,,,,,,
harvest,123,618895,0.0-40.0-4.0,"""event"",""trial"",""time""
""fullscreenenter"",""1"",""2977""
","
","
","""event"",""trial"",""time""
""fullscreenenter"",""1"",""2977""
","
",,null,run_exp/static/images/task_images/gems/104.jpg,null,,,,,,,47,,,4,,,,,104,0.44826267,0.451923077,,,,,,,
decision,124,619475,0.0-40.0-5.0,"""event"",""trial"",""time""
""fullscreenenter"",""1"",""2977""
","
","
","""event"",""trial"",""time""
""fullscreenenter"",""1"",""2977""
","
",,578.5999994,run_exp/static/images/task_images/land.jpg,65,,,,,,,47,,,4,,,,,,,,121339,1,0,FALSE,,,
dig,125,621915,0.0-41.0-0.0,"""event"",""trial"",""time""
""fullscreenenter"",""1"",""2977""
","
","
","""event"",""trial"",""time""
""fullscreenenter"",""1"",""2977""
","
",,,,,,,,,,,,"[{""stimulus"":""run_exp/static/images/task_images/dig.jpg"",""time"":0.3000001907348633},{""stimulus"":""run_exp/static/images/task_images/land.jpg"",""time"":820.6999998092651},{""stimulus"":""run_exp/static/images/task_images/dig.jpg"",""time"":1615.6999998092651}]",[],4,,,,,,,,,,,,,,
harvest,126,622929,0.0-41.0-1.0,"""event"",""trial"",""time""
""fullscreenenter"",""1"",""2977""
","
","
","""event"",""trial"",""time""
""fullscreenenter"",""1"",""2977""
","
",,null,run_exp/static/images/task_images/gems/47.jpg,null,,,,,,,23,,,4,,,,,47,0.495094917,0.489361702,,,,,,,
decision,127,623602,0.0-41.0-2.0,"""event"",""trial"",""time""
""fullscreenenter"",""1"",""2977""
","
","
","""event"",""trial"",""time""
""fullscreenenter"",""1"",""2977""
","
",,670.8000002,run_exp/static/images/task_images/land.jpg,65,,,,,,,23,,,4,,,,,,,,125465,1,1,FALSE,,,
dig,128,625936,0.0-42.0-0.0,"""event"",""trial"",""time""
""fullscreenenter"",""1"",""2977""
","
","
","""event"",""trial"",""time""
""fullscreenenter"",""1"",""2977""
","
",,,,,,,,,,,,"[{""stimulus"":""run_exp/static/images/task_images/dig.jpg"",""time"":0.3000001907348633},{""stimulus"":""run_exp/static/images/task_images/land.jpg"",""time"":789.5999994277954},{""stimulus"":""run_exp/static/images/task_images/dig.jpg"",""time"":1567.5}]",[],4,,,,,,,,,,,,,,
harvest,129,626945,0.0-42.0-1.0,"""event"",""trial"",""time""
""fullscreenenter"",""1"",""2977""
","
","
","""event"",""trial"",""time""
""fullscreenenter"",""1"",""2977""
","
",,null,run_exp/static/images/task_images/gems/23.jpg,null,,,,,,,10,,,4,,,,,23,0.444987795,0.434782609,,,,,,,
decision,130,627151,0.0-42.0-2.0,"""event"",""trial"",""time""
""fullscreenenter"",""1"",""2977""
","
","
","""event"",""trial"",""time""
""fullscreenenter"",""1"",""2977""
","
",,204.2999992,run_exp/static/images/task_images/land.jpg,65,,,,,,,10,,,4,,,,,,,,129015,1,2,FALSE,,,
dig,131,629955,0.0-43.0-0.0,"""event"",""trial"",""time""
""fullscreenenter"",""1"",""2977""
","
","
","""event"",""trial"",""time""
""fullscreenenter"",""1"",""2977""
","
",,,,,,,,,,,,"[{""stimulus"":""run_exp/static/images/task_images/dig.jpg"",""time"":0.3000001907348633},{""stimulus"":""run_exp/static/images/task_images/land.jpg"",""time"":946.6000003814697},{""stimulus"":""run_exp/static/images/task_images/dig.jpg"",""time"":1878.4000005722046}]",[],4,,,,,,,,,,,,,,
harvest,132,630975,0.0-43.0-1.0,"""event"",""trial"",""time""
""fullscreenenter"",""1"",""2977""
","
","
","""event"",""trial"",""time""
""fullscreenenter"",""1"",""2977""
","
",,null,run_exp/static/images/task_images/gems/10.jpg,null,,,,,,,5,,,4,,,,,10,0.510957216,0.5,,,,,,,
decision,133,631340,0.0-43.0-2.0,"""event"",""trial"",""time""
""fullscreenenter"",""1"",""2977""
","
","
","""event"",""trial"",""time""
""fullscreenenter"",""1"",""2977""
","
",,363.1999998,run_exp/static/images/task_images/land.jpg,65,,,,,,,5,,,4,,,,,,,,133204,1,3,FALSE,,,
dig,134,633995,0.0-44.0-0.0,"""event"",""trial"",""time""
""fullscreenenter"",""1"",""2977""
","
","
","""event"",""trial"",""time""
""fullscreenenter"",""1"",""2977""
","
",,,,,,,,,,,,"[{""stimulus"":""run_exp/static/images/task_images/dig.jpg"",""time"":0.3000001907348633},{""stimulus"":""run_exp/static/images/task_images/land.jpg"",""time"":880.9000005722046},{""stimulus"":""run_exp/static/images/task_images/dig.jpg"",""time"":1771}]",[],4,,,,,,,,,,,,,,
harvest,135,635015,0.0-44.0-1.0,"""event"",""trial"",""time""
""fullscreenenter"",""1"",""2977""
","
","
","""event"",""trial"",""time""
""fullscreenenter"",""1"",""2977""
","
",,null,run_exp/static/images/task_images/gems/5.jpg,null,,,,,,,2,,,4,,,,,5,0.456140901,0.4,,,,,,,
decision,136,635644,0.0-44.0-2.0,"""event"",""trial"",""time""
""fullscreenenter"",""1"",""2977""
","
","
","""event"",""trial"",""time""
""fullscreenenter"",""1"",""2977""
","
",,627.0999994,run_exp/static/images/task_images/land.jpg,65,,,,,,,2,,,4,,,,,,,,137507,1,4,FALSE,,,
dig,137,638026,0.0-45.0-0.0,"""event"",""trial"",""time""
""fullscreenenter"",""1"",""2977""
","
","
","""event"",""trial"",""time""
""fullscreenenter"",""1"",""2977""
","
",,,,,,,,,,,,"[{""stimulus"":""run_exp/static/images/task_images/dig.jpg"",""time"":0.3000001907348633},{""stimulus"":""run_exp/static/images/task_images/land.jpg"",""time"":796.8000001907349},{""stimulus"":""run_exp/static/images/task_images/dig.jpg"",""time"":1586.8000001907349}]",[],4,,,,,,,,,,,,,,
harvest,138,639035,0.0-45.0-1.0,"""event"",""trial"",""time""
""fullscreenenter"",""1"",""2977""
","
","
","""event"",""trial"",""time""
""fullscreenenter"",""1"",""2977""
","
",,null,run_exp/static/images/task_images/gems/2.jpg,null,,,,,,,1,,,4,,,,,2,0.472598286,0.5,,,,,,,
decision,139,640166,0.0-45.0-2.0,"""event"",""trial"",""time""
""fullscreenenter"",""1"",""2977""
","
","
","""event"",""trial"",""time""
""fullscreenenter"",""1"",""2977""
","
",,1129.5,run_exp/static/images/task_images/land.jpg,65,,,,,,,1,,,4,,,,,,,,142030,1,5,FALSE,,,
dig,140,642055,0.0-46.0-0.0,"""event"",""trial"",""time""
""fullscreenenter"",""1"",""2977""
","
","
","""event"",""trial"",""time""
""fullscreenenter"",""1"",""2977""
","
",,,,,,,,,,,,"[{""stimulus"":""run_exp/static/images/task_images/dig.jpg"",""time"":0.3000001907348633},{""stimulus"":""run_exp/static/images/task_images/land.jpg"",""time"":627.3000001907349},{""stimulus"":""run_exp/static/images/task_images/dig.jpg"",""time"":1259}]",[],4,,,,,,,,,,,,,,
harvest,141,643075,0.0-46.0-1.0,"""event"",""trial"",""time""
""fullscreenenter"",""1"",""2977""
","
","
","""event"",""trial"",""time""
""fullscreenenter"",""1"",""2977""
","
",,null,run_exp/static/images/task_images/gems/1.jpg,null,,,,,,,1,,,4,,,,,1,0.527012338,1,,,,,,,
decision,142,643269,0.0-46.0-2.0,"""event"",""trial"",""time""
""fullscreenenter"",""1"",""2977""
","
","
","""event"",""trial"",""time""
""fullscreenenter"",""1"",""2977""
","
",,191.3999996,run_exp/static/images/task_images/land.jpg,65,,,,,,,1,,,4,,,,,,,,145132,1,6,FALSE,,,
dig,143,646085,0.0-47.0-0.0,"""event"",""trial"",""time""
""fullscreenenter"",""1"",""2977""
","
","
","""event"",""trial"",""time""
""fullscreenenter"",""1"",""2977""
","
",,,,,,,,,,,,"[{""stimulus"":""run_exp/static/images/task_images/dig.jpg"",""time"":0.3000001907348633},{""stimulus"":""run_exp/static/images/task_images/land.jpg"",""time"":951.5},{""stimulus"":""run_exp/static/images/task_images/dig.jpg"",""time"":1882.5}]",[],4,,,,,,,,,,,,,,
harvest,144,647105,0.0-47.0-1.0,"""event"",""trial"",""time""
""fullscreenenter"",""1"",""2977""
","
","
","""event"",""trial"",""time""
""fullscreenenter"",""1"",""2977""
","
",,null,run_exp/static/images/task_images/gems/1.jpg,null,,,,,,,0,,,4,,,,,1,0.432475409,0,,,,,,,
decision,145,647164,0.0-47.0-2.0,"""event"",""trial"",""time""
""fullscreenenter"",""1"",""2977""
","
","
","""event"",""trial"",""time""
""fullscreenenter"",""1"",""2977""
","
",,56.70000076,run_exp/static/images/task_images/land.jpg,65,,,,,,,0,,,4,,,,,,,,149027,1,7,FALSE,,,
dig,146,650125,0.0-48.0-0.0,"""event"",""trial"",""time""
""fullscreenenter"",""1"",""2977""
","
","
","""event"",""trial"",""time""
""fullscreenenter"",""1"",""2977""
","
",,,,,,,,,,,,"[{""stimulus"":""run_exp/static/images/task_images/dig.jpg"",""time"":0.40000057220458984},{""stimulus"":""run_exp/static/images/task_images/land.jpg"",""time"":998.8000001907349},{""stimulus"":""run_exp/static/images/task_images/dig.jpg"",""time"":1971.8000001907349}]",[],4,,,,,,,,,,,,,,
harvest,147,651128,0.0-48.0-1.0,"""event"",""trial"",""time""
""fullscreenenter"",""1"",""2977""
","
","
","""event"",""trial"",""time""
""fullscreenenter"",""1"",""2977""
","
",,null,run_exp/static/images/task_images/gems/0.jpg,null,,,,,,,0,,,4,,,,,0,0.418571898,NaN,,,,,,,
decision,148,651652,0.0-48.0-2.0,"""event"",""trial"",""time""
""fullscreenenter"",""1"",""2977""
","
","
","""event"",""trial"",""time""
""fullscreenenter"",""1"",""2977""
","
",,521.5,run_exp/static/images/task_images/land.jpg,76,,,,,,,0,,,4,,,,,,,,153515,1,8,TRUE,,,
travel,149,661136,0.0-49.0-0.0,"""event"",""trial"",""time""
""fullscreenenter"",""1"",""2977""
","
","
","""event"",""trial"",""time""
""fullscreenenter"",""1"",""2977""
","
",,,,,,,,,,,,"[{""stimulus"":""run_exp/static/images/task_images/rocket-01.jpg"",""time"":0.19999980926513672},{""stimulus"":""run_exp/static/images/task_images/rocket-02.jpg"",""time"":1069.1999998092651},{""stimulus"":""run_exp/static/images/task_images/rocket-03.jpg"",""time"":2118.3999996185303},{""stimulus"":""run_exp/static/images/task_images/rocket-04.jpg"",""time"":3179.300000190735},{""stimulus"":""run_exp/static/images/task_images/rocket-05.jpg"",""time"":4218.89999961853},{""stimulus"":""run_exp/static/images/task_images/rocket-06.jpg"",""time"":5278.89999961853},{""stimulus"":""run_exp/static/images/task_images/rocket-07.jpg"",""time"":6339},{""stimulus"":""run_exp/static/images/task_images/rocket-08.jpg"",""time"":7379.300000190735},{""stimulus"":""run_exp/static/images/task_images/rocket-09.jpg"",""time"":8439.199999809265}]",[],4,,,,,,,,,,,,,,
alien_welcome,150,666156,0.0-49.0-1.0,"""event"",""trial"",""time""
""fullscreenenter"",""1"",""2977""
","
","
","""event"",""trial"",""time""
""fullscreenenter"",""1"",""2977""
","
",,null,run_exp/static/images/task_images/aliens/old_aliens/planet/alien_planet-42.jpg,null,,,,,,,,,,,,,42,"69,41,36,21,42,74,31,15,3,14,70,55,76,19,67,30,73,24,49,5,6,26,65",,,,,,,,,,
land,151,666676,0.0-49.0-2.0,"""event"",""trial"",""time""
""fullscreenenter"",""1"",""2977""
","
","
","""event"",""trial"",""time""
""fullscreenenter"",""1"",""2977""
","
",,null,run_exp/static/images/task_images/land.jpg,null,,,,,,,99,,,5,,,,,,,,,,,,,,
dig,152,668695,0.0-49.0-3.0,"""event"",""trial"",""time""
""fullscreenenter"",""1"",""2977""
","
","
","""event"",""trial"",""time""
""fullscreenenter"",""1"",""2977""
","
",,,,,,,,,,,,"[{""stimulus"":""run_exp/static/images/task_images/dig.jpg"",""time"":0.39999961853027344},{""stimulus"":""run_exp/static/images/task_images/land.jpg"",""time"":678.5},{""stimulus"":""run_exp/static/images/task_images/dig.jpg"",""time"":1338.5999994277954}]",[],5,,,,,,,,,,,,,,
harvest,153,669715,0.0-49.0-4.0,"""event"",""trial"",""time""
""fullscreenenter"",""1"",""2977""
","
","
","""event"",""trial"",""time""
""fullscreenenter"",""1"",""2977""
","
",,null,run_exp/static/images/task_images/gems/99.jpg,null,,,,,,,52,,,5,,,,,99,0.526632625,0.525252525,,,,,,,
decision,154,670059,0.0-49.0-5.0,"""event"",""trial"",""time""
""fullscreenenter"",""1"",""2977""
","
","
","""event"",""trial"",""time""
""fullscreenenter"",""1"",""2977""
","
",,342.1000004,run_exp/static/images/task_images/land.jpg,65,,,,,,,52,,,5,,,,,,,,171923,1,0,FALSE,,,
dig,155,672735,0.0-50.0-0.0,"""event"",""trial"",""time""
""fullscreenenter"",""1"",""2977""
","
","
","""event"",""trial"",""time""
""fullscreenenter"",""1"",""2977""
","
",,,,,,,,,,,,"[{""stimulus"":""run_exp/static/images/task_images/dig.jpg"",""time"":0.19999980926513672},{""stimulus"":""run_exp/static/images/task_images/land.jpg"",""time"":896.6999998092651},{""stimulus"":""run_exp/static/images/task_images/dig.jpg"",""time"":1778.3000001907349}]",[],5,,,,,,,,,,,,,,
harvest,156,673758,0.0-50.0-1.0,"""event"",""trial"",""time""
""fullscreenenter"",""1"",""2977""
","
","
","""event"",""trial"",""time""
""fullscreenenter"",""1"",""2977""
","
",,null,run_exp/static/images/task_images/gems/52.jpg,null,,,,,,,24,,,5,,,,,52,0.457132825,0.461538462,,,,,,,
decision,157,674200,0.0-50.0-2.0,"""event"",""trial"",""time""
""fullscreenenter"",""1"",""2977""
","
","
","""event"",""trial"",""time""
""fullscreenenter"",""1"",""2977""
","
",,439.6000004,run_exp/static/images/task_images/land.jpg,65,,,,,,,24,,,5,,,,,,,,176063,1,1,FALSE,,,
dig,158,676776,0.0-51.0-0.0,"""event"",""trial"",""time""
""fullscreenenter"",""1"",""2977""
","
","
","""event"",""trial"",""time""
""fullscreenenter"",""1"",""2977""
","
",,,,,,,,,,,,"[{""stimulus"":""run_exp/static/images/task_images/dig.jpg"",""time"":0.40000057220458984},{""stimulus"":""run_exp/static/images/task_images/land.jpg"",""time"":861.9000005722046},{""stimulus"":""run_exp/static/images/task_images/dig.jpg"",""time"":1721.9000005722046}]",[],5,,,,,,,,,,,,,,
harvest,159,677795,0.0-51.0-1.0,"""event"",""trial"",""time""
""fullscreenenter"",""1"",""2977""
","
","
","""event"",""trial"",""time""
""fullscreenenter"",""1"",""2977""
","
",,null,run_exp/static/images/task_images/gems/24.jpg,null,,,,,,,14,,,5,,,,,24,0.580094072,0.583333333,,,,,,,
decision,160,677907,0.0-51.0-2.0,"""event"",""trial"",""time""
""fullscreenenter"",""1"",""2977""
","
","
","""event"",""trial"",""time""
""fullscreenenter"",""1"",""2977""
","
",,109.0999994,run_exp/static/images/task_images/land.jpg,65,,,,,,,14,,,5,,,,,,,,179770,1,2,FALSE,,,
dig,161,680815,0.0-52.0-0.0,"""event"",""trial"",""time""
""fullscreenenter"",""1"",""2977""
","
","
","""event"",""trial"",""time""
""fullscreenenter"",""1"",""2977""
","
",,,,,,,,,,,,"[{""stimulus"":""run_exp/static/images/task_images/dig.jpg"",""time"":0.19999980926513672},{""stimulus"":""run_exp/static/images/task_images/land.jpg"",""time"":969.1999998092651},{""stimulus"":""run_exp/static/images/task_images/dig.jpg"",""time"":1945.1999998092651}]",[],5,,,,,,,,,,,,,,
harvest,162,681835,0.0-52.0-1.0,"""event"",""trial"",""time""
""fullscreenenter"",""1"",""2977""
","
","
","""event"",""trial"",""time""
""fullscreenenter"",""1"",""2977""
","
",,null,run_exp/static/images/task_images/gems/14.jpg,null,,,,,,,8,,,5,,,,,14,0.547061478,0.571428571,,,,,,,
decision,163,682417,0.0-52.0-2.0,"""event"",""trial"",""time""
""fullscreenenter"",""1"",""2977""
","
","
","""event"",""trial"",""time""
""fullscreenenter"",""1"",""2977""
","
",,579.3000002,run_exp/static/images/task_images/land.jpg,65,,,,,,,8,,,5,,,,,,,,184280,1,3,FALSE,,,
dig,164,684846,0.0-53.0-0.0,"""event"",""trial"",""time""
""fullscreenenter"",""1"",""2977""
","
","
","""event"",""trial"",""time""
""fullscreenenter"",""1"",""2977""
","
",,,,,,,,,,,,"[{""stimulus"":""run_exp/static/images/task_images/dig.jpg"",""time"":0.19999980926513672},{""stimulus"":""run_exp/static/images/task_images/land.jpg"",""time"":824.6000003814697},{""stimulus"":""run_exp/static/images/task_images/dig.jpg"",""time"":1615.1000003814697}]",[],5,,,,,,,,,,,,,,
harvest,165,685851,0.0-53.0-1.0,"""event"",""trial"",""time""
""fullscreenenter"",""1"",""2977""
","
","
","""event"",""trial"",""time""
""fullscreenenter"",""1"",""2977""
","
",,null,run_exp/static/images/task_images/gems/8.jpg,null,,,,,,,4,,,5,,,,,8,0.520662043,0.5,,,,,,,
decision,166,686187,0.0-53.0-2.0,"""event"",""trial"",""time""
""fullscreenenter"",""1"",""2977""
","
","
","""event"",""trial"",""time""
""fullscreenenter"",""1"",""2977""
","
",,333.6999998,run_exp/static/images/task_images/land.jpg,65,,,,,,,4,,,5,,,,,,,,188050,1,4,FALSE,,,
dig,167,688865,0.0-54.0-0.0,"""event"",""trial"",""time""
""fullscreenenter"",""1"",""2977""
","
","
","""event"",""trial"",""time""
""fullscreenenter"",""1"",""2977""
","
",,,,,,,,,,,,"[{""stimulus"":""run_exp/static/images/task_images/dig.jpg"",""time"":0.19999980926513672},{""stimulus"":""run_exp/static/images/task_images/land.jpg"",""time"":894.8000001907349},{""stimulus"":""run_exp/static/images/task_images/dig.jpg"",""time"":1794.3999996185303}]",[],5,,,,,,,,,,,,,,
harvest,168,689875,0.0-54.0-1.0,"""event"",""trial"",""time""
""fullscreenenter"",""1"",""2977""
","
","
","""event"",""trial"",""time""
""fullscreenenter"",""1"",""2977""
","
",,null,run_exp/static/images/task_images/gems/4.jpg,null,,,,,,,2,,,5,,,,,4,0.541722996,0.5,,,,,,,
decision,169,690182,0.0-54.0-2.0,"""event"",""trial"",""time""
""fullscreenenter"",""1"",""2977""
","
","
","""event"",""trial"",""time""
""fullscreenenter"",""1"",""2977""
","
",,304.3000002,run_exp/static/images/task_images/land.jpg,65,,,,,,,2,,,5,,,,,,,,192045,1,5,FALSE,,,
dig,170,692895,0.0-55.0-0.0,"""event"",""trial"",""time""
""fullscreenenter"",""1"",""2977""
","
","
","""event"",""trial"",""time""
""fullscreenenter"",""1"",""2977""
","
",,,,,,,,,,,,"[{""stimulus"":""run_exp/static/images/task_images/dig.jpg"",""time"":0.3000001907348633},{""stimulus"":""run_exp/static/images/task_images/land.jpg"",""time"":910.4000005722046},{""stimulus"":""run_exp/static/images/task_images/dig.jpg"",""time"":1800.1000003814697}]",[],5,,,,,,,,,,,,,,
harvest,171,693904,0.0-55.0-1.0,"""event"",""trial"",""time""
""fullscreenenter"",""1"",""2977""
","
","
","""event"",""trial"",""time""
""fullscreenenter"",""1"",""2977""
","
",,null,run_exp/static/images/task_images/gems/2.jpg,null,,,,,,,1,,,5,,,,,2,0.517000398,0.5,,,,,,,
decision,172,694115,0.0-55.0-2.0,"""event"",""trial"",""time""
""fullscreenenter"",""1"",""2977""
","
","
","""event"",""trial"",""time""
""fullscreenenter"",""1"",""2977""
","
",,208.9000006,run_exp/static/images/task_images/land.jpg,65,,,,,,,1,,,5,,,,,,,,195978,1,6,FALSE,,,
dig,173,696915,0.0-56.0-0.0,"""event"",""trial"",""time""
""fullscreenenter"",""1"",""2977""
","
","
","""event"",""trial"",""time""
""fullscreenenter"",""1"",""2977""
","
",,,,,,,,,,,,"[{""stimulus"":""run_exp/static/images/task_images/dig.jpg"",""time"":0.3000001907348633},{""stimulus"":""run_exp/static/images/task_images/land.jpg"",""time"":945.8000001907349},{""stimulus"":""run_exp/static/images/task_images/dig.jpg"",""time"":1876.1000003814697}]",[],5,,,,,,,,,,,,,,
harvest,174,697930,0.0-56.0-1.0,"""event"",""trial"",""time""
""fullscreenenter"",""1"",""2977""
","
","
","""event"",""trial"",""time""
""fullscreenenter"",""1"",""2977""
","
",,null,run_exp/static/images/task_images/gems/1.jpg,null,,,,,,,1,,,5,,,,,1,0.509698978,1,,,,,,,
decision,175,698332,0.0-56.0-2.0,"""event"",""trial"",""time""
""fullscreenenter"",""1"",""2977""
","
","
","""event"",""trial"",""time""
""fullscreenenter"",""1"",""2977""
","
",,400.3000002,run_exp/static/images/task_images/land.jpg,65,,,,,,,1,,,5,,,,,,,,200196,1,7,FALSE,,,
dig,176,700941,0.0-57.0-0.0,"""event"",""trial"",""time""
""fullscreenenter"",""1"",""2977""
","
","
","""event"",""trial"",""time""
""fullscreenenter"",""1"",""2977""
","
",,,,,,,,,,,,"[{""stimulus"":""run_exp/static/images/task_images/dig.jpg"",""time"":0.20000076293945312},{""stimulus"":""run_exp/static/images/task_images/land.jpg"",""time"":869.5},{""stimulus"":""run_exp/static/images/task_images/dig.jpg"",""time"":1739.2000007629395}]",[],5,,,,,,,,,,,,,,
harvest,177,701946,0.0-57.0-1.0,"""event"",""trial"",""time""
""fullscreenenter"",""1"",""2977""
","
","
","""event"",""trial"",""time""
""fullscreenenter"",""1"",""2977""
","
",,null,run_exp/static/images/task_images/gems/1.jpg,null,,,,,,,1,,,5,,,,,1,0.571172746,1,,,,,,,
decision,178,702794,0.0-57.0-2.0,"""event"",""trial"",""time""
""fullscreenenter"",""1"",""2977""
","
","
","""event"",""trial"",""time""
""fullscreenenter"",""1"",""2977""
","
",,846.3000002,run_exp/static/images/task_images/land.jpg,76,,,,,,,1,,,5,,,,,,,,204657,1,8,TRUE,,,
travel,179,711955,0.0-58.0-0.0,"""event"",""trial"",""time""
""fullscreenenter"",""1"",""2977""
","
","
","""event"",""trial"",""time""
""fullscreenenter"",""1"",""2977""
","
",,,,,,,,,,,,"[{""stimulus"":""run_exp/static/images/task_images/rocket-01.jpg"",""time"":0.3000001907348633},{""stimulus"":""run_exp/static/images/task_images/rocket-02.jpg"",""time"":1037.0999994277954},{""stimulus"":""run_exp/static/images/task_images/rocket-03.jpg"",""time"":2036.8000001907349},{""stimulus"":""run_exp/static/images/task_images/rocket-04.jpg"",""time"":3056.300000190735},{""stimulus"":""run_exp/static/images/task_images/rocket-05.jpg"",""time"":4077.5999994277954},{""stimulus"":""run_exp/static/images/task_images/rocket-06.jpg"",""time"":5097.39999961853},{""stimulus"":""run_exp/static/images/task_images/rocket-07.jpg"",""time"":6117.599999427795},{""stimulus"":""run_exp/static/images/task_images/rocket-08.jpg"",""time"":7127.5},{""stimulus"":""run_exp/static/images/task_images/rocket-09.jpg"",""time"":8157.099999427795}]",[],5,,,,,,,,,,,,,,
alien_welcome,180,716966,0.0-58.0-1.0,"""event"",""trial"",""time""
""fullscreenenter"",""1"",""2977""
","
","
","""event"",""trial"",""time""
""fullscreenenter"",""1"",""2977""
","
",,null,run_exp/static/images/task_images/aliens/old_aliens/planet/alien_planet-74.jpg,null,,,,,,,,,,,,,74,"69,41,36,21,42,74,31,15,3,14,70,55,76,19,67,30,73,24,49,5,6,26,65",,,,,,,,,,
land,181,717486,0.0-58.0-2.0,"""event"",""trial"",""time""
""fullscreenenter"",""1"",""2977""
","
","
","""event"",""trial"",""time""
""fullscreenenter"",""1"",""2977""
","
",,null,run_exp/static/images/task_images/land.jpg,null,,,,,,,97,,,6,,,,,,,,,,,,,,
dig,182,719496,0.0-58.0-3.0,"""event"",""trial"",""time""
""fullscreenenter"",""1"",""2977""
","
","
","""event"",""trial"",""time""
""fullscreenenter"",""1"",""2977""
","
",,,,,,,,,,,,"[{""stimulus"":""run_exp/static/images/task_images/dig.jpg"",""time"":0.39999961853027344},{""stimulus"":""run_exp/static/images/task_images/land.jpg"",""time"":677.8999996185303},{""stimulus"":""run_exp/static/images/task_images/dig.jpg"",""time"":1338.2999992370605}]",[],6,,,,,,,,,,,,,,
harvest,183,720515,0.0-58.0-4.0,"""event"",""trial"",""time""
""fullscreenenter"",""1"",""2977""
","
","
","""event"",""trial"",""time""
""fullscreenenter"",""1"",""2977""
","
",,null,run_exp/static/images/task_images/gems/97.jpg,null,,,,,,,84,,,6,,,,,97,0.861288687,0.865979381,,,,,,,
decision,184,720916,0.0-58.0-5.0,"""event"",""trial"",""time""
""fullscreenenter"",""1"",""2977""
","
","
","""event"",""trial"",""time""
""fullscreenenter"",""1"",""2977""
","
",,399.5999994,run_exp/static/images/task_images/land.jpg,65,,,,,,,84,,,6,,,,,,,,222780,1,0,FALSE,,,
dig,185,723537,0.0-59.0-0.0,"""event"",""trial"",""time""
""fullscreenenter"",""1"",""2977""
","
","
","""event"",""trial"",""time""
""fullscreenenter"",""1"",""2977""
","
",,,,,,,,,,,,"[{""stimulus"":""run_exp/static/images/task_images/dig.jpg"",""time"":0.3000001907348633},{""stimulus"":""run_exp/static/images/task_images/land.jpg"",""time"":882.6999998092651},{""stimulus"":""run_exp/static/images/task_images/dig.jpg"",""time"":1753.6000003814697}]",[],6,,,,,,,,,,,,,,
harvest,186,724554,0.0-59.0-1.0,"""event"",""trial"",""time""
""fullscreenenter"",""1"",""2977""
","
","
","""event"",""trial"",""time""
""fullscreenenter"",""1"",""2977""
","
",,null,run_exp/static/images/task_images/gems/84.jpg,null,,,,,,,64,,,6,,,,,84,0.763533808,0.761904762,,,,,,,
decision,187,724852,0.0-59.0-2.0,"""event"",""trial"",""time""
""fullscreenenter"",""1"",""2977""
","
","
","""event"",""trial"",""time""
""fullscreenenter"",""1"",""2977""
","
",,295.4000006,run_exp/static/images/task_images/land.jpg,65,,,,,,,64,,,6,,,,,,,,226715,1,1,FALSE,,,
dig,188,727574,0.0-60.0-0.0,"""event"",""trial"",""time""
""fullscreenenter"",""1"",""2977""
","
","
","""event"",""trial"",""time""
""fullscreenenter"",""1"",""2977""
","
",,,,,,,,,,,,"[{""stimulus"":""run_exp/static/images/task_images/dig.jpg"",""time"":0.2999992370605469},{""stimulus"":""run_exp/static/images/task_images/land.jpg"",""time"":919},{""stimulus"":""run_exp/static/images/task_images/dig.jpg"",""time"":1818.1999998092651}]",[],6,,,,,,,,,,,,,,
harvest,189,728592,0.0-60.0-1.0,"""event"",""trial"",""time""
""fullscreenenter"",""1"",""2977""
","
","
","""event"",""trial"",""time""
""fullscreenenter"",""1"",""2977""
","
",,null,run_exp/static/images/task_images/gems/64.jpg,null,,,,,,,58,,,6,,,,,64,0.904226401,0.90625,,,,,,,
decision,190,728917,0.0-60.0-2.0,"""event"",""trial"",""time""
""fullscreenenter"",""1"",""2977""
","
","
","""event"",""trial"",""time""
""fullscreenenter"",""1"",""2977""
","
",,323,run_exp/static/images/task_images/land.jpg,65,,,,,,,58,,,6,,,,,,,,230780,1,2,FALSE,,,
dig,191,731614,0.0-61.0-0.0,"""event"",""trial"",""time""
""fullscreenenter"",""1"",""2977""
","
","
","""event"",""trial"",""time""
""fullscreenenter"",""1"",""2977""
","
",,,,,,,,,,,,"[{""stimulus"":""run_exp/static/images/task_images/dig.jpg"",""time"":0.2999992370605469},{""stimulus"":""run_exp/static/images/task_images/land.jpg"",""time"":914.3999996185303},{""stimulus"":""run_exp/static/images/task_images/dig.jpg"",""time"":1800.2999992370605}]",[],6,,,,,,,,,,,,,,
harvest,192,732634,0.0-61.0-1.0,"""event"",""trial"",""time""
""fullscreenenter"",""1"",""2977""
","
","
","""event"",""trial"",""time""
""fullscreenenter"",""1"",""2977""
","
",,null,run_exp/static/images/task_images/gems/58.jpg,null,,,,,,,47,,,6,,,,,58,0.814770925,0.810344828,,,,,,,
decision,193,733074,0.0-61.0-2.0,"""event"",""trial"",""time""
""fullscreenenter"",""1"",""2977""
","
","
","""event"",""trial"",""time""
""fullscreenenter"",""1"",""2977""
","
",,437.5,run_exp/static/images/task_images/land.jpg,65,,,,,,,47,,,6,,,,,,,,234937,1,3,FALSE,,,
dig,194,735654,0.0-62.0-0.0,"""event"",""trial"",""time""
""fullscreenenter"",""1"",""2977""
","
","
","""event"",""trial"",""time""
""fullscreenenter"",""1"",""2977""
","
",,,,,,,,,,,,"[{""stimulus"":""run_exp/static/images/task_images/dig.jpg"",""time"":0.3000001907348633},{""stimulus"":""run_exp/static/images/task_images/land.jpg"",""time"":867.3000001907349},{""stimulus"":""run_exp/static/images/task_images/dig.jpg"",""time"":1714.3000001907349}]",[],6,,,,,,,,,,,,,,
harvest,195,736672,0.0-62.0-1.0,"""event"",""trial"",""time""
""fullscreenenter"",""1"",""2977""
","
","
","""event"",""trial"",""time""
""fullscreenenter"",""1"",""2977""
","
",,null,run_exp/static/images/task_images/gems/47.jpg,null,,,,,,,40,,,6,,,,,47,0.861443605,0.85106383,,,,,,,
decision,196,737563,0.0-62.0-2.0,"""event"",""trial"",""time""
""fullscreenenter"",""1"",""2977""
","
","
","""event"",""trial"",""time""
""fullscreenenter"",""1"",""2977""
","
",,889.9000006,run_exp/static/images/task_images/land.jpg,65,,,,,,,40,,,6,,,,,,,,239427,1,4,FALSE,,,
dig,197,739694,0.0-63.0-0.0,"""event"",""trial"",""time""
""fullscreenenter"",""1"",""2977""
","
","
","""event"",""trial"",""time""
""fullscreenenter"",""1"",""2977""
","
",,,,,,,,,,,,"[{""stimulus"":""run_exp/static/images/task_images/dig.jpg"",""time"":0.19999980926513672},{""stimulus"":""run_exp/static/images/task_images/land.jpg"",""time"":706.9000005722046},{""stimulus"":""run_exp/static/images/task_images/dig.jpg"",""time"":1427}]",[],6,,,,,,,,,,,,,,
harvest,198,740715,0.0-63.0-1.0,"""event"",""trial"",""time""
""fullscreenenter"",""1"",""2977""
","
","
","""event"",""trial"",""time""
""fullscreenenter"",""1"",""2977""
","
",,null,run_exp/static/images/task_images/gems/40.jpg,null,,,,,,,32,,,6,,,,,40,0.80292864,0.8,,,,,,,
decision,199,740896,0.0-63.0-2.0,"""event"",""trial"",""time""
""fullscreenenter"",""1"",""2977""
","
","
","""event"",""trial"",""time""
""fullscreenenter"",""1"",""2977""
","
",,179.1999998,run_exp/static/images/task_images/land.jpg,65,,,,,,,32,,,6,,,,,,,,242759,1,5,FALSE,,,
dig,200,743735,0.0-64.0-0.0,"""event"",""trial"",""time""
""fullscreenenter"",""1"",""2977""
","
","
","""event"",""trial"",""time""
""fullscreenenter"",""1"",""2977""
","
",,,,,,,,,,,,"[{""stimulus"":""run_exp/static/images/task_images/dig.jpg"",""time"":0.3000001907348633},{""stimulus"":""run_exp/static/images/task_images/land.jpg"",""time"":951.6000003814697},{""stimulus"":""run_exp/static/images/task_images/dig.jpg"",""time"":1883.3999996185303}]",[],6,,,,,,,,,,,,,,
harvest,201,744755,0.0-64.0-1.0,"""event"",""trial"",""time""
""fullscreenenter"",""1"",""2977""
","
","
","""event"",""trial"",""time""
""fullscreenenter"",""1"",""2977""
","
",,null,run_exp/static/images/task_images/gems/32.jpg,null,,,,,,,25,,,6,,,,,32,0.771070333,0.78125,,,,,,,
decision,202,744782,0.0-64.0-2.0,"""event"",""trial"",""time""
""fullscreenenter"",""1"",""2977""
","
","
","""event"",""trial"",""time""
""fullscreenenter"",""1"",""2977""
","
",,25.19999981,run_exp/static/images/task_images/land.jpg,65,,,,,,,25,,,6,,,,,,,,246645,1,6,FALSE,,,
dig,203,747764,0.0-65.0-0.0,"""event"",""trial"",""time""
""fullscreenenter"",""1"",""2977""
","
","
","""event"",""trial"",""time""
""fullscreenenter"",""1"",""2977""
","
",,,,,,,,,,,,"[{""stimulus"":""run_exp/static/images/task_images/dig.jpg"",""time"":0.19999980926513672},{""stimulus"":""run_exp/static/images/task_images/land.jpg"",""time"":1008.1000003814697},{""stimulus"":""run_exp/static/images/task_images/dig.jpg"",""time"":1988.9000005722046}]",[],6,,,,,,,,,,,,,,
harvest,204,748773,0.0-65.0-1.0,"""event"",""trial"",""time""
""fullscreenenter"",""1"",""2977""
","
","
","""event"",""trial"",""time""
""fullscreenenter"",""1"",""2977""
","
",,null,run_exp/static/images/task_images/gems/25.jpg,null,,,,,,,20,,,6,,,,,25,0.808523389,0.8,,,,,,,
decision,205,749400,0.0-65.0-2.0,"""event"",""trial"",""time""
""fullscreenenter"",""1"",""2977""
","
","
","""event"",""trial"",""time""
""fullscreenenter"",""1"",""2977""
","
",,625.6999998,run_exp/static/images/task_images/land.jpg,65,,,,,,,20,,,6,,,,,,,,251264,1,7,FALSE,,,
dig,206,751795,0.0-66.0-0.0,"""event"",""trial"",""time""
""fullscreenenter"",""1"",""2977""
","
","
","""event"",""trial"",""time""
""fullscreenenter"",""1"",""2977""
","
",,,,,,,,,,,,"[{""stimulus"":""run_exp/static/images/task_images/dig.jpg"",""time"":0.5},{""stimulus"":""run_exp/static/images/task_images/land.jpg"",""time"":808.6000003814697},{""stimulus"":""run_exp/static/images/task_images/dig.jpg"",""time"":1599.4000005722046}]",[],6,,,,,,,,,,,,,,
harvest,207,752814,0.0-66.0-1.0,"""event"",""trial"",""time""
""fullscreenenter"",""1"",""2977""
","
","
","""event"",""trial"",""time""
""fullscreenenter"",""1"",""2977""
","
",,null,run_exp/static/images/task_images/gems/20.jpg,null,,,,,,,16,,,6,,,,,20,0.81506118,0.8,,,,,,,
decision,208,753093,0.0-66.0-2.0,"""event"",""trial"",""time""
""fullscreenenter"",""1"",""2977""
","
","
","""event"",""trial"",""time""
""fullscreenenter"",""1"",""2977""
","
",,276.6000004,run_exp/static/images/task_images/land.jpg,65,,,,,,,16,,,6,,,,,,,,254957,1,8,FALSE,,,
dig,209,755835,0.0-67.0-0.0,"""event"",""trial"",""time""
""fullscreenenter"",""1"",""2977""
","
","
","""event"",""trial"",""time""
""fullscreenenter"",""1"",""2977""
","
",,,,,,,,,,,,"[{""stimulus"":""run_exp/static/images/task_images/dig.jpg"",""time"":0.19999980926513672},{""stimulus"":""run_exp/static/images/task_images/land.jpg"",""time"":925.1999998092651},{""stimulus"":""run_exp/static/images/task_images/dig.jpg"",""time"":1828.8999996185303}]",[],6,,,,,,,,,,,,,,
harvest,210,756845,0.0-67.0-1.0,"""event"",""trial"",""time""
""fullscreenenter"",""1"",""2977""
","
","
","""event"",""trial"",""time""
""fullscreenenter"",""1"",""2977""
","
",,null,run_exp/static/images/task_images/gems/16.jpg,null,,,,,,,15,,,6,,,,,16,0.907921607,0.9375,,,,,,,
decision,211,757627,0.0-67.0-2.0,"""event"",""trial"",""time""
""fullscreenenter"",""1"",""2977""
","
","
","""event"",""trial"",""time""
""fullscreenenter"",""1"",""2977""
","
",,780,run_exp/static/images/task_images/land.jpg,65,,,,,,,15,,,6,,,,,,,,259490,1,9,FALSE,,,
dig,212,759854,0.0-68.0-0.0,"""event"",""trial"",""time""
""fullscreenenter"",""1"",""2977""
","
","
","""event"",""trial"",""time""
""fullscreenenter"",""1"",""2977""
","
",,,,,,,,,,,,"[{""stimulus"":""run_exp/static/images/task_images/dig.jpg"",""time"":0.40000057220458984},{""stimulus"":""run_exp/static/images/task_images/land.jpg"",""time"":744.4000005722046},{""stimulus"":""run_exp/static/images/task_images/dig.jpg"",""time"":1484.1999998092651}]",[],6,,,,,,,,,,,,,,
harvest,213,760874,0.0-68.0-1.0,"""event"",""trial"",""time""
""fullscreenenter"",""1"",""2977""
","
","
","""event"",""trial"",""time""
""fullscreenenter"",""1"",""2977""
","
",,null,run_exp/static/images/task_images/gems/15.jpg,null,,,,,,,12,,,6,,,,,15,0.833178844,0.8,,,,,,,
decision,214,761095,0.0-68.0-2.0,"""event"",""trial"",""time""
""fullscreenenter"",""1"",""2977""
","
","
","""event"",""trial"",""time""
""fullscreenenter"",""1"",""2977""
","
",,219.0999994,run_exp/static/images/task_images/land.jpg,65,,,,,,,12,,,6,,,,,,,,262959,1,10,FALSE,,,
dig,215,763894,0.0-69.0-0.0,"""event"",""trial"",""time""
""fullscreenenter"",""1"",""2977""
","
","
","""event"",""trial"",""time""
""fullscreenenter"",""1"",""2977""
","
",,,,,,,,,,,,"[{""stimulus"":""run_exp/static/images/task_images/dig.jpg"",""time"":0.39999961853027344},{""stimulus"":""run_exp/static/images/task_images/land.jpg"",""time"":932.8000001907349},{""stimulus"":""run_exp/static/images/task_images/dig.jpg"",""time"":1864.3999996185303}]",[],6,,,,,,,,,,,,,,
harvest,216,764915,0.0-69.0-1.0,"""event"",""trial"",""time""
""fullscreenenter"",""1"",""2977""
","
","
","""event"",""trial"",""time""
""fullscreenenter"",""1"",""2977""
","
",,null,run_exp/static/images/task_images/gems/12.jpg,null,,,,,,,10,,,6,,,,,12,0.81288597,0.833333333,,,,,,,
decision,217,764975,0.0-69.0-2.0,"""event"",""trial"",""time""
""fullscreenenter"",""1"",""2977""
","
","
","""event"",""trial"",""time""
""fullscreenenter"",""1"",""2977""
","
",,58.69999981,run_exp/static/images/task_images/land.jpg,65,,,,,,,10,,,6,,,,,,,,266838,1,11,FALSE,,,
dig,218,767934,0.0-70.0-0.0,"""event"",""trial"",""time""
""fullscreenenter"",""1"",""2977""
","
","
","""event"",""trial"",""time""
""fullscreenenter"",""1"",""2977""
","
",,,,,,,,,,,,"[{""stimulus"":""run_exp/static/images/task_images/dig.jpg"",""time"":0.19999980926513672},{""stimulus"":""run_exp/static/images/task_images/land.jpg"",""time"":994.5},{""stimulus"":""run_exp/static/images/task_images/dig.jpg"",""time"":1985.1000003814697}]",[],6,,,,,,,,,,,,,,
harvest,219,768954,0.0-70.0-1.0,"""event"",""trial"",""time""
""fullscreenenter"",""1"",""2977""
","
","
","""event"",""trial"",""time""
""fullscreenenter"",""1"",""2977""
","
",,null,run_exp/static/images/task_images/gems/10.jpg,null,,,,,,,8,,,6,,,,,10,0.790019342,0.8,,,,,,,
decision,220,770399,0.0-70.0-2.0,"""event"",""trial"",""time""
""fullscreenenter"",""1"",""2977""
","
","
","""event"",""trial"",""time""
""fullscreenenter"",""1"",""2977""
","
",,1443.099999,run_exp/static/images/task_images/land.jpg,65,,,,,,,8,,,6,,,,,,,,272262,1,12,FALSE,,,
dig,221,771965,0.0-71.0-0.0,"""event"",""trial"",""time""
""fullscreenenter"",""1"",""2977""
","
","
","""event"",""trial"",""time""
""fullscreenenter"",""1"",""2977""
","
",,,,,,,,,,,,"[{""stimulus"":""run_exp/static/images/task_images/dig.jpg"",""time"":0.39999961853027344},{""stimulus"":""run_exp/static/images/task_images/land.jpg"",""time"":531.1000003814697},{""stimulus"":""run_exp/static/images/task_images/dig.jpg"",""time"":1050.5}]",[],6,,,,,,,,,,,,,,
harvest,222,772974,0.0-71.0-1.0,"""event"",""trial"",""time""
""fullscreenenter"",""1"",""2977""
","
","
","""event"",""trial"",""time""
""fullscreenenter"",""1"",""2977""
","
",,null,run_exp/static/images/task_images/gems/8.jpg,null,,,,,,,6,,,6,,,,,8,0.779102789,0.75,,,,,,,
decision,223,773377,0.0-71.0-2.0,"""event"",""trial"",""time""
""fullscreenenter"",""1"",""2977""
","
","
","""event"",""trial"",""time""
""fullscreenenter"",""1"",""2977""
","
",,401,run_exp/static/images/task_images/land.jpg,65,,,,,,,6,,,6,,,,,,,,275241,1,13,FALSE,,,
dig,224,775995,0.0-72.0-0.0,"""event"",""trial"",""time""
""fullscreenenter"",""1"",""2977""
","
","
","""event"",""trial"",""time""
""fullscreenenter"",""1"",""2977""
","
",,,,,,,,,,,,"[{""stimulus"":""run_exp/static/images/task_images/dig.jpg"",""time"":0.19999980926513672},{""stimulus"":""run_exp/static/images/task_images/land.jpg"",""time"":878.7999992370605},{""stimulus"":""run_exp/static/images/task_images/dig.jpg"",""time"":1743.0999994277954}]",[],6,,,,,,,,,,,,,,
harvest,225,776998,0.0-72.0-1.0,"""event"",""trial"",""time""
""fullscreenenter"",""1"",""2977""
","
","
","""event"",""trial"",""time""
""fullscreenenter"",""1"",""2977""
","
",,null,run_exp/static/images/task_images/gems/6.jpg,null,,,,,,,5,,,6,,,,,6,0.798050005,0.833333333,,,,,,,
decision,226,777624,0.0-72.0-2.0,"""event"",""trial"",""time""
""fullscreenenter"",""1"",""2977""
","
","
","""event"",""trial"",""time""
""fullscreenenter"",""1"",""2977""
","
",,624.6000004,run_exp/static/images/task_images/land.jpg,65,,,,,,,5,,,6,,,,,,,,279488,1,14,FALSE,,,
dig,227,780015,0.0-73.0-0.0,"""event"",""trial"",""time""
""fullscreenenter"",""1"",""2977""
","
","
","""event"",""trial"",""time""
""fullscreenenter"",""1"",""2977""
","
",,,,,,,,,,,,"[{""stimulus"":""run_exp/static/images/task_images/dig.jpg"",""time"":0.19999980926513672},{""stimulus"":""run_exp/static/images/task_images/land.jpg"",""time"":796.1999998092651},{""stimulus"":""run_exp/static/images/task_images/dig.jpg"",""time"":1586.1999998092651}]",[],6,,,,,,,,,,,,,,
harvest,228,781035,0.0-73.0-1.0,"""event"",""trial"",""time""
""fullscreenenter"",""1"",""2977""
","
","
","""event"",""trial"",""time""
""fullscreenenter"",""1"",""2977""
","
",,null,run_exp/static/images/task_images/gems/5.jpg,null,,,,,,,4,,,6,,,,,5,0.809825359,0.8,,,,,,,
decision,229,782274,0.0-73.0-2.0,"""event"",""trial"",""time""
""fullscreenenter"",""1"",""2977""
","
","
","""event"",""trial"",""time""
""fullscreenenter"",""1"",""2977""
","
",,1237.4,run_exp/static/images/task_images/land.jpg,65,,,,,,,4,,,6,,,,,,,,284137,1,15,FALSE,,,
dig,230,784054,0.0-74.0-0.0,"""event"",""trial"",""time""
""fullscreenenter"",""1"",""2977""
","
","
","""event"",""trial"",""time""
""fullscreenenter"",""1"",""2977""
","
",,,,,,,,,,,,"[{""stimulus"":""run_exp/static/images/task_images/dig.jpg"",""time"":0.39999961853027344},{""stimulus"":""run_exp/static/images/task_images/land.jpg"",""time"":595.8999996185303},{""stimulus"":""run_exp/static/images/task_images/dig.jpg"",""time"":1182.5}]",[],6,,,,,,,,,,,,,,
harvest,231,785075,0.0-74.0-1.0,"""event"",""trial"",""time""
""fullscreenenter"",""1"",""2977""
","
","
","""event"",""trial"",""time""
""fullscreenenter"",""1"",""2977""
","
",,null,run_exp/static/images/task_images/gems/4.jpg,null,,,,,,,3,,,6,,,,,4,0.779119595,0.75,,,,,,,
decision,232,785815,0.0-74.0-2.0,"""event"",""trial"",""time""
""fullscreenenter"",""1"",""2977""
","
","
","""event"",""trial"",""time""
""fullscreenenter"",""1"",""2977""
","
",,738,run_exp/static/images/task_images/land.jpg,65,,,,,,,3,,,6,,,,,,,,287678,1,16,FALSE,,,
dig,233,788095,0.0-75.0-0.0,"""event"",""trial"",""time""
""fullscreenenter"",""1"",""2977""
","
","
","""event"",""trial"",""time""
""fullscreenenter"",""1"",""2977""
","
",,,,,,,,,,,,"[{""stimulus"":""run_exp/static/images/task_images/dig.jpg"",""time"":0.19999980926513672},{""stimulus"":""run_exp/static/images/task_images/land.jpg"",""time"":769.9000005722046},{""stimulus"":""run_exp/static/images/task_images/dig.jpg"",""time"":1516}]",[],6,,,,,,,,,,,,,,
harvest,234,789114,0.0-75.0-1.0,"""event"",""trial"",""time""
""fullscreenenter"",""1"",""2977""
","
","
","""event"",""trial"",""time""
""fullscreenenter"",""1"",""2977""
","
",,null,run_exp/static/images/task_images/gems/3.jpg,null,,,,,,,2,,,6,,,,,3,0.812044428,0.666666667,,,,,,,
decision,235,789465,0.0-75.0-2.0,"""event"",""trial"",""time""
""fullscreenenter"",""1"",""2977""
","
","
","""event"",""trial"",""time""
""fullscreenenter"",""1"",""2977""
","
",,349.2999992,run_exp/static/images/task_images/land.jpg,65,,,,,,,2,,,6,,,,,,,,291329,1,17,FALSE,,,
dig,236,792135,0.0-76.0-0.0,"""event"",""trial"",""time""
""fullscreenenter"",""1"",""2977""
","
","
","""event"",""trial"",""time""
""fullscreenenter"",""1"",""2977""
","
",,,,,,,,,,,,"[{""stimulus"":""run_exp/static/images/task_images/dig.jpg"",""time"":0.19999980926513672},{""stimulus"":""run_exp/static/images/task_images/land.jpg"",""time"":888.6999998092651},{""stimulus"":""run_exp/static/images/task_images/dig.jpg"",""time"":1776.6999998092651}]",[],6,,,,,,,,,,,,,,
harvest,237,793155,0.0-76.0-1.0,"""event"",""trial"",""time""
""fullscreenenter"",""1"",""2977""
","
","
","""event"",""trial"",""time""
""fullscreenenter"",""1"",""2977""
","
",,null,run_exp/static/images/task_images/gems/2.jpg,null,,,,,,,2,,,6,,,,,2,0.845150775,1,,,,,,,
decision,238,793955,0.0-76.0-2.0,"""event"",""trial"",""time""
""fullscreenenter"",""1"",""2977""
","
","
","""event"",""trial"",""time""
""fullscreenenter"",""1"",""2977""
","
",,797.5999994,run_exp/static/images/task_images/land.jpg,65,,,,,,,2,,,6,,,,,,,,295818,1,18,FALSE,,,
dig,239,796173,0.0-77.0-0.0,"""event"",""trial"",""time""
""fullscreenenter"",""1"",""2977""
","
","
","""event"",""trial"",""time""
""fullscreenenter"",""1"",""2977""
","
",,,,,,,,,,,,"[{""stimulus"":""run_exp/static/images/task_images/dig.jpg"",""time"":0.3000001907348633},{""stimulus"":""run_exp/static/images/task_images/land.jpg"",""time"":739.7000007629395},{""stimulus"":""run_exp/static/images/task_images/dig.jpg"",""time"":1475}]",[],6,,,,,,,,,,,,,,
harvest,240,797180,0.0-77.0-1.0,"""event"",""trial"",""time""
""fullscreenenter"",""1"",""2977""
","
","
","""event"",""trial"",""time""
""fullscreenenter"",""1"",""2977""
","
",,null,run_exp/static/images/task_images/gems/2.jpg,null,,,,,,,2,,,6,,,,,2,0.831054887,1,,,,,,,
decision,241,797220,0.0-77.0-2.0,"""event"",""trial"",""time""
""fullscreenenter"",""1"",""2977""
","
","
","""event"",""trial"",""time""
""fullscreenenter"",""1"",""2977""
","
",,38.5,run_exp/static/images/task_images/land.jpg,65,,,,,,,0,,,6,,,,,,,,299083,1,19,FALSE,,,
dig,242,800195,0.0-78.0-0.0,"""event"",""trial"",""time""
""fullscreenenter"",""1"",""2977""
","
","
","""event"",""trial"",""time""
""fullscreenenter"",""1"",""2977""
","
",,,,,,,,,,,,"[{""stimulus"":""run_exp/static/images/task_images/dig.jpg"",""time"":0.2999992370605469},{""stimulus"":""run_exp/static/images/task_images/land.jpg"",""time"":989.7999992370605},{""stimulus"":""run_exp/static/images/task_images/dig.jpg"",""time"":1990.1999998092651}]",[],6,,,,,,,,,,,,,,
harvest,243,801214,0.0-78.0-1.0,"""event"",""trial"",""time""
""fullscreenenter"",""1"",""2977""
","
","
","""event"",""trial"",""time""
""fullscreenenter"",""1"",""2977""
","
",,null,run_exp/static/images/task_images/gems/0.jpg,null,,,,,,,0,,,6,,,,,0,0.782326874,NaN,,,,,,,
decision,244,802486,0.0-78.0-2.0,"""event"",""trial"",""time""
""fullscreenenter"",""1"",""2977""
","
","
","""event"",""trial"",""time""
""fullscreenenter"",""1"",""2977""
","
",,1269.6,run_exp/static/images/task_images/land.jpg,76,,,,,,,0,,,6,,,,,,,,304349,1,20,TRUE,,,
end_of_block_continue,245,811457,0.0-79.0-0.0,"""event"",""trial"",""time""
""fullscreenenter"",""1"",""2977""
","
","
","""event"",""trial"",""time""
""fullscreenenter"",""1"",""2977""
","
",,null,run_exp/static/audio/clip_32_block_end.m4a,,,,,,,null,,,,,,,,,,,,,,,,,,
alien_welcome,246,816484,0.0-80.0-0.0,"""event"",""trial"",""time""
""fullscreenenter"",""1"",""2977""
","
","
","""event"",""trial"",""time""
""fullscreenenter"",""1"",""2977""
","
",,null,run_exp/static/images/task_images/aliens/old_aliens/planet/alien_planet-31.jpg,null,,,,,,,,,,,,,31,"69,41,36,21,42,74,31,15,3,14,70,55,76,19,67,30,73,24,49,5,6,26,65",,,,,,,,,,
land,247,817005,0.0-80.0-1.0,"""event"",""trial"",""time""
""fullscreenenter"",""1"",""2977""
","
","
","""event"",""trial"",""time""
""fullscreenenter"",""1"",""2977""
","
",,null,run_exp/static/images/task_images/land.jpg,null,,,,,,,98,,,7,,,,,,,,,,,,,,
dig,248,819012,0.0-80.0-2.0,"""event"",""trial"",""time""
""fullscreenenter"",""1"",""2977""
","
","
","""event"",""trial"",""time""
""fullscreenenter"",""1"",""2977""
","
",,,,,,,,,,,,"[{""stimulus"":""run_exp/static/images/task_images/dig.jpg"",""time"":0.3000001907348633},{""stimulus"":""run_exp/static/images/task_images/land.jpg"",""time"":678.3000001907349},{""stimulus"":""run_exp/static/images/task_images/dig.jpg"",""time"":1348.5}]",[],7,,,,,,,,,,,,,,
harvest,249,820014,0.0-80.0-3.0,"""event"",""trial"",""time""
""fullscreenenter"",""1"",""2977""
","
","
","""event"",""trial"",""time""
""fullscreenenter"",""1"",""2977""
","
",,null,run_exp/static/images/task_images/gems/98.jpg,null,,,,,,,27,,,7,,,,,98,0.275029817,0.275510204,,,,,,,
decision,250,820303,0.0-80.0-4.0,"""event"",""trial"",""time""
""fullscreenenter"",""1"",""2977""
","
","
","""event"",""trial"",""time""
""fullscreenenter"",""1"",""2977""
","
",,286.3999996,run_exp/static/images/task_images/land.jpg,65,,,,,,,27,,,7,,,,,,,,8839,2,0,FALSE,,,
dig,251,823035,0.0-81.0-0.0,"""event"",""trial"",""time""
""fullscreenenter"",""1"",""2977""
","
","
","""event"",""trial"",""time""
""fullscreenenter"",""1"",""2977""
","
",,,,,,,,,,,,"[{""stimulus"":""run_exp/static/images/task_images/dig.jpg"",""time"":0.20000076293945312},{""stimulus"":""run_exp/static/images/task_images/land.jpg"",""time"":914.9000005722046},{""stimulus"":""run_exp/static/images/task_images/dig.jpg"",""time"":1817.5}]",[],7,,,,,,,,,,,,,,
harvest,252,824040,0.0-81.0-1.0,"""event"",""trial"",""time""
""fullscreenenter"",""1"",""2977""
","
","
","""event"",""trial"",""time""
""fullscreenenter"",""1"",""2977""
","
",,null,run_exp/static/images/task_images/gems/27.jpg,null,,,,,,,5,,,7,,,,,27,0.190143672,0.185185185,,,,,,,
decision,253,824350,0.0-81.0-2.0,"""event"",""trial"",""time""
""fullscreenenter"",""1"",""2977""
","
","
","""event"",""trial"",""time""
""fullscreenenter"",""1"",""2977""
","
",,307.8000002,run_exp/static/images/task_images/land.jpg,65,,,,,,,5,,,7,,,,,,,,12886,2,1,FALSE,,,
dig,254,827064,0.0-82.0-0.0,"""event"",""trial"",""time""
""fullscreenenter"",""1"",""2977""
","
","
","""event"",""trial"",""time""
""fullscreenenter"",""1"",""2977""
","
",,,,,,,,,,,,"[{""stimulus"":""run_exp/static/images/task_images/dig.jpg"",""time"":0.39999961853027344},{""stimulus"":""run_exp/static/images/task_images/land.jpg"",""time"":905.7999992370605},{""stimulus"":""run_exp/static/images/task_images/dig.jpg"",""time"":1810.1999998092651}]",[],7,,,,,,,,,,,,,,
harvest,255,828083,0.0-82.0-1.0,"""event"",""trial"",""time""
""fullscreenenter"",""1"",""2977""
","
","
","""event"",""trial"",""time""
""fullscreenenter"",""1"",""2977""
","
",,null,run_exp/static/images/task_images/gems/5.jpg,null,,,,,,,1,,,7,,,,,5,0.21264234,0.2,,,,,,,
decision,256,829587,0.0-82.0-2.0,"""event"",""trial"",""time""
""fullscreenenter"",""1"",""2977""
","
","
","""event"",""trial"",""time""
""fullscreenenter"",""1"",""2977""
","
",,1501.9,run_exp/static/images/task_images/land.jpg,65,,,,,,,1,,,7,,,,,,,,18123,2,2,FALSE,,,
dig,257,831104,0.0-83.0-0.0,"""event"",""trial"",""time""
""fullscreenenter"",""1"",""2977""
","
","
","""event"",""trial"",""time""
""fullscreenenter"",""1"",""2977""
","
