trial_type,trial_index,time_elapsed,internal_node_id,interactions,blur_events,focus_events,fullscreenenter_events,fullscreenexit_events,success,rt,stimulus,key_press,prompt,subject_id,participant_id,age,gender,button_pressed,next_reward,animation_sequence,responses,planet,curr_prac_trial,n_prac_rounds,alien,aliens,reward_received,decay_rate_actual,decay_rate_exp,time_in_block,block_num,prt,last_trial_on_planet,button_html,bonus,num_failures
pavlovia,0,3,0.0-0.0,"""event"",""trial"",""time""
""fullscreenenter"",""1"",""8955""
","
","
","""event"",""trial"",""time""
""fullscreenenter"",""1"",""8955""
","
",,,,,,,,,,,,,,,,,,,,,,,,,,,,
fullscreen,1,9954,0.0-1.0,"""event"",""trial"",""time""
""fullscreenenter"",""1"",""8955""
","
","
","""event"",""trial"",""time""
""fullscreenenter"",""1"",""8955""
","
",TRUE,,,,,,,,,,,,,,,,,,,,,,,,,,,
instruc_welcome,2,20117,0.0-2.0,"""event"",""trial"",""time""
""fullscreenenter"",""1"",""8955""
","
","
","""event"",""trial"",""time""
""fullscreenenter"",""1"",""8955""
","
",,null,run_exp/static/audio/clip_1_welcome.m4a,null,"<p>Howdy! In this experiment, you’ll be an explorer traveling through space to collect space treasure.</p><p>Your mission is to collect as much treasure as possible.</p><br><br><p><img src='run_exp/static/images/task_images/opening_img-01.jpg' height='300' width='auto'></p>",9867,4667,18.08,Female,,,,,,,,,,,,,,,,,,,
audio-keyboard-response,3,36886,0.0-3.0,"""event"",""trial"",""time""
""fullscreenenter"",""1"",""8955""
","
","
","""event"",""trial"",""time""
""fullscreenenter"",""1"",""8955""
","
",,null,run_exp/static/audio/clip_2_move.m4a,null,,,,,,,,,,,,,,,,,,,,,,,,
welcome_dec,4,40464,0.0-4.0,"""event"",""trial"",""time""
""fullscreenenter"",""1"",""8955""
","
","
","""event"",""trial"",""time""
""fullscreenenter"",""1"",""8955""
","
",,3576.8,"<p>Howdy! In this experiment, you’ll be an explorer traveling through space to collect space treasure.</p><p>Your mission is to collect as much treasure as possible.</p><br><br><p><img src='run_exp/static/images/task_images/opening_img-01.jpg' height='300' width='auto'></p>",,,,,,,1,,,,,,,,,,,,,,,,,,
html-keyboard-response,5,41159,0.0-5.0,"""event"",""trial"",""time""
""fullscreenenter"",""1"",""8955""
","
","
","""event"",""trial"",""time""
""fullscreenenter"",""1"",""8955""
","
",,693.5,"<p>Howdy! In this experiment, you’ll be an explorer traveling through space to collect space treasure.</p><p>Your mission is to collect as much treasure as possible.</p><br><br><p><img src='run_exp/static/images/task_images/opening_img-01.jpg' height='300' width='auto'></p><button class=""jspsych-html-btn-unchosen""><img src=""run_exp/static/images/task_images/planet-01.jpg"" height=""50""></button><button class=""jspsych-html-btn-chosen""><img src=""run_exp/static/images/task_images/planet-02.jpg"" height=""50""></button><p><b>[press the space bar to lock in your answer]<b><br></p>",32,,,,,,,,,,,,,,,,,,,,,,,,
instruc_goal,6,51375,0.0-6.0-0.0,"""event"",""trial"",""time""
""fullscreenenter"",""1"",""8955""
","
","
","""event"",""trial"",""time""
""fullscreenenter"",""1"",""8955""
","
",,null,run_exp/static/audio/clip_3_goal.m4a,null,"<p> As a space explorer, you’ll visit different planets to dig for space treasure, these pink gems.</p> <p> The more treasure you dig up, the more bonus money you’ll win! </p><br><br><p><img src='run_exp/static/images/task_images/pink_gem.jpg' height='300' width='auto'></p>",,,,,,,,,,,,,,,,,,,,,,,
instruc_goal,7,52862,0.0-6.0-1.0,"""event"",""trial"",""time""
""fullscreenenter"",""1"",""8955""
","
","
","""event"",""trial"",""time""
""fullscreenenter"",""1"",""8955""
","
",,1485,"<p> As a space explorer, you’ll visit different planets to dig for space treasure, these pink gems.</p> <p> The more treasure you dig up, the more bonus money you’ll win! </p><br><br><p><img src='run_exp/static/images/task_images/pink_gem.jpg' height='300' width='auto'></p>",,,,,,,1,,,,,,,,,,,,,,,,,,
html-keyboard-response,8,53814,0.0-6.0-2.0,"""event"",""trial"",""time""
""fullscreenenter"",""1"",""8955""
","
","
","""event"",""trial"",""time""
""fullscreenenter"",""1"",""8955""
","
",,951.7,"<p> As a space explorer, you’ll visit different planets to dig for space treasure, these pink gems.</p> <p> The more treasure you dig up, the more bonus money you’ll win! </p><br><br><p><img src='run_exp/static/images/task_images/pink_gem.jpg' height='300' width='auto'></p><button class=""jspsych-html-btn-unchosen""><img src=""run_exp/static/images/task_images/planet-01.jpg"" height=""50""></button><button class=""jspsych-html-btn-chosen""><img src=""run_exp/static/images/task_images/planet-02.jpg"" height=""50""></button><p><b>[press the space bar to lock in your answer]<b><br></p>",32,,,,,,,,,,,,,,,,,,,,,,,,
instruc_dig,9,69995,0.0-7.0-0.0,"""event"",""trial"",""time""
""fullscreenenter"",""1"",""8955""
","
","
","""event"",""trial"",""time""
""fullscreenenter"",""1"",""8955""
","
",,null,run_exp/static/audio/clip_4_dig.m4a,null,,,,,,,100,,,,,,,,,,,,,,,,,
instruc_dig_try,10,70103,0.0-7.0-1.0,"""event"",""trial"",""time""
""fullscreenenter"",""1"",""8955""
","
","
","""event"",""trial"",""time""
""fullscreenenter"",""1"",""8955""
","
",,107.3,"<p> When you’ve arrived at a new planet, you will dig once. </p> <p>Then, you get to decide if you want to stay on the planet and dig again or travel to a new planet and dig there.</p> <p> To stay and dig, press the letter <strong>‘A’</strong> on your keyboard. Try pressing it now! </p><p><img src='run_exp/static/images/task_images/land.jpg'  height='700' width='auto'></p>",65,"<p> When you’ve arrived at a new planet, you will dig once. </p> <p>Then, you get to decide if you want to stay on the planet and dig again or travel to a new planet and dig there.</p> <p> To stay and dig, press the letter <strong>‘A’</strong> on your keyboard. Try pressing it now! </p><p><img src='run_exp/static/images/task_images/land.jpg'  height='700' width='auto'></p>",,,,,,100,,,,,,,,,,,,,,,,,
dig_prac,11,72114,0.0-7.0-2.0,"""event"",""trial"",""time""
""fullscreenenter"",""1"",""8955""
","
","
","""event"",""trial"",""time""
""fullscreenenter"",""1"",""8955""
","
",,,,,,,,,,,,"[{""stimulus"":""run_exp/static/images/task_images/dig.jpg"",""time"":0.19999998807907104},{""stimulus"":""run_exp/static/images/task_images/land.jpg"",""time"":669.5999999642372},{""stimulus"":""run_exp/static/images/task_images/dig.jpg"",""time"":1342.5999999642372}]",[],,,,,,,,,,,,,,,
instruc_travel,12,108504,0.0-7.0-3.0,"""event"",""trial"",""time""
""fullscreenenter"",""1"",""8955""
","
","
","""event"",""trial"",""time""
""fullscreenenter"",""1"",""8955""
","
",,null,run_exp/static/audio/clip_5_travel.m4a,null,"<p>Every time you dig up gems, there are less gems on the planet, so the more you dig on a planet the fewer gems you’ll get with each dig.</p><p>When gems are running low, you may want to travel to a new planet. </p> <p>  Planets are very far apart in this galaxy, so it will take some time to travel between them. </p> <br><p>There are lots and lots of planets for you to visit, so you won’t be able to return to any planets you’ve seen before. </p><br><p>To leave this planet and travel to a new one, press the letter <strong>‘L’</strong> on your keyboard. Try pressing it now! </p><p><img src='run_exp/static/images/task_images/rocket-01.jpg'  height='600' width='auto'></p>",,,,,,,,,,,,,,,,,,,,,,,
instruc_travel_try,13,111063,0.0-7.0-4.0,"""event"",""trial"",""time""
""fullscreenenter"",""1"",""8955""
","
","
","""event"",""trial"",""time""
""fullscreenenter"",""1"",""8955""
","
",,2558.4,"<p>Every time you dig up gems, there are less gems on the planet, so the more you dig on a planet the fewer gems you’ll get with each dig.</p><p>When gems are running low, you may want to travel to a new planet. </p> <p>  Planets are very far apart in this galaxy, so it will take some time to travel between them. </p> <br><p>There are lots and lots of planets for you to visit, so you won’t be able to return to any planets you’ve seen before. </p><br><p>To leave this planet and travel to a new one, press the letter <strong>‘L’</strong> on your keyboard. Try pressing it now! </p><p><img src='run_exp/static/images/task_images/rocket-01.jpg'  height='600' width='auto'></p>",76,"<p>Every time you dig up gems, there are less gems on the planet, so the more you dig on a planet the fewer gems you’ll get with each dig.</p><p>When gems are running low, you may want to travel to a new planet. </p> <p>  Planets are very far apart in this galaxy, so it will take some time to travel between them. </p> <br><p>There are lots and lots of planets for you to visit, so you won’t be able to return to any planets you’ve seen before. </p><br><p>To leave this planet and travel to a new one, press the letter <strong>‘L’</strong> on your keyboard. Try pressing it now! </p><p><img src='run_exp/static/images/task_images/rocket-01.jpg'  height='600' width='auto'></p>",,,,,,,,,,,,,,,,,,,,,,,
travel_prac,14,121072,0.0-7.0-5.0,"""event"",""trial"",""time""
""fullscreenenter"",""1"",""8955""
","
","
","""event"",""trial"",""time""
""fullscreenenter"",""1"",""8955""
","
",,,,,,,,,,,,"[{""stimulus"":""run_exp/static/images/task_images/rocket-01.jpg"",""time"":0.19999998807907104},{""stimulus"":""run_exp/static/images/task_images/rocket-02.jpg"",""time"":1119.699999988079},{""stimulus"":""run_exp/static/images/task_images/rocket-03.jpg"",""time"":2231.300000011921},{""stimulus"":""run_exp/static/images/task_images/rocket-04.jpg"",""time"":3334.899999976158},{""stimulus"":""run_exp/static/images/task_images/rocket-05.jpg"",""time"":4446.800000011921},{""stimulus"":""run_exp/static/images/task_images/rocket-06.jpg"",""time"":5558.699999988079},{""stimulus"":""run_exp/static/images/task_images/rocket-07.jpg"",""time"":6671.600000023842},{""stimulus"":""run_exp/static/images/task_images/rocket-08.jpg"",""time"":7784.100000023842},{""stimulus"":""run_exp/static/images/task_images/rocket-09.jpg"",""time"":8895.300000011921}]",[],0,,,,,,,,,,,,,,
instruc_alien_greet,15,148423,0.0-7.0-6.0,"""event"",""trial"",""time""
""fullscreenenter"",""1"",""8955""
","
","
","""event"",""trial"",""time""
""fullscreenenter"",""1"",""8955""
","
",,null,run_exp/static/audio/clip_6_alien.m4a,null,"<p>When you arrive at a new planet, the alien who owns the treasure mine on that planet will greet you!</p><p>The better an alien takes care of their mine the easier it is to dig for gems. Some aliens take better care of their mine than others. So, you won’t get exactly the same amount of gems on each planet.</p><p>What the alien looks like does not tell you anything about how many gems there are on the planet.</p><br><p><img src=""run_exp/static/images/task_images/aliens/instructions_aliens/planet/alien_planet-1.jpg""  height=""600"" width=""auto""></p>",,,,,,,,,,,,,,,,,,,,,,,
instruc_alien_greet,16,153007,0.0-7.0-7.0,"""event"",""trial"",""time""
""fullscreenenter"",""1"",""8955""
","
","
","""event"",""trial"",""time""
""fullscreenenter"",""1"",""8955""
","
",,4582.8,"<p>When you arrive at a new planet, the alien who owns the treasure mine on that planet will greet you!</p><p>The better an alien takes care of their mine the easier it is to dig for gems. Some aliens take better care of their mine than others. So, you won’t get exactly the same amount of gems on each planet.</p><p>What the alien looks like does not tell you anything about how many gems there are on the planet.</p><br><p><img src=""run_exp/static/images/task_images/aliens/instructions_aliens/planet/alien_planet-1.jpg""  height=""600"" width=""auto""></p>",,,,,,,1,,,,,,,,,,,,,,,,,,
html-keyboard-response,17,153339,0.0-7.0-8.0,"""event"",""trial"",""time""
""fullscreenenter"",""1"",""8955""
","
","
","""event"",""trial"",""time""
""fullscreenenter"",""1"",""8955""
","
",,331.2,"<p>When you arrive at a new planet, the alien who owns the treasure mine on that planet will greet you!</p><p>The better an alien takes care of their mine the easier it is to dig for gems. Some aliens take better care of their mine than others. So, you won’t get exactly the same amount of gems on each planet.</p><p>What the alien looks like does not tell you anything about how many gems there are on the planet.</p><br><p><img src=""run_exp/static/images/task_images/aliens/instructions_aliens/planet/alien_planet-1.jpg""  height=""600"" width=""auto""></p><button class=""jspsych-html-btn-unchosen""><img src=""run_exp/static/images/task_images/planet-01.jpg"" height=""50""></button><button class=""jspsych-html-btn-chosen""><img src=""run_exp/static/images/task_images/planet-02.jpg"" height=""50""></button><p><b>[press the space bar to lock in your answer]<b><br></p>",32,,,,,,,,,,,,,,,,,,,,,,,,
time_out,18,164603,0.0-8.0-0.0,"""event"",""trial"",""time""
""fullscreenenter"",""1"",""8955""
","
","
","""event"",""trial"",""time""
""fullscreenenter"",""1"",""8955""
","
",,null,run_exp/static/audio/clip_7_timeout.m4a,null,"<p>If you don't make your choice fast enough, you’ll have to wait a few seconds before you can make another one.</p><p>You can’t dig for more gems or travel to new planets. You just have to sit and wait.</p><br><p><img src='run_exp/static/images/task_images/time_out.jpg'  height='600' width='auto'></p>",,,,,,,,,,,,,,,,,,,,,,,
time_out,19,168684,0.0-8.0-1.0,"""event"",""trial"",""time""
""fullscreenenter"",""1"",""8955""
","
","
","""event"",""trial"",""time""
""fullscreenenter"",""1"",""8955""
","
",,4080.1,"<p>If you don't make your choice fast enough, you’ll have to wait a few seconds before you can make another one.</p><p>You can’t dig for more gems or travel to new planets. You just have to sit and wait.</p><br><p><img src='run_exp/static/images/task_images/time_out.jpg'  height='600' width='auto'></p>",,,,,,,1,,,,,,,,,,,,,,,,,,
html-keyboard-response,20,169055,0.0-8.0-2.0,"""event"",""trial"",""time""
""fullscreenenter"",""1"",""8955""
","
","
","""event"",""trial"",""time""
""fullscreenenter"",""1"",""8955""
","
",,370.2,"<p>If you don't make your choice fast enough, you’ll have to wait a few seconds before you can make another one.</p><p>You can’t dig for more gems or travel to new planets. You just have to sit and wait.</p><br><p><img src='run_exp/static/images/task_images/time_out.jpg'  height='600' width='auto'></p><button class=""jspsych-html-btn-unchosen""><img src=""run_exp/static/images/task_images/planet-01.jpg"" height=""50""></button><button class=""jspsych-html-btn-chosen""><img src=""run_exp/static/images/task_images/planet-02.jpg"" height=""50""></button><p><b>[press the space bar to lock in your answer]<b><br></p>",32,,,,,,,,,,,,,,,,,,,,,,,,
instruc_break,21,184902,0.0-9.0-0.0,"""event"",""trial"",""time""
""fullscreenenter"",""1"",""8955""
","
","
","""event"",""trial"",""time""
""fullscreenenter"",""1"",""8955""
","
",,null,run_exp/static/audio/clip_8_break.m4a,null,"<p> After digging and traveling for a while, you’ll be able to take a break at home base. </p><p>The game will last 20 minutes no matter what.</p><p>You will visit home base every 5 minutes, so, you will visit home base three times during the game.</p><br><p><img src='run_exp/static/images/task_images/home_base.jpg' height='600' width='auto'></p>",,,,,,,,,,,,,,,,,,,,,,,
instruc_break,22,219719,0.0-9.0-1.0,"""event"",""trial"",""time""
""fullscreenenter"",""1"",""8955""
","
","
","""event"",""trial"",""time""
""fullscreenenter"",""1"",""8955""
","
",,34816.9,"<p> After digging and traveling for a while, you’ll be able to take a break at home base. </p><p>The game will last 20 minutes no matter what.</p><p>You will visit home base every 5 minutes, so, you will visit home base three times during the game.</p><br><p><img src='run_exp/static/images/task_images/home_base.jpg' height='600' width='auto'></p>",,,,,,,1,,,,,,,,,,,,,,,,,,
html-keyboard-response,23,220555,0.0-9.0-2.0,"""event"",""trial"",""time""
""fullscreenenter"",""1"",""8955""
","
","
","""event"",""trial"",""time""
""fullscreenenter"",""1"",""8955""
","
",,834.7,"<p> After digging and traveling for a while, you’ll be able to take a break at home base. </p><p>The game will last 20 minutes no matter what.</p><p>You will visit home base every 5 minutes, so, you will visit home base three times during the game.</p><br><p><img src='run_exp/static/images/task_images/home_base.jpg' height='600' width='auto'></p><button class=""jspsych-html-btn-unchosen""><img src=""run_exp/static/images/task_images/planet-01.jpg"" height=""50""></button><button class=""jspsych-html-btn-chosen""><img src=""run_exp/static/images/task_images/planet-02.jpg"" height=""50""></button><p><b>[press the space bar to lock in your answer]<b><br></p>",32,,,,,,,,,,,,,,,,,,,,,,,,
instruc_prac_game,24,231143,0.0-10.0-0.0,"""event"",""trial"",""time""
""fullscreenenter"",""1"",""8955""
","
","
","""event"",""trial"",""time""
""fullscreenenter"",""1"",""8955""
","
",,null,run_exp/static/audio/clip_9_practice.m4a,null,"<p> Are you ready to play a practice game? </p> <p>In this practice game, you'll be digging up barrels of gems. But, in the real game, you'll be digging up the gems themselves. </p>",,,,,,,,,,,,,,,,,,,,,,,
html-button-response,25,233297,0.0-10.0-1.0,"""event"",""trial"",""time""
""fullscreenenter"",""1"",""8955""
","
","
","""event"",""trial"",""time""
""fullscreenenter"",""1"",""8955""
","
",,2152.7,"<p> Are you ready to play a practice game? </p> <p>In this practice game, you'll be digging up barrels of gems. But, in the real game, you'll be digging up the gems themselves. </p>",,,,,,,0,,,,,,,,,,,,,,,,,,
alien_welcome_prac,26,238300,0.0-11.0-0.0,"""event"",""trial"",""time""
""fullscreenenter"",""1"",""8955""
","
","
","""event"",""trial"",""time""
""fullscreenenter"",""1"",""8955""
","
",,null,run_exp/static/images/task_images/aliens/practice_aliens/planet/alien_planet-5.jpg,null,,,,,,,,,,,,,,,,,,,,,,,,
land_prac,27,238805,0.0-11.0-1.0,"""event"",""trial"",""time""
""fullscreenenter"",""1"",""8955""
","
","
","""event"",""trial"",""time""
""fullscreenenter"",""1"",""8955""
","
",,null,run_exp/static/images/task_images/land.jpg,null,,,,,,,99,,,0,,,,,,,,,,,,,,
dig_prac,28,240813,0.0-11.0-2.0,"""event"",""trial"",""time""
""fullscreenenter"",""1"",""8955""
","
","
","""event"",""trial"",""time""
""fullscreenenter"",""1"",""8955""
","
",,,,,,,,,,,,"[{""stimulus"":""run_exp/static/images/task_images/dig.jpg"",""time"":0.19999998807907104},{""stimulus"":""run_exp/static/images/task_images/land.jpg"",""time"":671},{""stimulus"":""run_exp/static/images/task_images/dig.jpg"",""time"":1342.800000011921}]",[],,,,,,,,,,,,,,,
harvest_prac,29,241821,0.0-11.0-3.0,"""event"",""trial"",""time""
""fullscreenenter"",""1"",""8955""
","
","
","""event"",""trial"",""time""
""fullscreenenter"",""1"",""8955""
","
",,null,run_exp/static/images/task_images/barrel_text.jpg,null,,,,,,,,,,,,,,,,,,,,,,,,
decision_prac,30,242953,0.0-11.0-4.0,"""event"",""trial"",""time""
""fullscreenenter"",""1"",""8955""
","
","
","""event"",""trial"",""time""
""fullscreenenter"",""1"",""8955""
","
",,1131.8,run_exp/static/images/task_images/land.jpg,65,,,,,,,,,,,1,,,,,,,,,,,,,
dig_prac,31,244965,0.0-12.0-0.0,"""event"",""trial"",""time""
""fullscreenenter"",""1"",""8955""
","
","
","""event"",""trial"",""time""
""fullscreenenter"",""1"",""8955""
","
",,,,,,,,,,,,"[{""stimulus"":""run_exp/static/images/task_images/dig.jpg"",""time"":0.30000001192092896},{""stimulus"":""run_exp/static/images/task_images/land.jpg"",""time"":674},{""stimulus"":""run_exp/static/images/task_images/dig.jpg"",""time"":1337.8999999761581}]",[],,,,,,,,,,,,,,,
harvest_prac,32,245972,0.0-12.0-1.0,"""event"",""trial"",""time""
""fullscreenenter"",""1"",""8955""
","
","
","""event"",""trial"",""time""
""fullscreenenter"",""1"",""8955""
","
",,null,run_exp/static/images/task_images/barrel_text.jpg,null,,,,,,,,,,,,,,,,,,,,,,,,
decision_prac,33,246541,0.0-12.0-2.0,"""event"",""trial"",""time""
""fullscreenenter"",""1"",""8955""
","
","
","""event"",""trial"",""time""
""fullscreenenter"",""1"",""8955""
","
",,568.4,run_exp/static/images/task_images/land.jpg,65,,,,,,,,,,,2,,,,,,,,,,,,,
dig_prac,34,248548,0.0-13.0-0.0,"""event"",""trial"",""time""
""fullscreenenter"",""1"",""8955""
","
","
","""event"",""trial"",""time""
""fullscreenenter"",""1"",""8955""
","
",,,,,,,,,,,,"[{""stimulus"":""run_exp/static/images/task_images/dig.jpg"",""time"":0.10000002384185791},{""stimulus"":""run_exp/static/images/task_images/land.jpg"",""time"":669.8000000119209},{""stimulus"":""run_exp/static/images/task_images/dig.jpg"",""time"":1341.5}]",[],,,,,,,,,,,,,,,
harvest_prac,35,249557,0.0-13.0-1.0,"""event"",""trial"",""time""
""fullscreenenter"",""1"",""8955""
","
","
","""event"",""trial"",""time""
""fullscreenenter"",""1"",""8955""
","
",,null,run_exp/static/images/task_images/barrel_text.jpg,null,,,,,,,,,,,,,,,,,,,,,,,,
decision_prac,36,250040,0.0-13.0-2.0,"""event"",""trial"",""time""
""fullscreenenter"",""1"",""8955""
","
","
","""event"",""trial"",""time""
""fullscreenenter"",""1"",""8955""
","
",,482.3,run_exp/static/images/task_images/land.jpg,65,,,,,,,,,,,3,,,,,,,,,,,,,
dig_prac,37,252044,0.0-14.0-0.0,"""event"",""trial"",""time""
""fullscreenenter"",""1"",""8955""
","
","
","""event"",""trial"",""time""
""fullscreenenter"",""1"",""8955""
","
",,,,,,,,,,,,"[{""stimulus"":""run_exp/static/images/task_images/dig.jpg"",""time"":0.09999996423721313},{""stimulus"":""run_exp/static/images/task_images/land.jpg"",""time"":674.8999999761581},{""stimulus"":""run_exp/static/images/task_images/dig.jpg"",""time"":1339.8999999761581}]",[],,,,,,,,,,,,,,,
harvest_prac,38,253053,0.0-14.0-1.0,"""event"",""trial"",""time""
""fullscreenenter"",""1"",""8955""
","
","
","""event"",""trial"",""time""
""fullscreenenter"",""1"",""8955""
","
",,null,run_exp/static/images/task_images/barrel_text.jpg,null,,,,,,,,,,,,,,,,,,,,,,,,
decision_prac,39,253404,0.0-14.0-2.0,"""event"",""trial"",""time""
""fullscreenenter"",""1"",""8955""
","
","
","""event"",""trial"",""time""
""fullscreenenter"",""1"",""8955""
","
",,350.6,run_exp/static/images/task_images/land.jpg,65,,,,,,,,,,,4,,,,,,,,,,,,,
dig_prac,40,255413,0.0-15.0-0.0,"""event"",""trial"",""time""
""fullscreenenter"",""1"",""8955""
","
","
","""event"",""trial"",""time""
""fullscreenenter"",""1"",""8955""
","
",,,,,,,,,,,,"[{""stimulus"":""run_exp/static/images/task_images/dig.jpg"",""time"":0.10000002384185791},{""stimulus"":""run_exp/static/images/task_images/land.jpg"",""time"":669.9000000357628},{""stimulus"":""run_exp/static/images/task_images/dig.jpg"",""time"":1334.7000000476837}]",[],,,,,,,,,,,,,,,
harvest_prac,41,256420,0.0-15.0-1.0,"""event"",""trial"",""time""
""fullscreenenter"",""1"",""8955""
","
","
","""event"",""trial"",""time""
""fullscreenenter"",""1"",""8955""
","
",,null,run_exp/static/images/task_images/barrel_text.jpg,null,,,,,,,,,,,,,,,,,,,,,,,,
decision_prac,42,257060,0.0-15.0-2.0,"""event"",""trial"",""time""
""fullscreenenter"",""1"",""8955""
","
","
","""event"",""trial"",""time""
""fullscreenenter"",""1"",""8955""
","
",,638.7,run_exp/static/images/task_images/land.jpg,65,,,,,,,,,,,,1,,,,,,,,,,,,
quiz_instruc,43,259712,0.0-16.0-0.0,"""event"",""trial"",""time""
""fullscreenenter"",""1"",""8955""
","
","
","""event"",""trial"",""time""
""fullscreenenter"",""1"",""8955""
","
",,2651.2,run_exp/static/audio/clip_10_quiz.m4a,,,,,,,0,,,,,,,,,,,,,,,,,,
instruc_repeat,44,302642,0.0-16.0-1.0,"""event"",""trial"",""time""
""fullscreenenter"",""1"",""8955""
","
","
","""event"",""trial"",""time""
""fullscreenenter"",""1"",""8955""
","
",,null,"<p> Are you ready to play a practice game? </p> <p>In this practice game, you'll be digging up barrels of gems. But, in the real game, you'll be digging up the gems themselves. </p>",null,"<p>In this game, your goal is to collect as many gems as you can. That’s how you will win bonus money. </p> <p>The entire game will last 20 minutes no matter how many gems you collect or how many planets you visit. </p><p>To stay on a planet and dig again, press the letter A on your keyboard. To leave for a new planet, press the letter L.</p><p>The more you dig on a planet, the fewer gems you’ll get with each dig which is why you might consider leaving for a new planet. </p><p>When you arrive at a new planet, you’ll be greeted by an alien. What the alien looks like does not tell you anything about how much treasure is on the planet. </p>",,,,,,,,,,,,,,,,,,,,,,,
instruc_repeat_continue,45,305479,0.0-16.0-2.0,"""event"",""trial"",""time""
""fullscreenenter"",""1"",""8955""
","
","
","""event"",""trial"",""time""
""fullscreenenter"",""1"",""8955""
","
",,2836,"<p> Are you ready to play a practice game? </p> <p>In this practice game, you'll be digging up barrels of gems. But, in the real game, you'll be digging up the gems themselves. </p>",,,,,,,0,,,,,,,,,,,,,,,,,,
quiz_q_1_ask,46,308081,0.0-16.0-3.0,"""event"",""trial"",""time""
""fullscreenenter"",""1"",""8955""
","
","
","""event"",""trial"",""time""
""fullscreenenter"",""1"",""8955""
","
",,2601.1,run_exp/static/audio/clip_11_q1_ask.m4a,,,,,,,2,,,,,,,,,,,,,,,,,,
quiz_q_1_fb_correct,47,312091,0.0-17.0-0.0,"""event"",""trial"",""time""
""fullscreenenter"",""1"",""8955""
","
","
","""event"",""trial"",""time""
""fullscreenenter"",""1"",""8955""
","
",,null,run_exp/static/audio/clip_12_q1_correct.m4a,null,<p>That’s correct. You win extra money by collecting more gems.</p>,,,,,,,,,,,,,,,,,,,,,,,
quiz_q_2_ask,48,314083,0.0-17.0-1.0,"""event"",""trial"",""time""
""fullscreenenter"",""1"",""8955""
","
","
","""event"",""trial"",""time""
""fullscreenenter"",""1"",""8955""
","
",,1990.3,run_exp/static/audio/clip_14_q2_ask.m4a,,,,,,,1,,,,,,,,,,,,,,,,,,
quiz_q_2_fb_correct,49,318241,0.0-18.0-0.0,"""event"",""trial"",""time""
""fullscreenenter"",""1"",""8955""
""fullscreenexit"",""50"",""366637""
""blur"",""50"",""368587""
""focus"",""50"",""590936""
","""event"",""trial"",""time""
""blur"",""50"",""368587""
","""event"",""trial"",""time""
""focus"",""50"",""590936""
","""event"",""trial"",""time""
""fullscreenenter"",""1"",""8955""
","""event"",""trial"",""time""
""fullscreenexit"",""50"",""366637""
",,null,run_exp/static/audio/clip_15_q2_correct.m4a,null,<p>That’s correct. The experiment is 20 minutes no matter what.</p>,,,,,,,,,,,,,,,,,,,,,,,
quiz_q_3_ask,50,601068,0.0-18.0-1.0,"""event"",""trial"",""time""
""fullscreenenter"",""1"",""8955""
""fullscreenexit"",""50"",""366637""
""blur"",""50"",""368587""
""focus"",""50"",""590936""
","""event"",""trial"",""time""
""blur"",""50"",""368587""
","""event"",""trial"",""time""
""focus"",""50"",""590936""
","""event"",""trial"",""time""
""fullscreenenter"",""1"",""8955""
","""event"",""trial"",""time""
""fullscreenexit"",""50"",""366637""
",,282832.8,run_exp/static/audio/clip_17_q3_ask.m4a,,,,,,,1,,,,,,,,,,,,,,,,,,
quiz_q_3_fb_correct,51,605408,0.0-19.0-0.0,"""event"",""trial"",""time""
""fullscreenenter"",""1"",""8955""
""fullscreenexit"",""50"",""366637""
""blur"",""50"",""368587""
""focus"",""50"",""590936""
","""event"",""trial"",""time""
""blur"",""50"",""368587""
","""event"",""trial"",""time""
""focus"",""50"",""590936""
","""event"",""trial"",""time""
""fullscreenenter"",""1"",""8955""
","""event"",""trial"",""time""
""fullscreenexit"",""50"",""366637""
",,null,run_exp/static/audio/clip_18_q3_correct.m4a,null,<p> That’s correct. You press the letter L to travel to a new planet.</p>,,,,,,,,,,,,,,,,,,,,,,,
quiz_q_4_ask,52,632237,0.0-19.0-1.0,"""event"",""trial"",""time""
""fullscreenenter"",""1"",""8955""
""fullscreenexit"",""50"",""366637""
""blur"",""50"",""368587""
""focus"",""50"",""590936""
","""event"",""trial"",""time""
""blur"",""50"",""368587""
","""event"",""trial"",""time""
""focus"",""50"",""590936""
","""event"",""trial"",""time""
""fullscreenenter"",""1"",""8955""
","""event"",""trial"",""time""
""fullscreenexit"",""50"",""366637""
",,26829.3,run_exp/static/audio/clip_20_q4_ask.m4a,,,,,,,0,,,,,,,,,,,,,,,,,,
quiz_q_4_fb_correct,53,637948,0.0-20.0-0.0,"""event"",""trial"",""time""
""fullscreenenter"",""1"",""8955""
""fullscreenexit"",""50"",""366637""
""blur"",""50"",""368587""
""focus"",""50"",""590936""
","""event"",""trial"",""time""
""blur"",""50"",""368587""
","""event"",""trial"",""time""
""focus"",""50"",""590936""
","""event"",""trial"",""time""
""fullscreenenter"",""1"",""8955""
","""event"",""trial"",""time""
""fullscreenexit"",""50"",""366637""
",,null,run_exp/static/audio/clip_21_q4_correct.m4a,null,<p> That’s correct. The more you dig on a planet the fewer gems you’ll get with each dig. </p>,,,,,,,,,,,,,,,,,,,,,,,
quiz_q_5_ask,54,641356,0.0-20.0-1.0,"""event"",""trial"",""time""
""fullscreenenter"",""1"",""8955""
""fullscreenexit"",""50"",""366637""
""blur"",""50"",""368587""
""focus"",""50"",""590936""
","""event"",""trial"",""time""
""blur"",""50"",""368587""
","""event"",""trial"",""time""
""focus"",""50"",""590936""
","""event"",""trial"",""time""
""fullscreenenter"",""1"",""8955""
","""event"",""trial"",""time""
""fullscreenexit"",""50"",""366637""
",,3406.8,run_exp/static/audio/clip_23_q5_ask.m4a,,,,,,,1,,,,,,,,,,,,,,,,,,
quiz_q_5_fb_correct,55,646518,0.0-21.0-0.0,"""event"",""trial"",""time""
""fullscreenenter"",""1"",""8955""
""fullscreenexit"",""50"",""366637""
""blur"",""50"",""368587""
""focus"",""50"",""590936""
","""event"",""trial"",""time""
""blur"",""50"",""368587""
","""event"",""trial"",""time""
""focus"",""50"",""590936""
","""event"",""trial"",""time""
""fullscreenenter"",""1"",""8955""
","""event"",""trial"",""time""
""fullscreenexit"",""50"",""366637""
",,null,run_exp/static/audio/clip_24_q5_correct.m4a,null,<p> That’s correct. The alien tells you nothing about how much treasure is on the planet.</p>,,,,,,,,,,,,,,,,,,,,,,,
quiz_correct,56,650148,0.0-22.0-0.0,"""event"",""trial"",""time""
""fullscreenenter"",""1"",""8955""
""fullscreenexit"",""50"",""366637""
""blur"",""50"",""368587""
""focus"",""50"",""590936""
","""event"",""trial"",""time""
""blur"",""50"",""368587""
","""event"",""trial"",""time""
""focus"",""50"",""590936""
","""event"",""trial"",""time""
""fullscreenenter"",""1"",""8955""
","""event"",""trial"",""time""
""fullscreenexit"",""50"",""366637""
",,null,run_exp/static/audio/clip_26_correct_quiz.m4a,null,,,,,,,,,,,,,,,,,,,,,,,,
quiz_correct_continue,57,652260,0.0-22.0-1.0,"""event"",""trial"",""time""
""fullscreenenter"",""1"",""8955""
""fullscreenexit"",""50"",""366637""
""blur"",""50"",""368587""
""focus"",""50"",""590936""
","""event"",""trial"",""time""
""blur"",""50"",""368587""
","""event"",""trial"",""time""
""focus"",""50"",""590936""
","""event"",""trial"",""time""
""fullscreenenter"",""1"",""8955""
","""event"",""trial"",""time""
""fullscreenexit"",""50"",""366637""
",,2112.1,<p>Good job! You're now ready to move on to the real game!</p>,,,,,,,0,,,,,,,,,,,,,,,,,,
audio-keyboard-response,58,662537,0.0-22.0-2.0,"""event"",""trial"",""time""
""fullscreenenter"",""1"",""8955""
""fullscreenexit"",""50"",""366637""
""blur"",""50"",""368587""
""focus"",""50"",""590936""
","""event"",""trial"",""time""
""blur"",""50"",""368587""
","""event"",""trial"",""time""
""focus"",""50"",""590936""
","""event"",""trial"",""time""
""fullscreenenter"",""1"",""8955""
","""event"",""trial"",""time""
""fullscreenexit"",""50"",""366637""
",,null,run_exp/static/audio/clip_28_real_game.m4a,null,,,,,,,,,,,,,,,,,,,,,,,,
instruc_begin_exp_contine,59,663448,0.0-22.0-3.0,"""event"",""trial"",""time""
""fullscreenenter"",""1"",""8955""
""fullscreenexit"",""50"",""366637""
""blur"",""50"",""368587""
""focus"",""50"",""590936""
","""event"",""trial"",""time""
""blur"",""50"",""368587""
","""event"",""trial"",""time""
""focus"",""50"",""590936""
","""event"",""trial"",""time""
""fullscreenenter"",""1"",""8955""
","""event"",""trial"",""time""
""fullscreenexit"",""50"",""366637""
",,910.2,"<p>Now that you know how  to dig for space treasure and travel to new planets,you can start exploring! </p><p>Do you want to go over the instructions again or get started with the real game?</p>",,,,,,,1,,,,,,1,,,,,,,,,,,,
alien_welcome,60,668457,0.0-23.0-0.0,"""event"",""trial"",""time""
""fullscreenenter"",""1"",""8955""
""fullscreenexit"",""50"",""366637""
""blur"",""50"",""368587""
""focus"",""50"",""590936""
","""event"",""trial"",""time""
""blur"",""50"",""368587""
","""event"",""trial"",""time""
""focus"",""50"",""590936""
","""event"",""trial"",""time""
""fullscreenenter"",""1"",""8955""
","""event"",""trial"",""time""
""fullscreenexit"",""50"",""366637""
",,null,run_exp/static/images/task_images/aliens/old_aliens/planet/alien_planet-47.jpg,null,,,,,,,,,,,,,47,"47,65,21,43,3,67,53,75,39,18,76,4,34,22,54,48,73,52,32,46,49,72",,,,,,,,,,
land,61,668961,0.0-23.0-1.0,"""event"",""trial"",""time""
""fullscreenenter"",""1"",""8955""
""fullscreenexit"",""50"",""366637""
""blur"",""50"",""368587""
""focus"",""50"",""590936""
","""event"",""trial"",""time""
""blur"",""50"",""368587""
","""event"",""trial"",""time""
""focus"",""50"",""590936""
","""event"",""trial"",""time""
""fullscreenenter"",""1"",""8955""
","""event"",""trial"",""time""
""fullscreenexit"",""50"",""366637""
",,null,run_exp/static/images/task_images/land.jpg,null,,,,,,,107,,,1,,,,,,,,,,,,,,
dig,62,670969,0.0-23.0-2.0,"""event"",""trial"",""time""
""fullscreenenter"",""1"",""8955""
""fullscreenexit"",""50"",""366637""
""blur"",""50"",""368587""
""focus"",""50"",""590936""
","""event"",""trial"",""time""
""blur"",""50"",""368587""
","""event"",""trial"",""time""
""focus"",""50"",""590936""
","""event"",""trial"",""time""
""fullscreenenter"",""1"",""8955""
","""event"",""trial"",""time""
""fullscreenexit"",""50"",""366637""
",,,,,,,,,,,,"[{""stimulus"":""run_exp/static/images/task_images/dig.jpg"",""time"":0.19999998807907104},{""stimulus"":""run_exp/static/images/task_images/land.jpg"",""time"":671.5},{""stimulus"":""run_exp/static/images/task_images/dig.jpg"",""time"":1343.2999999523163}]",[],1,,,,,,,,,,,,,,
harvest,63,671978,0.0-23.0-3.0,"""event"",""trial"",""time""
""fullscreenenter"",""1"",""8955""
""fullscreenexit"",""50"",""366637""
""blur"",""50"",""368587""
""focus"",""50"",""590936""
","""event"",""trial"",""time""
""blur"",""50"",""368587""
","""event"",""trial"",""time""
""focus"",""50"",""590936""
","""event"",""trial"",""time""
""fullscreenenter"",""1"",""8955""
","""event"",""trial"",""time""
""fullscreenexit"",""50"",""366637""
",,null,run_exp/static/images/task_images/gems/107.jpg,null,,,,,,,14,,,1,,,,,107,0.130785778,0.130841121,,,,,,,
decision,64,672451,0.0-23.0-4.0,"""event"",""trial"",""time""
""fullscreenenter"",""1"",""8955""
""fullscreenexit"",""50"",""366637""
""blur"",""50"",""368587""
""focus"",""50"",""590936""
","""event"",""trial"",""time""
""blur"",""50"",""368587""
","""event"",""trial"",""time""
""focus"",""50"",""590936""
","""event"",""trial"",""time""
""fullscreenenter"",""1"",""8955""
","""event"",""trial"",""time""
""fullscreenexit"",""50"",""366637""
",,472,run_exp/static/images/task_images/land.jpg,65,,,,,,,14,,,1,,,,,,,,9002,1,0,FALSE,,,
dig,65,674985,0.0-24.0-0.0,"""event"",""trial"",""time""
""fullscreenenter"",""1"",""8955""
""fullscreenexit"",""50"",""366637""
""blur"",""50"",""368587""
""focus"",""50"",""590936""
","""event"",""trial"",""time""
""blur"",""50"",""368587""
","""event"",""trial"",""time""
""focus"",""50"",""590936""
","""event"",""trial"",""time""
""fullscreenenter"",""1"",""8955""
","""event"",""trial"",""time""
""fullscreenexit"",""50"",""366637""
",,,,,,,,,,,,"[{""stimulus"":""run_exp/static/images/task_images/dig.jpg"",""time"":0.10000002384185791},{""stimulus"":""run_exp/static/images/task_images/land.jpg"",""time"":844.6000000238419},{""stimulus"":""run_exp/static/images/task_images/dig.jpg"",""time"":1692.5}]",[],1,,,,,,,,,,,,,,
harvest,66,675994,0.0-24.0-1.0,"""event"",""trial"",""time""
""fullscreenenter"",""1"",""8955""
""fullscreenexit"",""50"",""366637""
""blur"",""50"",""368587""
""focus"",""50"",""590936""
","""event"",""trial"",""time""
""blur"",""50"",""368587""
","""event"",""trial"",""time""
""focus"",""50"",""590936""
","""event"",""trial"",""time""
""fullscreenenter"",""1"",""8955""
","""event"",""trial"",""time""
""fullscreenexit"",""50"",""366637""
",,null,run_exp/static/images/task_images/gems/14.jpg,null,,,,,,,4,,,1,,,,,14,0.270229914,0.285714286,,,,,,,
decision,67,676012,0.0-24.0-2.0,"""event"",""trial"",""time""
""fullscreenenter"",""1"",""8955""
""fullscreenexit"",""50"",""366637""
""blur"",""50"",""368587""
""focus"",""50"",""590936""
","""event"",""trial"",""time""
""blur"",""50"",""368587""
","""event"",""trial"",""time""
""focus"",""50"",""590936""
","""event"",""trial"",""time""
""fullscreenenter"",""1"",""8955""
","""event"",""trial"",""time""
""fullscreenexit"",""50"",""366637""
",,17.40000004,run_exp/static/images/task_images/land.jpg,65,,,,,,,4,,,1,,,,,,,,12563,1,1,FALSE,,,
dig,68,679001,0.0-25.0-0.0,"""event"",""trial"",""time""
""fullscreenenter"",""1"",""8955""
""fullscreenexit"",""50"",""366637""
""blur"",""50"",""368587""
""focus"",""50"",""590936""
","""event"",""trial"",""time""
""blur"",""50"",""368587""
","""event"",""trial"",""time""
""focus"",""50"",""590936""
","""event"",""trial"",""time""
""fullscreenenter"",""1"",""8955""
","""event"",""trial"",""time""
""fullscreenexit"",""50"",""366637""
",,,,,,,,,,,,"[{""stimulus"":""run_exp/static/images/task_images/dig.jpg"",""time"":0.10000002384185791},{""stimulus"":""run_exp/static/images/task_images/land.jpg"",""time"":1003.4000000357628},{""stimulus"":""run_exp/static/images/task_images/dig.jpg"",""time"":1995.800000011921}]",[],1,,,,,,,,,,,,,,
harvest,69,680010,0.0-25.0-1.0,"""event"",""trial"",""time""
""fullscreenenter"",""1"",""8955""
""fullscreenexit"",""50"",""366637""
""blur"",""50"",""368587""
""focus"",""50"",""590936""
","""event"",""trial"",""time""
""blur"",""50"",""368587""
","""event"",""trial"",""time""
""focus"",""50"",""590936""
","""event"",""trial"",""time""
""fullscreenenter"",""1"",""8955""
","""event"",""trial"",""time""
""fullscreenexit"",""50"",""366637""
",,null,run_exp/static/images/task_images/gems/4.jpg,null,,,,,,,1,,,1,,,,,4,0.285014451,0.25,,,,,,,
decision,70,680078,0.0-25.0-2.0,"""event"",""trial"",""time""
""fullscreenenter"",""1"",""8955""
""fullscreenexit"",""50"",""366637""
""blur"",""50"",""368587""
""focus"",""50"",""590936""
","""event"",""trial"",""time""
""blur"",""50"",""368587""
","""event"",""trial"",""time""
""focus"",""50"",""590936""
","""event"",""trial"",""time""
""fullscreenenter"",""1"",""8955""
","""event"",""trial"",""time""
""fullscreenexit"",""50"",""366637""
",,67.69999999,run_exp/static/images/task_images/land.jpg,65,,,,,,,1,,,1,,,,,,,,16629,1,2,FALSE,,,
dig,71,683017,0.0-26.0-0.0,"""event"",""trial"",""time""
""fullscreenenter"",""1"",""8955""
""fullscreenexit"",""50"",""366637""
""blur"",""50"",""368587""
""focus"",""50"",""590936""
","""event"",""trial"",""time""
""blur"",""50"",""368587""
","""event"",""trial"",""time""
""focus"",""50"",""590936""
","""event"",""trial"",""time""
""fullscreenenter"",""1"",""8955""
","""event"",""trial"",""time""
""fullscreenexit"",""50"",""366637""
",,,,,,,,,,,,"[{""stimulus"":""run_exp/static/images/task_images/dig.jpg"",""time"":0.19999998807907104},{""stimulus"":""run_exp/static/images/task_images/land.jpg"",""time"":986.5},{""stimulus"":""run_exp/static/images/task_images/dig.jpg"",""time"":1962}]",[],1,,,,,,,,,,,,,,
harvest,72,684025,0.0-26.0-1.0,"""event"",""trial"",""time""
""fullscreenenter"",""1"",""8955""
""fullscreenexit"",""50"",""366637""
""blur"",""50"",""368587""
""focus"",""50"",""590936""
","""event"",""trial"",""time""
""blur"",""50"",""368587""
","""event"",""trial"",""time""
""focus"",""50"",""590936""
","""event"",""trial"",""time""
""fullscreenenter"",""1"",""8955""
","""event"",""trial"",""time""
""fullscreenexit"",""50"",""366637""
",,null,run_exp/static/images/task_images/gems/1.jpg,null,,,,,,,0,,,1,,,,,1,0.169639225,0,,,,,,,
decision,73,684814,0.0-26.0-2.0,"""event"",""trial"",""time""
""fullscreenenter"",""1"",""8955""
""fullscreenexit"",""50"",""366637""
""blur"",""50"",""368587""
""focus"",""50"",""590936""
","""event"",""trial"",""time""
""blur"",""50"",""368587""
","""event"",""trial"",""time""
""focus"",""50"",""590936""
","""event"",""trial"",""time""
""fullscreenenter"",""1"",""8955""
","""event"",""trial"",""time""
""fullscreenexit"",""50"",""366637""
",,788.9,run_exp/static/images/task_images/land.jpg,65,,,,,,,0,,,1,,,,,,,,21366,1,3,FALSE,,,
dig,74,687033,0.0-27.0-0.0,"""event"",""trial"",""time""
""fullscreenenter"",""1"",""8955""
""fullscreenexit"",""50"",""366637""
""blur"",""50"",""368587""
""focus"",""50"",""590936""
","""event"",""trial"",""time""
""blur"",""50"",""368587""
","""event"",""trial"",""time""
""focus"",""50"",""590936""
","""event"",""trial"",""time""
""fullscreenenter"",""1"",""8955""
","""event"",""trial"",""time""
""fullscreenexit"",""50"",""366637""
",,,,,,,,,,,,"[{""stimulus"":""run_exp/static/images/task_images/dig.jpg"",""time"":0.19999998807907104},{""stimulus"":""run_exp/static/images/task_images/land.jpg"",""time"":746.2999999523163},{""stimulus"":""run_exp/static/images/task_images/dig.jpg"",""time"":1482.2999999523163}]",[],1,,,,,,,,,,,,,,
harvest,75,688041,0.0-27.0-1.0,"""event"",""trial"",""time""
""fullscreenenter"",""1"",""8955""
""fullscreenexit"",""50"",""366637""
""blur"",""50"",""368587""
""focus"",""50"",""590936""
","""event"",""trial"",""time""
""blur"",""50"",""368587""
","""event"",""trial"",""time""
""focus"",""50"",""590936""
","""event"",""trial"",""time""
""fullscreenenter"",""1"",""8955""
","""event"",""trial"",""time""
""fullscreenexit"",""50"",""366637""
",,null,run_exp/static/images/task_images/gems/0.jpg,null,,,,,,,0,,,1,,,,,0,0.331951772,NaN,,,,,,,
decision,76,688188,0.0-27.0-2.0,"""event"",""trial"",""time""
""fullscreenenter"",""1"",""8955""
""fullscreenexit"",""50"",""366637""
""blur"",""50"",""368587""
""focus"",""50"",""590936""
","""event"",""trial"",""time""
""blur"",""50"",""368587""
","""event"",""trial"",""time""
""focus"",""50"",""590936""
","""event"",""trial"",""time""
""fullscreenenter"",""1"",""8955""
","""event"",""trial"",""time""
""fullscreenexit"",""50"",""366637""
",,145.6,run_exp/static/images/task_images/land.jpg,76,,,,,,,0,,,1,,,,,,,,24739,1,4,TRUE,,,
travel,77,698041,0.0-28.0-0.0,"""event"",""trial"",""time""
""fullscreenenter"",""1"",""8955""
""fullscreenexit"",""50"",""366637""
""blur"",""50"",""368587""
""focus"",""50"",""590936""
","""event"",""trial"",""time""
""blur"",""50"",""368587""
","""event"",""trial"",""time""
""focus"",""50"",""590936""
","""event"",""trial"",""time""
""fullscreenenter"",""1"",""8955""
","""event"",""trial"",""time""
""fullscreenexit"",""50"",""366637""
",,,,,,,,,,,,"[{""stimulus"":""run_exp/static/images/task_images/rocket-01.jpg"",""time"":0.10000002384185791},{""stimulus"":""run_exp/static/images/task_images/rocket-02.jpg"",""time"":1099.6000000238419},{""stimulus"":""run_exp/static/images/task_images/rocket-03.jpg"",""time"":2195.400000035763},{""stimulus"":""run_exp/static/images/task_images/rocket-04.jpg"",""time"":3283.900000035763},{""stimulus"":""run_exp/static/images/task_images/rocket-05.jpg"",""time"":4380.199999988079},{""stimulus"":""run_exp/static/images/task_images/rocket-06.jpg"",""time"":5475.800000011921},{""stimulus"":""run_exp/static/images/task_images/rocket-07.jpg"",""time"":6571.5},{""stimulus"":""run_exp/static/images/task_images/rocket-08.jpg"",""time"":7659.900000035763},{""stimulus"":""run_exp/static/images/task_images/rocket-09.jpg"",""time"":8755.800000011921}]",[],1,,,,,,,,,,,,,,
alien_welcome,78,703048,0.0-28.0-1.0,"""event"",""trial"",""time""
""fullscreenenter"",""1"",""8955""
""fullscreenexit"",""50"",""366637""
""blur"",""50"",""368587""
""focus"",""50"",""590936""
","""event"",""trial"",""time""
""blur"",""50"",""368587""
","""event"",""trial"",""time""
""focus"",""50"",""590936""
","""event"",""trial"",""time""
""fullscreenenter"",""1"",""8955""
","""event"",""trial"",""time""
""fullscreenexit"",""50"",""366637""
",,null,run_exp/static/images/task_images/aliens/old_aliens/planet/alien_planet-65.jpg,null,,,,,,,,,,,,,65,"47,65,21,43,3,67,53,75,39,18,76,4,34,22,54,48,73,52,32,46,49,72",,,,,,,,,,
land,79,703553,0.0-28.0-2.0,"""event"",""trial"",""time""
""fullscreenenter"",""1"",""8955""
""fullscreenexit"",""50"",""366637""
""blur"",""50"",""368587""
""focus"",""50"",""590936""
","""event"",""trial"",""time""
""blur"",""50"",""368587""
","""event"",""trial"",""time""
""focus"",""50"",""590936""
","""event"",""trial"",""time""
""fullscreenenter"",""1"",""8955""
","""event"",""trial"",""time""
""fullscreenexit"",""50"",""366637""
",,null,run_exp/static/images/task_images/land.jpg,null,,,,,,,106,,,2,,,,,,,,,,,,,,
dig,80,705561,0.0-28.0-3.0,"""event"",""trial"",""time""
""fullscreenenter"",""1"",""8955""
""fullscreenexit"",""50"",""366637""
""blur"",""50"",""368587""
""focus"",""50"",""590936""
","""event"",""trial"",""time""
""blur"",""50"",""368587""
","""event"",""trial"",""time""
""focus"",""50"",""590936""
","""event"",""trial"",""time""
""fullscreenenter"",""1"",""8955""
","""event"",""trial"",""time""
""fullscreenexit"",""50"",""366637""
",,,,,,,,,,,,"[{""stimulus"":""run_exp/static/images/task_images/dig.jpg"",""time"":0.10000002384185791},{""stimulus"":""run_exp/static/images/task_images/land.jpg"",""time"":670.8000000119209},{""stimulus"":""run_exp/static/images/task_images/dig.jpg"",""time"":1342.199999988079}]",[],2,,,,,,,,,,,,,,
harvest,81,706569,0.0-28.0-4.0,"""event"",""trial"",""time""
""fullscreenenter"",""1"",""8955""
""fullscreenexit"",""50"",""366637""
""blur"",""50"",""368587""
""focus"",""50"",""590936""
","""event"",""trial"",""time""
""blur"",""50"",""368587""
","""event"",""trial"",""time""
""focus"",""50"",""590936""
","""event"",""trial"",""time""
""fullscreenenter"",""1"",""8955""
","""event"",""trial"",""time""
""fullscreenexit"",""50"",""366637""
",,null,run_exp/static/images/task_images/gems/106.jpg,null,,,,,,,33,,,2,,,,,106,0.315617129,0.311320755,,,,,,,
decision,82,706897,0.0-28.0-5.0,"""event"",""trial"",""time""
""fullscreenenter"",""1"",""8955""
""fullscreenexit"",""50"",""366637""
""blur"",""50"",""368587""
""focus"",""50"",""590936""
","""event"",""trial"",""time""
""blur"",""50"",""368587""
","""event"",""trial"",""time""
""focus"",""50"",""590936""
","""event"",""trial"",""time""
""fullscreenenter"",""1"",""8955""
","""event"",""trial"",""time""
""fullscreenexit"",""50"",""366637""
",,326.6,run_exp/static/images/task_images/land.jpg,65,,,,,,,33,,,2,,,,,,,,43448,1,0,FALSE,,,
dig,83,709577,0.0-29.0-0.0,"""event"",""trial"",""time""
""fullscreenenter"",""1"",""8955""
""fullscreenexit"",""50"",""366637""
""blur"",""50"",""368587""
""focus"",""50"",""590936""
","""event"",""trial"",""time""
""blur"",""50"",""368587""
","""event"",""trial"",""time""
""focus"",""50"",""590936""
","""event"",""trial"",""time""
""fullscreenenter"",""1"",""8955""
","""event"",""trial"",""time""
""fullscreenexit"",""50"",""366637""
",,,,,,,,,,,,"[{""stimulus"":""run_exp/static/images/task_images/dig.jpg"",""time"":0.19999998807907104},{""stimulus"":""run_exp/static/images/task_images/land.jpg"",""time"":894.8000000119209},{""stimulus"":""run_exp/static/images/task_images/dig.jpg"",""time"":1791.300000011921}]",[],2,,,,,,,,,,,,,,
harvest,84,710585,0.0-29.0-1.0,"""event"",""trial"",""time""
""fullscreenenter"",""1"",""8955""
""fullscreenexit"",""50"",""366637""
""blur"",""50"",""368587""
""focus"",""50"",""590936""
","""event"",""trial"",""time""
""blur"",""50"",""368587""
","""event"",""trial"",""time""
""focus"",""50"",""590936""
","""event"",""trial"",""time""
""fullscreenenter"",""1"",""8955""
","""event"",""trial"",""time""
""fullscreenexit"",""50"",""366637""
",,null,run_exp/static/images/task_images/gems/33.jpg,null,,,,,,,6,,,2,,,,,33,0.19486041,0.181818182,,,,,,,
decision,85,711070,0.0-29.0-2.0,"""event"",""trial"",""time""
""fullscreenenter"",""1"",""8955""
""fullscreenexit"",""50"",""366637""
""blur"",""50"",""368587""
""focus"",""50"",""590936""
","""event"",""trial"",""time""
""blur"",""50"",""368587""
","""event"",""trial"",""time""
""focus"",""50"",""590936""
","""event"",""trial"",""time""
""fullscreenenter"",""1"",""8955""
","""event"",""trial"",""time""
""fullscreenexit"",""50"",""366637""
",,483.6,run_exp/static/images/task_images/land.jpg,65,,,,,,,6,,,2,,,,,,,,47621,1,1,FALSE,,,
dig,86,713593,0.0-30.0-0.0,"""event"",""trial"",""time""
""fullscreenenter"",""1"",""8955""
""fullscreenexit"",""50"",""366637""
""blur"",""50"",""368587""
""focus"",""50"",""590936""
","""event"",""trial"",""time""
""blur"",""50"",""368587""
","""event"",""trial"",""time""
""focus"",""50"",""590936""
","""event"",""trial"",""time""
""fullscreenenter"",""1"",""8955""
","""event"",""trial"",""time""
""fullscreenexit"",""50"",""366637""
",,,,,,,,,,,,"[{""stimulus"":""run_exp/static/images/task_images/dig.jpg"",""time"":0.19999998807907104},{""stimulus"":""run_exp/static/images/task_images/land.jpg"",""time"":840.5999999642372},{""stimulus"":""run_exp/static/images/task_images/dig.jpg"",""time"":1681.5}]",[],2,,,,,,,,,,,,,,
harvest,87,714600,0.0-30.0-1.0,"""event"",""trial"",""time""
""fullscreenenter"",""1"",""8955""
""fullscreenexit"",""50"",""366637""
""blur"",""50"",""368587""
""focus"",""50"",""590936""
","""event"",""trial"",""time""
""blur"",""50"",""368587""
","""event"",""trial"",""time""
""focus"",""50"",""590936""
","""event"",""trial"",""time""
""fullscreenenter"",""1"",""8955""
","""event"",""trial"",""time""
""fullscreenexit"",""50"",""366637""
",,null,run_exp/static/images/task_images/gems/6.jpg,null,,,,,,,2,,,2,,,,,6,0.288725744,0.333333333,,,,,,,
decision,88,714963,0.0-30.0-2.0,"""event"",""trial"",""time""
""fullscreenenter"",""1"",""8955""
""fullscreenexit"",""50"",""366637""
""blur"",""50"",""368587""
""focus"",""50"",""590936""
","""event"",""trial"",""time""
""blur"",""50"",""368587""
","""event"",""trial"",""time""
""focus"",""50"",""590936""
","""event"",""trial"",""time""
""fullscreenenter"",""1"",""8955""
","""event"",""trial"",""time""
""fullscreenexit"",""50"",""366637""
",,362.2,run_exp/static/images/task_images/land.jpg,65,,,,,,,2,,,2,,,,,,,,51514,1,2,FALSE,,,
dig,89,717609,0.0-31.0-0.0,"""event"",""trial"",""time""
""fullscreenenter"",""1"",""8955""
""fullscreenexit"",""50"",""366637""
""blur"",""50"",""368587""
""focus"",""50"",""590936""
","""event"",""trial"",""time""
""blur"",""50"",""368587""
","""event"",""trial"",""time""
""focus"",""50"",""590936""
","""event"",""trial"",""time""
""fullscreenenter"",""1"",""8955""
","""event"",""trial"",""time""
""fullscreenexit"",""50"",""366637""
",,,,,,,,,,,,"[{""stimulus"":""run_exp/static/images/task_images/dig.jpg"",""time"":0.09999996423721313},{""stimulus"":""run_exp/static/images/task_images/land.jpg"",""time"":884.3999999761581},{""stimulus"":""run_exp/static/images/task_images/dig.jpg"",""time"":1764.5999999642372}]",[],2,,,,,,,,,,,,,,
harvest,90,718616,0.0-31.0-1.0,"""event"",""trial"",""time""
""fullscreenenter"",""1"",""8955""
""fullscreenexit"",""50"",""366637""
""blur"",""50"",""368587""
""focus"",""50"",""590936""
","""event"",""trial"",""time""
""blur"",""50"",""368587""
","""event"",""trial"",""time""
""focus"",""50"",""590936""
","""event"",""trial"",""time""
""fullscreenenter"",""1"",""8955""
","""event"",""trial"",""time""
""fullscreenexit"",""50"",""366637""
",,null,run_exp/static/images/task_images/gems/2.jpg,null,,,,,,,0,,,2,,,,,2,0.14473848,0,,,,,,,
decision,91,719136,0.0-31.0-2.0,"""event"",""trial"",""time""
""fullscreenenter"",""1"",""8955""
""fullscreenexit"",""50"",""366637""
""blur"",""50"",""368587""
""focus"",""50"",""590936""
","""event"",""trial"",""time""
""blur"",""50"",""368587""
","""event"",""trial"",""time""
""focus"",""50"",""590936""
","""event"",""trial"",""time""
""fullscreenenter"",""1"",""8955""
","""event"",""trial"",""time""
""fullscreenexit"",""50"",""366637""
",,518.7,run_exp/static/images/task_images/land.jpg,65,,,,,,,0,,,2,,,,,,,,55687,1,3,FALSE,,,
dig,92,721625,0.0-32.0-0.0,"""event"",""trial"",""time""
""fullscreenenter"",""1"",""8955""
""fullscreenexit"",""50"",""366637""
""blur"",""50"",""368587""
""focus"",""50"",""590936""
","""event"",""trial"",""time""
""blur"",""50"",""368587""
","""event"",""trial"",""time""
""focus"",""50"",""590936""
","""event"",""trial"",""time""
""fullscreenenter"",""1"",""8955""
","""event"",""trial"",""time""
""fullscreenexit"",""50"",""366637""
",,,,,,,,,,,,"[{""stimulus"":""run_exp/static/images/task_images/dig.jpg"",""time"":0.10000002384185791},{""stimulus"":""run_exp/static/images/task_images/land.jpg"",""time"":831.6000000238419},{""stimulus"":""run_exp/static/images/task_images/dig.jpg"",""time"":1662.8999999761581}]",[],2,,,,,,,,,,,,,,
harvest,93,722632,0.0-32.0-1.0,"""event"",""trial"",""time""
""fullscreenenter"",""1"",""8955""
""fullscreenexit"",""50"",""366637""
""blur"",""50"",""368587""
""focus"",""50"",""590936""
","""event"",""trial"",""time""
""blur"",""50"",""368587""
","""event"",""trial"",""time""
""focus"",""50"",""590936""
","""event"",""trial"",""time""
""fullscreenenter"",""1"",""8955""
","""event"",""trial"",""time""
""fullscreenexit"",""50"",""366637""
",,null,run_exp/static/images/task_images/gems/0.jpg,null,,,,,,,0,,,2,,,,,0,0.155027744,NaN,,,,,,,
decision,94,722769,0.0-32.0-2.0,"""event"",""trial"",""time""
""fullscreenenter"",""1"",""8955""
""fullscreenexit"",""50"",""366637""
""blur"",""50"",""368587""
""focus"",""50"",""590936""
","""event"",""trial"",""time""
""blur"",""50"",""368587""
","""event"",""trial"",""time""
""focus"",""50"",""590936""
","""event"",""trial"",""time""
""fullscreenenter"",""1"",""8955""
","""event"",""trial"",""time""
""fullscreenexit"",""50"",""366637""
",,135.9,run_exp/static/images/task_images/land.jpg,65,,,,,,,0,,,2,,,,,,,,59320,1,4,FALSE,,,
dig,95,725640,0.0-33.0-0.0,"""event"",""trial"",""time""
""fullscreenenter"",""1"",""8955""
""fullscreenexit"",""50"",""366637""
""blur"",""50"",""368587""
""focus"",""50"",""590936""
","""event"",""trial"",""time""
""blur"",""50"",""368587""
","""event"",""trial"",""time""
""focus"",""50"",""590936""
","""event"",""trial"",""time""
""fullscreenenter"",""1"",""8955""
","""event"",""trial"",""time""
""fullscreenexit"",""50"",""366637""
",,,,,,,,,,,,"[{""stimulus"":""run_exp/static/images/task_images/dig.jpg"",""time"":0},{""stimulus"":""run_exp/static/images/task_images/land.jpg"",""time"":957.5999999642372},{""stimulus"":""run_exp/static/images/task_images/dig.jpg"",""time"":1909.8999999761581}]",[],2,,,,,,,,,,,,,,
harvest,96,726647,0.0-33.0-1.0,"""event"",""trial"",""time""
""fullscreenenter"",""1"",""8955""
""fullscreenexit"",""50"",""366637""
""blur"",""50"",""368587""
""focus"",""50"",""590936""
","""event"",""trial"",""time""
""blur"",""50"",""368587""
","""event"",""trial"",""time""
""focus"",""50"",""590936""
","""event"",""trial"",""time""
""fullscreenenter"",""1"",""8955""
","""event"",""trial"",""time""
""fullscreenexit"",""50"",""366637""
",,null,run_exp/static/images/task_images/gems/0.jpg,null,,,,,,,0,,,2,,,,,0,0.188073963,NaN,,,,,,,
decision,97,727180,0.0-33.0-2.0,"""event"",""trial"",""time""
""fullscreenenter"",""1"",""8955""
""fullscreenexit"",""50"",""366637""
""blur"",""50"",""368587""
""focus"",""50"",""590936""
","""event"",""trial"",""time""
""blur"",""50"",""368587""
","""event"",""trial"",""time""
""focus"",""50"",""590936""
","""event"",""trial"",""time""
""fullscreenenter"",""1"",""8955""
","""event"",""trial"",""time""
""fullscreenexit"",""50"",""366637""
",,531.2,run_exp/static/images/task_images/land.jpg,76,,,,,,,0,,,2,,,,,,,,63731,1,5,TRUE,,,
travel,98,736656,0.0-34.0-0.0,"""event"",""trial"",""time""
""fullscreenenter"",""1"",""8955""
""fullscreenexit"",""50"",""366637""
""blur"",""50"",""368587""
""focus"",""50"",""590936""
","""event"",""trial"",""time""
""blur"",""50"",""368587""
","""event"",""trial"",""time""
""focus"",""50"",""590936""
","""event"",""trial"",""time""
""fullscreenenter"",""1"",""8955""
","""event"",""trial"",""time""
""fullscreenexit"",""50"",""366637""
",,,,,,,,,,,,"[{""stimulus"":""run_exp/static/images/task_images/rocket-01.jpg"",""time"":0.09999996423721313},{""stimulus"":""run_exp/static/images/task_images/rocket-02.jpg"",""time"":1059.5},{""stimulus"":""run_exp/static/images/task_images/rocket-03.jpg"",""time"":2107.099999964237},{""stimulus"":""run_exp/static/images/task_images/rocket-04.jpg"",""time"":3162.800000011921},{""stimulus"":""run_exp/static/images/task_images/rocket-05.jpg"",""time"":4211.199999988079},{""stimulus"":""run_exp/static/images/task_images/rocket-06.jpg"",""time"":5267.300000011921},{""stimulus"":""run_exp/static/images/task_images/rocket-07.jpg"",""time"":6314.899999976158},{""stimulus"":""run_exp/static/images/task_images/rocket-08.jpg"",""time"":7371.199999988079},{""stimulus"":""run_exp/static/images/task_images/rocket-09.jpg"",""time"":8419.199999988079}]",[],2,,,,,,,,,,,,,,
alien_welcome,99,741663,0.0-34.0-1.0,"""event"",""trial"",""time""
""fullscreenenter"",""1"",""8955""
""fullscreenexit"",""50"",""366637""
""blur"",""50"",""368587""
""focus"",""50"",""590936""
","""event"",""trial"",""time""
""blur"",""50"",""368587""
","""event"",""trial"",""time""
""focus"",""50"",""590936""
","""event"",""trial"",""time""
""fullscreenenter"",""1"",""8955""
","""event"",""trial"",""time""
""fullscreenexit"",""50"",""366637""
",,null,run_exp/static/images/task_images/aliens/old_aliens/planet/alien_planet-21.jpg,null,,,,,,,,,,,,,21,"47,65,21,43,3,67,53,75,39,18,76,4,34,22,54,48,73,52,32,46,49,72",,,,,,,,,,
land,100,742168,0.0-34.0-2.0,"""event"",""trial"",""time""
""fullscreenenter"",""1"",""8955""
""fullscreenexit"",""50"",""366637""
""blur"",""50"",""368587""
""focus"",""50"",""590936""
","""event"",""trial"",""time""
""blur"",""50"",""368587""
","""event"",""trial"",""time""
""focus"",""50"",""590936""
","""event"",""trial"",""time""
""fullscreenenter"",""1"",""8955""
","""event"",""trial"",""time""
""fullscreenexit"",""50"",""366637""
",,null,run_exp/static/images/task_images/land.jpg,null,,,,,,,95,,,3,,,,,,,,,,,,,,
dig,101,744175,0.0-34.0-3.0,"""event"",""trial"",""time""
""fullscreenenter"",""1"",""8955""
""fullscreenexit"",""50"",""366637""
""blur"",""50"",""368587""
""focus"",""50"",""590936""
","""event"",""trial"",""time""
""blur"",""50"",""368587""
","""event"",""trial"",""time""
""focus"",""50"",""590936""
","""event"",""trial"",""time""
""fullscreenenter"",""1"",""8955""
","""event"",""trial"",""time""
""fullscreenexit"",""50"",""366637""
",,,,,,,,,,,,"[{""stimulus"":""run_exp/static/images/task_images/dig.jpg"",""time"":0.30000001192092896},{""stimulus"":""run_exp/static/images/task_images/land.jpg"",""time"":670.1000000238419},{""stimulus"":""run_exp/static/images/task_images/dig.jpg"",""time"":1342.8999999761581}]",[],3,,,,,,,,,,,,,,
harvest,102,745184,0.0-34.0-4.0,"""event"",""trial"",""time""
""fullscreenenter"",""1"",""8955""
""fullscreenexit"",""50"",""366637""
""blur"",""50"",""368587""
""focus"",""50"",""590936""
","""event"",""trial"",""time""
""blur"",""50"",""368587""
","""event"",""trial"",""time""
""focus"",""50"",""590936""
","""event"",""trial"",""time""
""fullscreenenter"",""1"",""8955""
","""event"",""trial"",""time""
""fullscreenexit"",""50"",""366637""
",,null,run_exp/static/images/task_images/gems/95.jpg,null,,,,,,,52,,,3,,,,,95,0.542414012,0.547368421,,,,,,,
decision,103,745718,0.0-34.0-5.0,"""event"",""trial"",""time""
""fullscreenenter"",""1"",""8955""
""fullscreenexit"",""50"",""366637""
""blur"",""50"",""368587""
""focus"",""50"",""590936""
","""event"",""trial"",""time""
""blur"",""50"",""368587""
","""event"",""trial"",""time""
""focus"",""50"",""590936""
","""event"",""trial"",""time""
""fullscreenenter"",""1"",""8955""
","""event"",""trial"",""time""
""fullscreenexit"",""50"",""366637""
",,534.1,run_exp/static/images/task_images/land.jpg,65,,,,,,,52,,,3,,,,,,,,82269,1,0,FALSE,,,
dig,104,748192,0.0-35.0-0.0,"""event"",""trial"",""time""
""fullscreenenter"",""1"",""8955""
""fullscreenexit"",""50"",""366637""
""blur"",""50"",""368587""
""focus"",""50"",""590936""
","""event"",""trial"",""time""
""blur"",""50"",""368587""
","""event"",""trial"",""time""
""focus"",""50"",""590936""
","""event"",""trial"",""time""
""fullscreenenter"",""1"",""8955""
","""event"",""trial"",""time""
""fullscreenexit"",""50"",""366637""
",,,,,,,,,,,,"[{""stimulus"":""run_exp/static/images/task_images/dig.jpg"",""time"":0.10000002384185791},{""stimulus"":""run_exp/static/images/task_images/land.jpg"",""time"":824.8000000119209},{""stimulus"":""run_exp/static/images/task_images/dig.jpg"",""time"":1648.5}]",[],3,,,,,,,,,,,,,,
harvest,105,749200,0.0-35.0-1.0,"""event"",""trial"",""time""
""fullscreenenter"",""1"",""8955""
""fullscreenexit"",""50"",""366637""
""blur"",""50"",""368587""
""focus"",""50"",""590936""
","""event"",""trial"",""time""
""blur"",""50"",""368587""
","""event"",""trial"",""time""
""focus"",""50"",""590936""
","""event"",""trial"",""time""
""fullscreenenter"",""1"",""8955""
","""event"",""trial"",""time""
""fullscreenexit"",""50"",""366637""
",,null,run_exp/static/images/task_images/gems/52.jpg,null,,,,,,,26,,,3,,,,,52,0.49274347,0.5,,,,,,,
decision,106,749623,0.0-35.0-2.0,"""event"",""trial"",""time""
""fullscreenenter"",""1"",""8955""
""fullscreenexit"",""50"",""366637""
""blur"",""50"",""368587""
""focus"",""50"",""590936""
","""event"",""trial"",""time""
""blur"",""50"",""368587""
","""event"",""trial"",""time""
""focus"",""50"",""590936""
","""event"",""trial"",""time""
""fullscreenenter"",""1"",""8955""
","""event"",""trial"",""time""
""fullscreenexit"",""50"",""366637""
",,421.7,run_exp/static/images/task_images/land.jpg,65,,,,,,,26,,,3,,,,,,,,86174,1,1,FALSE,,,
dig,107,752208,0.0-36.0-0.0,"""event"",""trial"",""time""
""fullscreenenter"",""1"",""8955""
""fullscreenexit"",""50"",""366637""
""blur"",""50"",""368587""
""focus"",""50"",""590936""
","""event"",""trial"",""time""
""blur"",""50"",""368587""
","""event"",""trial"",""time""
""focus"",""50"",""590936""
","""event"",""trial"",""time""
""fullscreenenter"",""1"",""8955""
","""event"",""trial"",""time""
""fullscreenexit"",""50"",""366637""
",,,,,,,,,,,,"[{""stimulus"":""run_exp/static/images/task_images/dig.jpg"",""time"":0.10000002384185791},{""stimulus"":""run_exp/static/images/task_images/land.jpg"",""time"":863.6000000238419},{""stimulus"":""run_exp/static/images/task_images/dig.jpg"",""time"":1727.8999999761581}]",[],3,,,,,,,,,,,,,,
harvest,108,753215,0.0-36.0-1.0,"""event"",""trial"",""time""
""fullscreenenter"",""1"",""8955""
""fullscreenexit"",""50"",""366637""
""blur"",""50"",""368587""
""focus"",""50"",""590936""
","""event"",""trial"",""time""
""blur"",""50"",""368587""
","""event"",""trial"",""time""
""focus"",""50"",""590936""
","""event"",""trial"",""time""
""fullscreenenter"",""1"",""8955""
","""event"",""trial"",""time""
""fullscreenexit"",""50"",""366637""
",,null,run_exp/static/images/task_images/gems/26.jpg,null,,,,,,,14,,,3,,,,,26,0.529821059,0.538461538,,,,,,,
decision,109,753538,0.0-36.0-2.0,"""event"",""trial"",""time""
""fullscreenenter"",""1"",""8955""
""fullscreenexit"",""50"",""366637""
""blur"",""50"",""368587""
""focus"",""50"",""590936""
","""event"",""trial"",""time""
""blur"",""50"",""368587""
","""event"",""trial"",""time""
""focus"",""50"",""590936""
","""event"",""trial"",""time""
""fullscreenenter"",""1"",""8955""
","""event"",""trial"",""time""
""fullscreenexit"",""50"",""366637""
",,322.1,run_exp/static/images/task_images/land.jpg,65,,,,,,,14,,,3,,,,,,,,90089,1,2,FALSE,,,
dig,110,756223,0.0-37.0-0.0,"""event"",""trial"",""time""
""fullscreenenter"",""1"",""8955""
""fullscreenexit"",""50"",""366637""
""blur"",""50"",""368587""
""focus"",""50"",""590936""
","""event"",""trial"",""time""
""blur"",""50"",""368587""
","""event"",""trial"",""time""
""focus"",""50"",""590936""
","""event"",""trial"",""time""
""fullscreenenter"",""1"",""8955""
","""event"",""trial"",""time""
""fullscreenexit"",""50"",""366637""
",,,,,,,,,,,,"[{""stimulus"":""run_exp/static/images/task_images/dig.jpg"",""time"":0.10000002384185791},{""stimulus"":""run_exp/static/images/task_images/land.jpg"",""time"":899.5},{""stimulus"":""run_exp/static/images/task_images/dig.jpg"",""time"":1788.300000011921}]",[],3,,,,,,,,,,,,,,
harvest,111,757232,0.0-37.0-1.0,"""event"",""trial"",""time""
""fullscreenenter"",""1"",""8955""
""fullscreenexit"",""50"",""366637""
""blur"",""50"",""368587""
""focus"",""50"",""590936""
","""event"",""trial"",""time""
""blur"",""50"",""368587""
","""event"",""trial"",""time""
""focus"",""50"",""590936""
","""event"",""trial"",""time""
""fullscreenenter"",""1"",""8955""
","""event"",""trial"",""time""
""fullscreenexit"",""50"",""366637""
",,null,run_exp/static/images/task_images/gems/14.jpg,null,,,,,,,7,,,3,,,,,14,0.509928183,0.5,,,,,,,
decision,112,757519,0.0-37.0-2.0,"""event"",""trial"",""time""
""fullscreenenter"",""1"",""8955""
""fullscreenexit"",""50"",""366637""
""blur"",""50"",""368587""
""focus"",""50"",""590936""
","""event"",""trial"",""time""
""blur"",""50"",""368587""
","""event"",""trial"",""time""
""focus"",""50"",""590936""
","""event"",""trial"",""time""
""fullscreenenter"",""1"",""8955""
","""event"",""trial"",""time""
""fullscreenexit"",""50"",""366637""
",,286.7,run_exp/static/images/task_images/land.jpg,65,,,,,,,7,,,3,,,,,,,,94071,1,3,FALSE,,,
dig,113,760239,0.0-38.0-0.0,"""event"",""trial"",""time""
""fullscreenenter"",""1"",""8955""
""fullscreenexit"",""50"",""366637""
""blur"",""50"",""368587""
""focus"",""50"",""590936""
","""event"",""trial"",""time""
""blur"",""50"",""368587""
","""event"",""trial"",""time""
""focus"",""50"",""590936""
","""event"",""trial"",""time""
""fullscreenenter"",""1"",""8955""
","""event"",""trial"",""time""
""fullscreenexit"",""50"",""366637""
",,,,,,,,,,,,"[{""stimulus"":""run_exp/static/images/task_images/dig.jpg"",""time"":0.10000002384185791},{""stimulus"":""run_exp/static/images/task_images/land.jpg"",""time"":911},{""stimulus"":""run_exp/static/images/task_images/dig.jpg"",""time"":1814.5}]",[],3,,,,,,,,,,,,,,
harvest,114,761247,0.0-38.0-1.0,"""event"",""trial"",""time""
""fullscreenenter"",""1"",""8955""
""fullscreenexit"",""50"",""366637""
""blur"",""50"",""368587""
""focus"",""50"",""590936""
","""event"",""trial"",""time""
""blur"",""50"",""368587""
","""event"",""trial"",""time""
""focus"",""50"",""590936""
","""event"",""trial"",""time""
""fullscreenenter"",""1"",""8955""
","""event"",""trial"",""time""
""fullscreenexit"",""50"",""366637""
",,null,run_exp/static/images/task_images/gems/7.jpg,null,,,,,,,3,,,3,,,,,7,0.404521793,0.428571429,,,,,,,
decision,115,761615,0.0-38.0-2.0,"""event"",""trial"",""time""
""fullscreenenter"",""1"",""8955""
""fullscreenexit"",""50"",""366637""
""blur"",""50"",""368587""
""focus"",""50"",""590936""
","""event"",""trial"",""time""
""blur"",""50"",""368587""
","""event"",""trial"",""time""
""focus"",""50"",""590936""
","""event"",""trial"",""time""
""fullscreenenter"",""1"",""8955""
","""event"",""trial"",""time""
""fullscreenexit"",""50"",""366637""
",,367.7,run_exp/static/images/task_images/land.jpg,65,,,,,,,3,,,3,,,,,,,,98166,1,4,FALSE,,,
dig,116,764255,0.0-39.0-0.0,"""event"",""trial"",""time""
""fullscreenenter"",""1"",""8955""
""fullscreenexit"",""50"",""366637""
""blur"",""50"",""368587""
""focus"",""50"",""590936""
","""event"",""trial"",""time""
""blur"",""50"",""368587""
","""event"",""trial"",""time""
""focus"",""50"",""590936""
","""event"",""trial"",""time""
""fullscreenenter"",""1"",""8955""
","""event"",""trial"",""time""
""fullscreenexit"",""50"",""366637""
",,,,,,,,,,,,"[{""stimulus"":""run_exp/static/images/task_images/dig.jpg"",""time"":0.10000002384185791},{""stimulus"":""run_exp/static/images/task_images/land.jpg"",""time"":886.2000000476837},{""stimulus"":""run_exp/static/images/task_images/dig.jpg"",""time"":1758.4000000357628}]",[],3,,,,,,,,,,,,,,
harvest,117,765263,0.0-39.0-1.0,"""event"",""trial"",""time""
""fullscreenenter"",""1"",""8955""
""fullscreenexit"",""50"",""366637""
""blur"",""50"",""368587""
""focus"",""50"",""590936""
","""event"",""trial"",""time""
""blur"",""50"",""368587""
","""event"",""trial"",""time""
""focus"",""50"",""590936""
","""event"",""trial"",""time""
""fullscreenenter"",""1"",""8955""
","""event"",""trial"",""time""
""fullscreenexit"",""50"",""366637""
",,null,run_exp/static/images/task_images/gems/3.jpg,null,,,,,,,2,,,3,,,,,3,0.506456845,0.666666667,,,,,,,
decision,118,765586,0.0-39.0-2.0,"""event"",""trial"",""time""
""fullscreenenter"",""1"",""8955""
""fullscreenexit"",""50"",""366637""
""blur"",""50"",""368587""
""focus"",""50"",""590936""
","""event"",""trial"",""time""
""blur"",""50"",""368587""
","""event"",""trial"",""time""
""focus"",""50"",""590936""
","""event"",""trial"",""time""
""fullscreenenter"",""1"",""8955""
","""event"",""trial"",""time""
""fullscreenexit"",""50"",""366637""
",,321.9,run_exp/static/images/task_images/land.jpg,65,,,,,,,2,,,3,,,,,,,,102137,1,5,FALSE,,,
dig,119,768271,0.0-40.0-0.0,"""event"",""trial"",""time""
""fullscreenenter"",""1"",""8955""
""fullscreenexit"",""50"",""366637""
""blur"",""50"",""368587""
""focus"",""50"",""590936""
","""event"",""trial"",""time""
""blur"",""50"",""368587""
","""event"",""trial"",""time""
""focus"",""50"",""590936""
","""event"",""trial"",""time""
""fullscreenenter"",""1"",""8955""
","""event"",""trial"",""time""
""fullscreenexit"",""50"",""366637""
",,,,,,,,,,,,"[{""stimulus"":""run_exp/static/images/task_images/dig.jpg"",""time"":0},{""stimulus"":""run_exp/static/images/task_images/land.jpg"",""time"":899.8999999761581},{""stimulus"":""run_exp/static/images/task_images/dig.jpg"",""time"":1787.3999999761581}]",[],3,,,,,,,,,,,,,,
harvest,120,769279,0.0-40.0-1.0,"""event"",""trial"",""time""
""fullscreenenter"",""1"",""8955""
""fullscreenexit"",""50"",""366637""
""blur"",""50"",""368587""
""focus"",""50"",""590936""
","""event"",""trial"",""time""
""blur"",""50"",""368587""
","""event"",""trial"",""time""
""focus"",""50"",""590936""
","""event"",""trial"",""time""
""fullscreenenter"",""1"",""8955""
","""event"",""trial"",""time""
""fullscreenexit"",""50"",""366637""
",,null,run_exp/static/images/task_images/gems/2.jpg,null,,,,,,,1,,,3,,,,,2,0.558428835,0.5,,,,,,,
decision,121,769466,0.0-40.0-2.0,"""event"",""trial"",""time""
""fullscreenenter"",""1"",""8955""
""fullscreenexit"",""50"",""366637""
""blur"",""50"",""368587""
""focus"",""50"",""590936""
","""event"",""trial"",""time""
""blur"",""50"",""368587""
","""event"",""trial"",""time""
""focus"",""50"",""590936""
","""event"",""trial"",""time""
""fullscreenenter"",""1"",""8955""
","""event"",""trial"",""time""
""fullscreenexit"",""50"",""366637""
",,186.4,run_exp/static/images/task_images/land.jpg,65,,,,,,,1,,,3,,,,,,,,106017,1,6,FALSE,,,
dig,122,772287,0.0-41.0-0.0,"""event"",""trial"",""time""
""fullscreenenter"",""1"",""8955""
""fullscreenexit"",""50"",""366637""
""blur"",""50"",""368587""
""focus"",""50"",""590936""
","""event"",""trial"",""time""
""blur"",""50"",""368587""
","""event"",""trial"",""time""
""focus"",""50"",""590936""
","""event"",""trial"",""time""
""fullscreenenter"",""1"",""8955""
","""event"",""trial"",""time""
""fullscreenexit"",""50"",""366637""
",,,,,,,,,,,,"[{""stimulus"":""run_exp/static/images/task_images/dig.jpg"",""time"":0.09999996423721313},{""stimulus"":""run_exp/static/images/task_images/land.jpg"",""time"":938.3000000119209},{""stimulus"":""run_exp/static/images/task_images/dig.jpg"",""time"":1883.300000011921}]",[],3,,,,,,,,,,,,,,
harvest,123,773295,0.0-41.0-1.0,"""event"",""trial"",""time""
""fullscreenenter"",""1"",""8955""
""fullscreenexit"",""50"",""366637""
""blur"",""50"",""368587""
""focus"",""50"",""590936""
","""event"",""trial"",""time""
""blur"",""50"",""368587""
","""event"",""trial"",""time""
""focus"",""50"",""590936""
","""event"",""trial"",""time""
""fullscreenenter"",""1"",""8955""
","""event"",""trial"",""time""
""fullscreenexit"",""50"",""366637""
",,null,run_exp/static/images/task_images/gems/1.jpg,null,,,,,,,1,,,3,,,,,1,0.566003407,1,,,,,,,
decision,124,774552,0.0-41.0-2.0,"""event"",""trial"",""time""
""fullscreenenter"",""1"",""8955""
""fullscreenexit"",""50"",""366637""
""blur"",""50"",""368587""
""focus"",""50"",""590936""
","""event"",""trial"",""time""
""blur"",""50"",""368587""
","""event"",""trial"",""time""
""focus"",""50"",""590936""
","""event"",""trial"",""time""
""fullscreenenter"",""1"",""8955""
","""event"",""trial"",""time""
""fullscreenexit"",""50"",""366637""
",,1256,run_exp/static/images/task_images/land.jpg,76,,,,,,,1,,,3,,,,,,,,111103,1,7,TRUE,,,
travel,125,783294,0.0-42.0-0.0,"""event"",""trial"",""time""
""fullscreenenter"",""1"",""8955""
""fullscreenexit"",""50"",""366637""
""blur"",""50"",""368587""
""focus"",""50"",""590936""
","""event"",""trial"",""time""
""blur"",""50"",""368587""
","""event"",""trial"",""time""
""focus"",""50"",""590936""
","""event"",""trial"",""time""
""fullscreenenter"",""1"",""8955""
","""event"",""trial"",""time""
""fullscreenexit"",""50"",""366637""
",,,,,,,,,,,,"[{""stimulus"":""run_exp/static/images/task_images/rocket-01.jpg"",""time"":0},{""stimulus"":""run_exp/static/images/task_images/rocket-02.jpg"",""time"":973.8999999761581},{""stimulus"":""run_exp/static/images/task_images/rocket-03.jpg"",""time"":1949.699999988079},{""stimulus"":""run_exp/static/images/task_images/rocket-04.jpg"",""time"":2917.800000011921},{""stimulus"":""run_exp/static/images/task_images/rocket-05.jpg"",""time"":3885.699999988079},{""stimulus"":""run_exp/static/images/task_images/rocket-06.jpg"",""time"":4861.899999976158},{""stimulus"":""run_exp/static/images/task_images/rocket-07.jpg"",""time"":5830.399999976158},{""stimulus"":""run_exp/static/images/task_images/rocket-08.jpg"",""time"":6805.099999964237},{""stimulus"":""run_exp/static/images/task_images/rocket-09.jpg"",""time"":7773.899999976158}]",[],3,,,,,,,,,,,,,,
alien_welcome,126,788303,0.0-42.0-1.0,"""event"",""trial"",""time""
""fullscreenenter"",""1"",""8955""
""fullscreenexit"",""50"",""366637""
""blur"",""50"",""368587""
""focus"",""50"",""590936""
","""event"",""trial"",""time""
""blur"",""50"",""368587""
","""event"",""trial"",""time""
""focus"",""50"",""590936""
","""event"",""trial"",""time""
""fullscreenenter"",""1"",""8955""
","""event"",""trial"",""time""
""fullscreenexit"",""50"",""366637""
",,null,run_exp/static/images/task_images/aliens/old_aliens/planet/alien_planet-43.jpg,null,,,,,,,,,,,,,43,"47,65,21,43,3,67,53,75,39,18,76,4,34,22,54,48,73,52,32,46,49,72",,,,,,,,,,
land,127,788807,0.0-42.0-2.0,"""event"",""trial"",""time""
""fullscreenenter"",""1"",""8955""
""fullscreenexit"",""50"",""366637""
""blur"",""50"",""368587""
""focus"",""50"",""590936""
","""event"",""trial"",""time""
""blur"",""50"",""368587""
","""event"",""trial"",""time""
""focus"",""50"",""590936""
","""event"",""trial"",""time""
""fullscreenenter"",""1"",""8955""
","""event"",""trial"",""time""
""fullscreenexit"",""50"",""366637""
",,null,run_exp/static/images/task_images/land.jpg,null,,,,,,,103,,,4,,,,,,,,,,,,,,
dig,128,790814,0.0-42.0-3.0,"""event"",""trial"",""time""
""fullscreenenter"",""1"",""8955""
""fullscreenexit"",""50"",""366637""
""blur"",""50"",""368587""
""focus"",""50"",""590936""
","""event"",""trial"",""time""
""blur"",""50"",""368587""
","""event"",""trial"",""time""
""focus"",""50"",""590936""
","""event"",""trial"",""time""
""fullscreenenter"",""1"",""8955""
","""event"",""trial"",""time""
""fullscreenexit"",""50"",""366637""
",,,,,,,,,,,,"[{""stimulus"":""run_exp/static/images/task_images/dig.jpg"",""time"":0.19999998807907104},{""stimulus"":""run_exp/static/images/task_images/land.jpg"",""time"":670.5},{""stimulus"":""run_exp/static/images/task_images/dig.jpg"",""time"":1342.699999988079}]",[],4,,,,,,,,,,,,,,
harvest,129,791823,0.0-42.0-4.0,"""event"",""trial"",""time""
""fullscreenenter"",""1"",""8955""
""fullscreenexit"",""50"",""366637""
""blur"",""50"",""368587""
""focus"",""50"",""590936""
","""event"",""trial"",""time""
""blur"",""50"",""368587""
","""event"",""trial"",""time""
""focus"",""50"",""590936""
","""event"",""trial"",""time""
""fullscreenenter"",""1"",""8955""
","""event"",""trial"",""time""
""fullscreenexit"",""50"",""366637""
",,null,run_exp/static/images/task_images/gems/103.jpg,null,,,,,,,54,,,4,,,,,103,0.52248587,0.524271845,,,,,,,
decision,130,792168,0.0-42.0-5.0,"""event"",""trial"",""time""
""fullscreenenter"",""1"",""8955""
""fullscreenexit"",""50"",""366637""
""blur"",""50"",""368587""
""focus"",""50"",""590936""
","""event"",""trial"",""time""
""blur"",""50"",""368587""
","""event"",""trial"",""time""
""focus"",""50"",""590936""
","""event"",""trial"",""time""
""fullscreenenter"",""1"",""8955""
","""event"",""trial"",""time""
""fullscreenexit"",""50"",""366637""
",,344.3,run_exp/static/images/task_images/land.jpg,65,,,,,,,54,,,4,,,,,,,,128719,1,0,FALSE,,,
dig,131,794830,0.0-43.0-0.0,"""event"",""trial"",""time""
""fullscreenenter"",""1"",""8955""
""fullscreenexit"",""50"",""366637""
""blur"",""50"",""368587""
""focus"",""50"",""590936""
","""event"",""trial"",""time""
""blur"",""50"",""368587""
","""event"",""trial"",""time""
""focus"",""50"",""590936""
","""event"",""trial"",""time""
""fullscreenenter"",""1"",""8955""
","""event"",""trial"",""time""
""fullscreenexit"",""50"",""366637""
",,,,,,,,,,,,"[{""stimulus"":""run_exp/static/images/task_images/dig.jpg"",""time"":0.10000002384185791},{""stimulus"":""run_exp/static/images/task_images/land.jpg"",""time"":891.6000000238419},{""stimulus"":""run_exp/static/images/task_images/dig.jpg"",""time"":1772.7000000476837}]",[],4,,,,,,,,,,,,,,
harvest,132,795838,0.0-43.0-1.0,"""event"",""trial"",""time""
""fullscreenenter"",""1"",""8955""
""fullscreenexit"",""50"",""366637""
""blur"",""50"",""368587""
""focus"",""50"",""590936""
","""event"",""trial"",""time""
""blur"",""50"",""368587""
","""event"",""trial"",""time""
""focus"",""50"",""590936""
","""event"",""trial"",""time""
""fullscreenenter"",""1"",""8955""
","""event"",""trial"",""time""
""fullscreenexit"",""50"",""366637""
",,null,run_exp/static/images/task_images/gems/54.jpg,null,,,,,,,29,,,4,,,,,54,0.539901496,0.537037037,,,,,,,
decision,133,796173,0.0-43.0-2.0,"""event"",""trial"",""time""
""fullscreenenter"",""1"",""8955""
""fullscreenexit"",""50"",""366637""
""blur"",""50"",""368587""
""focus"",""50"",""590936""
","""event"",""trial"",""time""
""blur"",""50"",""368587""
","""event"",""trial"",""time""
""focus"",""50"",""590936""
","""event"",""trial"",""time""
""fullscreenenter"",""1"",""8955""
","""event"",""trial"",""time""
""fullscreenexit"",""50"",""366637""
",,334.2,run_exp/static/images/task_images/land.jpg,65,,,,,,,29,,,4,,,,,,,,132724,1,1,FALSE,,,
dig,134,798847,0.0-44.0-0.0,"""event"",""trial"",""time""
""fullscreenenter"",""1"",""8955""
""fullscreenexit"",""50"",""366637""
""blur"",""50"",""368587""
""focus"",""50"",""590936""
","""event"",""trial"",""time""
""blur"",""50"",""368587""
","""event"",""trial"",""time""
""focus"",""50"",""590936""
","""event"",""trial"",""time""
""fullscreenenter"",""1"",""8955""
","""event"",""trial"",""time""
""fullscreenexit"",""50"",""366637""
",,,,,,,,,,,,"[{""stimulus"":""run_exp/static/images/task_images/dig.jpg"",""time"":0.10000002384185791},{""stimulus"":""run_exp/static/images/task_images/land.jpg"",""time"":896},{""stimulus"":""run_exp/static/images/task_images/dig.jpg"",""time"":1783.6000000238419}]",[],4,,,,,,,,,,,,,,
harvest,135,799854,0.0-44.0-1.0,"""event"",""trial"",""time""
""fullscreenenter"",""1"",""8955""
""fullscreenexit"",""50"",""366637""
""blur"",""50"",""368587""
""focus"",""50"",""590936""
","""event"",""trial"",""time""
""blur"",""50"",""368587""
","""event"",""trial"",""time""
""focus"",""50"",""590936""
","""event"",""trial"",""time""
""fullscreenenter"",""1"",""8955""
","""event"",""trial"",""time""
""fullscreenexit"",""50"",""366637""
",,null,run_exp/static/images/task_images/gems/29.jpg,null,,,,,,,11,,,4,,,,,29,0.367141939,0.379310345,,,,,,,
decision,136,800055,0.0-44.0-2.0,"""event"",""trial"",""time""
""fullscreenenter"",""1"",""8955""
""fullscreenexit"",""50"",""366637""
""blur"",""50"",""368587""
""focus"",""50"",""590936""
","""event"",""trial"",""time""
""blur"",""50"",""368587""
","""event"",""trial"",""time""
""focus"",""50"",""590936""
","""event"",""trial"",""time""
""fullscreenenter"",""1"",""8955""
","""event"",""trial"",""time""
""fullscreenexit"",""50"",""366637""
",,199.2,run_exp/static/images/task_images/land.jpg,65,,,,,,,11,,,4,,,,,,,,136606,1,2,FALSE,,,
dig,137,802863,0.0-45.0-0.0,"""event"",""trial"",""time""
""fullscreenenter"",""1"",""8955""
""fullscreenexit"",""50"",""366637""
""blur"",""50"",""368587""
""focus"",""50"",""590936""
","""event"",""trial"",""time""
""blur"",""50"",""368587""
","""event"",""trial"",""time""
""focus"",""50"",""590936""
","""event"",""trial"",""time""
""fullscreenenter"",""1"",""8955""
","""event"",""trial"",""time""
""fullscreenexit"",""50"",""366637""
",,,,,,,,,,,,"[{""stimulus"":""run_exp/static/images/task_images/dig.jpg"",""time"":0.10000002384185791},{""stimulus"":""run_exp/static/images/task_images/land.jpg"",""time"":942.3000000119209},{""stimulus"":""run_exp/static/images/task_images/dig.jpg"",""time"":1870.199999988079}]",[],4,,,,,,,,,,,,,,
harvest,138,803871,0.0-45.0-1.0,"""event"",""trial"",""time""
""fullscreenenter"",""1"",""8955""
""fullscreenexit"",""50"",""366637""
""blur"",""50"",""368587""
""focus"",""50"",""590936""
","""event"",""trial"",""time""
""blur"",""50"",""368587""
","""event"",""trial"",""time""
""focus"",""50"",""590936""
","""event"",""trial"",""time""
""fullscreenenter"",""1"",""8955""
","""event"",""trial"",""time""
""fullscreenexit"",""50"",""366637""
",,null,run_exp/static/images/task_images/gems/11.jpg,null,,,,,,,5,,,4,,,,,11,0.459078225,0.454545455,,,,,,,
decision,139,804013,0.0-45.0-2.0,"""event"",""trial"",""time""
""fullscreenenter"",""1"",""8955""
""fullscreenexit"",""50"",""366637""
""blur"",""50"",""368587""
""focus"",""50"",""590936""
","""event"",""trial"",""time""
""blur"",""50"",""368587""
","""event"",""trial"",""time""
""focus"",""50"",""590936""
","""event"",""trial"",""time""
""fullscreenenter"",""1"",""8955""
","""event"",""trial"",""time""
""fullscreenexit"",""50"",""366637""
",,142,run_exp/static/images/task_images/land.jpg,65,,,,,,,5,,,4,,,,,,,,140565,1,3,FALSE,,,
dig,140,806878,0.0-46.0-0.0,"""event"",""trial"",""time""
""fullscreenenter"",""1"",""8955""
""fullscreenexit"",""50"",""366637""
""blur"",""50"",""368587""
""focus"",""50"",""590936""
","""event"",""trial"",""time""
""blur"",""50"",""368587""
","""event"",""trial"",""time""
""focus"",""50"",""590936""
","""event"",""trial"",""time""
""fullscreenenter"",""1"",""8955""
","""event"",""trial"",""time""
""fullscreenexit"",""50"",""366637""
",,,,,,,,,,,,"[{""stimulus"":""run_exp/static/images/task_images/dig.jpg"",""time"":0.09999996423721313},{""stimulus"":""run_exp/static/images/task_images/land.jpg"",""time"":959.2999999523163},{""stimulus"":""run_exp/static/images/task_images/dig.jpg"",""time"":1911.2999999523163}]",[],4,,,,,,,,,,,,,,
harvest,141,807886,0.0-46.0-1.0,"""event"",""trial"",""time""
""fullscreenenter"",""1"",""8955""
""fullscreenexit"",""50"",""366637""
""blur"",""50"",""368587""
""focus"",""50"",""590936""
","""event"",""trial"",""time""
""blur"",""50"",""368587""
","""event"",""trial"",""time""
""focus"",""50"",""590936""
","""event"",""trial"",""time""
""fullscreenenter"",""1"",""8955""
","""event"",""trial"",""time""
""fullscreenexit"",""50"",""366637""
",,null,run_exp/static/images/task_images/gems/5.jpg,null,,,,,,,3,,,4,,,,,5,0.512941116,0.6,,,,,,,
decision,142,808593,0.0-46.0-2.0,"""event"",""trial"",""time""
""fullscreenenter"",""1"",""8955""
""fullscreenexit"",""50"",""366637""
""blur"",""50"",""368587""
""focus"",""50"",""590936""
","""event"",""trial"",""time""
""blur"",""50"",""368587""
","""event"",""trial"",""time""
""focus"",""50"",""590936""
","""event"",""trial"",""time""
""fullscreenenter"",""1"",""8955""
","""event"",""trial"",""time""
""fullscreenexit"",""50"",""366637""
",,706.4,run_exp/static/images/task_images/land.jpg,65,,,,,,,3,,,4,,,,,,,,145144,1,4,FALSE,,,
dig,143,810893,0.0-47.0-0.0,"""event"",""trial"",""time""
""fullscreenenter"",""1"",""8955""
""fullscreenexit"",""50"",""366637""
""blur"",""50"",""368587""
""focus"",""50"",""590936""
","""event"",""trial"",""time""
""blur"",""50"",""368587""
","""event"",""trial"",""time""
""focus"",""50"",""590936""
","""event"",""trial"",""time""
""fullscreenenter"",""1"",""8955""
","""event"",""trial"",""time""
""fullscreenexit"",""50"",""366637""
",,,,,,,,,,,,"[{""stimulus"":""run_exp/static/images/task_images/dig.jpg"",""time"":0.19999998807907104},{""stimulus"":""run_exp/static/images/task_images/land.jpg"",""time"":771.6999999880791},{""stimulus"":""run_exp/static/images/task_images/dig.jpg"",""time"":1530.5999999642372}]",[],4,,,,,,,,,,,,,,
harvest,144,811902,0.0-47.0-1.0,"""event"",""trial"",""time""
""fullscreenenter"",""1"",""8955""
""fullscreenexit"",""50"",""366637""
""blur"",""50"",""368587""
""focus"",""50"",""590936""
","""event"",""trial"",""time""
""blur"",""50"",""368587""
","""event"",""trial"",""time""
""focus"",""50"",""590936""
","""event"",""trial"",""time""
""fullscreenenter"",""1"",""8955""
","""event"",""trial"",""time""
""fullscreenexit"",""50"",""366637""
",,null,run_exp/static/images/task_images/gems/3.jpg,null,,,,,,,1,,,4,,,,,3,0.482176012,0.333333333,,,,,,,
decision,145,812462,0.0-47.0-2.0,"""event"",""trial"",""time""
""fullscreenenter"",""1"",""8955""
""fullscreenexit"",""50"",""366637""
""blur"",""50"",""368587""
""focus"",""50"",""590936""
","""event"",""trial"",""time""
""blur"",""50"",""368587""
","""event"",""trial"",""time""
""focus"",""50"",""590936""
","""event"",""trial"",""time""
""fullscreenenter"",""1"",""8955""
","""event"",""trial"",""time""
""fullscreenexit"",""50"",""366637""
",,559.4,run_exp/static/images/task_images/land.jpg,65,,,,,,,1,,,4,,,,,,,,149014,1,5,FALSE,,,
dig,146,814910,0.0-48.0-0.0,"""event"",""trial"",""time""
""fullscreenenter"",""1"",""8955""
""fullscreenexit"",""50"",""366637""
""blur"",""50"",""368587""
""focus"",""50"",""590936""
","""event"",""trial"",""time""
""blur"",""50"",""368587""
","""event"",""trial"",""time""
""focus"",""50"",""590936""
","""event"",""trial"",""time""
""fullscreenenter"",""1"",""8955""
","""event"",""trial"",""time""
""fullscreenexit"",""50"",""366637""
",,,,,,,,,,,,"[{""stimulus"":""run_exp/static/images/task_images/dig.jpg"",""time"":0.10000002384185791},{""stimulus"":""run_exp/static/images/task_images/land.jpg"",""time"":822.6000000238419},{""stimulus"":""run_exp/static/images/task_images/dig.jpg"",""time"":1630}]",[],4,,,,,,,,,,,,,,
harvest,147,815918,0.0-48.0-1.0,"""event"",""trial"",""time""
""fullscreenenter"",""1"",""8955""
""fullscreenexit"",""50"",""366637""
""blur"",""50"",""368587""
""focus"",""50"",""590936""
","""event"",""trial"",""time""
""blur"",""50"",""368587""
","""event"",""trial"",""time""
""focus"",""50"",""590936""
","""event"",""trial"",""time""
""fullscreenenter"",""1"",""8955""
","""event"",""trial"",""time""
""fullscreenexit"",""50"",""366637""
",,null,run_exp/static/images/task_images/gems/1.jpg,null,,,,,,,0,,,4,,,,,1,0.441485677,0,,,,,,,
decision,148,816760,0.0-48.0-2.0,"""event"",""trial"",""time""
""fullscreenenter"",""1"",""8955""
""fullscreenexit"",""50"",""366637""
""blur"",""50"",""368587""
""focus"",""50"",""590936""
","""event"",""trial"",""time""
""blur"",""50"",""368587""
","""event"",""trial"",""time""
""focus"",""50"",""590936""
","""event"",""trial"",""time""
""fullscreenenter"",""1"",""8955""
","""event"",""trial"",""time""
""fullscreenexit"",""50"",""366637""
",,841.6,run_exp/static/images/task_images/land.jpg,76,,,,,,,0,,,4,,,,,,,,153312,1,6,TRUE,,,
travel,149,825917,0.0-49.0-0.0,"""event"",""trial"",""time""
""fullscreenenter"",""1"",""8955""
""fullscreenexit"",""50"",""366637""
""blur"",""50"",""368587""
""focus"",""50"",""590936""
","""event"",""trial"",""time""
""blur"",""50"",""368587""
","""event"",""trial"",""time""
""focus"",""50"",""590936""
","""event"",""trial"",""time""
""fullscreenenter"",""1"",""8955""
","""event"",""trial"",""time""
""fullscreenexit"",""50"",""366637""
",,,,,,,,,,,,"[{""stimulus"":""run_exp/static/images/task_images/rocket-01.jpg"",""time"":0},{""stimulus"":""run_exp/static/images/task_images/rocket-02.jpg"",""time"":1020.6999999880791},{""stimulus"":""run_exp/static/images/task_images/rocket-03.jpg"",""time"":2036.699999988079},{""stimulus"":""run_exp/static/images/task_images/rocket-04.jpg"",""time"":3059.899999976158},{""stimulus"":""run_exp/static/images/task_images/rocket-05.jpg"",""time"":4075.600000023842},{""stimulus"":""run_exp/static/images/task_images/rocket-06.jpg"",""time"":5092.199999988079},{""stimulus"":""run_exp/static/images/task_images/rocket-07.jpg"",""time"":6107.300000011921},{""stimulus"":""run_exp/static/images/task_images/rocket-08.jpg"",""time"":7124},{""stimulus"":""run_exp/static/images/task_images/rocket-09.jpg"",""time"":8139.899999976158}]",[],4,,,,,,,,,,,,,,
alien_welcome,150,830925,0.0-49.0-1.0,"""event"",""trial"",""time""
""fullscreenenter"",""1"",""8955""
""fullscreenexit"",""50"",""366637""
""blur"",""50"",""368587""
""focus"",""50"",""590936""
","""event"",""trial"",""time""
""blur"",""50"",""368587""
","""event"",""trial"",""time""
""focus"",""50"",""590936""
","""event"",""trial"",""time""
""fullscreenenter"",""1"",""8955""
","""event"",""trial"",""time""
""fullscreenexit"",""50"",""366637""
",,null,run_exp/static/images/task_images/aliens/old_aliens/planet/alien_planet-3.jpg,null,,,,,,,,,,,,,3,"47,65,21,43,3,67,53,75,39,18,76,4,34,22,54,48,73,52,32,46,49,72",,,,,,,,,,
land,151,831430,0.0-49.0-2.0,"""event"",""trial"",""time""
""fullscreenenter"",""1"",""8955""
""fullscreenexit"",""50"",""366637""
""blur"",""50"",""368587""
""focus"",""50"",""590936""
","""event"",""trial"",""time""
""blur"",""50"",""368587""
","""event"",""trial"",""time""
""focus"",""50"",""590936""
","""event"",""trial"",""time""
""fullscreenenter"",""1"",""8955""
","""event"",""trial"",""time""
""fullscreenexit"",""50"",""366637""
",,null,run_exp/static/images/task_images/land.jpg,null,,,,,,,93,,,5,,,,,,,,,,,,,,
dig,152,833437,0.0-49.0-3.0,"""event"",""trial"",""time""
""fullscreenenter"",""1"",""8955""
""fullscreenexit"",""50"",""366637""
""blur"",""50"",""368587""
""focus"",""50"",""590936""
","""event"",""trial"",""time""
""blur"",""50"",""368587""
","""event"",""trial"",""time""
""focus"",""50"",""590936""
","""event"",""trial"",""time""
""fullscreenenter"",""1"",""8955""
","""event"",""trial"",""time""
""fullscreenexit"",""50"",""366637""
",,,,,,,,,,,,"[{""stimulus"":""run_exp/static/images/task_images/dig.jpg"",""time"":0.19999998807907104},{""stimulus"":""run_exp/static/images/task_images/land.jpg"",""time"":670.5},{""stimulus"":""run_exp/static/images/task_images/dig.jpg"",""time"":1342.3999999761581}]",[],5,,,,,,,,,,,,,,
harvest,153,834445,0.0-49.0-4.0,"""event"",""trial"",""time""
""fullscreenenter"",""1"",""8955""
""fullscreenexit"",""50"",""366637""
""blur"",""50"",""368587""
""focus"",""50"",""590936""
","""event"",""trial"",""time""
""blur"",""50"",""368587""
","""event"",""trial"",""time""
""focus"",""50"",""590936""
","""event"",""trial"",""time""
""fullscreenenter"",""1"",""8955""
","""event"",""trial"",""time""
""fullscreenexit"",""50"",""366637""
",,null,run_exp/static/images/task_images/gems/93.jpg,null,,,,,,,50,,,5,,,,,93,0.540508405,0.537634409,,,,,,,
decision,154,834951,0.0-49.0-5.0,"""event"",""trial"",""time""
""fullscreenenter"",""1"",""8955""
""fullscreenexit"",""50"",""366637""
""blur"",""50"",""368587""
""focus"",""50"",""590936""
","""event"",""trial"",""time""
""blur"",""50"",""368587""
","""event"",""trial"",""time""
""focus"",""50"",""590936""
","""event"",""trial"",""time""
""fullscreenenter"",""1"",""8955""
","""event"",""trial"",""time""
""fullscreenexit"",""50"",""366637""
",,504.8,run_exp/static/images/task_images/land.jpg,65,,,,,,,50,,,5,,,,,,,,171502,1,0,FALSE,,,
dig,155,837453,0.0-50.0-0.0,"""event"",""trial"",""time""
""fullscreenenter"",""1"",""8955""
""fullscreenexit"",""50"",""366637""
""blur"",""50"",""368587""
""focus"",""50"",""590936""
","""event"",""trial"",""time""
""blur"",""50"",""368587""
","""event"",""trial"",""time""
""focus"",""50"",""590936""
","""event"",""trial"",""time""
""fullscreenenter"",""1"",""8955""
","""event"",""trial"",""time""
""fullscreenexit"",""50"",""366637""
",,,,,,,,,,,,"[{""stimulus"":""run_exp/static/images/task_images/dig.jpg"",""time"":0.09999996423721313},{""stimulus"":""run_exp/static/images/task_images/land.jpg"",""time"":837.1999999880791},{""stimulus"":""run_exp/static/images/task_images/dig.jpg"",""time"":1669.0999999642372}]",[],5,,,,,,,,,,,,,,
harvest,156,838462,0.0-50.0-1.0,"""event"",""trial"",""time""
""fullscreenenter"",""1"",""8955""
""fullscreenexit"",""50"",""366637""
""blur"",""50"",""368587""
""focus"",""50"",""590936""
","""event"",""trial"",""time""
""blur"",""50"",""368587""
","""event"",""trial"",""time""
""focus"",""50"",""590936""
","""event"",""trial"",""time""
""fullscreenenter"",""1"",""8955""
","""event"",""trial"",""time""
""fullscreenexit"",""50"",""366637""
",,null,run_exp/static/images/task_images/gems/50.jpg,null,,,,,,,21,,,5,,,,,50,0.4272876,0.42,,,,,,,
decision,157,838652,0.0-50.0-2.0,"""event"",""trial"",""time""
""fullscreenenter"",""1"",""8955""
""fullscreenexit"",""50"",""366637""
""blur"",""50"",""368587""
""focus"",""50"",""590936""
","""event"",""trial"",""time""
""blur"",""50"",""368587""
","""event"",""trial"",""time""
""focus"",""50"",""590936""
","""event"",""trial"",""time""
""fullscreenenter"",""1"",""8955""
","""event"",""trial"",""time""
""fullscreenexit"",""50"",""366637""
",,189,run_exp/static/images/task_images/land.jpg,65,,,,,,,21,,,5,,,,,,,,175203,1,1,FALSE,,,
dig,158,841470,0.0-51.0-0.0,"""event"",""trial"",""time""
""fullscreenenter"",""1"",""8955""
""fullscreenexit"",""50"",""366637""
""blur"",""50"",""368587""
""focus"",""50"",""590936""
","""event"",""trial"",""time""
""blur"",""50"",""368587""
","""event"",""trial"",""time""
""focus"",""50"",""590936""
","""event"",""trial"",""time""
""fullscreenenter"",""1"",""8955""
","""event"",""trial"",""time""
""fullscreenexit"",""50"",""366637""
",,,,,,,,,,,,"[{""stimulus"":""run_exp/static/images/task_images/dig.jpg"",""time"":0.09999996423721313},{""stimulus"":""run_exp/static/images/task_images/land.jpg"",""time"":944.0999999642372},{""stimulus"":""run_exp/static/images/task_images/dig.jpg"",""time"":1880.5}]",[],5,,,,,,,,,,,,,,
harvest,159,842477,0.0-51.0-1.0,"""event"",""trial"",""time""
""fullscreenenter"",""1"",""8955""
""fullscreenexit"",""50"",""366637""
""blur"",""50"",""368587""
""focus"",""50"",""590936""
","""event"",""trial"",""time""
""blur"",""50"",""368587""
","""event"",""trial"",""time""
""focus"",""50"",""590936""
","""event"",""trial"",""time""
""fullscreenenter"",""1"",""8955""
","""event"",""trial"",""time""
""fullscreenexit"",""50"",""366637""
",,null,run_exp/static/images/task_images/gems/21.jpg,null,,,,,,,10,,,5,,,,,21,0.49715815,0.476190476,,,,,,,
decision,160,842960,0.0-51.0-2.0,"""event"",""trial"",""time""
""fullscreenenter"",""1"",""8955""
""fullscreenexit"",""50"",""366637""
""blur"",""50"",""368587""
""focus"",""50"",""590936""
","""event"",""trial"",""time""
""blur"",""50"",""368587""
","""event"",""trial"",""time""
""focus"",""50"",""590936""
","""event"",""trial"",""time""
""fullscreenenter"",""1"",""8955""
","""event"",""trial"",""time""
""fullscreenexit"",""50"",""366637""
",,482.2,run_exp/static/images/task_images/land.jpg,65,,,,,,,10,,,5,,,,,,,,179512,1,2,FALSE,,,
dig,161,845485,0.0-52.0-0.0,"""event"",""trial"",""time""
""fullscreenenter"",""1"",""8955""
""fullscreenexit"",""50"",""366637""
""blur"",""50"",""368587""
""focus"",""50"",""590936""
","""event"",""trial"",""time""
""blur"",""50"",""368587""
","""event"",""trial"",""time""
""focus"",""50"",""590936""
","""event"",""trial"",""time""
""fullscreenenter"",""1"",""8955""
","""event"",""trial"",""time""
""fullscreenexit"",""50"",""366637""
",,,,,,,,,,,,"[{""stimulus"":""run_exp/static/images/task_images/dig.jpg"",""time"":0.10000002384185791},{""stimulus"":""run_exp/static/images/task_images/land.jpg"",""time"":843.3000000119209},{""stimulus"":""run_exp/static/images/task_images/dig.jpg"",""time"":1683.4000000357628}]",[],5,,,,,,,,,,,,,,
harvest,162,846493,0.0-52.0-1.0,"""event"",""trial"",""time""
""fullscreenenter"",""1"",""8955""
""fullscreenexit"",""50"",""366637""
""blur"",""50"",""368587""
""focus"",""50"",""590936""
","""event"",""trial"",""time""
""blur"",""50"",""368587""
","""event"",""trial"",""time""
""focus"",""50"",""590936""
","""event"",""trial"",""time""
""fullscreenenter"",""1"",""8955""
","""event"",""trial"",""time""
""fullscreenexit"",""50"",""366637""
",,null,run_exp/static/images/task_images/gems/10.jpg,null,,,,,,,5,,,5,,,,,10,0.540354343,0.5,,,,,,,
decision,163,846594,0.0-52.0-2.0,"""event"",""trial"",""time""
""fullscreenenter"",""1"",""8955""
""fullscreenexit"",""50"",""366637""
""blur"",""50"",""368587""
""focus"",""50"",""590936""
","""event"",""trial"",""time""
""blur"",""50"",""368587""
","""event"",""trial"",""time""
""focus"",""50"",""590936""
","""event"",""trial"",""time""
""fullscreenenter"",""1"",""8955""
","""event"",""trial"",""time""
""fullscreenexit"",""50"",""366637""
",,100,run_exp/static/images/task_images/land.jpg,65,,,,,,,5,,,5,,,,,,,,183145,1,3,FALSE,,,
dig,164,849501,0.0-53.0-0.0,"""event"",""trial"",""time""
""fullscreenenter"",""1"",""8955""
""fullscreenexit"",""50"",""366637""
""blur"",""50"",""368587""
""focus"",""50"",""590936""
","""event"",""trial"",""time""
""blur"",""50"",""368587""
","""event"",""trial"",""time""
""focus"",""50"",""590936""
","""event"",""trial"",""time""
""fullscreenenter"",""1"",""8955""
","""event"",""trial"",""time""
""fullscreenexit"",""50"",""366637""
",,,,,,,,,,,,"[{""stimulus"":""run_exp/static/images/task_images/dig.jpg"",""time"":0.09999996423721313},{""stimulus"":""run_exp/static/images/task_images/land.jpg"",""time"":970.0999999642372},{""stimulus"":""run_exp/static/images/task_images/dig.jpg"",""time"":1938.0999999642372}]",[],5,,,,,,,,,,,,,,
harvest,165,850510,0.0-53.0-1.0,"""event"",""trial"",""time""
""fullscreenenter"",""1"",""8955""
""fullscreenexit"",""50"",""366637""
""blur"",""50"",""368587""
""focus"",""50"",""590936""
","""event"",""trial"",""time""
""blur"",""50"",""368587""
","""event"",""trial"",""time""
""focus"",""50"",""590936""
","""event"",""trial"",""time""
""fullscreenenter"",""1"",""8955""
","""event"",""trial"",""time""
""fullscreenexit"",""50"",""366637""
",,null,run_exp/static/images/task_images/gems/5.jpg,null,,,,,,,2,,,5,,,,,5,0.456974609,0.4,,,,,,,
decision,166,851072,0.0-53.0-2.0,"""event"",""trial"",""time""
""fullscreenenter"",""1"",""8955""
""fullscreenexit"",""50"",""366637""
""blur"",""50"",""368587""
""focus"",""50"",""590936""
","""event"",""trial"",""time""
""blur"",""50"",""368587""
","""event"",""trial"",""time""
""focus"",""50"",""590936""
","""event"",""trial"",""time""
""fullscreenenter"",""1"",""8955""
","""event"",""trial"",""time""
""fullscreenexit"",""50"",""366637""
",,561,run_exp/static/images/task_images/land.jpg,65,,,,,,,2,,,5,,,,,,,,187623,1,4,FALSE,,,
dig,167,853517,0.0-54.0-0.0,"""event"",""trial"",""time""
""fullscreenenter"",""1"",""8955""
""fullscreenexit"",""50"",""366637""
""blur"",""50"",""368587""
""focus"",""50"",""590936""
","""event"",""trial"",""time""
""blur"",""50"",""368587""
","""event"",""trial"",""time""
""focus"",""50"",""590936""
","""event"",""trial"",""time""
""fullscreenenter"",""1"",""8955""
