trial_type,trial_index,time_elapsed,internal_node_id,interactions,blur_events,focus_events,fullscreenenter_events,fullscreenexit_events,success,rt,stimulus,key_press,prompt,subject_id,participant_id,age,gender,button_pressed,next_reward,animation_sequence,responses,planet,curr_prac_trial,n_prac_rounds,alien,aliens,reward_received,decay_rate_actual,decay_rate_exp,time_in_block,block_num,prt,last_trial_on_planet,button_html,bonus,num_failures
pavlovia,0,9,0.0-0.0,"""event"",""trial"",""time""
""fullscreenenter"",""1"",""17835""
","
","
","""event"",""trial"",""time""
""fullscreenenter"",""1"",""17835""
","
",,,,,,,,,,,,,,,,,,,,,,,,,,,,
fullscreen,1,18806,0.0-1.0,"""event"",""trial"",""time""
""fullscreenenter"",""1"",""17835""
","
","
","""event"",""trial"",""time""
""fullscreenenter"",""1"",""17835""
","
",TRUE,,,,,,,,,,,,,,,,,,,,,,,,,,,
instruc_welcome,2,29440,0.0-2.0,"""event"",""trial"",""time""
""fullscreenenter"",""1"",""17835""
","
","
","""event"",""trial"",""time""
""fullscreenenter"",""1"",""17835""
","
",,null,run_exp/static/audio/clip_1_welcome.m4a,null,"<p>Howdy! In this experiment, you’ll be an explorer traveling through space to collect space treasure.</p><p>Your mission is to collect as much treasure as possible.</p><br><br><p><img src='run_exp/static/images/task_images/opening_img-01.jpg' height='300' width='auto'></p>",9380,3177,8.65,Male,,,,,,,,,,,,,,,,,,,
audio-keyboard-response,3,46334,0.0-3.0,"""event"",""trial"",""time""
""fullscreenenter"",""1"",""17835""
","
","
","""event"",""trial"",""time""
""fullscreenenter"",""1"",""17835""
","
",,null,run_exp/static/audio/clip_2_move.m4a,null,,,,,,,,,,,,,,,,,,,,,,,,
welcome_dec,4,52463,0.0-4.0,"""event"",""trial"",""time""
""fullscreenenter"",""1"",""17835""
","
","
","""event"",""trial"",""time""
""fullscreenenter"",""1"",""17835""
","
",,6119.8,"<p>Howdy! In this experiment, you’ll be an explorer traveling through space to collect space treasure.</p><p>Your mission is to collect as much treasure as possible.</p><br><br><p><img src='run_exp/static/images/task_images/opening_img-01.jpg' height='300' width='auto'></p>",,,,,,,0,,,,,,,,,,,,,,,,,,
html-keyboard-response,5,54633,0.0-5.0,"""event"",""trial"",""time""
""fullscreenenter"",""1"",""17835""
","
","
","""event"",""trial"",""time""
""fullscreenenter"",""1"",""17835""
","
",,2161.7,"<p>Howdy! In this experiment, you’ll be an explorer traveling through space to collect space treasure.</p><p>Your mission is to collect as much treasure as possible.</p><br><br><p><img src='run_exp/static/images/task_images/opening_img-01.jpg' height='300' width='auto'></p><button class=""jspsych-html-btn-chosen""><img src=""run_exp/static/images/task_images/planet-01.jpg"" height=""50""></button><button class=""jspsych-html-btn-unchosen""><img src=""run_exp/static/images/task_images/planet-02.jpg"" height=""50""></button><p><b>[press the space bar to lock in your answer]<b><br></p>",32,,,,,,,,,,,,,,,,,,,,,,,,
instruc_welcome,6,64767,0.0-6.0-0.0,"""event"",""trial"",""time""
""fullscreenenter"",""1"",""17835""
","
","
","""event"",""trial"",""time""
""fullscreenenter"",""1"",""17835""
","
",,null,run_exp/static/audio/clip_1_welcome.m4a,null,"<p>Howdy! In this experiment, you’ll be an explorer traveling through space to collect space treasure.</p><p>Your mission is to collect as much treasure as possible.</p><br><br><p><img src='run_exp/static/images/task_images/opening_img-01.jpg' height='300' width='auto'></p>",9380,3177,8,Male,,,,,,,,,,,,,,,,,,,
audio-keyboard-response,7,81662,0.0-6.0-1.0,"""event"",""trial"",""time""
""fullscreenenter"",""1"",""17835""
","
","
","""event"",""trial"",""time""
""fullscreenenter"",""1"",""17835""
","
",,null,run_exp/static/audio/clip_2_move.m4a,null,,,,,,,,,,,,,,,,,,,,,,,,
welcome_dec,8,82812,0.0-6.0-2.0,"""event"",""trial"",""time""
""fullscreenenter"",""1"",""17835""
","
","
","""event"",""trial"",""time""
""fullscreenenter"",""1"",""17835""
","
",,1144.3,"<p>Howdy! In this experiment, you’ll be an explorer traveling through space to collect space treasure.</p><p>Your mission is to collect as much treasure as possible.</p><br><br><p><img src='run_exp/static/images/task_images/opening_img-01.jpg' height='300' width='auto'></p>",,,,,,,1,,,,,,,,,,,,,,,,,,
html-keyboard-response,9,84121,0.0-6.0-3.0,"""event"",""trial"",""time""
""fullscreenenter"",""1"",""17835""
","
","
","""event"",""trial"",""time""
""fullscreenenter"",""1"",""17835""
","
",,1304.5,"<p>Howdy! In this experiment, you’ll be an explorer traveling through space to collect space treasure.</p><p>Your mission is to collect as much treasure as possible.</p><br><br><p><img src='run_exp/static/images/task_images/opening_img-01.jpg' height='300' width='auto'></p><button class=""jspsych-html-btn-unchosen""><img src=""run_exp/static/images/task_images/planet-01.jpg"" height=""50""></button><button class=""jspsych-html-btn-chosen""><img src=""run_exp/static/images/task_images/planet-02.jpg"" height=""50""></button><p><b>[press the space bar to lock in your answer]<b><br></p>",32,,,,,,,,,,,,,,,,,,,,,,,,
instruc_goal,10,94463,0.0-7.0-0.0,"""event"",""trial"",""time""
""fullscreenenter"",""1"",""17835""
","
","
","""event"",""trial"",""time""
""fullscreenenter"",""1"",""17835""
","
",,null,run_exp/static/audio/clip_3_goal.m4a,null,"<p> As a space explorer, you’ll visit different planets to dig for space treasure, these pink gems.</p> <p> The more treasure you dig up, the more bonus money you’ll win! </p><br><br><p><img src='run_exp/static/images/task_images/pink_gem.jpg' height='300' width='auto'></p>",,,,,,,,,,,,,,,,,,,,,,,
instruc_goal,11,98156,0.0-7.0-1.0,"""event"",""trial"",""time""
""fullscreenenter"",""1"",""17835""
","
","
","""event"",""trial"",""time""
""fullscreenenter"",""1"",""17835""
","
",,3687.5,"<p> As a space explorer, you’ll visit different planets to dig for space treasure, these pink gems.</p> <p> The more treasure you dig up, the more bonus money you’ll win! </p><br><br><p><img src='run_exp/static/images/task_images/pink_gem.jpg' height='300' width='auto'></p>",,,,,,,1,,,,,,,,,,,,,,,,,,
html-keyboard-response,12,99967,0.0-7.0-2.0,"""event"",""trial"",""time""
""fullscreenenter"",""1"",""17835""
","
","
","""event"",""trial"",""time""
""fullscreenenter"",""1"",""17835""
","
",,1804.6,"<p> As a space explorer, you’ll visit different planets to dig for space treasure, these pink gems.</p> <p> The more treasure you dig up, the more bonus money you’ll win! </p><br><br><p><img src='run_exp/static/images/task_images/pink_gem.jpg' height='300' width='auto'></p><button class=""jspsych-html-btn-unchosen""><img src=""run_exp/static/images/task_images/planet-01.jpg"" height=""50""></button><button class=""jspsych-html-btn-chosen""><img src=""run_exp/static/images/task_images/planet-02.jpg"" height=""50""></button><p><b>[press the space bar to lock in your answer]<b><br></p>",32,,,,,,,,,,,,,,,,,,,,,,,,
instruc_dig,13,116352,0.0-8.0-0.0,"""event"",""trial"",""time""
""fullscreenenter"",""1"",""17835""
","
","
","""event"",""trial"",""time""
""fullscreenenter"",""1"",""17835""
","
",,null,run_exp/static/audio/clip_4_dig.m4a,null,,,,,,,100,,,,,,,,,,,,,,,,,
instruc_dig_try,14,119880,0.0-8.0-1.0,"""event"",""trial"",""time""
""fullscreenenter"",""1"",""17835""
","
","
","""event"",""trial"",""time""
""fullscreenenter"",""1"",""17835""
","
",,3524.2,"<p> When you’ve arrived at a new planet, you will dig once. </p> <p>Then, you get to decide if you want to stay on the planet and dig again or travel to a new planet and dig there.</p> <p> To stay and dig, press the letter <strong>‘A’</strong> on your keyboard. Try pressing it now! </p><p><img src='run_exp/static/images/task_images/land.jpg'  height='700' width='auto'></p>",65,"<p> When you’ve arrived at a new planet, you will dig once. </p> <p>Then, you get to decide if you want to stay on the planet and dig again or travel to a new planet and dig there.</p> <p> To stay and dig, press the letter <strong>‘A’</strong> on your keyboard. Try pressing it now! </p><p><img src='run_exp/static/images/task_images/land.jpg'  height='700' width='auto'></p>",,,,,,100,,,,,,,,,,,,,,,,,
dig_prac,15,121911,0.0-8.0-2.0,"""event"",""trial"",""time""
""fullscreenenter"",""1"",""17835""
","
","
","""event"",""trial"",""time""
""fullscreenenter"",""1"",""17835""
","
",,,,,,,,,,,,"[{""stimulus"":""run_exp/static/images/task_images/dig.jpg"",""time"":1.3000000000465661},{""stimulus"":""run_exp/static/images/task_images/land.jpg"",""time"":672.7000000000698},{""stimulus"":""run_exp/static/images/task_images/dig.jpg"",""time"":1345.1000000000931}]",[],,,,,,,,,,,,,,,
instruc_travel,16,158464,0.0-8.0-3.0,"""event"",""trial"",""time""
""fullscreenenter"",""1"",""17835""
","
","
","""event"",""trial"",""time""
""fullscreenenter"",""1"",""17835""
","
",,null,run_exp/static/audio/clip_5_travel.m4a,null,"<p>Every time you dig up gems, there are less gems on the planet, so the more you dig on a planet the fewer gems you’ll get with each dig.</p><p>When gems are running low, you may want to travel to a new planet. </p> <p>  Planets are very far apart in this galaxy, so it will take some time to travel between them. </p> <br><p>There are lots and lots of planets for you to visit, so you won’t be able to return to any planets you’ve seen before. </p><br><p>To leave this planet and travel to a new one, press the letter <strong>‘L’</strong> on your keyboard. Try pressing it now! </p><p><img src='run_exp/static/images/task_images/rocket-01.jpg'  height='600' width='auto'></p>",,,,,,,,,,,,,,,,,,,,,,,
instruc_travel_try,17,164429,0.0-8.0-4.0,"""event"",""trial"",""time""
""fullscreenenter"",""1"",""17835""
","
","
","""event"",""trial"",""time""
""fullscreenenter"",""1"",""17835""
","
",,5961.8,"<p>Every time you dig up gems, there are less gems on the planet, so the more you dig on a planet the fewer gems you’ll get with each dig.</p><p>When gems are running low, you may want to travel to a new planet. </p> <p>  Planets are very far apart in this galaxy, so it will take some time to travel between them. </p> <br><p>There are lots and lots of planets for you to visit, so you won’t be able to return to any planets you’ve seen before. </p><br><p>To leave this planet and travel to a new one, press the letter <strong>‘L’</strong> on your keyboard. Try pressing it now! </p><p><img src='run_exp/static/images/task_images/rocket-01.jpg'  height='600' width='auto'></p>",76,"<p>Every time you dig up gems, there are less gems on the planet, so the more you dig on a planet the fewer gems you’ll get with each dig.</p><p>When gems are running low, you may want to travel to a new planet. </p> <p>  Planets are very far apart in this galaxy, so it will take some time to travel between them. </p> <br><p>There are lots and lots of planets for you to visit, so you won’t be able to return to any planets you’ve seen before. </p><br><p>To leave this planet and travel to a new one, press the letter <strong>‘L’</strong> on your keyboard. Try pressing it now! </p><p><img src='run_exp/static/images/task_images/rocket-01.jpg'  height='600' width='auto'></p>",,,,,,,,,,,,,,,,,,,,,,,
travel_prac,18,174439,0.0-8.0-5.0,"""event"",""trial"",""time""
""fullscreenenter"",""1"",""17835""
","
","
","""event"",""trial"",""time""
""fullscreenenter"",""1"",""17835""
","
",,,,,,,,,,,,"[{""stimulus"":""run_exp/static/images/task_images/rocket-01.jpg"",""time"":1},{""stimulus"":""run_exp/static/images/task_images/rocket-02.jpg"",""time"":1115.8000000000466},{""stimulus"":""run_exp/static/images/task_images/rocket-03.jpg"",""time"":2228.0999999999767},{""stimulus"":""run_exp/static/images/task_images/rocket-04.jpg"",""time"":3339.8000000000466},{""stimulus"":""run_exp/static/images/task_images/rocket-05.jpg"",""time"":4452.300000000047},{""stimulus"":""run_exp/static/images/task_images/rocket-06.jpg"",""time"":5563.5},{""stimulus"":""run_exp/static/images/task_images/rocket-07.jpg"",""time"":6675.099999999977},{""stimulus"":""run_exp/static/images/task_images/rocket-08.jpg"",""time"":7788.400000000023},{""stimulus"":""run_exp/static/images/task_images/rocket-09.jpg"",""time"":8899.800000000047}]",[],0,,,,,,,,,,,,,,
instruc_alien_greet,19,201809,0.0-8.0-6.0,"""event"",""trial"",""time""
""fullscreenenter"",""1"",""17835""
","
","
","""event"",""trial"",""time""
""fullscreenenter"",""1"",""17835""
","
",,null,run_exp/static/audio/clip_6_alien.m4a,null,"<p>When you arrive at a new planet, the alien who owns the treasure mine on that planet will greet you!</p><p>The better an alien takes care of their mine the easier it is to dig for gems. Some aliens take better care of their mine than others. So, you won’t get exactly the same amount of gems on each planet.</p><p>What the alien looks like does not tell you anything about how many gems there are on the planet.</p><br><p><img src=""run_exp/static/images/task_images/aliens/instructions_aliens/planet/alien_planet-1.jpg""  height=""600"" width=""auto""></p>",,,,,,,,,,,,,,,,,,,,,,,
instruc_alien_greet,20,204423,0.0-8.0-7.0,"""event"",""trial"",""time""
""fullscreenenter"",""1"",""17835""
","
","
","""event"",""trial"",""time""
""fullscreenenter"",""1"",""17835""
","
",,2609.3,"<p>When you arrive at a new planet, the alien who owns the treasure mine on that planet will greet you!</p><p>The better an alien takes care of their mine the easier it is to dig for gems. Some aliens take better care of their mine than others. So, you won’t get exactly the same amount of gems on each planet.</p><p>What the alien looks like does not tell you anything about how many gems there are on the planet.</p><br><p><img src=""run_exp/static/images/task_images/aliens/instructions_aliens/planet/alien_planet-1.jpg""  height=""600"" width=""auto""></p>",,,,,,,1,,,,,,,,,,,,,,,,,,
html-keyboard-response,21,207246,0.0-8.0-8.0,"""event"",""trial"",""time""
""fullscreenenter"",""1"",""17835""
","
","
","""event"",""trial"",""time""
""fullscreenenter"",""1"",""17835""
","
",,2818.8,"<p>When you arrive at a new planet, the alien who owns the treasure mine on that planet will greet you!</p><p>The better an alien takes care of their mine the easier it is to dig for gems. Some aliens take better care of their mine than others. So, you won’t get exactly the same amount of gems on each planet.</p><p>What the alien looks like does not tell you anything about how many gems there are on the planet.</p><br><p><img src=""run_exp/static/images/task_images/aliens/instructions_aliens/planet/alien_planet-1.jpg""  height=""600"" width=""auto""></p><button class=""jspsych-html-btn-unchosen""><img src=""run_exp/static/images/task_images/planet-01.jpg"" height=""50""></button><button class=""jspsych-html-btn-chosen""><img src=""run_exp/static/images/task_images/planet-02.jpg"" height=""50""></button><p><b>[press the space bar to lock in your answer]<b><br></p>",32,,,,,,,,,,,,,,,,,,,,,,,,
time_out,22,218577,0.0-9.0-0.0,"""event"",""trial"",""time""
""fullscreenenter"",""1"",""17835""
","
","
","""event"",""trial"",""time""
""fullscreenenter"",""1"",""17835""
","
",,null,run_exp/static/audio/clip_7_timeout.m4a,null,"<p>If you don't make your choice fast enough, you’ll have to wait a few seconds before you can make another one.</p><p>You can’t dig for more gems or travel to new planets. You just have to sit and wait.</p><br><p><img src='run_exp/static/images/task_images/time_out.jpg'  height='600' width='auto'></p>",,,,,,,,,,,,,,,,,,,,,,,
time_out,23,221974,0.0-9.0-1.0,"""event"",""trial"",""time""
""fullscreenenter"",""1"",""17835""
","
","
","""event"",""trial"",""time""
""fullscreenenter"",""1"",""17835""
","
",,3390.2,"<p>If you don't make your choice fast enough, you’ll have to wait a few seconds before you can make another one.</p><p>You can’t dig for more gems or travel to new planets. You just have to sit and wait.</p><br><p><img src='run_exp/static/images/task_images/time_out.jpg'  height='600' width='auto'></p>",,,,,,,1,,,,,,,,,,,,,,,,,,
html-keyboard-response,24,231509,0.0-9.0-2.0,"""event"",""trial"",""time""
""fullscreenenter"",""1"",""17835""
","
","
","""event"",""trial"",""time""
""fullscreenenter"",""1"",""17835""
","
",,9526,"<p>If you don't make your choice fast enough, you’ll have to wait a few seconds before you can make another one.</p><p>You can’t dig for more gems or travel to new planets. You just have to sit and wait.</p><br><p><img src='run_exp/static/images/task_images/time_out.jpg'  height='600' width='auto'></p><button class=""jspsych-html-btn-unchosen""><img src=""run_exp/static/images/task_images/planet-01.jpg"" height=""50""></button><button class=""jspsych-html-btn-chosen""><img src=""run_exp/static/images/task_images/planet-02.jpg"" height=""50""></button><p><b>[press the space bar to lock in your answer]<b><br></p>",32,,,,,,,,,,,,,,,,,,,,,,,,
instruc_break,25,247292,0.0-10.0-0.0,"""event"",""trial"",""time""
""fullscreenenter"",""1"",""17835""
","
","
","""event"",""trial"",""time""
""fullscreenenter"",""1"",""17835""
","
",,null,run_exp/static/audio/clip_8_break.m4a,null,"<p> After digging and traveling for a while, you’ll be able to take a break at home base. </p><p>The game will last 20 minutes no matter what.</p><p>You will visit home base every 5 minutes, so, you will visit home base three times during the game.</p><br><p><img src='run_exp/static/images/task_images/home_base.jpg' height='600' width='auto'></p>",,,,,,,,,,,,,,,,,,,,,,,
instruc_break,26,251429,0.0-10.0-1.0,"""event"",""trial"",""time""
""fullscreenenter"",""1"",""17835""
","
","
","""event"",""trial"",""time""
""fullscreenenter"",""1"",""17835""
","
",,4133,"<p> After digging and traveling for a while, you’ll be able to take a break at home base. </p><p>The game will last 20 minutes no matter what.</p><p>You will visit home base every 5 minutes, so, you will visit home base three times during the game.</p><br><p><img src='run_exp/static/images/task_images/home_base.jpg' height='600' width='auto'></p>",,,,,,,1,,,,,,,,,,,,,,,,,,
html-keyboard-response,27,257540,0.0-10.0-2.0,"""event"",""trial"",""time""
""fullscreenenter"",""1"",""17835""
","
","
","""event"",""trial"",""time""
""fullscreenenter"",""1"",""17835""
","
",,6106.1,"<p> After digging and traveling for a while, you’ll be able to take a break at home base. </p><p>The game will last 20 minutes no matter what.</p><p>You will visit home base every 5 minutes, so, you will visit home base three times during the game.</p><br><p><img src='run_exp/static/images/task_images/home_base.jpg' height='600' width='auto'></p><button class=""jspsych-html-btn-unchosen""><img src=""run_exp/static/images/task_images/planet-01.jpg"" height=""50""></button><button class=""jspsych-html-btn-chosen""><img src=""run_exp/static/images/task_images/planet-02.jpg"" height=""50""></button><p><b>[press the space bar to lock in your answer]<b><br></p>",32,,,,,,,,,,,,,,,,,,,,,,,,
instruc_prac_game,28,267832,0.0-11.0-0.0,"""event"",""trial"",""time""
""fullscreenenter"",""1"",""17835""
","
","
","""event"",""trial"",""time""
""fullscreenenter"",""1"",""17835""
","
",,null,run_exp/static/audio/clip_9_practice.m4a,null,"<p> Are you ready to play a practice game? </p> <p>In this practice game, you'll be digging up barrels of gems. But, in the real game, you'll be digging up the gems themselves. </p>",,,,,,,,,,,,,,,,,,,,,,,
html-button-response,29,270037,0.0-11.0-1.0,"""event"",""trial"",""time""
""fullscreenenter"",""1"",""17835""
","
","
","""event"",""trial"",""time""
""fullscreenenter"",""1"",""17835""
","
",,2202.3,"<p> Are you ready to play a practice game? </p> <p>In this practice game, you'll be digging up barrels of gems. But, in the real game, you'll be digging up the gems themselves. </p>",,,,,,,0,,,,,,,,,,,,,,,,,,
alien_welcome_prac,30,275048,0.0-12.0-0.0,"""event"",""trial"",""time""
""fullscreenenter"",""1"",""17835""
","
","
","""event"",""trial"",""time""
""fullscreenenter"",""1"",""17835""
","
",,null,run_exp/static/images/task_images/aliens/practice_aliens/planet/alien_planet-5.jpg,null,,,,,,,,,,,,,,,,,,,,,,,,
land_prac,31,275558,0.0-12.0-1.0,"""event"",""trial"",""time""
""fullscreenenter"",""1"",""17835""
","
","
","""event"",""trial"",""time""
""fullscreenenter"",""1"",""17835""
","
",,null,run_exp/static/images/task_images/land.jpg,null,,,,,,,94,,,0,,,,,,,,,,,,,,
dig_prac,32,277574,0.0-12.0-2.0,"""event"",""trial"",""time""
""fullscreenenter"",""1"",""17835""
","
","
","""event"",""trial"",""time""
""fullscreenenter"",""1"",""17835""
","
",,,,,,,,,,,,"[{""stimulus"":""run_exp/static/images/task_images/dig.jpg"",""time"":1.099999999976717},{""stimulus"":""run_exp/static/images/task_images/land.jpg"",""time"":674.9000000000233},{""stimulus"":""run_exp/static/images/task_images/dig.jpg"",""time"":1338.9000000000233}]",[],,,,,,,,,,,,,,,
harvest_prac,33,278579,0.0-12.0-3.0,"""event"",""trial"",""time""
""fullscreenenter"",""1"",""17835""
","
","
","""event"",""trial"",""time""
""fullscreenenter"",""1"",""17835""
","
",,null,run_exp/static/images/task_images/barrel_text.jpg,null,,,,,,,,,,,,,,,,,,,,,,,,
decision_prac,34,280818,0.0-12.0-4.0,"""event"",""trial"",""time""
""fullscreenenter"",""1"",""17835""
","
","
","""event"",""trial"",""time""
""fullscreenenter"",""1"",""17835""
","
",,2236.2,run_exp/static/images/task_images/land.jpg,65,,,,,,,,,,,1,,,,,,,,,,,,,
dig_prac,35,282838,0.0-13.0-0.0,"""event"",""trial"",""time""
""fullscreenenter"",""1"",""17835""
","
","
","""event"",""trial"",""time""
""fullscreenenter"",""1"",""17835""
","
",,,,,,,,,,,,"[{""stimulus"":""run_exp/static/images/task_images/dig.jpg"",""time"":1.099999999976717},{""stimulus"":""run_exp/static/images/task_images/land.jpg"",""time"":676.2999999999302},{""stimulus"":""run_exp/static/images/task_images/dig.jpg"",""time"":1339.7999999999302}]",[],,,,,,,,,,,,,,,
harvest_prac,36,283846,0.0-13.0-1.0,"""event"",""trial"",""time""
""fullscreenenter"",""1"",""17835""
","
","
","""event"",""trial"",""time""
""fullscreenenter"",""1"",""17835""
","
",,null,run_exp/static/images/task_images/barrel_text.jpg,null,,,,,,,,,,,,,,,,,,,,,,,,
decision_prac,37,286571,0.0-13.0-2.0,"""event"",""trial"",""time""
""fullscreenenter"",""1"",""17835""
","
","
","""event"",""trial"",""time""
""fullscreenenter"",""1"",""17835""
","
",,2721.1,run_exp/static/images/task_images/land.jpg,76,,,,,,,,,,,2,,,,,,,,,,,,,
travel,38,293862,0.0-14.0-0.0,"""event"",""trial"",""time""
""fullscreenenter"",""1"",""17835""
","
","
","""event"",""trial"",""time""
""fullscreenenter"",""1"",""17835""
","
",,,,,,,,,,,,"[{""stimulus"":""run_exp/static/images/task_images/rocket-01.jpg"",""time"":1},{""stimulus"":""run_exp/static/images/task_images/rocket-02.jpg"",""time"":814.3000000000466},{""stimulus"":""run_exp/static/images/task_images/rocket-03.jpg"",""time"":1622.5999999999767},{""stimulus"":""run_exp/static/images/task_images/rocket-04.jpg"",""time"":2431.3000000000466},{""stimulus"":""run_exp/static/images/task_images/rocket-05.jpg"",""time"":3238.9000000000233},{""stimulus"":""run_exp/static/images/task_images/rocket-06.jpg"",""time"":4046.0999999999767},{""stimulus"":""run_exp/static/images/task_images/rocket-07.jpg"",""time"":4855.099999999977},{""stimulus"":""run_exp/static/images/task_images/rocket-08.jpg"",""time"":5663.099999999977},{""stimulus"":""run_exp/static/images/task_images/rocket-09.jpg"",""time"":6470}]",[],0,,,,,,,,,,,,,,
alien_welcome_prac,39,298871,0.0-14.0-1.0,"""event"",""trial"",""time""
""fullscreenenter"",""1"",""17835""
","
","
","""event"",""trial"",""time""
""fullscreenenter"",""1"",""17835""
","
",,null,run_exp/static/images/task_images/aliens/practice_aliens/planet/alien_planet-4.jpg,null,,,,,,,,,,,,,,,,,,,,,,,,
land_prac,40,299382,0.0-14.0-2.0,"""event"",""trial"",""time""
""fullscreenenter"",""1"",""17835""
","
","
","""event"",""trial"",""time""
""fullscreenenter"",""1"",""17835""
","
",,null,run_exp/static/images/task_images/land.jpg,null,,,,,,,92,,,0,,,,,,,,,,,,,,
dig_prac,41,301398,0.0-14.0-3.0,"""event"",""trial"",""time""
""fullscreenenter"",""1"",""17835""
","
","
","""event"",""trial"",""time""
""fullscreenenter"",""1"",""17835""
","
",,,,,,,,,,,,"[{""stimulus"":""run_exp/static/images/task_images/dig.jpg"",""time"":1},{""stimulus"":""run_exp/static/images/task_images/land.jpg"",""time"":675.3000000000466},{""stimulus"":""run_exp/static/images/task_images/dig.jpg"",""time"":1339.1999999999534}]",[],,,,,,,,,,,,,,,
harvest_prac,42,302406,0.0-14.0-4.0,"""event"",""trial"",""time""
""fullscreenenter"",""1"",""17835""
","
","
","""event"",""trial"",""time""
""fullscreenenter"",""1"",""17835""
","
",,null,run_exp/static/images/task_images/barrel_text.jpg,null,,,,,,,,,,,,,,,,,,,,,,,,
decision_prac,43,303490,0.0-14.0-5.0,"""event"",""trial"",""time""
""fullscreenenter"",""1"",""17835""
","
","
","""event"",""trial"",""time""
""fullscreenenter"",""1"",""17835""
","
",,1080.4,run_exp/static/images/task_images/land.jpg,65,,,,,,,,,,,3,,,,,,,,,,,,,
dig_prac,44,305511,0.0-15.0-0.0,"""event"",""trial"",""time""
""fullscreenenter"",""1"",""17835""
","
","
","""event"",""trial"",""time""
""fullscreenenter"",""1"",""17835""
","
",,,,,,,,,,,,"[{""stimulus"":""run_exp/static/images/task_images/dig.jpg"",""time"":0.9000000000232831},{""stimulus"":""run_exp/static/images/task_images/land.jpg"",""time"":675.3000000000466},{""stimulus"":""run_exp/static/images/task_images/dig.jpg"",""time"":1338.7000000000698}]",[],,,,,,,,,,,,,,,
harvest_prac,45,306518,0.0-15.0-1.0,"""event"",""trial"",""time""
""fullscreenenter"",""1"",""17835""
","
","
","""event"",""trial"",""time""
""fullscreenenter"",""1"",""17835""
","
",,null,run_exp/static/images/task_images/barrel_text.jpg,null,,,,,,,,,,,,,,,,,,,,,,,,
decision_prac,46,307741,0.0-15.0-2.0,"""event"",""trial"",""time""
""fullscreenenter"",""1"",""17835""
","
","
","""event"",""trial"",""time""
""fullscreenenter"",""1"",""17835""
","
",,1218.1,run_exp/static/images/task_images/land.jpg,65,,,,,,,,,,,4,,,,,,,,,,,,,
dig_prac,47,309758,0.0-16.0-0.0,"""event"",""trial"",""time""
""fullscreenenter"",""1"",""17835""
","
","
","""event"",""trial"",""time""
""fullscreenenter"",""1"",""17835""
","
",,,,,,,,,,,,"[{""stimulus"":""run_exp/static/images/task_images/dig.jpg"",""time"":1.6999999999534339},{""stimulus"":""run_exp/static/images/task_images/land.jpg"",""time"":672.9000000000233},{""stimulus"":""run_exp/static/images/task_images/dig.jpg"",""time"":1341.1999999999534}]",[],,,,,,,,,,,,,,,
harvest_prac,48,310766,0.0-16.0-1.0,"""event"",""trial"",""time""
""fullscreenenter"",""1"",""17835""
","
","
","""event"",""trial"",""time""
""fullscreenenter"",""1"",""17835""
","
",,null,run_exp/static/images/task_images/barrel_text.jpg,null,,,,,,,,,,,,,,,,,,,,,,,,
decision_prac,49,311596,0.0-16.0-2.0,"""event"",""trial"",""time""
""fullscreenenter"",""1"",""17835""
","
","
","""event"",""trial"",""time""
""fullscreenenter"",""1"",""17835""
","
",,825.8,run_exp/static/images/task_images/land.jpg,65,,,,,,,,,,,,1,,,,,,,,,,,,
quiz_instruc,50,322301,0.0-17.0-0.0,"""event"",""trial"",""time""
""fullscreenenter"",""1"",""17835""
","
","
","""event"",""trial"",""time""
""fullscreenenter"",""1"",""17835""
","
",,10686.9,run_exp/static/audio/clip_10_quiz.m4a,,,,,,,0,,,,,,,,,,,,,,,,,,
instruc_repeat,51,365437,0.0-17.0-1.0,"""event"",""trial"",""time""
""fullscreenenter"",""1"",""17835""
","
","
","""event"",""trial"",""time""
""fullscreenenter"",""1"",""17835""
","
",,null,"<p> Are you ready to play a practice game? </p> <p>In this practice game, you'll be digging up barrels of gems. But, in the real game, you'll be digging up the gems themselves. </p>",null,"<p>In this game, your goal is to collect as many gems as you can. That’s how you will win bonus money. </p> <p>The entire game will last 20 minutes no matter how many gems you collect or how many planets you visit. </p><p>To stay on a planet and dig again, press the letter A on your keyboard. To leave for a new planet, press the letter L.</p><p>The more you dig on a planet, the fewer gems you’ll get with each dig which is why you might consider leaving for a new planet. </p><p>When you arrive at a new planet, you’ll be greeted by an alien. What the alien looks like does not tell you anything about how much treasure is on the planet. </p>",,,,,,,,,,,,,,,,,,,,,,,
instruc_repeat_continue,52,387064,0.0-17.0-2.0,"""event"",""trial"",""time""
""fullscreenenter"",""1"",""17835""
","
","
","""event"",""trial"",""time""
""fullscreenenter"",""1"",""17835""
","
",,21619.8,"<p> Are you ready to play a practice game? </p> <p>In this practice game, you'll be digging up barrels of gems. But, in the real game, you'll be digging up the gems themselves. </p>",,,,,,,0,,,,,,,,,,,,,,,,,,
quiz_q_1_ask,53,398638,0.0-17.0-3.0,"""event"",""trial"",""time""
""fullscreenenter"",""1"",""17835""
","
","
","""event"",""trial"",""time""
""fullscreenenter"",""1"",""17835""
","
",,11568.9,run_exp/static/audio/clip_11_q1_ask.m4a,,,,,,,2,,,,,,,,,,,,,,,,,,
quiz_q_1_fb_correct,54,402840,0.0-18.0-0.0,"""event"",""trial"",""time""
""fullscreenenter"",""1"",""17835""
","
","
","""event"",""trial"",""time""
""fullscreenenter"",""1"",""17835""
","
",,null,run_exp/static/audio/clip_12_q1_correct.m4a,null,<p>That’s correct. You win extra money by collecting more gems.</p>,,,,,,,,,,,,,,,,,,,,,,,
quiz_q_2_ask,55,414885,0.0-18.0-1.0,"""event"",""trial"",""time""
""fullscreenenter"",""1"",""17835""
","
","
","""event"",""trial"",""time""
""fullscreenenter"",""1"",""17835""
","
",,12040,run_exp/static/audio/clip_14_q2_ask.m4a,,,,,,,1,,,,,,,,,,,,,,,,,,
quiz_q_2_fb_correct,56,419096,0.0-19.0-0.0,"""event"",""trial"",""time""
""fullscreenenter"",""1"",""17835""
","
","
","""event"",""trial"",""time""
""fullscreenenter"",""1"",""17835""
","
",,null,run_exp/static/audio/clip_15_q2_correct.m4a,null,<p>That’s correct. The experiment is 20 minutes no matter what.</p>,,,,,,,,,,,,,,,,,,,,,,,
quiz_q_3_ask,57,423726,0.0-19.0-1.0,"""event"",""trial"",""time""
""fullscreenenter"",""1"",""17835""
","
","
","""event"",""trial"",""time""
""fullscreenenter"",""1"",""17835""
","
",,4626.5,run_exp/static/audio/clip_17_q3_ask.m4a,,,,,,,1,,,,,,,,,,,,,,,,,,
quiz_q_3_fb_correct,58,428055,0.0-20.0-0.0,"""event"",""trial"",""time""
""fullscreenenter"",""1"",""17835""
","
","
","""event"",""trial"",""time""
""fullscreenenter"",""1"",""17835""
","
",,null,run_exp/static/audio/clip_18_q3_correct.m4a,null,<p> That’s correct. You press the letter L to travel to a new planet.</p>,,,,,,,,,,,,,,,,,,,,,,,
quiz_q_4_ask,59,433403,0.0-20.0-1.0,"""event"",""trial"",""time""
""fullscreenenter"",""1"",""17835""
","
","
","""event"",""trial"",""time""
""fullscreenenter"",""1"",""17835""
","
",,5344,run_exp/static/audio/clip_20_q4_ask.m4a,,,,,,,0,,,,,,,,,,,,,,,,,,
quiz_q_4_fb_correct,60,438935,0.0-21.0-0.0,"""event"",""trial"",""time""
""fullscreenenter"",""1"",""17835""
","
","
","""event"",""trial"",""time""
""fullscreenenter"",""1"",""17835""
","
",,null,run_exp/static/audio/clip_21_q4_correct.m4a,null,<p> That’s correct. The more you dig on a planet the fewer gems you’ll get with each dig. </p>,,,,,,,,,,,,,,,,,,,,,,,
quiz_q_5_ask,61,444548,0.0-21.0-1.0,"""event"",""trial"",""time""
""fullscreenenter"",""1"",""17835""
","
","
","""event"",""trial"",""time""
""fullscreenenter"",""1"",""17835""
","
",,5607.5,run_exp/static/audio/clip_23_q5_ask.m4a,,,,,,,1,,,,,,,,,,,,,,,,,,
quiz_q_5_fb_correct,62,449944,0.0-22.0-0.0,"""event"",""trial"",""time""
""fullscreenenter"",""1"",""17835""
","
","
","""event"",""trial"",""time""
""fullscreenenter"",""1"",""17835""
","
",,null,run_exp/static/audio/clip_24_q5_correct.m4a,null,<p> That’s correct. The alien tells you nothing about how much treasure is on the planet.</p>,,,,,,,,,,,,,,,,,,,,,,,
quiz_correct,63,453784,0.0-23.0-0.0,"""event"",""trial"",""time""
""fullscreenenter"",""1"",""17835""
","
","
","""event"",""trial"",""time""
""fullscreenenter"",""1"",""17835""
","
",,null,run_exp/static/audio/clip_26_correct_quiz.m4a,null,,,,,,,,,,,,,,,,,,,,,,,,
quiz_correct_continue,64,468866,0.0-23.0-1.0,"""event"",""trial"",""time""
""fullscreenenter"",""1"",""17835""
","
","
","""event"",""trial"",""time""
""fullscreenenter"",""1"",""17835""
","
",,15078.3,<p>Good job! You're now ready to move on to the real game!</p>,,,,,,,0,,,,,,,,,,,,,,,,,,
audio-keyboard-response,65,479126,0.0-23.0-2.0,"""event"",""trial"",""time""
""fullscreenenter"",""1"",""17835""
","
","
","""event"",""trial"",""time""
""fullscreenenter"",""1"",""17835""
","
",,null,run_exp/static/audio/clip_28_real_game.m4a,null,,,,,,,,,,,,,,,,,,,,,,,,
instruc_begin_exp_contine,66,480866,0.0-23.0-3.0,"""event"",""trial"",""time""
""fullscreenenter"",""1"",""17835""
","
","
","""event"",""trial"",""time""
""fullscreenenter"",""1"",""17835""
","
",,1734.9,"<p>Now that you know how  to dig for space treasure and travel to new planets,you can start exploring! </p><p>Do you want to go over the instructions again or get started with the real game?</p>",,,,,,,1,,,,,,1,,,,,,,,,,,,
alien_welcome,67,485878,0.0-24.0-0.0,"""event"",""trial"",""time""
""fullscreenenter"",""1"",""17835""
","
","
","""event"",""trial"",""time""
""fullscreenenter"",""1"",""17835""
","
",,null,run_exp/static/images/task_images/aliens/old_aliens/planet/alien_planet-53.jpg,null,,,,,,,,,,,,,53,"53,44,35,52,34,28,7,18,42,67,61,4,68,64,17,41,79,74,33,72,5,78,8,20,76,55,31,46,36,70,21,66,32,45,63,39,3,56,37,77",,,,,,,,,,
land,68,486391,0.0-24.0-1.0,"""event"",""trial"",""time""
""fullscreenenter"",""1"",""17835""
","
","
","""event"",""trial"",""time""
""fullscreenenter"",""1"",""17835""
","
",,null,run_exp/static/images/task_images/land.jpg,null,,,,,,,95,,,1,,,,,,,,,,,,,,
dig,69,488406,0.0-24.0-2.0,"""event"",""trial"",""time""
""fullscreenenter"",""1"",""17835""
","
","
","""event"",""trial"",""time""
""fullscreenenter"",""1"",""17835""
","
",,,,,,,,,,,,"[{""stimulus"":""run_exp/static/images/task_images/dig.jpg"",""time"":1},{""stimulus"":""run_exp/static/images/task_images/land.jpg"",""time"":673.6000000000931},{""stimulus"":""run_exp/static/images/task_images/dig.jpg"",""time"":1339}]",[],1,,,,,,,,,,,,,,
harvest,70,489414,0.0-24.0-3.0,"""event"",""trial"",""time""
""fullscreenenter"",""1"",""17835""
","
","
","""event"",""trial"",""time""
""fullscreenenter"",""1"",""17835""
","
",,null,run_exp/static/images/task_images/gems/95.jpg,null,,,,,,,17,,,1,,,,,95,0.181818949,0.178947368,,,,,,,
decision,71,490046,0.0-24.0-4.0,"""event"",""trial"",""time""
""fullscreenenter"",""1"",""17835""
","
","
","""event"",""trial"",""time""
""fullscreenenter"",""1"",""17835""
","
",,626.3,run_exp/static/images/task_images/land.jpg,65,,,,,,,17,,,1,,,,,,,,9175,1,0,FALSE,,,
dig,72,492439,0.0-25.0-0.0,"""event"",""trial"",""time""
""fullscreenenter"",""1"",""17835""
","
","
","""event"",""trial"",""time""
""fullscreenenter"",""1"",""17835""
","
",,,,,,,,,,,,"[{""stimulus"":""run_exp/static/images/task_images/dig.jpg"",""time"":1.3000000000465661},{""stimulus"":""run_exp/static/images/task_images/land.jpg"",""time"":800.8999999999069},{""stimulus"":""run_exp/static/images/task_images/dig.jpg"",""time"":1593.3999999999069}]",[],1,,,,,,,,,,,,,,
harvest,73,493446,0.0-25.0-1.0,"""event"",""trial"",""time""
""fullscreenenter"",""1"",""17835""
","
","
","""event"",""trial"",""time""
""fullscreenenter"",""1"",""17835""
","
",,null,run_exp/static/images/task_images/gems/17.jpg,null,,,,,,,5,,,1,,,,,17,0.291193395,0.294117647,,,,,,,
decision,74,494865,0.0-25.0-2.0,"""event"",""trial"",""time""
""fullscreenenter"",""1"",""17835""
","
","
","""event"",""trial"",""time""
""fullscreenenter"",""1"",""17835""
","
",,1414.7,run_exp/static/images/task_images/land.jpg,65,,,,,,,5,,,1,,,,,,,,13994,1,1,FALSE,,,
dig,75,496470,0.0-26.0-0.0,"""event"",""trial"",""time""
""fullscreenenter"",""1"",""17835""
","
","
","""event"",""trial"",""time""
""fullscreenenter"",""1"",""17835""
","
",,,,,,,,,,,,"[{""stimulus"":""run_exp/static/images/task_images/dig.jpg"",""time"":1},{""stimulus"":""run_exp/static/images/task_images/land.jpg"",""time"":536.1000000000931},{""stimulus"":""run_exp/static/images/task_images/dig.jpg"",""time"":1064.5}]",[],1,,,,,,,,,,,,,,
harvest,76,497478,0.0-26.0-1.0,"""event"",""trial"",""time""
""fullscreenenter"",""1"",""17835""
","
","
","""event"",""trial"",""time""
""fullscreenenter"",""1"",""17835""
","
",,null,run_exp/static/images/task_images/gems/5.jpg,null,,,,,,,1,,,1,,,,,5,0.141374337,0.2,,,,,,,
decision,77,499103,0.0-26.0-2.0,"""event"",""trial"",""time""
""fullscreenenter"",""1"",""17835""
","
","
","""event"",""trial"",""time""
""fullscreenenter"",""1"",""17835""
","
",,1620.5,run_exp/static/images/task_images/land.jpg,76,,,,,,,1,,,1,,,,,,,,18232,1,2,TRUE,,,
travel,78,507503,0.0-27.0-0.0,"""event"",""trial"",""time""
""fullscreenenter"",""1"",""17835""
","
","
","""event"",""trial"",""time""
""fullscreenenter"",""1"",""17835""
","
",,,,,,,,,,,,"[{""stimulus"":""run_exp/static/images/task_images/rocket-01.jpg"",""time"":1},{""stimulus"":""run_exp/static/images/task_images/rocket-02.jpg"",""time"":939.2999999998137},{""stimulus"":""run_exp/static/images/task_images/rocket-03.jpg"",""time"":1867.6999999999534},{""stimulus"":""run_exp/static/images/task_images/rocket-04.jpg"",""time"":2803.5999999998603},{""stimulus"":""run_exp/static/images/task_images/rocket-05.jpg"",""time"":3731.1999999999534},{""stimulus"":""run_exp/static/images/task_images/rocket-06.jpg"",""time"":4660.299999999814},{""stimulus"":""run_exp/static/images/task_images/rocket-07.jpg"",""time"":5595.299999999814},{""stimulus"":""run_exp/static/images/task_images/rocket-08.jpg"",""time"":6523.5},{""stimulus"":""run_exp/static/images/task_images/rocket-09.jpg"",""time"":7459.699999999953}]",[],1,,,,,,,,,,,,,,
alien_welcome,79,512511,0.0-27.0-1.0,"""event"",""trial"",""time""
""fullscreenenter"",""1"",""17835""
","
","
","""event"",""trial"",""time""
""fullscreenenter"",""1"",""17835""
","
",,null,run_exp/static/images/task_images/aliens/old_aliens/planet/alien_planet-44.jpg,null,,,,,,,,,,,,,44,"53,44,35,52,34,28,7,18,42,67,61,4,68,64,17,41,79,74,33,72,5,78,8,20,76,55,31,46,36,70,21,66,32,45,63,39,3,56,37,77",,,,,,,,,,
land,80,513022,0.0-27.0-2.0,"""event"",""trial"",""time""
""fullscreenenter"",""1"",""17835""
","
","
","""event"",""trial"",""time""
""fullscreenenter"",""1"",""17835""
","
",,null,run_exp/static/images/task_images/land.jpg,null,,,,,,,94,,,2,,,,,,,,,,,,,,
dig,81,515039,0.0-27.0-3.0,"""event"",""trial"",""time""
""fullscreenenter"",""1"",""17835""
","
","
","""event"",""trial"",""time""
""fullscreenenter"",""1"",""17835""
","
",,,,,,,,,,,,"[{""stimulus"":""run_exp/static/images/task_images/dig.jpg"",""time"":1},{""stimulus"":""run_exp/static/images/task_images/land.jpg"",""time"":675.1999999999534},{""stimulus"":""run_exp/static/images/task_images/dig.jpg"",""time"":1339.1999999999534}]",[],2,,,,,,,,,,,,,,
harvest,82,516047,0.0-27.0-4.0,"""event"",""trial"",""time""
""fullscreenenter"",""1"",""17835""
","
","
","""event"",""trial"",""time""
""fullscreenenter"",""1"",""17835""
","
",,null,run_exp/static/images/task_images/gems/94.jpg,null,,,,,,,12,,,2,,,,,94,0.125892685,0.127659574,,,,,,,
decision,83,516598,0.0-27.0-5.0,"""event"",""trial"",""time""
""fullscreenenter"",""1"",""17835""
","
","
","""event"",""trial"",""time""
""fullscreenenter"",""1"",""17835""
","
",,546.9,run_exp/static/images/task_images/land.jpg,65,,,,,,,12,,,2,,,,,,,,35728,1,0,FALSE,,,
dig,84,519070,0.0-28.0-0.0,"""event"",""trial"",""time""
""fullscreenenter"",""1"",""17835""
","
","
","""event"",""trial"",""time""
""fullscreenenter"",""1"",""17835""
","
",,,,,,,,,,,,"[{""stimulus"":""run_exp/static/images/task_images/dig.jpg"",""time"":1},{""stimulus"":""run_exp/static/images/task_images/land.jpg"",""time"":827.8000000000466},{""stimulus"":""run_exp/static/images/task_images/dig.jpg"",""time"":1643.5}]",[],2,,,,,,,,,,,,,,
harvest,85,520079,0.0-28.0-1.0,"""event"",""trial"",""time""
""fullscreenenter"",""1"",""17835""
","
","
","""event"",""trial"",""time""
""fullscreenenter"",""1"",""17835""
","
",,null,run_exp/static/images/task_images/gems/12.jpg,null,,,,,,,3,,,2,,,,,12,0.210960784,0.25,,,,,,,
decision,86,520777,0.0-28.0-2.0,"""event"",""trial"",""time""
""fullscreenenter"",""1"",""17835""
","
","
","""event"",""trial"",""time""
""fullscreenenter"",""1"",""17835""
","
",,695.2,run_exp/static/images/task_images/land.jpg,65,,,,,,,3,,,2,,,,,,,,39907,1,1,FALSE,,,
dig,87,523094,0.0-29.0-0.0,"""event"",""trial"",""time""
""fullscreenenter"",""1"",""17835""
","
","
","""event"",""trial"",""time""
""fullscreenenter"",""1"",""17835""
","
",,,,,,,,,,,,"[{""stimulus"":""run_exp/static/images/task_images/dig.jpg"",""time"":0.8000000000465661},{""stimulus"":""run_exp/static/images/task_images/land.jpg"",""time"":773.5},{""stimulus"":""run_exp/static/images/task_images/dig.jpg"",""time"":1540.6999999999534}]",[],2,,,,,,,,,,,,,,
harvest,88,524102,0.0-29.0-1.0,"""event"",""trial"",""time""
""fullscreenenter"",""1"",""17835""
","
","
","""event"",""trial"",""time""
""fullscreenenter"",""1"",""17835""
","
",,null,run_exp/static/images/task_images/gems/3.jpg,null,,,,,,,1,,,2,,,,,3,0.299704233,0.333333333,,,,,,,
decision,89,524577,0.0-29.0-2.0,"""event"",""trial"",""time""
""fullscreenenter"",""1"",""17835""
","
","
","""event"",""trial"",""time""
""fullscreenenter"",""1"",""17835""
","
",,470.5,run_exp/static/images/task_images/land.jpg,76,,,,,,,1,,,2,,,,,,,,43706,1,2,TRUE,,,
travel,90,534119,0.0-30.0-0.0,"""event"",""trial"",""time""
""fullscreenenter"",""1"",""17835""
","
","
","""event"",""trial"",""time""
""fullscreenenter"",""1"",""17835""
","
",,,,,,,,,,,,"[{""stimulus"":""run_exp/static/images/task_images/rocket-01.jpg"",""time"":1},{""stimulus"":""run_exp/static/images/task_images/rocket-02.jpg"",""time"":1064.9000000001397},{""stimulus"":""run_exp/static/images/task_images/rocket-03.jpg"",""time"":2121.600000000093},{""stimulus"":""run_exp/static/images/task_images/rocket-04.jpg"",""time"":3185.600000000093},{""stimulus"":""run_exp/static/images/task_images/rocket-05.jpg"",""time"":4241.600000000093},{""stimulus"":""run_exp/static/images/task_images/rocket-06.jpg"",""time"":5297.90000000014},{""stimulus"":""run_exp/static/images/task_images/rocket-07.jpg"",""time"":6353.90000000014},{""stimulus"":""run_exp/static/images/task_images/rocket-08.jpg"",""time"":7417.800000000047},{""stimulus"":""run_exp/static/images/task_images/rocket-09.jpg"",""time"":8473.300000000047}]",[],2,,,,,,,,,,,,,,
alien_welcome,91,539126,0.0-30.0-1.0,"""event"",""trial"",""time""
""fullscreenenter"",""1"",""17835""
","
","
","""event"",""trial"",""time""
""fullscreenenter"",""1"",""17835""
","
",,null,run_exp/static/images/task_images/aliens/old_aliens/planet/alien_planet-35.jpg,null,,,,,,,,,,,,,35,"53,44,35,52,34,28,7,18,42,67,61,4,68,64,17,41,79,74,33,72,5,78,8,20,76,55,31,46,36,70,21,66,32,45,63,39,3,56,37,77",,,,,,,,,,
land,92,539631,0.0-30.0-2.0,"""event"",""trial"",""time""
""fullscreenenter"",""1"",""17835""
","
","
","""event"",""trial"",""time""
""fullscreenenter"",""1"",""17835""
","
",,null,run_exp/static/images/task_images/land.jpg,null,,,,,,,95,,,3,,,,,,,,,,,,,,
dig,93,541646,0.0-30.0-3.0,"""event"",""trial"",""time""
""fullscreenenter"",""1"",""17835""
","
","
","""event"",""trial"",""time""
""fullscreenenter"",""1"",""17835""
","
",,,,,,,,,,,,"[{""stimulus"":""run_exp/static/images/task_images/dig.jpg"",""time"":1},{""stimulus"":""run_exp/static/images/task_images/land.jpg"",""time"":675.5},{""stimulus"":""run_exp/static/images/task_images/dig.jpg"",""time"":1341.9000000001397}]",[],3,,,,,,,,,,,,,,
harvest,94,542655,0.0-30.0-4.0,"""event"",""trial"",""time""
""fullscreenenter"",""1"",""17835""
","
","
","""event"",""trial"",""time""
""fullscreenenter"",""1"",""17835""
","
",,null,run_exp/static/images/task_images/gems/95.jpg,null,,,,,,,51,,,3,,,,,95,0.53558939,0.536842105,,,,,,,
decision,95,543153,0.0-30.0-5.0,"""event"",""trial"",""time""
""fullscreenenter"",""1"",""17835""
","
","
","""event"",""trial"",""time""
""fullscreenenter"",""1"",""17835""
","
",,494,run_exp/static/images/task_images/land.jpg,65,,,,,,,51,,,3,,,,,,,,62282,1,0,FALSE,,,
dig,96,545670,0.0-31.0-0.0,"""event"",""trial"",""time""
""fullscreenenter"",""1"",""17835""
","
","
","""event"",""trial"",""time""
""fullscreenenter"",""1"",""17835""
","
",,,,,,,,,,,,"[{""stimulus"":""run_exp/static/images/task_images/dig.jpg"",""time"":0.6000000000931323},{""stimulus"":""run_exp/static/images/task_images/land.jpg"",""time"":840.5},{""stimulus"":""run_exp/static/images/task_images/dig.jpg"",""time"":1679.6999999999534}]",[],3,,,,,,,,,,,,,,
harvest,97,546678,0.0-31.0-1.0,"""event"",""trial"",""time""
""fullscreenenter"",""1"",""17835""
","
","
","""event"",""trial"",""time""
""fullscreenenter"",""1"",""17835""
","
",,null,run_exp/static/images/task_images/gems/51.jpg,null,,,,,,,24,,,3,,,,,51,0.465696458,0.470588235,,,,,,,
decision,98,547341,0.0-31.0-2.0,"""event"",""trial"",""time""
""fullscreenenter"",""1"",""17835""
","
","
","""event"",""trial"",""time""
""fullscreenenter"",""1"",""17835""
","
",,659.4,run_exp/static/images/task_images/land.jpg,65,,,,,,,24,,,3,,,,,,,,66470,1,1,FALSE,,,
dig,99,549702,0.0-32.0-0.0,"""event"",""trial"",""time""
""fullscreenenter"",""1"",""17835""
","
","
","""event"",""trial"",""time""
""fullscreenenter"",""1"",""17835""
","
",,,,,,,,,,,,"[{""stimulus"":""run_exp/static/images/task_images/dig.jpg"",""time"":1},{""stimulus"":""run_exp/static/images/task_images/land.jpg"",""time"":786.5999999998603},{""stimulus"":""run_exp/static/images/task_images/dig.jpg"",""time"":1570.5}]",[],3,,,,,,,,,,,,,,
harvest,100,550712,0.0-32.0-1.0,"""event"",""trial"",""time""
""fullscreenenter"",""1"",""17835""
","
","
","""event"",""trial"",""time""
""fullscreenenter"",""1"",""17835""
","
",,null,run_exp/static/images/task_images/gems/24.jpg,null,,,,,,,12,,,3,,,,,24,0.504399907,0.5,,,,,,,
decision,101,551046,0.0-32.0-2.0,"""event"",""trial"",""time""
""fullscreenenter"",""1"",""17835""
","
","
","""event"",""trial"",""time""
""fullscreenenter"",""1"",""17835""
","
",,329.7,run_exp/static/images/task_images/land.jpg,65,,,,,,,12,,,3,,,,,,,,70175,1,2,FALSE,,,
dig,102,553734,0.0-33.0-0.0,"""event"",""trial"",""time""
""fullscreenenter"",""1"",""17835""
","
","
","""event"",""trial"",""time""
""fullscreenenter"",""1"",""17835""
","
",,,,,,,,,,,,"[{""stimulus"":""run_exp/static/images/task_images/dig.jpg"",""time"":1},{""stimulus"":""run_exp/static/images/task_images/land.jpg"",""time"":899.8000000000466},{""stimulus"":""run_exp/static/images/task_images/dig.jpg"",""time"":1788}]",[],3,,,,,,,,,,,,,,
harvest,103,554742,0.0-33.0-1.0,"""event"",""trial"",""time""
""fullscreenenter"",""1"",""17835""
","
","
","""event"",""trial"",""time""
""fullscreenenter"",""1"",""17835""
","
",,null,run_exp/static/images/task_images/gems/12.jpg,null,,,,,,,7,,,3,,,,,12,0.550083956,0.583333333,,,,,,,
decision,104,555375,0.0-33.0-2.0,"""event"",""trial"",""time""
""fullscreenenter"",""1"",""17835""
","
","
","""event"",""trial"",""time""
""fullscreenenter"",""1"",""17835""
","
",,628.8,run_exp/static/images/task_images/land.jpg,65,,,,,,,7,,,3,,,,,,,,74504,1,3,FALSE,,,
dig,105,557758,0.0-34.0-0.0,"""event"",""trial"",""time""
""fullscreenenter"",""1"",""17835""
","
","
","""event"",""trial"",""time""
""fullscreenenter"",""1"",""17835""
","
",,,,,,,,,,,,"[{""stimulus"":""run_exp/static/images/task_images/dig.jpg"",""time"":1},{""stimulus"":""run_exp/static/images/task_images/land.jpg"",""time"":798.5999999998603},{""stimulus"":""run_exp/static/images/task_images/dig.jpg"",""time"":1590.8999999999069}]",[],3,,,,,,,,,,,,,,
harvest,106,558766,0.0-34.0-1.0,"""event"",""trial"",""time""
""fullscreenenter"",""1"",""17835""
","
","
","""event"",""trial"",""time""
""fullscreenenter"",""1"",""17835""
","
",,null,run_exp/static/images/task_images/gems/7.jpg,null,,,,,,,4,,,3,,,,,7,0.55089137,0.571428571,,,,,,,
decision,107,559393,0.0-34.0-2.0,"""event"",""trial"",""time""
""fullscreenenter"",""1"",""17835""
","
","
","""event"",""trial"",""time""
""fullscreenenter"",""1"",""17835""
","
",,621.9,run_exp/static/images/task_images/land.jpg,65,,,,,,,4,,,3,,,,,,,,78522,1,4,FALSE,,,
dig,108,561791,0.0-35.0-0.0,"""event"",""trial"",""time""
""fullscreenenter"",""1"",""17835""
","
","
","""event"",""trial"",""time""
""fullscreenenter"",""1"",""17835""
","
",,,,,,,,,,,,"[{""stimulus"":""run_exp/static/images/task_images/dig.jpg"",""time"":1.0999999998603016},{""stimulus"":""run_exp/static/images/task_images/land.jpg"",""time"":801.3999999999069},{""stimulus"":""run_exp/static/images/task_images/dig.jpg"",""time"":1592.8000000000466}]",[],3,,,,,,,,,,,,,,
harvest,109,562798,0.0-35.0-1.0,"""event"",""trial"",""time""
""fullscreenenter"",""1"",""17835""
","
","
","""event"",""trial"",""time""
""fullscreenenter"",""1"",""17835""
","
",,null,run_exp/static/images/task_images/gems/4.jpg,null,,,,,,,2,,,3,,,,,4,0.502912422,0.5,,,,,,,
decision,110,563187,0.0-35.0-2.0,"""event"",""trial"",""time""
""fullscreenenter"",""1"",""17835""
","
","
","""event"",""trial"",""time""
""fullscreenenter"",""1"",""17835""
","
",,384.3,run_exp/static/images/task_images/land.jpg,65,,,,,,,2,,,3,,,,,,,,82316,1,5,FALSE,,,
dig,111,565822,0.0-36.0-0.0,"""event"",""trial"",""time""
""fullscreenenter"",""1"",""17835""
","
","
","""event"",""trial"",""time""
""fullscreenenter"",""1"",""17835""
","
",,,,,,,,,,,,"[{""stimulus"":""run_exp/static/images/task_images/dig.jpg"",""time"":1},{""stimulus"":""run_exp/static/images/task_images/land.jpg"",""time"":877.5},{""stimulus"":""run_exp/static/images/task_images/dig.jpg"",""time"":1749.2999999998137}]",[],3,,,,,,,,,,,,,,
harvest,112,566830,0.0-36.0-1.0,"""event"",""trial"",""time""
""fullscreenenter"",""1"",""17835""
","
","
","""event"",""trial"",""time""
""fullscreenenter"",""1"",""17835""
","
",,null,run_exp/static/images/task_images/gems/2.jpg,null,,,,,,,1,,,3,,,,,2,0.477079267,0.5,,,,,,,
decision,113,567320,0.0-36.0-2.0,"""event"",""trial"",""time""
""fullscreenenter"",""1"",""17835""
","
","
","""event"",""trial"",""time""
""fullscreenenter"",""1"",""17835""
","
",,485.4,run_exp/static/images/task_images/land.jpg,65,,,,,,,1,,,3,,,,,,,,86449,1,6,FALSE,,,
dig,114,569855,0.0-37.0-0.0,"""event"",""trial"",""time""
""fullscreenenter"",""1"",""17835""
","
","
","""event"",""trial"",""time""
""fullscreenenter"",""1"",""17835""
","
",,,,,,,,,,,,"[{""stimulus"":""run_exp/static/images/task_images/dig.jpg"",""time"":1.1000000000931323},{""stimulus"":""run_exp/static/images/task_images/land.jpg"",""time"":842.3999999999069},{""stimulus"":""run_exp/static/images/task_images/dig.jpg"",""time"":1683.1999999999534}]",[],3,,,,,,,,,,,,,,
harvest,115,570863,0.0-37.0-1.0,"""event"",""trial"",""time""
""fullscreenenter"",""1"",""17835""
","
","
","""event"",""trial"",""time""
""fullscreenenter"",""1"",""17835""
","
",,null,run_exp/static/images/task_images/gems/1.jpg,null,,,,,,,0,,,3,,,,,1,0.423549516,0,,,,,,,
decision,116,571391,0.0-37.0-2.0,"""event"",""trial"",""time""
""fullscreenenter"",""1"",""17835""
","
","
","""event"",""trial"",""time""
""fullscreenenter"",""1"",""17835""
","
",,520.4,run_exp/static/images/task_images/land.jpg,65,,,,,,,0,,,3,,,,,,,,90520,1,7,FALSE,,,
dig,117,573894,0.0-38.0-0.0,"""event"",""trial"",""time""
""fullscreenenter"",""1"",""17835""
","
","
","""event"",""trial"",""time""
""fullscreenenter"",""1"",""17835""
","
",,,,,,,,,,,,"[{""stimulus"":""run_exp/static/images/task_images/dig.jpg"",""time"":1},{""stimulus"":""run_exp/static/images/task_images/land.jpg"",""time"":833.5},{""stimulus"":""run_exp/static/images/task_images/dig.jpg"",""time"":1657.5}]",[],3,,,,,,,,,,,,,,
harvest,118,574902,0.0-38.0-1.0,"""event"",""trial"",""time""
""fullscreenenter"",""1"",""17835""
","
","
","""event"",""trial"",""time""
""fullscreenenter"",""1"",""17835""
","
",,null,run_exp/static/images/task_images/gems/0.jpg,null,,,,,,,0,,,3,,,,,0,0.49198145,NaN,,,,,,,
decision,119,576602,0.0-38.0-2.0,"""event"",""trial"",""time""
""fullscreenenter"",""1"",""17835""
","
","
","""event"",""trial"",""time""
""fullscreenenter"",""1"",""17835""
","
",,1694,run_exp/static/images/task_images/land.jpg,76,,,,,,,0,,,3,,,,,,,,95731,1,8,TRUE,,,
travel,120,584919,0.0-39.0-0.0,"""event"",""trial"",""time""
""fullscreenenter"",""1"",""17835""
","
","
","""event"",""trial"",""time""
""fullscreenenter"",""1"",""17835""
","
",,,,,,,,,,,,"[{""stimulus"":""run_exp/static/images/task_images/rocket-01.jpg"",""time"":0.6999999999534339},{""stimulus"":""run_exp/static/images/task_images/rocket-02.jpg"",""time"":930.0999999998603},{""stimulus"":""run_exp/static/images/task_images/rocket-03.jpg"",""time"":1849.0999999998603},{""stimulus"":""run_exp/static/images/task_images/rocket-04.jpg"",""time"":2769.5},{""stimulus"":""run_exp/static/images/task_images/rocket-05.jpg"",""time"":3698.2999999998137},{""stimulus"":""run_exp/static/images/task_images/rocket-06.jpg"",""time"":4618.399999999907},{""stimulus"":""run_exp/static/images/task_images/rocket-07.jpg"",""time"":5538.09999999986},{""stimulus"":""run_exp/static/images/task_images/rocket-08.jpg"",""time"":6458.299999999814},{""stimulus"":""run_exp/static/images/task_images/rocket-09.jpg"",""time"":7385.5}]",[],3,,,,,,,,,,,,,,
alien_welcome,121,589926,0.0-39.0-1.0,"""event"",""trial"",""time""
""fullscreenenter"",""1"",""17835""
","
","
","""event"",""trial"",""time""
""fullscreenenter"",""1"",""17835""
","
",,null,run_exp/static/images/task_images/aliens/old_aliens/planet/alien_planet-52.jpg,null,,,,,,,,,,,,,52,"53,44,35,52,34,28,7,18,42,67,61,4,68,64,17,41,79,74,33,72,5,78,8,20,76,55,31,46,36,70,21,66,32,45,63,39,3,56,37,77",,,,,,,,,,
land,122,590431,0.0-39.0-2.0,"""event"",""trial"",""time""
""fullscreenenter"",""1"",""17835""
","
","
","""event"",""trial"",""time""
""fullscreenenter"",""1"",""17835""
","
",,null,run_exp/static/images/task_images/land.jpg,null,,,,,,,98,,,4,,,,,,,,,,,,,,
dig,123,592446,0.0-39.0-3.0,"""event"",""trial"",""time""
""fullscreenenter"",""1"",""17835""
","
","
","""event"",""trial"",""time""
""fullscreenenter"",""1"",""17835""
","
",,,,,,,,,,,,"[{""stimulus"":""run_exp/static/images/task_images/dig.jpg"",""time"":1},{""stimulus"":""run_exp/static/images/task_images/land.jpg"",""time"":675.1999999999534},{""stimulus"":""run_exp/static/images/task_images/dig.jpg"",""time"":1339}]",[],4,,,,,,,,,,,,,,
harvest,124,593455,0.0-39.0-4.0,"""event"",""trial"",""time""
""fullscreenenter"",""1"",""17835""
","
","
","""event"",""trial"",""time""
""fullscreenenter"",""1"",""17835""
","
",,null,run_exp/static/images/task_images/gems/98.jpg,null,,,,,,,58,,,4,,,,,98,0.586820969,0.591836735,,,,,,,
decision,125,594042,0.0-39.0-5.0,"""event"",""trial"",""time""
""fullscreenenter"",""1"",""17835""
","
","
","""event"",""trial"",""time""
""fullscreenenter"",""1"",""17835""
","
",,584.4,run_exp/static/images/task_images/land.jpg,65,,,,,,,58,,,4,,,,,,,,113171,1,0,FALSE,,,
dig,126,596479,0.0-40.0-0.0,"""event"",""trial"",""time""
""fullscreenenter"",""1"",""17835""
","
","
","""event"",""trial"",""time""
""fullscreenenter"",""1"",""17835""
","
",,,,,,,,,,,,"[{""stimulus"":""run_exp/static/images/task_images/dig.jpg"",""time"":1},{""stimulus"":""run_exp/static/images/task_images/land.jpg"",""time"":815.5},{""stimulus"":""run_exp/static/images/task_images/dig.jpg"",""time"":1615.3999999999069}]",[],4,,,,,,,,,,,,,,
harvest,127,597486,0.0-40.0-1.0,"""event"",""trial"",""time""
""fullscreenenter"",""1"",""17835""
","
","
","""event"",""trial"",""time""
""fullscreenenter"",""1"",""17835""
","
",,null,run_exp/static/images/task_images/gems/58.jpg,null,,,,,,,29,,,4,,,,,58,0.49823013,0.5,,,,,,,
decision,128,598080,0.0-40.0-2.0,"""event"",""trial"",""time""
""fullscreenenter"",""1"",""17835""
","
","
","""event"",""trial"",""time""
""fullscreenenter"",""1"",""17835""
","
",,589.6,run_exp/static/images/task_images/land.jpg,65,,,,,,,29,,,4,,,,,,,,117209,1,1,FALSE,,,
dig,129,600511,0.0-41.0-0.0,"""event"",""trial"",""time""
""fullscreenenter"",""1"",""17835""
","
","
","""event"",""trial"",""time""
""fullscreenenter"",""1"",""17835""
","
",,,,,,,,,,,,"[{""stimulus"":""run_exp/static/images/task_images/dig.jpg"",""time"":1},{""stimulus"":""run_exp/static/images/task_images/land.jpg"",""time"":809},{""stimulus"":""run_exp/static/images/task_images/dig.jpg"",""time"":1616.4000000001397}]",[],4,,,,,,,,,,,,,,
harvest,130,601518,0.0-41.0-1.0,"""event"",""trial"",""time""
""fullscreenenter"",""1"",""17835""
","
","
","""event"",""trial"",""time""
""fullscreenenter"",""1"",""17835""
","
",,null,run_exp/static/images/task_images/gems/29.jpg,null,,,,,,,14,,,4,,,,,29,0.469497163,0.482758621,,,,,,,
decision,131,602350,0.0-41.0-2.0,"""event"",""trial"",""time""
""fullscreenenter"",""1"",""17835""
","
","
","""event"",""trial"",""time""
""fullscreenenter"",""1"",""17835""
","
",,828,run_exp/static/images/task_images/land.jpg,65,,,,,,,14,,,4,,,,,,,,121480,1,2,FALSE,,,
dig,132,604543,0.0-42.0-0.0,"""event"",""trial"",""time""
""fullscreenenter"",""1"",""17835""
","
","
","""event"",""trial"",""time""
""fullscreenenter"",""1"",""17835""
","
",,,,,,,,,,,,"[{""stimulus"":""run_exp/static/images/task_images/dig.jpg"",""time"":0.5999999998603016},{""stimulus"":""run_exp/static/images/task_images/land.jpg"",""time"":730.3999999999069},{""stimulus"":""run_exp/static/images/task_images/dig.jpg"",""time"":1458.0999999998603}]",[],4,,,,,,,,,,,,,,
harvest,133,605550,0.0-42.0-1.0,"""event"",""trial"",""time""
""fullscreenenter"",""1"",""17835""
","
","
","""event"",""trial"",""time""
""fullscreenenter"",""1"",""17835""
","
",,null,run_exp/static/images/task_images/gems/14.jpg,null,,,,,,,8,,,4,,,,,14,0.541609347,0.571428571,,,,,,,
decision,134,605995,0.0-42.0-2.0,"""event"",""trial"",""time""
""fullscreenenter"",""1"",""17835""
","
","
","""event"",""trial"",""time""
""fullscreenenter"",""1"",""17835""
","
",,440.4,run_exp/static/images/task_images/land.jpg,76,,,,,,,8,,,4,,,,,,,,125124,1,3,TRUE,,,
travel,135,615567,0.0-43.0-0.0,"""event"",""trial"",""time""
""fullscreenenter"",""1"",""17835""
","
","
","""event"",""trial"",""time""
""fullscreenenter"",""1"",""17835""
","
",,,,,,,,,,,,"[{""stimulus"":""run_exp/static/images/task_images/rocket-01.jpg"",""time"":0.6000000000931323},{""stimulus"":""run_exp/static/images/task_images/rocket-02.jpg"",""time"":1070.3999999999069},{""stimulus"":""run_exp/static/images/task_images/rocket-03.jpg"",""time"":2135.3000000000466},{""stimulus"":""run_exp/static/images/task_images/rocket-04.jpg"",""time"":3190.1999999999534},{""stimulus"":""run_exp/static/images/task_images/rocket-05.jpg"",""time"":4253.699999999953},{""stimulus"":""run_exp/static/images/task_images/rocket-06.jpg"",""time"":5318.199999999953},{""stimulus"":""run_exp/static/images/task_images/rocket-07.jpg"",""time"":6382.399999999907},{""stimulus"":""run_exp/static/images/task_images/rocket-08.jpg"",""time"":7437.899999999907},{""stimulus"":""run_exp/static/images/task_images/rocket-09.jpg"",""time"":8502.300000000047}]",[],4,,,,,,,,,,,,,,
alien_welcome,136,620575,0.0-43.0-1.0,"""event"",""trial"",""time""
""fullscreenenter"",""1"",""17835""
","
","
","""event"",""trial"",""time""
""fullscreenenter"",""1"",""17835""
","
",,null,run_exp/static/images/task_images/aliens/old_aliens/planet/alien_planet-34.jpg,null,,,,,,,,,,,,,34,"53,44,35,52,34,28,7,18,42,67,61,4,68,64,17,41,79,74,33,72,5,78,8,20,76,55,31,46,36,70,21,66,32,45,63,39,3,56,37,77",,,,,,,,,,
land,137,621086,0.0-43.0-2.0,"""event"",""trial"",""time""
""fullscreenenter"",""1"",""17835""
","
","
","""event"",""trial"",""time""
""fullscreenenter"",""1"",""17835""
","
",,null,run_exp/static/images/task_images/land.jpg,null,,,,,,,98,,,5,,,,,,,,,,,,,,
dig,138,623102,0.0-43.0-3.0,"""event"",""trial"",""time""
""fullscreenenter"",""1"",""17835""
","
","
","""event"",""trial"",""time""
""fullscreenenter"",""1"",""17835""
","
",,,,,,,,,,,,"[{""stimulus"":""run_exp/static/images/task_images/dig.jpg"",""time"":1},{""stimulus"":""run_exp/static/images/task_images/land.jpg"",""time"":676},{""stimulus"":""run_exp/static/images/task_images/dig.jpg"",""time"":1341.3999999999069}]",[],5,,,,,,,,,,,,,,
harvest,139,624110,0.0-43.0-4.0,"""event"",""trial"",""time""
""fullscreenenter"",""1"",""17835""
","
","
","""event"",""trial"",""time""
""fullscreenenter"",""1"",""17835""
","
",,null,run_exp/static/images/task_images/gems/98.jpg,null,,,,,,,46,,,5,,,,,98,0.467417456,0.469387755,,,,,,,
decision,140,624607,0.0-43.0-5.0,"""event"",""trial"",""time""
""fullscreenenter"",""1"",""17835""
","
","
","""event"",""trial"",""time""
""fullscreenenter"",""1"",""17835""
","
",,492,run_exp/static/images/task_images/land.jpg,65,,,,,,,46,,,5,,,,,,,,143736,1,0,FALSE,,,
dig,141,627134,0.0-44.0-0.0,"""event"",""trial"",""time""
""fullscreenenter"",""1"",""17835""
","
","
","""event"",""trial"",""time""
""fullscreenenter"",""1"",""17835""
","
",,,,,,,,,,,,"[{""stimulus"":""run_exp/static/images/task_images/dig.jpg"",""time"":1},{""stimulus"":""run_exp/static/images/task_images/land.jpg"",""time"":841.8999999999069},{""stimulus"":""run_exp/static/images/task_images/dig.jpg"",""time"":1681.8999999999069}]",[],5,,,,,,,,,,,,,,
harvest,142,628142,0.0-44.0-1.0,"""event"",""trial"",""time""
""fullscreenenter"",""1"",""17835""
","
","
","""event"",""trial"",""time""
""fullscreenenter"",""1"",""17835""
","
",,null,run_exp/static/images/task_images/gems/46.jpg,null,,,,,,,22,,,5,,,,,46,0.481184653,0.47826087,,,,,,,
decision,143,628844,0.0-44.0-2.0,"""event"",""trial"",""time""
""fullscreenenter"",""1"",""17835""
","
","
","""event"",""trial"",""time""
""fullscreenenter"",""1"",""17835""
","
",,698.2,run_exp/static/images/task_images/land.jpg,65,,,,,,,22,,,5,,,,,,,,147973,1,1,FALSE,,,
dig,144,631159,0.0-45.0-0.0,"""event"",""trial"",""time""
""fullscreenenter"",""1"",""17835""
","
","
","""event"",""trial"",""time""
""fullscreenenter"",""1"",""17835""
","
",,,,,,,,,,,,"[{""stimulus"":""run_exp/static/images/task_images/dig.jpg"",""time"":0.5999999998603016},{""stimulus"":""run_exp/static/images/task_images/land.jpg"",""time"":772},{""stimulus"":""run_exp/static/images/task_images/dig.jpg"",""time"":1539.2999999998137}]",[],5,,,,,,,,,,,,,,
harvest,145,632166,0.0-45.0-1.0,"""event"",""trial"",""time""
""fullscreenenter"",""1"",""17835""
","
","
","""event"",""trial"",""time""
""fullscreenenter"",""1"",""17835""
","
",,null,run_exp/static/images/task_images/gems/22.jpg,null,,,,,,,11,,,5,,,,,22,0.483183598,0.5,,,,,,,
decision,146,633449,0.0-45.0-2.0,"""event"",""trial"",""time""
""fullscreenenter"",""1"",""17835""
","
","
","""event"",""trial"",""time""
""fullscreenenter"",""1"",""17835""
","
",,1278.8,run_exp/static/images/task_images/land.jpg,76,,,,,,,11,,,5,,,,,,,,152579,1,2,TRUE,,,
travel,147,642191,0.0-46.0-0.0,"""event"",""trial"",""time""
""fullscreenenter"",""1"",""17835""
","
","
","""event"",""trial"",""time""
""fullscreenenter"",""1"",""17835""
","
",,,,,,,,,,,,"[{""stimulus"":""run_exp/static/images/task_images/rocket-01.jpg"",""time"":0.9000000001396984},{""stimulus"":""run_exp/static/images/task_images/rocket-02.jpg"",""time"":976.4000000001397},{""stimulus"":""run_exp/static/images/task_images/rocket-03.jpg"",""time"":1944},{""stimulus"":""run_exp/static/images/task_images/rocket-04.jpg"",""time"":2911.2000000001863},{""stimulus"":""run_exp/static/images/task_images/rocket-05.jpg"",""time"":3887.9000000001397},{""stimulus"":""run_exp/static/images/task_images/rocket-06.jpg"",""time"":4855.300000000047},{""stimulus"":""run_exp/static/images/task_images/rocket-07.jpg"",""time"":5823.90000000014},{""stimulus"":""run_exp/static/images/task_images/rocket-08.jpg"",""time"":6791.90000000014},{""stimulus"":""run_exp/static/images/task_images/rocket-09.jpg"",""time"":7759.300000000047}]",[],5,,,,,,,,,,,,,,
alien_welcome,148,647199,0.0-46.0-1.0,"""event"",""trial"",""time""
""fullscreenenter"",""1"",""17835""
","
","
","""event"",""trial"",""time""
""fullscreenenter"",""1"",""17835""
","
",,null,run_exp/static/images/task_images/aliens/old_aliens/planet/alien_planet-28.jpg,null,,,,,,,,,,,,,28,"53,44,35,52,34,28,7,18,42,67,61,4,68,64,17,41,79,74,33,72,5,78,8,20,76,55,31,46,36,70,21,66,32,45,63,39,3,56,37,77",,,,,,,,,,
land,149,647711,0.0-46.0-2.0,"""event"",""trial"",""time""
""fullscreenenter"",""1"",""17835""
","
","
","""event"",""trial"",""time""
""fullscreenenter"",""1"",""17835""
","
",,null,run_exp/static/images/task_images/land.jpg,null,,,,,,,100,,,6,,,,,,,,,,,,,,
dig,150,649726,0.0-46.0-3.0,"""event"",""trial"",""time""
""fullscreenenter"",""1"",""17835""
","
","
","""event"",""trial"",""time""
""fullscreenenter"",""1"",""17835""
","
",,,,,,,,,,,,"[{""stimulus"":""run_exp/static/images/task_images/dig.jpg"",""time"":1.0999999998603016},{""stimulus"":""run_exp/static/images/task_images/land.jpg"",""time"":675.5},{""stimulus"":""run_exp/static/images/task_images/dig.jpg"",""time"":1339.5}]",[],6,,,,,,,,,,,,,,
harvest,151,650734,0.0-46.0-4.0,"""event"",""trial"",""time""
""fullscreenenter"",""1"",""17835""
","
","
","""event"",""trial"",""time""
""fullscreenenter"",""1"",""17835""
","
",,null,run_exp/static/images/task_images/gems/100.jpg,null,,,,,,,81,,,6,,,,,100,0.806091511,0.81,,,,,,,
decision,152,651660,0.0-46.0-5.0,"""event"",""trial"",""time""
""fullscreenenter"",""1"",""17835""
","
","
","""event"",""trial"",""time""
""fullscreenenter"",""1"",""17835""
","
",,921.5,run_exp/static/images/task_images/land.jpg,65,,,,,,,81,,,6,,,,,,,,170789,1,0,FALSE,,,
dig,153,653759,0.0-47.0-0.0,"""event"",""trial"",""time""
""fullscreenenter"",""1"",""17835""
","
","
","""event"",""trial"",""time""
""fullscreenenter"",""1"",""17835""
","
",,,,,,,,,,,,"[{""stimulus"":""run_exp/static/images/task_images/dig.jpg"",""time"":0.9000000001396984},{""stimulus"":""run_exp/static/images/task_images/land.jpg"",""time"":702.1000000000931},{""stimulus"":""run_exp/static/images/task_images/dig.jpg"",""time"":1390.8000000000466}]",[],6,,,,,,,,,,,,,,
harvest,154,654766,0.0-47.0-1.0,"""event"",""trial"",""time""
""fullscreenenter"",""1"",""17835""
","
","
","""event"",""trial"",""time""
""fullscreenenter"",""1"",""17835""
","
",,null,run_exp/static/images/task_images/gems/81.jpg,null,,,,,,,66,,,6,,,,,81,0.81167786,0.814814815,,,,,,,
decision,155,655171,0.0-47.0-2.0,"""event"",""trial"",""time""
""fullscreenenter"",""1"",""17835""
","
","
","""event"",""trial"",""time""
""fullscreenenter"",""1"",""17835""
","
",,400.4,run_exp/static/images/task_images/land.jpg,65,,,,,,,66,,,6,,,,,,,,174301,1,1,FALSE,,,
dig,156,657791,0.0-48.0-0.0,"""event"",""trial"",""time""
""fullscreenenter"",""1"",""17835""
","
","
","""event"",""trial"",""time""
""fullscreenenter"",""1"",""17835""
","
",,,,,,,,,,,,"[{""stimulus"":""run_exp/static/images/task_images/dig.jpg"",""time"":1.1000000000931323},{""stimulus"":""run_exp/static/images/task_images/land.jpg"",""time"":875.4000000001397},{""stimulus"":""run_exp/static/images/task_images/dig.jpg"",""time"":1739.5}]",[],6,,,,,,,,,,,,,,
harvest,157,658798,0.0-48.0-1.0,"""event"",""trial"",""time""
""fullscreenenter"",""1"",""17835""
","
","
","""event"",""trial"",""time""
""fullscreenenter"",""1"",""17835""
","
",,null,run_exp/static/images/task_images/gems/66.jpg,null,,,,,,,51,,,6,,,,,66,0.779696731,0.772727273,,,,,,,
decision,158,659412,0.0-48.0-2.0,"""event"",""trial"",""time""
""fullscreenenter"",""1"",""17835""
","
","
","""event"",""trial"",""time""
""fullscreenenter"",""1"",""17835""
","
",,609,run_exp/static/images/task_images/land.jpg,65,,,,,,,51,,,6,,,,,,,,178541,1,2,FALSE,,,
dig,159,661822,0.0-49.0-0.0,"""event"",""trial"",""time""
""fullscreenenter"",""1"",""17835""
","
","
","""event"",""trial"",""time""
""fullscreenenter"",""1"",""17835""
","
",,,,,,,,,,,,"[{""stimulus"":""run_exp/static/images/task_images/dig.jpg"",""time"":1.1999999999534339},{""stimulus"":""run_exp/static/images/task_images/land.jpg"",""time"":805.6999999999534},{""stimulus"":""run_exp/static/images/task_images/dig.jpg"",""time"":1605.8000000000466}]",[],6,,,,,,,,,,,,,,
harvest,160,662831,0.0-49.0-1.0,"""event"",""trial"",""time""
""fullscreenenter"",""1"",""17835""
","
","
","""event"",""trial"",""time""
""fullscreenenter"",""1"",""17835""
","
",,null,run_exp/static/images/task_images/gems/51.jpg,null,,,,,,,39,,,6,,,,,51,0.772923721,0.764705882,,,,,,,
decision,161,662954,0.0-49.0-2.0,"""event"",""trial"",""time""
""fullscreenenter"",""1"",""17835""
","
","
","""event"",""trial"",""time""
""fullscreenenter"",""1"",""17835""
","
",,119.5,run_exp/static/images/task_images/land.jpg,65,,,,,,,39,,,6,,,,,,,,182084,1,3,FALSE,,,
dig,162,665855,0.0-50.0-0.0,"""event"",""trial"",""time""
""fullscreenenter"",""1"",""17835""
","
","
","""event"",""trial"",""time""
""fullscreenenter"",""1"",""17835""
","
",,,,,,,,,,,,"[{""stimulus"":""run_exp/static/images/task_images/dig.jpg"",""time"":1},{""stimulus"":""run_exp/static/images/task_images/land.jpg"",""time"":965.7000000001863},{""stimulus"":""run_exp/static/images/task_images/dig.jpg"",""time"":1926}]",[],6,,,,,,,,,,,,,,
harvest,163,666863,0.0-50.0-1.0,"""event"",""trial"",""time""
""fullscreenenter"",""1"",""17835""
","
","
","""event"",""trial"",""time""
""fullscreenenter"",""1"",""17835""
","
",,null,run_exp/static/images/task_images/gems/39.jpg,null,,,,,,,29,,,6,,,,,39,0.733187817,0.743589744,,,,,,,
decision,164,667679,0.0-50.0-2.0,"""event"",""trial"",""time""
""fullscreenenter"",""1"",""17835""
","
","
","""event"",""trial"",""time""
""fullscreenenter"",""1"",""17835""
","
",,811.4,run_exp/static/images/task_images/land.jpg,65,,,,,,,29,,,6,,,,,,,,186808,1,4,FALSE,,,
dig,165,669887,0.0-51.0-0.0,"""event"",""trial"",""time""
""fullscreenenter"",""1"",""17835""
","
","
","""event"",""trial"",""time""
""fullscreenenter"",""1"",""17835""
","
",,,,,,,,,,,,"[{""stimulus"":""run_exp/static/images/task_images/dig.jpg"",""time"":1.0999999998603016},{""stimulus"":""run_exp/static/images/task_images/land.jpg"",""time"":737.3000000000466},{""stimulus"":""run_exp/static/images/task_images/dig.jpg"",""time"":1465.3000000000466}]",[],6,,,,,,,,,,,,,,
harvest,166,670903,0.0-51.0-1.0,"""event"",""trial"",""time""
""fullscreenenter"",""1"",""17835""
","
","
","""event"",""trial"",""time""
""fullscreenenter"",""1"",""17835""
","
",,null,run_exp/static/images/task_images/gems/29.jpg,null,,,,,,,24,,,6,,,,,29,0.828497314,0.827586207,,,,,,,
decision,167,671577,0.0-51.0-2.0,"""event"",""trial"",""time""
""fullscreenenter"",""1"",""17835""
","
","
","""event"",""trial"",""time""
""fullscreenenter"",""1"",""17835""
","
",,670.2,run_exp/static/images/task_images/land.jpg,76,,,,,,,24,,,6,,,,,,,,190707,1,5,TRUE,,,
travel,168,680926,0.0-52.0-0.0,"""event"",""trial"",""time""
""fullscreenenter"",""1"",""17835""
","
","
","""event"",""trial"",""time""
""fullscreenenter"",""1"",""17835""
","
",,,,,,,,,,,,"[{""stimulus"":""run_exp/static/images/task_images/rocket-01.jpg"",""time"":1.0999999998603016},{""stimulus"":""run_exp/static/images/task_images/rocket-02.jpg"",""time"":1046.0999999998603},{""stimulus"":""run_exp/static/images/task_images/rocket-03.jpg"",""time"":2078.2999999998137},{""stimulus"":""run_exp/static/images/task_images/rocket-04.jpg"",""time"":3118.2999999998137},{""stimulus"":""run_exp/static/images/task_images/rocket-05.jpg"",""time"":4150.59999999986},{""stimulus"":""run_exp/static/images/task_images/rocket-06.jpg"",""time"":5190.59999999986},{""stimulus"":""run_exp/static/images/task_images/rocket-07.jpg"",""time"":6222.799999999814},{""stimulus"":""run_exp/static/images/task_images/rocket-08.jpg"",""time"":7262.699999999953},{""stimulus"":""run_exp/static/images/task_images/rocket-09.jpg"",""time"":8294.699999999953}]",[],6,,,,,,,,,,,,,,
alien_welcome,169,685943,0.0-52.0-1.0,"""event"",""trial"",""time""
""fullscreenenter"",""1"",""17835""
","
","
","""event"",""trial"",""time""
""fullscreenenter"",""1"",""17835""
","
",,null,run_exp/static/images/task_images/aliens/old_aliens/planet/alien_planet-7.jpg,null,,,,,,,,,,,,,7,"53,44,35,52,34,28,7,18,42,67,61,4,68,64,17,41,79,74,33,72,5,78,8,20,76,55,31,46,36,70,21,66,32,45,63,39,3,56,37,77",,,,,,,,,,
land,170,686455,0.0-52.0-2.0,"""event"",""trial"",""time""
""fullscreenenter"",""1"",""17835""
","
","
","""event"",""trial"",""time""
""fullscreenenter"",""1"",""17835""
","
",,null,run_exp/static/images/task_images/land.jpg,null,,,,,,,97,,,7,,,,,,,,,,,,,,
dig,171,688471,0.0-52.0-3.0,"""event"",""trial"",""time""
""fullscreenenter"",""1"",""17835""
","
","
","""event"",""trial"",""time""
""fullscreenenter"",""1"",""17835""
","
",,,,,,,,,,,,"[{""stimulus"":""run_exp/static/images/task_images/dig.jpg"",""time"":1},{""stimulus"":""run_exp/static/images/task_images/land.jpg"",""time"":675.5},{""stimulus"":""run_exp/static/images/task_images/dig.jpg"",""time"":1339.0999999998603}]",[],7,,,,,,,,,,,,,,
harvest,172,689479,0.0-52.0-4.0,"""event"",""trial"",""time""
""fullscreenenter"",""1"",""17835""
","
","
","""event"",""trial"",""time""
""fullscreenenter"",""1"",""17835""
","
",,null,run_exp/static/images/task_images/gems/97.jpg,null,,,,,,,77,,,7,,,,,97,0.789937979,0.793814433,,,,,,,
decision,173,690123,0.0-52.0-5.0,"""event"",""trial"",""time""
""fullscreenenter"",""1"",""17835""
","
","
","""event"",""trial"",""time""
""fullscreenenter"",""1"",""17835""
","
",,638.7,run_exp/static/images/task_images/land.jpg,65,,,,,,,77,,,7,,,,,,,,209252,1,0,FALSE,,,
dig,174,692502,0.0-53.0-0.0,"""event"",""trial"",""time""
""fullscreenenter"",""1"",""17835""
","
","
","""event"",""trial"",""time""
""fullscreenenter"",""1"",""17835""
","
",,,,,,,,,,,,"[{""stimulus"":""run_exp/static/images/task_images/dig.jpg"",""time"":1},{""stimulus"":""run_exp/static/images/task_images/land.jpg"",""time"":798.5},{""stimulus"":""run_exp/static/images/task_images/dig.jpg"",""time"":1582.5}]",[],7,,,,,,,,,,,,,,
harvest,175,693510,0.0-53.0-1.0,"""event"",""trial"",""time""
""fullscreenenter"",""1"",""17835""
","
","
","""event"",""trial"",""time""
""fullscreenenter"",""1"",""17835""
","
",,null,run_exp/static/images/task_images/gems/77.jpg,null,,,,,,,63,,,7,,,,,77,0.821215397,0.818181818,,,,,,,
decision,176,693721,0.0-53.0-2.0,"""event"",""trial"",""time""
""fullscreenenter"",""1"",""17835""
","
","
","""event"",""trial"",""time""
""fullscreenenter"",""1"",""17835""
","
",,205.6,run_exp/static/images/task_images/land.jpg,65,,,,,,,63,,,7,,,,,,,,212850,1,1,FALSE,,,
dig,177,696535,0.0-54.0-0.0,"""event"",""trial"",""time""
""fullscreenenter"",""1"",""17835""
","
","
","""event"",""trial"",""time""
""fullscreenenter"",""1"",""17835""
","
",,,,,,,,,,,,"[{""stimulus"":""run_exp/static/images/task_images/dig.jpg"",""time"":1},{""stimulus"":""run_exp/static/images/task_images/land.jpg"",""time"":942.3999999999069},{""stimulus"":""run_exp/static/images/task_images/dig.jpg"",""time"":1870.8000000000466}]",[],7,,,,,,,,,,,,,,
harvest,178,697543,0.0-54.0-1.0,"""event"",""trial"",""time""
""fullscreenenter"",""1"",""17835""
","
","
","""event"",""trial"",""time""
""fullscreenenter"",""1"",""17835""
","
",,null,run_exp/static/images/task_images/gems/63.jpg,null,,,,,,,47,,,7,,,,,63,0.741290732,0.746031746,,,,,,,
decision,179,698095,0.0-54.0-2.0,"""event"",""trial"",""time""
""fullscreenenter"",""1"",""17835""
","
","
","""event"",""trial"",""time""
""fullscreenenter"",""1"",""17835""
","
",,547.4,run_exp/static/images/task_images/land.jpg,65,,,,,,,47,,,7,,,,,,,,217224,1,2,FALSE,,,
dig,180,700566,0.0-55.0-0.0,"""event"",""trial"",""time""
""fullscreenenter"",""1"",""17835""
","
","
","""event"",""trial"",""time""
""fullscreenenter"",""1"",""17835""
","
",,,,,,,,,,,,"[{""stimulus"":""run_exp/static/images/task_images/dig.jpg"",""time"":1.1999999999534339},{""stimulus"":""run_exp/static/images/task_images/land.jpg"",""time"":827},{""stimulus"":""run_exp/static/images/task_images/dig.jpg"",""time"":1643.0999999998603}]",[],7,,,,,,,,,,,,,,
harvest,181,701574,0.0-55.0-1.0,"""event"",""trial"",""time""
""fullscreenenter"",""1"",""17835""
","
","
","""event"",""trial"",""time""
""fullscreenenter"",""1"",""17835""
","
",,null,run_exp/static/images/task_images/gems/47.jpg,null,,,,,,,40,,,7,,,,,47,0.843906079,0.85106383,,,,,,,
decision,182,702204,0.0-55.0-2.0,"""event"",""trial"",""time""
""fullscreenenter"",""1"",""17835""
","
","
","""event"",""trial"",""time""
""fullscreenenter"",""1"",""17835""
","
",,625.7,run_exp/static/images/task_images/land.jpg,65,,,,,,,40,,,7,,,,,,,,221334,1,3,FALSE,,,
dig,183,704599,0.0-56.0-0.0,"""event"",""trial"",""time""
""fullscreenenter"",""1"",""17835""
","
","
","""event"",""trial"",""time""
""fullscreenenter"",""1"",""17835""
","
",,,,,,,,,,,,"[{""stimulus"":""run_exp/static/images/task_images/dig.jpg"",""time"":0.6999999999534339},{""stimulus"":""run_exp/static/images/task_images/land.jpg"",""time"":795.5},{""stimulus"":""run_exp/static/images/task_images/dig.jpg"",""time"":1587}]",[],7,,,,,,,,,,,,,,
harvest,184,705607,0.0-56.0-1.0,"""event"",""trial"",""time""
""fullscreenenter"",""1"",""17835""
","
","
","""event"",""trial"",""time""
""fullscreenenter"",""1"",""17835""
","
",,null,run_exp/static/images/task_images/gems/40.jpg,null,,,,,,,29,,,7,,,,,40,0.720143846,0.725,,,,,,,
decision,185,705970,0.0-56.0-2.0,"""event"",""trial"",""time""
""fullscreenenter"",""1"",""17835""
","
","
","""event"",""trial"",""time""
""fullscreenenter"",""1"",""17835""
","
",,359.3,run_exp/static/images/task_images/land.jpg,76,,,,,,,29,,,7,,,,,,,,225100,1,4,TRUE,,,
travel,186,715631,0.0-57.0-0.0,"""event"",""trial"",""time""
""fullscreenenter"",""1"",""17835""
","
","
","""event"",""trial"",""time""
""fullscreenenter"",""1"",""17835""
","
",,,,,,,,,,,,"[{""stimulus"":""run_exp/static/images/task_images/rocket-01.jpg"",""time"":1.0999999998603016},{""stimulus"":""run_exp/static/images/task_images/rocket-02.jpg"",""time"":1078.5999999998603},{""stimulus"":""run_exp/static/images/task_images/rocket-03.jpg"",""time"":2150.899999999907},{""stimulus"":""run_exp/static/images/task_images/rocket-04.jpg"",""time"":3223},{""stimulus"":""run_exp/static/images/task_images/rocket-05.jpg"",""time"":4295.09999999986},{""stimulus"":""run_exp/static/images/task_images/rocket-06.jpg"",""time"":5367.199999999953},{""stimulus"":""run_exp/static/images/task_images/rocket-07.jpg"",""time"":6431.5},{""stimulus"":""run_exp/static/images/task_images/rocket-08.jpg"",""time"":7502.59999999986},{""stimulus"":""run_exp/static/images/task_images/rocket-09.jpg"",""time"":8575.299999999814}]",[],7,,,,,,,,,,,,,,
alien_welcome,187,720639,0.0-57.0-1.0,"""event"",""trial"",""time""
""fullscreenenter"",""1"",""17835""
","
","
","""event"",""trial"",""time""
""fullscreenenter"",""1"",""17835""
","
",,null,run_exp/static/images/task_images/aliens/old_aliens/planet/alien_planet-18.jpg,null,,,,,,,,,,,,,18,"53,44,35,52,34,28,7,18,42,67,61,4,68,64,17,41,79,74,33,72,5,78,8,20,76,55,31,46,36,70,21,66,32,45,63,39,3,56,37,77",,,,,,,,,,
land,188,721143,0.0-57.0-2.0,"""event"",""trial"",""time""
""fullscreenenter"",""1"",""17835""
","
","
","""event"",""trial"",""time""
""fullscreenenter"",""1"",""17835""
","
",,null,run_exp/static/images/task_images/land.jpg,null,,,,,,,110,,,8,,,,,,,,,,,,,,
dig,189,723159,0.0-57.0-3.0,"""event"",""trial"",""time""
""fullscreenenter"",""1"",""17835""
","
","
","""event"",""trial"",""time""
""fullscreenenter"",""1"",""17835""
","
",,,,,,,,,,,,"[{""stimulus"":""run_exp/static/images/task_images/dig.jpg"",""time"":2.800000000046566},{""stimulus"":""run_exp/static/images/task_images/land.jpg"",""time"":674.5},{""stimulus"":""run_exp/static/images/task_images/dig.jpg"",""time"":1346.3000000000466}]",[],8,,,,,,,,,,,,,,
harvest,190,724167,0.0-57.0-4.0,"""event"",""trial"",""time""
""fullscreenenter"",""1"",""17835""
","
","
","""event"",""trial"",""time""
""fullscreenenter"",""1"",""17835""
","
",,null,run_exp/static/images/task_images/gems/110.jpg,null,,,,,,,91,,,8,,,,,110,0.825896506,0.827272727,,,,,,,
decision,191,724914,0.0-57.0-5.0,"""event"",""trial"",""time""
""fullscreenenter"",""1"",""17835""
","
","
","""event"",""trial"",""time""
""fullscreenenter"",""1"",""17835""
","
",,743,run_exp/static/images/task_images/land.jpg,65,,,,,,,91,,,8,,,,,,,,244043,1,0,FALSE,,,
dig,192,727190,0.0-58.0-0.0,"""event"",""trial"",""time""
""fullscreenenter"",""1"",""17835""
","
","
","""event"",""trial"",""time""
""fullscreenenter"",""1"",""17835""
","
",,,,,,,,,,,,"[{""stimulus"":""run_exp/static/images/task_images/dig.jpg"",""time"":1},{""stimulus"":""run_exp/static/images/task_images/land.jpg"",""time"":759.6999999999534},{""stimulus"":""run_exp/static/images/task_images/dig.jpg"",""time"":1511.6000000000931}]",[],8,,,,,,,,,,,,,,
harvest,193,728199,0.0-58.0-1.0,"""event"",""trial"",""time""
""fullscreenenter"",""1"",""17835""
","
","
","""event"",""trial"",""time""
""fullscreenenter"",""1"",""17835""
","
",,null,run_exp/static/images/task_images/gems/91.jpg,null,,,,,,,68,,,8,,,,,91,0.752515297,0.747252747,,,,,,,
decision,194,728540,0.0-58.0-2.0,"""event"",""trial"",""time""
""fullscreenenter"",""1"",""17835""
","
","
","""event"",""trial"",""time""
""fullscreenenter"",""1"",""17835""
","
",,337.4,run_exp/static/images/task_images/land.jpg,65,,,,,,,68,,,8,,,,,,,,247669,1,1,FALSE,,,
dig,195,731223,0.0-59.0-0.0,"""event"",""trial"",""time""
""fullscreenenter"",""1"",""17835""
","
","
","""event"",""trial"",""time""
""fullscreenenter"",""1"",""17835""
","
",,,,,,,,,,,,"[{""stimulus"":""run_exp/static/images/task_images/dig.jpg"",""time"":1.0999999998603016},{""stimulus"":""run_exp/static/images/task_images/land.jpg"",""time"":892.8999999999069},{""stimulus"":""run_exp/static/images/task_images/dig.jpg"",""time"":1781.2999999998137}]",[],8,,,,,,,,,,,,,,
harvest,196,732230,0.0-59.0-1.0,"""event"",""trial"",""time""
""fullscreenenter"",""1"",""17835""
","
","
","""event"",""trial"",""time""
""fullscreenenter"",""1"",""17835""
","
",,null,run_exp/static/images/task_images/gems/68.jpg,null,,,,,,,56,,,8,,,,,68,0.821581275,0.823529412,,,,,,,
decision,197,732728,0.0-59.0-2.0,"""event"",""trial"",""time""
""fullscreenenter"",""1"",""17835""
","
","
","""event"",""trial"",""time""
""fullscreenenter"",""1"",""17835""
","
",,493.9,run_exp/static/images/task_images/land.jpg,65,,,,,,,56,,,8,,,,,,,,251858,1,2,FALSE,,,
dig,198,735254,0.0-60.0-0.0,"""event"",""trial"",""time""
""fullscreenenter"",""1"",""17835""
","
","
","""event"",""trial"",""time""
""fullscreenenter"",""1"",""17835""
","
",,,,,,,,,,,,"[{""stimulus"":""run_exp/static/images/task_images/dig.jpg"",""time"":1},{""stimulus"":""run_exp/static/images/task_images/land.jpg"",""time"":846.6999999999534},{""stimulus"":""run_exp/static/images/task_images/dig.jpg"",""time"":1678.6999999999534}]",[],8,,,,,,,,,,,,,,
harvest,199,736270,0.0-60.0-1.0,"""event"",""trial"",""time""
""fullscreenenter"",""1"",""17835""
","
","
","""event"",""trial"",""time""
""fullscreenenter"",""1"",""17835""
","
",,null,run_exp/static/images/task_images/gems/56.jpg,null,,,,,,,39,,,8,,,,,56,0.699243781,0.696428571,,,,,,,
decision,200,737050,0.0-60.0-2.0,"""event"",""trial"",""time""
""fullscreenenter"",""1"",""17835""
","
","
","""event"",""trial"",""time""
""fullscreenenter"",""1"",""17835""
","
",,776.6,run_exp/static/images/task_images/land.jpg,65,,,,,,,39,,,8,,,,,,,,256179,1,3,FALSE,,,
dig,201,739286,0.0-61.0-0.0,"""event"",""trial"",""time""
""fullscreenenter"",""1"",""17835""
","
","
","""event"",""trial"",""time""
""fullscreenenter"",""1"",""17835""
","
",,,,,,,,,,,,"[{""stimulus"":""run_exp/static/images/task_images/dig.jpg"",""time"":0.6000000000931323},{""stimulus"":""run_exp/static/images/task_images/land.jpg"",""time"":751.1000000000931},{""stimulus"":""run_exp/static/images/task_images/dig.jpg"",""time"":1486.8000000000466}]",[],8,,,,,,,,,,,,,,
harvest,202,740295,0.0-61.0-1.0,"""event"",""trial"",""time""
""fullscreenenter"",""1"",""17835""
","
","
","""event"",""trial"",""time""
""fullscreenenter"",""1"",""17835""
","
",,null,run_exp/static/images/task_images/gems/39.jpg,null,,,,,,,33,,,8,,,,,39,0.842849084,0.846153846,,,,,,,
decision,203,741147,0.0-61.0-2.0,"""event"",""trial"",""time""
""fullscreenenter"",""1"",""17835""
","
","
","""event"",""trial"",""time""
""fullscreenenter"",""1"",""17835""
","
",,848.9,run_exp/static/images/task_images/land.jpg,65,,,,,,,33,,,8,,,,,,,,260277,1,4,FALSE,,,
dig,204,743319,0.0-62.0-0.0,"""event"",""trial"",""time""
""fullscreenenter"",""1"",""17835""
","
","
","""event"",""trial"",""time""
""fullscreenenter"",""1"",""17835""
","
",,,,,,,,,,,,"[{""stimulus"":""run_exp/static/images/task_images/dig.jpg"",""time"":1},{""stimulus"":""run_exp/static/images/task_images/land.jpg"",""time"":725.5},{""stimulus"":""run_exp/static/images/task_images/dig.jpg"",""time"":1446.5}]",[],8,,,,,,,,,,,,,,
harvest,205,744327,0.0-62.0-1.0,"""event"",""trial"",""time""
""fullscreenenter"",""1"",""17835""
","
","
","""event"",""trial"",""time""
""fullscreenenter"",""1"",""17835""
","
",,null,run_exp/static/images/task_images/gems/33.jpg,null,,,,,,,27,,,8,,,,,33,0.804067833,0.818181818,,,,,,,
decision,206,745099,0.0-62.0-2.0,"""event"",""trial"",""time""
""fullscreenenter"",""1"",""17835""
","
","
","""event"",""trial"",""time""
""fullscreenenter"",""1"",""17835""
","
",,767.9,run_exp/static/images/task_images/land.jpg,65,,,,,,,27,,,8,,,,,,,,264228,1,5,FALSE,,,
dig,207,747351,0.0-63.0-0.0,"""event"",""trial"",""time""
""fullscreenenter"",""1"",""17835""
","
","
","""event"",""trial"",""time""
""fullscreenenter"",""1"",""17835""
","
",,,,,,,,,,,,"[{""stimulus"":""run_exp/static/images/task_images/dig.jpg"",""time"":1},{""stimulus"":""run_exp/static/images/task_images/land.jpg"",""time"":748.3000000000466},{""stimulus"":""run_exp/static/images/task_images/dig.jpg"",""time"":1492.6000000000931}]",[],8,,,,,,,,,,,,,,
harvest,208,748359,0.0-63.0-1.0,"""event"",""trial"",""time""
""fullscreenenter"",""1"",""17835""
","
","
","""event"",""trial"",""time""
""fullscreenenter"",""1"",""17835""
","
",,null,run_exp/static/images/task_images/gems/27.jpg,null,,,,,,,20,,,8,,,,,27,0.745976107,0.740740741,,,,,,,
decision,209,749497,0.0-63.0-2.0,"""event"",""trial"",""time""
""fullscreenenter"",""1"",""17835""
","
","
","""event"",""trial"",""time""
""fullscreenenter"",""1"",""17835""
","
",,1133,run_exp/static/images/task_images/land.jpg,76,,,,,,,20,,,8,,,,,,,,268626,1,6,TRUE,,,
travel,210,758383,0.0-64.0-0.0,"""event"",""trial"",""time""
""fullscreenenter"",""1"",""17835""
","
","
","""event"",""trial"",""time""
""fullscreenenter"",""1"",""17835""
","
",,,,,,,,,,,,"[{""stimulus"":""run_exp/static/images/task_images/rocket-01.jpg"",""time"":1},{""stimulus"":""run_exp/static/images/task_images/rocket-02.jpg"",""time"":991.2999999998137},{""stimulus"":""run_exp/static/images/task_images/rocket-03.jpg"",""time"":1975.1999999999534},{""stimulus"":""run_exp/static/images/task_images/rocket-04.jpg"",""time"":2959.6999999999534},{""stimulus"":""run_exp/static/images/task_images/rocket-05.jpg"",""time"":3951.6999999999534},{""stimulus"":""run_exp/static/images/task_images/rocket-06.jpg"",""time"":4935.799999999814},{""stimulus"":""run_exp/static/images/task_images/rocket-07.jpg"",""time"":5919.09999999986},{""stimulus"":""run_exp/static/images/task_images/rocket-08.jpg"",""time"":6903.399999999907},{""stimulus"":""run_exp/static/images/task_images/rocket-09.jpg"",""time"":7887.5}]",[],8,,,,,,,,,,,,,,
alien_welcome,211,763390,0.0-64.0-1.0,"""event"",""trial"",""time""
""fullscreenenter"",""1"",""17835""
","
","
","""event"",""trial"",""time""
""fullscreenenter"",""1"",""17835""
","
",,null,run_exp/static/images/task_images/aliens/old_aliens/planet/alien_planet-42.jpg,null,,,,,,,,,,,,,42,"53,44,35,52,34,28,7,18,42,67,61,4,68,64,17,41,79,74,33,72,5,78,8,20,76,55,31,46,36,70,21,66,32,45,63,39,3,56,37,77",,,,,,,,,,
land,212,763903,0.0-64.0-2.0,"""event"",""trial"",""time""
""fullscreenenter"",""1"",""17835""
","
","
","""event"",""trial"",""time""
""fullscreenenter"",""1"",""17835""
","
",,null,run_exp/static/images/task_images/land.jpg,null,,,,,,,96,,,9,,,,,,,,,,,,,,
dig,213,765918,0.0-64.0-3.0,"""event"",""trial"",""time""
""fullscreenenter"",""1"",""17835""
","
","
","""event"",""trial"",""time""
""fullscreenenter"",""1"",""17835""
","
",,,,,,,,,,,,"[{""stimulus"":""run_exp/static/images/task_images/dig.jpg"",""time"":1.1000000000931323},{""stimulus"":""run_exp/static/images/task_images/land.jpg"",""time"":675.1000000000931},{""stimulus"":""run_exp/static/images/task_images/dig.jpg"",""time"":1339.1999999999534}]",[],9,,,,,,,,,,,,,,
harvest,214,766927,0.0-64.0-4.0,"""event"",""trial"",""time""
""fullscreenenter"",""1"",""17835""
","
","
","""event"",""trial"",""time""
""fullscreenenter"",""1"",""17835""
","
",,null,run_exp/static/images/task_images/gems/96.jpg,null,,,,,,,21,,,9,,,,,96,0.214881286,0.21875,,,,,,,
decision,215,767323,0.0-64.0-5.0,"""event"",""trial"",""time""
""fullscreenenter"",""1"",""17835""
","
","
","""event"",""trial"",""time""
""fullscreenenter"",""1"",""17835""
","
",,392.3,run_exp/static/images/task_images/land.jpg,65,,,,,,,21,,,9,,,,,,,,286452,1,0,FALSE,,,
dig,216,769943,0.0-65.0-0.0,"""event"",""trial"",""time""
""fullscreenenter"",""1"",""17835""
","
","
","""event"",""trial"",""time""
""fullscreenenter"",""1"",""17835""
","
",,,,,,,,,,,,"[{""stimulus"":""run_exp/static/images/task_images/dig.jpg"",""time"":0.6000000000931323},{""stimulus"":""run_exp/static/images/task_images/land.jpg"",""time"":875},{""stimulus"":""run_exp/static/images/task_images/dig.jpg"",""time"":1747}]",[],9,,,,,,,,,,,,,,
harvest,217,770950,0.0-65.0-1.0,"""event"",""trial"",""time""
""fullscreenenter"",""1"",""17835""
","
","
","""event"",""trial"",""time""
""fullscreenenter"",""1"",""17835""
","
",,null,run_exp/static/images/task_images/gems/21.jpg,null,,,,,,,5,,,9,,,,,21,0.242295857,0.238095238,,,,,,,
decision,218,772695,0.0-65.0-2.0,"""event"",""trial"",""time""
""fullscreenenter"",""1"",""17835""
","
","
","""event"",""trial"",""time""
""fullscreenenter"",""1"",""17835""
","
",,1741,run_exp/static/images/task_images/land.jpg,76,,,,,,,5,,,9,,,,,,,,291825,1,1,TRUE,,,
travel,219,780971,0.0-66.0-0.0,"""event"",""trial"",""time""
""fullscreenenter"",""1"",""17835""
","
","
","""event"",""trial"",""time""
""fullscreenenter"",""1"",""17835""
","
",,,,,,,,,,,,"[{""stimulus"":""run_exp/static/images/task_images/rocket-01.jpg"",""time"":1.1000000000931323},{""stimulus"":""run_exp/static/images/task_images/rocket-02.jpg"",""time"":928.7000000001863},{""stimulus"":""run_exp/static/images/task_images/rocket-03.jpg"",""time"":1841},{""stimulus"":""run_exp/static/images/task_images/rocket-04.jpg"",""time"":2760.8000000000466},{""stimulus"":""run_exp/static/images/task_images/rocket-05.jpg"",""time"":3681.3000000000466},{""stimulus"":""run_exp/static/images/task_images/rocket-06.jpg"",""time"":4593.200000000186},{""stimulus"":""run_exp/static/images/task_images/rocket-07.jpg"",""time"":5512.90000000014},{""stimulus"":""run_exp/static/images/task_images/rocket-08.jpg"",""time"":6424.800000000047},{""stimulus"":""run_exp/static/images/task_images/rocket-09.jpg"",""time"":7345}]",[],9,,,,,,,,,,,,,,
alien_welcome,220,785983,0.0-66.0-1.0,"""event"",""trial"",""time""
""fullscreenenter"",""1"",""17835""
","
","
","""event"",""trial"",""time""
""fullscreenenter"",""1"",""17835""
","
",,null,run_exp/static/images/task_images/aliens/old_aliens/planet/alien_planet-67.jpg,null,,,,,,,,,,,,,67,"53,44,35,52,34,28,7,18,42,67,61,4,68,64,17,41,79,74,33,72,5,78,8,20,76,55,31,46,36,70,21,66,32,45,63,39,3,56,37,77",,,,,,,,,,
land,221,786494,0.0-66.0-2.0,"""event"",""trial"",""time""
""fullscreenenter"",""1"",""17835""
","
","
","""event"",""trial"",""time""
""fullscreenenter"",""1"",""17835""
","
",,null,run_exp/static/images/task_images/land.jpg,null,,,,,,,95,,,10,,,,,,,,,,,,,,
dig,222,788503,0.0-66.0-3.0,"""event"",""trial"",""time""
""fullscreenenter"",""1"",""17835""
","
","
","""event"",""trial"",""time""
""fullscreenenter"",""1"",""17835""
","
",,,,,,,,,,,,"[{""stimulus"":""run_exp/static/images/task_images/dig.jpg"",""time"":0.6000000000931323},{""stimulus"":""run_exp/static/images/task_images/land.jpg"",""time"":670.3999999999069},{""stimulus"":""run_exp/static/images/task_images/dig.jpg"",""time"":1342.1999999999534}]",[],10,,,,,,,,,,,,,,
harvest,223,789511,0.0-66.0-4.0,"""event"",""trial"",""time""
""fullscreenenter"",""1"",""17835""
","
","
","""event"",""trial"",""time""
""fullscreenenter"",""1"",""17835""
","
",,null,run_exp/static/images/task_images/gems/95.jpg,null,,,,,,,15,,,10,,,,,95,0.152785954,0.157894737,,,,,,,
decision,224,790079,0.0-66.0-5.0,"""event"",""trial"",""time""
""fullscreenenter"",""1"",""17835""
","
","
","""event"",""trial"",""time""
""fullscreenenter"",""1"",""17835""
","
",,563.1,run_exp/static/images/task_images/land.jpg,65,,,,,,,15,,,10,,,,,,,,309208,1,0,TRUE,,,
end_of_block_continue,225,799135,0.0-67.0-0.0,"""event"",""trial"",""time""
""fullscreenenter"",""1"",""17835""
","
","
","""event"",""trial"",""time""
""fullscreenenter"",""1"",""17835""
","
",,null,run_exp/static/audio/clip_32_block_end.m4a,,,,,,,null,,,,,,,,,,,,,,,,,,
alien_welcome,226,804151,0.0-68.0-0.0,"""event"",""trial"",""time""
""fullscreenenter"",""1"",""17835""
","
","
","""event"",""trial"",""time""
""fullscreenenter"",""1"",""17835""
","
",,null,run_exp/static/images/task_images/aliens/old_aliens/planet/alien_planet-61.jpg,null,,,,,,,,,,,,,61,"53,44,35,52,34,28,7,18,42,67,61,4,68,64,17,41,79,74,33,72,5,78,8,20,76,55,31,46,36,70,21,66,32,45,63,39,3,56,37,77",,,,,,,,,,
land,227,804663,0.0-68.0-1.0,"""event"",""trial"",""time""
""fullscreenenter"",""1"",""17835""
","
","
","""event"",""trial"",""time""
""fullscreenenter"",""1"",""17835""
","
",,null,run_exp/static/images/task_images/land.jpg,null,,,,,,,98,,,11,,,,,,,,,,,,,,
dig,228,806679,0.0-68.0-2.0,"""event"",""trial"",""time""
""fullscreenenter"",""1"",""17835""
","
","
","""event"",""trial"",""time""
""fullscreenenter"",""1"",""17835""
","
",,,,,,,,,,,,"[{""stimulus"":""run_exp/static/images/task_images/dig.jpg"",""time"":1},{""stimulus"":""run_exp/static/images/task_images/land.jpg"",""time"":675.6000000000931},{""stimulus"":""run_exp/static/images/task_images/dig.jpg"",""time"":1340.1999999999534}]",[],11,,,,,,,,,,,,,,
harvest,229,807687,0.0-68.0-3.0,"""event"",""trial"",""time""
""fullscreenenter"",""1"",""17835""
","
","
","""event"",""trial"",""time""
""fullscreenenter"",""1"",""17835""
","
",,null,run_exp/static/images/task_images/gems/98.jpg,null,,,,,,,15,,,11,,,,,98,0.156363664,0.153061224,,,,,,,
decision,230,808353,0.0-68.0-4.0,"""event"",""trial"",""time""
""fullscreenenter"",""1"",""17835""
","
","
","""event"",""trial"",""time""
""fullscreenenter"",""1"",""17835""
","
",,662.8,run_exp/static/images/task_images/land.jpg,65,,,,,,,15,,,11,,,,,,,,9212,2,0,FALSE,,,
dig,231,810712,0.0-69.0-0.0,"""event"",""trial"",""time""
""fullscreenenter"",""1"",""17835""
","
","
","""event"",""trial"",""time""
""fullscreenenter"",""1"",""17835""
","
",,,,,,,,,,,,"[{""stimulus"":""run_exp/static/images/task_images/dig.jpg"",""time"":0.9000000001396984},{""stimulus"":""run_exp/static/images/task_images/land.jpg"",""time"":783},{""stimulus"":""run_exp/static/images/task_images/dig.jpg"",""time"":1567.1000000000931}]",[],11,,,,,,,,,,,,,,
harvest,232,811719,0.0-69.0-1.0,"""event"",""trial"",""time""
""fullscreenenter"",""1"",""17835""
","
","
","""event"",""trial"",""time""
""fullscreenenter"",""1"",""17835""
","
",,null,run_exp/static/images/task_images/gems/15.jpg,null,,,,,,,3,,,11,,,,,15,0.232981498,0.2,,,,,,,
decision,233,812945,0.0-69.0-2.0,"""event"",""trial"",""time""
""fullscreenenter"",""1"",""17835""
","
","
","""event"",""trial"",""time""
""fullscreenenter"",""1"",""17835""
","
",,1222.5,run_exp/static/images/task_images/land.jpg,76,,,,,,,3,,,11,,,,,,,,13804,2,1,TRUE,,,
travel,234,821743,0.0-70.0-0.0,"""event"",""trial"",""time""
""fullscreenenter"",""1"",""17835""
","
","
","""event"",""trial"",""time""
""fullscreenenter"",""1"",""17835""
","
",,,,,,,,,,,,"[{""stimulus"":""run_exp/static/images/task_images/rocket-01.jpg"",""time"":1.1999999999534339},{""stimulus"":""run_exp/static/images/task_images/rocket-02.jpg"",""time"":983.2999999998137},{""stimulus"":""run_exp/static/images/task_images/rocket-03.jpg"",""time"":1959.8999999999069},{""stimulus"":""run_exp/static/images/task_images/rocket-04.jpg"",""time"":2935.0999999998603},{""stimulus"":""run_exp/static/images/task_images/rocket-05.jpg"",""time"":3911.5},{""stimulus"":""run_exp/static/images/task_images/rocket-06.jpg"",""time"":4879.199999999953},{""stimulus"":""run_exp/static/images/task_images/rocket-07.jpg"",""time"":5855.09999999986},{""stimulus"":""run_exp/static/images/task_images/rocket-08.jpg"",""time"":6831.699999999953},{""stimulus"":""run_exp/static/images/task_images/rocket-09.jpg"",""time"":7807.699999999953}]",[],11,,,,,,,,,,,,,,
alien_welcome,235,826751,0.0-70.0-1.0,"""event"",""trial"",""time""
""fullscreenenter"",""1"",""17835""
","
","
","""event"",""trial"",""time""
""fullscreenenter"",""1"",""17835""
","
",,null,run_exp/static/images/task_images/aliens/old_aliens/planet/alien_planet-4.jpg,null,,,,,,,,,,,,,4,"53,44,35,52,34,28,7,18,42,67,61,4,68,64,17,41,79,74,33,72,5,78,8,20,76,55,31,46,36,70,21,66,32,45,63,39,3,56,37,77",,,,,,,,,,
land,236,827263,0.0-70.0-2.0,"""event"",""trial"",""time""
""fullscreenenter"",""1"",""17835""
","
","
","""event"",""trial"",""time""
""fullscreenenter"",""1"",""17835""
","
",,null,run_exp/static/images/task_images/land.jpg,null,,,,,,,94,,,12,,,,,,,,,,,,,,
dig,237,829278,0.0-70.0-3.0,"""event"",""trial"",""time""
""fullscreenenter"",""1"",""17835""
","
","
","""event"",""trial"",""time""
""fullscreenenter"",""1"",""17835""
","
",,,,,,,,,,,,"[{""stimulus"":""run_exp/static/images/task_images/dig.jpg"",""time"":1.0999999998603016},{""stimulus"":""run_exp/static/images/task_images/land.jpg"",""time"":674.5999999998603},{""stimulus"":""run_exp/static/images/task_images/dig.jpg"",""time"":1338.7999999998137}]",[],12,,,,,,,,,,,,,,
harvest,238,830287,0.0-70.0-4.0,"""event"",""trial"",""time""
""fullscreenenter"",""1"",""17835""
","
","
","""event"",""trial"",""time""
""fullscreenenter"",""1"",""17835""
","
",,null,run_exp/static/images/task_images/gems/94.jpg,null,,,,,,,20,,,12,,,,,94,0.211917638,0.212765957,,,,,,,
decision,239,830997,0.0-70.0-5.0,"""event"",""trial"",""time""
""fullscreenenter"",""1"",""17835""
","
","
","""event"",""trial"",""time""
""fullscreenenter"",""1"",""17835""
","
",,705.5,run_exp/static/images/task_images/land.jpg,65,,,,,,,20,,,12,,,,,,,,31856,2,0,FALSE,,,
dig,240,833311,0.0-71.0-0.0,"""event"",""trial"",""time""
""fullscreenenter"",""1"",""17835""
","
","
","""event"",""trial"",""time""
""fullscreenenter"",""1"",""17835""
","
",,,,,,,,,,,,"[{""stimulus"":""run_exp/static/images/task_images/dig.jpg"",""time"":1},{""stimulus"":""run_exp/static/images/task_images/land.jpg"",""time"":770.8000000000466},{""stimulus"":""run_exp/static/images/task_images/dig.jpg"",""time"":1539.5999999998603}]",[],12,,,,,,,,,,,,,,
harvest,241,834319,0.0-71.0-1.0,"""event"",""trial"",""time""
""fullscreenenter"",""1"",""17835""
","
","
","""event"",""trial"",""time""
""fullscreenenter"",""1"",""17835""
","
",,null,run_exp/static/images/task_images/gems/20.jpg,null,,,,,,,3,,,12,,,,,20,0.167034524,0.15,,,,,,,
decision,242,834827,0.0-71.0-2.0,"""event"",""trial"",""time""
""fullscreenenter"",""1"",""17835""
","
","
","""event"",""trial"",""time""
""fullscreenenter"",""1"",""17835""
","
",,504.5,run_exp/static/images/task_images/land.jpg,65,,,,,,,3,,,12,,,,,,,,35686,2,1,FALSE,,,
dig,243,837343,0.0-72.0-0.0,"""event"",""trial"",""time""
""fullscreenenter"",""1"",""17835""
","
","
","""event"",""trial"",""time""
""fullscreenenter"",""1"",""17835""
","
