trial_type,trial_index,time_elapsed,internal_node_id,interactions,blur_events,focus_events,fullscreenenter_events,fullscreenexit_events,success,rt,stimulus,key_press,prompt,subject_id,participant_id,age,gender,button_pressed,next_reward,animation_sequence,responses,planet,curr_prac_trial,n_prac_rounds,alien,aliens,reward_received,decay_rate_actual,decay_rate_exp,time_in_block,block_num,prt,last_trial_on_planet,button_html,bonus,num_failures
pavlovia,0,4,0.0-0.0,"""event"",""trial"",""time""
""fullscreenenter"",""1"",""5298""
","
","
","""event"",""trial"",""time""
""fullscreenenter"",""1"",""5298""
","
",,,,,,,,,,,,,,,,,,,,,,,,,,,,
fullscreen,1,6260,0.0-1.0,"""event"",""trial"",""time""
""fullscreenenter"",""1"",""5298""
","
","
","""event"",""trial"",""time""
""fullscreenenter"",""1"",""5298""
","
",TRUE,,,,,,,,,,,,,,,,,,,,,,,,,,,
instruc_welcome,2,16081,0.0-2.0,"""event"",""trial"",""time""
""fullscreenenter"",""1"",""5298""
","
","
","""event"",""trial"",""time""
""fullscreenenter"",""1"",""5298""
","
",,null,run_exp/static/audio/clip_1_welcome.m4a,null,"<p>Howdy! In this experiment, you’ll be an explorer traveling through space to collect space treasure.</p><p>Your mission is to collect as much treasure as possible.</p><br><br><p><img src='run_exp/static/images/task_images/opening_img-01.jpg' height='300' width='auto'></p>",9216,4246,23.31,Male,,,,,,,,,,,,,,,,,,,
audio-keyboard-response,3,32702,0.0-3.0,"""event"",""trial"",""time""
""fullscreenenter"",""1"",""5298""
","
","
","""event"",""trial"",""time""
""fullscreenenter"",""1"",""5298""
","
",,null,run_exp/static/audio/clip_2_move.m4a,null,,,,,,,,,,,,,,,,,,,,,,,,
welcome_dec,4,35990,0.0-4.0,"""event"",""trial"",""time""
""fullscreenenter"",""1"",""5298""
","
","
","""event"",""trial"",""time""
""fullscreenenter"",""1"",""5298""
","
",,3280.9,"<p>Howdy! In this experiment, you’ll be an explorer traveling through space to collect space treasure.</p><p>Your mission is to collect as much treasure as possible.</p><br><br><p><img src='run_exp/static/images/task_images/opening_img-01.jpg' height='300' width='auto'></p>",,,,,,,1,,,,,,,,,,,,,,,,,,
html-keyboard-response,5,36252,0.0-5.0,"""event"",""trial"",""time""
""fullscreenenter"",""1"",""5298""
","
","
","""event"",""trial"",""time""
""fullscreenenter"",""1"",""5298""
","
",,256.3,"<p>Howdy! In this experiment, you’ll be an explorer traveling through space to collect space treasure.</p><p>Your mission is to collect as much treasure as possible.</p><br><br><p><img src='run_exp/static/images/task_images/opening_img-01.jpg' height='300' width='auto'></p><button class=""jspsych-html-btn-unchosen""><img src=""run_exp/static/images/task_images/planet-01.jpg"" height=""50""></button><button class=""jspsych-html-btn-chosen""><img src=""run_exp/static/images/task_images/planet-02.jpg"" height=""50""></button><p><b>[press the space bar to lock in your answer]<b><br></p>",32,,,,,,,,,,,,,,,,,,,,,,,,
instruc_goal,6,46360,0.0-6.0-0.0,"""event"",""trial"",""time""
""fullscreenenter"",""1"",""5298""
","
","
","""event"",""trial"",""time""
""fullscreenenter"",""1"",""5298""
","
",,null,run_exp/static/audio/clip_3_goal.m4a,null,"<p> As a space explorer, you’ll visit different planets to dig for space treasure, these pink gems.</p> <p> The more treasure you dig up, the more bonus money you’ll win! </p><br><br><p><img src='run_exp/static/images/task_images/pink_gem.jpg' height='300' width='auto'></p>",,,,,,,,,,,,,,,,,,,,,,,
instruc_goal,7,48560,0.0-6.0-1.0,"""event"",""trial"",""time""
""fullscreenenter"",""1"",""5298""
","
","
","""event"",""trial"",""time""
""fullscreenenter"",""1"",""5298""
","
",,2196.7,"<p> As a space explorer, you’ll visit different planets to dig for space treasure, these pink gems.</p> <p> The more treasure you dig up, the more bonus money you’ll win! </p><br><br><p><img src='run_exp/static/images/task_images/pink_gem.jpg' height='300' width='auto'></p>",,,,,,,1,,,,,,,,,,,,,,,,,,
html-keyboard-response,8,48910,0.0-6.0-2.0,"""event"",""trial"",""time""
""fullscreenenter"",""1"",""5298""
""blur"",""9"",""51653""
""focus"",""9"",""55231""
","""event"",""trial"",""time""
""blur"",""9"",""51653""
","""event"",""trial"",""time""
""focus"",""9"",""55231""
","""event"",""trial"",""time""
""fullscreenenter"",""1"",""5298""
","
",,346.9,"<p> As a space explorer, you’ll visit different planets to dig for space treasure, these pink gems.</p> <p> The more treasure you dig up, the more bonus money you’ll win! </p><br><br><p><img src='run_exp/static/images/task_images/pink_gem.jpg' height='300' width='auto'></p><button class=""jspsych-html-btn-unchosen""><img src=""run_exp/static/images/task_images/planet-01.jpg"" height=""50""></button><button class=""jspsych-html-btn-chosen""><img src=""run_exp/static/images/task_images/planet-02.jpg"" height=""50""></button><p><b>[press the space bar to lock in your answer]<b><br></p>",32,,,,,,,,,,,,,,,,,,,,,,,,
instruc_dig,9,64962,0.0-7.0-0.0,"""event"",""trial"",""time""
""fullscreenenter"",""1"",""5298""
""blur"",""9"",""51653""
""focus"",""9"",""55231""
","""event"",""trial"",""time""
""blur"",""9"",""51653""
","""event"",""trial"",""time""
""focus"",""9"",""55231""
","""event"",""trial"",""time""
""fullscreenenter"",""1"",""5298""
","
",,null,run_exp/static/audio/clip_4_dig.m4a,null,,,,,,,100,,,,,,,,,,,,,,,,,
instruc_dig_try,10,91967,0.0-7.0-1.0,"""event"",""trial"",""time""
""fullscreenenter"",""1"",""5298""
""blur"",""9"",""51653""
""focus"",""9"",""55231""
","""event"",""trial"",""time""
""blur"",""9"",""51653""
","""event"",""trial"",""time""
""focus"",""9"",""55231""
","""event"",""trial"",""time""
""fullscreenenter"",""1"",""5298""
","
",,27001.6,"<p> When you’ve arrived at a new planet, you will dig once. </p> <p>Then, you get to decide if you want to stay on the planet and dig again or travel to a new planet and dig there.</p> <p> To stay and dig, press the letter <strong>‘A’</strong> on your keyboard. Try pressing it now! </p><p><img src='run_exp/static/images/task_images/land.jpg'  height='700' width='auto'></p>",65,"<p> When you’ve arrived at a new planet, you will dig once. </p> <p>Then, you get to decide if you want to stay on the planet and dig again or travel to a new planet and dig there.</p> <p> To stay and dig, press the letter <strong>‘A’</strong> on your keyboard. Try pressing it now! </p><p><img src='run_exp/static/images/task_images/land.jpg'  height='700' width='auto'></p>",,,,,,100,,,,,,,,,,,,,,,,,
dig_prac,11,93983,0.0-7.0-2.0,"""event"",""trial"",""time""
""fullscreenenter"",""1"",""5298""
""blur"",""9"",""51653""
""focus"",""9"",""55231""
","""event"",""trial"",""time""
""blur"",""9"",""51653""
","""event"",""trial"",""time""
""focus"",""9"",""55231""
","""event"",""trial"",""time""
""fullscreenenter"",""1"",""5298""
","
",,,,,,,,,,,,"[{""stimulus"":""run_exp/static/images/task_images/dig.jpg"",""time"":0.5},{""stimulus"":""run_exp/static/images/task_images/land.jpg"",""time"":670.5999999940395},{""stimulus"":""run_exp/static/images/task_images/dig.jpg"",""time"":1340.3999999985099}]",[],,,,,,,,,,,,,,,
instruc_travel,12,130292,0.0-7.0-3.0,"""event"",""trial"",""time""
""fullscreenenter"",""1"",""5298""
""blur"",""9"",""51653""
""focus"",""9"",""55231""
","""event"",""trial"",""time""
""blur"",""9"",""51653""
","""event"",""trial"",""time""
""focus"",""9"",""55231""
","""event"",""trial"",""time""
""fullscreenenter"",""1"",""5298""
","
",,null,run_exp/static/audio/clip_5_travel.m4a,null,"<p>Every time you dig up gems, there are less gems on the planet, so the more you dig on a planet the fewer gems you’ll get with each dig.</p><p>When gems are running low, you may want to travel to a new planet. </p> <p>  Planets are very far apart in this galaxy, so it will take some time to travel between them. </p> <br><p>There are lots and lots of planets for you to visit, so you won’t be able to return to any planets you’ve seen before. </p><br><p>To leave this planet and travel to a new one, press the letter <strong>‘L’</strong> on your keyboard. Try pressing it now! </p><p><img src='run_exp/static/images/task_images/rocket-01.jpg'  height='600' width='auto'></p>",,,,,,,,,,,,,,,,,,,,,,,
instruc_travel_try,13,130490,0.0-7.0-4.0,"""event"",""trial"",""time""
""fullscreenenter"",""1"",""5298""
""blur"",""9"",""51653""
""focus"",""9"",""55231""
","""event"",""trial"",""time""
""blur"",""9"",""51653""
","""event"",""trial"",""time""
""focus"",""9"",""55231""
","""event"",""trial"",""time""
""fullscreenenter"",""1"",""5298""
","
",,194.1,"<p>Every time you dig up gems, there are less gems on the planet, so the more you dig on a planet the fewer gems you’ll get with each dig.</p><p>When gems are running low, you may want to travel to a new planet. </p> <p>  Planets are very far apart in this galaxy, so it will take some time to travel between them. </p> <br><p>There are lots and lots of planets for you to visit, so you won’t be able to return to any planets you’ve seen before. </p><br><p>To leave this planet and travel to a new one, press the letter <strong>‘L’</strong> on your keyboard. Try pressing it now! </p><p><img src='run_exp/static/images/task_images/rocket-01.jpg'  height='600' width='auto'></p>",76,"<p>Every time you dig up gems, there are less gems on the planet, so the more you dig on a planet the fewer gems you’ll get with each dig.</p><p>When gems are running low, you may want to travel to a new planet. </p> <p>  Planets are very far apart in this galaxy, so it will take some time to travel between them. </p> <br><p>There are lots and lots of planets for you to visit, so you won’t be able to return to any planets you’ve seen before. </p><br><p>To leave this planet and travel to a new one, press the letter <strong>‘L’</strong> on your keyboard. Try pressing it now! </p><p><img src='run_exp/static/images/task_images/rocket-01.jpg'  height='600' width='auto'></p>",,,,,,,,,,,,,,,,,,,,,,,
travel_prac,14,140502,0.0-7.0-5.0,"""event"",""trial"",""time""
""fullscreenenter"",""1"",""5298""
""blur"",""9"",""51653""
""focus"",""9"",""55231""
","""event"",""trial"",""time""
""blur"",""9"",""51653""
","""event"",""trial"",""time""
""focus"",""9"",""55231""
","""event"",""trial"",""time""
""fullscreenenter"",""1"",""5298""
","
",,,,,,,,,,,,"[{""stimulus"":""run_exp/static/images/task_images/rocket-01.jpg"",""time"":0.5999999940395355},{""stimulus"":""run_exp/static/images/task_images/rocket-02.jpg"",""time"":1119.6999999955297},{""stimulus"":""run_exp/static/images/task_images/rocket-03.jpg"",""time"":2227.7999999970198},{""stimulus"":""run_exp/static/images/task_images/rocket-04.jpg"",""time"":3335.89999999851},{""stimulus"":""run_exp/static/images/task_images/rocket-05.jpg"",""time"":4451.69999999553},{""stimulus"":""run_exp/static/images/task_images/rocket-06.jpg"",""time"":5558.69999999553},{""stimulus"":""run_exp/static/images/task_images/rocket-07.jpg"",""time"":6676.0999999940395},{""stimulus"":""run_exp/static/images/task_images/rocket-08.jpg"",""time"":7784.5999999940395},{""stimulus"":""run_exp/static/images/task_images/rocket-09.jpg"",""time"":8892.79999999702}]",[],0,,,,,,,,,,,,,,
instruc_alien_greet,15,167712,0.0-7.0-6.0,"""event"",""trial"",""time""
""fullscreenenter"",""1"",""5298""
""blur"",""9"",""51653""
""focus"",""9"",""55231""
","""event"",""trial"",""time""
""blur"",""9"",""51653""
","""event"",""trial"",""time""
""focus"",""9"",""55231""
","""event"",""trial"",""time""
""fullscreenenter"",""1"",""5298""
","
",,null,run_exp/static/audio/clip_6_alien.m4a,null,"<p>When you arrive at a new planet, the alien who owns the treasure mine on that planet will greet you!</p><p>The better an alien takes care of their mine the easier it is to dig for gems. Some aliens take better care of their mine than others. So, you won’t get exactly the same amount of gems on each planet.</p><p>What the alien looks like does not tell you anything about how many gems there are on the planet.</p><br><p><img src=""run_exp/static/images/task_images/aliens/instructions_aliens/planet/alien_planet-1.jpg""  height=""600"" width=""auto""></p>",,,,,,,,,,,,,,,,,,,,,,,
instruc_alien_greet,16,170434,0.0-7.0-7.0,"""event"",""trial"",""time""
""fullscreenenter"",""1"",""5298""
""blur"",""9"",""51653""
""focus"",""9"",""55231""
","""event"",""trial"",""time""
""blur"",""9"",""51653""
","""event"",""trial"",""time""
""focus"",""9"",""55231""
","""event"",""trial"",""time""
""fullscreenenter"",""1"",""5298""
","
",,2717.5,"<p>When you arrive at a new planet, the alien who owns the treasure mine on that planet will greet you!</p><p>The better an alien takes care of their mine the easier it is to dig for gems. Some aliens take better care of their mine than others. So, you won’t get exactly the same amount of gems on each planet.</p><p>What the alien looks like does not tell you anything about how many gems there are on the planet.</p><br><p><img src=""run_exp/static/images/task_images/aliens/instructions_aliens/planet/alien_planet-1.jpg""  height=""600"" width=""auto""></p>",,,,,,,1,,,,,,,,,,,,,,,,,,
html-keyboard-response,17,170584,0.0-7.0-8.0,"""event"",""trial"",""time""
""fullscreenenter"",""1"",""5298""
""blur"",""9"",""51653""
""focus"",""9"",""55231""
","""event"",""trial"",""time""
""blur"",""9"",""51653""
","""event"",""trial"",""time""
""focus"",""9"",""55231""
","""event"",""trial"",""time""
""fullscreenenter"",""1"",""5298""
","
",,145.5,"<p>When you arrive at a new planet, the alien who owns the treasure mine on that planet will greet you!</p><p>The better an alien takes care of their mine the easier it is to dig for gems. Some aliens take better care of their mine than others. So, you won’t get exactly the same amount of gems on each planet.</p><p>What the alien looks like does not tell you anything about how many gems there are on the planet.</p><br><p><img src=""run_exp/static/images/task_images/aliens/instructions_aliens/planet/alien_planet-1.jpg""  height=""600"" width=""auto""></p><button class=""jspsych-html-btn-unchosen""><img src=""run_exp/static/images/task_images/planet-01.jpg"" height=""50""></button><button class=""jspsych-html-btn-chosen""><img src=""run_exp/static/images/task_images/planet-02.jpg"" height=""50""></button><p><b>[press the space bar to lock in your answer]<b><br></p>",32,,,,,,,,,,,,,,,,,,,,,,,,
time_out,18,181733,0.0-8.0-0.0,"""event"",""trial"",""time""
""fullscreenenter"",""1"",""5298""
""blur"",""9"",""51653""
""focus"",""9"",""55231""
","""event"",""trial"",""time""
""blur"",""9"",""51653""
","""event"",""trial"",""time""
""focus"",""9"",""55231""
","""event"",""trial"",""time""
""fullscreenenter"",""1"",""5298""
","
",,null,run_exp/static/audio/clip_7_timeout.m4a,null,"<p>If you don't make your choice fast enough, you’ll have to wait a few seconds before you can make another one.</p><p>You can’t dig for more gems or travel to new planets. You just have to sit and wait.</p><br><p><img src='run_exp/static/images/task_images/time_out.jpg'  height='600' width='auto'></p>",,,,,,,,,,,,,,,,,,,,,,,
time_out,19,184556,0.0-8.0-1.0,"""event"",""trial"",""time""
""fullscreenenter"",""1"",""5298""
""blur"",""9"",""51653""
""focus"",""9"",""55231""
","""event"",""trial"",""time""
""blur"",""9"",""51653""
","""event"",""trial"",""time""
""focus"",""9"",""55231""
","""event"",""trial"",""time""
""fullscreenenter"",""1"",""5298""
","
",,2818.7,"<p>If you don't make your choice fast enough, you’ll have to wait a few seconds before you can make another one.</p><p>You can’t dig for more gems or travel to new planets. You just have to sit and wait.</p><br><p><img src='run_exp/static/images/task_images/time_out.jpg'  height='600' width='auto'></p>",,,,,,,1,,,,,,,,,,,,,,,,,,
html-keyboard-response,20,184950,0.0-8.0-2.0,"""event"",""trial"",""time""
""fullscreenenter"",""1"",""5298""
""blur"",""9"",""51653""
""focus"",""9"",""55231""
","""event"",""trial"",""time""
""blur"",""9"",""51653""
","""event"",""trial"",""time""
""focus"",""9"",""55231""
","""event"",""trial"",""time""
""fullscreenenter"",""1"",""5298""
","
",,390.5,"<p>If you don't make your choice fast enough, you’ll have to wait a few seconds before you can make another one.</p><p>You can’t dig for more gems or travel to new planets. You just have to sit and wait.</p><br><p><img src='run_exp/static/images/task_images/time_out.jpg'  height='600' width='auto'></p><button class=""jspsych-html-btn-unchosen""><img src=""run_exp/static/images/task_images/planet-01.jpg"" height=""50""></button><button class=""jspsych-html-btn-chosen""><img src=""run_exp/static/images/task_images/planet-02.jpg"" height=""50""></button><p><b>[press the space bar to lock in your answer]<b><br></p>",32,,,,,,,,,,,,,,,,,,,,,,,,
instruc_break,21,200670,0.0-9.0-0.0,"""event"",""trial"",""time""
""fullscreenenter"",""1"",""5298""
""blur"",""9"",""51653""
""focus"",""9"",""55231""
","""event"",""trial"",""time""
""blur"",""9"",""51653""
","""event"",""trial"",""time""
""focus"",""9"",""55231""
","""event"",""trial"",""time""
""fullscreenenter"",""1"",""5298""
","
",,null,run_exp/static/audio/clip_8_break.m4a,null,"<p> After digging and traveling for a while, you’ll be able to take a break at home base. </p><p>The game will last 20 minutes no matter what.</p><p>You will visit home base every 5 minutes, so, you will visit home base three times during the game.</p><br><p><img src='run_exp/static/images/task_images/home_base.jpg' height='600' width='auto'></p>",,,,,,,,,,,,,,,,,,,,,,,
instruc_break,22,202250,0.0-9.0-1.0,"""event"",""trial"",""time""
""fullscreenenter"",""1"",""5298""
""blur"",""9"",""51653""
""focus"",""9"",""55231""
","""event"",""trial"",""time""
""blur"",""9"",""51653""
","""event"",""trial"",""time""
""focus"",""9"",""55231""
","""event"",""trial"",""time""
""fullscreenenter"",""1"",""5298""
","
",,1574.5,"<p> After digging and traveling for a while, you’ll be able to take a break at home base. </p><p>The game will last 20 minutes no matter what.</p><p>You will visit home base every 5 minutes, so, you will visit home base three times during the game.</p><br><p><img src='run_exp/static/images/task_images/home_base.jpg' height='600' width='auto'></p>",,,,,,,1,,,,,,,,,,,,,,,,,,
html-keyboard-response,23,202537,0.0-9.0-2.0,"""event"",""trial"",""time""
""fullscreenenter"",""1"",""5298""
""blur"",""9"",""51653""
""focus"",""9"",""55231""
","""event"",""trial"",""time""
""blur"",""9"",""51653""
","""event"",""trial"",""time""
""focus"",""9"",""55231""
","""event"",""trial"",""time""
""fullscreenenter"",""1"",""5298""
","
",,282.9,"<p> After digging and traveling for a while, you’ll be able to take a break at home base. </p><p>The game will last 20 minutes no matter what.</p><p>You will visit home base every 5 minutes, so, you will visit home base three times during the game.</p><br><p><img src='run_exp/static/images/task_images/home_base.jpg' height='600' width='auto'></p><button class=""jspsych-html-btn-unchosen""><img src=""run_exp/static/images/task_images/planet-01.jpg"" height=""50""></button><button class=""jspsych-html-btn-chosen""><img src=""run_exp/static/images/task_images/planet-02.jpg"" height=""50""></button><p><b>[press the space bar to lock in your answer]<b><br></p>",32,,,,,,,,,,,,,,,,,,,,,,,,
instruc_prac_game,24,212691,0.0-10.0-0.0,"""event"",""trial"",""time""
""fullscreenenter"",""1"",""5298""
""blur"",""9"",""51653""
""focus"",""9"",""55231""
","""event"",""trial"",""time""
""blur"",""9"",""51653""
","""event"",""trial"",""time""
""focus"",""9"",""55231""
","""event"",""trial"",""time""
""fullscreenenter"",""1"",""5298""
","
",,null,run_exp/static/audio/clip_9_practice.m4a,null,"<p> Are you ready to play a practice game? </p> <p>In this practice game, you'll be digging up barrels of gems. But, in the real game, you'll be digging up the gems themselves. </p>",,,,,,,,,,,,,,,,,,,,,,,
html-button-response,25,220865,0.0-10.0-1.0,"""event"",""trial"",""time""
""fullscreenenter"",""1"",""5298""
""blur"",""9"",""51653""
""focus"",""9"",""55231""
","""event"",""trial"",""time""
""blur"",""9"",""51653""
","""event"",""trial"",""time""
""focus"",""9"",""55231""
","""event"",""trial"",""time""
""fullscreenenter"",""1"",""5298""
","
",,8170,"<p> Are you ready to play a practice game? </p> <p>In this practice game, you'll be digging up barrels of gems. But, in the real game, you'll be digging up the gems themselves. </p>",,,,,,,0,,,,,,,,,,,,,,,,,,
alien_welcome_prac,26,225882,0.0-11.0-0.0,"""event"",""trial"",""time""
""fullscreenenter"",""1"",""5298""
""blur"",""9"",""51653""
""focus"",""9"",""55231""
","""event"",""trial"",""time""
""blur"",""9"",""51653""
","""event"",""trial"",""time""
""focus"",""9"",""55231""
","""event"",""trial"",""time""
""fullscreenenter"",""1"",""5298""
","
",,null,run_exp/static/images/task_images/aliens/practice_aliens/planet/alien_planet-5.jpg,null,,,,,,,,,,,,,,,,,,,,,,,,
land_prac,27,226386,0.0-11.0-1.0,"""event"",""trial"",""time""
""fullscreenenter"",""1"",""5298""
""blur"",""9"",""51653""
""focus"",""9"",""55231""
","""event"",""trial"",""time""
""blur"",""9"",""51653""
","""event"",""trial"",""time""
""focus"",""9"",""55231""
","""event"",""trial"",""time""
""fullscreenenter"",""1"",""5298""
","
",,null,run_exp/static/images/task_images/land.jpg,null,,,,,,,102,,,0,,,,,,,,,,,,,,
dig_prac,28,228397,0.0-11.0-2.0,"""event"",""trial"",""time""
""fullscreenenter"",""1"",""5298""
""blur"",""9"",""51653""
""focus"",""9"",""55231""
","""event"",""trial"",""time""
""blur"",""9"",""51653""
","""event"",""trial"",""time""
""focus"",""9"",""55231""
","""event"",""trial"",""time""
""fullscreenenter"",""1"",""5298""
","
",,,,,,,,,,,,"[{""stimulus"":""run_exp/static/images/task_images/dig.jpg"",""time"":0.5},{""stimulus"":""run_exp/static/images/task_images/land.jpg"",""time"":674},{""stimulus"":""run_exp/static/images/task_images/dig.jpg"",""time"":1337}]",[],,,,,,,,,,,,,,,
harvest_prac,29,229403,0.0-11.0-3.0,"""event"",""trial"",""time""
""fullscreenenter"",""1"",""5298""
""blur"",""9"",""51653""
""focus"",""9"",""55231""
","""event"",""trial"",""time""
""blur"",""9"",""51653""
","""event"",""trial"",""time""
""focus"",""9"",""55231""
","""event"",""trial"",""time""
""fullscreenenter"",""1"",""5298""
","
",,null,run_exp/static/images/task_images/barrel_text.jpg,null,,,,,,,,,,,,,,,,,,,,,,,,
decision_prac,30,229481,0.0-11.0-4.0,"""event"",""trial"",""time""
""fullscreenenter"",""1"",""5298""
""blur"",""9"",""51653""
""focus"",""9"",""55231""
","""event"",""trial"",""time""
""blur"",""9"",""51653""
","""event"",""trial"",""time""
""focus"",""9"",""55231""
","""event"",""trial"",""time""
""fullscreenenter"",""1"",""5298""
","
",,75.8,run_exp/static/images/task_images/land.jpg,65,,,,,,,,,,,1,,,,,,,,,,,,,
dig_prac,31,231494,0.0-12.0-0.0,"""event"",""trial"",""time""
""fullscreenenter"",""1"",""5298""
""blur"",""9"",""51653""
""focus"",""9"",""55231""
","""event"",""trial"",""time""
""blur"",""9"",""51653""
","""event"",""trial"",""time""
""focus"",""9"",""55231""
","""event"",""trial"",""time""
""fullscreenenter"",""1"",""5298""
","
",,,,,,,,,,,,"[{""stimulus"":""run_exp/static/images/task_images/dig.jpg"",""time"":0.3999999985098839},{""stimulus"":""run_exp/static/images/task_images/land.jpg"",""time"":673.6000000014901},{""stimulus"":""run_exp/static/images/task_images/dig.jpg"",""time"":1339}]",[],,,,,,,,,,,,,,,
harvest_prac,32,232504,0.0-12.0-1.0,"""event"",""trial"",""time""
""fullscreenenter"",""1"",""5298""
""blur"",""9"",""51653""
""focus"",""9"",""55231""
","""event"",""trial"",""time""
""blur"",""9"",""51653""
","""event"",""trial"",""time""
""focus"",""9"",""55231""
","""event"",""trial"",""time""
""fullscreenenter"",""1"",""5298""
","
",,null,run_exp/static/images/task_images/barrel_text.jpg,null,,,,,,,,,,,,,,,,,,,,,,,,
decision_prac,33,233066,0.0-12.0-2.0,"""event"",""trial"",""time""
""fullscreenenter"",""1"",""5298""
""blur"",""9"",""51653""
""focus"",""9"",""55231""
","""event"",""trial"",""time""
""blur"",""9"",""51653""
","""event"",""trial"",""time""
""focus"",""9"",""55231""
","""event"",""trial"",""time""
""fullscreenenter"",""1"",""5298""
","
",,559.3,run_exp/static/images/task_images/land.jpg,65,,,,,,,,,,,2,,,,,,,,,,,,,
dig_prac,34,235079,0.0-13.0-0.0,"""event"",""trial"",""time""
""fullscreenenter"",""1"",""5298""
""blur"",""9"",""51653""
""focus"",""9"",""55231""
","""event"",""trial"",""time""
""blur"",""9"",""51653""
","""event"",""trial"",""time""
""focus"",""9"",""55231""
","""event"",""trial"",""time""
""fullscreenenter"",""1"",""5298""
","
",,,,,,,,,,,,"[{""stimulus"":""run_exp/static/images/task_images/dig.jpg"",""time"":0.29999999701976776},{""stimulus"":""run_exp/static/images/task_images/land.jpg"",""time"":670.2999999970198},{""stimulus"":""run_exp/static/images/task_images/dig.jpg"",""time"":1344.1000000014901}]",[],,,,,,,,,,,,,,,
harvest_prac,35,236092,0.0-13.0-1.0,"""event"",""trial"",""time""
""fullscreenenter"",""1"",""5298""
""blur"",""9"",""51653""
""focus"",""9"",""55231""
","""event"",""trial"",""time""
""blur"",""9"",""51653""
","""event"",""trial"",""time""
""focus"",""9"",""55231""
","""event"",""trial"",""time""
""fullscreenenter"",""1"",""5298""
","
",,null,run_exp/static/images/task_images/barrel_text.jpg,null,,,,,,,,,,,,,,,,,,,,,,,,
decision_prac,36,236151,0.0-13.0-2.0,"""event"",""trial"",""time""
""fullscreenenter"",""1"",""5298""
""blur"",""9"",""51653""
""focus"",""9"",""55231""
","""event"",""trial"",""time""
""blur"",""9"",""51653""
","""event"",""trial"",""time""
""focus"",""9"",""55231""
","""event"",""trial"",""time""
""fullscreenenter"",""1"",""5298""
","
",,56.7,run_exp/static/images/task_images/land.jpg,65,,,,,,,,,,,3,,,,,,,,,,,,,
dig_prac,37,238165,0.0-14.0-0.0,"""event"",""trial"",""time""
""fullscreenenter"",""1"",""5298""
""blur"",""9"",""51653""
""focus"",""9"",""55231""
","""event"",""trial"",""time""
""blur"",""9"",""51653""
","""event"",""trial"",""time""
""focus"",""9"",""55231""
","""event"",""trial"",""time""
""fullscreenenter"",""1"",""5298""
","
",,,,,,,,,,,,"[{""stimulus"":""run_exp/static/images/task_images/dig.jpg"",""time"":0.29999999701976776},{""stimulus"":""run_exp/static/images/task_images/land.jpg"",""time"":675.2999999970198},{""stimulus"":""run_exp/static/images/task_images/dig.jpg"",""time"":1343.2999999970198}]",[],,,,,,,,,,,,,,,
harvest_prac,38,239168,0.0-14.0-1.0,"""event"",""trial"",""time""
""fullscreenenter"",""1"",""5298""
""blur"",""9"",""51653""
""focus"",""9"",""55231""
","""event"",""trial"",""time""
""blur"",""9"",""51653""
","""event"",""trial"",""time""
""focus"",""9"",""55231""
","""event"",""trial"",""time""
""fullscreenenter"",""1"",""5298""
","
",,null,run_exp/static/images/task_images/barrel_text.jpg,null,,,,,,,,,,,,,,,,,,,,,,,,
decision_prac,39,239366,0.0-14.0-2.0,"""event"",""trial"",""time""
""fullscreenenter"",""1"",""5298""
""blur"",""9"",""51653""
""focus"",""9"",""55231""
","""event"",""trial"",""time""
""blur"",""9"",""51653""
","""event"",""trial"",""time""
""focus"",""9"",""55231""
","""event"",""trial"",""time""
""fullscreenenter"",""1"",""5298""
","
",,195.5,run_exp/static/images/task_images/land.jpg,65,,,,,,,,,,,4,,,,,,,,,,,,,
dig_prac,40,241385,0.0-15.0-0.0,"""event"",""trial"",""time""
""fullscreenenter"",""1"",""5298""
""blur"",""9"",""51653""
""focus"",""9"",""55231""
","""event"",""trial"",""time""
""blur"",""9"",""51653""
","""event"",""trial"",""time""
""focus"",""9"",""55231""
","""event"",""trial"",""time""
""fullscreenenter"",""1"",""5298""
","
",,,,,,,,,,,,"[{""stimulus"":""run_exp/static/images/task_images/dig.jpg"",""time"":0.3999999985098839},{""stimulus"":""run_exp/static/images/task_images/land.jpg"",""time"":669.8999999985099},{""stimulus"":""run_exp/static/images/task_images/dig.jpg"",""time"":1348.3000000044703}]",[],,,,,,,,,,,,,,,
harvest_prac,41,242391,0.0-15.0-1.0,"""event"",""trial"",""time""
""fullscreenenter"",""1"",""5298""
""blur"",""9"",""51653""
""focus"",""9"",""55231""
","""event"",""trial"",""time""
""blur"",""9"",""51653""
","""event"",""trial"",""time""
""focus"",""9"",""55231""
","""event"",""trial"",""time""
""fullscreenenter"",""1"",""5298""
","
",,null,run_exp/static/images/task_images/barrel_text.jpg,null,,,,,,,,,,,,,,,,,,,,,,,,
decision_prac,42,242832,0.0-15.0-2.0,"""event"",""trial"",""time""
""fullscreenenter"",""1"",""5298""
""blur"",""9"",""51653""
""focus"",""9"",""55231""
","""event"",""trial"",""time""
""blur"",""9"",""51653""
","""event"",""trial"",""time""
""focus"",""9"",""55231""
","""event"",""trial"",""time""
""fullscreenenter"",""1"",""5298""
","
",,437.8,run_exp/static/images/task_images/land.jpg,65,,,,,,,,,,,,1,,,,,,,,,,,,
quiz_instruc,43,251180,0.0-16.0-0.0,"""event"",""trial"",""time""
""fullscreenenter"",""1"",""5298""
""blur"",""9"",""51653""
""focus"",""9"",""55231""
","""event"",""trial"",""time""
""blur"",""9"",""51653""
","""event"",""trial"",""time""
""focus"",""9"",""55231""
","""event"",""trial"",""time""
""fullscreenenter"",""1"",""5298""
","
",,8341.5,run_exp/static/audio/clip_10_quiz.m4a,,,,,,,0,,,,,,,,,,,,,,,,,,
instruc_repeat,44,293960,0.0-16.0-1.0,"""event"",""trial"",""time""
""fullscreenenter"",""1"",""5298""
""blur"",""9"",""51653""
""focus"",""9"",""55231""
","""event"",""trial"",""time""
""blur"",""9"",""51653""
","""event"",""trial"",""time""
""focus"",""9"",""55231""
","""event"",""trial"",""time""
""fullscreenenter"",""1"",""5298""
","
",,null,"<p> Are you ready to play a practice game? </p> <p>In this practice game, you'll be digging up barrels of gems. But, in the real game, you'll be digging up the gems themselves. </p>",null,"<p>In this game, your goal is to collect as many gems as you can. That’s how you will win bonus money. </p> <p>The entire game will last 20 minutes no matter how many gems you collect or how many planets you visit. </p><p>To stay on a planet and dig again, press the letter A on your keyboard. To leave for a new planet, press the letter L.</p><p>The more you dig on a planet, the fewer gems you’ll get with each dig which is why you might consider leaving for a new planet. </p><p>When you arrive at a new planet, you’ll be greeted by an alien. What the alien looks like does not tell you anything about how much treasure is on the planet. </p>",,,,,,,,,,,,,,,,,,,,,,,
instruc_repeat_continue,45,299068,0.0-16.0-2.0,"""event"",""trial"",""time""
""fullscreenenter"",""1"",""5298""
""blur"",""9"",""51653""
""focus"",""9"",""55231""
","""event"",""trial"",""time""
""blur"",""9"",""51653""
","""event"",""trial"",""time""
""focus"",""9"",""55231""
","""event"",""trial"",""time""
""fullscreenenter"",""1"",""5298""
","
",,5103.7,"<p> Are you ready to play a practice game? </p> <p>In this practice game, you'll be digging up barrels of gems. But, in the real game, you'll be digging up the gems themselves. </p>",,,,,,,0,,,,,,,,,,,,,,,,,,
quiz_q_1_ask,46,304770,0.0-16.0-3.0,"""event"",""trial"",""time""
""fullscreenenter"",""1"",""5298""
""blur"",""9"",""51653""
""focus"",""9"",""55231""
","""event"",""trial"",""time""
""blur"",""9"",""51653""
","""event"",""trial"",""time""
""focus"",""9"",""55231""
","""event"",""trial"",""time""
""fullscreenenter"",""1"",""5298""
","
",,5698.5,run_exp/static/audio/clip_11_q1_ask.m4a,,,,,,,2,,,,,,,,,,,,,,,,,,
quiz_q_1_fb_correct,47,308641,0.0-17.0-0.0,"""event"",""trial"",""time""
""fullscreenenter"",""1"",""5298""
""blur"",""9"",""51653""
""focus"",""9"",""55231""
","""event"",""trial"",""time""
""blur"",""9"",""51653""
","""event"",""trial"",""time""
""focus"",""9"",""55231""
","""event"",""trial"",""time""
""fullscreenenter"",""1"",""5298""
","
",,null,run_exp/static/audio/clip_12_q1_correct.m4a,null,<p>That’s correct. You win extra money by collecting more gems.</p>,,,,,,,,,,,,,,,,,,,,,,,
quiz_q_2_ask,48,311217,0.0-17.0-1.0,"""event"",""trial"",""time""
""fullscreenenter"",""1"",""5298""
""blur"",""9"",""51653""
""focus"",""9"",""55231""
","""event"",""trial"",""time""
""blur"",""9"",""51653""
","""event"",""trial"",""time""
""focus"",""9"",""55231""
","""event"",""trial"",""time""
""fullscreenenter"",""1"",""5298""
","
",,2571.1,run_exp/static/audio/clip_14_q2_ask.m4a,,,,,,,1,,,,,,,,,,,,,,,,,,
quiz_q_2_fb_correct,49,315261,0.0-18.0-0.0,"""event"",""trial"",""time""
""fullscreenenter"",""1"",""5298""
""blur"",""9"",""51653""
""focus"",""9"",""55231""
","""event"",""trial"",""time""
""blur"",""9"",""51653""
","""event"",""trial"",""time""
""focus"",""9"",""55231""
","""event"",""trial"",""time""
""fullscreenenter"",""1"",""5298""
","
",,null,run_exp/static/audio/clip_15_q2_correct.m4a,null,<p>That’s correct. The experiment is 20 minutes no matter what.</p>,,,,,,,,,,,,,,,,,,,,,,,
quiz_q_3_ask,50,319450,0.0-18.0-1.0,"""event"",""trial"",""time""
""fullscreenenter"",""1"",""5298""
""blur"",""9"",""51653""
""focus"",""9"",""55231""
","""event"",""trial"",""time""
""blur"",""9"",""51653""
","""event"",""trial"",""time""
""focus"",""9"",""55231""
","""event"",""trial"",""time""
""fullscreenenter"",""1"",""5298""
","
",,4182.3,run_exp/static/audio/clip_17_q3_ask.m4a,,,,,,,1,,,,,,,,,,,,,,,,,,
quiz_q_3_fb_correct,51,323465,0.0-19.0-0.0,"""event"",""trial"",""time""
""fullscreenenter"",""1"",""5298""
""blur"",""9"",""51653""
""focus"",""9"",""55231""
","""event"",""trial"",""time""
""blur"",""9"",""51653""
","""event"",""trial"",""time""
""focus"",""9"",""55231""
","""event"",""trial"",""time""
""fullscreenenter"",""1"",""5298""
","
",,null,run_exp/static/audio/clip_18_q3_correct.m4a,null,<p> That’s correct. You press the letter L to travel to a new planet.</p>,,,,,,,,,,,,,,,,,,,,,,,
quiz_q_4_ask,52,330184,0.0-19.0-1.0,"""event"",""trial"",""time""
""fullscreenenter"",""1"",""5298""
""blur"",""9"",""51653""
""focus"",""9"",""55231""
","""event"",""trial"",""time""
""blur"",""9"",""51653""
","""event"",""trial"",""time""
""focus"",""9"",""55231""
","""event"",""trial"",""time""
""fullscreenenter"",""1"",""5298""
","
",,6715,run_exp/static/audio/clip_20_q4_ask.m4a,,,,,,,0,,,,,,,,,,,,,,,,,,
quiz_q_4_fb_correct,53,335524,0.0-20.0-0.0,"""event"",""trial"",""time""
""fullscreenenter"",""1"",""5298""
""blur"",""9"",""51653""
""focus"",""9"",""55231""
","""event"",""trial"",""time""
""blur"",""9"",""51653""
","""event"",""trial"",""time""
""focus"",""9"",""55231""
","""event"",""trial"",""time""
""fullscreenenter"",""1"",""5298""
","
",,null,run_exp/static/audio/clip_21_q4_correct.m4a,null,<p> That’s correct. The more you dig on a planet the fewer gems you’ll get with each dig. </p>,,,,,,,,,,,,,,,,,,,,,,,
quiz_q_5_ask,54,341362,0.0-20.0-1.0,"""event"",""trial"",""time""
""fullscreenenter"",""1"",""5298""
""blur"",""9"",""51653""
""focus"",""9"",""55231""
","""event"",""trial"",""time""
""blur"",""9"",""51653""
","""event"",""trial"",""time""
""focus"",""9"",""55231""
","""event"",""trial"",""time""
""fullscreenenter"",""1"",""5298""
","
",,5834.4,run_exp/static/audio/clip_23_q5_ask.m4a,,,,,,,1,,,,,,,,,,,,,,,,,,
quiz_q_5_fb_correct,55,346384,0.0-21.0-0.0,"""event"",""trial"",""time""
""fullscreenenter"",""1"",""5298""
""blur"",""9"",""51653""
""focus"",""9"",""55231""
","""event"",""trial"",""time""
""blur"",""9"",""51653""
","""event"",""trial"",""time""
""focus"",""9"",""55231""
","""event"",""trial"",""time""
""fullscreenenter"",""1"",""5298""
","
",,null,run_exp/static/audio/clip_24_q5_correct.m4a,null,<p> That’s correct. The alien tells you nothing about how much treasure is on the planet.</p>,,,,,,,,,,,,,,,,,,,,,,,
quiz_correct,56,349884,0.0-22.0-0.0,"""event"",""trial"",""time""
""fullscreenenter"",""1"",""5298""
""blur"",""9"",""51653""
""focus"",""9"",""55231""
","""event"",""trial"",""time""
""blur"",""9"",""51653""
","""event"",""trial"",""time""
""focus"",""9"",""55231""
","""event"",""trial"",""time""
""fullscreenenter"",""1"",""5298""
","
",,null,run_exp/static/audio/clip_26_correct_quiz.m4a,null,,,,,,,,,,,,,,,,,,,,,,,,
quiz_correct_continue,57,364990,0.0-22.0-1.0,"""event"",""trial"",""time""
""fullscreenenter"",""1"",""5298""
""blur"",""9"",""51653""
""focus"",""9"",""55231""
","""event"",""trial"",""time""
""blur"",""9"",""51653""
","""event"",""trial"",""time""
""focus"",""9"",""55231""
","""event"",""trial"",""time""
""fullscreenenter"",""1"",""5298""
","
",,15103.8,<p>Good job! You're now ready to move on to the real game!</p>,,,,,,,0,,,,,,,,,,,,,,,,,,
audio-keyboard-response,58,375191,0.0-22.0-2.0,"""event"",""trial"",""time""
""fullscreenenter"",""1"",""5298""
""blur"",""9"",""51653""
""focus"",""9"",""55231""
","""event"",""trial"",""time""
""blur"",""9"",""51653""
","""event"",""trial"",""time""
""focus"",""9"",""55231""
","""event"",""trial"",""time""
""fullscreenenter"",""1"",""5298""
","
",,null,run_exp/static/audio/clip_28_real_game.m4a,null,,,,,,,,,,,,,,,,,,,,,,,,
instruc_begin_exp_contine,59,377517,0.0-22.0-3.0,"""event"",""trial"",""time""
""fullscreenenter"",""1"",""5298""
""blur"",""9"",""51653""
""focus"",""9"",""55231""
","""event"",""trial"",""time""
""blur"",""9"",""51653""
","""event"",""trial"",""time""
""focus"",""9"",""55231""
","""event"",""trial"",""time""
""fullscreenenter"",""1"",""5298""
","
",,2322.8,"<p>Now that you know how  to dig for space treasure and travel to new planets,you can start exploring! </p><p>Do you want to go over the instructions again or get started with the real game?</p>",,,,,,,1,,,,,,1,,,,,,,,,,,,
alien_welcome,60,382528,0.0-23.0-0.0,"""event"",""trial"",""time""
""fullscreenenter"",""1"",""5298""
""blur"",""9"",""51653""
""focus"",""9"",""55231""
","""event"",""trial"",""time""
""blur"",""9"",""51653""
","""event"",""trial"",""time""
""focus"",""9"",""55231""
","""event"",""trial"",""time""
""fullscreenenter"",""1"",""5298""
","
",,null,run_exp/static/images/task_images/aliens/old_aliens/planet/alien_planet-78.jpg,null,,,,,,,,,,,,,78,"78,67,21,1,75,36,15,64,39,57,71,62,53,4,14",,,,,,,,,,
land,61,383034,0.0-23.0-1.0,"""event"",""trial"",""time""
""fullscreenenter"",""1"",""5298""
""blur"",""9"",""51653""
""focus"",""9"",""55231""
","""event"",""trial"",""time""
""blur"",""9"",""51653""
","""event"",""trial"",""time""
""focus"",""9"",""55231""
","""event"",""trial"",""time""
""fullscreenenter"",""1"",""5298""
","
",,null,run_exp/static/images/task_images/land.jpg,null,,,,,,,97,,,1,,,,,,,,,,,,,,
dig,62,385041,0.0-23.0-2.0,"""event"",""trial"",""time""
""fullscreenenter"",""1"",""5298""
""blur"",""9"",""51653""
""focus"",""9"",""55231""
","""event"",""trial"",""time""
""blur"",""9"",""51653""
","""event"",""trial"",""time""
""focus"",""9"",""55231""
","""event"",""trial"",""time""
""fullscreenenter"",""1"",""5298""
","
",,,,,,,,,,,,"[{""stimulus"":""run_exp/static/images/task_images/dig.jpg"",""time"":0.4000000059604645},{""stimulus"":""run_exp/static/images/task_images/land.jpg"",""time"":675},{""stimulus"":""run_exp/static/images/task_images/dig.jpg"",""time"":1340.5}]",[],1,,,,,,,,,,,,,,
harvest,63,386048,0.0-23.0-3.0,"""event"",""trial"",""time""
""fullscreenenter"",""1"",""5298""
""blur"",""9"",""51653""
""focus"",""9"",""55231""
","""event"",""trial"",""time""
""blur"",""9"",""51653""
","""event"",""trial"",""time""
""focus"",""9"",""55231""
","""event"",""trial"",""time""
""fullscreenenter"",""1"",""5298""
","
",,null,run_exp/static/images/task_images/gems/97.jpg,null,,,,,,,19,,,1,,,,,97,0.195428977,0.195876289,,,,,,,
decision,64,386110,0.0-23.0-4.0,"""event"",""trial"",""time""
""fullscreenenter"",""1"",""5298""
""blur"",""9"",""51653""
""focus"",""9"",""55231""
","""event"",""trial"",""time""
""blur"",""9"",""51653""
","""event"",""trial"",""time""
""focus"",""9"",""55231""
","""event"",""trial"",""time""
""fullscreenenter"",""1"",""5298""
","
",,57.5,run_exp/static/images/task_images/land.jpg,65,,,,,,,19,,,1,,,,,,,,8591,1,0,FALSE,,,
dig,65,389063,0.0-24.0-0.0,"""event"",""trial"",""time""
""fullscreenenter"",""1"",""5298""
""blur"",""9"",""51653""
""focus"",""9"",""55231""
","""event"",""trial"",""time""
""blur"",""9"",""51653""
","""event"",""trial"",""time""
""focus"",""9"",""55231""
","""event"",""trial"",""time""
""fullscreenenter"",""1"",""5298""
","
",,,,,,,,,,,,"[{""stimulus"":""run_exp/static/images/task_images/dig.jpg"",""time"":0.5999999940395355},{""stimulus"":""run_exp/static/images/task_images/land.jpg"",""time"":984.5999999940395},{""stimulus"":""run_exp/static/images/task_images/dig.jpg"",""time"":1969.3999999985099}]",[],1,,,,,,,,,,,,,,
harvest,66,390068,0.0-24.0-1.0,"""event"",""trial"",""time""
""fullscreenenter"",""1"",""5298""
""blur"",""9"",""51653""
""focus"",""9"",""55231""
","""event"",""trial"",""time""
""blur"",""9"",""51653""
","""event"",""trial"",""time""
""focus"",""9"",""55231""
","""event"",""trial"",""time""
""fullscreenenter"",""1"",""5298""
","
",,null,run_exp/static/images/task_images/gems/19.jpg,null,,,,,,,3,,,1,,,,,19,0.16173228,0.157894737,,,,,,,
decision,67,390260,0.0-24.0-2.0,"""event"",""trial"",""time""
""fullscreenenter"",""1"",""5298""
""blur"",""9"",""51653""
""focus"",""9"",""55231""
","""event"",""trial"",""time""
""blur"",""9"",""51653""
","""event"",""trial"",""time""
""focus"",""9"",""55231""
","""event"",""trial"",""time""
""fullscreenenter"",""1"",""5298""
","
",,187.4,run_exp/static/images/task_images/land.jpg,65,,,,,,,3,,,1,,,,,,,,12740,1,1,FALSE,,,
dig,68,393083,0.0-25.0-0.0,"""event"",""trial"",""time""
""fullscreenenter"",""1"",""5298""
""blur"",""9"",""51653""
""focus"",""9"",""55231""
","""event"",""trial"",""time""
""blur"",""9"",""51653""
","""event"",""trial"",""time""
""focus"",""9"",""55231""
","""event"",""trial"",""time""
""fullscreenenter"",""1"",""5298""
","
",,,,,,,,,,,,"[{""stimulus"":""run_exp/static/images/task_images/dig.jpg"",""time"":0.6000000014901161},{""stimulus"":""run_exp/static/images/task_images/land.jpg"",""time"":942.3999999985099},{""stimulus"":""run_exp/static/images/task_images/dig.jpg"",""time"":1882.7999999970198}]",[],1,,,,,,,,,,,,,,
harvest,69,394091,0.0-25.0-1.0,"""event"",""trial"",""time""
""fullscreenenter"",""1"",""5298""
""blur"",""9"",""51653""
""focus"",""9"",""55231""
","""event"",""trial"",""time""
""blur"",""9"",""51653""
","""event"",""trial"",""time""
""focus"",""9"",""55231""
","""event"",""trial"",""time""
""fullscreenenter"",""1"",""5298""
","
",,null,run_exp/static/images/task_images/gems/3.jpg,null,,,,,,,1,,,1,,,,,3,0.239775627,0.333333333,,,,,,,
decision,70,394915,0.0-25.0-2.0,"""event"",""trial"",""time""
""fullscreenenter"",""1"",""5298""
""blur"",""9"",""51653""
""focus"",""9"",""55231""
","""event"",""trial"",""time""
""blur"",""9"",""51653""
","""event"",""trial"",""time""
""focus"",""9"",""55231""
","""event"",""trial"",""time""
""fullscreenenter"",""1"",""5298""
","
",,819.7,run_exp/static/images/task_images/land.jpg,76,,,,,,,1,,,1,,,,,,,,17395,1,2,TRUE,,,
travel,71,404107,0.0-26.0-0.0,"""event"",""trial"",""time""
""fullscreenenter"",""1"",""5298""
""blur"",""9"",""51653""
""focus"",""9"",""55231""
","""event"",""trial"",""time""
""blur"",""9"",""51653""
","""event"",""trial"",""time""
""focus"",""9"",""55231""
","""event"",""trial"",""time""
""fullscreenenter"",""1"",""5298""
","
",,,,,,,,,,,,"[{""stimulus"":""run_exp/static/images/task_images/rocket-01.jpg"",""time"":0.5},{""stimulus"":""run_exp/static/images/task_images/rocket-02.jpg"",""time"":1025.7999999970198},{""stimulus"":""run_exp/static/images/task_images/rocket-03.jpg"",""time"":2045.3999999985099},{""stimulus"":""run_exp/static/images/task_images/rocket-04.jpg"",""time"":3075.7999999970198},{""stimulus"":""run_exp/static/images/task_images/rocket-05.jpg"",""time"":4085.2999999970198},{""stimulus"":""run_exp/static/images/task_images/rocket-06.jpg"",""time"":5115.89999999851},{""stimulus"":""run_exp/static/images/task_images/rocket-07.jpg"",""time"":6131.89999999851},{""stimulus"":""run_exp/static/images/task_images/rocket-08.jpg"",""time"":7146.29999999702},{""stimulus"":""run_exp/static/images/task_images/rocket-09.jpg"",""time"":8167.20000000298}]",[],1,,,,,,,,,,,,,,
alien_welcome,72,409116,0.0-26.0-1.0,"""event"",""trial"",""time""
""fullscreenenter"",""1"",""5298""
""blur"",""9"",""51653""
""focus"",""9"",""55231""
","""event"",""trial"",""time""
""blur"",""9"",""51653""
","""event"",""trial"",""time""
""focus"",""9"",""55231""
","""event"",""trial"",""time""
""fullscreenenter"",""1"",""5298""
","
",,null,run_exp/static/images/task_images/aliens/old_aliens/planet/alien_planet-67.jpg,null,,,,,,,,,,,,,67,"78,67,21,1,75,36,15,64,39,57,71,62,53,4,14",,,,,,,,,,
land,73,409623,0.0-26.0-2.0,"""event"",""trial"",""time""
""fullscreenenter"",""1"",""5298""
""blur"",""9"",""51653""
""focus"",""9"",""55231""
","""event"",""trial"",""time""
""blur"",""9"",""51653""
","""event"",""trial"",""time""
""focus"",""9"",""55231""
","""event"",""trial"",""time""
""fullscreenenter"",""1"",""5298""
","
",,null,run_exp/static/images/task_images/land.jpg,null,,,,,,,101,,,2,,,,,,,,,,,,,,
dig,74,411635,0.0-26.0-3.0,"""event"",""trial"",""time""
""fullscreenenter"",""1"",""5298""
""blur"",""9"",""51653""
""focus"",""9"",""55231""
","""event"",""trial"",""time""
""blur"",""9"",""51653""
","""event"",""trial"",""time""
""focus"",""9"",""55231""
","""event"",""trial"",""time""
""fullscreenenter"",""1"",""5298""
","
",,,,,,,,,,,,"[{""stimulus"":""run_exp/static/images/task_images/dig.jpg"",""time"":0.5},{""stimulus"":""run_exp/static/images/task_images/land.jpg"",""time"":676.3999999985099},{""stimulus"":""run_exp/static/images/task_images/dig.jpg"",""time"":1342.8999999985099}]",[],2,,,,,,,,,,,,,,
harvest,75,412645,0.0-26.0-4.0,"""event"",""trial"",""time""
""fullscreenenter"",""1"",""5298""
""blur"",""9"",""51653""
""focus"",""9"",""55231""
","""event"",""trial"",""time""
""blur"",""9"",""51653""
","""event"",""trial"",""time""
""focus"",""9"",""55231""
","""event"",""trial"",""time""
""fullscreenenter"",""1"",""5298""
","
",,null,run_exp/static/images/task_images/gems/101.jpg,null,,,,,,,16,,,2,,,,,101,0.162458182,0.158415842,,,,,,,
decision,76,413401,0.0-26.0-5.0,"""event"",""trial"",""time""
""fullscreenenter"",""1"",""5298""
""blur"",""9"",""51653""
""focus"",""9"",""55231""
","""event"",""trial"",""time""
""blur"",""9"",""51653""
","""event"",""trial"",""time""
""focus"",""9"",""55231""
","""event"",""trial"",""time""
""fullscreenenter"",""1"",""5298""
","
",,754.1,run_exp/static/images/task_images/land.jpg,65,,,,,,,16,,,2,,,,,,,,35881,1,0,FALSE,,,
dig,77,415656,0.0-27.0-0.0,"""event"",""trial"",""time""
""fullscreenenter"",""1"",""5298""
""blur"",""9"",""51653""
""focus"",""9"",""55231""
","""event"",""trial"",""time""
""blur"",""9"",""51653""
","""event"",""trial"",""time""
""focus"",""9"",""55231""
","""event"",""trial"",""time""
""fullscreenenter"",""1"",""5298""
","
",,,,,,,,,,,,"[{""stimulus"":""run_exp/static/images/task_images/dig.jpg"",""time"":0.5},{""stimulus"":""run_exp/static/images/task_images/land.jpg"",""time"":765.8000000044703},{""stimulus"":""run_exp/static/images/task_images/dig.jpg"",""time"":1504}]",[],2,,,,,,,,,,,,,,
harvest,78,416673,0.0-27.0-1.0,"""event"",""trial"",""time""
""fullscreenenter"",""1"",""5298""
""blur"",""9"",""51653""
""focus"",""9"",""55231""
","""event"",""trial"",""time""
""blur"",""9"",""51653""
","""event"",""trial"",""time""
""focus"",""9"",""55231""
","""event"",""trial"",""time""
""fullscreenenter"",""1"",""5298""
","
",,null,run_exp/static/images/task_images/gems/16.jpg,null,,,,,,,3,,,2,,,,,16,0.196121848,0.1875,,,,,,,
decision,79,419676,0.0-27.0-2.0,"""event"",""trial"",""time""
""fullscreenenter"",""1"",""5298""
""blur"",""9"",""51653""
""focus"",""9"",""55231""
","""event"",""trial"",""time""
""blur"",""9"",""51653""
","""event"",""trial"",""time""
""focus"",""9"",""55231""
","""event"",""trial"",""time""
""fullscreenenter"",""1"",""5298""
","
",,null,run_exp/static/images/task_images/land.jpg,null,,,,,,,3,,,2,,,,,,,,42156,1,1,FALSE,,,
time_out,80,421689,0.0-28.0-0.0,"""event"",""trial"",""time""
""fullscreenenter"",""1"",""5298""
""blur"",""9"",""51653""
""focus"",""9"",""55231""
","""event"",""trial"",""time""
""blur"",""9"",""51653""
","""event"",""trial"",""time""
""focus"",""9"",""55231""
","""event"",""trial"",""time""
""fullscreenenter"",""1"",""5298""
","
",,null,run_exp/static/images/task_images/time_out.jpg,null,,,,,,,3,,,,,,,,,,,,,,,,,
decision,81,421933,0.0-28.0-1.0,"""event"",""trial"",""time""
""fullscreenenter"",""1"",""5298""
""blur"",""9"",""51653""
""focus"",""9"",""55231""
","""event"",""trial"",""time""
""blur"",""9"",""51653""
","""event"",""trial"",""time""
""focus"",""9"",""55231""
","""event"",""trial"",""time""
""fullscreenenter"",""1"",""5298""
","
",,237.7,run_exp/static/images/task_images/land.jpg,76,,,,,,,3,,,2,,,,,,,,44413,1,1,TRUE,,,
travel,82,431704,0.0-29.0-0.0,"""event"",""trial"",""time""
""fullscreenenter"",""1"",""5298""
""blur"",""9"",""51653""
""focus"",""9"",""55231""
","""event"",""trial"",""time""
""blur"",""9"",""51653""
","""event"",""trial"",""time""
""focus"",""9"",""55231""
","""event"",""trial"",""time""
""fullscreenenter"",""1"",""5298""
","
",,,,,,,,,,,,"[{""stimulus"":""run_exp/static/images/task_images/rocket-01.jpg"",""time"":0.6999999955296516},{""stimulus"":""run_exp/static/images/task_images/rocket-02.jpg"",""time"":1092.1999999955297},{""stimulus"":""run_exp/static/images/task_images/rocket-03.jpg"",""time"":2174.39999999851},{""stimulus"":""run_exp/static/images/task_images/rocket-04.jpg"",""time"":3258.5},{""stimulus"":""run_exp/static/images/task_images/rocket-05.jpg"",""time"":4348.29999999702},{""stimulus"":""run_exp/static/images/task_images/rocket-06.jpg"",""time"":5423.29999999702},{""stimulus"":""run_exp/static/images/task_images/rocket-07.jpg"",""time"":6508.69999999553},{""stimulus"":""run_exp/static/images/task_images/rocket-08.jpg"",""time"":7605.5},{""stimulus"":""run_exp/static/images/task_images/rocket-09.jpg"",""time"":8683.10000000149}]",[],2,,,,,,,,,,,,,,
alien_welcome,83,436713,0.0-29.0-1.0,"""event"",""trial"",""time""
""fullscreenenter"",""1"",""5298""
""blur"",""9"",""51653""
""focus"",""9"",""55231""
","""event"",""trial"",""time""
""blur"",""9"",""51653""
","""event"",""trial"",""time""
""focus"",""9"",""55231""
","""event"",""trial"",""time""
""fullscreenenter"",""1"",""5298""
","
",,null,run_exp/static/images/task_images/aliens/old_aliens/planet/alien_planet-21.jpg,null,,,,,,,,,,,,,21,"78,67,21,1,75,36,15,64,39,57,71,62,53,4,14",,,,,,,,,,
land,84,437221,0.0-29.0-2.0,"""event"",""trial"",""time""
""fullscreenenter"",""1"",""5298""
""blur"",""9"",""51653""
""focus"",""9"",""55231""
","""event"",""trial"",""time""
""blur"",""9"",""51653""
","""event"",""trial"",""time""
""focus"",""9"",""55231""
","""event"",""trial"",""time""
""fullscreenenter"",""1"",""5298""
","
",,null,run_exp/static/images/task_images/land.jpg,null,,,,,,,94,,,3,,,,,,,,,,,,,,
dig,85,439234,0.0-29.0-3.0,"""event"",""trial"",""time""
""fullscreenenter"",""1"",""5298""
""blur"",""9"",""51653""
""focus"",""9"",""55231""
","""event"",""trial"",""time""
""blur"",""9"",""51653""
","""event"",""trial"",""time""
""focus"",""9"",""55231""
","""event"",""trial"",""time""
""fullscreenenter"",""1"",""5298""
","
",,,,,,,,,,,,"[{""stimulus"":""run_exp/static/images/task_images/dig.jpg"",""time"":0.4000000059604645},{""stimulus"":""run_exp/static/images/task_images/land.jpg"",""time"":677.5},{""stimulus"":""run_exp/static/images/task_images/dig.jpg"",""time"":1338.8000000044703}]",[],3,,,,,,,,,,,,,,
harvest,86,440243,0.0-29.0-4.0,"""event"",""trial"",""time""
""fullscreenenter"",""1"",""5298""
""blur"",""9"",""51653""
""focus"",""9"",""55231""
","""event"",""trial"",""time""
""blur"",""9"",""51653""
","""event"",""trial"",""time""
""focus"",""9"",""55231""
","""event"",""trial"",""time""
""fullscreenenter"",""1"",""5298""
","
",,null,run_exp/static/images/task_images/gems/94.jpg,null,,,,,,,48,,,3,,,,,94,0.508771611,0.510638298,,,,,,,
decision,87,442141,0.0-29.0-5.0,"""event"",""trial"",""time""
""fullscreenenter"",""1"",""5298""
""blur"",""9"",""51653""
""focus"",""9"",""55231""
","""event"",""trial"",""time""
""blur"",""9"",""51653""
","""event"",""trial"",""time""
""focus"",""9"",""55231""
","""event"",""trial"",""time""
""fullscreenenter"",""1"",""5298""
","
",,1893.5,run_exp/static/images/task_images/land.jpg,65,,,,,,,48,,,3,,,,,,,,64621,1,0,FALSE,,,
dig,88,443254,0.0-30.0-0.0,"""event"",""trial"",""time""
""fullscreenenter"",""1"",""5298""
""blur"",""9"",""51653""
""focus"",""9"",""55231""
","""event"",""trial"",""time""
""blur"",""9"",""51653""
","""event"",""trial"",""time""
""focus"",""9"",""55231""
","""event"",""trial"",""time""
""fullscreenenter"",""1"",""5298""
","
",,,,,,,,,,,,"[{""stimulus"":""run_exp/static/images/task_images/dig.jpg"",""time"":0.30000000447034836},{""stimulus"":""run_exp/static/images/task_images/land.jpg"",""time"":372.1000000014901},{""stimulus"":""run_exp/static/images/task_images/dig.jpg"",""time"":738.1000000014901}]",[],3,,,,,,,,,,,,,,
harvest,89,444258,0.0-30.0-1.0,"""event"",""trial"",""time""
""fullscreenenter"",""1"",""5298""
""blur"",""9"",""51653""
""focus"",""9"",""55231""
","""event"",""trial"",""time""
""blur"",""9"",""51653""
","""event"",""trial"",""time""
""focus"",""9"",""55231""
","""event"",""trial"",""time""
""fullscreenenter"",""1"",""5298""
","
",,null,run_exp/static/images/task_images/gems/48.jpg,null,,,,,,,22,,,3,,,,,48,0.460482348,0.458333333,,,,,,,
decision,90,444699,0.0-30.0-2.0,"""event"",""trial"",""time""
""fullscreenenter"",""1"",""5298""
""blur"",""9"",""51653""
""focus"",""9"",""55231""
","""event"",""trial"",""time""
""blur"",""9"",""51653""
","""event"",""trial"",""time""
""focus"",""9"",""55231""
","""event"",""trial"",""time""
""fullscreenenter"",""1"",""5298""
","
",,436.3,run_exp/static/images/task_images/land.jpg,65,,,,,,,22,,,3,,,,,,,,67180,1,1,FALSE,,,
dig,91,447278,0.0-31.0-0.0,"""event"",""trial"",""time""
""fullscreenenter"",""1"",""5298""
""blur"",""9"",""51653""
""focus"",""9"",""55231""
","""event"",""trial"",""time""
""blur"",""9"",""51653""
","""event"",""trial"",""time""
""focus"",""9"",""55231""
","""event"",""trial"",""time""
""fullscreenenter"",""1"",""5298""
","
",,,,,,,,,,,,"[{""stimulus"":""run_exp/static/images/task_images/dig.jpg"",""time"":0.5},{""stimulus"":""run_exp/static/images/task_images/land.jpg"",""time"":856.3000000044703},{""stimulus"":""run_exp/static/images/task_images/dig.jpg"",""time"":1711.8000000044703}]",[],3,,,,,,,,,,,,,,
harvest,92,448282,0.0-31.0-1.0,"""event"",""trial"",""time""
""fullscreenenter"",""1"",""5298""
""blur"",""9"",""51653""
""focus"",""9"",""55231""
","""event"",""trial"",""time""
""blur"",""9"",""51653""
","""event"",""trial"",""time""
""focus"",""9"",""55231""
","""event"",""trial"",""time""
""fullscreenenter"",""1"",""5298""
","
",,null,run_exp/static/images/task_images/gems/22.jpg,null,,,,,,,12,,,3,,,,,22,0.55994808,0.545454545,,,,,,,
decision,93,449231,0.0-31.0-2.0,"""event"",""trial"",""time""
""fullscreenenter"",""1"",""5298""
""blur"",""9"",""51653""
""focus"",""9"",""55231""
","""event"",""trial"",""time""
""blur"",""9"",""51653""
","""event"",""trial"",""time""
""focus"",""9"",""55231""
","""event"",""trial"",""time""
""fullscreenenter"",""1"",""5298""
","
",,944.2,run_exp/static/images/task_images/land.jpg,76,,,,,,,12,,,3,,,,,,,,71711,1,2,TRUE,,,
travel,94,458295,0.0-32.0-0.0,"""event"",""trial"",""time""
""fullscreenenter"",""1"",""5298""
""blur"",""9"",""51653""
""focus"",""9"",""55231""
","""event"",""trial"",""time""
""blur"",""9"",""51653""
","""event"",""trial"",""time""
""focus"",""9"",""55231""
","""event"",""trial"",""time""
""fullscreenenter"",""1"",""5298""
","
",,,,,,,,,,,,"[{""stimulus"":""run_exp/static/images/task_images/rocket-01.jpg"",""time"":0.3999999985098839},{""stimulus"":""run_exp/static/images/task_images/rocket-02.jpg"",""time"":1011},{""stimulus"":""run_exp/static/images/task_images/rocket-03.jpg"",""time"":2016.5},{""stimulus"":""run_exp/static/images/task_images/rocket-04.jpg"",""time"":3026.2999999970198},{""stimulus"":""run_exp/static/images/task_images/rocket-05.jpg"",""time"":4030.60000000149},{""stimulus"":""run_exp/static/images/task_images/rocket-06.jpg"",""time"":5045.89999999851},{""stimulus"":""run_exp/static/images/task_images/rocket-07.jpg"",""time"":6050.70000000298},{""stimulus"":""run_exp/static/images/task_images/rocket-08.jpg"",""time"":7056.29999999702},{""stimulus"":""run_exp/static/images/task_images/rocket-09.jpg"",""time"":8057.39999999851}]",[],3,,,,,,,,,,,,,,
alien_welcome,95,463309,0.0-32.0-1.0,"""event"",""trial"",""time""
""fullscreenenter"",""1"",""5298""
""blur"",""9"",""51653""
""focus"",""9"",""55231""
","""event"",""trial"",""time""
""blur"",""9"",""51653""
","""event"",""trial"",""time""
""focus"",""9"",""55231""
","""event"",""trial"",""time""
""fullscreenenter"",""1"",""5298""
","
",,null,run_exp/static/images/task_images/aliens/old_aliens/planet/alien_planet-1.jpg,null,,,,,,,,,,,,,1,"78,67,21,1,75,36,15,64,39,57,71,62,53,4,14",,,,,,,,,,
land,96,463813,0.0-32.0-2.0,"""event"",""trial"",""time""
""fullscreenenter"",""1"",""5298""
""blur"",""9"",""51653""
""focus"",""9"",""55231""
","""event"",""trial"",""time""
""blur"",""9"",""51653""
","""event"",""trial"",""time""
""focus"",""9"",""55231""
","""event"",""trial"",""time""
""fullscreenenter"",""1"",""5298""
","
",,null,run_exp/static/images/task_images/land.jpg,null,,,,,,,94,,,4,,,,,,,,,,,,,,
dig,97,465832,0.0-32.0-3.0,"""event"",""trial"",""time""
""fullscreenenter"",""1"",""5298""
""blur"",""9"",""51653""
""focus"",""9"",""55231""
","""event"",""trial"",""time""
""blur"",""9"",""51653""
","""event"",""trial"",""time""
""focus"",""9"",""55231""
","""event"",""trial"",""time""
""fullscreenenter"",""1"",""5298""
","
",,,,,,,,,,,,"[{""stimulus"":""run_exp/static/images/task_images/dig.jpg"",""time"":0.5},{""stimulus"":""run_exp/static/images/task_images/land.jpg"",""time"":669.6000000014901},{""stimulus"":""run_exp/static/images/task_images/dig.jpg"",""time"":1343.2999999970198}]",[],4,,,,,,,,,,,,,,
harvest,98,466838,0.0-32.0-4.0,"""event"",""trial"",""time""
""fullscreenenter"",""1"",""5298""
""blur"",""9"",""51653""
""focus"",""9"",""55231""
","""event"",""trial"",""time""
""blur"",""9"",""51653""
","""event"",""trial"",""time""
""focus"",""9"",""55231""
","""event"",""trial"",""time""
""fullscreenenter"",""1"",""5298""
","
",,null,run_exp/static/images/task_images/gems/94.jpg,null,,,,,,,47,,,4,,,,,94,0.502556167,0.5,,,,,,,
decision,99,466863,0.0-32.0-5.0,"""event"",""trial"",""time""
""fullscreenenter"",""1"",""5298""
""blur"",""9"",""51653""
""focus"",""9"",""55231""
","""event"",""trial"",""time""
""blur"",""9"",""51653""
","""event"",""trial"",""time""
""focus"",""9"",""55231""
","""event"",""trial"",""time""
""fullscreenenter"",""1"",""5298""
","
",,20.2,run_exp/static/images/task_images/land.jpg,65,,,,,,,47,,,4,,,,,,,,89343,1,0,FALSE,,,
dig,100,469859,0.0-33.0-0.0,"""event"",""trial"",""time""
""fullscreenenter"",""1"",""5298""
""blur"",""9"",""51653""
""focus"",""9"",""55231""
","""event"",""trial"",""time""
""blur"",""9"",""51653""
","""event"",""trial"",""time""
""focus"",""9"",""55231""
","""event"",""trial"",""time""
""fullscreenenter"",""1"",""5298""
","
",,,,,,,,,,,,"[{""stimulus"":""run_exp/static/images/task_images/dig.jpg"",""time"":0.3999999985098839},{""stimulus"":""run_exp/static/images/task_images/land.jpg"",""time"":1005.6000000014901},{""stimulus"":""run_exp/static/images/task_images/dig.jpg"",""time"":1988.3000000044703}]",[],4,,,,,,,,,,,,,,
harvest,101,470866,0.0-33.0-1.0,"""event"",""trial"",""time""
""fullscreenenter"",""1"",""5298""
""blur"",""9"",""51653""
""focus"",""9"",""55231""
","""event"",""trial"",""time""
""blur"",""9"",""51653""
","""event"",""trial"",""time""
""focus"",""9"",""55231""
","""event"",""trial"",""time""
""fullscreenenter"",""1"",""5298""
","
",,null,run_exp/static/images/task_images/gems/47.jpg,null,,,,,,,22,,,4,,,,,47,0.465833119,0.468085106,,,,,,,
decision,102,471875,0.0-33.0-2.0,"""event"",""trial"",""time""
""fullscreenenter"",""1"",""5298""
""blur"",""9"",""51653""
""focus"",""9"",""55231""
","""event"",""trial"",""time""
""blur"",""9"",""51653""
","""event"",""trial"",""time""
""focus"",""9"",""55231""
","""event"",""trial"",""time""
""fullscreenenter"",""1"",""5298""
","
",,1004.4,run_exp/static/images/task_images/land.jpg,65,,,,,,,22,,,4,,,,,,,,94355,1,1,FALSE,,,
dig,103,473880,0.0-34.0-0.0,"""event"",""trial"",""time""
""fullscreenenter"",""1"",""5298""
""blur"",""9"",""51653""
""focus"",""9"",""55231""
","""event"",""trial"",""time""
""blur"",""9"",""51653""
","""event"",""trial"",""time""
""focus"",""9"",""55231""
","""event"",""trial"",""time""
""fullscreenenter"",""1"",""5298""
","
",,,,,,,,,,,,"[{""stimulus"":""run_exp/static/images/task_images/dig.jpg"",""time"":0.19999999552965164},{""stimulus"":""run_exp/static/images/task_images/land.jpg"",""time"":672.6000000014901},{""stimulus"":""run_exp/static/images/task_images/dig.jpg"",""time"":1338.2999999970198}]",[],4,,,,,,,,,,,,,,
harvest,104,474885,0.0-34.0-1.0,"""event"",""trial"",""time""
""fullscreenenter"",""1"",""5298""
""blur"",""9"",""51653""
""focus"",""9"",""55231""
","""event"",""trial"",""time""
""blur"",""9"",""51653""
","""event"",""trial"",""time""
""focus"",""9"",""55231""
","""event"",""trial"",""time""
""fullscreenenter"",""1"",""5298""
","
",,null,run_exp/static/images/task_images/gems/22.jpg,null,,,,,,,11,,,4,,,,,22,0.489558737,0.5,,,,,,,
decision,105,477485,0.0-34.0-2.0,"""event"",""trial"",""time""
""fullscreenenter"",""1"",""5298""
""blur"",""9"",""51653""
""focus"",""9"",""55231""
","""event"",""trial"",""time""
""blur"",""9"",""51653""
","""event"",""trial"",""time""
""focus"",""9"",""55231""
","""event"",""trial"",""time""
""fullscreenenter"",""1"",""5298""
","
",,2595.4,run_exp/static/images/task_images/land.jpg,76,,,,,,,11,,,4,,,,,,,,99965,1,2,TRUE,,,
travel,106,484897,0.0-35.0-0.0,"""event"",""trial"",""time""
""fullscreenenter"",""1"",""5298""
""blur"",""9"",""51653""
""focus"",""9"",""55231""
","""event"",""trial"",""time""
""blur"",""9"",""51653""
","""event"",""trial"",""time""
""focus"",""9"",""55231""
","""event"",""trial"",""time""
""fullscreenenter"",""1"",""5298""
","
",,,,,,,,,,,,"[{""stimulus"":""run_exp/static/images/task_images/rocket-01.jpg"",""time"":0.29999999701976776},{""stimulus"":""run_exp/static/images/task_images/rocket-02.jpg"",""time"":825.7000000029802},{""stimulus"":""run_exp/static/images/task_images/rocket-03.jpg"",""time"":1650.7999999970198},{""stimulus"":""run_exp/static/images/task_images/rocket-04.jpg"",""time"":2471.60000000149},{""stimulus"":""run_exp/static/images/task_images/rocket-05.jpg"",""time"":3292.7999999970198},{""stimulus"":""run_exp/static/images/task_images/rocket-06.jpg"",""time"":4112.5},{""stimulus"":""run_exp/static/images/task_images/rocket-07.jpg"",""time"":4946.89999999851},{""stimulus"":""run_exp/static/images/task_images/rocket-08.jpg"",""time"":5757.29999999702},{""stimulus"":""run_exp/static/images/task_images/rocket-09.jpg"",""time"":6586}]",[],4,,,,,,,,,,,,,,
alien_welcome,107,489907,0.0-35.0-1.0,"""event"",""trial"",""time""
""fullscreenenter"",""1"",""5298""
""blur"",""9"",""51653""
""focus"",""9"",""55231""
","""event"",""trial"",""time""
""blur"",""9"",""51653""
","""event"",""trial"",""time""
""focus"",""9"",""55231""
","""event"",""trial"",""time""
""fullscreenenter"",""1"",""5298""
","
",,null,run_exp/static/images/task_images/aliens/old_aliens/planet/alien_planet-75.jpg,null,,,,,,,,,,,,,75,"78,67,21,1,75,36,15,64,39,57,71,62,53,4,14",,,,,,,,,,
land,108,490413,0.0-35.0-2.0,"""event"",""trial"",""time""
""fullscreenenter"",""1"",""5298""
""blur"",""9"",""51653""
""focus"",""9"",""55231""
","""event"",""trial"",""time""
""blur"",""9"",""51653""
","""event"",""trial"",""time""
""focus"",""9"",""55231""
","""event"",""trial"",""time""
""fullscreenenter"",""1"",""5298""
","
",,null,run_exp/static/images/task_images/land.jpg,null,,,,,,,97,,,5,,,,,,,,,,,,,,
dig,109,492427,0.0-35.0-3.0,"""event"",""trial"",""time""
""fullscreenenter"",""1"",""5298""
""blur"",""9"",""51653""
""focus"",""9"",""55231""
","""event"",""trial"",""time""
""blur"",""9"",""51653""
","""event"",""trial"",""time""
""focus"",""9"",""55231""
","""event"",""trial"",""time""
""fullscreenenter"",""1"",""5298""
","
",,,,,,,,,,,,"[{""stimulus"":""run_exp/static/images/task_images/dig.jpg"",""time"":0.5},{""stimulus"":""run_exp/static/images/task_images/land.jpg"",""time"":671.5999999940395},{""stimulus"":""run_exp/static/images/task_images/dig.jpg"",""time"":1341.7999999970198}]",[],5,,,,,,,,,,,,,,
harvest,110,493433,0.0-35.0-4.0,"""event"",""trial"",""time""
""fullscreenenter"",""1"",""5298""
""blur"",""9"",""51653""
""focus"",""9"",""55231""
","""event"",""trial"",""time""
""blur"",""9"",""51653""
","""event"",""trial"",""time""
""focus"",""9"",""55231""
","""event"",""trial"",""time""
""fullscreenenter"",""1"",""5298""
","
",,null,run_exp/static/images/task_images/gems/97.jpg,null,,,,,,,55,,,5,,,,,97,0.567214902,0.567010309,,,,,,,
decision,111,496439,0.0-35.0-5.0,"""event"",""trial"",""time""
""fullscreenenter"",""1"",""5298""
""blur"",""9"",""51653""
""focus"",""9"",""55231""
","""event"",""trial"",""time""
""blur"",""9"",""51653""
","""event"",""trial"",""time""
""focus"",""9"",""55231""
","""event"",""trial"",""time""
""fullscreenenter"",""1"",""5298""
","
",,null,run_exp/static/images/task_images/land.jpg,null,,,,,,,55,,,5,,,,,,,,118920,1,0,FALSE,,,
time_out,112,498448,0.0-36.0-0.0,"""event"",""trial"",""time""
""fullscreenenter"",""1"",""5298""
""blur"",""9"",""51653""
""focus"",""9"",""55231""
","""event"",""trial"",""time""
""blur"",""9"",""51653""
","""event"",""trial"",""time""
""focus"",""9"",""55231""
","""event"",""trial"",""time""
""fullscreenenter"",""1"",""5298""
","
",,null,run_exp/static/images/task_images/time_out.jpg,null,,,,,,,55,,,,,,,,,,,,,,,,,
decision,113,501452,0.0-36.0-1.0,"""event"",""trial"",""time""
""fullscreenenter"",""1"",""5298""
""blur"",""9"",""51653""
""focus"",""9"",""55231""
","""event"",""trial"",""time""
""blur"",""9"",""51653""
","""event"",""trial"",""time""
""focus"",""9"",""55231""
","""event"",""trial"",""time""
""fullscreenenter"",""1"",""5298""
","
",,null,run_exp/static/images/task_images/land.jpg,null,,,,,,,55,,,5,,,,,,,,123933,1,0,FALSE,,,
time_out,114,503462,0.0-37.0-0.0,"""event"",""trial"",""time""
""fullscreenenter"",""1"",""5298""
""blur"",""9"",""51653""
""focus"",""9"",""55231""
","""event"",""trial"",""time""
""blur"",""9"",""51653""
","""event"",""trial"",""time""
""focus"",""9"",""55231""
","""event"",""trial"",""time""
""fullscreenenter"",""1"",""5298""
","
",,null,run_exp/static/images/task_images/time_out.jpg,null,,,,,,,55,,,,,,,,,,,,,,,,,
decision,115,503648,0.0-37.0-1.0,"""event"",""trial"",""time""
""fullscreenenter"",""1"",""5298""
""blur"",""9"",""51653""
""focus"",""9"",""55231""
","""event"",""trial"",""time""
""blur"",""9"",""51653""
","""event"",""trial"",""time""
""focus"",""9"",""55231""
","""event"",""trial"",""time""
""fullscreenenter"",""1"",""5298""
","
",,181.8,run_exp/static/images/task_images/land.jpg,65,,,,,,,55,,,5,,,,,,,,126128,1,0,FALSE,,,
dig,116,506472,0.0-38.0-0.0,"""event"",""trial"",""time""
""fullscreenenter"",""1"",""5298""
""blur"",""9"",""51653""
""focus"",""9"",""55231""
","""event"",""trial"",""time""
""blur"",""9"",""51653""
","""event"",""trial"",""time""
""focus"",""9"",""55231""
","""event"",""trial"",""time""
""fullscreenenter"",""1"",""5298""
","
",,,,,,,,,,,,"[{""stimulus"":""run_exp/static/images/task_images/dig.jpg"",""time"":0.4000000059604645},{""stimulus"":""run_exp/static/images/task_images/land.jpg"",""time"":946.8000000044703},{""stimulus"":""run_exp/static/images/task_images/dig.jpg"",""time"":1887.8000000044703}]",[],5,,,,,,,,,,,,,,
harvest,117,507478,0.0-38.0-1.0,"""event"",""trial"",""time""
""fullscreenenter"",""1"",""5298""
""blur"",""9"",""51653""
""focus"",""9"",""55231""
","""event"",""trial"",""time""
""blur"",""9"",""51653""
","""event"",""trial"",""time""
""focus"",""9"",""55231""
","""event"",""trial"",""time""
""fullscreenenter"",""1"",""5298""
","
",,null,run_exp/static/images/task_images/gems/55.jpg,null,,,,,,,27,,,5,,,,,55,0.482074545,0.490909091,,,,,,,
decision,118,507730,0.0-38.0-2.0,"""event"",""trial"",""time""
""fullscreenenter"",""1"",""5298""
""blur"",""9"",""51653""
""focus"",""9"",""55231""
","""event"",""trial"",""time""
""blur"",""9"",""51653""
","""event"",""trial"",""time""
""focus"",""9"",""55231""
","""event"",""trial"",""time""
""fullscreenenter"",""1"",""5298""
","
",,250.7,run_exp/static/images/task_images/land.jpg,65,,,,,,,27,,,5,,,,,,,,130210,1,1,FALSE,,,
dig,119,510481,0.0-39.0-0.0,"""event"",""trial"",""time""
""fullscreenenter"",""1"",""5298""
""blur"",""9"",""51653""
""focus"",""9"",""55231""
","""event"",""trial"",""time""
""blur"",""9"",""51653""
","""event"",""trial"",""time""
""focus"",""9"",""55231""
","""event"",""trial"",""time""
""fullscreenenter"",""1"",""5298""
","
",,,,,,,,,,,,"[{""stimulus"":""run_exp/static/images/task_images/dig.jpg"",""time"":0},{""stimulus"":""run_exp/static/images/task_images/land.jpg"",""time"":917.9000000059605},{""stimulus"":""run_exp/static/images/task_images/dig.jpg"",""time"":1837.9000000059605}]",[],5,,,,,,,,,,,,,,
harvest,120,511485,0.0-39.0-1.0,"""event"",""trial"",""time""
""fullscreenenter"",""1"",""5298""
""blur"",""9"",""51653""
""focus"",""9"",""55231""
","""event"",""trial"",""time""
""blur"",""9"",""51653""
","""event"",""trial"",""time""
""focus"",""9"",""55231""
","""event"",""trial"",""time""
""fullscreenenter"",""1"",""5298""
","
",,null,run_exp/static/images/task_images/gems/27.jpg,null,,,,,,,11,,,5,,,,,27,0.41024464,0.407407407,,,,,,,
decision,121,513351,0.0-39.0-2.0,"""event"",""trial"",""time""
""fullscreenenter"",""1"",""5298""
""blur"",""9"",""51653""
""focus"",""9"",""55231""
","""event"",""trial"",""time""
""blur"",""9"",""51653""
","""event"",""trial"",""time""
""focus"",""9"",""55231""
","""event"",""trial"",""time""
""fullscreenenter"",""1"",""5298""
","
",,1862.2,run_exp/static/images/task_images/land.jpg,65,,,,,,,11,,,5,,,,,,,,135832,1,2,FALSE,,,
dig,122,514498,0.0-40.0-0.0,"""event"",""trial"",""time""
""fullscreenenter"",""1"",""5298""
""blur"",""9"",""51653""
""focus"",""9"",""55231""
","""event"",""trial"",""time""
""blur"",""9"",""51653""
","""event"",""trial"",""time""
""focus"",""9"",""55231""
","""event"",""trial"",""time""
""fullscreenenter"",""1"",""5298""
","
",,,,,,,,,,,,"[{""stimulus"":""run_exp/static/images/task_images/dig.jpg"",""time"":0.3999999985098839},{""stimulus"":""run_exp/static/images/task_images/land.jpg"",""time"":390.6000000014901},{""stimulus"":""run_exp/static/images/task_images/dig.jpg"",""time"":768.1999999955297}]",[],5,,,,,,,,,,,,,,
harvest,123,515508,0.0-40.0-1.0,"""event"",""trial"",""time""
""fullscreenenter"",""1"",""5298""
""blur"",""9"",""51653""
""focus"",""9"",""55231""
","""event"",""trial"",""time""
""blur"",""9"",""51653""
","""event"",""trial"",""time""
""focus"",""9"",""55231""
","""event"",""trial"",""time""
""fullscreenenter"",""1"",""5298""
","
",,null,run_exp/static/images/task_images/gems/11.jpg,null,,,,,,,5,,,5,,,,,11,0.481139187,0.454545455,,,,,,,
decision,124,516390,0.0-40.0-2.0,"""event"",""trial"",""time""
""fullscreenenter"",""1"",""5298""
""blur"",""9"",""51653""
""focus"",""9"",""55231""
","""event"",""trial"",""time""
""blur"",""9"",""51653""
","""event"",""trial"",""time""
""focus"",""9"",""55231""
","""event"",""trial"",""time""
""fullscreenenter"",""1"",""5298""
","
",,874.8,run_exp/static/images/task_images/land.jpg,76,,,,,,,5,,,5,,,,,,,,138870,1,3,TRUE,,,
travel,125,525522,0.0-41.0-0.0,"""event"",""trial"",""time""
""fullscreenenter"",""1"",""5298""
""blur"",""9"",""51653""
""focus"",""9"",""55231""
","""event"",""trial"",""time""
""blur"",""9"",""51653""
","""event"",""trial"",""time""
""focus"",""9"",""55231""
","""event"",""trial"",""time""
""fullscreenenter"",""1"",""5298""
","
",,,,,,,,,,,,"[{""stimulus"":""run_exp/static/images/task_images/rocket-01.jpg"",""time"":0.30000000447034836},{""stimulus"":""run_exp/static/images/task_images/rocket-02.jpg"",""time"":1017.4000000059605},{""stimulus"":""run_exp/static/images/task_images/rocket-03.jpg"",""time"":2036.4000000059605},{""stimulus"":""run_exp/static/images/task_images/rocket-04.jpg"",""time"":3041.8000000044703},{""stimulus"":""run_exp/static/images/task_images/rocket-05.jpg"",""time"":4060.2000000029802},{""stimulus"":""run_exp/static/images/task_images/rocket-06.jpg"",""time"":5068.5},{""stimulus"":""run_exp/static/images/task_images/rocket-07.jpg"",""time"":6092.5},{""stimulus"":""run_exp/static/images/task_images/rocket-08.jpg"",""time"":7094.5},{""stimulus"":""run_exp/static/images/task_images/rocket-09.jpg"",""time"":8116.10000000149}]",[],5,,,,,,,,,,,,,,
alien_welcome,126,530528,0.0-41.0-1.0,"""event"",""trial"",""time""
""fullscreenenter"",""1"",""5298""
""blur"",""9"",""51653""
""focus"",""9"",""55231""
","""event"",""trial"",""time""
""blur"",""9"",""51653""
","""event"",""trial"",""time""
""focus"",""9"",""55231""
","""event"",""trial"",""time""
""fullscreenenter"",""1"",""5298""
","
",,null,run_exp/static/images/task_images/aliens/old_aliens/planet/alien_planet-36.jpg,null,,,,,,,,,,,,,36,"78,67,21,1,75,36,15,64,39,57,71,62,53,4,14",,,,,,,,,,
land,127,531037,0.0-41.0-2.0,"""event"",""trial"",""time""
""fullscreenenter"",""1"",""5298""
""blur"",""9"",""51653""
""focus"",""9"",""55231""
","""event"",""trial"",""time""
""blur"",""9"",""51653""
","""event"",""trial"",""time""
""focus"",""9"",""55231""
","""event"",""trial"",""time""
""fullscreenenter"",""1"",""5298""
","
",,null,run_exp/static/images/task_images/land.jpg,null,,,,,,,103,,,6,,,,,,,,,,,,,,
dig,128,533044,0.0-41.0-3.0,"""event"",""trial"",""time""
""fullscreenenter"",""1"",""5298""
""blur"",""9"",""51653""
""focus"",""9"",""55231""
","""event"",""trial"",""time""
""blur"",""9"",""51653""
","""event"",""trial"",""time""
""focus"",""9"",""55231""
","""event"",""trial"",""time""
""fullscreenenter"",""1"",""5298""
","
",,,,,,,,,,,,"[{""stimulus"":""run_exp/static/images/task_images/dig.jpg"",""time"":0.5},{""stimulus"":""run_exp/static/images/task_images/land.jpg"",""time"":671.2000000029802},{""stimulus"":""run_exp/static/images/task_images/dig.jpg"",""time"":1337.7999999970198}]",[],6,,,,,,,,,,,,,,
harvest,129,534054,0.0-41.0-4.0,"""event"",""trial"",""time""
""fullscreenenter"",""1"",""5298""
""blur"",""9"",""51653""
""focus"",""9"",""55231""
","""event"",""trial"",""time""
""blur"",""9"",""51653""
","""event"",""trial"",""time""
""focus"",""9"",""55231""
","""event"",""trial"",""time""
""fullscreenenter"",""1"",""5298""
","
",,null,run_exp/static/images/task_images/gems/103.jpg,null,,,,,,,77,,,6,,,,,103,0.745285452,0.747572816,,,,,,,
decision,130,534685,0.0-41.0-5.0,"""event"",""trial"",""time""
""fullscreenenter"",""1"",""5298""
""blur"",""9"",""51653""
""focus"",""9"",""55231""
","""event"",""trial"",""time""
""blur"",""9"",""51653""
","""event"",""trial"",""time""
""focus"",""9"",""55231""
","""event"",""trial"",""time""
""fullscreenenter"",""1"",""5298""
","
",,628.9,run_exp/static/images/task_images/land.jpg,65,,,,,,,77,,,6,,,,,,,,157166,1,0,FALSE,,,
dig,131,537068,0.0-42.0-0.0,"""event"",""trial"",""time""
""fullscreenenter"",""1"",""5298""
""blur"",""9"",""51653""
""focus"",""9"",""55231""
","""event"",""trial"",""time""
""blur"",""9"",""51653""
","""event"",""trial"",""time""
""focus"",""9"",""55231""
","""event"",""trial"",""time""
""fullscreenenter"",""1"",""5298""
","
",,,,,,,,,,,,"[{""stimulus"":""run_exp/static/images/task_images/dig.jpg"",""time"":0.3999999985098839},{""stimulus"":""run_exp/static/images/task_images/land.jpg"",""time"":793.8999999985099},{""stimulus"":""run_exp/static/images/task_images/dig.jpg"",""time"":1583.3999999985099}]",[],6,,,,,,,,,,,,,,
harvest,132,538072,0.0-42.0-1.0,"""event"",""trial"",""time""
""fullscreenenter"",""1"",""5298""
""blur"",""9"",""51653""
""focus"",""9"",""55231""
","""event"",""trial"",""time""
""blur"",""9"",""51653""
","""event"",""trial"",""time""
""focus"",""9"",""55231""
","""event"",""trial"",""time""
""fullscreenenter"",""1"",""5298""
","
",,null,run_exp/static/images/task_images/gems/77.jpg,null,,,,,,,68,,,6,,,,,77,0.883892586,0.883116883,,,,,,,
decision,133,541079,0.0-42.0-2.0,"""event"",""trial"",""time""
""fullscreenenter"",""1"",""5298""
""blur"",""9"",""51653""
""focus"",""9"",""55231""
","""event"",""trial"",""time""
""blur"",""9"",""51653""
","""event"",""trial"",""time""
""focus"",""9"",""55231""
","""event"",""trial"",""time""
""fullscreenenter"",""1"",""5298""
","
",,null,run_exp/static/images/task_images/land.jpg,null,,,,,,,68,,,6,,,,,,,,163559,1,1,FALSE,,,
time_out,134,543086,0.0-43.0-0.0,"""event"",""trial"",""time""
""fullscreenenter"",""1"",""5298""
""blur"",""9"",""51653""
""focus"",""9"",""55231""
","""event"",""trial"",""time""
""blur"",""9"",""51653""
","""event"",""trial"",""time""
""focus"",""9"",""55231""
","""event"",""trial"",""time""
""fullscreenenter"",""1"",""5298""
","
",,null,run_exp/static/images/task_images/time_out.jpg,null,,,,,,,68,,,,,,,,,,,,,,,,,
decision,135,546091,0.0-43.0-1.0,"""event"",""trial"",""time""
""fullscreenenter"",""1"",""5298""
""blur"",""9"",""51653""
""focus"",""9"",""55231""
","""event"",""trial"",""time""
""blur"",""9"",""51653""
","""event"",""trial"",""time""
""focus"",""9"",""55231""
","""event"",""trial"",""time""
""fullscreenenter"",""1"",""5298""
","
",,null,run_exp/static/images/task_images/land.jpg,null,,,,,,,68,,,6,,,,,,,,168571,1,1,FALSE,,,
time_out,136,548106,0.0-44.0-0.0,"""event"",""trial"",""time""
""fullscreenenter"",""1"",""5298""
""blur"",""9"",""51653""
""focus"",""9"",""55231""
","""event"",""trial"",""time""
""blur"",""9"",""51653""
","""event"",""trial"",""time""
""focus"",""9"",""55231""
","""event"",""trial"",""time""
""fullscreenenter"",""1"",""5298""
","
",,null,run_exp/static/images/task_images/time_out.jpg,null,,,,,,,68,,,,,,,,,,,,,,,,,
decision,137,548444,0.0-44.0-1.0,"""event"",""trial"",""time""
""fullscreenenter"",""1"",""5298""
""blur"",""9"",""51653""
""focus"",""9"",""55231""
","""event"",""trial"",""time""
""blur"",""9"",""51653""
","""event"",""trial"",""time""
""focus"",""9"",""55231""
","""event"",""trial"",""time""
""fullscreenenter"",""1"",""5298""
","
",,334.1,run_exp/static/images/task_images/land.jpg,65,,,,,,,68,,,6,,,,,,,,170924,1,1,FALSE,,,
dig,138,551116,0.0-45.0-0.0,"""event"",""trial"",""time""
""fullscreenenter"",""1"",""5298""
""blur"",""9"",""51653""
""focus"",""9"",""55231""
","""event"",""trial"",""time""
""blur"",""9"",""51653""
","""event"",""trial"",""time""
""focus"",""9"",""55231""
","""event"",""trial"",""time""
""fullscreenenter"",""1"",""5298""
","
",,,,,,,,,,,,"[{""stimulus"":""run_exp/static/images/task_images/dig.jpg"",""time"":0.30000000447034836},{""stimulus"":""run_exp/static/images/task_images/land.jpg"",""time"":896.7000000029802},{""stimulus"":""run_exp/static/images/task_images/dig.jpg"",""time"":1780.8000000044703}]",[],6,,,,,,,,,,,,,,
harvest,139,552119,0.0-45.0-1.0,"""event"",""trial"",""time""
""fullscreenenter"",""1"",""5298""
""blur"",""9"",""51653""
""focus"",""9"",""55231""
","""event"",""trial"",""time""
""blur"",""9"",""51653""
","""event"",""trial"",""time""
""focus"",""9"",""55231""
","""event"",""trial"",""time""
""fullscreenenter"",""1"",""5298""
","
",,null,run_exp/static/images/task_images/gems/68.jpg,null,,,,,,,49,,,6,,,,,68,0.725089705,0.720588235,,,,,,,
decision,140,555125,0.0-45.0-2.0,"""event"",""trial"",""time""
""fullscreenenter"",""1"",""5298""
""blur"",""9"",""51653""
""focus"",""9"",""55231""
","""event"",""trial"",""time""
""blur"",""9"",""51653""
","""event"",""trial"",""time""
""focus"",""9"",""55231""
","""event"",""trial"",""time""
""fullscreenenter"",""1"",""5298""
","
",,null,run_exp/static/images/task_images/land.jpg,null,,,,,,,49,,,6,,,,,,,,177605,1,2,FALSE,,,
time_out,141,557133,0.0-46.0-0.0,"""event"",""trial"",""time""
""fullscreenenter"",""1"",""5298""
""blur"",""9"",""51653""
""focus"",""9"",""55231""
","""event"",""trial"",""time""
""blur"",""9"",""51653""
","""event"",""trial"",""time""
""focus"",""9"",""55231""
","""event"",""trial"",""time""
""fullscreenenter"",""1"",""5298""
","
",,null,run_exp/static/images/task_images/time_out.jpg,null,,,,,,,49,,,,,,,,,,,,,,,,,
decision,142,560140,0.0-46.0-1.0,"""event"",""trial"",""time""
""fullscreenenter"",""1"",""5298""
""blur"",""9"",""51653""
""focus"",""9"",""55231""
","""event"",""trial"",""time""
""blur"",""9"",""51653""
","""event"",""trial"",""time""
""focus"",""9"",""55231""
","""event"",""trial"",""time""
""fullscreenenter"",""1"",""5298""
","
",,null,run_exp/static/images/task_images/land.jpg,null,,,,,,,49,,,6,,,,,,,,182620,1,2,FALSE,,,
time_out,143,562150,0.0-47.0-0.0,"""event"",""trial"",""time""
""fullscreenenter"",""1"",""5298""
""blur"",""9"",""51653""
""focus"",""9"",""55231""
","""event"",""trial"",""time""
""blur"",""9"",""51653""
","""event"",""trial"",""time""
""focus"",""9"",""55231""
","""event"",""trial"",""time""
""fullscreenenter"",""1"",""5298""
","
",,null,run_exp/static/images/task_images/time_out.jpg,null,,,,,,,49,,,,,,,,,,,,,,,,,
decision,144,563512,0.0-47.0-1.0,"""event"",""trial"",""time""
""fullscreenenter"",""1"",""5298""
""blur"",""9"",""51653""
""focus"",""9"",""55231""
","""event"",""trial"",""time""
""blur"",""9"",""51653""
","""event"",""trial"",""time""
""focus"",""9"",""55231""
","""event"",""trial"",""time""
""fullscreenenter"",""1"",""5298""
","
",,1356.8,run_exp/static/images/task_images/land.jpg,65,,,,,,,49,,,6,,,,,,,,185992,1,2,FALSE,,,
dig,145,565170,0.0-48.0-0.0,"""event"",""trial"",""time""
""fullscreenenter"",""1"",""5298""
""blur"",""9"",""51653""
""focus"",""9"",""55231""
","""event"",""trial"",""time""
""blur"",""9"",""51653""
","""event"",""trial"",""time""
""focus"",""9"",""55231""
","""event"",""trial"",""time""
""fullscreenenter"",""1"",""5298""
","
",,,,,,,,,,,,"[{""stimulus"":""run_exp/static/images/task_images/dig.jpg"",""time"":0.30000000447034836},{""stimulus"":""run_exp/static/images/task_images/land.jpg"",""time"":560.6000000014901},{""stimulus"":""run_exp/static/images/task_images/dig.jpg"",""time"":1097}]",[],6,,,,,,,,,,,,,,
harvest,146,566172,0.0-48.0-1.0,"""event"",""trial"",""time""
""fullscreenenter"",""1"",""5298""
""blur"",""9"",""51653""
""focus"",""9"",""55231""
","""event"",""trial"",""time""
""blur"",""9"",""51653""
","""event"",""trial"",""time""
""focus"",""9"",""55231""
","""event"",""trial"",""time""
""fullscreenenter"",""1"",""5298""
","
",,null,run_exp/static/images/task_images/gems/49.jpg,null,,,,,,,36,,,6,,,,,49,0.743066518,0.734693878,,,,,,,
decision,147,569183,0.0-48.0-2.0,"""event"",""trial"",""time""
""fullscreenenter"",""1"",""5298""
""blur"",""9"",""51653""
""focus"",""9"",""55231""
","""event"",""trial"",""time""
""blur"",""9"",""51653""
","""event"",""trial"",""time""
""focus"",""9"",""55231""
","""event"",""trial"",""time""
""fullscreenenter"",""1"",""5298""
","
",,null,run_exp/static/images/task_images/land.jpg,null,,,,,,,36,,,6,,,,,,,,191663,1,3,FALSE,,,
time_out,148,571202,0.0-49.0-0.0,"""event"",""trial"",""time""
""fullscreenenter"",""1"",""5298""
""blur"",""9"",""51653""
""focus"",""9"",""55231""
","""event"",""trial"",""time""
""blur"",""9"",""51653""
","""event"",""trial"",""time""
""focus"",""9"",""55231""
","""event"",""trial"",""time""
""fullscreenenter"",""1"",""5298""
","
",,null,run_exp/static/images/task_images/time_out.jpg,null,,,,,,,36,,,,,,,,,,,,,,,,,
decision,149,574209,0.0-49.0-1.0,"""event"",""trial"",""time""
""fullscreenenter"",""1"",""5298""
""blur"",""9"",""51653""
""focus"",""9"",""55231""
","""event"",""trial"",""time""
""blur"",""9"",""51653""
","""event"",""trial"",""time""
""focus"",""9"",""55231""
","""event"",""trial"",""time""
""fullscreenenter"",""1"",""5298""
","
",,null,run_exp/static/images/task_images/land.jpg,null,,,,,,,36,,,6,,,,,,,,196689,1,3,FALSE,,,
time_out,150,576222,0.0-50.0-0.0,"""event"",""trial"",""time""
""fullscreenenter"",""1"",""5298""
""blur"",""9"",""51653""
""focus"",""9"",""55231""
","""event"",""trial"",""time""
""blur"",""9"",""51653""
","""event"",""trial"",""time""
""focus"",""9"",""55231""
","""event"",""trial"",""time""
""fullscreenenter"",""1"",""5298""
","
",,null,run_exp/static/images/task_images/time_out.jpg,null,,,,,,,36,,,,,,,,,,,,,,,,,
decision,151,576357,0.0-50.0-1.0,"""event"",""trial"",""time""
""fullscreenenter"",""1"",""5298""
""blur"",""9"",""51653""
""focus"",""9"",""55231""
","""event"",""trial"",""time""
""blur"",""9"",""51653""
","""event"",""trial"",""time""
""focus"",""9"",""55231""
","""event"",""trial"",""time""
""fullscreenenter"",""1"",""5298""
","
",,131.3,run_exp/static/images/task_images/land.jpg,65,,,,,,,36,,,6,,,,,,,,198838,1,3,FALSE,,,
dig,152,579238,0.0-51.0-0.0,"""event"",""trial"",""time""
""fullscreenenter"",""1"",""5298""
""blur"",""9"",""51653""
""focus"",""9"",""55231""
","""event"",""trial"",""time""
""blur"",""9"",""51653""
","""event"",""trial"",""time""
""focus"",""9"",""55231""
","""event"",""trial"",""time""
""fullscreenenter"",""1"",""5298""
","
",,,,,,,,,,,,"[{""stimulus"":""run_exp/static/images/task_images/dig.jpg"",""time"":0.3999999985098839},{""stimulus"":""run_exp/static/images/task_images/land.jpg"",""time"":965.0999999940395},{""stimulus"":""run_exp/static/images/task_images/dig.jpg"",""time"":1918.3999999985099}]",[],6,,,,,,,,,,,,,,
harvest,153,580242,0.0-51.0-1.0,"""event"",""trial"",""time""
""fullscreenenter"",""1"",""5298""
""blur"",""9"",""51653""
""focus"",""9"",""55231""
","""event"",""trial"",""time""
""blur"",""9"",""51653""
","""event"",""trial"",""time""
""focus"",""9"",""55231""
","""event"",""trial"",""time""
""fullscreenenter"",""1"",""5298""
","
",,null,run_exp/static/images/task_images/gems/36.jpg,null,,,,,,,29,,,6,,,,,36,0.811395556,0.805555556,,,,,,,
decision,154,580501,0.0-51.0-2.0,"""event"",""trial"",""time""
""fullscreenenter"",""1"",""5298""
""blur"",""9"",""51653""
""focus"",""9"",""55231""
","""event"",""trial"",""time""
""blur"",""9"",""51653""
","""event"",""trial"",""time""
""focus"",""9"",""55231""
","""event"",""trial"",""time""
""fullscreenenter"",""1"",""5298""
","
",,256.9,run_exp/static/images/task_images/land.jpg,65,,,,,,,29,,,6,,,,,,,,202981,1,4,FALSE,,,
dig,155,583259,0.0-52.0-0.0,"""event"",""trial"",""time""
""fullscreenenter"",""1"",""5298""
""blur"",""9"",""51653""
""focus"",""9"",""55231""
","""event"",""trial"",""time""
""blur"",""9"",""51653""
","""event"",""trial"",""time""
""focus"",""9"",""55231""
","""event"",""trial"",""time""
""fullscreenenter"",""1"",""5298""
","
",,,,,,,,,,,,"[{""stimulus"":""run_exp/static/images/task_images/dig.jpg"",""time"":0.3999999985098839},{""stimulus"":""run_exp/static/images/task_images/land.jpg"",""time"":924.3999999985099},{""stimulus"":""run_exp/static/images/task_images/dig.jpg"",""time"":1832.2000000029802}]",[],6,,,,,,,,,,,,,,
harvest,156,584262,0.0-52.0-1.0,"""event"",""trial"",""time""
""fullscreenenter"",""1"",""5298""
""blur"",""9"",""51653""
""focus"",""9"",""55231""
","""event"",""trial"",""time""
""blur"",""9"",""51653""
","""event"",""trial"",""time""
""focus"",""9"",""55231""
","""event"",""trial"",""time""
""fullscreenenter"",""1"",""5298""
","
",,null,run_exp/static/images/task_images/gems/29.jpg,null,,,,,,,22,,,6,,,,,29,0.772905067,0.75862069,,,,,,,
decision,157,584436,0.0-52.0-2.0,"""event"",""trial"",""time""
""fullscreenenter"",""1"",""5298""
""blur"",""9"",""51653""
""focus"",""9"",""55231""
","""event"",""trial"",""time""
""blur"",""9"",""51653""
","""event"",""trial"",""time""
""focus"",""9"",""55231""
","""event"",""trial"",""time""
""fullscreenenter"",""1"",""5298""
","
",,170.7,run_exp/static/images/task_images/land.jpg,76,,,,,,,22,,,6,,,,,,,,206916,1,5,TRUE,,,
travel,158,594274,0.0-53.0-0.0,"""event"",""trial"",""time""
""fullscreenenter"",""1"",""5298""
""blur"",""9"",""51653""
""focus"",""9"",""55231""
","""event"",""trial"",""time""
""blur"",""9"",""51653""
","""event"",""trial"",""time""
""focus"",""9"",""55231""
","""event"",""trial"",""time""
""fullscreenenter"",""1"",""5298""
","
",,,,,,,,,,,,"[{""stimulus"":""run_exp/static/images/task_images/rocket-01.jpg"",""time"":0.5},{""stimulus"":""run_exp/static/images/task_images/rocket-02.jpg"",""time"":1099.7000000029802},{""stimulus"":""run_exp/static/images/task_images/rocket-03.jpg"",""time"":2189.8000000044703},{""stimulus"":""run_exp/static/images/task_images/rocket-04.jpg"",""time"":3280.8000000044703},{""stimulus"":""run_exp/static/images/task_images/rocket-05.jpg"",""time"":4373.5},{""stimulus"":""run_exp/static/images/task_images/rocket-06.jpg"",""time"":5466.60000000149},{""stimulus"":""run_exp/static/images/task_images/rocket-07.jpg"",""time"":6554.30000000447},{""stimulus"":""run_exp/static/images/task_images/rocket-08.jpg"",""time"":7645.80000000447},{""stimulus"":""run_exp/static/images/task_images/rocket-09.jpg"",""time"":8746}]",[],6,,,,,,,,,,,,,,
alien_welcome,159,599282,0.0-53.0-1.0,"""event"",""trial"",""time""
""fullscreenenter"",""1"",""5298""
""blur"",""9"",""51653""
""focus"",""9"",""55231""
","""event"",""trial"",""time""
""blur"",""9"",""51653""
","""event"",""trial"",""time""
""focus"",""9"",""55231""
","""event"",""trial"",""time""
""fullscreenenter"",""1"",""5298""
","
",,null,run_exp/static/images/task_images/aliens/old_aliens/planet/alien_planet-15.jpg,null,,,,,,,,,,,,,15,"78,67,21,1,75,36,15,64,39,57,71,62,53,4,14",,,,,,,,,,
land,160,599788,0.0-53.0-2.0,"""event"",""trial"",""time""
""fullscreenenter"",""1"",""5298""
""blur"",""9"",""51653""
""focus"",""9"",""55231""
","""event"",""trial"",""time""
""blur"",""9"",""51653""
","""event"",""trial"",""time""
""focus"",""9"",""55231""
","""event"",""trial"",""time""
""fullscreenenter"",""1"",""5298""
","
",,null,run_exp/static/images/task_images/land.jpg,null,,,,,,,107,,,7,,,,,,,,,,,,,,
dig,161,601796,0.0-53.0-3.0,"""event"",""trial"",""time""
""fullscreenenter"",""1"",""5298""
""blur"",""9"",""51653""
""focus"",""9"",""55231""
","""event"",""trial"",""time""
""blur"",""9"",""51653""
","""event"",""trial"",""time""
""focus"",""9"",""55231""
","""event"",""trial"",""time""
""fullscreenenter"",""1"",""5298""
","
",,,,,,,,,,,,"[{""stimulus"":""run_exp/static/images/task_images/dig.jpg"",""time"":0.6000000014901161},{""stimulus"":""run_exp/static/images/task_images/land.jpg"",""time"":671.8000000044703},{""stimulus"":""run_exp/static/images/task_images/dig.jpg"",""time"":1338.7000000029802}]",[],7,,,,,,,,,,,,,,
harvest,162,602801,0.0-53.0-4.0,"""event"",""trial"",""time""
""fullscreenenter"",""1"",""5298""
""blur"",""9"",""51653""
""focus"",""9"",""55231""
","""event"",""trial"",""time""
""blur"",""9"",""51653""
","""event"",""trial"",""time""
""focus"",""9"",""55231""
","""event"",""trial"",""time""
""fullscreenenter"",""1"",""5298""
","
",,null,run_exp/static/images/task_images/gems/107.jpg,null,,,,,,,77,,,7,,,,,107,0.718971925,0.719626168,,,,,,,
decision,163,605810,0.0-53.0-5.0,"""event"",""trial"",""time""
""fullscreenenter"",""1"",""5298""
""blur"",""9"",""51653""
""focus"",""9"",""55231""
","""event"",""trial"",""time""
""blur"",""9"",""51653""
","""event"",""trial"",""time""
""focus"",""9"",""55231""
","""event"",""trial"",""time""
""fullscreenenter"",""1"",""5298""
","
",,null,run_exp/static/images/task_images/land.jpg,null,,,,,,,77,,,7,,,,,,,,228291,1,0,FALSE,,,
time_out,164,607818,0.0-54.0-0.0,"""event"",""trial"",""time""
""fullscreenenter"",""1"",""5298""
""blur"",""9"",""51653""
""focus"",""9"",""55231""
","""event"",""trial"",""time""
""blur"",""9"",""51653""
","""event"",""trial"",""time""
""focus"",""9"",""55231""
","""event"",""trial"",""time""
""fullscreenenter"",""1"",""5298""
","
",,null,run_exp/static/images/task_images/time_out.jpg,null,,,,,,,77,,,,,,,,,,,,,,,,,
decision,165,607975,0.0-54.0-1.0,"""event"",""trial"",""time""
""fullscreenenter"",""1"",""5298""
""blur"",""9"",""51653""
""focus"",""9"",""55231""
","""event"",""trial"",""time""
""blur"",""9"",""51653""
","""event"",""trial"",""time""
""focus"",""9"",""55231""
","""event"",""trial"",""time""
""fullscreenenter"",""1"",""5298""
","
",,152.6,run_exp/static/images/task_images/land.jpg,65,,,,,,,77,,,7,,,,,,,,230456,1,0,FALSE,,,
dig,166,610834,0.0-55.0-0.0,"""event"",""trial"",""time""
""fullscreenenter"",""1"",""5298""
""blur"",""9"",""51653""
""focus"",""9"",""55231""
","""event"",""trial"",""time""
""blur"",""9"",""51653""
","""event"",""trial"",""time""
""focus"",""9"",""55231""
","""event"",""trial"",""time""
""fullscreenenter"",""1"",""5298""
","
",,,,,,,,,,,,"[{""stimulus"":""run_exp/static/images/task_images/dig.jpg"",""time"":0.3999999985098839},{""stimulus"":""run_exp/static/images/task_images/land.jpg"",""time"":957.8999999985099},{""stimulus"":""run_exp/static/images/task_images/dig.jpg"",""time"":1912.2999999970198}]",[],7,,,,,,,,,,,,,,
harvest,167,611839,0.0-55.0-1.0,"""event"",""trial"",""time""
""fullscreenenter"",""1"",""5298""
""blur"",""9"",""51653""
""focus"",""9"",""55231""
","""event"",""trial"",""time""
""blur"",""9"",""51653""
","""event"",""trial"",""time""
""focus"",""9"",""55231""
","""event"",""trial"",""time""
""fullscreenenter"",""1"",""5298""
","
",,null,run_exp/static/images/task_images/gems/77.jpg,null,,,,,,,67,,,7,,,,,77,0.86841083,0.87012987,,,,,,,
decision,168,614844,0.0-55.0-2.0,"""event"",""trial"",""time""
""fullscreenenter"",""1"",""5298""
""blur"",""9"",""51653""
""focus"",""9"",""55231""
","""event"",""trial"",""time""
""blur"",""9"",""51653""
","""event"",""trial"",""time""
""focus"",""9"",""55231""
","""event"",""trial"",""time""
""fullscreenenter"",""1"",""5298""
","
",,null,run_exp/static/images/task_images/land.jpg,null,,,,,,,67,,,7,,,,,,,,237325,1,1,FALSE,,,
time_out,169,616854,0.0-56.0-0.0,"""event"",""trial"",""time""
""fullscreenenter"",""1"",""5298""
""blur"",""9"",""51653""
""focus"",""9"",""55231""
","""event"",""trial"",""time""
""blur"",""9"",""51653""
","""event"",""trial"",""time""
""focus"",""9"",""55231""
","""event"",""trial"",""time""
""fullscreenenter"",""1"",""5298""
","
",,null,run_exp/static/images/task_images/time_out.jpg,null,,,,,,,67,,,,,,,,,,,,,,,,,
decision,170,619859,0.0-56.0-1.0,"""event"",""trial"",""time""
""fullscreenenter"",""1"",""5298""
""blur"",""9"",""51653""
""focus"",""9"",""55231""
","""event"",""trial"",""time""
""blur"",""9"",""51653""
","""event"",""trial"",""time""
""focus"",""9"",""55231""
","""event"",""trial"",""time""
""fullscreenenter"",""1"",""5298""
","
",,null,run_exp/static/images/task_images/land.jpg,null,,,,,,,67,,,7,,,,,,,,242339,1,1,FALSE,,,
time_out,171,621868,0.0-57.0-0.0,"""event"",""trial"",""time""
""fullscreenenter"",""1"",""5298""
""blur"",""9"",""51653""
""focus"",""9"",""55231""
","""event"",""trial"",""time""
""blur"",""9"",""51653""
","""event"",""trial"",""time""
""focus"",""9"",""55231""
","""event"",""trial"",""time""
""fullscreenenter"",""1"",""5298""
","
",,null,run_exp/static/images/task_images/time_out.jpg,null,,,,,,,67,,,,,,,,,,,,,,,,,
decision,172,624879,0.0-57.0-1.0,"""event"",""trial"",""time""
""fullscreenenter"",""1"",""5298""
""blur"",""9"",""51653""
""focus"",""9"",""55231""
","""event"",""trial"",""time""
""blur"",""9"",""51653""
","""event"",""trial"",""time""
""focus"",""9"",""55231""
","""event"",""trial"",""time""
""fullscreenenter"",""1"",""5298""
","
",,null,run_exp/static/images/task_images/land.jpg,null,,,,,,,67,,,7,,,,,,,,247359,1,1,FALSE,,,
time_out,173,626888,0.0-58.0-0.0,"""event"",""trial"",""time""
""fullscreenenter"",""1"",""5298""
""blur"",""9"",""51653""
""focus"",""9"",""55231""
","""event"",""trial"",""time""
""blur"",""9"",""51653""
","""event"",""trial"",""time""
""focus"",""9"",""55231""
","""event"",""trial"",""time""
""fullscreenenter"",""1"",""5298""
","
",,null,run_exp/static/images/task_images/time_out.jpg,null,,,,,,,67,,,,,,,,,,,,,,,,,
decision,174,629901,0.0-58.0-1.0,"""event"",""trial"",""time""
""fullscreenenter"",""1"",""5298""
""blur"",""9"",""51653""
""focus"",""9"",""55231""
","""event"",""trial"",""time""
""blur"",""9"",""51653""
","""event"",""trial"",""time""
""focus"",""9"",""55231""
","""event"",""trial"",""time""
""fullscreenenter"",""1"",""5298""
","
",,null,run_exp/static/images/task_images/land.jpg,null,,,,,,,67,,,7,,,,,,,,252381,1,1,FALSE,,,
time_out,175,631914,0.0-59.0-0.0,"""event"",""trial"",""time""
""fullscreenenter"",""1"",""5298""
""blur"",""9"",""51653""
""focus"",""9"",""55231""
","""event"",""trial"",""time""
""blur"",""9"",""51653""
","""event"",""trial"",""time""
""focus"",""9"",""55231""
","""event"",""trial"",""time""
""fullscreenenter"",""1"",""5298""
","
",,null,run_exp/static/images/task_images/time_out.jpg,null,,,,,,,67,,,,,,,,,,,,,,,,,
decision,176,634935,0.0-59.0-1.0,"""event"",""trial"",""time""
""fullscreenenter"",""1"",""5298""
""blur"",""9"",""51653""
""focus"",""9"",""55231""
","""event"",""trial"",""time""
""blur"",""9"",""51653""
","""event"",""trial"",""time""
""focus"",""9"",""55231""
","""event"",""trial"",""time""
""fullscreenenter"",""1"",""5298""
","
",,null,run_exp/static/images/task_images/land.jpg,null,,,,,,,67,,,7,,,,,,,,257415,1,1,FALSE,,,
time_out,177,636943,0.0-60.0-0.0,"""event"",""trial"",""time""
""fullscreenenter"",""1"",""5298""
""blur"",""9"",""51653""
""focus"",""9"",""55231""
","""event"",""trial"",""time""
""blur"",""9"",""51653""
","""event"",""trial"",""time""
""focus"",""9"",""55231""
","""event"",""trial"",""time""
""fullscreenenter"",""1"",""5298""
","
",,null,run_exp/static/images/task_images/time_out.jpg,null,,,,,,,67,,,,,,,,,,,,,,,,,
decision,178,639954,0.0-60.0-1.0,"""event"",""trial"",""time""
""fullscreenenter"",""1"",""5298""
""blur"",""9"",""51653""
""focus"",""9"",""55231""
","""event"",""trial"",""time""
""blur"",""9"",""51653""
","""event"",""trial"",""time""
""focus"",""9"",""55231""
","""event"",""trial"",""time""
""fullscreenenter"",""1"",""5298""
","
",,null,run_exp/static/images/task_images/land.jpg,null,,,,,,,67,,,7,,,,,,,,262434,1,1,FALSE,,,
time_out,179,641962,0.0-61.0-0.0,"""event"",""trial"",""time""
""fullscreenenter"",""1"",""5298""
""blur"",""9"",""51653""
""focus"",""9"",""55231""
","""event"",""trial"",""time""
""blur"",""9"",""51653""
","""event"",""trial"",""time""
""focus"",""9"",""55231""
","""event"",""trial"",""time""
""fullscreenenter"",""1"",""5298""
","
",,null,run_exp/static/images/task_images/time_out.jpg,null,,,,,,,67,,,,,,,,,,,,,,,,,
decision,180,644971,0.0-61.0-1.0,"""event"",""trial"",""time""
""fullscreenenter"",""1"",""5298""
""blur"",""9"",""51653""
""focus"",""9"",""55231""
","""event"",""trial"",""time""
""blur"",""9"",""51653""
","""event"",""trial"",""time""
""focus"",""9"",""55231""
","""event"",""trial"",""time""
""fullscreenenter"",""1"",""5298""
","
",,null,run_exp/static/images/task_images/land.jpg,null,,,,,,,67,,,7,,,,,,,,267451,1,1,FALSE,,,
time_out,181,646977,0.0-62.0-0.0,"""event"",""trial"",""time""
""fullscreenenter"",""1"",""5298""
""blur"",""9"",""51653""
""focus"",""9"",""55231""
","""event"",""trial"",""time""
""blur"",""9"",""51653""
","""event"",""trial"",""time""
""focus"",""9"",""55231""
","""event"",""trial"",""time""
""fullscreenenter"",""1"",""5298""
","
",,null,run_exp/static/images/task_images/time_out.jpg,null,,,,,,,67,,,,,,,,,,,,,,,,,
decision,182,649986,0.0-62.0-1.0,"""event"",""trial"",""time""
""fullscreenenter"",""1"",""5298""
""blur"",""9"",""51653""
""focus"",""9"",""55231""
","""event"",""trial"",""time""
""blur"",""9"",""51653""
","""event"",""trial"",""time""
""focus"",""9"",""55231""
","""event"",""trial"",""time""
""fullscreenenter"",""1"",""5298""
","
",,null,run_exp/static/images/task_images/land.jpg,null,,,,,,,67,,,7,,,,,,,,272466,1,1,FALSE,,,
time_out,183,652000,0.0-63.0-0.0,"""event"",""trial"",""time""
""fullscreenenter"",""1"",""5298""
""blur"",""9"",""51653""
""focus"",""9"",""55231""
","""event"",""trial"",""time""
""blur"",""9"",""51653""
","""event"",""trial"",""time""
