trial_type,trial_index,time_elapsed,internal_node_id,interactions,blur_events,focus_events,fullscreenenter_events,fullscreenexit_events,success,rt,stimulus,key_press,prompt,subject_id,participant_id,age,gender,button_pressed,next_reward,animation_sequence,responses,planet,curr_prac_trial,n_prac_rounds,alien,aliens,reward_received,decay_rate_actual,decay_rate_exp,time_in_block,block_num,prt,last_trial_on_planet,button_html,bonus,num_failures
pavlovia,0,4,0.0-0.0,"""event"",""trial"",""time""
""fullscreenenter"",""1"",""1525""
","
","
","""event"",""trial"",""time""
""fullscreenenter"",""1"",""1525""
","
",,,,,,,,,,,,,,,,,,,,,,,,,,,,
fullscreen,1,2491,0.0-1.0,"""event"",""trial"",""time""
""fullscreenenter"",""1"",""1525""
","
","
","""event"",""trial"",""time""
""fullscreenenter"",""1"",""1525""
","
",TRUE,,,,,,,,,,,,,,,,,,,,,,,,,,,
instruc_welcome,2,12380,0.0-2.0,"""event"",""trial"",""time""
""fullscreenenter"",""1"",""1525""
","
","
","""event"",""trial"",""time""
""fullscreenenter"",""1"",""1525""
","
",,null,run_exp/static/audio/clip_1_welcome.m4a,null,"<p>Howdy! In this experiment, you’ll be an explorer traveling through space to collect space treasure.</p><p>Your mission is to collect as much treasure as possible.</p><br><br><p><img src='run_exp/static/images/task_images/opening_img-01.jpg' height='300' width='auto'></p>",12531,3540,21.67,Male,,,,,,,,,,,,,,,,,,,
audio-keyboard-response,3,29159,0.0-3.0,"""event"",""trial"",""time""
""fullscreenenter"",""1"",""1525""
","
","
","""event"",""trial"",""time""
""fullscreenenter"",""1"",""1525""
","
",,null,run_exp/static/audio/clip_2_move.m4a,null,,,,,,,,,,,,,,,,,,,,,,,,
welcome_dec,4,31957,0.0-4.0,"""event"",""trial"",""time""
""fullscreenenter"",""1"",""1525""
","
","
","""event"",""trial"",""time""
""fullscreenenter"",""1"",""1525""
","
",,2796.4,"<p>Howdy! In this experiment, you’ll be an explorer traveling through space to collect space treasure.</p><p>Your mission is to collect as much treasure as possible.</p><br><br><p><img src='run_exp/static/images/task_images/opening_img-01.jpg' height='300' width='auto'></p>",,,,,,,1,,,,,,,,,,,,,,,,,,
html-keyboard-response,5,32810,0.0-5.0,"""event"",""trial"",""time""
""fullscreenenter"",""1"",""1525""
","
","
","""event"",""trial"",""time""
""fullscreenenter"",""1"",""1525""
","
",,850.9,"<p>Howdy! In this experiment, you’ll be an explorer traveling through space to collect space treasure.</p><p>Your mission is to collect as much treasure as possible.</p><br><br><p><img src='run_exp/static/images/task_images/opening_img-01.jpg' height='300' width='auto'></p><button class=""jspsych-html-btn-unchosen""><img src=""run_exp/static/images/task_images/planet-01.jpg"" height=""50""></button><button class=""jspsych-html-btn-chosen""><img src=""run_exp/static/images/task_images/planet-02.jpg"" height=""50""></button><p><b>[press the space bar to lock in your answer]<b><br></p>",32,,,,,,,,,,,,,,,,,,,,,,,,
instruc_goal,6,43059,0.0-6.0-0.0,"""event"",""trial"",""time""
""fullscreenenter"",""1"",""1525""
","
","
","""event"",""trial"",""time""
""fullscreenenter"",""1"",""1525""
","
",,null,run_exp/static/audio/clip_3_goal.m4a,null,"<p> As a space explorer, you’ll visit different planets to dig for space treasure, these pink gems.</p> <p> The more treasure you dig up, the more bonus money you’ll win! </p><br><br><p><img src='run_exp/static/images/task_images/pink_gem.jpg' height='300' width='auto'></p>",,,,,,,,,,,,,,,,,,,,,,,
instruc_goal,7,43723,0.0-6.0-1.0,"""event"",""trial"",""time""
""fullscreenenter"",""1"",""1525""
","
","
","""event"",""trial"",""time""
""fullscreenenter"",""1"",""1525""
","
",,661.6,"<p> As a space explorer, you’ll visit different planets to dig for space treasure, these pink gems.</p> <p> The more treasure you dig up, the more bonus money you’ll win! </p><br><br><p><img src='run_exp/static/images/task_images/pink_gem.jpg' height='300' width='auto'></p>",,,,,,,1,,,,,,,,,,,,,,,,,,
html-keyboard-response,8,44020,0.0-6.0-2.0,"""event"",""trial"",""time""
""fullscreenenter"",""1"",""1525""
","
","
","""event"",""trial"",""time""
""fullscreenenter"",""1"",""1525""
","
",,295.6,"<p> As a space explorer, you’ll visit different planets to dig for space treasure, these pink gems.</p> <p> The more treasure you dig up, the more bonus money you’ll win! </p><br><br><p><img src='run_exp/static/images/task_images/pink_gem.jpg' height='300' width='auto'></p><button class=""jspsych-html-btn-unchosen""><img src=""run_exp/static/images/task_images/planet-01.jpg"" height=""50""></button><button class=""jspsych-html-btn-chosen""><img src=""run_exp/static/images/task_images/planet-02.jpg"" height=""50""></button><p><b>[press the space bar to lock in your answer]<b><br></p>",32,,,,,,,,,,,,,,,,,,,,,,,,
instruc_dig,9,60219,0.0-7.0-0.0,"""event"",""trial"",""time""
""fullscreenenter"",""1"",""1525""
","
","
","""event"",""trial"",""time""
""fullscreenenter"",""1"",""1525""
","
",,null,run_exp/static/audio/clip_4_dig.m4a,null,,,,,,,100,,,,,,,,,,,,,,,,,
instruc_dig_try,10,60491,0.0-7.0-1.0,"""event"",""trial"",""time""
""fullscreenenter"",""1"",""1525""
","
","
","""event"",""trial"",""time""
""fullscreenenter"",""1"",""1525""
","
",,270.9,"<p> When you’ve arrived at a new planet, you will dig once. </p> <p>Then, you get to decide if you want to stay on the planet and dig again or travel to a new planet and dig there.</p> <p> To stay and dig, press the letter <strong>‘A’</strong> on your keyboard. Try pressing it now! </p><p><img src='run_exp/static/images/task_images/land.jpg'  height='700' width='auto'></p>",65,"<p> When you’ve arrived at a new planet, you will dig once. </p> <p>Then, you get to decide if you want to stay on the planet and dig again or travel to a new planet and dig there.</p> <p> To stay and dig, press the letter <strong>‘A’</strong> on your keyboard. Try pressing it now! </p><p><img src='run_exp/static/images/task_images/land.jpg'  height='700' width='auto'></p>",,,,,,100,,,,,,,,,,,,,,,,,
dig_prac,11,62502,0.0-7.0-2.0,"""event"",""trial"",""time""
""fullscreenenter"",""1"",""1525""
","
","
","""event"",""trial"",""time""
""fullscreenenter"",""1"",""1525""
","
",,,,,,,,,,,,"[{""stimulus"":""run_exp/static/images/task_images/dig.jpg"",""time"":0.3999999985098839},{""stimulus"":""run_exp/static/images/task_images/land.jpg"",""time"":669.6999999992549},{""stimulus"":""run_exp/static/images/task_images/dig.jpg"",""time"":1336.199999999255}]",[],,,,,,,,,,,,,,,
instruc_travel,12,98919,0.0-7.0-3.0,"""event"",""trial"",""time""
""fullscreenenter"",""1"",""1525""
","
","
","""event"",""trial"",""time""
""fullscreenenter"",""1"",""1525""
","
",,null,run_exp/static/audio/clip_5_travel.m4a,null,"<p>Every time you dig up gems, there are less gems on the planet, so the more you dig on a planet the fewer gems you’ll get with each dig.</p><p>When gems are running low, you may want to travel to a new planet. </p> <p>  Planets are very far apart in this galaxy, so it will take some time to travel between them. </p> <br><p>There are lots and lots of planets for you to visit, so you won’t be able to return to any planets you’ve seen before. </p><br><p>To leave this planet and travel to a new one, press the letter <strong>‘L’</strong> on your keyboard. Try pressing it now! </p><p><img src='run_exp/static/images/task_images/rocket-01.jpg'  height='600' width='auto'></p>",,,,,,,,,,,,,,,,,,,,,,,
instruc_travel_try,13,103862,0.0-7.0-4.0,"""event"",""trial"",""time""
""fullscreenenter"",""1"",""1525""
","
","
","""event"",""trial"",""time""
""fullscreenenter"",""1"",""1525""
","
",,4940.7,"<p>Every time you dig up gems, there are less gems on the planet, so the more you dig on a planet the fewer gems you’ll get with each dig.</p><p>When gems are running low, you may want to travel to a new planet. </p> <p>  Planets are very far apart in this galaxy, so it will take some time to travel between them. </p> <br><p>There are lots and lots of planets for you to visit, so you won’t be able to return to any planets you’ve seen before. </p><br><p>To leave this planet and travel to a new one, press the letter <strong>‘L’</strong> on your keyboard. Try pressing it now! </p><p><img src='run_exp/static/images/task_images/rocket-01.jpg'  height='600' width='auto'></p>",76,"<p>Every time you dig up gems, there are less gems on the planet, so the more you dig on a planet the fewer gems you’ll get with each dig.</p><p>When gems are running low, you may want to travel to a new planet. </p> <p>  Planets are very far apart in this galaxy, so it will take some time to travel between them. </p> <br><p>There are lots and lots of planets for you to visit, so you won’t be able to return to any planets you’ve seen before. </p><br><p>To leave this planet and travel to a new one, press the letter <strong>‘L’</strong> on your keyboard. Try pressing it now! </p><p><img src='run_exp/static/images/task_images/rocket-01.jpg'  height='600' width='auto'></p>",,,,,,,,,,,,,,,,,,,,,,,
travel_prac,14,113865,0.0-7.0-5.0,"""event"",""trial"",""time""
""fullscreenenter"",""1"",""1525""
","
","
","""event"",""trial"",""time""
""fullscreenenter"",""1"",""1525""
","
",,,,,,,,,,,,"[{""stimulus"":""run_exp/static/images/task_images/rocket-01.jpg"",""time"":0.30000000074505806},{""stimulus"":""run_exp/static/images/task_images/rocket-02.jpg"",""time"":1112.300000000745},{""stimulus"":""run_exp/static/images/task_images/rocket-03.jpg"",""time"":2224},{""stimulus"":""run_exp/static/images/task_images/rocket-04.jpg"",""time"":3334.900000002235},{""stimulus"":""run_exp/static/images/task_images/rocket-05.jpg"",""time"":4452.900000002235},{""stimulus"":""run_exp/static/images/task_images/rocket-06.jpg"",""time"":5557},{""stimulus"":""run_exp/static/images/task_images/rocket-07.jpg"",""time"":6667.400000002235},{""stimulus"":""run_exp/static/images/task_images/rocket-08.jpg"",""time"":7778.10000000149},{""stimulus"":""run_exp/static/images/task_images/rocket-09.jpg"",""time"":8890}]",[],0,,,,,,,,,,,,,,
instruc_alien_greet,15,141238,0.0-7.0-6.0,"""event"",""trial"",""time""
""fullscreenenter"",""1"",""1525""
","
","
","""event"",""trial"",""time""
""fullscreenenter"",""1"",""1525""
","
",,null,run_exp/static/audio/clip_6_alien.m4a,null,"<p>When you arrive at a new planet, the alien who owns the treasure mine on that planet will greet you!</p><p>The better an alien takes care of their mine the easier it is to dig for gems. Some aliens take better care of their mine than others. So, you won’t get exactly the same amount of gems on each planet.</p><p>What the alien looks like does not tell you anything about how many gems there are on the planet.</p><br><p><img src=""run_exp/static/images/task_images/aliens/instructions_aliens/planet/alien_planet-1.jpg""  height=""600"" width=""auto""></p>",,,,,,,,,,,,,,,,,,,,,,,
instruc_alien_greet,16,148639,0.0-7.0-7.0,"""event"",""trial"",""time""
""fullscreenenter"",""1"",""1525""
","
","
","""event"",""trial"",""time""
""fullscreenenter"",""1"",""1525""
","
",,7399.7,"<p>When you arrive at a new planet, the alien who owns the treasure mine on that planet will greet you!</p><p>The better an alien takes care of their mine the easier it is to dig for gems. Some aliens take better care of their mine than others. So, you won’t get exactly the same amount of gems on each planet.</p><p>What the alien looks like does not tell you anything about how many gems there are on the planet.</p><br><p><img src=""run_exp/static/images/task_images/aliens/instructions_aliens/planet/alien_planet-1.jpg""  height=""600"" width=""auto""></p>",,,,,,,1,,,,,,,,,,,,,,,,,,
html-keyboard-response,17,148999,0.0-7.0-8.0,"""event"",""trial"",""time""
""fullscreenenter"",""1"",""1525""
","
","
","""event"",""trial"",""time""
""fullscreenenter"",""1"",""1525""
","
",,357.2,"<p>When you arrive at a new planet, the alien who owns the treasure mine on that planet will greet you!</p><p>The better an alien takes care of their mine the easier it is to dig for gems. Some aliens take better care of their mine than others. So, you won’t get exactly the same amount of gems on each planet.</p><p>What the alien looks like does not tell you anything about how many gems there are on the planet.</p><br><p><img src=""run_exp/static/images/task_images/aliens/instructions_aliens/planet/alien_planet-1.jpg""  height=""600"" width=""auto""></p><button class=""jspsych-html-btn-unchosen""><img src=""run_exp/static/images/task_images/planet-01.jpg"" height=""50""></button><button class=""jspsych-html-btn-chosen""><img src=""run_exp/static/images/task_images/planet-02.jpg"" height=""50""></button><p><b>[press the space bar to lock in your answer]<b><br></p>",32,,,,,,,,,,,,,,,,,,,,,,,,
time_out,18,160258,0.0-8.0-0.0,"""event"",""trial"",""time""
""fullscreenenter"",""1"",""1525""
","
","
","""event"",""trial"",""time""
""fullscreenenter"",""1"",""1525""
","
",,null,run_exp/static/audio/clip_7_timeout.m4a,null,"<p>If you don't make your choice fast enough, you’ll have to wait a few seconds before you can make another one.</p><p>You can’t dig for more gems or travel to new planets. You just have to sit and wait.</p><br><p><img src='run_exp/static/images/task_images/time_out.jpg'  height='600' width='auto'></p>",,,,,,,,,,,,,,,,,,,,,,,
time_out,19,163870,0.0-8.0-1.0,"""event"",""trial"",""time""
""fullscreenenter"",""1"",""1525""
","
","
","""event"",""trial"",""time""
""fullscreenenter"",""1"",""1525""
","
",,3608.7,"<p>If you don't make your choice fast enough, you’ll have to wait a few seconds before you can make another one.</p><p>You can’t dig for more gems or travel to new planets. You just have to sit and wait.</p><br><p><img src='run_exp/static/images/task_images/time_out.jpg'  height='600' width='auto'></p>",,,,,,,1,,,,,,,,,,,,,,,,,,
html-keyboard-response,20,164374,0.0-8.0-2.0,"""event"",""trial"",""time""
""fullscreenenter"",""1"",""1525""
","
","
","""event"",""trial"",""time""
""fullscreenenter"",""1"",""1525""
","
",,501.6,"<p>If you don't make your choice fast enough, you’ll have to wait a few seconds before you can make another one.</p><p>You can’t dig for more gems or travel to new planets. You just have to sit and wait.</p><br><p><img src='run_exp/static/images/task_images/time_out.jpg'  height='600' width='auto'></p><button class=""jspsych-html-btn-unchosen""><img src=""run_exp/static/images/task_images/planet-01.jpg"" height=""50""></button><button class=""jspsych-html-btn-chosen""><img src=""run_exp/static/images/task_images/planet-02.jpg"" height=""50""></button><p><b>[press the space bar to lock in your answer]<b><br></p>",32,,,,,,,,,,,,,,,,,,,,,,,,
instruc_break,21,180238,0.0-9.0-0.0,"""event"",""trial"",""time""
""fullscreenenter"",""1"",""1525""
","
","
","""event"",""trial"",""time""
""fullscreenenter"",""1"",""1525""
","
",,null,run_exp/static/audio/clip_8_break.m4a,null,"<p> After digging and traveling for a while, you’ll be able to take a break at home base. </p><p>The game will last 20 minutes no matter what.</p><p>You will visit home base every 5 minutes, so, you will visit home base three times during the game.</p><br><p><img src='run_exp/static/images/task_images/home_base.jpg' height='600' width='auto'></p>",,,,,,,,,,,,,,,,,,,,,,,
instruc_break,22,182471,0.0-9.0-1.0,"""event"",""trial"",""time""
""fullscreenenter"",""1"",""1525""
","
","
","""event"",""trial"",""time""
""fullscreenenter"",""1"",""1525""
","
",,2229.5,"<p> After digging and traveling for a while, you’ll be able to take a break at home base. </p><p>The game will last 20 minutes no matter what.</p><p>You will visit home base every 5 minutes, so, you will visit home base three times during the game.</p><br><p><img src='run_exp/static/images/task_images/home_base.jpg' height='600' width='auto'></p>",,,,,,,1,,,,,,,,,,,,,,,,,,
html-keyboard-response,23,182866,0.0-9.0-2.0,"""event"",""trial"",""time""
""fullscreenenter"",""1"",""1525""
","
","
","""event"",""trial"",""time""
""fullscreenenter"",""1"",""1525""
","
",,393.4,"<p> After digging and traveling for a while, you’ll be able to take a break at home base. </p><p>The game will last 20 minutes no matter what.</p><p>You will visit home base every 5 minutes, so, you will visit home base three times during the game.</p><br><p><img src='run_exp/static/images/task_images/home_base.jpg' height='600' width='auto'></p><button class=""jspsych-html-btn-unchosen""><img src=""run_exp/static/images/task_images/planet-01.jpg"" height=""50""></button><button class=""jspsych-html-btn-chosen""><img src=""run_exp/static/images/task_images/planet-02.jpg"" height=""50""></button><p><b>[press the space bar to lock in your answer]<b><br></p>",32,,,,,,,,,,,,,,,,,,,,,,,,
instruc_prac_game,24,193178,0.0-10.0-0.0,"""event"",""trial"",""time""
""fullscreenenter"",""1"",""1525""
","
","
","""event"",""trial"",""time""
""fullscreenenter"",""1"",""1525""
","
",,null,run_exp/static/audio/clip_9_practice.m4a,null,"<p> Are you ready to play a practice game? </p> <p>In this practice game, you'll be digging up barrels of gems. But, in the real game, you'll be digging up the gems themselves. </p>",,,,,,,,,,,,,,,,,,,,,,,
html-button-response,25,194824,0.0-10.0-1.0,"""event"",""trial"",""time""
""fullscreenenter"",""1"",""1525""
","
","
","""event"",""trial"",""time""
""fullscreenenter"",""1"",""1525""
","
",,1645,"<p> Are you ready to play a practice game? </p> <p>In this practice game, you'll be digging up barrels of gems. But, in the real game, you'll be digging up the gems themselves. </p>",,,,,,,0,,,,,,,,,,,,,,,,,,
alien_welcome_prac,26,199828,0.0-11.0-0.0,"""event"",""trial"",""time""
""fullscreenenter"",""1"",""1525""
","
","
","""event"",""trial"",""time""
""fullscreenenter"",""1"",""1525""
","
",,null,run_exp/static/images/task_images/aliens/practice_aliens/planet/alien_planet-5.jpg,null,,,,,,,,,,,,,,,,,,,,,,,,
land_prac,27,200331,0.0-11.0-1.0,"""event"",""trial"",""time""
""fullscreenenter"",""1"",""1525""
","
","
","""event"",""trial"",""time""
""fullscreenenter"",""1"",""1525""
","
",,null,run_exp/static/images/task_images/land.jpg,null,,,,,,,103,,,0,,,,,,,,,,,,,,
dig_prac,28,202336,0.0-11.0-2.0,"""event"",""trial"",""time""
""fullscreenenter"",""1"",""1525""
","
","
","""event"",""trial"",""time""
""fullscreenenter"",""1"",""1525""
","
",,,,,,,,,,,,"[{""stimulus"":""run_exp/static/images/task_images/dig.jpg"",""time"":0.19999999925494194},{""stimulus"":""run_exp/static/images/task_images/land.jpg"",""time"":668.9000000022352},{""stimulus"":""run_exp/static/images/task_images/dig.jpg"",""time"":1335.1000000014901}]",[],,,,,,,,,,,,,,,
harvest_prac,29,203338,0.0-11.0-3.0,"""event"",""trial"",""time""
""fullscreenenter"",""1"",""1525""
","
","
","""event"",""trial"",""time""
""fullscreenenter"",""1"",""1525""
","
",,null,run_exp/static/images/task_images/barrel_text.jpg,null,,,,,,,,,,,,,,,,,,,,,,,,
decision_prac,30,205707,0.0-11.0-4.0,"""event"",""trial"",""time""
""fullscreenenter"",""1"",""1525""
","
","
","""event"",""trial"",""time""
""fullscreenenter"",""1"",""1525""
","
",,2368.4,run_exp/static/images/task_images/land.jpg,65,,,,,,,,,,,1,,,,,,,,,,,,,
dig_prac,31,207713,0.0-12.0-0.0,"""event"",""trial"",""time""
""fullscreenenter"",""1"",""1525""
","
","
","""event"",""trial"",""time""
""fullscreenenter"",""1"",""1525""
","
",,,,,,,,,,,,"[{""stimulus"":""run_exp/static/images/task_images/dig.jpg"",""time"":0.29999999701976776},{""stimulus"":""run_exp/static/images/task_images/land.jpg"",""time"":668.6999999992549},{""stimulus"":""run_exp/static/images/task_images/dig.jpg"",""time"":1336.3999999985099}]",[],,,,,,,,,,,,,,,
harvest_prac,32,208715,0.0-12.0-1.0,"""event"",""trial"",""time""
""fullscreenenter"",""1"",""1525""
","
","
","""event"",""trial"",""time""
""fullscreenenter"",""1"",""1525""
","
",,null,run_exp/static/images/task_images/barrel_text.jpg,null,,,,,,,,,,,,,,,,,,,,,,,,
decision_prac,33,209322,0.0-12.0-2.0,"""event"",""trial"",""time""
""fullscreenenter"",""1"",""1525""
","
","
","""event"",""trial"",""time""
""fullscreenenter"",""1"",""1525""
","
",,605.4,run_exp/static/images/task_images/land.jpg,65,,,,,,,,,,,2,,,,,,,,,,,,,
dig_prac,34,211326,0.0-13.0-0.0,"""event"",""trial"",""time""
""fullscreenenter"",""1"",""1525""
","
","
","""event"",""trial"",""time""
""fullscreenenter"",""1"",""1525""
","
",,,,,,,,,,,,"[{""stimulus"":""run_exp/static/images/task_images/dig.jpg"",""time"":0.09999999776482582},{""stimulus"":""run_exp/static/images/task_images/land.jpg"",""time"":669.2999999970198},{""stimulus"":""run_exp/static/images/task_images/dig.jpg"",""time"":1336.699999999255}]",[],,,,,,,,,,,,,,,
harvest_prac,35,212328,0.0-13.0-1.0,"""event"",""trial"",""time""
""fullscreenenter"",""1"",""1525""
","
","
","""event"",""trial"",""time""
""fullscreenenter"",""1"",""1525""
","
",,null,run_exp/static/images/task_images/barrel_text.jpg,null,,,,,,,,,,,,,,,,,,,,,,,,
decision_prac,36,212435,0.0-13.0-2.0,"""event"",""trial"",""time""
""fullscreenenter"",""1"",""1525""
","
","
","""event"",""trial"",""time""
""fullscreenenter"",""1"",""1525""
","
",,105,run_exp/static/images/task_images/land.jpg,65,,,,,,,,,,,3,,,,,,,,,,,,,
dig_prac,37,214441,0.0-14.0-0.0,"""event"",""trial"",""time""
""fullscreenenter"",""1"",""1525""
","
","
","""event"",""trial"",""time""
""fullscreenenter"",""1"",""1525""
","
",,,,,,,,,,,,"[{""stimulus"":""run_exp/static/images/task_images/dig.jpg"",""time"":0.3999999985098839},{""stimulus"":""run_exp/static/images/task_images/land.jpg"",""time"":669.6999999992549},{""stimulus"":""run_exp/static/images/task_images/dig.jpg"",""time"":1335.699999999255}]",[],,,,,,,,,,,,,,,
harvest_prac,38,215443,0.0-14.0-1.0,"""event"",""trial"",""time""
""fullscreenenter"",""1"",""1525""
","
","
","""event"",""trial"",""time""
""fullscreenenter"",""1"",""1525""
","
",,null,run_exp/static/images/task_images/barrel_text.jpg,null,,,,,,,,,,,,,,,,,,,,,,,,
decision_prac,39,216569,0.0-14.0-2.0,"""event"",""trial"",""time""
""fullscreenenter"",""1"",""1525""
","
","
","""event"",""trial"",""time""
""fullscreenenter"",""1"",""1525""
","
",,1125.5,run_exp/static/images/task_images/land.jpg,65,,,,,,,,,,,4,,,,,,,,,,,,,
dig_prac,40,218575,0.0-15.0-0.0,"""event"",""trial"",""time""
""fullscreenenter"",""1"",""1525""
","
","
","""event"",""trial"",""time""
""fullscreenenter"",""1"",""1525""
","
",,,,,,,,,,,,"[{""stimulus"":""run_exp/static/images/task_images/dig.jpg"",""time"":0.19999999925494194},{""stimulus"":""run_exp/static/images/task_images/land.jpg"",""time"":669.1999999992549},{""stimulus"":""run_exp/static/images/task_images/dig.jpg"",""time"":1335.6000000014901}]",[],,,,,,,,,,,,,,,
harvest_prac,41,219578,0.0-15.0-1.0,"""event"",""trial"",""time""
""fullscreenenter"",""1"",""1525""
","
","
","""event"",""trial"",""time""
""fullscreenenter"",""1"",""1525""
","
",,null,run_exp/static/images/task_images/barrel_text.jpg,null,,,,,,,,,,,,,,,,,,,,,,,,
decision_prac,42,220029,0.0-15.0-2.0,"""event"",""trial"",""time""
""fullscreenenter"",""1"",""1525""
","
","
","""event"",""trial"",""time""
""fullscreenenter"",""1"",""1525""
","
",,450.5,run_exp/static/images/task_images/land.jpg,65,,,,,,,,,,,,1,,,,,,,,,,,,
quiz_instruc,43,222989,0.0-16.0-0.0,"""event"",""trial"",""time""
""fullscreenenter"",""1"",""1525""
","
","
","""event"",""trial"",""time""
""fullscreenenter"",""1"",""1525""
","
",,2957.8,run_exp/static/audio/clip_10_quiz.m4a,,,,,,,0,,,,,,,,,,,,,,,,,,
instruc_repeat,44,265938,0.0-16.0-1.0,"""event"",""trial"",""time""
""fullscreenenter"",""1"",""1525""
","
","
","""event"",""trial"",""time""
""fullscreenenter"",""1"",""1525""
","
",,null,"<p> Are you ready to play a practice game? </p> <p>In this practice game, you'll be digging up barrels of gems. But, in the real game, you'll be digging up the gems themselves. </p>",null,"<p>In this game, your goal is to collect as many gems as you can. That’s how you will win bonus money. </p> <p>The entire game will last 20 minutes no matter how many gems you collect or how many planets you visit. </p><p>To stay on a planet and dig again, press the letter A on your keyboard. To leave for a new planet, press the letter L.</p><p>The more you dig on a planet, the fewer gems you’ll get with each dig which is why you might consider leaving for a new planet. </p><p>When you arrive at a new planet, you’ll be greeted by an alien. What the alien looks like does not tell you anything about how much treasure is on the planet. </p>",,,,,,,,,,,,,,,,,,,,,,,
instruc_repeat_continue,45,267656,0.0-16.0-2.0,"""event"",""trial"",""time""
""fullscreenenter"",""1"",""1525""
","
","
","""event"",""trial"",""time""
""fullscreenenter"",""1"",""1525""
","
",,1716.1,"<p> Are you ready to play a practice game? </p> <p>In this practice game, you'll be digging up barrels of gems. But, in the real game, you'll be digging up the gems themselves. </p>",,,,,,,0,,,,,,,,,,,,,,,,,,
quiz_q_1_ask,46,271189,0.0-16.0-3.0,"""event"",""trial"",""time""
""fullscreenenter"",""1"",""1525""
","
","
","""event"",""trial"",""time""
""fullscreenenter"",""1"",""1525""
","
",,3531.5,run_exp/static/audio/clip_11_q1_ask.m4a,,,,,,,2,,,,,,,,,,,,,,,,,,
quiz_q_1_fb_correct,47,275238,0.0-17.0-0.0,"""event"",""trial"",""time""
""fullscreenenter"",""1"",""1525""
","
","
","""event"",""trial"",""time""
""fullscreenenter"",""1"",""1525""
","
",,null,run_exp/static/audio/clip_12_q1_correct.m4a,null,<p>That’s correct. You win extra money by collecting more gems.</p>,,,,,,,,,,,,,,,,,,,,,,,
quiz_q_2_ask,48,278541,0.0-17.0-1.0,"""event"",""trial"",""time""
""fullscreenenter"",""1"",""1525""
","
","
","""event"",""trial"",""time""
""fullscreenenter"",""1"",""1525""
","
",,3300.3,run_exp/static/audio/clip_14_q2_ask.m4a,,,,,,,1,,,,,,,,,,,,,,,,,,
quiz_q_2_fb_correct,49,282718,0.0-18.0-0.0,"""event"",""trial"",""time""
""fullscreenenter"",""1"",""1525""
","
","
","""event"",""trial"",""time""
""fullscreenenter"",""1"",""1525""
","
",,null,run_exp/static/audio/clip_15_q2_correct.m4a,null,<p>That’s correct. The experiment is 20 minutes no matter what.</p>,,,,,,,,,,,,,,,,,,,,,,,
quiz_q_3_ask,50,285624,0.0-18.0-1.0,"""event"",""trial"",""time""
""fullscreenenter"",""1"",""1525""
","
","
","""event"",""trial"",""time""
""fullscreenenter"",""1"",""1525""
","
",,2904.1,run_exp/static/audio/clip_17_q3_ask.m4a,,,,,,,1,,,,,,,,,,,,,,,,,,
quiz_q_3_fb_correct,51,289778,0.0-19.0-0.0,"""event"",""trial"",""time""
""fullscreenenter"",""1"",""1525""
","
","
","""event"",""trial"",""time""
""fullscreenenter"",""1"",""1525""
","
",,null,run_exp/static/audio/clip_18_q3_correct.m4a,null,<p> That’s correct. You press the letter L to travel to a new planet.</p>,,,,,,,,,,,,,,,,,,,,,,,
quiz_q_4_ask,52,293955,0.0-19.0-1.0,"""event"",""trial"",""time""
""fullscreenenter"",""1"",""1525""
","
","
","""event"",""trial"",""time""
""fullscreenenter"",""1"",""1525""
","
",,4174.8,run_exp/static/audio/clip_20_q4_ask.m4a,,,,,,,0,,,,,,,,,,,,,,,,,,
quiz_q_4_fb_correct,53,299458,0.0-20.0-0.0,"""event"",""trial"",""time""
""fullscreenenter"",""1"",""1525""
","
","
","""event"",""trial"",""time""
""fullscreenenter"",""1"",""1525""
","
",,null,run_exp/static/audio/clip_21_q4_correct.m4a,null,<p> That’s correct. The more you dig on a planet the fewer gems you’ll get with each dig. </p>,,,,,,,,,,,,,,,,,,,,,,,
quiz_q_5_ask,54,302140,0.0-20.0-1.0,"""event"",""trial"",""time""
""fullscreenenter"",""1"",""1525""
","
","
","""event"",""trial"",""time""
""fullscreenenter"",""1"",""1525""
","
",,2680.1,run_exp/static/audio/clip_23_q5_ask.m4a,,,,,,,1,,,,,,,,,,,,,,,,,,
quiz_q_5_fb_correct,55,307314,0.0-21.0-0.0,"""event"",""trial"",""time""
""fullscreenenter"",""1"",""1525""
","
","
","""event"",""trial"",""time""
""fullscreenenter"",""1"",""1525""
","
",,null,run_exp/static/audio/clip_24_q5_correct.m4a,null,<p> That’s correct. The alien tells you nothing about how much treasure is on the planet.</p>,,,,,,,,,,,,,,,,,,,,,,,
quiz_correct,56,310952,0.0-22.0-0.0,"""event"",""trial"",""time""
""fullscreenenter"",""1"",""1525""
","
","
","""event"",""trial"",""time""
""fullscreenenter"",""1"",""1525""
","
",,null,run_exp/static/audio/clip_26_correct_quiz.m4a,null,,,,,,,,,,,,,,,,,,,,,,,,
quiz_correct_continue,57,312414,0.0-22.0-1.0,"""event"",""trial"",""time""
""fullscreenenter"",""1"",""1525""
","
","
","""event"",""trial"",""time""
""fullscreenenter"",""1"",""1525""
","
",,1461.7,<p>Good job! You're now ready to move on to the real game!</p>,,,,,,,0,,,,,,,,,,,,,,,,,,
audio-keyboard-response,58,322706,0.0-22.0-2.0,"""event"",""trial"",""time""
""fullscreenenter"",""1"",""1525""
","
","
","""event"",""trial"",""time""
""fullscreenenter"",""1"",""1525""
","
",,null,run_exp/static/audio/clip_28_real_game.m4a,null,,,,,,,,,,,,,,,,,,,,,,,,
instruc_begin_exp_contine,59,324643,0.0-22.0-3.0,"""event"",""trial"",""time""
""fullscreenenter"",""1"",""1525""
","
","
","""event"",""trial"",""time""
""fullscreenenter"",""1"",""1525""
","
",,1936.8,"<p>Now that you know how  to dig for space treasure and travel to new planets,you can start exploring! </p><p>Do you want to go over the instructions again or get started with the real game?</p>",,,,,,,1,,,,,,1,,,,,,,,,,,,
alien_welcome,60,329644,0.0-23.0-0.0,"""event"",""trial"",""time""
""fullscreenenter"",""1"",""1525""
","
","
","""event"",""trial"",""time""
""fullscreenenter"",""1"",""1525""
","
",,null,run_exp/static/images/task_images/aliens/old_aliens/planet/alien_planet-9.jpg,null,,,,,,,,,,,,,9,"9,35,12,15,78,56,74,51,72,31,54,49,41,77,66,4,7,50,64,62,21,2,61,33,6,32",,,,,,,,,,
land,61,330147,0.0-23.0-1.0,"""event"",""trial"",""time""
""fullscreenenter"",""1"",""1525""
","
","
","""event"",""trial"",""time""
""fullscreenenter"",""1"",""1525""
","
",,null,run_exp/static/images/task_images/land.jpg,null,,,,,,,97,,,1,,,,,,,,,,,,,,
dig,62,332151,0.0-23.0-2.0,"""event"",""trial"",""time""
""fullscreenenter"",""1"",""1525""
","
","
","""event"",""trial"",""time""
""fullscreenenter"",""1"",""1525""
","
",,,,,,,,,,,,"[{""stimulus"":""run_exp/static/images/task_images/dig.jpg"",""time"":0.30000000074505806},{""stimulus"":""run_exp/static/images/task_images/land.jpg"",""time"":668.5},{""stimulus"":""run_exp/static/images/task_images/dig.jpg"",""time"":1336.1000000014901}]",[],1,,,,,,,,,,,,,,
harvest,63,333153,0.0-23.0-3.0,"""event"",""trial"",""time""
""fullscreenenter"",""1"",""1525""
","
","
","""event"",""trial"",""time""
""fullscreenenter"",""1"",""1525""
","
",,null,run_exp/static/images/task_images/gems/97.jpg,null,,,,,,,25,,,1,,,,,97,0.261244989,0.257731959,,,,,,,
decision,64,333771,0.0-23.0-4.0,"""event"",""trial"",""time""
""fullscreenenter"",""1"",""1525""
","
","
","""event"",""trial"",""time""
""fullscreenenter"",""1"",""1525""
","
",,617.2,run_exp/static/images/task_images/land.jpg,65,,,,,,,25,,,1,,,,,,,,9127,1,0,FALSE,,,
dig,65,336157,0.0-24.0-0.0,"""event"",""trial"",""time""
""fullscreenenter"",""1"",""1525""
","
","
","""event"",""trial"",""time""
""fullscreenenter"",""1"",""1525""
","
",,,,,,,,,,,,"[{""stimulus"":""run_exp/static/images/task_images/dig.jpg"",""time"":0.10000000149011612},{""stimulus"":""run_exp/static/images/task_images/land.jpg"",""time"":795.1000000014901},{""stimulus"":""run_exp/static/images/task_images/dig.jpg"",""time"":1590.199999999255}]",[],1,,,,,,,,,,,,,,
harvest,66,337159,0.0-24.0-1.0,"""event"",""trial"",""time""
""fullscreenenter"",""1"",""1525""
","
","
","""event"",""trial"",""time""
""fullscreenenter"",""1"",""1525""
","
",,null,run_exp/static/images/task_images/gems/25.jpg,null,,,,,,,5,,,1,,,,,25,0.211347435,0.2,,,,,,,
decision,67,339108,0.0-24.0-2.0,"""event"",""trial"",""time""
""fullscreenenter"",""1"",""1525""
","
","
","""event"",""trial"",""time""
""fullscreenenter"",""1"",""1525""
","
",,1947.4,run_exp/static/images/task_images/land.jpg,65,,,,,,,5,,,1,,,,,,,,14464,1,1,FALSE,,,
dig,68,340163,0.0-25.0-0.0,"""event"",""trial"",""time""
""fullscreenenter"",""1"",""1525""
","
","
","""event"",""trial"",""time""
""fullscreenenter"",""1"",""1525""
","
",,,,,,,,,,,,"[{""stimulus"":""run_exp/static/images/task_images/dig.jpg"",""time"":0.19999999925494194},{""stimulus"":""run_exp/static/images/task_images/land.jpg"",""time"":352.6000000014901},{""stimulus"":""run_exp/static/images/task_images/dig.jpg"",""time"":702.3000000007451}]",[],1,,,,,,,,,,,,,,
harvest,69,341165,0.0-25.0-1.0,"""event"",""trial"",""time""
""fullscreenenter"",""1"",""1525""
","
","
","""event"",""trial"",""time""
""fullscreenenter"",""1"",""1525""
","
",,null,run_exp/static/images/task_images/gems/5.jpg,null,,,,,,,1,,,1,,,,,5,0.160725308,0.2,,,,,,,
decision,70,341700,0.0-25.0-2.0,"""event"",""trial"",""time""
""fullscreenenter"",""1"",""1525""
","
","
","""event"",""trial"",""time""
""fullscreenenter"",""1"",""1525""
","
",,534,run_exp/static/images/task_images/land.jpg,76,,,,,,,1,,,1,,,,,,,,17057,1,2,TRUE,,,
travel,71,351165,0.0-26.0-0.0,"""event"",""trial"",""time""
""fullscreenenter"",""1"",""1525""
","
","
","""event"",""trial"",""time""
""fullscreenenter"",""1"",""1525""
","
",,,,,,,,,,,,"[{""stimulus"":""run_exp/static/images/task_images/rocket-01.jpg"",""time"":0.29999999701976776},{""stimulus"":""run_exp/static/images/task_images/rocket-02.jpg"",""time"":1053.3999999985099},{""stimulus"":""run_exp/static/images/task_images/rocket-03.jpg"",""time"":2103.5},{""stimulus"":""run_exp/static/images/task_images/rocket-04.jpg"",""time"":3154.5},{""stimulus"":""run_exp/static/images/task_images/rocket-05.jpg"",""time"":4205.599999997765},{""stimulus"":""run_exp/static/images/task_images/rocket-06.jpg"",""time"":5258},{""stimulus"":""run_exp/static/images/task_images/rocket-07.jpg"",""time"":6308.5},{""stimulus"":""run_exp/static/images/task_images/rocket-08.jpg"",""time"":7359.79999999702},{""stimulus"":""run_exp/static/images/task_images/rocket-09.jpg"",""time"":8411.099999997765}]",[],1,,,,,,,,,,,,,,
alien_welcome,72,356166,0.0-26.0-1.0,"""event"",""trial"",""time""
""fullscreenenter"",""1"",""1525""
","
","
","""event"",""trial"",""time""
""fullscreenenter"",""1"",""1525""
","
",,null,run_exp/static/images/task_images/aliens/old_aliens/planet/alien_planet-35.jpg,null,,,,,,,,,,,,,35,"9,35,12,15,78,56,74,51,72,31,54,49,41,77,66,4,7,50,64,62,21,2,61,33,6,32",,,,,,,,,,
land,73,356668,0.0-26.0-2.0,"""event"",""trial"",""time""
""fullscreenenter"",""1"",""1525""
","
","
","""event"",""trial"",""time""
""fullscreenenter"",""1"",""1525""
","
",,null,run_exp/static/images/task_images/land.jpg,null,,,,,,,95,,,2,,,,,,,,,,,,,,
dig,74,358672,0.0-26.0-3.0,"""event"",""trial"",""time""
""fullscreenenter"",""1"",""1525""
","
","
","""event"",""trial"",""time""
""fullscreenenter"",""1"",""1525""
","
",,,,,,,,,,,,"[{""stimulus"":""run_exp/static/images/task_images/dig.jpg"",""time"":0.20000000298023224},{""stimulus"":""run_exp/static/images/task_images/land.jpg"",""time"":668.8000000007451},{""stimulus"":""run_exp/static/images/task_images/dig.jpg"",""time"":1335.7000000029802}]",[],2,,,,,,,,,,,,,,
harvest,75,359674,0.0-26.0-4.0,"""event"",""trial"",""time""
""fullscreenenter"",""1"",""1525""
","
","
","""event"",""trial"",""time""
""fullscreenenter"",""1"",""1525""
","
",,null,run_exp/static/images/task_images/gems/95.jpg,null,,,,,,,24,,,2,,,,,95,0.249847507,0.252631579,,,,,,,
decision,76,360385,0.0-26.0-5.0,"""event"",""trial"",""time""
""fullscreenenter"",""1"",""1525""
","
","
","""event"",""trial"",""time""
""fullscreenenter"",""1"",""1525""
","
",,710.5,run_exp/static/images/task_images/land.jpg,65,,,,,,,24,,,2,,,,,,,,35741,1,0,FALSE,,,
dig,77,362678,0.0-27.0-0.0,"""event"",""trial"",""time""
""fullscreenenter"",""1"",""1525""
","
","
","""event"",""trial"",""time""
""fullscreenenter"",""1"",""1525""
","
",,,,,,,,,,,,"[{""stimulus"":""run_exp/static/images/task_images/dig.jpg"",""time"":0.10000000149011612},{""stimulus"":""run_exp/static/images/task_images/land.jpg"",""time"":765.5},{""stimulus"":""run_exp/static/images/task_images/dig.jpg"",""time"":1528.5}]",[],2,,,,,,,,,,,,,,
harvest,78,363681,0.0-27.0-1.0,"""event"",""trial"",""time""
""fullscreenenter"",""1"",""1525""
","
","
","""event"",""trial"",""time""
""fullscreenenter"",""1"",""1525""
","
",,null,run_exp/static/images/task_images/gems/24.jpg,null,,,,,,,6,,,2,,,,,24,0.231622472,0.25,,,,,,,
decision,79,363724,0.0-27.0-2.0,"""event"",""trial"",""time""
""fullscreenenter"",""1"",""1525""
","
","
","""event"",""trial"",""time""
""fullscreenenter"",""1"",""1525""
","
",,41.3,run_exp/static/images/task_images/land.jpg,65,,,,,,,6,,,2,,,,,,,,39080,1,1,FALSE,,,
dig,80,366685,0.0-28.0-0.0,"""event"",""trial"",""time""
""fullscreenenter"",""1"",""1525""
","
","
","""event"",""trial"",""time""
""fullscreenenter"",""1"",""1525""
","
",,,,,,,,,,,,"[{""stimulus"":""run_exp/static/images/task_images/dig.jpg"",""time"":0.19999999925494194},{""stimulus"":""run_exp/static/images/task_images/land.jpg"",""time"":988.5999999977648},{""stimulus"":""run_exp/static/images/task_images/dig.jpg"",""time"":1974.5999999977648}]",[],2,,,,,,,,,,,,,,
harvest,81,367687,0.0-28.0-1.0,"""event"",""trial"",""time""
""fullscreenenter"",""1"",""1525""
","
","
","""event"",""trial"",""time""
""fullscreenenter"",""1"",""1525""
","
",,null,run_exp/static/images/task_images/gems/6.jpg,null,,,,,,,1,,,2,,,,,6,0.21927555,0.166666667,,,,,,,
decision,82,368985,0.0-28.0-2.0,"""event"",""trial"",""time""
""fullscreenenter"",""1"",""1525""
","
","
","""event"",""trial"",""time""
""fullscreenenter"",""1"",""1525""
","
",,1295.6,run_exp/static/images/task_images/land.jpg,65,,,,,,,1,,,2,,,,,,,,44341,1,2,FALSE,,,
dig,83,370694,0.0-29.0-0.0,"""event"",""trial"",""time""
""fullscreenenter"",""1"",""1525""
","
","
","""event"",""trial"",""time""
""fullscreenenter"",""1"",""1525""
","
",,,,,,,,,,,,"[{""stimulus"":""run_exp/static/images/task_images/dig.jpg"",""time"":0.10000000149011612},{""stimulus"":""run_exp/static/images/task_images/land.jpg"",""time"":570.6000000014901},{""stimulus"":""run_exp/static/images/task_images/dig.jpg"",""time"":1138.199999999255}]",[],2,,,,,,,,,,,,,,
harvest,84,371696,0.0-29.0-1.0,"""event"",""trial"",""time""
""fullscreenenter"",""1"",""1525""
","
","
","""event"",""trial"",""time""
""fullscreenenter"",""1"",""1525""
","
",,null,run_exp/static/images/task_images/gems/1.jpg,null,,,,,,,0,,,2,,,,,1,0.129037681,0,,,,,,,
decision,85,371785,0.0-29.0-2.0,"""event"",""trial"",""time""
""fullscreenenter"",""1"",""1525""
","
","
","""event"",""trial"",""time""
""fullscreenenter"",""1"",""1525""
","
",,87.2,run_exp/static/images/task_images/land.jpg,76,,,,,,,0,,,2,,,,,,,,47141,1,3,TRUE,,,
travel,86,381699,0.0-30.0-0.0,"""event"",""trial"",""time""
""fullscreenenter"",""1"",""1525""
","
","
","""event"",""trial"",""time""
""fullscreenenter"",""1"",""1525""
","
",,,,,,,,,,,,"[{""stimulus"":""run_exp/static/images/task_images/rocket-01.jpg"",""time"":0.20000000298023224},{""stimulus"":""run_exp/static/images/task_images/rocket-02.jpg"",""time"":1102.800000000745},{""stimulus"":""run_exp/static/images/task_images/rocket-03.jpg"",""time"":2204.2000000029802},{""stimulus"":""run_exp/static/images/task_images/rocket-04.jpg"",""time"":3305.2000000029802},{""stimulus"":""run_exp/static/images/task_images/rocket-05.jpg"",""time"":4405.400000002235},{""stimulus"":""run_exp/static/images/task_images/rocket-06.jpg"",""time"":5507.400000002235},{""stimulus"":""run_exp/static/images/task_images/rocket-07.jpg"",""time"":6608.5},{""stimulus"":""run_exp/static/images/task_images/rocket-08.jpg"",""time"":7709.900000002235},{""stimulus"":""run_exp/static/images/task_images/rocket-09.jpg"",""time"":8810.5}]",[],2,,,,,,,,,,,,,,
alien_welcome,87,386702,0.0-30.0-1.0,"""event"",""trial"",""time""
""fullscreenenter"",""1"",""1525""
","
","
","""event"",""trial"",""time""
""fullscreenenter"",""1"",""1525""
","
",,null,run_exp/static/images/task_images/aliens/old_aliens/planet/alien_planet-12.jpg,null,,,,,,,,,,,,,12,"9,35,12,15,78,56,74,51,72,31,54,49,41,77,66,4,7,50,64,62,21,2,61,33,6,32",,,,,,,,,,
land,88,387204,0.0-30.0-2.0,"""event"",""trial"",""time""
""fullscreenenter"",""1"",""1525""
","
","
","""event"",""trial"",""time""
""fullscreenenter"",""1"",""1525""
","
",,null,run_exp/static/images/task_images/land.jpg,null,,,,,,,101,,,3,,,,,,,,,,,,,,
dig,89,389209,0.0-30.0-3.0,"""event"",""trial"",""time""
""fullscreenenter"",""1"",""1525""
","
","
","""event"",""trial"",""time""
""fullscreenenter"",""1"",""1525""
","
",,,,,,,,,,,,"[{""stimulus"":""run_exp/static/images/task_images/dig.jpg"",""time"":0.4000000022351742},{""stimulus"":""run_exp/static/images/task_images/land.jpg"",""time"":669.4000000022352},{""stimulus"":""run_exp/static/images/task_images/dig.jpg"",""time"":1335.5}]",[],3,,,,,,,,,,,,,,
harvest,90,390211,0.0-30.0-4.0,"""event"",""trial"",""time""
""fullscreenenter"",""1"",""1525""
","
","
","""event"",""trial"",""time""
""fullscreenenter"",""1"",""1525""
","
",,null,run_exp/static/images/task_images/gems/101.jpg,null,,,,,,,54,,,3,,,,,101,0.5350019,0.534653465,,,,,,,
decision,91,391012,0.0-30.0-5.0,"""event"",""trial"",""time""
""fullscreenenter"",""1"",""1525""
","
","
","""event"",""trial"",""time""
""fullscreenenter"",""1"",""1525""
","
",,799.1,run_exp/static/images/task_images/land.jpg,65,,,,,,,54,,,3,,,,,,,,66368,1,0,FALSE,,,
dig,92,393216,0.0-31.0-0.0,"""event"",""trial"",""time""
""fullscreenenter"",""1"",""1525""
","
","
","""event"",""trial"",""time""
""fullscreenenter"",""1"",""1525""
","
",,,,,,,,,,,,"[{""stimulus"":""run_exp/static/images/task_images/dig.jpg"",""time"":0.10000000149011612},{""stimulus"":""run_exp/static/images/task_images/land.jpg"",""time"":735.7000000029802},{""stimulus"":""run_exp/static/images/task_images/dig.jpg"",""time"":1468.9000000022352}]",[],3,,,,,,,,,,,,,,
harvest,93,394219,0.0-31.0-1.0,"""event"",""trial"",""time""
""fullscreenenter"",""1"",""1525""
","
","
","""event"",""trial"",""time""
""fullscreenenter"",""1"",""1525""
","
",,null,run_exp/static/images/task_images/gems/54.jpg,null,,,,,,,26,,,3,,,,,54,0.482172854,0.481481481,,,,,,,
decision,94,394693,0.0-31.0-2.0,"""event"",""trial"",""time""
""fullscreenenter"",""1"",""1525""
","
","
","""event"",""trial"",""time""
""fullscreenenter"",""1"",""1525""
","
",,472.5,run_exp/static/images/task_images/land.jpg,65,,,,,,,26,,,3,,,,,,,,70049,1,1,FALSE,,,
dig,95,397221,0.0-32.0-0.0,"""event"",""trial"",""time""
""fullscreenenter"",""1"",""1525""
","
","
","""event"",""trial"",""time""
""fullscreenenter"",""1"",""1525""
","
",,,,,,,,,,,,"[{""stimulus"":""run_exp/static/images/task_images/dig.jpg"",""time"":0.10000000149011612},{""stimulus"":""run_exp/static/images/task_images/land.jpg"",""time"":844.5},{""stimulus"":""run_exp/static/images/task_images/dig.jpg"",""time"":1686.800000000745}]",[],3,,,,,,,,,,,,,,
harvest,96,398223,0.0-32.0-1.0,"""event"",""trial"",""time""
""fullscreenenter"",""1"",""1525""
","
","
","""event"",""trial"",""time""
""fullscreenenter"",""1"",""1525""
","
",,null,run_exp/static/images/task_images/gems/26.jpg,null,,,,,,,15,,,3,,,,,26,0.566162998,0.576923077,,,,,,,
decision,97,398756,0.0-32.0-2.0,"""event"",""trial"",""time""
""fullscreenenter"",""1"",""1525""
","
","
","""event"",""trial"",""time""
""fullscreenenter"",""1"",""1525""
","
",,532,run_exp/static/images/task_images/land.jpg,65,,,,,,,15,,,3,,,,,,,,74112,1,2,FALSE,,,
dig,98,401228,0.0-33.0-0.0,"""event"",""trial"",""time""
""fullscreenenter"",""1"",""1525""
","
","
","""event"",""trial"",""time""
""fullscreenenter"",""1"",""1525""
","
",,,,,,,,,,,,"[{""stimulus"":""run_exp/static/images/task_images/dig.jpg"",""time"":0.19999999925494194},{""stimulus"":""run_exp/static/images/task_images/land.jpg"",""time"":825},{""stimulus"":""run_exp/static/images/task_images/dig.jpg"",""time"":1646.6000000014901}]",[],3,,,,,,,,,,,,,,
harvest,99,402230,0.0-33.0-1.0,"""event"",""trial"",""time""
""fullscreenenter"",""1"",""1525""
","
","
","""event"",""trial"",""time""
""fullscreenenter"",""1"",""1525""
","
",,null,run_exp/static/images/task_images/gems/15.jpg,null,,,,,,,8,,,3,,,,,15,0.515966456,0.533333333,,,,,,,
decision,100,404332,0.0-33.0-2.0,"""event"",""trial"",""time""
""fullscreenenter"",""1"",""1525""
","
","
","""event"",""trial"",""time""
""fullscreenenter"",""1"",""1525""
","
",,2101.1,run_exp/static/images/task_images/land.jpg,65,,,,,,,8,,,3,,,,,,,,79688,1,3,FALSE,,,
dig,101,405234,0.0-34.0-0.0,"""event"",""trial"",""time""
""fullscreenenter"",""1"",""1525""
","
","
","""event"",""trial"",""time""
""fullscreenenter"",""1"",""1525""
","
",,,,,,,,,,,,"[{""stimulus"":""run_exp/static/images/task_images/dig.jpg"",""time"":0.30000000074505806},{""stimulus"":""run_exp/static/images/task_images/land.jpg"",""time"":300.8999999985099},{""stimulus"":""run_exp/static/images/task_images/dig.jpg"",""time"":600.8999999985099}]",[],3,,,,,,,,,,,,,,
harvest,102,406237,0.0-34.0-1.0,"""event"",""trial"",""time""
""fullscreenenter"",""1"",""1525""
","
","
","""event"",""trial"",""time""
""fullscreenenter"",""1"",""1525""
","
",,null,run_exp/static/images/task_images/gems/8.jpg,null,,,,,,,4,,,3,,,,,8,0.495956824,0.5,,,,,,,
decision,103,406256,0.0-34.0-2.0,"""event"",""trial"",""time""
""fullscreenenter"",""1"",""1525""
","
","
","""event"",""trial"",""time""
""fullscreenenter"",""1"",""1525""
","
",,17.5,run_exp/static/images/task_images/land.jpg,65,,,,,,,4,,,3,,,,,,,,81612,1,4,FALSE,,,
dig,104,409243,0.0-35.0-0.0,"""event"",""trial"",""time""
""fullscreenenter"",""1"",""1525""
","
","
","""event"",""trial"",""time""
""fullscreenenter"",""1"",""1525""
","
",,,,,,,,,,,,"[{""stimulus"":""run_exp/static/images/task_images/dig.jpg"",""time"":0.29999999701976776},{""stimulus"":""run_exp/static/images/task_images/land.jpg"",""time"":995.5},{""stimulus"":""run_exp/static/images/task_images/dig.jpg"",""time"":1990.5999999977648}]",[],3,,,,,,,,,,,,,,
harvest,105,410245,0.0-35.0-1.0,"""event"",""trial"",""time""
""fullscreenenter"",""1"",""1525""
","
","
","""event"",""trial"",""time""
""fullscreenenter"",""1"",""1525""
","
",,null,run_exp/static/images/task_images/gems/4.jpg,null,,,,,,,2,,,3,,,,,4,0.403835851,0.5,,,,,,,
decision,106,410960,0.0-35.0-2.0,"""event"",""trial"",""time""
""fullscreenenter"",""1"",""1525""
","
","
","""event"",""trial"",""time""
""fullscreenenter"",""1"",""1525""
","
",,713.2,run_exp/static/images/task_images/land.jpg,76,,,,,,,2,,,3,,,,,,,,86316,1,5,TRUE,,,
travel,107,420245,0.0-36.0-0.0,"""event"",""trial"",""time""
""fullscreenenter"",""1"",""1525""
","
","
","""event"",""trial"",""time""
""fullscreenenter"",""1"",""1525""
","
",,,,,,,,,,,,"[{""stimulus"":""run_exp/static/images/task_images/rocket-01.jpg"",""time"":0.30000000074505806},{""stimulus"":""run_exp/static/images/task_images/rocket-02.jpg"",""time"":1033.699999999255},{""stimulus"":""run_exp/static/images/task_images/rocket-03.jpg"",""time"":2064},{""stimulus"":""run_exp/static/images/task_images/rocket-04.jpg"",""time"":3094},{""stimulus"":""run_exp/static/images/task_images/rocket-05.jpg"",""time"":4126.199999999255},{""stimulus"":""run_exp/static/images/task_images/rocket-06.jpg"",""time"":5157.199999999255},{""stimulus"":""run_exp/static/images/task_images/rocket-07.jpg"",""time"":6188.800000000745},{""stimulus"":""run_exp/static/images/task_images/rocket-08.jpg"",""time"":7219.39999999851},{""stimulus"":""run_exp/static/images/task_images/rocket-09.jpg"",""time"":8249.60000000149}]",[],3,,,,,,,,,,,,,,
alien_welcome,108,425247,0.0-36.0-1.0,"""event"",""trial"",""time""
""fullscreenenter"",""1"",""1525""
","
","
","""event"",""trial"",""time""
""fullscreenenter"",""1"",""1525""
","
",,null,run_exp/static/images/task_images/aliens/old_aliens/planet/alien_planet-15.jpg,null,,,,,,,,,,,,,15,"9,35,12,15,78,56,74,51,72,31,54,49,41,77,66,4,7,50,64,62,21,2,61,33,6,32",,,,,,,,,,
land,109,425750,0.0-36.0-2.0,"""event"",""trial"",""time""
""fullscreenenter"",""1"",""1525""
","
","
","""event"",""trial"",""time""
""fullscreenenter"",""1"",""1525""
","
",,null,run_exp/static/images/task_images/land.jpg,null,,,,,,,105,,,4,,,,,,,,,,,,,,
dig,110,427755,0.0-36.0-3.0,"""event"",""trial"",""time""
""fullscreenenter"",""1"",""1525""
","
","
","""event"",""trial"",""time""
""fullscreenenter"",""1"",""1525""
","
",,,,,,,,,,,,"[{""stimulus"":""run_exp/static/images/task_images/dig.jpg"",""time"":0.19999999925494194},{""stimulus"":""run_exp/static/images/task_images/land.jpg"",""time"":669.6000000014901},{""stimulus"":""run_exp/static/images/task_images/dig.jpg"",""time"":1335.8999999985099}]",[],4,,,,,,,,,,,,,,
harvest,111,428758,0.0-36.0-4.0,"""event"",""trial"",""time""
""fullscreenenter"",""1"",""1525""
","
","
","""event"",""trial"",""time""
""fullscreenenter"",""1"",""1525""
","
",,null,run_exp/static/images/task_images/gems/105.jpg,null,,,,,,,51,,,4,,,,,105,0.490451357,0.485714286,,,,,,,
decision,112,429409,0.0-36.0-5.0,"""event"",""trial"",""time""
""fullscreenenter"",""1"",""1525""
","
","
","""event"",""trial"",""time""
""fullscreenenter"",""1"",""1525""
","
",,649.4,run_exp/static/images/task_images/land.jpg,65,,,,,,,51,,,4,,,,,,,,104765,1,0,FALSE,,,
dig,113,431762,0.0-37.0-0.0,"""event"",""trial"",""time""
""fullscreenenter"",""1"",""1525""
","
","
","""event"",""trial"",""time""
""fullscreenenter"",""1"",""1525""
","
",,,,,,,,,,,,"[{""stimulus"":""run_exp/static/images/task_images/dig.jpg"",""time"":0.19999999925494194},{""stimulus"":""run_exp/static/images/task_images/land.jpg"",""time"":785.3000000007451},{""stimulus"":""run_exp/static/images/task_images/dig.jpg"",""time"":1568.300000000745}]",[],4,,,,,,,,,,,,,,
harvest,114,432766,0.0-37.0-1.0,"""event"",""trial"",""time""
""fullscreenenter"",""1"",""1525""
","
","
","""event"",""trial"",""time""
""fullscreenenter"",""1"",""1525""
","
",,null,run_exp/static/images/task_images/gems/51.jpg,null,,,,,,,24,,,4,,,,,51,0.47676433,0.470588235,,,,,,,
decision,115,434652,0.0-37.0-2.0,"""event"",""trial"",""time""
""fullscreenenter"",""1"",""1525""
","
","
","""event"",""trial"",""time""
""fullscreenenter"",""1"",""1525""
","
",,1885,run_exp/static/images/task_images/land.jpg,65,,,,,,,24,,,4,,,,,,,,110008,1,1,FALSE,,,
dig,116,435770,0.0-38.0-0.0,"""event"",""trial"",""time""
""fullscreenenter"",""1"",""1525""
","
","
","""event"",""trial"",""time""
""fullscreenenter"",""1"",""1525""
","
",,,,,,,,,,,,"[{""stimulus"":""run_exp/static/images/task_images/dig.jpg"",""time"":0.20000000298023224},{""stimulus"":""run_exp/static/images/task_images/land.jpg"",""time"":373.70000000298023},{""stimulus"":""run_exp/static/images/task_images/dig.jpg"",""time"":743.7000000029802}]",[],4,,,,,,,,,,,,,,
harvest,117,436773,0.0-38.0-1.0,"""event"",""trial"",""time""
""fullscreenenter"",""1"",""1525""
","
","
","""event"",""trial"",""time""
""fullscreenenter"",""1"",""1525""
","
",,null,run_exp/static/images/task_images/gems/24.jpg,null,,,,,,,13,,,4,,,,,24,0.531900902,0.541666667,,,,,,,
decision,118,437425,0.0-38.0-2.0,"""event"",""trial"",""time""
""fullscreenenter"",""1"",""1525""
","
","
","""event"",""trial"",""time""
""fullscreenenter"",""1"",""1525""
","
",,650.7,run_exp/static/images/task_images/land.jpg,65,,,,,,,13,,,4,,,,,,,,112781,1,2,FALSE,,,
dig,119,439779,0.0-39.0-0.0,"""event"",""trial"",""time""
""fullscreenenter"",""1"",""1525""
","
","
","""event"",""trial"",""time""
""fullscreenenter"",""1"",""1525""
","
",,,,,,,,,,,,"[{""stimulus"":""run_exp/static/images/task_images/dig.jpg"",""time"":0.19999999925494194},{""stimulus"":""run_exp/static/images/task_images/land.jpg"",""time"":785.3000000007451},{""stimulus"":""run_exp/static/images/task_images/dig.jpg"",""time"":1568.199999999255}]",[],4,,,,,,,,,,,,,,
harvest,120,440782,0.0-39.0-1.0,"""event"",""trial"",""time""
""fullscreenenter"",""1"",""1525""
","
","
","""event"",""trial"",""time""
""fullscreenenter"",""1"",""1525""
","
",,null,run_exp/static/images/task_images/gems/13.jpg,null,,,,,,,7,,,4,,,,,13,0.516288495,0.538461538,,,,,,,
decision,121,442156,0.0-39.0-2.0,"""event"",""trial"",""time""
""fullscreenenter"",""1"",""1525""
","
","
","""event"",""trial"",""time""
""fullscreenenter"",""1"",""1525""
","
",,1374.1,run_exp/static/images/task_images/land.jpg,65,,,,,,,7,,,4,,,,,,,,117512,1,3,FALSE,,,
dig,122,443783,0.0-40.0-0.0,"""event"",""trial"",""time""
""fullscreenenter"",""1"",""1525""
","
","
","""event"",""trial"",""time""
""fullscreenenter"",""1"",""1525""
","
",,,,,,,,,,,,"[{""stimulus"":""run_exp/static/images/task_images/dig.jpg"",""time"":0.19999999925494194},{""stimulus"":""run_exp/static/images/task_images/land.jpg"",""time"":543},{""stimulus"":""run_exp/static/images/task_images/dig.jpg"",""time"":1084.300000000745}]",[],4,,,,,,,,,,,,,,
harvest,123,444785,0.0-40.0-1.0,"""event"",""trial"",""time""
""fullscreenenter"",""1"",""1525""
","
","
","""event"",""trial"",""time""
""fullscreenenter"",""1"",""1525""
","
",,null,run_exp/static/images/task_images/gems/7.jpg,null,,,,,,,3,,,4,,,,,7,0.481429958,0.428571429,,,,,,,
decision,124,446679,0.0-40.0-2.0,"""event"",""trial"",""time""
""fullscreenenter"",""1"",""1525""
","
","
","""event"",""trial"",""time""
""fullscreenenter"",""1"",""1525""
","
",,1892.4,run_exp/static/images/task_images/land.jpg,65,,,,,,,3,,,4,,,,,,,,122036,1,4,FALSE,,,
dig,125,447791,0.0-41.0-0.0,"""event"",""trial"",""time""
""fullscreenenter"",""1"",""1525""
","
","
","""event"",""trial"",""time""
""fullscreenenter"",""1"",""1525""
","
",,,,,,,,,,,,"[{""stimulus"":""run_exp/static/images/task_images/dig.jpg"",""time"":0.30000000074505806},{""stimulus"":""run_exp/static/images/task_images/land.jpg"",""time"":371.5999999977648},{""stimulus"":""run_exp/static/images/task_images/dig.jpg"",""time"":740}]",[],4,,,,,,,,,,,,,,
harvest,126,448794,0.0-41.0-1.0,"""event"",""trial"",""time""
""fullscreenenter"",""1"",""1525""
","
","
","""event"",""trial"",""time""
""fullscreenenter"",""1"",""1525""
","
",,null,run_exp/static/images/task_images/gems/3.jpg,null,,,,,,,1,,,4,,,,,3,0.458173789,0.333333333,,,,,,,
decision,127,448886,0.0-41.0-2.0,"""event"",""trial"",""time""
""fullscreenenter"",""1"",""1525""
","
","
","""event"",""trial"",""time""
""fullscreenenter"",""1"",""1525""
","
",,90.9,run_exp/static/images/task_images/land.jpg,65,,,,,,,1,,,4,,,,,,,,124243,1,5,FALSE,,,
dig,128,451799,0.0-42.0-0.0,"""event"",""trial"",""time""
""fullscreenenter"",""1"",""1525""
","
","
","""event"",""trial"",""time""
""fullscreenenter"",""1"",""1525""
","
",,,,,,,,,,,,"[{""stimulus"":""run_exp/static/images/task_images/dig.jpg"",""time"":0.30000000074505806},{""stimulus"":""run_exp/static/images/task_images/land.jpg"",""time"":970.4000000022352},{""stimulus"":""run_exp/static/images/task_images/dig.jpg"",""time"":1940.199999999255}]",[],4,,,,,,,,,,,,,,
harvest,129,452801,0.0-42.0-1.0,"""event"",""trial"",""time""
""fullscreenenter"",""1"",""1525""
","
","
","""event"",""trial"",""time""
""fullscreenenter"",""1"",""1525""
","
",,null,run_exp/static/images/task_images/gems/1.jpg,null,,,,,,,0,,,4,,,,,1,0.446650452,0,,,,,,,
decision,130,452949,0.0-42.0-2.0,"""event"",""trial"",""time""
""fullscreenenter"",""1"",""1525""
","
","
","""event"",""trial"",""time""
""fullscreenenter"",""1"",""1525""
","
",,146.1,run_exp/static/images/task_images/land.jpg,76,,,,,,,0,,,4,,,,,,,,128305,1,6,TRUE,,,
travel,131,462800,0.0-43.0-0.0,"""event"",""trial"",""time""
""fullscreenenter"",""1"",""1525""
","
","
","""event"",""trial"",""time""
""fullscreenenter"",""1"",""1525""
","
",,,,,,,,,,,,"[{""stimulus"":""run_exp/static/images/task_images/rocket-01.jpg"",""time"":0.09999999776482582},{""stimulus"":""run_exp/static/images/task_images/rocket-02.jpg"",""time"":1095.0999999977648},{""stimulus"":""run_exp/static/images/task_images/rocket-03.jpg"",""time"":2189.599999997765},{""stimulus"":""run_exp/static/images/task_images/rocket-04.jpg"",""time"":3284.099999997765},{""stimulus"":""run_exp/static/images/task_images/rocket-05.jpg"",""time"":4377.89999999851},{""stimulus"":""run_exp/static/images/task_images/rocket-06.jpg"",""time"":5471.599999997765},{""stimulus"":""run_exp/static/images/task_images/rocket-07.jpg"",""time"":6566},{""stimulus"":""run_exp/static/images/task_images/rocket-08.jpg"",""time"":7659.89999999851},{""stimulus"":""run_exp/static/images/task_images/rocket-09.jpg"",""time"":8753.099999997765}]",[],4,,,,,,,,,,,,,,
alien_welcome,132,467802,0.0-43.0-1.0,"""event"",""trial"",""time""
""fullscreenenter"",""1"",""1525""
","
","
","""event"",""trial"",""time""
""fullscreenenter"",""1"",""1525""
","
",,null,run_exp/static/images/task_images/aliens/old_aliens/planet/alien_planet-78.jpg,null,,,,,,,,,,,,,78,"9,35,12,15,78,56,74,51,72,31,54,49,41,77,66,4,7,50,64,62,21,2,61,33,6,32",,,,,,,,,,
land,133,468305,0.0-43.0-2.0,"""event"",""trial"",""time""
""fullscreenenter"",""1"",""1525""
","
","
","""event"",""trial"",""time""
""fullscreenenter"",""1"",""1525""
","
",,null,run_exp/static/images/task_images/land.jpg,null,,,,,,,108,,,5,,,,,,,,,,,,,,
dig,134,470309,0.0-43.0-3.0,"""event"",""trial"",""time""
""fullscreenenter"",""1"",""1525""
","
","
","""event"",""trial"",""time""
""fullscreenenter"",""1"",""1525""
","
",,,,,,,,,,,,"[{""stimulus"":""run_exp/static/images/task_images/dig.jpg"",""time"":0.09999999776482582},{""stimulus"":""run_exp/static/images/task_images/land.jpg"",""time"":669.6999999992549},{""stimulus"":""run_exp/static/images/task_images/dig.jpg"",""time"":1335.3999999985099}]",[],5,,,,,,,,,,,,,,
harvest,135,471311,0.0-43.0-4.0,"""event"",""trial"",""time""
""fullscreenenter"",""1"",""1525""
","
","
","""event"",""trial"",""time""
""fullscreenenter"",""1"",""1525""
","
",,null,run_exp/static/images/task_images/gems/108.jpg,null,,,,,,,58,,,5,,,,,108,0.539559911,0.537037037,,,,,,,
decision,136,471527,0.0-43.0-5.0,"""event"",""trial"",""time""
""fullscreenenter"",""1"",""1525""
","
","
","""event"",""trial"",""time""
""fullscreenenter"",""1"",""1525""
","
",,214.4,run_exp/static/images/task_images/land.jpg,65,,,,,,,58,,,5,,,,,,,,146883,1,0,FALSE,,,
dig,137,474314,0.0-44.0-0.0,"""event"",""trial"",""time""
""fullscreenenter"",""1"",""1525""
","
","
","""event"",""trial"",""time""
""fullscreenenter"",""1"",""1525""
","
",,,,,,,,,,,,"[{""stimulus"":""run_exp/static/images/task_images/dig.jpg"",""time"":0.19999999925494194},{""stimulus"":""run_exp/static/images/task_images/land.jpg"",""time"":930.5},{""stimulus"":""run_exp/static/images/task_images/dig.jpg"",""time"":1858.7999999970198}]",[],5,,,,,,,,,,,,,,
harvest,138,475317,0.0-44.0-1.0,"""event"",""trial"",""time""
""fullscreenenter"",""1"",""1525""
","
","
","""event"",""trial"",""time""
""fullscreenenter"",""1"",""1525""
","
",,null,run_exp/static/images/task_images/gems/58.jpg,null,,,,,,,28,,,5,,,,,58,0.474768054,0.482758621,,,,,,,
decision,139,476806,0.0-44.0-2.0,"""event"",""trial"",""time""
""fullscreenenter"",""1"",""1525""
","
","
","""event"",""trial"",""time""
""fullscreenenter"",""1"",""1525""
","
",,1488.2,run_exp/static/images/task_images/land.jpg,65,,,,,,,28,,,5,,,,,,,,152162,1,1,FALSE,,,
dig,140,478320,0.0-45.0-0.0,"""event"",""trial"",""time""
""fullscreenenter"",""1"",""1525""
","
","
","""event"",""trial"",""time""
""fullscreenenter"",""1"",""1525""
","
",,,,,,,,,,,,"[{""stimulus"":""run_exp/static/images/task_images/dig.jpg"",""time"":0.19999999925494194},{""stimulus"":""run_exp/static/images/task_images/land.jpg"",""time"":505},{""stimulus"":""run_exp/static/images/task_images/dig.jpg"",""time"":1007.5999999977648}]",[],5,,,,,,,,,,,,,,
harvest,141,479323,0.0-45.0-1.0,"""event"",""trial"",""time""
""fullscreenenter"",""1"",""1525""
","
","
","""event"",""trial"",""time""
""fullscreenenter"",""1"",""1525""
","
",,null,run_exp/static/images/task_images/gems/28.jpg,null,,,,,,,11,,,5,,,,,28,0.400961415,0.392857143,,,,,,,
decision,142,480049,0.0-45.0-2.0,"""event"",""trial"",""time""
""fullscreenenter"",""1"",""1525""
","
","
","""event"",""trial"",""time""
""fullscreenenter"",""1"",""1525""
","
",,724.6,run_exp/static/images/task_images/land.jpg,65,,,,,,,11,,,5,,,,,,,,155405,1,2,FALSE,,,
dig,143,482327,0.0-46.0-0.0,"""event"",""trial"",""time""
""fullscreenenter"",""1"",""1525""
","
","
","""event"",""trial"",""time""
""fullscreenenter"",""1"",""1525""
","
",,,,,,,,,,,,"[{""stimulus"":""run_exp/static/images/task_images/dig.jpg"",""time"":0.19999999925494194},{""stimulus"":""run_exp/static/images/task_images/land.jpg"",""time"":759.3999999985099},{""stimulus"":""run_exp/static/images/task_images/dig.jpg"",""time"":1518.699999999255}]",[],5,,,,,,,,,,,,,,
harvest,144,483330,0.0-46.0-1.0,"""event"",""trial"",""time""
""fullscreenenter"",""1"",""1525""
","
","
","""event"",""trial"",""time""
""fullscreenenter"",""1"",""1525""
","
",,null,run_exp/static/images/task_images/gems/11.jpg,null,,,,,,,6,,,5,,,,,11,0.518480164,0.545454545,,,,,,,
decision,145,486001,0.0-46.0-2.0,"""event"",""trial"",""time""
""fullscreenenter"",""1"",""1525""
","
","
","""event"",""trial"",""time""
""fullscreenenter"",""1"",""1525""
","
",,2669.8,run_exp/static/images/task_images/land.jpg,65,,,,,,,6,,,5,,,,,,,,161357,1,3,FALSE,,,
dig,146,486336,0.0-47.0-0.0,"""event"",""trial"",""time""
""fullscreenenter"",""1"",""1525""
","
","
","""event"",""trial"",""time""
""fullscreenenter"",""1"",""1525""
","
",,,,,,,,,,,,"[{""stimulus"":""run_exp/static/images/task_images/dig.jpg"",""time"":0.19999999925494194},{""stimulus"":""run_exp/static/images/task_images/land.jpg"",""time"":112.09999999776483},{""stimulus"":""run_exp/static/images/task_images/dig.jpg"",""time"":222.5}]",[],5,,,,,,,,,,,,,,
harvest,147,487338,0.0-47.0-1.0,"""event"",""trial"",""time""
""fullscreenenter"",""1"",""1525""
","
","
","""event"",""trial"",""time""
""fullscreenenter"",""1"",""1525""
","
",,null,run_exp/static/images/task_images/gems/6.jpg,null,,,,,,,3,,,5,,,,,6,0.510173445,0.5,,,,,,,
decision,148,488030,0.0-47.0-2.0,"""event"",""trial"",""time""
""fullscreenenter"",""1"",""1525""
","
","
","""event"",""trial"",""time""
""fullscreenenter"",""1"",""1525""
","
",,690.5,run_exp/static/images/task_images/land.jpg,65,,,,,,,3,,,5,,,,,,,,163386,1,4,FALSE,,,
dig,149,490341,0.0-48.0-0.0,"""event"",""trial"",""time""
""fullscreenenter"",""1"",""1525""
","
","
","""event"",""trial"",""time""
""fullscreenenter"",""1"",""1525""
","
",,,,,,,,,,,,"[{""stimulus"":""run_exp/static/images/task_images/dig.jpg"",""time"":0.10000000149011612},{""stimulus"":""run_exp/static/images/task_images/land.jpg"",""time"":770.3000000007451},{""stimulus"":""run_exp/static/images/task_images/dig.jpg"",""time"":1539.800000000745}]",[],5,,,,,,,,,,,,,,
harvest,150,491343,0.0-48.0-1.0,"""event"",""trial"",""time""
""fullscreenenter"",""1"",""1525""
","
","
","""event"",""trial"",""time""
""fullscreenenter"",""1"",""1525""
","
",,null,run_exp/static/images/task_images/gems/3.jpg,null,,,,,,,1,,,5,,,,,3,0.46075988,0.333333333,,,,,,,
decision,151,493514,0.0-48.0-2.0,"""event"",""trial"",""time""
""fullscreenenter"",""1"",""1525""
","
","
","""event"",""trial"",""time""
""fullscreenenter"",""1"",""1525""
","
",,2170,run_exp/static/images/task_images/land.jpg,65,,,,,,,1,,,5,,,,,,,,168870,1,5,FALSE,,,
dig,152,494346,0.0-49.0-0.0,"""event"",""trial"",""time""
""fullscreenenter"",""1"",""1525""
","
","
","""event"",""trial"",""time""
""fullscreenenter"",""1"",""1525""
","
",,,,,,,,,,,,"[{""stimulus"":""run_exp/static/images/task_images/dig.jpg"",""time"":0.19999999925494194},{""stimulus"":""run_exp/static/images/task_images/land.jpg"",""time"":278.6000000014901},{""stimulus"":""run_exp/static/images/task_images/dig.jpg"",""time"":554.4000000022352}]",[],5,,,,,,,,,,,,,,
harvest,153,495349,0.0-49.0-1.0,"""event"",""trial"",""time""
""fullscreenenter"",""1"",""1525""
","
","
","""event"",""trial"",""time""
""fullscreenenter"",""1"",""1525""
","
",,null,run_exp/static/images/task_images/gems/1.jpg,null,,,,,,,1,,,5,,,,,1,0.529332982,1,,,,,,,
decision,154,495728,0.0-49.0-2.0,"""event"",""trial"",""time""
""fullscreenenter"",""1"",""1525""
""blur"",""155"",""504107""
","""event"",""trial"",""time""
""blur"",""155"",""504107""
","
","""event"",""trial"",""time""
""fullscreenenter"",""1"",""1525""
","
",,376.9,run_exp/static/images/task_images/land.jpg,76,,,,,,,1,,,5,,,,,,,,171084,1,6,TRUE,,,
travel,155,505352,0.0-50.0-0.0,"""event"",""trial"",""time""
""fullscreenenter"",""1"",""1525""
""blur"",""155"",""504107""
","""event"",""trial"",""time""
""blur"",""155"",""504107""
","
","""event"",""trial"",""time""
""fullscreenenter"",""1"",""1525""
","
",,,,,,,,,,,,"[{""stimulus"":""run_exp/static/images/task_images/rocket-01.jpg"",""time"":0.19999999925494194},{""stimulus"":""run_exp/static/images/task_images/rocket-02.jpg"",""time"":1070.800000000745},{""stimulus"":""run_exp/static/images/task_images/rocket-03.jpg"",""time"":2140.10000000149},{""stimulus"":""run_exp/static/images/task_images/rocket-04.jpg"",""time"":3208.89999999851},{""stimulus"":""run_exp/static/images/task_images/rocket-05.jpg"",""time"":4278.300000000745},{""stimulus"":""run_exp/static/images/task_images/rocket-06.jpg"",""time"":5347.699999999255},{""stimulus"":""run_exp/static/images/task_images/rocket-07.jpg"",""time"":6415.699999999255},{""stimulus"":""run_exp/static/images/task_images/rocket-08.jpg"",""time"":7484.60000000149},{""stimulus"":""run_exp/static/images/task_images/rocket-09.jpg"",""time"":8554.5}]",[],5,,,,,,,,,,,,,,
alien_welcome,156,510353,0.0-50.0-1.0,"""event"",""trial"",""time""
""fullscreenenter"",""1"",""1525""
""blur"",""155"",""504107""
","""event"",""trial"",""time""
""blur"",""155"",""504107""
","
","""event"",""trial"",""time""
""fullscreenenter"",""1"",""1525""
","
",,null,run_exp/static/images/task_images/aliens/old_aliens/planet/alien_planet-56.jpg,null,,,,,,,,,,,,,56,"9,35,12,15,78,56,74,51,72,31,54,49,41,77,66,4,7,50,64,62,21,2,61,33,6,32",,,,,,,,,,
land,157,510854,0.0-50.0-2.0,"""event"",""trial"",""time""
""fullscreenenter"",""1"",""1525""
""blur"",""155"",""504107""
","""event"",""trial"",""time""
""blur"",""155"",""504107""
","
","""event"",""trial"",""time""
""fullscreenenter"",""1"",""1525""
","
",,null,run_exp/static/images/task_images/land.jpg,null,,,,,,,98,,,6,,,,,,,,,,,,,,
dig,158,512857,0.0-50.0-3.0,"""event"",""trial"",""time""
""fullscreenenter"",""1"",""1525""
""blur"",""155"",""504107""
","""event"",""trial"",""time""
""blur"",""155"",""504107""
","
","""event"",""trial"",""time""
""fullscreenenter"",""1"",""1525""
","
",,,,,,,,,,,,"[{""stimulus"":""run_exp/static/images/task_images/dig.jpg"",""time"":0.19999999925494194},{""stimulus"":""run_exp/static/images/task_images/land.jpg"",""time"":668.6999999992549},{""stimulus"":""run_exp/static/images/task_images/dig.jpg"",""time"":1335}]",[],6,,,,,,,,,,,,,,
harvest,159,513859,0.0-50.0-4.0,"""event"",""trial"",""time""
""fullscreenenter"",""1"",""1525""
""blur"",""155"",""504107""
","""event"",""trial"",""time""
""blur"",""155"",""504107""
","
","""event"",""trial"",""time""
""fullscreenenter"",""1"",""1525""
","
",,null,run_exp/static/images/task_images/gems/98.jpg,null,,,,,,,85,,,6,,,,,98,0.86256701,0.867346939,,,,,,,
decision,160,516861,0.0-50.0-5.0,"""event"",""trial"",""time""
""fullscreenenter"",""1"",""1525""
""blur"",""155"",""504107""
","""event"",""trial"",""time""
""blur"",""155"",""504107""
","
","""event"",""trial"",""time""
""fullscreenenter"",""1"",""1525""
","
",,null,run_exp/static/images/task_images/land.jpg,null,,,,,,,85,,,6,,,,,,,,192217,1,0,FALSE,,,
time_out,161,518863,0.0-51.0-0.0,"""event"",""trial"",""time""
""fullscreenenter"",""1"",""1525""
""blur"",""155"",""504107""
""focus"",""162"",""521309""
","""event"",""trial"",""time""
""blur"",""155"",""504107""
","""event"",""trial"",""time""
""focus"",""162"",""521309""
","""event"",""trial"",""time""
""fullscreenenter"",""1"",""1525""
","
",,null,run_exp/static/images/task_images/time_out.jpg,null,,,,,,,85,,,,,,,,,,,,,,,,,
decision,162,521485,0.0-51.0-1.0,"""event"",""trial"",""time""
""fullscreenenter"",""1"",""1525""
""blur"",""155"",""504107""
""focus"",""162"",""521309""
","""event"",""trial"",""time""
""blur"",""155"",""504107""
","""event"",""trial"",""time""
""focus"",""162"",""521309""
","""event"",""trial"",""time""
""fullscreenenter"",""1"",""1525""
","
",,2620.8,run_exp/static/images/task_images/land.jpg,65,,,,,,,85,,,6,,,,,,,,196841,1,0,FALSE,,,
dig,163,521865,0.0-52.0-0.0,"""event"",""trial"",""time""
""fullscreenenter"",""1"",""1525""
""blur"",""155"",""504107""
""focus"",""162"",""521309""
","""event"",""trial"",""time""
""blur"",""155"",""504107""
","""event"",""trial"",""time""
""focus"",""162"",""521309""
","""event"",""trial"",""time""
""fullscreenenter"",""1"",""1525""
","
",,,,,,,,,,,,"[{""stimulus"":""run_exp/static/images/task_images/dig.jpg"",""time"":0.19999999925494194},{""stimulus"":""run_exp/static/images/task_images/land.jpg"",""time"":127.29999999701977},{""stimulus"":""run_exp/static/images/task_images/dig.jpg"",""time"":253.69999999925494}]",[],6,,,,,,,,,,,,,,
harvest,164,522866,0.0-52.0-1.0,"""event"",""trial"",""time""
""fullscreenenter"",""1"",""1525""
""blur"",""155"",""504107""
""focus"",""162"",""521309""
","""event"",""trial"",""time""
""blur"",""155"",""504107""
","""event"",""trial"",""time""
""focus"",""162"",""521309""
","""event"",""trial"",""time""
""fullscreenenter"",""1"",""1525""
","
",,null,run_exp/static/images/task_images/gems/85.jpg,null,,,,,,,69,,,6,,,,,85,0.811174272,0.811764706,,,,,,,
decision,165,523050,0.0-52.0-2.0,"""event"",""trial"",""time""
""fullscreenenter"",""1"",""1525""
""blur"",""155"",""504107""
""focus"",""162"",""521309""
","""event"",""trial"",""time""
""blur"",""155"",""504107""
","""event"",""trial"",""time""
""focus"",""162"",""521309""
","""event"",""trial"",""time""
""fullscreenenter"",""1"",""1525""
","
",,181.6,run_exp/static/images/task_images/land.jpg,65,,,,,,,69,,,6,,,,,,,,198406,1,1,FALSE,,,
dig,166,525870,0.0-53.0-0.0,"""event"",""trial"",""time""
""fullscreenenter"",""1"",""1525""
""blur"",""155"",""504107""
""focus"",""162"",""521309""
""blur"",""167"",""526413""
","""event"",""trial"",""time""
""blur"",""155"",""504107""
""blur"",""167"",""526413""
","""event"",""trial"",""time""
""focus"",""162"",""521309""
","""event"",""trial"",""time""
""fullscreenenter"",""1"",""1525""
","
",,,,,,,,,,,,"[{""stimulus"":""run_exp/static/images/task_images/dig.jpg"",""time"":0.09999999776482582},{""stimulus"":""run_exp/static/images/task_images/land.jpg"",""time"":939.8000000007451},{""stimulus"":""run_exp/static/images/task_images/dig.jpg"",""time"":1879.5999999977648}]",[],6,,,,,,,,,,,,,,
harvest,167,526873,0.0-53.0-1.0,"""event"",""trial"",""time""
""fullscreenenter"",""1"",""1525""
""blur"",""155"",""504107""
""focus"",""162"",""521309""
""blur"",""167"",""526413""
""focus"",""168"",""528381""
","""event"",""trial"",""time""
""blur"",""155"",""504107""
""blur"",""167"",""526413""
","""event"",""trial"",""time""
""focus"",""162"",""521309""
""focus"",""168"",""528381""
","""event"",""trial"",""time""
""fullscreenenter"",""1"",""1525""
","
",,null,run_exp/static/images/task_images/gems/69.jpg,null,,,,,,,55,,,6,,,,,69,0.793368194,0.797101449,,,,,,,
decision,168,528645,0.0-53.0-2.0,"""event"",""trial"",""time""
""fullscreenenter"",""1"",""1525""
""blur"",""155"",""504107""
""focus"",""162"",""521309""
""blur"",""167"",""526413""
""focus"",""168"",""528381""
","""event"",""trial"",""time""
""blur"",""155"",""504107""
""blur"",""167"",""526413""
","""event"",""trial"",""time""
""focus"",""162"",""521309""
""focus"",""168"",""528381""
","""event"",""trial"",""time""
""fullscreenenter"",""1"",""1525""
","
",,1771.5,run_exp/static/images/task_images/land.jpg,65,,,,,,,55,,,6,,,,,,,,204001,1,2,FALSE,,,
dig,169,529876,0.0-54.0-0.0,"""event"",""trial"",""time""
""fullscreenenter"",""1"",""1525""
""blur"",""155"",""504107""
""focus"",""162"",""521309""
""blur"",""167"",""526413""
""focus"",""168"",""528381""
","""event"",""trial"",""time""
""blur"",""155"",""504107""
""blur"",""167"",""526413""
","""event"",""trial"",""time""
""focus"",""162"",""521309""
""focus"",""168"",""528381""
","""event"",""trial"",""time""
""fullscreenenter"",""1"",""1525""
","
",,,,,,,,,,,,"[{""stimulus"":""run_exp/static/images/task_images/dig.jpg"",""time"":0.19999999925494194},{""stimulus"":""run_exp/static/images/task_images/land.jpg"",""time"":410.0999999977648},{""stimulus"":""run_exp/static/images/task_images/dig.jpg"",""time"":820.0999999977648}]",[],6,,,,,,,,,,,,,,
harvest,170,530877,0.0-54.0-1.0,"""event"",""trial"",""time""
""fullscreenenter"",""1"",""1525""
""blur"",""155"",""504107""
""focus"",""162"",""521309""
""blur"",""167"",""526413""
""focus"",""168"",""528381""
","""event"",""trial"",""time""
""blur"",""155"",""504107""
""blur"",""167"",""526413""
","""event"",""trial"",""time""
""focus"",""162"",""521309""
""focus"",""168"",""528381""
","""event"",""trial"",""time""
""fullscreenenter"",""1"",""1525""
","
",,null,run_exp/static/images/task_images/gems/55.jpg,null,,,,,,,43,,,6,,,,,55,0.779879586,0.781818182,,,,,,,
decision,171,531528,0.0-54.0-2.0,"""event"",""trial"",""time""
""fullscreenenter"",""1"",""1525""
""blur"",""155"",""504107""
""focus"",""162"",""521309""
""blur"",""167"",""526413""
""focus"",""168"",""528381""
","""event"",""trial"",""time""
""blur"",""155"",""504107""
""blur"",""167"",""526413""
","""event"",""trial"",""time""
""focus"",""162"",""521309""
""focus"",""168"",""528381""
","""event"",""trial"",""time""
""fullscreenenter"",""1"",""1525""
","
",,649.3,run_exp/static/images/task_images/land.jpg,65,,,,,,,43,,,6,,,,,,,,206884,1,3,FALSE,,,
dig,172,533882,0.0-55.0-0.0,"""event"",""trial"",""time""
""fullscreenenter"",""1"",""1525""
""blur"",""155"",""504107""
""focus"",""162"",""521309""
""blur"",""167"",""526413""
""focus"",""168"",""528381""
","""event"",""trial"",""time""
""blur"",""155"",""504107""
""blur"",""167"",""526413""
","""event"",""trial"",""time""
""focus"",""162"",""521309""
""focus"",""168"",""528381""
","""event"",""trial"",""time""
""fullscreenenter"",""1"",""1525""
","
",,,,,,,,,,,,"[{""stimulus"":""run_exp/static/images/task_images/dig.jpg"",""time"":0.19999999925494194},{""stimulus"":""run_exp/static/images/task_images/land.jpg"",""time"":785},{""stimulus"":""run_exp/static/images/task_images/dig.jpg"",""time"":1567}]",[],6,,,,,,,,,,,,,,
harvest,173,534884,0.0-55.0-1.0,"""event"",""trial"",""time""
""fullscreenenter"",""1"",""1525""
""blur"",""155"",""504107""
""focus"",""162"",""521309""
""blur"",""167"",""526413""
""focus"",""168"",""528381""
","""event"",""trial"",""time""
""blur"",""155"",""504107""
""blur"",""167"",""526413""
","""event"",""trial"",""time""
""focus"",""162"",""521309""
""focus"",""168"",""528381""
","""event"",""trial"",""time""
""fullscreenenter"",""1"",""1525""
","
",,null,run_exp/static/images/task_images/gems/43.jpg,null,,,,,,,34,,,6,,,,,43,0.785480553,0.790697674,,,,,,,
decision,174,535238,0.0-55.0-2.0,"""event"",""trial"",""time""
""fullscreenenter"",""1"",""1525""
""blur"",""155"",""504107""
""focus"",""162"",""521309""
""blur"",""167"",""526413""
""focus"",""168"",""528381""
","""event"",""trial"",""time""
""blur"",""155"",""504107""
""blur"",""167"",""526413""
","""event"",""trial"",""time""
""focus"",""162"",""521309""
""focus"",""168"",""528381""
","""event"",""trial"",""time""
""fullscreenenter"",""1"",""1525""
","
",,353.3,run_exp/static/images/task_images/land.jpg,65,,,,,,,34,,,6,,,,,,,,210594,1,4,FALSE,,,
dig,175,537888,0.0-56.0-0.0,"""event"",""trial"",""time""
""fullscreenenter"",""1"",""1525""
""blur"",""155"",""504107""
""focus"",""162"",""521309""
""blur"",""167"",""526413""
""focus"",""168"",""528381""
","""event"",""trial"",""time""
""blur"",""155"",""504107""
""blur"",""167"",""526413""
","""event"",""trial"",""time""
""focus"",""162"",""521309""
""focus"",""168"",""528381""
","""event"",""trial"",""time""
""fullscreenenter"",""1"",""1525""
","
",,,,,,,,,,,,"[{""stimulus"":""run_exp/static/images/task_images/dig.jpg"",""time"":0.19999999925494194},{""stimulus"":""run_exp/static/images/task_images/land.jpg"",""time"":883.4000000022352},{""stimulus"":""run_exp/static/images/task_images/dig.jpg"",""time"":1765.1000000014901}]",[],6,,,,,,,,,,,,,,
harvest,176,538889,0.0-56.0-1.0,"""event"",""trial"",""time""
""fullscreenenter"",""1"",""1525""
""blur"",""155"",""504107""
""focus"",""162"",""521309""
""blur"",""167"",""526413""
""focus"",""168"",""528381""
","""event"",""trial"",""time""
""blur"",""155"",""504107""
""blur"",""167"",""526413""
","""event"",""trial"",""time""
""focus"",""162"",""521309""
""focus"",""168"",""528381""
","""event"",""trial"",""time""
""fullscreenenter"",""1"",""1525""
","
",,null,run_exp/static/images/task_images/gems/34.jpg,null,,,,,,,29,,,6,,,,,34,0.863602879,0.852941176,,,,,,,
decision,177,540082,0.0-56.0-2.0,"""event"",""trial"",""time""
""fullscreenenter"",""1"",""1525""
""blur"",""155"",""504107""
""focus"",""162"",""521309""
""blur"",""167"",""526413""
""focus"",""168"",""528381""
","""event"",""trial"",""time""
""blur"",""155"",""504107""
""blur"",""167"",""526413""
","""event"",""trial"",""time""
""focus"",""162"",""521309""
""focus"",""168"",""528381""
","""event"",""trial"",""time""
""fullscreenenter"",""1"",""1525""
","
",,1191.8,run_exp/static/images/task_images/land.jpg,65,,,,,,,29,,,6,,,,,,,,215438,1,5,FALSE,,,
dig,178,541891,0.0-57.0-0.0,"""event"",""trial"",""time""
""fullscreenenter"",""1"",""1525""
""blur"",""155"",""504107""
""focus"",""162"",""521309""
""blur"",""167"",""526413""
""focus"",""168"",""528381""
","""event"",""trial"",""time""
""blur"",""155"",""504107""
""blur"",""167"",""526413""
","""event"",""trial"",""time""
""focus"",""162"",""521309""
""focus"",""168"",""528381""
","""event"",""trial"",""time""
""fullscreenenter"",""1"",""1525""
","
",,,,,,,,,,,,"[{""stimulus"":""run_exp/static/images/task_images/dig.jpg"",""time"":0},{""stimulus"":""run_exp/static/images/task_images/land.jpg"",""time"":603.5999999977648},{""stimulus"":""run_exp/static/images/task_images/dig.jpg"",""time"":1204.7999999970198}]",[],6,,,,,,,,,,,,,,
harvest,179,542893,0.0-57.0-1.0,"""event"",""trial"",""time""
""fullscreenenter"",""1"",""1525""
""blur"",""155"",""504107""
""focus"",""162"",""521309""
""blur"",""167"",""526413""
""focus"",""168"",""528381""
","""event"",""trial"",""time""
""blur"",""155"",""504107""
""blur"",""167"",""526413""
","""event"",""trial"",""time""
""focus"",""162"",""521309""
""focus"",""168"",""528381""
","""event"",""trial"",""time""
""fullscreenenter"",""1"",""1525""
","
",,null,run_exp/static/images/task_images/gems/29.jpg,null,,,,,,,21,,,6,,,,,29,0.738365837,0.724137931,,,,,,,
decision,180,542971,0.0-57.0-2.0,"""event"",""trial"",""time""
""fullscreenenter"",""1"",""1525""
""blur"",""155"",""504107""
""focus"",""162"",""521309""
""blur"",""167"",""526413""
""focus"",""168"",""528381""
","""event"",""trial"",""time""
""blur"",""155"",""504107""
""blur"",""167"",""526413""
","""event"",""trial"",""time""
""focus"",""162"",""521309""
""focus"",""168"",""528381""
","""event"",""trial"",""time""
""fullscreenenter"",""1"",""1525""
","
",,77.7,run_exp/static/images/task_images/land.jpg,65,,,,,,,21,,,6,,,,,,,,218327,1,6,FALSE,,,
dig,181,545897,0.0-58.0-0.0,"""event"",""trial"",""time""
""fullscreenenter"",""1"",""1525""
""blur"",""155"",""504107""
""focus"",""162"",""521309""
""blur"",""167"",""526413""
""focus"",""168"",""528381""
","""event"",""trial"",""time""
""blur"",""155"",""504107""
""blur"",""167"",""526413""
","""event"",""trial"",""time""
""focus"",""162"",""521309""
""focus"",""168"",""528381""
","""event"",""trial"",""time""
""fullscreenenter"",""1"",""1525""
","
",,,,,,,,,,,,"[{""stimulus"":""run_exp/static/images/task_images/dig.jpg"",""time"":0.3999999985098839},{""stimulus"":""run_exp/static/images/task_images/land.jpg"",""time"":975.8999999985099},{""stimulus"":""run_exp/static/images/task_images/dig.jpg"",""time"":1949.699999999255}]",[],6,,,,,,,,,,,,,,
harvest,182,546899,0.0-58.0-1.0,"""event"",""trial"",""time""
""fullscreenenter"",""1"",""1525""
""blur"",""155"",""504107""
""focus"",""162"",""521309""
""blur"",""167"",""526413""
""focus"",""168"",""528381""
","""event"",""trial"",""time""
""blur"",""155"",""504107""
""blur"",""167"",""526413""
","""event"",""trial"",""time""
""focus"",""162"",""521309""
""focus"",""168"",""528381""
","""event"",""trial"",""time""
""fullscreenenter"",""1"",""1525""
","
",,null,run_exp/static/images/task_images/gems/21.jpg,null,,,,,,,16,,,6,,,,,21,0.779665182,0.761904762,,,,,,,
decision,183,548374,0.0-58.0-2.0,"""event"",""trial"",""time""
""fullscreenenter"",""1"",""1525""
""blur"",""155"",""504107""
""focus"",""162"",""521309""
""blur"",""167"",""526413""
""focus"",""168"",""528381""
","""event"",""trial"",""time""
""blur"",""155"",""504107""
""blur"",""167"",""526413""
","""event"",""trial"",""time""
""focus"",""162"",""521309""
""focus"",""168"",""528381""
","""event"",""trial"",""time""
""fullscreenenter"",""1"",""1525""
","
",,1474.1,run_exp/static/images/task_images/land.jpg,65,,,,,,,16,,,6,,,,,,,,223730,1,7,FALSE,,,
dig,184,549902,0.0-59.0-0.0,"""event"",""trial"",""time""
""fullscreenenter"",""1"",""1525""
""blur"",""155"",""504107""
""focus"",""162"",""521309""
""blur"",""167"",""526413""
""focus"",""168"",""528381""
","""event"",""trial"",""time""
""blur"",""155"",""504107""
""blur"",""167"",""526413""
","""event"",""trial"",""time""
""focus"",""162"",""521309""
""focus"",""168"",""528381""
","""event"",""trial"",""time""
""fullscreenenter"",""1"",""1525""
","
",,,,,,,,,,,,"[{""stimulus"":""run_exp/static/images/task_images/dig.jpg"",""time"":0.19999999925494194},{""stimulus"":""run_exp/static/images/task_images/land.jpg"",""time"":509.5},{""stimulus"":""run_exp/static/images/task_images/dig.jpg"",""time"":1016.9000000022352}]",[],6,,,,,,,,,,,,,,
harvest,185,550904,0.0-59.0-1.0,"""event"",""trial"",""time""
""fullscreenenter"",""1"",""1525""
""blur"",""155"",""504107""
""focus"",""162"",""521309""
""blur"",""167"",""526413""
""focus"",""168"",""528381""
","""event"",""trial"",""time""
""blur"",""155"",""504107""
""blur"",""167"",""526413""
","""event"",""trial"",""time""
""focus"",""162"",""521309""
""focus"",""168"",""528381""
","""event"",""trial"",""time""
""fullscreenenter"",""1"",""1525""
","
",,null,run_exp/static/images/task_images/gems/16.jpg,null,,,,,,,13,,,6,,,,,16,0.819969106,0.8125,,,,,,,
decision,186,551709,0.0-59.0-2.0,"""event"",""trial"",""time""
""fullscreenenter"",""1"",""1525""
""blur"",""155"",""504107""
""focus"",""162"",""521309""
""blur"",""167"",""526413""
""focus"",""168"",""528381""
","""event"",""trial"",""time""
""blur"",""155"",""504107""
""blur"",""167"",""526413""
","""event"",""trial"",""time""
""focus"",""162"",""521309""
""focus"",""168"",""528381""
","""event"",""trial"",""time""
""fullscreenenter"",""1"",""1525""
","
",,803.1,run_exp/static/images/task_images/land.jpg,65,,,,,,,13,,,6,,,,,,,,227065,1,8,FALSE,,,
dig,187,553909,0.0-60.0-0.0,"""event"",""trial"",""time""
""fullscreenenter"",""1"",""1525""
""blur"",""155"",""504107""
""focus"",""162"",""521309""
""blur"",""167"",""526413""
""focus"",""168"",""528381""
","""event"",""trial"",""time""
""blur"",""155"",""504107""
""blur"",""167"",""526413""
","""event"",""trial"",""time""
""focus"",""162"",""521309""
""focus"",""168"",""528381""
","""event"",""trial"",""time""
""fullscreenenter"",""1"",""1525""
","
",,,,,,,,,,,,"[{""stimulus"":""run_exp/static/images/task_images/dig.jpg"",""time"":0.19999999925494194},{""stimulus"":""run_exp/static/images/task_images/land.jpg"",""time"":733},{""stimulus"":""run_exp/static/images/task_images/dig.jpg"",""time"":1466.1000000014901}]",[],6,,,,,,,,,,,,,,
harvest,188,554910,0.0-60.0-1.0,"""event"",""trial"",""time""
""fullscreenenter"",""1"",""1525""
""blur"",""155"",""504107""
""focus"",""162"",""521309""
""blur"",""167"",""526413""
""focus"",""168"",""528381""
","""event"",""trial"",""time""
""blur"",""155"",""504107""
""blur"",""167"",""526413""
","""event"",""trial"",""time""
""focus"",""162"",""521309""
""focus"",""168"",""528381""
","""event"",""trial"",""time""
""fullscreenenter"",""1"",""1525""
","
",,null,run_exp/static/images/task_images/gems/13.jpg,null,,,,,,,10,,,6,,,,,13,0.737261024,0.769230769,,,,,,,
decision,189,556012,0.0-60.0-2.0,"""event"",""trial"",""time""
""fullscreenenter"",""1"",""1525""
""blur"",""155"",""504107""
""focus"",""162"",""521309""
""blur"",""167"",""526413""
""focus"",""168"",""528381""
","""event"",""trial"",""time""
""blur"",""155"",""504107""
""blur"",""167"",""526413""
","""event"",""trial"",""time""
""focus"",""162"",""521309""
""focus"",""168"",""528381""
","""event"",""trial"",""time""
""fullscreenenter"",""1"",""1525""
","
",,1101,run_exp/static/images/task_images/land.jpg,65,,,,,,,10,,,6,,,,,,,,231368,1,9,FALSE,,,
dig,190,557916,0.0-61.0-0.0,"""event"",""trial"",""time""
""fullscreenenter"",""1"",""1525""
""blur"",""155"",""504107""
""focus"",""162"",""521309""
""blur"",""167"",""526413""
""focus"",""168"",""528381""
","""event"",""trial"",""time""
""blur"",""155"",""504107""
""blur"",""167"",""526413""
","""event"",""trial"",""time""
""focus"",""162"",""521309""
""focus"",""168"",""528381""
","""event"",""trial"",""time""
""fullscreenenter"",""1"",""1525""
","
",,,,,,,,,,,,"[{""stimulus"":""run_exp/static/images/task_images/dig.jpg"",""time"":0.20000000298023224},{""stimulus"":""run_exp/static/images/task_images/land.jpg"",""time"":635.2000000029802},{""stimulus"":""run_exp/static/images/task_images/dig.jpg"",""time"":1267}]",[],6,,,,,,,,,,,,,,
harvest,191,558917,0.0-61.0-1.0,"""event"",""trial"",""time""
""fullscreenenter"",""1"",""1525""
""blur"",""155"",""504107""
""focus"",""162"",""521309""
""blur"",""167"",""526413""
""focus"",""168"",""528381""
","""event"",""trial"",""time""
""blur"",""155"",""504107""
""blur"",""167"",""526413""
","""event"",""trial"",""time""
""focus"",""162"",""521309""
""focus"",""168"",""528381""
","""event"",""trial"",""time""
""fullscreenenter"",""1"",""1525""
","
",,null,run_exp/static/images/task_images/gems/10.jpg,null,,,,,,,7,,,6,,,,,10,0.744202402,0.7,,,,,,,
decision,192,560349,0.0-61.0-2.0,"""event"",""trial"",""time""
""fullscreenenter"",""1"",""1525""
""blur"",""155"",""504107""
""focus"",""162"",""521309""
""blur"",""167"",""526413""
""focus"",""168"",""528381""
","""event"",""trial"",""time""
""blur"",""155"",""504107""
""blur"",""167"",""526413""
","""event"",""trial"",""time""
""focus"",""162"",""521309""
""focus"",""168"",""528381""
","""event"",""trial"",""time""
""fullscreenenter"",""1"",""1525""
","
",,1432.1,run_exp/static/images/task_images/land.jpg,65,,,,,,,7,,,6,,,,,,,,235706,1,10,FALSE,,,
dig,193,561920,0.0-62.0-0.0,"""event"",""trial"",""time""
""fullscreenenter"",""1"",""1525""
""blur"",""155"",""504107""
""focus"",""162"",""521309""
""blur"",""167"",""526413""
""focus"",""168"",""528381""
","""event"",""trial"",""time""
""blur"",""155"",""504107""
""blur"",""167"",""526413""
","""event"",""trial"",""time""
""focus"",""162"",""521309""
""focus"",""168"",""528381""
","""event"",""trial"",""time""
""fullscreenenter"",""1"",""1525""
","
",,,,,,,,,,,,"[{""stimulus"":""run_exp/static/images/task_images/dig.jpg"",""time"":0.19999999925494194},{""stimulus"":""run_exp/static/images/task_images/land.jpg"",""time"":523.8999999985099},{""stimulus"":""run_exp/static/images/task_images/dig.jpg"",""time"":1045.300000000745}]",[],6,,,,,,,,,,,,,,
harvest,194,562921,0.0-62.0-1.0,"""event"",""trial"",""time""
""fullscreenenter"",""1"",""1525""
""blur"",""155"",""504107""
""focus"",""162"",""521309""
""blur"",""167"",""526413""
""focus"",""168"",""528381""
","""event"",""trial"",""time""
""blur"",""155"",""504107""
""blur"",""167"",""526413""
","""event"",""trial"",""time""
""focus"",""162"",""521309""
""focus"",""168"",""528381""
","""event"",""trial"",""time""
""fullscreenenter"",""1"",""1525""
","
",,null,run_exp/static/images/task_images/gems/7.jpg,null,,,,,,,6,,,6,,,,,7,0.790194845,0.857142857,,,,,,,
decision,195,563252,0.0-62.0-2.0,"""event"",""trial"",""time""
""fullscreenenter"",""1"",""1525""
""blur"",""155"",""504107""
""focus"",""162"",""521309""
""blur"",""167"",""526413""
""focus"",""168"",""528381""
","""event"",""trial"",""time""
""blur"",""155"",""504107""
""blur"",""167"",""526413""
","""event"",""trial"",""time""
""focus"",""162"",""521309""
""focus"",""168"",""528381""
","""event"",""trial"",""time""
""fullscreenenter"",""1"",""1525""
","
",,329.5,run_exp/static/images/task_images/land.jpg,65,,,,,,,6,,,6,,,,,,,,238608,1,11,FALSE,,,
dig,196,565926,0.0-63.0-0.0,"""event"",""trial"",""time""
""fullscreenenter"",""1"",""1525""
""blur"",""155"",""504107""
""focus"",""162"",""521309""
""blur"",""167"",""526413""
""focus"",""168"",""528381""
","""event"",""trial"",""time""
""blur"",""155"",""504107""
""blur"",""167"",""526413""
","""event"",""trial"",""time""
""focus"",""162"",""521309""
""focus"",""168"",""528381""
","""event"",""trial"",""time""
""fullscreenenter"",""1"",""1525""
","
",,,,,,,,,,,,"[{""stimulus"":""run_exp/static/images/task_images/dig.jpg"",""time"":0.19999999925494194},{""stimulus"":""run_exp/static/images/task_images/land.jpg"",""time"":891.3999999985099},{""stimulus"":""run_exp/static/images/task_images/dig.jpg"",""time"":1781.699999999255}]",[],6,,,,,,,,,,,,,,
harvest,197,566928,0.0-63.0-1.0,"""event"",""trial"",""time""
""fullscreenenter"",""1"",""1525""
""blur"",""155"",""504107""
""focus"",""162"",""521309""
""blur"",""167"",""526413""
""focus"",""168"",""528381""
","""event"",""trial"",""time""
""blur"",""155"",""504107""
""blur"",""167"",""526413""
","""event"",""trial"",""time""
""focus"",""162"",""521309""
""focus"",""168"",""528381""
","""event"",""trial"",""time""
""fullscreenenter"",""1"",""1525""
","
",,null,run_exp/static/images/task_images/gems/6.jpg,null,,,,,,,4,,,6,,,,,6,0.723883705,0.666666667,,,,,,,
decision,198,568445,0.0-63.0-2.0,"""event"",""trial"",""time""
""fullscreenenter"",""1"",""1525""
""blur"",""155"",""504107""
""focus"",""162"",""521309""
""blur"",""167"",""526413""
""focus"",""168"",""528381""
","""event"",""trial"",""time""
""blur"",""155"",""504107""
""blur"",""167"",""526413""
","""event"",""trial"",""time""
""focus"",""162"",""521309""
""focus"",""168"",""528381""
","""event"",""trial"",""time""
""fullscreenenter"",""1"",""1525""
","
",,1516,run_exp/static/images/task_images/land.jpg,65,,,,,,,4,,,6,,,,,,,,243801,1,12,FALSE,,,
dig,199,569932,0.0-64.0-0.0,"""event"",""trial"",""time""
""fullscreenenter"",""1"",""1525""
""blur"",""155"",""504107""
""focus"",""162"",""521309""
""blur"",""167"",""526413""
""focus"",""168"",""528381""
","""event"",""trial"",""time""
""blur"",""155"",""504107""
""blur"",""167"",""526413""
","""event"",""trial"",""time""
""focus"",""162"",""521309""
""focus"",""168"",""528381""
","""event"",""trial"",""time""
""fullscreenenter"",""1"",""1525""
","
",,,,,,,,,,,,"[{""stimulus"":""run_exp/static/images/task_images/dig.jpg"",""time"":0.19999999925494194},{""stimulus"":""run_exp/static/images/task_images/land.jpg"",""time"":495.0999999977648},{""stimulus"":""run_exp/static/images/task_images/dig.jpg"",""time"":990}]",[],6,,,,,,,,,,,,,,
harvest,200,570934,0.0-64.0-1.0,"""event"",""trial"",""time""
""fullscreenenter"",""1"",""1525""
""blur"",""155"",""504107""
""focus"",""162"",""521309""
""blur"",""167"",""526413""
""focus"",""168"",""528381""
","""event"",""trial"",""time""
""blur"",""155"",""504107""
""blur"",""167"",""526413""
","""event"",""trial"",""time""
""focus"",""162"",""521309""
""focus"",""168"",""528381""
","""event"",""trial"",""time""
""fullscreenenter"",""1"",""1525""
","
",,null,run_exp/static/images/task_images/gems/4.jpg,null,,,,,,,3,,,6,,,,,4,0.83939147,0.75,,,,,,,
decision,201,570946,0.0-64.0-2.0,"""event"",""trial"",""time""
""fullscreenenter"",""1"",""1525""
""blur"",""155"",""504107""
""focus"",""162"",""521309""
""blur"",""167"",""526413""
""focus"",""168"",""528381""
","""event"",""trial"",""time""
""blur"",""155"",""504107""
""blur"",""167"",""526413""
","""event"",""trial"",""time""
""focus"",""162"",""521309""
""focus"",""168"",""528381""
","""event"",""trial"",""time""
""fullscreenenter"",""1"",""1525""
","
",,10.7,run_exp/static/images/task_images/land.jpg,76,,,,,,,3,,,6,,,,,,,,246302,1,13,TRUE,,,
travel,202,580931,0.0-65.0-0.0,"""event"",""trial"",""time""
""fullscreenenter"",""1"",""1525""
""blur"",""155"",""504107""
""focus"",""162"",""521309""
""blur"",""167"",""526413""
""focus"",""168"",""528381""
","""event"",""trial"",""time""
""blur"",""155"",""504107""
""blur"",""167"",""526413""
","""event"",""trial"",""time""
""focus"",""162"",""521309""
""focus"",""168"",""528381""
","""event"",""trial"",""time""
""fullscreenenter"",""1"",""1525""
","
",,,,,,,,,,,,"[{""stimulus"":""run_exp/static/images/task_images/rocket-01.jpg"",""time"":0.19999999925494194},{""stimulus"":""run_exp/static/images/task_images/rocket-02.jpg"",""time"":1110.7999999970198},{""stimulus"":""run_exp/static/images/task_images/rocket-03.jpg"",""time"":2219.699999999255},{""stimulus"":""run_exp/static/images/task_images/rocket-04.jpg"",""time"":3328.39999999851},{""stimulus"":""run_exp/static/images/task_images/rocket-05.jpg"",""time"":4437},{""stimulus"":""run_exp/static/images/task_images/rocket-06.jpg"",""time"":5546.199999999255},{""stimulus"":""run_exp/static/images/task_images/rocket-07.jpg"",""time"":6655},{""stimulus"":""run_exp/static/images/task_images/rocket-08.jpg"",""time"":7764.699999999255},{""stimulus"":""run_exp/static/images/task_images/rocket-09.jpg"",""time"":8874}]",[],6,,,,,,,,,,,,,,
alien_welcome,203,585932,0.0-65.0-1.0,"""event"",""trial"",""time""
""fullscreenenter"",""1"",""1525""
""blur"",""155"",""504107""
""focus"",""162"",""521309""
""blur"",""167"",""526413""
""focus"",""168"",""528381""
","""event"",""trial"",""time""
""blur"",""155"",""504107""
""blur"",""167"",""526413""
","""event"",""trial"",""time""
""focus"",""162"",""521309""
""focus"",""168"",""528381""
","""event"",""trial"",""time""
""fullscreenenter"",""1"",""1525""
","
",,null,run_exp/static/images/task_images/aliens/old_aliens/planet/alien_planet-74.jpg,null,,,,,,,,,,,,,74,"9,35,12,15,78,56,74,51,72,31,54,49,41,77,66,4,7,50,64,62,21,2,61,33,6,32",,,,,,,,,,
land,204,586434,0.0-65.0-2.0,"""event"",""trial"",""time""
""fullscreenenter"",""1"",""1525""
""blur"",""155"",""504107""
""focus"",""162"",""521309""
""blur"",""167"",""526413""
""focus"",""168"",""528381""
","""event"",""trial"",""time""
""blur"",""155"",""504107""
""blur"",""167"",""526413""
","""event"",""trial"",""time""
""focus"",""162"",""521309""
""focus"",""168"",""528381""
","""event"",""trial"",""time""
""fullscreenenter"",""1"",""1525""
","
",,null,run_exp/static/images/task_images/land.jpg,null,,,,,,,113,,,7,,,,,,,,,,,,,,
dig,205,588438,0.0-65.0-3.0,"""event"",""trial"",""time""
""fullscreenenter"",""1"",""1525""
""blur"",""155"",""504107""
""focus"",""162"",""521309""
""blur"",""167"",""526413""
""focus"",""168"",""528381""
","""event"",""trial"",""time""
""blur"",""155"",""504107""
""blur"",""167"",""526413""
","""event"",""trial"",""time""
""focus"",""162"",""521309""
""focus"",""168"",""528381""
","""event"",""trial"",""time""
""fullscreenenter"",""1"",""1525""
","
",,,,,,,,,,,,"[{""stimulus"":""run_exp/static/images/task_images/dig.jpg"",""time"":0.19999999925494194},{""stimulus"":""run_exp/static/images/task_images/land.jpg"",""time"":668.3999999985099},{""stimulus"":""run_exp/static/images/task_images/dig.jpg"",""time"":1336.699999999255}]",[],7,,,,,,,,,,,,,,
harvest,206,589440,0.0-65.0-4.0,"""event"",""trial"",""time""
""fullscreenenter"",""1"",""1525""
""blur"",""155"",""504107""
""focus"",""162"",""521309""
""blur"",""167"",""526413""
""focus"",""168"",""528381""
","""event"",""trial"",""time""
""blur"",""155"",""504107""
""blur"",""167"",""526413""
","""event"",""trial"",""time""
""focus"",""162"",""521309""
""focus"",""168"",""528381""
","""event"",""trial"",""time""
""fullscreenenter"",""1"",""1525""
","
",,null,run_exp/static/images/task_images/gems/113.jpg,null,,,,,,,88,,,7,,,,,113,0.780259954,0.778761062,,,,,,,
decision,207,591173,0.0-65.0-5.0,"""event"",""trial"",""time""
""fullscreenenter"",""1"",""1525""
""blur"",""155"",""504107""
""focus"",""162"",""521309""
""blur"",""167"",""526413""
""focus"",""168"",""528381""
","""event"",""trial"",""time""
""blur"",""155"",""504107""
""blur"",""167"",""526413""
","""event"",""trial"",""time""
""focus"",""162"",""521309""
""focus"",""168"",""528381""
","""event"",""trial"",""time""
""fullscreenenter"",""1"",""1525""
","
",,1731.9,run_exp/static/images/task_images/land.jpg,65,,,,,,,88,,,7,,,,,,,,266529,1,0,FALSE,,,
dig,208,592443,0.0-66.0-0.0,"""event"",""trial"",""time""
""fullscreenenter"",""1"",""1525""
""blur"",""155"",""504107""
""focus"",""162"",""521309""
""blur"",""167"",""526413""
""focus"",""168"",""528381""
","""event"",""trial"",""time""
""blur"",""155"",""504107""
""blur"",""167"",""526413""
","""event"",""trial"",""time""
""focus"",""162"",""521309""
""focus"",""168"",""528381""
","""event"",""trial"",""time""
""fullscreenenter"",""1"",""1525""
","
",,,,,,,,,,,,"[{""stimulus"":""run_exp/static/images/task_images/dig.jpg"",""time"":0.09999999776482582},{""stimulus"":""run_exp/static/images/task_images/land.jpg"",""time"":424.3999999985099},{""stimulus"":""run_exp/static/images/task_images/dig.jpg"",""time"":845.5999999977648}]",[],7,,,,,,,,,,,,,,
harvest,209,593445,0.0-66.0-1.0,"""event"",""trial"",""time""
""fullscreenenter"",""1"",""1525""
""blur"",""155"",""504107""
""focus"",""162"",""521309""
""blur"",""167"",""526413""
""focus"",""168"",""528381""
","""event"",""trial"",""time""
""blur"",""155"",""504107""
""blur"",""167"",""526413""
","""event"",""trial"",""time""
""focus"",""162"",""521309""
""focus"",""168"",""528381""
","""event"",""trial"",""time""
""fullscreenenter"",""1"",""1525""
","
",,null,run_exp/static/images/task_images/gems/88.jpg,null,,,,,,,82,,,7,,,,,88,0.934666987,0.931818182,,,,,,,
decision,210,595055,0.0-66.0-2.0,"""event"",""trial"",""time""
""fullscreenenter"",""1"",""1525""
""blur"",""155"",""504107""
""focus"",""162"",""521309""
""blur"",""167"",""526413""
""focus"",""168"",""528381""
","""event"",""trial"",""time""
""blur"",""155"",""504107""
""blur"",""167"",""526413""
","""event"",""trial"",""time""
""focus"",""162"",""521309""
""focus"",""168"",""528381""
","""event"",""trial"",""time""
""fullscreenenter"",""1"",""1525""
","
",,1608.6,run_exp/static/images/task_images/land.jpg,65,,,,,,,82,,,7,,,,,,,,270411,1,1,FALSE,,,
dig,211,596448,0.0-67.0-0.0,"""event"",""trial"",""time""
""fullscreenenter"",""1"",""1525""
""blur"",""155"",""504107""
""focus"",""162"",""521309""
""blur"",""167"",""526413""
""focus"",""168"",""528381""
","""event"",""trial"",""time""
""blur"",""155"",""504107""
""blur"",""167"",""526413""
","""event"",""trial"",""time""
""focus"",""162"",""521309""
""focus"",""168"",""528381""
","""event"",""trial"",""time""
""fullscreenenter"",""1"",""1525""
","
",,,,,,,,,,,,"[{""stimulus"":""run_exp/static/images/task_images/dig.jpg"",""time"":0.20000000298023224},{""stimulus"":""run_exp/static/images/task_images/land.jpg"",""time"":465},{""stimulus"":""run_exp/static/images/task_images/dig.jpg"",""time"":928.1000000014901}]",[],7,,,,,,,,,,,,,,
harvest,212,597449,0.0-67.0-1.0,"""event"",""trial"",""time""
""fullscreenenter"",""1"",""1525""
""blur"",""155"",""504107""
""focus"",""162"",""521309""
""blur"",""167"",""526413""
""focus"",""168"",""528381""
","""event"",""trial"",""time""
""blur"",""155"",""504107""
""blur"",""167"",""526413""
","""event"",""trial"",""time""
""focus"",""162"",""521309""
""focus"",""168"",""528381""
","""event"",""trial"",""time""
""fullscreenenter"",""1"",""1525""
","
",,null,run_exp/static/images/task_images/gems/82.jpg,null,,,,,,,65,,,7,,,,,82,0.786939478,0.792682927,,,,,,,
decision,213,597846,0.0-67.0-2.0,"""event"",""trial"",""time""
""fullscreenenter"",""1"",""1525""
""blur"",""155"",""504107""
""focus"",""162"",""521309""
""blur"",""167"",""526413""
""focus"",""168"",""528381""
","""event"",""trial"",""time""
""blur"",""155"",""504107""
