trial_type,trial_index,time_elapsed,internal_node_id,interactions,blur_events,focus_events,fullscreenenter_events,fullscreenexit_events,success,rt,stimulus,key_press,prompt,subject_id,participant_id,age,gender,button_pressed,next_reward,animation_sequence,responses,planet,curr_prac_trial,n_prac_rounds,alien,aliens,reward_received,decay_rate_actual,decay_rate_exp,time_in_block,block_num,prt,last_trial_on_planet,button_html,bonus,num_failures
pavlovia,0,4,0.0-0.0,"""event"",""trial"",""time""
""fullscreenenter"",""1"",""1783""
","
","
","""event"",""trial"",""time""
""fullscreenenter"",""1"",""1783""
","
",,,,,,,,,,,,,,,,,,,,,,,,,,,,
fullscreen,1,2755,0.0-1.0,"""event"",""trial"",""time""
""fullscreenenter"",""1"",""1783""
","
","
","""event"",""trial"",""time""
""fullscreenenter"",""1"",""1783""
","
",TRUE,,,,,,,,,,,,,,,,,,,,,,,,,,,
instruc_welcome,2,12480,0.0-2.0,"""event"",""trial"",""time""
""fullscreenenter"",""1"",""1783""
","
","
","""event"",""trial"",""time""
""fullscreenenter"",""1"",""1783""
","
",,null,run_exp/static/audio/clip_1_welcome.m4a,null,"<p>Howdy! In this experiment, you’ll be an explorer traveling through space to collect space treasure.</p><p>Your mission is to collect as much treasure as possible.</p><br><br><p><img src='run_exp/static/images/task_images/opening_img-01.jpg' height='300' width='auto'></p>",7936,3876,20.83,Male,,,,,,,,,,,,,,,,,,,
audio-keyboard-response,3,29079,0.0-3.0,"""event"",""trial"",""time""
""fullscreenenter"",""1"",""1783""
","
","
","""event"",""trial"",""time""
""fullscreenenter"",""1"",""1783""
","
",,null,run_exp/static/audio/clip_2_move.m4a,null,,,,,,,,,,,,,,,,,,,,,,,,
welcome_dec,4,29776,0.0-4.0,"""event"",""trial"",""time""
""fullscreenenter"",""1"",""1783""
","
","
","""event"",""trial"",""time""
""fullscreenenter"",""1"",""1783""
","
",,694.5,"<p>Howdy! In this experiment, you’ll be an explorer traveling through space to collect space treasure.</p><p>Your mission is to collect as much treasure as possible.</p><br><br><p><img src='run_exp/static/images/task_images/opening_img-01.jpg' height='300' width='auto'></p>",,,,,,,1,,,,,,,,,,,,,,,,,,
html-keyboard-response,5,30617,0.0-5.0,"""event"",""trial"",""time""
""fullscreenenter"",""1"",""1783""
","
","
","""event"",""trial"",""time""
""fullscreenenter"",""1"",""1783""
","
",,839.3000001,"<p>Howdy! In this experiment, you’ll be an explorer traveling through space to collect space treasure.</p><p>Your mission is to collect as much treasure as possible.</p><br><br><p><img src='run_exp/static/images/task_images/opening_img-01.jpg' height='300' width='auto'></p><button class=""jspsych-html-btn-unchosen""><img src=""run_exp/static/images/task_images/planet-01.jpg"" height=""50""></button><button class=""jspsych-html-btn-chosen""><img src=""run_exp/static/images/task_images/planet-02.jpg"" height=""50""></button><p><b>[press the space bar to lock in your answer]<b><br></p>",32,,,,,,,,,,,,,,,,,,,,,,,,
instruc_goal,6,40679,0.0-6.0-0.0,"""event"",""trial"",""time""
""fullscreenenter"",""1"",""1783""
","
","
","""event"",""trial"",""time""
""fullscreenenter"",""1"",""1783""
","
",,null,run_exp/static/audio/clip_3_goal.m4a,null,"<p> As a space explorer, you’ll visit different planets to dig for space treasure, these pink gems.</p> <p> The more treasure you dig up, the more bonus money you’ll win! </p><br><br><p><img src='run_exp/static/images/task_images/pink_gem.jpg' height='300' width='auto'></p>",,,,,,,,,,,,,,,,,,,,,,,
instruc_goal,7,42128,0.0-6.0-1.0,"""event"",""trial"",""time""
""fullscreenenter"",""1"",""1783""
","
","
","""event"",""trial"",""time""
""fullscreenenter"",""1"",""1783""
","
",,1447.3,"<p> As a space explorer, you’ll visit different planets to dig for space treasure, these pink gems.</p> <p> The more treasure you dig up, the more bonus money you’ll win! </p><br><br><p><img src='run_exp/static/images/task_images/pink_gem.jpg' height='300' width='auto'></p>",,,,,,,1,,,,,,,,,,,,,,,,,,
html-keyboard-response,8,42555,0.0-6.0-2.0,"""event"",""trial"",""time""
""fullscreenenter"",""1"",""1783""
","
","
","""event"",""trial"",""time""
""fullscreenenter"",""1"",""1783""
","
",,425.8,"<p> As a space explorer, you’ll visit different planets to dig for space treasure, these pink gems.</p> <p> The more treasure you dig up, the more bonus money you’ll win! </p><br><br><p><img src='run_exp/static/images/task_images/pink_gem.jpg' height='300' width='auto'></p><button class=""jspsych-html-btn-unchosen""><img src=""run_exp/static/images/task_images/planet-01.jpg"" height=""50""></button><button class=""jspsych-html-btn-chosen""><img src=""run_exp/static/images/task_images/planet-02.jpg"" height=""50""></button><p><b>[press the space bar to lock in your answer]<b><br></p>",32,,,,,,,,,,,,,,,,,,,,,,,,
instruc_dig,9,58579,0.0-7.0-0.0,"""event"",""trial"",""time""
""fullscreenenter"",""1"",""1783""
","
","
","""event"",""trial"",""time""
""fullscreenenter"",""1"",""1783""
","
",,null,run_exp/static/audio/clip_4_dig.m4a,null,,,,,,,100,,,,,,,,,,,,,,,,,
instruc_dig_try,10,59579,0.0-7.0-1.0,"""event"",""trial"",""time""
""fullscreenenter"",""1"",""1783""
","
","
","""event"",""trial"",""time""
""fullscreenenter"",""1"",""1783""
","
",,997.9,"<p> When you’ve arrived at a new planet, you will dig once. </p> <p>Then, you get to decide if you want to stay on the planet and dig again or travel to a new planet and dig there.</p> <p> To stay and dig, press the letter <strong>‘A’</strong> on your keyboard. Try pressing it now! </p><p><img src='run_exp/static/images/task_images/land.jpg'  height='700' width='auto'></p>",65,"<p> When you’ve arrived at a new planet, you will dig once. </p> <p>Then, you get to decide if you want to stay on the planet and dig again or travel to a new planet and dig there.</p> <p> To stay and dig, press the letter <strong>‘A’</strong> on your keyboard. Try pressing it now! </p><p><img src='run_exp/static/images/task_images/land.jpg'  height='700' width='auto'></p>",,,,,,100,,,,,,,,,,,,,,,,,
dig_prac,11,61594,0.0-7.0-2.0,"""event"",""trial"",""time""
""fullscreenenter"",""1"",""1783""
","
","
","""event"",""trial"",""time""
""fullscreenenter"",""1"",""1783""
","
",,,,,,,,,,,,"[{""stimulus"":""run_exp/static/images/task_images/dig.jpg"",""time"":0.20000004768371582},{""stimulus"":""run_exp/static/images/task_images/land.jpg"",""time"":680.2000000476837},{""stimulus"":""run_exp/static/images/task_images/dig.jpg"",""time"":1340.7000000476837}]",[],,,,,,,,,,,,,,,
instruc_travel,12,97840,0.0-7.0-3.0,"""event"",""trial"",""time""
""fullscreenenter"",""1"",""1783""
","
","
","""event"",""trial"",""time""
""fullscreenenter"",""1"",""1783""
","
",,null,run_exp/static/audio/clip_5_travel.m4a,null,"<p>Every time you dig up gems, there are less gems on the planet, so the more you dig on a planet the fewer gems you’ll get with each dig.</p><p>When gems are running low, you may want to travel to a new planet. </p> <p>  Planets are very far apart in this galaxy, so it will take some time to travel between them. </p> <br><p>There are lots and lots of planets for you to visit, so you won’t be able to return to any planets you’ve seen before. </p><br><p>To leave this planet and travel to a new one, press the letter <strong>‘L’</strong> on your keyboard. Try pressing it now! </p><p><img src='run_exp/static/images/task_images/rocket-01.jpg'  height='600' width='auto'></p>",,,,,,,,,,,,,,,,,,,,,,,
instruc_travel_try,13,99441,0.0-7.0-4.0,"""event"",""trial"",""time""
""fullscreenenter"",""1"",""1783""
","
","
","""event"",""trial"",""time""
""fullscreenenter"",""1"",""1783""
","
",,1598.3,"<p>Every time you dig up gems, there are less gems on the planet, so the more you dig on a planet the fewer gems you’ll get with each dig.</p><p>When gems are running low, you may want to travel to a new planet. </p> <p>  Planets are very far apart in this galaxy, so it will take some time to travel between them. </p> <br><p>There are lots and lots of planets for you to visit, so you won’t be able to return to any planets you’ve seen before. </p><br><p>To leave this planet and travel to a new one, press the letter <strong>‘L’</strong> on your keyboard. Try pressing it now! </p><p><img src='run_exp/static/images/task_images/rocket-01.jpg'  height='600' width='auto'></p>",76,"<p>Every time you dig up gems, there are less gems on the planet, so the more you dig on a planet the fewer gems you’ll get with each dig.</p><p>When gems are running low, you may want to travel to a new planet. </p> <p>  Planets are very far apart in this galaxy, so it will take some time to travel between them. </p> <br><p>There are lots and lots of planets for you to visit, so you won’t be able to return to any planets you’ve seen before. </p><br><p>To leave this planet and travel to a new one, press the letter <strong>‘L’</strong> on your keyboard. Try pressing it now! </p><p><img src='run_exp/static/images/task_images/rocket-01.jpg'  height='600' width='auto'></p>",,,,,,,,,,,,,,,,,,,,,,,
travel_prac,14,109458,0.0-7.0-5.0,"""event"",""trial"",""time""
""fullscreenenter"",""1"",""1783""
","
","
","""event"",""trial"",""time""
""fullscreenenter"",""1"",""1783""
","
",,,,,,,,,,,,"[{""stimulus"":""run_exp/static/images/task_images/rocket-01.jpg"",""time"":0.3999999761581421},{""stimulus"":""run_exp/static/images/task_images/rocket-02.jpg"",""time"":1119.6000000238419},{""stimulus"":""run_exp/static/images/task_images/rocket-03.jpg"",""time"":2229.100000023842},{""stimulus"":""run_exp/static/images/task_images/rocket-04.jpg"",""time"":3341.899999976158},{""stimulus"":""run_exp/static/images/task_images/rocket-05.jpg"",""time"":4449.899999976158},{""stimulus"":""run_exp/static/images/task_images/rocket-06.jpg"",""time"":5563.800000071526},{""stimulus"":""run_exp/static/images/task_images/rocket-07.jpg"",""time"":6671.399999976158},{""stimulus"":""run_exp/static/images/task_images/rocket-08.jpg"",""time"":7781.5},{""stimulus"":""run_exp/static/images/task_images/rocket-09.jpg"",""time"":8904.899999976158}]",[],0,,,,,,,,,,,,,,
instruc_alien_greet,15,136641,0.0-7.0-6.0,"""event"",""trial"",""time""
""fullscreenenter"",""1"",""1783""
","
","
","""event"",""trial"",""time""
""fullscreenenter"",""1"",""1783""
","
",,null,run_exp/static/audio/clip_6_alien.m4a,null,"<p>When you arrive at a new planet, the alien who owns the treasure mine on that planet will greet you!</p><p>The better an alien takes care of their mine the easier it is to dig for gems. Some aliens take better care of their mine than others. So, you won’t get exactly the same amount of gems on each planet.</p><p>What the alien looks like does not tell you anything about how many gems there are on the planet.</p><br><p><img src=""run_exp/static/images/task_images/aliens/instructions_aliens/planet/alien_planet-1.jpg""  height=""600"" width=""auto""></p>",,,,,,,,,,,,,,,,,,,,,,,
instruc_alien_greet,16,138985,0.0-7.0-7.0,"""event"",""trial"",""time""
""fullscreenenter"",""1"",""1783""
","
","
","""event"",""trial"",""time""
""fullscreenenter"",""1"",""1783""
","
",,2340.7,"<p>When you arrive at a new planet, the alien who owns the treasure mine on that planet will greet you!</p><p>The better an alien takes care of their mine the easier it is to dig for gems. Some aliens take better care of their mine than others. So, you won’t get exactly the same amount of gems on each planet.</p><p>What the alien looks like does not tell you anything about how many gems there are on the planet.</p><br><p><img src=""run_exp/static/images/task_images/aliens/instructions_aliens/planet/alien_planet-1.jpg""  height=""600"" width=""auto""></p>",,,,,,,1,,,,,,,,,,,,,,,,,,
html-keyboard-response,17,139728,0.0-7.0-8.0,"""event"",""trial"",""time""
""fullscreenenter"",""1"",""1783""
","
","
","""event"",""trial"",""time""
""fullscreenenter"",""1"",""1783""
","
",,741.6,"<p>When you arrive at a new planet, the alien who owns the treasure mine on that planet will greet you!</p><p>The better an alien takes care of their mine the easier it is to dig for gems. Some aliens take better care of their mine than others. So, you won’t get exactly the same amount of gems on each planet.</p><p>What the alien looks like does not tell you anything about how many gems there are on the planet.</p><br><p><img src=""run_exp/static/images/task_images/aliens/instructions_aliens/planet/alien_planet-1.jpg""  height=""600"" width=""auto""></p><button class=""jspsych-html-btn-unchosen""><img src=""run_exp/static/images/task_images/planet-01.jpg"" height=""50""></button><button class=""jspsych-html-btn-chosen""><img src=""run_exp/static/images/task_images/planet-02.jpg"" height=""50""></button><p><b>[press the space bar to lock in your answer]<b><br></p>",32,,,,,,,,,,,,,,,,,,,,,,,,
time_out,18,150821,0.0-8.0-0.0,"""event"",""trial"",""time""
""fullscreenenter"",""1"",""1783""
","
","
","""event"",""trial"",""time""
""fullscreenenter"",""1"",""1783""
","
",,null,run_exp/static/audio/clip_7_timeout.m4a,null,"<p>If you don't make your choice fast enough, you’ll have to wait a few seconds before you can make another one.</p><p>You can’t dig for more gems or travel to new planets. You just have to sit and wait.</p><br><p><img src='run_exp/static/images/task_images/time_out.jpg'  height='600' width='auto'></p>",,,,,,,,,,,,,,,,,,,,,,,
time_out,19,152849,0.0-8.0-1.0,"""event"",""trial"",""time""
""fullscreenenter"",""1"",""1783""
","
","
","""event"",""trial"",""time""
""fullscreenenter"",""1"",""1783""
","
",,2025,"<p>If you don't make your choice fast enough, you’ll have to wait a few seconds before you can make another one.</p><p>You can’t dig for more gems or travel to new planets. You just have to sit and wait.</p><br><p><img src='run_exp/static/images/task_images/time_out.jpg'  height='600' width='auto'></p>",,,,,,,1,,,,,,,,,,,,,,,,,,
html-keyboard-response,20,153707,0.0-8.0-2.0,"""event"",""trial"",""time""
""fullscreenenter"",""1"",""1783""
","
","
","""event"",""trial"",""time""
""fullscreenenter"",""1"",""1783""
","
",,856.1,"<p>If you don't make your choice fast enough, you’ll have to wait a few seconds before you can make another one.</p><p>You can’t dig for more gems or travel to new planets. You just have to sit and wait.</p><br><p><img src='run_exp/static/images/task_images/time_out.jpg'  height='600' width='auto'></p><button class=""jspsych-html-btn-unchosen""><img src=""run_exp/static/images/task_images/planet-01.jpg"" height=""50""></button><button class=""jspsych-html-btn-chosen""><img src=""run_exp/static/images/task_images/planet-02.jpg"" height=""50""></button><p><b>[press the space bar to lock in your answer]<b><br></p>",32,,,,,,,,,,,,,,,,,,,,,,,,
instruc_break,21,169380,0.0-9.0-0.0,"""event"",""trial"",""time""
""fullscreenenter"",""1"",""1783""
","
","
","""event"",""trial"",""time""
""fullscreenenter"",""1"",""1783""
","
",,null,run_exp/static/audio/clip_8_break.m4a,null,"<p> After digging and traveling for a while, you’ll be able to take a break at home base. </p><p>The game will last 20 minutes no matter what.</p><p>You will visit home base every 5 minutes, so, you will visit home base three times during the game.</p><br><p><img src='run_exp/static/images/task_images/home_base.jpg' height='600' width='auto'></p>",,,,,,,,,,,,,,,,,,,,,,,
instruc_break,22,170785,0.0-9.0-1.0,"""event"",""trial"",""time""
""fullscreenenter"",""1"",""1783""
","
","
","""event"",""trial"",""time""
""fullscreenenter"",""1"",""1783""
","
",,1402,"<p> After digging and traveling for a while, you’ll be able to take a break at home base. </p><p>The game will last 20 minutes no matter what.</p><p>You will visit home base every 5 minutes, so, you will visit home base three times during the game.</p><br><p><img src='run_exp/static/images/task_images/home_base.jpg' height='600' width='auto'></p>",,,,,,,1,,,,,,,,,,,,,,,,,,
html-keyboard-response,23,171439,0.0-9.0-2.0,"""event"",""trial"",""time""
""fullscreenenter"",""1"",""1783""
","
","
","""event"",""trial"",""time""
""fullscreenenter"",""1"",""1783""
","
",,652.3000001,"<p> After digging and traveling for a while, you’ll be able to take a break at home base. </p><p>The game will last 20 minutes no matter what.</p><p>You will visit home base every 5 minutes, so, you will visit home base three times during the game.</p><br><p><img src='run_exp/static/images/task_images/home_base.jpg' height='600' width='auto'></p><button class=""jspsych-html-btn-unchosen""><img src=""run_exp/static/images/task_images/planet-01.jpg"" height=""50""></button><button class=""jspsych-html-btn-chosen""><img src=""run_exp/static/images/task_images/planet-02.jpg"" height=""50""></button><p><b>[press the space bar to lock in your answer]<b><br></p>",32,,,,,,,,,,,,,,,,,,,,,,,,
instruc_prac_game,24,181581,0.0-10.0-0.0,"""event"",""trial"",""time""
""fullscreenenter"",""1"",""1783""
","
","
","""event"",""trial"",""time""
""fullscreenenter"",""1"",""1783""
","
",,null,run_exp/static/audio/clip_9_practice.m4a,null,"<p> Are you ready to play a practice game? </p> <p>In this practice game, you'll be digging up barrels of gems. But, in the real game, you'll be digging up the gems themselves. </p>",,,,,,,,,,,,,,,,,,,,,,,
html-button-response,25,182416,0.0-10.0-1.0,"""event"",""trial"",""time""
""fullscreenenter"",""1"",""1783""
","
","
","""event"",""trial"",""time""
""fullscreenenter"",""1"",""1783""
","
",,833.5,"<p> Are you ready to play a practice game? </p> <p>In this practice game, you'll be digging up barrels of gems. But, in the real game, you'll be digging up the gems themselves. </p>",,,,,,,0,,,,,,,,,,,,,,,,,,
alien_welcome_prac,26,187421,0.0-11.0-0.0,"""event"",""trial"",""time""
""fullscreenenter"",""1"",""1783""
","
","
","""event"",""trial"",""time""
""fullscreenenter"",""1"",""1783""
","
",,null,run_exp/static/images/task_images/aliens/practice_aliens/planet/alien_planet-5.jpg,null,,,,,,,,,,,,,,,,,,,,,,,,
land_prac,27,187934,0.0-11.0-1.0,"""event"",""trial"",""time""
""fullscreenenter"",""1"",""1783""
","
","
","""event"",""trial"",""time""
""fullscreenenter"",""1"",""1783""
","
",,null,run_exp/static/images/task_images/land.jpg,null,,,,,,,97,,,0,,,,,,,,,,,,,,
dig_prac,28,189951,0.0-11.0-2.0,"""event"",""trial"",""time""
""fullscreenenter"",""1"",""1783""
","
","
","""event"",""trial"",""time""
""fullscreenenter"",""1"",""1783""
","
",,,,,,,,,,,,"[{""stimulus"":""run_exp/static/images/task_images/dig.jpg"",""time"":0.5},{""stimulus"":""run_exp/static/images/task_images/land.jpg"",""time"":684.3999999761581},{""stimulus"":""run_exp/static/images/task_images/dig.jpg"",""time"":1339.3999999761581}]",[],,,,,,,,,,,,,,,
harvest_prac,29,190957,0.0-11.0-3.0,"""event"",""trial"",""time""
""fullscreenenter"",""1"",""1783""
","
","
","""event"",""trial"",""time""
""fullscreenenter"",""1"",""1783""
","
",,null,run_exp/static/images/task_images/barrel_text.jpg,null,,,,,,,,,,,,,,,,,,,,,,,,
decision_prac,30,192540,0.0-11.0-4.0,"""event"",""trial"",""time""
""fullscreenenter"",""1"",""1783""
","
","
","""event"",""trial"",""time""
""fullscreenenter"",""1"",""1783""
","
",,1580.6,run_exp/static/images/task_images/land.jpg,65,,,,,,,,,,,1,,,,,,,,,,,,,
dig_prac,31,194550,0.0-12.0-0.0,"""event"",""trial"",""time""
""fullscreenenter"",""1"",""1783""
","
","
","""event"",""trial"",""time""
""fullscreenenter"",""1"",""1783""
","
",,,,,,,,,,,,"[{""stimulus"":""run_exp/static/images/task_images/dig.jpg"",""time"":0.3999999761581421},{""stimulus"":""run_exp/static/images/task_images/land.jpg"",""time"":674.2000000476837},{""stimulus"":""run_exp/static/images/task_images/dig.jpg"",""time"":1349.6000000238419}]",[],,,,,,,,,,,,,,,
harvest_prac,32,195566,0.0-12.0-1.0,"""event"",""trial"",""time""
""fullscreenenter"",""1"",""1783""
","
","
","""event"",""trial"",""time""
""fullscreenenter"",""1"",""1783""
","
",,null,run_exp/static/images/task_images/barrel_text.jpg,null,,,,,,,,,,,,,,,,,,,,,,,,
decision_prac,33,195606,0.0-12.0-2.0,"""event"",""trial"",""time""
""fullscreenenter"",""1"",""1783""
","
","
","""event"",""trial"",""time""
""fullscreenenter"",""1"",""1783""
","
",,39,run_exp/static/images/task_images/land.jpg,65,,,,,,,,,,,2,,,,,,,,,,,,,
dig_prac,34,197621,0.0-13.0-0.0,"""event"",""trial"",""time""
""fullscreenenter"",""1"",""1783""
","
","
","""event"",""trial"",""time""
""fullscreenenter"",""1"",""1783""
","
",,,,,,,,,,,,"[{""stimulus"":""run_exp/static/images/task_images/dig.jpg"",""time"":0.10000002384185791},{""stimulus"":""run_exp/static/images/task_images/land.jpg"",""time"":671.5},{""stimulus"":""run_exp/static/images/task_images/dig.jpg"",""time"":1342.8000000715256}]",[],,,,,,,,,,,,,,,
harvest_prac,35,198638,0.0-13.0-1.0,"""event"",""trial"",""time""
""fullscreenenter"",""1"",""1783""
","
","
","""event"",""trial"",""time""
""fullscreenenter"",""1"",""1783""
","
",,null,run_exp/static/images/task_images/barrel_text.jpg,null,,,,,,,,,,,,,,,,,,,,,,,,
decision_prac,36,199887,0.0-13.0-2.0,"""event"",""trial"",""time""
""fullscreenenter"",""1"",""1783""
","
","
","""event"",""trial"",""time""
""fullscreenenter"",""1"",""1783""
","
",,1246.4,run_exp/static/images/task_images/land.jpg,65,,,,,,,,,,,3,,,,,,,,,,,,,
dig_prac,37,201903,0.0-14.0-0.0,"""event"",""trial"",""time""
""fullscreenenter"",""1"",""1783""
","
","
","""event"",""trial"",""time""
""fullscreenenter"",""1"",""1783""
","
",,,,,,,,,,,,"[{""stimulus"":""run_exp/static/images/task_images/dig.jpg"",""time"":0.30000007152557373},{""stimulus"":""run_exp/static/images/task_images/land.jpg"",""time"":683.7000000476837},{""stimulus"":""run_exp/static/images/task_images/dig.jpg"",""time"":1339.6000000238419}]",[],,,,,,,,,,,,,,,
harvest_prac,38,202909,0.0-14.0-1.0,"""event"",""trial"",""time""
""fullscreenenter"",""1"",""1783""
","
","
","""event"",""trial"",""time""
""fullscreenenter"",""1"",""1783""
","
",,null,run_exp/static/images/task_images/barrel_text.jpg,null,,,,,,,,,,,,,,,,,,,,,,,,
decision_prac,39,203567,0.0-14.0-2.0,"""event"",""trial"",""time""
""fullscreenenter"",""1"",""1783""
","
","
","""event"",""trial"",""time""
""fullscreenenter"",""1"",""1783""
","
",,657.5999999,run_exp/static/images/task_images/land.jpg,65,,,,,,,,,,,4,,,,,,,,,,,,,
dig_prac,40,205576,0.0-15.0-0.0,"""event"",""trial"",""time""
""fullscreenenter"",""1"",""1783""
","
","
","""event"",""trial"",""time""
""fullscreenenter"",""1"",""1783""
","
",,,,,,,,,,,,"[{""stimulus"":""run_exp/static/images/task_images/dig.jpg"",""time"":0.10000002384185791},{""stimulus"":""run_exp/static/images/task_images/land.jpg"",""time"":671.6000000238419},{""stimulus"":""run_exp/static/images/task_images/dig.jpg"",""time"":1343.2000000476837}]",[],,,,,,,,,,,,,,,
harvest_prac,41,206578,0.0-15.0-1.0,"""event"",""trial"",""time""
""fullscreenenter"",""1"",""1783""
","
","
","""event"",""trial"",""time""
""fullscreenenter"",""1"",""1783""
","
",,null,run_exp/static/images/task_images/barrel_text.jpg,null,,,,,,,,,,,,,,,,,,,,,,,,
decision_prac,42,207091,0.0-15.0-2.0,"""event"",""trial"",""time""
""fullscreenenter"",""1"",""1783""
","
","
","""event"",""trial"",""time""
""fullscreenenter"",""1"",""1783""
","
",,511.9000001,run_exp/static/images/task_images/land.jpg,65,,,,,,,,,,,,1,,,,,,,,,,,,
quiz_instruc,43,210279,0.0-16.0-0.0,"""event"",""trial"",""time""
""fullscreenenter"",""1"",""1783""
","
","
","""event"",""trial"",""time""
""fullscreenenter"",""1"",""1783""
","
",,3186.6,run_exp/static/audio/clip_10_quiz.m4a,,,,,,,0,,,,,,,,,,,,,,,,,,
instruc_repeat,44,253051,0.0-16.0-1.0,"""event"",""trial"",""time""
""fullscreenenter"",""1"",""1783""
","
","
","""event"",""trial"",""time""
""fullscreenenter"",""1"",""1783""
","
",,null,"<p> Are you ready to play a practice game? </p> <p>In this practice game, you'll be digging up barrels of gems. But, in the real game, you'll be digging up the gems themselves. </p>",null,"<p>In this game, your goal is to collect as many gems as you can. That’s how you will win bonus money. </p> <p>The entire game will last 20 minutes no matter how many gems you collect or how many planets you visit. </p><p>To stay on a planet and dig again, press the letter A on your keyboard. To leave for a new planet, press the letter L.</p><p>The more you dig on a planet, the fewer gems you’ll get with each dig which is why you might consider leaving for a new planet. </p><p>When you arrive at a new planet, you’ll be greeted by an alien. What the alien looks like does not tell you anything about how much treasure is on the planet. </p>",,,,,,,,,,,,,,,,,,,,,,,
instruc_repeat_continue,45,253849,0.0-16.0-2.0,"""event"",""trial"",""time""
""fullscreenenter"",""1"",""1783""
","
","
","""event"",""trial"",""time""
""fullscreenenter"",""1"",""1783""
","
",,795.2,"<p> Are you ready to play a practice game? </p> <p>In this practice game, you'll be digging up barrels of gems. But, in the real game, you'll be digging up the gems themselves. </p>",,,,,,,0,,,,,,,,,,,,,,,,,,
quiz_q_1_ask,46,257233,0.0-16.0-3.0,"""event"",""trial"",""time""
""fullscreenenter"",""1"",""1783""
","
","
","""event"",""trial"",""time""
""fullscreenenter"",""1"",""1783""
","
",,3382.5,run_exp/static/audio/clip_11_q1_ask.m4a,,,,,,,2,,,,,,,,,,,,,,,,,,
quiz_q_1_fb_correct,47,261091,0.0-17.0-0.0,"""event"",""trial"",""time""
""fullscreenenter"",""1"",""1783""
","
","
","""event"",""trial"",""time""
""fullscreenenter"",""1"",""1783""
","
",,null,run_exp/static/audio/clip_12_q1_correct.m4a,null,<p>That’s correct. You win extra money by collecting more gems.</p>,,,,,,,,,,,,,,,,,,,,,,,
quiz_q_2_ask,48,264546,0.0-17.0-1.0,"""event"",""trial"",""time""
""fullscreenenter"",""1"",""1783""
","
","
","""event"",""trial"",""time""
""fullscreenenter"",""1"",""1783""
","
",,3451,run_exp/static/audio/clip_14_q2_ask.m4a,,,,,,,1,,,,,,,,,,,,,,,,,,
quiz_q_2_fb_correct,49,268549,0.0-18.0-0.0,"""event"",""trial"",""time""
""fullscreenenter"",""1"",""1783""
","
","
","""event"",""trial"",""time""
""fullscreenenter"",""1"",""1783""
","
",,null,run_exp/static/audio/clip_15_q2_correct.m4a,null,<p>That’s correct. The experiment is 20 minutes no matter what.</p>,,,,,,,,,,,,,,,,,,,,,,,
quiz_q_3_ask,50,270985,0.0-18.0-1.0,"""event"",""trial"",""time""
""fullscreenenter"",""1"",""1783""
","
","
","""event"",""trial"",""time""
""fullscreenenter"",""1"",""1783""
","
",,2434.7,run_exp/static/audio/clip_17_q3_ask.m4a,,,,,,,1,,,,,,,,,,,,,,,,,,
quiz_q_3_fb_correct,51,274972,0.0-19.0-0.0,"""event"",""trial"",""time""
""fullscreenenter"",""1"",""1783""
","
","
","""event"",""trial"",""time""
""fullscreenenter"",""1"",""1783""
","
",,null,run_exp/static/audio/clip_18_q3_correct.m4a,null,<p> That’s correct. You press the letter L to travel to a new planet.</p>,,,,,,,,,,,,,,,,,,,,,,,
quiz_q_4_ask,52,278953,0.0-19.0-1.0,"""event"",""trial"",""time""
""fullscreenenter"",""1"",""1783""
","
","
","""event"",""trial"",""time""
""fullscreenenter"",""1"",""1783""
","
",,3978.8,run_exp/static/audio/clip_20_q4_ask.m4a,,,,,,,0,,,,,,,,,,,,,,,,,,
quiz_q_4_fb_correct,53,284270,0.0-20.0-0.0,"""event"",""trial"",""time""
""fullscreenenter"",""1"",""1783""
","
","
","""event"",""trial"",""time""
""fullscreenenter"",""1"",""1783""
","
",,null,run_exp/static/audio/clip_21_q4_correct.m4a,null,<p> That’s correct. The more you dig on a planet the fewer gems you’ll get with each dig. </p>,,,,,,,,,,,,,,,,,,,,,,,
quiz_q_5_ask,54,286800,0.0-20.0-1.0,"""event"",""trial"",""time""
""fullscreenenter"",""1"",""1783""
","
","
","""event"",""trial"",""time""
""fullscreenenter"",""1"",""1783""
","
",,2528.6,run_exp/static/audio/clip_23_q5_ask.m4a,,,,,,,1,,,,,,,,,,,,,,,,,,
quiz_q_5_fb_correct,55,291810,0.0-21.0-0.0,"""event"",""trial"",""time""
""fullscreenenter"",""1"",""1783""
","
","
","""event"",""trial"",""time""
""fullscreenenter"",""1"",""1783""
","
",,null,run_exp/static/audio/clip_24_q5_correct.m4a,null,<p> That’s correct. The alien tells you nothing about how much treasure is on the planet.</p>,,,,,,,,,,,,,,,,,,,,,,,
quiz_correct,56,295270,0.0-22.0-0.0,"""event"",""trial"",""time""
""fullscreenenter"",""1"",""1783""
","
","
","""event"",""trial"",""time""
""fullscreenenter"",""1"",""1783""
","
",,null,run_exp/static/audio/clip_26_correct_quiz.m4a,null,,,,,,,,,,,,,,,,,,,,,,,,
quiz_correct_continue,57,295888,0.0-22.0-1.0,"""event"",""trial"",""time""
""fullscreenenter"",""1"",""1783""
","
","
","""event"",""trial"",""time""
""fullscreenenter"",""1"",""1783""
","
",,616.6,<p>Good job! You're now ready to move on to the real game!</p>,,,,,,,0,,,,,,,,,,,,,,,,,,
audio-keyboard-response,58,306010,0.0-22.0-2.0,"""event"",""trial"",""time""
""fullscreenenter"",""1"",""1783""
","
","
","""event"",""trial"",""time""
""fullscreenenter"",""1"",""1783""
","
",,null,run_exp/static/audio/clip_28_real_game.m4a,null,,,,,,,,,,,,,,,,,,,,,,,,
instruc_begin_exp_contine,59,307632,0.0-22.0-3.0,"""event"",""trial"",""time""
""fullscreenenter"",""1"",""1783""
","
","
","""event"",""trial"",""time""
""fullscreenenter"",""1"",""1783""
","
",,1620.2,"<p>Now that you know how  to dig for space treasure and travel to new planets,you can start exploring! </p><p>Do you want to go over the instructions again or get started with the real game?</p>",,,,,,,1,,,,,,1,,,,,,,,,,,,
alien_welcome,60,312636,0.0-23.0-0.0,"""event"",""trial"",""time""
""fullscreenenter"",""1"",""1783""
","
","
","""event"",""trial"",""time""
""fullscreenenter"",""1"",""1783""
","
",,null,run_exp/static/images/task_images/aliens/old_aliens/planet/alien_planet-49.jpg,null,,,,,,,,,,,,,49,"49,80,8,70,28,66,46,15,21,77,58,30,71,34,53,64,76,48,5,73,62,51,55,17,60,41,74,36,50,12,37,69,1,2,7,75,47,26",,,,,,,,,,
land,61,313152,0.0-23.0-1.0,"""event"",""trial"",""time""
""fullscreenenter"",""1"",""1783""
","
","
","""event"",""trial"",""time""
""fullscreenenter"",""1"",""1783""
","
",,null,run_exp/static/images/task_images/land.jpg,null,,,,,,,93,,,1,,,,,,,,,,,,,,
dig,62,315173,0.0-23.0-2.0,"""event"",""trial"",""time""
""fullscreenenter"",""1"",""1783""
","
","
","""event"",""trial"",""time""
""fullscreenenter"",""1"",""1783""
","
",,,,,,,,,,,,"[{""stimulus"":""run_exp/static/images/task_images/dig.jpg"",""time"":0.3999999761581421},{""stimulus"":""run_exp/static/images/task_images/land.jpg"",""time"":684},{""stimulus"":""run_exp/static/images/task_images/dig.jpg"",""time"":1344}]",[],1,,,,,,,,,,,,,,
harvest,63,316175,0.0-23.0-3.0,"""event"",""trial"",""time""
""fullscreenenter"",""1"",""1783""
","
","
","""event"",""trial"",""time""
""fullscreenenter"",""1"",""1783""
","
",,null,run_exp/static/images/task_images/gems/93.jpg,null,,,,,,,23,,,1,,,,,93,0.252354442,0.247311828,,,,,,,
decision,64,316522,0.0-23.0-4.0,"""event"",""trial"",""time""
""fullscreenenter"",""1"",""1783""
","
","
","""event"",""trial"",""time""
""fullscreenenter"",""1"",""1783""
","
",,344,run_exp/static/images/task_images/land.jpg,65,,,,,,,23,,,1,,,,,,,,8889,1,0,FALSE,,,
dig,65,319192,0.0-24.0-0.0,"""event"",""trial"",""time""
""fullscreenenter"",""1"",""1783""
","
","
","""event"",""trial"",""time""
""fullscreenenter"",""1"",""1783""
","
",,,,,,,,,,,,"[{""stimulus"":""run_exp/static/images/task_images/dig.jpg"",""time"":0.10000002384185791},{""stimulus"":""run_exp/static/images/task_images/land.jpg"",""time"":897.2999999523163},{""stimulus"":""run_exp/static/images/task_images/dig.jpg"",""time"":1774.7000000476837}]",[],1,,,,,,,,,,,,,,
harvest,66,320196,0.0-24.0-1.0,"""event"",""trial"",""time""
""fullscreenenter"",""1"",""1783""
","
","
","""event"",""trial"",""time""
""fullscreenenter"",""1"",""1783""
","
",,null,run_exp/static/images/task_images/gems/23.jpg,null,,,,,,,4,,,1,,,,,23,0.194826677,0.173913043,,,,,,,
decision,67,320894,0.0-24.0-2.0,"""event"",""trial"",""time""
""fullscreenenter"",""1"",""1783""
","
","
","""event"",""trial"",""time""
""fullscreenenter"",""1"",""1783""
","
",,695.9000001,run_exp/static/images/task_images/land.jpg,65,,,,,,,4,,,1,,,,,,,,13262,1,1,FALSE,,,
dig,68,323208,0.0-25.0-0.0,"""event"",""trial"",""time""
""fullscreenenter"",""1"",""1783""
","
","
","""event"",""trial"",""time""
""fullscreenenter"",""1"",""1783""
","
",,,,,,,,,,,,"[{""stimulus"":""run_exp/static/images/task_images/dig.jpg"",""time"":0.6999999284744263},{""stimulus"":""run_exp/static/images/task_images/land.jpg"",""time"":778.2999999523163},{""stimulus"":""run_exp/static/images/task_images/dig.jpg"",""time"":1544.8999999761581}]",[],1,,,,,,,,,,,,,,
harvest,69,324225,0.0-25.0-1.0,"""event"",""trial"",""time""
""fullscreenenter"",""1"",""1783""
","
","
","""event"",""trial"",""time""
""fullscreenenter"",""1"",""1783""
","
",,null,run_exp/static/images/task_images/gems/4.jpg,null,,,,,,,1,,,1,,,,,4,0.230918349,0.25,,,,,,,
decision,70,324440,0.0-25.0-2.0,"""event"",""trial"",""time""
""fullscreenenter"",""1"",""1783""
","
","
","""event"",""trial"",""time""
""fullscreenenter"",""1"",""1783""
","
",,213.1999999,run_exp/static/images/task_images/land.jpg,65,,,,,,,1,,,1,,,,,,,,16807,1,2,FALSE,,,
dig,71,327231,0.0-26.0-0.0,"""event"",""trial"",""time""
""fullscreenenter"",""1"",""1783""
","
","
","""event"",""trial"",""time""
""fullscreenenter"",""1"",""1783""
","
",,,,,,,,,,,,"[{""stimulus"":""run_exp/static/images/task_images/dig.jpg"",""time"":0.3999999761581421},{""stimulus"":""run_exp/static/images/task_images/land.jpg"",""time"":937.2999999523163},{""stimulus"":""run_exp/static/images/task_images/dig.jpg"",""time"":1861.1000000238419}]",[],1,,,,,,,,,,,,,,
harvest,72,328248,0.0-26.0-1.0,"""event"",""trial"",""time""
""fullscreenenter"",""1"",""1783""
","
","
","""event"",""trial"",""time""
""fullscreenenter"",""1"",""1783""
","
",,null,run_exp/static/images/task_images/gems/1.jpg,null,,,,,,,0,,,1,,,,,1,0.270441346,0,,,,,,,
decision,73,328634,0.0-26.0-2.0,"""event"",""trial"",""time""
""fullscreenenter"",""1"",""1783""
","
","
","""event"",""trial"",""time""
""fullscreenenter"",""1"",""1783""
","
",,383.4000001,run_exp/static/images/task_images/land.jpg,65,,,,,,,0,,,1,,,,,,,,21001,1,3,FALSE,,,
dig,74,331264,0.0-27.0-0.0,"""event"",""trial"",""time""
""fullscreenenter"",""1"",""1783""
","
","
","""event"",""trial"",""time""
""fullscreenenter"",""1"",""1783""
","
",,,,,,,,,,,,"[{""stimulus"":""run_exp/static/images/task_images/dig.jpg"",""time"":0.6000000238418579},{""stimulus"":""run_exp/static/images/task_images/land.jpg"",""time"":885.1999999284744},{""stimulus"":""run_exp/static/images/task_images/dig.jpg"",""time"":1746.1000000238419}]",[],1,,,,,,,,,,,,,,
harvest,75,332279,0.0-27.0-1.0,"""event"",""trial"",""time""
""fullscreenenter"",""1"",""1783""
","
","
","""event"",""trial"",""time""
""fullscreenenter"",""1"",""1783""
","
",,null,run_exp/static/images/task_images/gems/0.jpg,null,,,,,,,0,,,1,,,,,0,0.193618045,NaN,,,,,,,
decision,76,333039,0.0-27.0-2.0,"""event"",""trial"",""time""
""fullscreenenter"",""1"",""1783""
","
","
","""event"",""trial"",""time""
""fullscreenenter"",""1"",""1783""
","
",,757.8000001,run_exp/static/images/task_images/land.jpg,76,,,,,,,0,,,1,,,,,,,,25406,1,4,TRUE,,,
travel,77,342290,0.0-28.0-0.0,"""event"",""trial"",""time""
""fullscreenenter"",""1"",""1783""
","
","
","""event"",""trial"",""time""
""fullscreenenter"",""1"",""1783""
","
",,,,,,,,,,,,"[{""stimulus"":""run_exp/static/images/task_images/rocket-01.jpg"",""time"":0.3999999761581421},{""stimulus"":""run_exp/static/images/task_images/rocket-02.jpg"",""time"":1030.5},{""stimulus"":""run_exp/static/images/task_images/rocket-03.jpg"",""time"":2060.7000000476837},{""stimulus"":""run_exp/static/images/task_images/rocket-04.jpg"",""time"":3083.600000023842},{""stimulus"":""run_exp/static/images/task_images/rocket-05.jpg"",""time"":4114.899999976158},{""stimulus"":""run_exp/static/images/task_images/rocket-06.jpg"",""time"":5132.800000071526},{""stimulus"":""run_exp/static/images/task_images/rocket-07.jpg"",""time"":6167.100000023842},{""stimulus"":""run_exp/static/images/task_images/rocket-08.jpg"",""time"":7198.200000047684},{""stimulus"":""run_exp/static/images/task_images/rocket-09.jpg"",""time"":8214}]",[],1,,,,,,,,,,,,,,
alien_welcome,78,347300,0.0-28.0-1.0,"""event"",""trial"",""time""
""fullscreenenter"",""1"",""1783""
","
","
","""event"",""trial"",""time""
""fullscreenenter"",""1"",""1783""
","
",,null,run_exp/static/images/task_images/aliens/old_aliens/planet/alien_planet-80.jpg,null,,,,,,,,,,,,,80,"49,80,8,70,28,66,46,15,21,77,58,30,71,34,53,64,76,48,5,73,62,51,55,17,60,41,74,36,50,12,37,69,1,2,7,75,47,26",,,,,,,,,,
land,79,347803,0.0-28.0-2.0,"""event"",""trial"",""time""
""fullscreenenter"",""1"",""1783""
","
","
","""event"",""trial"",""time""
""fullscreenenter"",""1"",""1783""
","
",,null,run_exp/static/images/task_images/land.jpg,null,,,,,,,100,,,2,,,,,,,,,,,,,,
dig,80,349811,0.0-28.0-3.0,"""event"",""trial"",""time""
""fullscreenenter"",""1"",""1783""
","
","
","""event"",""trial"",""time""
""fullscreenenter"",""1"",""1783""
","
",,,,,,,,,,,,"[{""stimulus"":""run_exp/static/images/task_images/dig.jpg"",""time"":0.5},{""stimulus"":""run_exp/static/images/task_images/land.jpg"",""time"":683.1000000238419},{""stimulus"":""run_exp/static/images/task_images/dig.jpg"",""time"":1336.3999999761581}]",[],2,,,,,,,,,,,,,,
harvest,81,350826,0.0-28.0-4.0,"""event"",""trial"",""time""
""fullscreenenter"",""1"",""1783""
","
","
","""event"",""trial"",""time""
""fullscreenenter"",""1"",""1783""
","
",,null,run_exp/static/images/task_images/gems/100.jpg,null,,,,,,,19,,,2,,,,,100,0.18797313,0.19,,,,,,,
decision,82,351420,0.0-28.0-5.0,"""event"",""trial"",""time""
""fullscreenenter"",""1"",""1783""
","
","
","""event"",""trial"",""time""
""fullscreenenter"",""1"",""1783""
","
",,591.3,run_exp/static/images/task_images/land.jpg,65,,,,,,,19,,,2,,,,,,,,43788,1,0,FALSE,,,
dig,83,353839,0.0-29.0-0.0,"""event"",""trial"",""time""
""fullscreenenter"",""1"",""1783""
","
","
","""event"",""trial"",""time""
""fullscreenenter"",""1"",""1783""
","
",,,,,,,,,,,,"[{""stimulus"":""run_exp/static/images/task_images/dig.jpg"",""time"":0.40000009536743164},{""stimulus"":""run_exp/static/images/task_images/land.jpg"",""time"":805.6000000238419},{""stimulus"":""run_exp/static/images/task_images/dig.jpg"",""time"":1610.2000000476837}]",[],2,,,,,,,,,,,,,,
harvest,84,354845,0.0-29.0-1.0,"""event"",""trial"",""time""
""fullscreenenter"",""1"",""1783""
","
","
","""event"",""trial"",""time""
""fullscreenenter"",""1"",""1783""
","
",,null,run_exp/static/images/task_images/gems/19.jpg,null,,,,,,,4,,,2,,,,,19,0.204324233,0.210526316,,,,,,,
decision,85,355185,0.0-29.0-2.0,"""event"",""trial"",""time""
""fullscreenenter"",""1"",""1783""
","
","
","""event"",""trial"",""time""
""fullscreenenter"",""1"",""1783""
","
",,337.5,run_exp/static/images/task_images/land.jpg,76,,,,,,,4,,,2,,,,,,,,47552,1,1,TRUE,,,
travel,86,364860,0.0-30.0-0.0,"""event"",""trial"",""time""
""fullscreenenter"",""1"",""1783""
","
","
","""event"",""trial"",""time""
""fullscreenenter"",""1"",""1783""
","
",,,,,,,,,,,,"[{""stimulus"":""run_exp/static/images/task_images/rocket-01.jpg"",""time"":0.6000000238418579},{""stimulus"":""run_exp/static/images/task_images/rocket-02.jpg"",""time"":1080},{""stimulus"":""run_exp/static/images/task_images/rocket-03.jpg"",""time"":2161.100000023842},{""stimulus"":""run_exp/static/images/task_images/rocket-04.jpg"",""time"":3223.7000000476837},{""stimulus"":""run_exp/static/images/task_images/rocket-05.jpg"",""time"":4299.5},{""stimulus"":""run_exp/static/images/task_images/rocket-06.jpg"",""time"":5380.5},{""stimulus"":""run_exp/static/images/task_images/rocket-07.jpg"",""time"":6447.600000023842},{""stimulus"":""run_exp/static/images/task_images/rocket-08.jpg"",""time"":7513.5},{""stimulus"":""run_exp/static/images/task_images/rocket-09.jpg"",""time"":8594.300000071526}]",[],2,,,,,,,,,,,,,,
alien_welcome,87,369866,0.0-30.0-1.0,"""event"",""trial"",""time""
""fullscreenenter"",""1"",""1783""
","
","
","""event"",""trial"",""time""
""fullscreenenter"",""1"",""1783""
","
",,null,run_exp/static/images/task_images/aliens/old_aliens/planet/alien_planet-8.jpg,null,,,,,,,,,,,,,8,"49,80,8,70,28,66,46,15,21,77,58,30,71,34,53,64,76,48,5,73,62,51,55,17,60,41,74,36,50,12,37,69,1,2,7,75,47,26",,,,,,,,,,
land,88,370368,0.0-30.0-2.0,"""event"",""trial"",""time""
""fullscreenenter"",""1"",""1783""
","
","
","""event"",""trial"",""time""
""fullscreenenter"",""1"",""1783""
","
",,null,run_exp/static/images/task_images/land.jpg,null,,,,,,,97,,,3,,,,,,,,,,,,,,
dig,89,372372,0.0-30.0-3.0,"""event"",""trial"",""time""
""fullscreenenter"",""1"",""1783""
","
","
","""event"",""trial"",""time""
""fullscreenenter"",""1"",""1783""
","
",,,,,,,,,,,,"[{""stimulus"":""run_exp/static/images/task_images/dig.jpg"",""time"":0.19999992847442627},{""stimulus"":""run_exp/static/images/task_images/land.jpg"",""time"":674.7999999523163},{""stimulus"":""run_exp/static/images/task_images/dig.jpg"",""time"":1347.3999999761581}]",[],3,,,,,,,,,,,,,,
harvest,90,373384,0.0-30.0-4.0,"""event"",""trial"",""time""
""fullscreenenter"",""1"",""1783""
","
","
","""event"",""trial"",""time""
""fullscreenenter"",""1"",""1783""
","
",,null,run_exp/static/images/task_images/gems/97.jpg,null,,,,,,,53,,,3,,,,,97,0.547899249,0.546391753,,,,,,,
decision,91,373841,0.0-30.0-5.0,"""event"",""trial"",""time""
""fullscreenenter"",""1"",""1783""
","
","
","""event"",""trial"",""time""
""fullscreenenter"",""1"",""1783""
","
",,455,run_exp/static/images/task_images/land.jpg,65,,,,,,,53,,,3,,,,,,,,66208,1,0,FALSE,,,
dig,92,376401,0.0-31.0-0.0,"""event"",""trial"",""time""
""fullscreenenter"",""1"",""1783""
","
","
","""event"",""trial"",""time""
""fullscreenenter"",""1"",""1783""
","
",,,,,,,,,,,,"[{""stimulus"":""run_exp/static/images/task_images/dig.jpg"",""time"":0.3999999761581421},{""stimulus"":""run_exp/static/images/task_images/land.jpg"",""time"":849.6000000238419},{""stimulus"":""run_exp/static/images/task_images/dig.jpg"",""time"":1699.7999999523163}]",[],3,,,,,,,,,,,,,,
harvest,93,377408,0.0-31.0-1.0,"""event"",""trial"",""time""
""fullscreenenter"",""1"",""1783""
","
","
","""event"",""trial"",""time""
""fullscreenenter"",""1"",""1783""
","
",,null,run_exp/static/images/task_images/gems/53.jpg,null,,,,,,,27,,,3,,,,,53,0.504287571,0.509433962,,,,,,,
decision,94,377788,0.0-31.0-2.0,"""event"",""trial"",""time""
""fullscreenenter"",""1"",""1783""
","
","
","""event"",""trial"",""time""
""fullscreenenter"",""1"",""1783""
","
",,378.2,run_exp/static/images/task_images/land.jpg,65,,,,,,,27,,,3,,,,,,,,70155,1,1,FALSE,,,
dig,95,380423,0.0-32.0-0.0,"""event"",""trial"",""time""
""fullscreenenter"",""1"",""1783""
","
","
","""event"",""trial"",""time""
""fullscreenenter"",""1"",""1783""
","
",,,,,,,,,,,,"[{""stimulus"":""run_exp/static/images/task_images/dig.jpg"",""time"":0.6000000238418579},{""stimulus"":""run_exp/static/images/task_images/land.jpg"",""time"":884.2999999523163},{""stimulus"":""run_exp/static/images/task_images/dig.jpg"",""time"":1761.5}]",[],3,,,,,,,,,,,,,,
harvest,96,381426,0.0-32.0-1.0,"""event"",""trial"",""time""
""fullscreenenter"",""1"",""1783""
","
","
","""event"",""trial"",""time""
""fullscreenenter"",""1"",""1783""
","
",,null,run_exp/static/images/task_images/gems/27.jpg,null,,,,,,,12,,,3,,,,,27,0.462315527,0.444444444,,,,,,,
decision,97,381713,0.0-32.0-2.0,"""event"",""trial"",""time""
""fullscreenenter"",""1"",""1783""
","
","
","""event"",""trial"",""time""
""fullscreenenter"",""1"",""1783""
","
",,284.1,run_exp/static/images/task_images/land.jpg,65,,,,,,,12,,,3,,,,,,,,74080,1,2,FALSE,,,
dig,98,384444,0.0-33.0-0.0,"""event"",""trial"",""time""
""fullscreenenter"",""1"",""1783""
","
","
","""event"",""trial"",""time""
""fullscreenenter"",""1"",""1783""
","
",,,,,,,,,,,,"[{""stimulus"":""run_exp/static/images/task_images/dig.jpg"",""time"":0.3999999761581421},{""stimulus"":""run_exp/static/images/task_images/land.jpg"",""time"":909.1000000238419},{""stimulus"":""run_exp/static/images/task_images/dig.jpg"",""time"":1819.7000000476837}]",[],3,,,,,,,,,,,,,,
harvest,99,385449,0.0-33.0-1.0,"""event"",""trial"",""time""
""fullscreenenter"",""1"",""1783""
","
","
","""event"",""trial"",""time""
""fullscreenenter"",""1"",""1783""
","
",,null,run_exp/static/images/task_images/gems/12.jpg,null,,,,,,,6,,,3,,,,,12,0.529091077,0.5,,,,,,,
decision,100,385955,0.0-33.0-2.0,"""event"",""trial"",""time""
""fullscreenenter"",""1"",""1783""
","
","
","""event"",""trial"",""time""
""fullscreenenter"",""1"",""1783""
","
",,504.1,run_exp/static/images/task_images/land.jpg,76,,,,,,,6,,,3,,,,,,,,78322,1,3,TRUE,,,
travel,101,395462,0.0-34.0-0.0,"""event"",""trial"",""time""
""fullscreenenter"",""1"",""1783""
","
","
","""event"",""trial"",""time""
""fullscreenenter"",""1"",""1783""
","
",,,,,,,,,,,,"[{""stimulus"":""run_exp/static/images/task_images/rocket-01.jpg"",""time"":0.40000009536743164},{""stimulus"":""run_exp/static/images/task_images/rocket-02.jpg"",""time"":1063.8000000715256},{""stimulus"":""run_exp/static/images/task_images/rocket-03.jpg"",""time"":2125.100000023842},{""stimulus"":""run_exp/static/images/task_images/rocket-04.jpg"",""time"":3176.2000000476837},{""stimulus"":""run_exp/static/images/task_images/rocket-05.jpg"",""time"":4227.5},{""stimulus"":""run_exp/static/images/task_images/rocket-06.jpg"",""time"":5290.5},{""stimulus"":""run_exp/static/images/task_images/rocket-07.jpg"",""time"":6347.900000095367},{""stimulus"":""run_exp/static/images/task_images/rocket-08.jpg"",""time"":7399.400000095367},{""stimulus"":""run_exp/static/images/task_images/rocket-09.jpg"",""time"":8451.600000023842}]",[],3,,,,,,,,,,,,,,
alien_welcome,102,400476,0.0-34.0-1.0,"""event"",""trial"",""time""
""fullscreenenter"",""1"",""1783""
","
","
","""event"",""trial"",""time""
""fullscreenenter"",""1"",""1783""
","
",,null,run_exp/static/images/task_images/aliens/old_aliens/planet/alien_planet-70.jpg,null,,,,,,,,,,,,,70,"49,80,8,70,28,66,46,15,21,77,58,30,71,34,53,64,76,48,5,73,62,51,55,17,60,41,74,36,50,12,37,69,1,2,7,75,47,26",,,,,,,,,,
land,103,400978,0.0-34.0-2.0,"""event"",""trial"",""time""
""fullscreenenter"",""1"",""1783""
","
","
","""event"",""trial"",""time""
""fullscreenenter"",""1"",""1783""
","
",,null,run_exp/static/images/task_images/land.jpg,null,,,,,,,95,,,4,,,,,,,,,,,,,,
dig,104,402988,0.0-34.0-3.0,"""event"",""trial"",""time""
""fullscreenenter"",""1"",""1783""
","
","
","""event"",""trial"",""time""
""fullscreenenter"",""1"",""1783""
","
",,,,,,,,,,,,"[{""stimulus"":""run_exp/static/images/task_images/dig.jpg"",""time"":0.40000009536743164},{""stimulus"":""run_exp/static/images/task_images/land.jpg"",""time"":670.4000000953674},{""stimulus"":""run_exp/static/images/task_images/dig.jpg"",""time"":1339.2000000476837}]",[],4,,,,,,,,,,,,,,
harvest,105,403992,0.0-34.0-4.0,"""event"",""trial"",""time""
""fullscreenenter"",""1"",""1783""
","
","
","""event"",""trial"",""time""
""fullscreenenter"",""1"",""1783""
","
",,null,run_exp/static/images/task_images/gems/95.jpg,null,,,,,,,42,,,4,,,,,95,0.440190014,0.442105263,,,,,,,
decision,106,404300,0.0-34.0-5.0,"""event"",""trial"",""time""
""fullscreenenter"",""1"",""1783""
","
","
","""event"",""trial"",""time""
""fullscreenenter"",""1"",""1783""
","
",,306.2,run_exp/static/images/task_images/land.jpg,65,,,,,,,42,,,4,,,,,,,,96667,1,0,FALSE,,,
dig,107,407004,0.0-35.0-0.0,"""event"",""trial"",""time""
""fullscreenenter"",""1"",""1783""
","
","
","""event"",""trial"",""time""
""fullscreenenter"",""1"",""1783""
","
",,,,,,,,,,,,"[{""stimulus"":""run_exp/static/images/task_images/dig.jpg"",""time"":0.30000007152557373},{""stimulus"":""run_exp/static/images/task_images/land.jpg"",""time"":911.4000000953674},{""stimulus"":""run_exp/static/images/task_images/dig.jpg"",""time"":1803.6000000238419}]",[],4,,,,,,,,,,,,,,
harvest,108,408013,0.0-35.0-1.0,"""event"",""trial"",""time""
""fullscreenenter"",""1"",""1783""
","
","
","""event"",""trial"",""time""
""fullscreenenter"",""1"",""1783""
","
",,null,run_exp/static/images/task_images/gems/42.jpg,null,,,,,,,23,,,4,,,,,42,0.542566618,0.547619048,,,,,,,
decision,109,408249,0.0-35.0-2.0,"""event"",""trial"",""time""
""fullscreenenter"",""1"",""1783""
","
","
","""event"",""trial"",""time""
""fullscreenenter"",""1"",""1783""
","
",,233.8000001,run_exp/static/images/task_images/land.jpg,65,,,,,,,23,,,4,,,,,,,,100616,1,1,FALSE,,,
dig,110,411039,0.0-36.0-0.0,"""event"",""trial"",""time""
""fullscreenenter"",""1"",""1783""
","
","
","""event"",""trial"",""time""
""fullscreenenter"",""1"",""1783""
","
",,,,,,,,,,,,"[{""stimulus"":""run_exp/static/images/task_images/dig.jpg"",""time"":0.30000007152557373},{""stimulus"":""run_exp/static/images/task_images/land.jpg"",""time"":925},{""stimulus"":""run_exp/static/images/task_images/dig.jpg"",""time"":1847.2000000476837}]",[],4,,,,,,,,,,,,,,
harvest,111,412043,0.0-36.0-1.0,"""event"",""trial"",""time""
""fullscreenenter"",""1"",""1783""
","
","
","""event"",""trial"",""time""
""fullscreenenter"",""1"",""1783""
","
",,null,run_exp/static/images/task_images/gems/23.jpg,null,,,,,,,13,,,4,,,,,23,0.570237821,0.565217391,,,,,,,
decision,112,412353,0.0-36.0-2.0,"""event"",""trial"",""time""
""fullscreenenter"",""1"",""1783""
","
","
","""event"",""trial"",""time""
""fullscreenenter"",""1"",""1783""
","
",,308,run_exp/static/images/task_images/land.jpg,65,,,,,,,13,,,4,,,,,,,,104720,1,2,FALSE,,,
dig,113,415056,0.0-37.0-0.0,"""event"",""trial"",""time""
""fullscreenenter"",""1"",""1783""
","
","
","""event"",""trial"",""time""
""fullscreenenter"",""1"",""1783""
","
",,,,,,,,,,,,"[{""stimulus"":""run_exp/static/images/task_images/dig.jpg"",""time"":0.5},{""stimulus"":""run_exp/static/images/task_images/land.jpg"",""time"":904.2999999523163},{""stimulus"":""run_exp/static/images/task_images/dig.jpg"",""time"":1800.2999999523163}]",[],4,,,,,,,,,,,,,,
harvest,114,416070,0.0-37.0-1.0,"""event"",""trial"",""time""
""fullscreenenter"",""1"",""1783""
","
","
","""event"",""trial"",""time""
""fullscreenenter"",""1"",""1783""
","
",,null,run_exp/static/images/task_images/gems/13.jpg,null,,,,,,,7,,,4,,,,,13,0.551674156,0.538461538,,,,,,,
decision,115,416394,0.0-37.0-2.0,"""event"",""trial"",""time""
""fullscreenenter"",""1"",""1783""
","
","
","""event"",""trial"",""time""
""fullscreenenter"",""1"",""1783""
","
",,322.1,run_exp/static/images/task_images/land.jpg,76,,,,,,,7,,,4,,,,,,,,108761,1,3,TRUE,,,
travel,116,426087,0.0-38.0-0.0,"""event"",""trial"",""time""
""fullscreenenter"",""1"",""1783""
","
","
","""event"",""trial"",""time""
""fullscreenenter"",""1"",""1783""
","
",,,,,,,,,,,,"[{""stimulus"":""run_exp/static/images/task_images/rocket-01.jpg"",""time"":0.2999999523162842},{""stimulus"":""run_exp/static/images/task_images/rocket-02.jpg"",""time"":1085.6000000238419},{""stimulus"":""run_exp/static/images/task_images/rocket-03.jpg"",""time"":2165.399999976158},{""stimulus"":""run_exp/static/images/task_images/rocket-04.jpg"",""time"":3230.6999999284744},{""stimulus"":""run_exp/static/images/task_images/rocket-05.jpg"",""time"":4308.5},{""stimulus"":""run_exp/static/images/task_images/rocket-06.jpg"",""time"":5388.399999976158},{""stimulus"":""run_exp/static/images/task_images/rocket-07.jpg"",""time"":6452},{""stimulus"":""run_exp/static/images/task_images/rocket-08.jpg"",""time"":7537},{""stimulus"":""run_exp/static/images/task_images/rocket-09.jpg"",""time"":8603.299999952316}]",[],4,,,,,,,,,,,,,,
alien_welcome,117,431098,0.0-38.0-1.0,"""event"",""trial"",""time""
""fullscreenenter"",""1"",""1783""
","
","
","""event"",""trial"",""time""
""fullscreenenter"",""1"",""1783""
","
",,null,run_exp/static/images/task_images/aliens/old_aliens/planet/alien_planet-28.jpg,null,,,,,,,,,,,,,28,"49,80,8,70,28,66,46,15,21,77,58,30,71,34,53,64,76,48,5,73,62,51,55,17,60,41,74,36,50,12,37,69,1,2,7,75,47,26",,,,,,,,,,
land,118,431600,0.0-38.0-2.0,"""event"",""trial"",""time""
""fullscreenenter"",""1"",""1783""
","
","
","""event"",""trial"",""time""
""fullscreenenter"",""1"",""1783""
","
",,null,run_exp/static/images/task_images/land.jpg,null,,,,,,,95,,,5,,,,,,,,,,,,,,
dig,119,433618,0.0-38.0-3.0,"""event"",""trial"",""time""
""fullscreenenter"",""1"",""1783""
","
","
","""event"",""trial"",""time""
""fullscreenenter"",""1"",""1783""
","
",,,,,,,,,,,,"[{""stimulus"":""run_exp/static/images/task_images/dig.jpg"",""time"":0.5},{""stimulus"":""run_exp/static/images/task_images/land.jpg"",""time"":672.5999999046326},{""stimulus"":""run_exp/static/images/task_images/dig.jpg"",""time"":1344.6999999284744}]",[],5,,,,,,,,,,,,,,
harvest,120,434620,0.0-38.0-4.0,"""event"",""trial"",""time""
""fullscreenenter"",""1"",""1783""
","
","
","""event"",""trial"",""time""
""fullscreenenter"",""1"",""1783""
","
",,null,run_exp/static/images/task_images/gems/95.jpg,null,,,,,,,53,,,5,,,,,95,0.559930029,0.557894737,,,,,,,
decision,121,434997,0.0-38.0-5.0,"""event"",""trial"",""time""
""fullscreenenter"",""1"",""1783""
","
","
","""event"",""trial"",""time""
""fullscreenenter"",""1"",""1783""
","
",,374.5999999,run_exp/static/images/task_images/land.jpg,65,,,,,,,53,,,5,,,,,,,,127364,1,0,FALSE,,,
dig,122,437629,0.0-39.0-0.0,"""event"",""trial"",""time""
""fullscreenenter"",""1"",""1783""
","
","
","""event"",""trial"",""time""
""fullscreenenter"",""1"",""1783""
","
",,,,,,,,,,,,"[{""stimulus"":""run_exp/static/images/task_images/dig.jpg"",""time"":0.30000007152557373},{""stimulus"":""run_exp/static/images/task_images/land.jpg"",""time"":887.8000000715256},{""stimulus"":""run_exp/static/images/task_images/dig.jpg"",""time"":1752.4000000953674}]",[],5,,,,,,,,,,,,,,
harvest,123,438638,0.0-39.0-1.0,"""event"",""trial"",""time""
""fullscreenenter"",""1"",""1783""
","
","
","""event"",""trial"",""time""
""fullscreenenter"",""1"",""1783""
","
",,null,run_exp/static/images/task_images/gems/53.jpg,null,,,,,,,25,,,5,,,,,53,0.472838395,0.471698113,,,,,,,
decision,124,438875,0.0-39.0-2.0,"""event"",""trial"",""time""
""fullscreenenter"",""1"",""1783""
","
","
","""event"",""trial"",""time""
""fullscreenenter"",""1"",""1783""
","
",,234.8,run_exp/static/images/task_images/land.jpg,65,,,,,,,25,,,5,,,,,,,,131243,1,1,FALSE,,,
dig,125,441655,0.0-40.0-0.0,"""event"",""trial"",""time""
""fullscreenenter"",""1"",""1783""
","
","
","""event"",""trial"",""time""
""fullscreenenter"",""1"",""1783""
","
",,,,,,,,,,,,"[{""stimulus"":""run_exp/static/images/task_images/dig.jpg"",""time"":0.30000007152557373},{""stimulus"":""run_exp/static/images/task_images/land.jpg"",""time"":928.5},{""stimulus"":""run_exp/static/images/task_images/dig.jpg"",""time"":1851.7000000476837}]",[],5,,,,,,,,,,,,,,
harvest,126,442660,0.0-40.0-1.0,"""event"",""trial"",""time""
""fullscreenenter"",""1"",""1783""
","
","
","""event"",""trial"",""time""
""fullscreenenter"",""1"",""1783""
","
",,null,run_exp/static/images/task_images/gems/25.jpg,null,,,,,,,11,,,5,,,,,25,0.452082599,0.44,,,,,,,
decision,127,443026,0.0-40.0-2.0,"""event"",""trial"",""time""
""fullscreenenter"",""1"",""1783""
","
","
","""event"",""trial"",""time""
""fullscreenenter"",""1"",""1783""
","
",,363.6,run_exp/static/images/task_images/land.jpg,65,,,,,,,11,,,5,,,,,,,,135393,1,2,FALSE,,,
dig,128,445674,0.0-41.0-0.0,"""event"",""trial"",""time""
""fullscreenenter"",""1"",""1783""
","
","
","""event"",""trial"",""time""
""fullscreenenter"",""1"",""1783""
","
",,,,,,,,,,,,"[{""stimulus"":""run_exp/static/images/task_images/dig.jpg"",""time"":0.3999999761581421},{""stimulus"":""run_exp/static/images/task_images/land.jpg"",""time"":890.7000000476837},{""stimulus"":""run_exp/static/images/task_images/dig.jpg"",""time"":1765.2000000476837}]",[],5,,,,,,,,,,,,,,
harvest,129,446680,0.0-41.0-1.0,"""event"",""trial"",""time""
""fullscreenenter"",""1"",""1783""
","
","
","""event"",""trial"",""time""
""fullscreenenter"",""1"",""1783""
","
",,null,run_exp/static/images/task_images/gems/11.jpg,null,,,,,,,5,,,5,,,,,11,0.475985838,0.454545455,,,,,,,
decision,130,446709,0.0-41.0-2.0,"""event"",""trial"",""time""
""fullscreenenter"",""1"",""1783""
","
","
","""event"",""trial"",""time""
""fullscreenenter"",""1"",""1783""
","
",,27.30000007,run_exp/static/images/task_images/land.jpg,76,,,,,,,5,,,5,,,,,,,,139076,1,3,TRUE,,,
travel,131,456698,0.0-42.0-0.0,"""event"",""trial"",""time""
""fullscreenenter"",""1"",""1783""
","
","
","""event"",""trial"",""time""
""fullscreenenter"",""1"",""1783""
","
",,,,,,,,,,,,"[{""stimulus"":""run_exp/static/images/task_images/rocket-01.jpg"",""time"":0.3999999761581421},{""stimulus"":""run_exp/static/images/task_images/rocket-02.jpg"",""time"":1118.6000000238419},{""stimulus"":""run_exp/static/images/task_images/rocket-03.jpg"",""time"":2228.100000023842},{""stimulus"":""run_exp/static/images/task_images/rocket-04.jpg"",""time"":3326.2999999523163},{""stimulus"":""run_exp/static/images/task_images/rocket-05.jpg"",""time"":4438.399999976158},{""stimulus"":""run_exp/static/images/task_images/rocket-06.jpg"",""time"":5553.399999976158},{""stimulus"":""run_exp/static/images/task_images/rocket-07.jpg"",""time"":6665.299999952316},{""stimulus"":""run_exp/static/images/task_images/rocket-08.jpg"",""time"":7760.799999952316},{""stimulus"":""run_exp/static/images/task_images/rocket-09.jpg"",""time"":8872.399999976158}]",[],5,,,,,,,,,,,,,,
alien_welcome,132,461713,0.0-42.0-1.0,"""event"",""trial"",""time""
""fullscreenenter"",""1"",""1783""
","
","
","""event"",""trial"",""time""
""fullscreenenter"",""1"",""1783""
","
",,null,run_exp/static/images/task_images/aliens/old_aliens/planet/alien_planet-66.jpg,null,,,,,,,,,,,,,66,"49,80,8,70,28,66,46,15,21,77,58,30,71,34,53,64,76,48,5,73,62,51,55,17,60,41,74,36,50,12,37,69,1,2,7,75,47,26",,,,,,,,,,
land,133,462228,0.0-42.0-2.0,"""event"",""trial"",""time""
""fullscreenenter"",""1"",""1783""
","
","
","""event"",""trial"",""time""
""fullscreenenter"",""1"",""1783""
","
",,null,run_exp/static/images/task_images/land.jpg,null,,,,,,,109,,,6,,,,,,,,,,,,,,
dig,134,464248,0.0-42.0-3.0,"""event"",""trial"",""time""
""fullscreenenter"",""1"",""1783""
","
","
","""event"",""trial"",""time""
""fullscreenenter"",""1"",""1783""
","
",,,,,,,,,,,,"[{""stimulus"":""run_exp/static/images/task_images/dig.jpg"",""time"":0.3999999761581421},{""stimulus"":""run_exp/static/images/task_images/land.jpg"",""time"":674.2999999523163},{""stimulus"":""run_exp/static/images/task_images/dig.jpg"",""time"":1344.7999999523163}]",[],6,,,,,,,,,,,,,,
harvest,135,465253,0.0-42.0-4.0,"""event"",""trial"",""time""
""fullscreenenter"",""1"",""1783""
","
","
","""event"",""trial"",""time""
""fullscreenenter"",""1"",""1783""
","
",,null,run_exp/static/images/task_images/gems/109.jpg,null,,,,,,,91,,,6,,,,,109,0.835117879,0.834862385,,,,,,,
decision,136,465936,0.0-42.0-5.0,"""event"",""trial"",""time""
""fullscreenenter"",""1"",""1783""
","
","
","""event"",""trial"",""time""
""fullscreenenter"",""1"",""1783""
","
",,680.4,run_exp/static/images/task_images/land.jpg,65,,,,,,,91,,,6,,,,,,,,158303,1,0,FALSE,,,
dig,137,468264,0.0-43.0-0.0,"""event"",""trial"",""time""
""fullscreenenter"",""1"",""1783""
","
","
","""event"",""trial"",""time""
""fullscreenenter"",""1"",""1783""
","
",,,,,,,,,,,,"[{""stimulus"":""run_exp/static/images/task_images/dig.jpg"",""time"":0.6000000238418579},{""stimulus"":""run_exp/static/images/task_images/land.jpg"",""time"":780.6000000238419},{""stimulus"":""run_exp/static/images/task_images/dig.jpg"",""time"":1549.5}]",[],6,,,,,,,,,,,,,,
harvest,138,469277,0.0-43.0-1.0,"""event"",""trial"",""time""
""fullscreenenter"",""1"",""1783""
","
","
","""event"",""trial"",""time""
""fullscreenenter"",""1"",""1783""
","
",,null,run_exp/static/images/task_images/gems/91.jpg,null,,,,,,,70,,,6,,,,,91,0.764614588,0.769230769,,,,,,,
decision,139,469533,0.0-43.0-2.0,"""event"",""trial"",""time""
""fullscreenenter"",""1"",""1783""
","
","
","""event"",""trial"",""time""
""fullscreenenter"",""1"",""1783""
","
",,253.1,run_exp/static/images/task_images/land.jpg,65,,,,,,,70,,,6,,,,,,,,161900,1,1,FALSE,,,
dig,140,472294,0.0-44.0-0.0,"""event"",""trial"",""time""
""fullscreenenter"",""1"",""1783""
","
","
","""event"",""trial"",""time""
""fullscreenenter"",""1"",""1783""
","
",,,,,,,,,,,,"[{""stimulus"":""run_exp/static/images/task_images/dig.jpg"",""time"":0.2999999523162842},{""stimulus"":""run_exp/static/images/task_images/land.jpg"",""time"":924.1000000238419},{""stimulus"":""run_exp/static/images/task_images/dig.jpg"",""time"":1844.7999999523163}]",[],6,,,,,,,,,,,,,,
harvest,141,473301,0.0-44.0-1.0,"""event"",""trial"",""time""
""fullscreenenter"",""1"",""1783""
","
","
","""event"",""trial"",""time""
""fullscreenenter"",""1"",""1783""
","
",,null,run_exp/static/images/task_images/gems/70.jpg,null,,,,,,,58,,,6,,,,,70,0.825512469,0.828571429,,,,,,,
decision,142,473537,0.0-44.0-2.0,"""event"",""trial"",""time""
""fullscreenenter"",""1"",""1783""
","
","
","""event"",""trial"",""time""
""fullscreenenter"",""1"",""1783""
","
",,233.9,run_exp/static/images/task_images/land.jpg,65,,,,,,,58,,,6,,,,,,,,165904,1,2,FALSE,,,
dig,143,476318,0.0-45.0-0.0,"""event"",""trial"",""time""
""fullscreenenter"",""1"",""1783""
","
","
","""event"",""trial"",""time""
""fullscreenenter"",""1"",""1783""
","
",,,,,,,,,,,,"[{""stimulus"":""run_exp/static/images/task_images/dig.jpg"",""time"":0.20000004768371582},{""stimulus"":""run_exp/static/images/task_images/land.jpg"",""time"":932},{""stimulus"":""run_exp/static/images/task_images/dig.jpg"",""time"":1857.7000000476837}]",[],6,,,,,,,,,,,,,,
harvest,144,477320,0.0-45.0-1.0,"""event"",""trial"",""time""
""fullscreenenter"",""1"",""1783""
","
","
","""event"",""trial"",""time""
""fullscreenenter"",""1"",""1783""
","
",,null,run_exp/static/images/task_images/gems/58.jpg,null,,,,,,,46,,,6,,,,,58,0.799395654,0.793103448,,,,,,,
decision,145,477575,0.0-45.0-2.0,"""event"",""trial"",""time""
""fullscreenenter"",""1"",""1783""
","
","
","""event"",""trial"",""time""
""fullscreenenter"",""1"",""1783""
","
",,253.1999999,run_exp/static/images/task_images/land.jpg,65,,,,,,,46,,,6,,,,,,,,169943,1,3,FALSE,,,
dig,146,480330,0.0-46.0-0.0,"""event"",""trial"",""time""
""fullscreenenter"",""1"",""1783""
","
","
","""event"",""trial"",""time""
""fullscreenenter"",""1"",""1783""
","
",,,,,,,,,,,,"[{""stimulus"":""run_exp/static/images/task_images/dig.jpg"",""time"":0.2999999523162842},{""stimulus"":""run_exp/static/images/task_images/land.jpg"",""time"":927.7999999523163},{""stimulus"":""run_exp/static/images/task_images/dig.jpg"",""time"":1837.6000000238419}]",[],6,,,,,,,,,,,,,,
harvest,147,481337,0.0-46.0-1.0,"""event"",""trial"",""time""
""fullscreenenter"",""1"",""1783""
","
","
","""event"",""trial"",""time""
""fullscreenenter"",""1"",""1783""
","
",,null,run_exp/static/images/task_images/gems/46.jpg,null,,,,,,,38,,,6,,,,,46,0.817249111,0.826086957,,,,,,,
decision,148,481576,0.0-46.0-2.0,"""event"",""trial"",""time""
""fullscreenenter"",""1"",""1783""
","
","
","""event"",""trial"",""time""
""fullscreenenter"",""1"",""1783""
","
",,236.9,run_exp/static/images/task_images/land.jpg,65,,,,,,,38,,,6,,,,,,,,173943,1,4,FALSE,,,
dig,149,484358,0.0-47.0-0.0,"""event"",""trial"",""time""
""fullscreenenter"",""1"",""1783""
","
","
","""event"",""trial"",""time""
""fullscreenenter"",""1"",""1783""
","
",,,,,,,,,,,,"[{""stimulus"":""run_exp/static/images/task_images/dig.jpg"",""time"":0.3999999761581421},{""stimulus"":""run_exp/static/images/task_images/land.jpg"",""time"":927.6000000238419},{""stimulus"":""run_exp/static/images/task_images/dig.jpg"",""time"":1852.8999999761581}]",[],6,,,,,,,,,,,,,,
harvest,150,485363,0.0-47.0-1.0,"""event"",""trial"",""time""
""fullscreenenter"",""1"",""1783""
","
","
","""event"",""trial"",""time""
""fullscreenenter"",""1"",""1783""
","
",,null,run_exp/static/images/task_images/gems/38.jpg,null,,,,,,,30,,,6,,,,,38,0.795139872,0.789473684,,,,,,,
decision,151,485720,0.0-47.0-2.0,"""event"",""trial"",""time""
""fullscreenenter"",""1"",""1783""
","
","
","""event"",""trial"",""time""
""fullscreenenter"",""1"",""1783""
","
",,354.6999999,run_exp/static/images/task_images/land.jpg,65,,,,,,,30,,,6,,,,,,,,178087,1,5,FALSE,,,
dig,152,488374,0.0-48.0-0.0,"""event"",""trial"",""time""
""fullscreenenter"",""1"",""1783""
","
","
","""event"",""trial"",""time""
""fullscreenenter"",""1"",""1783""
","
",,,,,,,,,,,,"[{""stimulus"":""run_exp/static/images/task_images/dig.jpg"",""time"":0.20000004768371582},{""stimulus"":""run_exp/static/images/task_images/land.jpg"",""time"":884.9000000953674},{""stimulus"":""run_exp/static/images/task_images/dig.jpg"",""time"":1775.9000000953674}]",[],6,,,,,,,,,,,,,,
harvest,153,489387,0.0-48.0-1.0,"""event"",""trial"",""time""
""fullscreenenter"",""1"",""1783""
","
","
","""event"",""trial"",""time""
""fullscreenenter"",""1"",""1783""
","
",,null,run_exp/static/images/task_images/gems/30.jpg,null,,,,,,,24,,,6,,,,,30,0.796161141,0.8,,,,,,,
decision,154,489702,0.0-48.0-2.0,"""event"",""trial"",""time""
""fullscreenenter"",""1"",""1783""
","
","
","""event"",""trial"",""time""
""fullscreenenter"",""1"",""1783""
","
",,312.1999999,run_exp/static/images/task_images/land.jpg,65,,,,,,,24,,,6,,,,,,,,182069,1,6,FALSE,,,
dig,155,492407,0.0-49.0-0.0,"""event"",""trial"",""time""
""fullscreenenter"",""1"",""1783""
","
","
","""event"",""trial"",""time""
""fullscreenenter"",""1"",""1783""
","
",,,,,,,,,,,,"[{""stimulus"":""run_exp/static/images/task_images/dig.jpg"",""time"":0.3999999761581421},{""stimulus"":""run_exp/static/images/task_images/land.jpg"",""time"":897.8999999761581},{""stimulus"":""run_exp/static/images/task_images/dig.jpg"",""time"":1806.6999999284744}]",[],6,,,,,,,,,,,,,,
harvest,156,493409,0.0-49.0-1.0,"""event"",""trial"",""time""
""fullscreenenter"",""1"",""1783""
","
","
","""event"",""trial"",""time""
""fullscreenenter"",""1"",""1783""
","
",,null,run_exp/static/images/task_images/gems/24.jpg,null,,,,,,,16,,,6,,,,,24,0.664946774,0.666666667,,,,,,,
decision,157,493669,0.0-49.0-2.0,"""event"",""trial"",""time""
""fullscreenenter"",""1"",""1783""
","
","
","""event"",""trial"",""time""
""fullscreenenter"",""1"",""1783""
","
",,258.0999999,run_exp/static/images/task_images/land.jpg,76,,,,,,,16,,,6,,,,,,,,186036,1,7,TRUE,,,
travel,158,503430,0.0-50.0-0.0,"""event"",""trial"",""time""
""fullscreenenter"",""1"",""1783""
","
","
","""event"",""trial"",""time""
""fullscreenenter"",""1"",""1783""
","
",,,,,,,,,,,,"[{""stimulus"":""run_exp/static/images/task_images/rocket-01.jpg"",""time"":0.2999999523162842},{""stimulus"":""run_exp/static/images/task_images/rocket-02.jpg"",""time"":1086},{""stimulus"":""run_exp/static/images/task_images/rocket-03.jpg"",""time"":2178.600000023842},{""stimulus"":""run_exp/static/images/task_images/rocket-04.jpg"",""time"":3254.100000023842},{""stimulus"":""run_exp/static/images/task_images/rocket-05.jpg"",""time"":4340.199999928474},{""stimulus"":""run_exp/static/images/task_images/rocket-06.jpg"",""time"":5422.299999952316},{""stimulus"":""run_exp/static/images/task_images/rocket-07.jpg"",""time"":6498.899999976158},{""stimulus"":""run_exp/static/images/task_images/rocket-08.jpg"",""time"":7576.899999976158},{""stimulus"":""run_exp/static/images/task_images/rocket-09.jpg"",""time"":8659.899999976158}]",[],6,,,,,,,,,,,,,,
alien_welcome,159,508448,0.0-50.0-1.0,"""event"",""trial"",""time""
""fullscreenenter"",""1"",""1783""
","
","
","""event"",""trial"",""time""
""fullscreenenter"",""1"",""1783""
","
",,null,run_exp/static/images/task_images/aliens/old_aliens/planet/alien_planet-46.jpg,null,,,,,,,,,,,,,46,"49,80,8,70,28,66,46,15,21,77,58,30,71,34,53,64,76,48,5,73,62,51,55,17,60,41,74,36,50,12,37,69,1,2,7,75,47,26",,,,,,,,,,
land,160,508963,0.0-50.0-2.0,"""event"",""trial"",""time""
""fullscreenenter"",""1"",""1783""
","
","
","""event"",""trial"",""time""
""fullscreenenter"",""1"",""1783""
","
",,null,run_exp/static/images/task_images/land.jpg,null,,,,,,,100,,,7,,,,,,,,,,,,,,
dig,161,510979,0.0-50.0-3.0,"""event"",""trial"",""time""
""fullscreenenter"",""1"",""1783""
","
","
","""event"",""trial"",""time""
""fullscreenenter"",""1"",""1783""
","
",,,,,,,,,,,,"[{""stimulus"":""run_exp/static/images/task_images/dig.jpg"",""time"":0.3999999761581421},{""stimulus"":""run_exp/static/images/task_images/land.jpg"",""time"":683.2999999523163},{""stimulus"":""run_exp/static/images/task_images/dig.jpg"",""time"":1338.6999999284744}]",[],7,,,,,,,,,,,,,,
harvest,162,511987,0.0-50.0-4.0,"""event"",""trial"",""time""
""fullscreenenter"",""1"",""1783""
","
","
","""event"",""trial"",""time""
""fullscreenenter"",""1"",""1783""
","
",,null,run_exp/static/images/task_images/gems/100.jpg,null,,,,,,,85,,,7,,,,,100,0.854663913,0.85,,,,,,,
decision,163,512807,0.0-50.0-5.0,"""event"",""trial"",""time""
""fullscreenenter"",""1"",""1783""
","
","
","""event"",""trial"",""time""
""fullscreenenter"",""1"",""1783""
","
",,816.8,run_exp/static/images/task_images/land.jpg,65,,,,,,,85,,,7,,,,,,,,205174,1,0,FALSE,,,
dig,164,514995,0.0-51.0-0.0,"""event"",""trial"",""time""
""fullscreenenter"",""1"",""1783""
","
","
","""event"",""trial"",""time""
""fullscreenenter"",""1"",""1783""
","
",,,,,,,,,,,,"[{""stimulus"":""run_exp/static/images/task_images/dig.jpg"",""time"":0.20000004768371582},{""stimulus"":""run_exp/static/images/task_images/land.jpg"",""time"":739.9000000953674},{""stimulus"":""run_exp/static/images/task_images/dig.jpg"",""time"":1462.7000000476837}]",[],7,,,,,,,,,,,,,,
harvest,165,516010,0.0-51.0-1.0,"""event"",""trial"",""time""
""fullscreenenter"",""1"",""1783""
","
","
","""event"",""trial"",""time""
""fullscreenenter"",""1"",""1783""
","
",,null,run_exp/static/images/task_images/gems/85.jpg,null,,,,,,,61,,,7,,,,,85,0.721191654,0.717647059,,,,,,,
decision,166,516340,0.0-51.0-2.0,"""event"",""trial"",""time""
""fullscreenenter"",""1"",""1783""
","
","
","""event"",""trial"",""time""
""fullscreenenter"",""1"",""1783""
","
",,327.1999999,run_exp/static/images/task_images/land.jpg,65,,,,,,,61,,,7,,,,,,,,208707,1,1,FALSE,,,
dig,167,519017,0.0-52.0-0.0,"""event"",""trial"",""time""
""fullscreenenter"",""1"",""1783""
","
","
","""event"",""trial"",""time""
""fullscreenenter"",""1"",""1783""
","
",,,,,,,,,,,,"[{""stimulus"":""run_exp/static/images/task_images/dig.jpg"",""time"":0.10000002384185791},{""stimulus"":""run_exp/static/images/task_images/land.jpg"",""time"":900.5},{""stimulus"":""run_exp/static/images/task_images/dig.jpg"",""time"":1795.8000000715256}]",[],7,,,,,,,,,,,,,,
harvest,168,520020,0.0-52.0-1.0,"""event"",""trial"",""time""
""fullscreenenter"",""1"",""1783""
","
","
","""event"",""trial"",""time""
""fullscreenenter"",""1"",""1783""
","
",,null,run_exp/static/images/task_images/gems/61.jpg,null,,,,,,,48,,,7,,,,,61,0.788335989,0.786885246,,,,,,,
decision,169,520115,0.0-52.0-2.0,"""event"",""trial"",""time""
""fullscreenenter"",""1"",""1783""
","
","
","""event"",""trial"",""time""
""fullscreenenter"",""1"",""1783""
","
",,93.10000002,run_exp/static/images/task_images/land.jpg,65,,,,,,,48,,,7,,,,,,,,212482,1,2,FALSE,,,
dig,170,523040,0.0-53.0-0.0,"""event"",""trial"",""time""
""fullscreenenter"",""1"",""1783""
","
","
","""event"",""trial"",""time""
""fullscreenenter"",""1"",""1783""
","
",,,,,,,,,,,,"[{""stimulus"":""run_exp/static/images/task_images/dig.jpg"",""time"":0.30000007152557373},{""stimulus"":""run_exp/static/images/task_images/land.jpg"",""time"":976.1000000238419},{""stimulus"":""run_exp/static/images/task_images/dig.jpg"",""time"":1942.8999999761581}]",[],7,,,,,,,,,,,,,,
harvest,171,524056,0.0-53.0-1.0,"""event"",""trial"",""time""
""fullscreenenter"",""1"",""1783""
","
","
","""event"",""trial"",""time""
""fullscreenenter"",""1"",""1783""
","
",,null,run_exp/static/images/task_images/gems/48.jpg,null,,,,,,,41,,,7,,,,,48,0.850302618,0.854166667,,,,,,,
decision,172,524389,0.0-53.0-2.0,"""event"",""trial"",""time""
""fullscreenenter"",""1"",""1783""
","
","
","""event"",""trial"",""time""
""fullscreenenter"",""1"",""1783""
","
",,330.9,run_exp/static/images/task_images/land.jpg,65,,,,,,,41,,,7,,,,,,,,216756,1,3,FALSE,,,
dig,173,527076,0.0-54.0-0.0,"""event"",""trial"",""time""
""fullscreenenter"",""1"",""1783""
","
","
","""event"",""trial"",""time""
""fullscreenenter"",""1"",""1783""
","
",,,,,,,,,,,,"[{""stimulus"":""run_exp/static/images/task_images/dig.jpg"",""time"":0.40000009536743164},{""stimulus"":""run_exp/static/images/task_images/land.jpg"",""time"":894.9000000953674},{""stimulus"":""run_exp/static/images/task_images/dig.jpg"",""time"":1791.4000000953674}]",[],7,,,,,,,,,,,,,,
harvest,174,528089,0.0-54.0-1.0,"""event"",""trial"",""time""
""fullscreenenter"",""1"",""1783""
","
","
","""event"",""trial"",""time""
""fullscreenenter"",""1"",""1783""
","
",,null,run_exp/static/images/task_images/gems/41.jpg,null,,,,,,,30,,,7,,,,,41,0.729955669,0.731707317,,,,,,,
decision,175,528406,0.0-54.0-2.0,"""event"",""trial"",""time""
""fullscreenenter"",""1"",""1783""
","
","
","""event"",""trial"",""time""
""fullscreenenter"",""1"",""1783""
","
",,314.8,run_exp/static/images/task_images/land.jpg,65,,,,,,,30,,,7,,,,,,,,220773,1,4,FALSE,,,
dig,176,531105,0.0-55.0-0.0,"""event"",""trial"",""time""
""fullscreenenter"",""1"",""1783""
","
","
","""event"",""trial"",""time""
""fullscreenenter"",""1"",""1783""
","
",,,,,,,,,,,,"[{""stimulus"":""run_exp/static/images/task_images/dig.jpg"",""time"":0.3999999761581421},{""stimulus"":""run_exp/static/images/task_images/land.jpg"",""time"":897.2999999523163},{""stimulus"":""run_exp/static/images/task_images/dig.jpg"",""time"":1795.5999999046326}]",[],7,,,,,,,,,,,,,,
harvest,177,532109,0.0-55.0-1.0,"""event"",""trial"",""time""
""fullscreenenter"",""1"",""1783""
","
","
","""event"",""trial"",""time""
""fullscreenenter"",""1"",""1783""
","
",,null,run_exp/static/images/task_images/gems/30.jpg,null,,,,,,,22,,,7,,,,,30,0.748029551,0.733333333,,,,,,,
decision,178,532415,0.0-55.0-2.0,"""event"",""trial"",""time""
""fullscreenenter"",""1"",""1783""
","
","
","""event"",""trial"",""time""
""fullscreenenter"",""1"",""1783""
","
",,304.0999999,run_exp/static/images/task_images/land.jpg,65,,,,,,,22,,,7,,,,,,,,224782,1,5,FALSE,,,
dig,179,535129,0.0-56.0-0.0,"""event"",""trial"",""time""
""fullscreenenter"",""1"",""1783""
","
","
","""event"",""trial"",""time""
""fullscreenenter"",""1"",""1783""
","
",,,,,,,,,,,,"[{""stimulus"":""run_exp/static/images/task_images/dig.jpg"",""time"":0.2999999523162842},{""stimulus"":""run_exp/static/images/task_images/land.jpg"",""time"":908.1000000238419},{""stimulus"":""run_exp/static/images/task_images/dig.jpg"",""time"":1799.2000000476837}]",[],7,,,,,,,,,,,,,,
harvest,180,536135,0.0-56.0-1.0,"""event"",""trial"",""time""
""fullscreenenter"",""1"",""1783""
","
","
","""event"",""trial"",""time""
""fullscreenenter"",""1"",""1783""
","
",,null,run_exp/static/images/task_images/gems/22.jpg,null,,,,,,,18,,,7,,,,,22,0.807143747,0.818181818,,,,,,,
decision,181,536391,0.0-56.0-2.0,"""event"",""trial"",""time""
""fullscreenenter"",""1"",""1783""
","
","
","""event"",""trial"",""time""
""fullscreenenter"",""1"",""1783""
","
",,253.3000001,run_exp/static/images/task_images/land.jpg,76,,,,,,,18,,,7,,,,,,,,228758,1,6,TRUE,,,
travel,182,546144,0.0-57.0-0.0,"""event"",""trial"",""time""
""fullscreenenter"",""1"",""1783""
","
","
","""event"",""trial"",""time""
""fullscreenenter"",""1"",""1783""
","
",,,,,,,,,,,,"[{""stimulus"":""run_exp/static/images/task_images/rocket-01.jpg"",""time"":0.3999999761581421},{""stimulus"":""run_exp/static/images/task_images/rocket-02.jpg"",""time"":1097.5},{""stimulus"":""run_exp/static/images/task_images/rocket-03.jpg"",""time"":2172.7999999523163},{""stimulus"":""run_exp/static/images/task_images/rocket-04.jpg"",""time"":3255.399999976158},{""stimulus"":""run_exp/static/images/task_images/rocket-05.jpg"",""time"":4336.5},{""stimulus"":""run_exp/static/images/task_images/rocket-06.jpg"",""time"":5420},{""stimulus"":""run_exp/static/images/task_images/rocket-07.jpg"",""time"":6501.5},{""stimulus"":""run_exp/static/images/task_images/rocket-08.jpg"",""time"":7582.600000023842},{""stimulus"":""run_exp/static/images/task_images/rocket-09.jpg"",""time"":8661.299999952316}]",[],7,,,,,,,,,,,,,,
alien_welcome,183,551150,0.0-57.0-1.0,"""event"",""trial"",""time""
""fullscreenenter"",""1"",""1783""
","
","
","""event"",""trial"",""time""
""fullscreenenter"",""1"",""1783""
","
",,null,run_exp/static/images/task_images/aliens/old_aliens/planet/alien_planet-15.jpg,null,,,,,,,,,,,,,15,"49,80,8,70,28,66,46,15,21,77,58,30,71,34,53,64,76,48,5,73,62,51,55,17,60,41,74,36,50,12,37,69,1,2,7,75,47,26",,,,,,,,,,
land,184,551664,0.0-57.0-2.0,"""event"",""trial"",""time""
""fullscreenenter"",""1"",""1783""
","
","
","""event"",""trial"",""time""
""fullscreenenter"",""1"",""1783""
","
",,null,run_exp/static/images/task_images/land.jpg,null,,,,,,,97,,,8,,,,,,,,,,,,,,
dig,185,553673,0.0-57.0-3.0,"""event"",""trial"",""time""
""fullscreenenter"",""1"",""1783""
","
","
","""event"",""trial"",""time""
""fullscreenenter"",""1"",""1783""
","
",,,,,,,,,,,,"[{""stimulus"":""run_exp/static/images/task_images/dig.jpg"",""time"":0.3999999761581421},{""stimulus"":""run_exp/static/images/task_images/land.jpg"",""time"":674.1000000238419},{""stimulus"":""run_exp/static/images/task_images/dig.jpg"",""time"":1350.8999999761581}]",[],8,,,,,,,,,,,,,,
harvest,186,554676,0.0-57.0-4.0,"""event"",""trial"",""time""
""fullscreenenter"",""1"",""1783""
","
","
","""event"",""trial"",""time""
""fullscreenenter"",""1"",""1783""
","
",,null,run_exp/static/images/task_images/gems/97.jpg,null,,,,,,,80,,,8,,,,,97,0.819630814,0.824742268,,,,,,,
decision,187,555450,0.0-57.0-5.0,"""event"",""trial"",""time""
""fullscreenenter"",""1"",""1783""
","
","
","""event"",""trial"",""time""
""fullscreenenter"",""1"",""1783""
","
",,772.5,run_exp/static/images/task_images/land.jpg,65,,,,,,,80,,,8,,,,,,,,247818,1,0,FALSE,,,
dig,188,557690,0.0-58.0-0.0,"""event"",""trial"",""time""
""fullscreenenter"",""1"",""1783""
","
","
","""event"",""trial"",""time""
""fullscreenenter"",""1"",""1783""
","
",,,,,,,,,,,,"[{""stimulus"":""run_exp/static/images/task_images/dig.jpg"",""time"":0.20000004768371582},{""stimulus"":""run_exp/static/images/task_images/land.jpg"",""time"":754},{""stimulus"":""run_exp/static/images/task_images/dig.jpg"",""time"":1487.5}]",[],8,,,,,,,,,,,,,,
harvest,189,558693,0.0-58.0-1.0,"""event"",""trial"",""time""
""fullscreenenter"",""1"",""1783""
","
","
","""event"",""trial"",""time""
""fullscreenenter"",""1"",""1783""
","
",,null,run_exp/static/images/task_images/gems/80.jpg,null,,,,,,,71,,,8,,,,,80,0.892742404,0.8875,,,,,,,
decision,190,558979,0.0-58.0-2.0,"""event"",""trial"",""time""
""fullscreenenter"",""1"",""1783""
","
","
","""event"",""trial"",""time""
""fullscreenenter"",""1"",""1783""
","
",,283.6,run_exp/static/images/task_images/land.jpg,65,,,,,,,71,,,8,,,,,,,,251346,1,1,FALSE,,,
dig,191,561707,0.0-59.0-0.0,"""event"",""trial"",""time""
""fullscreenenter"",""1"",""1783""
","
","
","""event"",""trial"",""time""
""fullscreenenter"",""1"",""1783""
","
",,,,,,,,,,,,"[{""stimulus"":""run_exp/static/images/task_images/dig.jpg"",""time"":0.3999999761581421},{""stimulus"":""run_exp/static/images/task_images/land.jpg"",""time"":912.8999999761581},{""stimulus"":""run_exp/static/images/task_images/dig.jpg"",""time"":1822.3999999761581}]",[],8,,,,,,,,,,,,,,
harvest,192,562724,0.0-59.0-1.0,"""event"",""trial"",""time""
""fullscreenenter"",""1"",""1783""
","
","
","""event"",""trial"",""time""
""fullscreenenter"",""1"",""1783""
","
",,null,run_exp/static/images/task_images/gems/71.jpg,null,,,,,,,63,,,8,,,,,71,0.882392691,0.887323944,,,,,,,
decision,193,563353,0.0-59.0-2.0,"""event"",""trial"",""time""
""fullscreenenter"",""1"",""1783""
","
","
","""event"",""trial"",""time""
""fullscreenenter"",""1"",""1783""
","
",,626.6999999,run_exp/static/images/task_images/land.jpg,65,,,,,,,63,,,8,,,,,,,,255721,1,2,FALSE,,,
dig,194,565743,0.0-60.0-0.0,"""event"",""trial"",""time""
""fullscreenenter"",""1"",""1783""
","
","
","""event"",""trial"",""time""
""fullscreenenter"",""1"",""1783""
","
",,,,,,,,,,,,"[{""stimulus"":""run_exp/static/images/task_images/dig.jpg"",""time"":0.3999999761581421},{""stimulus"":""run_exp/static/images/task_images/land.jpg"",""time"":805.1999999284744},{""stimulus"":""run_exp/static/images/task_images/dig.jpg"",""time"":1583.8999999761581}]",[],8,,,,,,,,,,,,,,
harvest,195,566754,0.0-60.0-1.0,"""event"",""trial"",""time""
""fullscreenenter"",""1"",""1783""
","
","
","""event"",""trial"",""time""
""fullscreenenter"",""1"",""1783""
","
",,null,run_exp/static/images/task_images/gems/63.jpg,null,,,,,,,53,,,8,,,,,63,0.844600062,0.841269841,,,,,,,
decision,196,567274,0.0-60.0-2.0,"""event"",""trial"",""time""
""fullscreenenter"",""1"",""1783""
","
","
","""event"",""trial"",""time""
""fullscreenenter"",""1"",""1783""
","
",,518.2,run_exp/static/images/task_images/land.jpg,65,,,,,,,53,,,8,,,,,,,,259641,1,3,FALSE,,,
dig,197,569776,0.0-61.0-0.0,"""event"",""trial"",""time""
""fullscreenenter"",""1"",""1783""
","
","
","""event"",""trial"",""time""
""fullscreenenter"",""1"",""1783""
","
",,,,,,,,,,,,"[{""stimulus"":""run_exp/static/images/task_images/dig.jpg"",""time"":0.3999999761581421},{""stimulus"":""run_exp/static/images/task_images/land.jpg"",""time"":833.5999999046326},{""stimulus"":""run_exp/static/images/task_images/dig.jpg"",""time"":1667.2999999523163}]",[],8,,,,,,,,,,,,,,
harvest,198,570779,0.0-61.0-1.0,"""event"",""trial"",""time""
""fullscreenenter"",""1"",""1783""
","
","
","""event"",""trial"",""time""
""fullscreenenter"",""1"",""1783""
","
",,null,run_exp/static/images/task_images/gems/53.jpg,null,,,,,,,44,,,8,,,,,53,0.823498564,0.830188679,,,,,,,
decision,199,571356,0.0-61.0-2.0,"""event"",""trial"",""time""
""fullscreenenter"",""1"",""1783""
","
","
","""event"",""trial"",""time""
""fullscreenenter"",""1"",""1783""
","
",,574.2,run_exp/static/images/task_images/land.jpg,65,,,,,,,44,,,8,,,,,,,,263723,1,4,FALSE,,,
dig,200,573796,0.0-62.0-0.0,"""event"",""trial"",""time""
""fullscreenenter"",""1"",""1783""
","
","
","""event"",""trial"",""time""
""fullscreenenter"",""1"",""1783""
","
",,,,,,,,,,,,"[{""stimulus"":""run_exp/static/images/task_images/dig.jpg"",""time"":0.09999990463256836},{""stimulus"":""run_exp/static/images/task_images/land.jpg"",""time"":824},{""stimulus"":""run_exp/static/images/task_images/dig.jpg"",""time"":1621}]",[],8,,,,,,,,,,,,,,
harvest,201,574806,0.0-62.0-1.0,"""event"",""trial"",""time""
""fullscreenenter"",""1"",""1783""
","
","
","""event"",""trial"",""time""
""fullscreenenter"",""1"",""1783""
","
",,null,run_exp/static/images/task_images/gems/44.jpg,null,,,,,,,41,,,8,,,,,44,0.923158088,0.931818182,,,,,,,
decision,202,575140,0.0-62.0-2.0,"""event"",""trial"",""time""
""fullscreenenter"",""1"",""1783""
","
","
","""event"",""trial"",""time""
""fullscreenenter"",""1"",""1783""
","
",,332.1,run_exp/static/images/task_images/land.jpg,65,,,,,,,41,,,8,,,,,,,,267507,1,5,FALSE,,,
dig,203,577818,0.0-63.0-0.0,"""event"",""trial"",""time""
""fullscreenenter"",""1"",""1783""
","
","
","""event"",""trial"",""time""
""fullscreenenter"",""1"",""1783""
","
",,,,,,,,,,,,"[{""stimulus"":""run_exp/static/images/task_images/dig.jpg"",""time"":0.2999999523162842},{""stimulus"":""run_exp/static/images/task_images/land.jpg"",""time"":899.8999999761581},{""stimulus"":""run_exp/static/images/task_images/dig.jpg"",""time"":1793.5}]",[],8,,,,,,,,,,,,,,
harvest,204,578836,0.0-63.0-1.0,"""event"",""trial"",""time""
""fullscreenenter"",""1"",""1783""
","
","
","""event"",""trial"",""time""
""fullscreenenter"",""1"",""1783""
","
",,null,run_exp/static/images/task_images/gems/41.jpg,null,,,,,,,35,,,8,,,,,41,0.865628136,0.853658537,,,,,,,
decision,205,579116,0.0-63.0-2.0,"""event"",""trial"",""time""
""fullscreenenter"",""1"",""1783""
","
","
","""event"",""trial"",""time""
""fullscreenenter"",""1"",""1783""
","
",,277.6,run_exp/static/images/task_images/land.jpg,65,,,,,,,35,,,8,,,,,,,,271483,1,6,FALSE,,,
dig,206,581858,0.0-64.0-0.0,"""event"",""trial"",""time""
""fullscreenenter"",""1"",""1783""
","
","
","""event"",""trial"",""time""
""fullscreenenter"",""1"",""1783""
","
",,,,,,,,,,,,"[{""stimulus"":""run_exp/static/images/task_images/dig.jpg"",""time"":0.30000007152557373},{""stimulus"":""run_exp/static/images/task_images/land.jpg"",""time"":917.2000000476837},{""stimulus"":""run_exp/static/images/task_images/dig.jpg"",""time"":1827.1000000238419}]",[],8,,,,,,,,,,,,,,
harvest,207,582871,0.0-64.0-1.0,"""event"",""trial"",""time""
""fullscreenenter"",""1"",""1783""
","
","
","""event"",""trial"",""time""
""fullscreenenter"",""1"",""1783""
","
",,null,run_exp/static/images/task_images/gems/35.jpg,null,,,,,,,30,,,8,,,,,35,0.859247555,0.857142857,,,,,,,
decision,208,583280,0.0-64.0-2.0,"""event"",""trial"",""time""
""fullscreenenter"",""1"",""1783""
","
","
","""event"",""trial"",""time""
""fullscreenenter"",""1"",""1783""
","
",,406.3000001,run_exp/static/images/task_images/land.jpg,65,,,,,,,30,,,8,,,,,,,,275647,1,7,FALSE,,,
dig,209,585895,0.0-65.0-0.0,"""event"",""trial"",""time""
""fullscreenenter"",""1"",""1783""
","
","
","""event"",""trial"",""time""
""fullscreenenter"",""1"",""1783""
","
",,,,,,,,,,,,"[{""stimulus"":""run_exp/static/images/task_images/dig.jpg"",""time"":0.40000009536743164},{""stimulus"":""run_exp/static/images/task_images/land.jpg"",""time"":868.9000000953674},{""stimulus"":""run_exp/static/images/task_images/dig.jpg"",""time"":1743.9000000953674}]",[],8,,,,,,,,,,,,,,
harvest,210,586903,0.0-65.0-1.0,"""event"",""trial"",""time""
""fullscreenenter"",""1"",""1783""
","
","
","""event"",""trial"",""time""
""fullscreenenter"",""1"",""1783""
","
",,null,run_exp/static/images/task_images/gems/30.jpg,null,,,,,,,25,,,8,,,,,30,0.831479023,0.833333333,,,,,,,
decision,211,587212,0.0-65.0-2.0,"""event"",""trial"",""time""
""fullscreenenter"",""1"",""1783""
","
","
","""event"",""trial"",""time""
""fullscreenenter"",""1"",""1783""
","
",,306.3,run_exp/static/images/task_images/land.jpg,65,,,,,,,25,,,8,,,,,,,,279579,1,8,FALSE,,,
dig,212,589926,0.0-66.0-0.0,"""event"",""trial"",""time""
""fullscreenenter"",""1"",""1783""
","
","
","""event"",""trial"",""time""
""fullscreenenter"",""1"",""1783""
","
",,,,,,,,,,,,"[{""stimulus"":""run_exp/static/images/task_images/dig.jpg"",""time"":0.3999999761581421},{""stimulus"":""run_exp/static/images/task_images/land.jpg"",""time"":912.1999999284744},{""stimulus"":""run_exp/static/images/task_images/dig.jpg"",""time"":1801.5}]",[],8,,,,,,,,,,,,,,
harvest,213,590937,0.0-66.0-1.0,"""event"",""trial"",""time""
""fullscreenenter"",""1"",""1783""
","
","
","""event"",""trial"",""time""
""fullscreenenter"",""1"",""1783""
","
",,null,run_exp/static/images/task_images/gems/25.jpg,null,,,,,,,20,,,8,,,,,25,0.794281724,0.8,,,,,,,
decision,214,591222,0.0-66.0-2.0,"""event"",""trial"",""time""
""fullscreenenter"",""1"",""1783""
","
","
","""event"",""trial"",""time""
""fullscreenenter"",""1"",""1783""
","
",,282.4,run_exp/static/images/task_images/land.jpg,65,,,,,,,20,,,8,,,,,,,,283589,1,9,FALSE,,,
dig,215,593951,0.0-67.0-0.0,"""event"",""trial"",""time""
""fullscreenenter"",""1"",""1783""
","
","
","""event"",""trial"",""time""
""fullscreenenter"",""1"",""1783""
","
",,,,,,,,,,,,"[{""stimulus"":""run_exp/static/images/task_images/dig.jpg"",""time"":0.5},{""stimulus"":""run_exp/static/images/task_images/land.jpg"",""time"":915.2000000476837},{""stimulus"":""run_exp/static/images/task_images/dig.jpg"",""time"":1818.6000000238419}]",[],8,,,,,,,,,,,,,,
harvest,216,594957,0.0-67.0-1.0,"""event"",""trial"",""time""
""fullscreenenter"",""1"",""1783""
","
","
","""event"",""trial"",""time""
""fullscreenenter"",""1"",""1783""
","
",,null,run_exp/static/images/task_images/gems/20.jpg,null,,,,,,,19,,,8,,,,,20,0.928875651,0.95,,,,,,,
decision,217,595170,0.0-67.0-2.0,"""event"",""trial"",""time""
""fullscreenenter"",""1"",""1783""
","
","
","""event"",""trial"",""time""
""fullscreenenter"",""1"",""1783""
","
",,210.9,run_exp/static/images/task_images/land.jpg,76,,,,,,,19,,,8,,,,,,,,287537,1,10,TRUE,,,
travel,218,604975,0.0-68.0-0.0,"""event"",""trial"",""time""
""fullscreenenter"",""1"",""1783""
","
","
","""event"",""trial"",""time""
""fullscreenenter"",""1"",""1783""
","
",,,,,,,,,,,,"[{""stimulus"":""run_exp/static/images/task_images/rocket-01.jpg"",""time"":0.3999999761581421},{""stimulus"":""run_exp/static/images/task_images/rocket-02.jpg"",""time"":1091.2999999523163},{""stimulus"":""run_exp/static/images/task_images/rocket-03.jpg"",""time"":2190.100000023842},{""stimulus"":""run_exp/static/images/task_images/rocket-04.jpg"",""time"":3268.399999976158},{""stimulus"":""run_exp/static/images/task_images/rocket-05.jpg"",""time"":4360.600000023842},{""stimulus"":""run_exp/static/images/task_images/rocket-06.jpg"",""time"":5437.899999976158},{""stimulus"":""run_exp/static/images/task_images/rocket-07.jpg"",""time"":6535.899999976158},{""stimulus"":""run_exp/static/images/task_images/rocket-08.jpg"",""time"":7617.899999976158},{""stimulus"":""run_exp/static/images/task_images/rocket-09.jpg"",""time"":8700.600000023842}]",[],8,,,,,,,,,,,,,,
alien_welcome,219,609980,0.0-68.0-1.0,"""event"",""trial"",""time""
""fullscreenenter"",""1"",""1783""
","
","
","""event"",""trial"",""time""
""fullscreenenter"",""1"",""1783""
","
",,null,run_exp/static/images/task_images/aliens/old_aliens/planet/alien_planet-21.jpg,null,,,,,,,,,,,,,21,"49,80,8,70,28,66,46,15,21,77,58,30,71,34,53,64,76,48,5,73,62,51,55,17,60,41,74,36,50,12,37,69,1,2,7,75,47,26",,,,,,,,,,
land,220,610491,0.0-68.0-2.0,"""event"",""trial"",""time""
""fullscreenenter"",""1"",""1783""
","
","
","""event"",""trial"",""time""
""fullscreenenter"",""1"",""1783""
","
",,null,run_exp/static/images/task_images/land.jpg,null,,,,,,,98,,,9,,,,,,,,,,,,,,
dig,221,612500,0.0-68.0-3.0,"""event"",""trial"",""time""
""fullscreenenter"",""1"",""1783""
","
","
","""event"",""trial"",""time""
""fullscreenenter"",""1"",""1783""
","
",,,,,,,,,,,,"[{""stimulus"":""run_exp/static/images/task_images/dig.jpg"",""time"":0.3999999761581421},{""stimulus"":""run_exp/static/images/task_images/land.jpg"",""time"":677.5},{""stimulus"":""run_exp/static/images/task_images/dig.jpg"",""time"":1348.3999999761581}]",[],9,,,,,,,,,,,,,,
harvest,222,613505,0.0-68.0-4.0,"""event"",""trial"",""time""
""fullscreenenter"",""1"",""1783""
","
","
","""event"",""trial"",""time""
""fullscreenenter"",""1"",""1783""
","
",,null,run_exp/static/images/task_images/gems/98.jpg,null,,,,,,,21,,,9,,,,,98,0.213363148,0.214285714,,,,,,,
decision,223,613916,0.0-68.0-5.0,"""event"",""trial"",""time""
""fullscreenenter"",""1"",""1783""
","
","
","""event"",""trial"",""time""
""fullscreenenter"",""1"",""1783""
","
",,409.3,run_exp/static/images/task_images/land.jpg,65,,,,,,,21,,,9,,,,,,,,306284,1,0,TRUE,,,
end_of_block_continue,224,622209,0.0-69.0-0.0,"""event"",""trial"",""time""
""fullscreenenter"",""1"",""1783""
","
","
","""event"",""trial"",""time""
""fullscreenenter"",""1"",""1783""
","
",,8284.1,run_exp/static/audio/clip_32_block_end.m4a,,,,,,,0,,,,,,,,,,,,,,,,,,
alien_welcome,225,627222,0.0-70.0-0.0,"""event"",""trial"",""time""
""fullscreenenter"",""1"",""1783""
","
","
","""event"",""trial"",""time""
""fullscreenenter"",""1"",""1783""
","
",,null,run_exp/static/images/task_images/aliens/old_aliens/planet/alien_planet-77.jpg,null,,,,,,,,,,,,,77,"49,80,8,70,28,66,46,15,21,77,58,30,71,34,53,64,76,48,5,73,62,51,55,17,60,41,74,36,50,12,37,69,1,2,7,75,47,26",,,,,,,,,,
land,226,627737,0.0-70.0-1.0,"""event"",""trial"",""time""
""fullscreenenter"",""1"",""1783""
","
","
","""event"",""trial"",""time""
""fullscreenenter"",""1"",""1783""
","
",,null,run_exp/static/images/task_images/land.jpg,null,,,,,,,95,,,10,,,,,,,,,,,,,,
dig,227,629758,0.0-70.0-2.0,"""event"",""trial"",""time""
""fullscreenenter"",""1"",""1783""
","
","
","""event"",""trial"",""time""
""fullscreenenter"",""1"",""1783""
","
",,,,,,,,,,,,"[{""stimulus"":""run_exp/static/images/task_images/dig.jpg"",""time"":0.3999999761581421},{""stimulus"":""run_exp/static/images/task_images/land.jpg"",""time"":669.1000000238419},{""stimulus"":""run_exp/static/images/task_images/dig.jpg"",""time"":1343.2000000476837}]",[],10,,,,,,,,,,,,,,
harvest,228,630763,0.0-70.0-3.0,"""event"",""trial"",""time""
""fullscreenenter"",""1"",""1783""
","
","
","""event"",""trial"",""time""
""fullscreenenter"",""1"",""1783""
","
",,null,run_exp/static/images/task_images/gems/95.jpg,null,,,,,,,18,,,10,,,,,95,0.190337825,0.189473684,,,,,,,
decision,229,632135,0.0-70.0-4.0,"""event"",""trial"",""time""
""fullscreenenter"",""1"",""1783""
","
","
","""event"",""trial"",""time""
""fullscreenenter"",""1"",""1783""
","
",,1371.2,run_exp/static/images/task_images/land.jpg,65,,,,,,,18,,,10,,,,,,,,9924,2,0,FALSE,,,
dig,230,633783,0.0-71.0-0.0,"""event"",""trial"",""time""
""fullscreenenter"",""1"",""1783""
","
","
","""event"",""trial"",""time""
""fullscreenenter"",""1"",""1783""
","
",,,,,,,,,,,,"[{""stimulus"":""run_exp/static/images/task_images/dig.jpg"",""time"":0.30000007152557373},{""stimulus"":""run_exp/static/images/task_images/land.jpg"",""time"":549},{""stimulus"":""run_exp/static/images/task_images/dig.jpg"",""time"":1095.7000000476837}]",[],10,,,,,,,,,,,,,,
harvest,231,634789,0.0-71.0-1.0,"""event"",""trial"",""time""
""fullscreenenter"",""1"",""1783""
","
","
","""event"",""trial"",""time""
""fullscreenenter"",""1"",""1783""
","
",,null,run_exp/static/images/task_images/gems/18.jpg,null,,,,,,,5,,,10,,,,,18,0.274822671,0.277777778,,,,,,,
decision,232,635497,0.0-71.0-2.0,"""event"",""trial"",""time""
""fullscreenenter"",""1"",""1783""
","
","
","""event"",""trial"",""time""
""fullscreenenter"",""1"",""1783""
","
",,706.4,run_exp/static/images/task_images/land.jpg,76,,,,,,,5,,,10,,,,,,,,13286,2,1,TRUE,,,
travel,233,644795,0.0-72.0-0.0,"""event"",""trial"",""time""
""fullscreenenter"",""1"",""1783""
","
","
","""event"",""trial"",""time""
""fullscreenenter"",""1"",""1783""
","
",,,,,,,,,,,,"[{""stimulus"":""run_exp/static/images/task_images/rocket-01.jpg"",""time"":0.40000009536743164},{""stimulus"":""run_exp/static/images/task_images/rocket-02.jpg"",""time"":1037.6000000238419},{""stimulus"":""run_exp/static/images/task_images/rocket-03.jpg"",""time"":2075},{""stimulus"":""run_exp/static/images/task_images/rocket-04.jpg"",""time"":3107.7000000476837},{""stimulus"":""run_exp/static/images/task_images/rocket-05.jpg"",""time"":4131.300000071526},{""stimulus"":""run_exp/static/images/task_images/rocket-06.jpg"",""time"":5161.800000071526},{""stimulus"":""run_exp/static/images/task_images/rocket-07.jpg"",""time"":6210},{""stimulus"":""run_exp/static/images/task_images/rocket-08.jpg"",""time"":7240.5},{""stimulus"":""run_exp/static/images/task_images/rocket-09.jpg"",""time"":8257.700000047684}]",[],10,,,,,,,,,,,,,,
alien_welcome,234,649803,0.0-72.0-1.0,"""event"",""trial"",""time""
""fullscreenenter"",""1"",""1783""
","
","
","""event"",""trial"",""time""
""fullscreenenter"",""1"",""1783""
","
",,null,run_exp/static/images/task_images/aliens/old_aliens/planet/alien_planet-58.jpg,null,,,,,,,,,,,,,58,"49,80,8,70,28,66,46,15,21,77,58,30,71,34,53,64,76,48,5,73,62,51,55,17,60,41,74,36,50,12,37,69,1,2,7,75,47,26",,,,,,,,,,
land,235,650309,0.0-72.0-2.0,"""event"",""trial"",""time""
""fullscreenenter"",""1"",""1783""
","
","
","""event"",""trial"",""time""
""fullscreenenter"",""1"",""1783""
","
",,null,run_exp/static/images/task_images/land.jpg,null,,,,,,,101,,,11,,,,,,,,,,,,,,
dig,236,652315,0.0-72.0-3.0,"""event"",""trial"",""time""
""fullscreenenter"",""1"",""1783""
","
","
","""event"",""trial"",""time""
""fullscreenenter"",""1"",""1783""
","
",,,,,,,,,,,,"[{""stimulus"":""run_exp/static/images/task_images/dig.jpg"",""time"":0.3999999761581421},{""stimulus"":""run_exp/static/images/task_images/land.jpg"",""time"":670.8999999761581},{""stimulus"":""run_exp/static/images/task_images/dig.jpg"",""time"":1345.2999999523163}]",[],11,,,,,,,,,,,,,,
harvest,237,653330,0.0-72.0-4.0,"""event"",""trial"",""time""
""fullscreenenter"",""1"",""1783""
","
","
","""event"",""trial"",""time""
""fullscreenenter"",""1"",""1783""
","
",,null,run_exp/static/images/task_images/gems/101.jpg,null,,,,,,,27,,,11,,,,,101,0.270365322,0.267326733,,,,,,,
decision,238,654208,0.0-72.0-5.0,"""event"",""trial"",""time""
""fullscreenenter"",""1"",""1783""
","
","
","""event"",""trial"",""time""
""fullscreenenter"",""1"",""1783""
","
",,875.9,run_exp/static/images/task_images/land.jpg,65,,,,,,,27,,,11,,,,,,,,31998,2,0,FALSE,,,
dig,239,656348,0.0-73.0-0.0,"""event"",""trial"",""time""
""fullscreenenter"",""1"",""1783""
","
","
","""event"",""trial"",""time""
""fullscreenenter"",""1"",""1783""
","
",,,,,,,,,,,,"[{""stimulus"":""run_exp/static/images/task_images/dig.jpg"",""time"":0.3999999761581421},{""stimulus"":""run_exp/static/images/task_images/land.jpg"",""time"":717.2000000476837},{""stimulus"":""run_exp/static/images/task_images/dig.jpg"",""time"":1423.7999999523163}]",[],11,,,,,,,,,,,,,,
harvest,240,657352,0.0-73.0-1.0,"""event"",""trial"",""time""
""fullscreenenter"",""1"",""1783""
","
","
","""event"",""trial"",""time""
""fullscreenenter"",""1"",""1783""
","
",,null,run_exp/static/images/task_images/gems/27.jpg,null,,,,,,,3,,,11,,,,,27,0.117763007,0.111111111,,,,,,,
decision,241,657930,0.0-73.0-2.0,"""event"",""trial"",""time""
""fullscreenenter"",""1"",""1783""
","
","
","""event"",""trial"",""time""
""fullscreenenter"",""1"",""1783""
","
",,574.9,run_exp/static/images/task_images/land.jpg,65,,,,,,,3,,,11,,,,,,,,35719,2,1,FALSE,,,
dig,242,660376,0.0-74.0-0.0,"""event"",""trial"",""time""
""fullscreenenter"",""1"",""1783""
","
","
","""event"",""trial"",""time""
""fullscreenenter"",""1"",""1783""
","
",,,,,,,,,,,,"[{""stimulus"":""run_exp/static/images/task_images/dig.jpg"",""time"":0.2999999523162842},{""stimulus"":""run_exp/static/images/task_images/land.jpg"",""time"":822.7999999523163},{""stimulus"":""run_exp/static/images/task_images/dig.jpg"",""time"":1620.6000000238419}]",[],11,,,,,,,,,,,,,,
harvest,243,661381,0.0-74.0-1.0,"""event"",""trial"",""time""
""fullscreenenter"",""1"",""1783""
","
","
","""event"",""trial"",""time""
""fullscreenenter"",""1"",""1783""
","
",,null,run_exp/static/images/task_images/gems/3.jpg,null,,,,,,,1,,,11,,,,,3,0.255160406,0.333333333,,,,,,,
decision,244,661541,0.0-74.0-2.0,"""event"",""trial"",""time""
""fullscreenenter"",""1"",""1783""
","
","
","""event"",""trial"",""time""
""fullscreenenter"",""1"",""1783""
","
",,157.1,run_exp/static/images/task_images/land.jpg,76,,,,,,,1,,,11,,,,,,,,39330,2,2,TRUE,,,
travel,245,671395,0.0-75.0-0.0,"""event"",""trial"",""time""
""fullscreenenter"",""1"",""1783""
","
","
","""event"",""trial"",""time""
""fullscreenenter"",""1"",""1783""
","
",,,,,,,,,,,,"[{""stimulus"":""run_exp/static/images/task_images/rocket-01.jpg"",""time"":0.10000002384185791},{""stimulus"":""run_exp/static/images/task_images/rocket-02.jpg"",""time"":1107.1000000238419},{""stimulus"":""run_exp/static/images/task_images/rocket-03.jpg"",""time"":2202.2000000476837},{""stimulus"":""run_exp/static/images/task_images/rocket-04.jpg"",""time"":3290.100000023842},{""stimulus"":""run_exp/static/images/task_images/rocket-05.jpg"",""time"":4386.5},{""stimulus"":""run_exp/static/images/task_images/rocket-06.jpg"",""time"":5478.100000023842},{""stimulus"":""run_exp/static/images/task_images/rocket-07.jpg"",""time"":6575},{""stimulus"":""run_exp/static/images/task_images/rocket-08.jpg"",""time"":7667},{""stimulus"":""run_exp/static/images/task_images/rocket-09.jpg"",""time"":8745.700000047684}]",[],11,,,,,,,,,,,,,,
alien_welcome,246,676410,0.0-75.0-1.0,"""event"",""trial"",""time""
""fullscreenenter"",""1"",""1783""
","
","
","""event"",""trial"",""time""
""fullscreenenter"",""1"",""1783""
","
",,null,run_exp/static/images/task_images/aliens/old_aliens/planet/alien_planet-30.jpg,null,,,,,,,,,,,,,30,"49,80,8,70,28,66,46,15,21,77,58,30,71,34,53,64,76,48,5,73,62,51,55,17,60,41,74,36,50,12,37,69,1,2,7,75,47,26",,,,,,,,,,
land,247,676927,0.0-75.0-2.0,"""event"",""trial"",""time""
""fullscreenenter"",""1"",""1783""
","
","
