trial_type,trial_index,time_elapsed,internal_node_id,interactions,blur_events,focus_events,fullscreenenter_events,fullscreenexit_events,success,rt,stimulus,key_press,prompt,subject_id,participant_id,age,gender,button_pressed,next_reward,animation_sequence,responses,planet,curr_prac_trial,n_prac_rounds,alien,aliens,reward_received,decay_rate_actual,decay_rate_exp,time_in_block,block_num,prt,last_trial_on_planet,button_html,bonus,num_failures
pavlovia,0,9,0.0-0.0,"""event"",""trial"",""time""
""fullscreenenter"",""1"",""8095""
","
","
","""event"",""trial"",""time""
""fullscreenenter"",""1"",""8095""
","
",,,,,,,,,,,,,,,,,,,,,,,,,,,,
fullscreen,1,9081,0.0-1.0,"""event"",""trial"",""time""
""fullscreenenter"",""1"",""8095""
","
","
","""event"",""trial"",""time""
""fullscreenenter"",""1"",""8095""
","
",TRUE,,,,,,,,,,,,,,,,,,,,,,,,,,,
instruc_welcome,2,18973,0.0-2.0,"""event"",""trial"",""time""
""fullscreenenter"",""1"",""8095""
","
","
","""event"",""trial"",""time""
""fullscreenenter"",""1"",""8095""
","
",,null,run_exp/static/audio/clip_1_welcome.m4a,null,"<p>Howdy! In this experiment, you’ll be an explorer traveling through space to collect space treasure.</p><p>Your mission is to collect as much treasure as possible.</p><br><br><p><img src='run_exp/static/images/task_images/opening_img-01.jpg' height='300' width='auto'></p>",9376,3178,8.65,Female,,,,,,,,,,,,,,,,,,,
audio-keyboard-response,3,35995,0.0-3.0,"""event"",""trial"",""time""
""fullscreenenter"",""1"",""8095""
","
","
","""event"",""trial"",""time""
""fullscreenenter"",""1"",""8095""
","
",,null,run_exp/static/audio/clip_2_move.m4a,null,,,,,,,,,,,,,,,,,,,,,,,,
welcome_dec,4,39099,0.0-4.0,"""event"",""trial"",""time""
""fullscreenenter"",""1"",""8095""
","
","
","""event"",""trial"",""time""
""fullscreenenter"",""1"",""8095""
","
",,3097.5,"<p>Howdy! In this experiment, you’ll be an explorer traveling through space to collect space treasure.</p><p>Your mission is to collect as much treasure as possible.</p><br><br><p><img src='run_exp/static/images/task_images/opening_img-01.jpg' height='300' width='auto'></p>",,,,,,,1,,,,,,,,,,,,,,,,,,
html-keyboard-response,5,49813,0.0-5.0,"""event"",""trial"",""time""
""fullscreenenter"",""1"",""8095""
","
","
","""event"",""trial"",""time""
""fullscreenenter"",""1"",""8095""
","
",,10706.8,"<p>Howdy! In this experiment, you’ll be an explorer traveling through space to collect space treasure.</p><p>Your mission is to collect as much treasure as possible.</p><br><br><p><img src='run_exp/static/images/task_images/opening_img-01.jpg' height='300' width='auto'></p><button class=""jspsych-html-btn-unchosen""><img src=""run_exp/static/images/task_images/planet-01.jpg"" height=""50""></button><button class=""jspsych-html-btn-chosen""><img src=""run_exp/static/images/task_images/planet-02.jpg"" height=""50""></button><p><b>[press the space bar to lock in your answer]<b><br></p>",32,,,,,,,,,,,,,,,,,,,,,,,,
instruc_goal,6,60074,0.0-6.0-0.0,"""event"",""trial"",""time""
""fullscreenenter"",""1"",""8095""
","
","
","""event"",""trial"",""time""
""fullscreenenter"",""1"",""8095""
","
",,null,run_exp/static/audio/clip_3_goal.m4a,null,"<p> As a space explorer, you’ll visit different planets to dig for space treasure, these pink gems.</p> <p> The more treasure you dig up, the more bonus money you’ll win! </p><br><br><p><img src='run_exp/static/images/task_images/pink_gem.jpg' height='300' width='auto'></p>",,,,,,,,,,,,,,,,,,,,,,,
instruc_goal,7,101021,0.0-6.0-1.0,"""event"",""trial"",""time""
""fullscreenenter"",""1"",""8095""
","
","
","""event"",""trial"",""time""
""fullscreenenter"",""1"",""8095""
","
",,40941.9,"<p> As a space explorer, you’ll visit different planets to dig for space treasure, these pink gems.</p> <p> The more treasure you dig up, the more bonus money you’ll win! </p><br><br><p><img src='run_exp/static/images/task_images/pink_gem.jpg' height='300' width='auto'></p>",,,,,,,1,,,,,,,,,,,,,,,,,,
html-keyboard-response,8,103672,0.0-6.0-2.0,"""event"",""trial"",""time""
""fullscreenenter"",""1"",""8095""
","
","
","""event"",""trial"",""time""
""fullscreenenter"",""1"",""8095""
","
",,2646.8,"<p> As a space explorer, you’ll visit different planets to dig for space treasure, these pink gems.</p> <p> The more treasure you dig up, the more bonus money you’ll win! </p><br><br><p><img src='run_exp/static/images/task_images/pink_gem.jpg' height='300' width='auto'></p><button class=""jspsych-html-btn-unchosen""><img src=""run_exp/static/images/task_images/planet-01.jpg"" height=""50""></button><button class=""jspsych-html-btn-chosen""><img src=""run_exp/static/images/task_images/planet-02.jpg"" height=""50""></button><p><b>[press the space bar to lock in your answer]<b><br></p>",32,,,,,,,,,,,,,,,,,,,,,,,,
instruc_dig,9,119923,0.0-7.0-0.0,"""event"",""trial"",""time""
""fullscreenenter"",""1"",""8095""
","
","
","""event"",""trial"",""time""
""fullscreenenter"",""1"",""8095""
","
",,null,run_exp/static/audio/clip_4_dig.m4a,null,,,,,,,100,,,,,,,,,,,,,,,,,
instruc_dig_try,10,123195,0.0-7.0-1.0,"""event"",""trial"",""time""
""fullscreenenter"",""1"",""8095""
","
","
","""event"",""trial"",""time""
""fullscreenenter"",""1"",""8095""
","
",,3269,"<p> When you’ve arrived at a new planet, you will dig once. </p> <p>Then, you get to decide if you want to stay on the planet and dig again or travel to a new planet and dig there.</p> <p> To stay and dig, press the letter <strong>‘A’</strong> on your keyboard. Try pressing it now! </p><p><img src='run_exp/static/images/task_images/land.jpg'  height='700' width='auto'></p>",65,"<p> When you’ve arrived at a new planet, you will dig once. </p> <p>Then, you get to decide if you want to stay on the planet and dig again or travel to a new planet and dig there.</p> <p> To stay and dig, press the letter <strong>‘A’</strong> on your keyboard. Try pressing it now! </p><p><img src='run_exp/static/images/task_images/land.jpg'  height='700' width='auto'></p>",,,,,,100,,,,,,,,,,,,,,,,,
dig_prac,11,125225,0.0-7.0-2.0,"""event"",""trial"",""time""
""fullscreenenter"",""1"",""8095""
","
","
","""event"",""trial"",""time""
""fullscreenenter"",""1"",""8095""
","
",,,,,,,,,,,,"[{""stimulus"":""run_exp/static/images/task_images/dig.jpg"",""time"":1.299999998882413},{""stimulus"":""run_exp/static/images/task_images/land.jpg"",""time"":677.5},{""stimulus"":""run_exp/static/images/task_images/dig.jpg"",""time"":1341.9000000003725}]",[],,,,,,,,,,,,,,,
instruc_travel,12,161782,0.0-7.0-3.0,"""event"",""trial"",""time""
""fullscreenenter"",""1"",""8095""
","
","
","""event"",""trial"",""time""
""fullscreenenter"",""1"",""8095""
","
",,null,run_exp/static/audio/clip_5_travel.m4a,null,"<p>Every time you dig up gems, there are less gems on the planet, so the more you dig on a planet the fewer gems you’ll get with each dig.</p><p>When gems are running low, you may want to travel to a new planet. </p> <p>  Planets are very far apart in this galaxy, so it will take some time to travel between them. </p> <br><p>There are lots and lots of planets for you to visit, so you won’t be able to return to any planets you’ve seen before. </p><br><p>To leave this planet and travel to a new one, press the letter <strong>‘L’</strong> on your keyboard. Try pressing it now! </p><p><img src='run_exp/static/images/task_images/rocket-01.jpg'  height='600' width='auto'></p>",,,,,,,,,,,,,,,,,,,,,,,
instruc_travel_try,13,162170,0.0-7.0-4.0,"""event"",""trial"",""time""
""fullscreenenter"",""1"",""8095""
","
","
","""event"",""trial"",""time""
""fullscreenenter"",""1"",""8095""
","
",,383.9,"<p>Every time you dig up gems, there are less gems on the planet, so the more you dig on a planet the fewer gems you’ll get with each dig.</p><p>When gems are running low, you may want to travel to a new planet. </p> <p>  Planets are very far apart in this galaxy, so it will take some time to travel between them. </p> <br><p>There are lots and lots of planets for you to visit, so you won’t be able to return to any planets you’ve seen before. </p><br><p>To leave this planet and travel to a new one, press the letter <strong>‘L’</strong> on your keyboard. Try pressing it now! </p><p><img src='run_exp/static/images/task_images/rocket-01.jpg'  height='600' width='auto'></p>",76,"<p>Every time you dig up gems, there are less gems on the planet, so the more you dig on a planet the fewer gems you’ll get with each dig.</p><p>When gems are running low, you may want to travel to a new planet. </p> <p>  Planets are very far apart in this galaxy, so it will take some time to travel between them. </p> <br><p>There are lots and lots of planets for you to visit, so you won’t be able to return to any planets you’ve seen before. </p><br><p>To leave this planet and travel to a new one, press the letter <strong>‘L’</strong> on your keyboard. Try pressing it now! </p><p><img src='run_exp/static/images/task_images/rocket-01.jpg'  height='600' width='auto'></p>",,,,,,,,,,,,,,,,,,,,,,,
travel_prac,14,172185,0.0-7.0-5.0,"""event"",""trial"",""time""
""fullscreenenter"",""1"",""8095""
","
","
","""event"",""trial"",""time""
""fullscreenenter"",""1"",""8095""
","
",,,,,,,,,,,,"[{""stimulus"":""run_exp/static/images/task_images/rocket-01.jpg"",""time"":1.6000000014901161},{""stimulus"":""run_exp/static/images/task_images/rocket-02.jpg"",""time"":1120.6000000014901},{""stimulus"":""run_exp/static/images/task_images/rocket-03.jpg"",""time"":2231.4000000003725},{""stimulus"":""run_exp/static/images/task_images/rocket-04.jpg"",""time"":3344.10000000149},{""stimulus"":""run_exp/static/images/task_images/rocket-05.jpg"",""time"":4455.700000001118},{""stimulus"":""run_exp/static/images/task_images/rocket-06.jpg"",""time"":5568.60000000149},{""stimulus"":""run_exp/static/images/task_images/rocket-07.jpg"",""time"":6672.5},{""stimulus"":""run_exp/static/images/task_images/rocket-08.jpg"",""time"":7783.700000001118},{""stimulus"":""run_exp/static/images/task_images/rocket-09.jpg"",""time"":8895.60000000149}]",[],0,,,,,,,,,,,,,,
instruc_alien_greet,15,199622,0.0-7.0-6.0,"""event"",""trial"",""time""
""fullscreenenter"",""1"",""8095""
","
","
","""event"",""trial"",""time""
""fullscreenenter"",""1"",""8095""
","
",,null,run_exp/static/audio/clip_6_alien.m4a,null,"<p>When you arrive at a new planet, the alien who owns the treasure mine on that planet will greet you!</p><p>The better an alien takes care of their mine the easier it is to dig for gems. Some aliens take better care of their mine than others. So, you won’t get exactly the same amount of gems on each planet.</p><p>What the alien looks like does not tell you anything about how many gems there are on the planet.</p><br><p><img src=""run_exp/static/images/task_images/aliens/instructions_aliens/planet/alien_planet-1.jpg""  height=""600"" width=""auto""></p>",,,,,,,,,,,,,,,,,,,,,,,
instruc_alien_greet,16,204635,0.0-7.0-7.0,"""event"",""trial"",""time""
""fullscreenenter"",""1"",""8095""
","
","
","""event"",""trial"",""time""
""fullscreenenter"",""1"",""8095""
","
",,5007.2,"<p>When you arrive at a new planet, the alien who owns the treasure mine on that planet will greet you!</p><p>The better an alien takes care of their mine the easier it is to dig for gems. Some aliens take better care of their mine than others. So, you won’t get exactly the same amount of gems on each planet.</p><p>What the alien looks like does not tell you anything about how many gems there are on the planet.</p><br><p><img src=""run_exp/static/images/task_images/aliens/instructions_aliens/planet/alien_planet-1.jpg""  height=""600"" width=""auto""></p>",,,,,,,1,,,,,,,,,,,,,,,,,,
html-keyboard-response,17,210047,0.0-7.0-8.0,"""event"",""trial"",""time""
""fullscreenenter"",""1"",""8095""
","
","
","""event"",""trial"",""time""
""fullscreenenter"",""1"",""8095""
","
",,5407.1,"<p>When you arrive at a new planet, the alien who owns the treasure mine on that planet will greet you!</p><p>The better an alien takes care of their mine the easier it is to dig for gems. Some aliens take better care of their mine than others. So, you won’t get exactly the same amount of gems on each planet.</p><p>What the alien looks like does not tell you anything about how many gems there are on the planet.</p><br><p><img src=""run_exp/static/images/task_images/aliens/instructions_aliens/planet/alien_planet-1.jpg""  height=""600"" width=""auto""></p><button class=""jspsych-html-btn-unchosen""><img src=""run_exp/static/images/task_images/planet-01.jpg"" height=""50""></button><button class=""jspsych-html-btn-chosen""><img src=""run_exp/static/images/task_images/planet-02.jpg"" height=""50""></button><p><b>[press the space bar to lock in your answer]<b><br></p>",32,,,,,,,,,,,,,,,,,,,,,,,,
time_out,18,221354,0.0-8.0-0.0,"""event"",""trial"",""time""
""fullscreenenter"",""1"",""8095""
","
","
","""event"",""trial"",""time""
""fullscreenenter"",""1"",""8095""
","
",,null,run_exp/static/audio/clip_7_timeout.m4a,null,"<p>If you don't make your choice fast enough, you’ll have to wait a few seconds before you can make another one.</p><p>You can’t dig for more gems or travel to new planets. You just have to sit and wait.</p><br><p><img src='run_exp/static/images/task_images/time_out.jpg'  height='600' width='auto'></p>",,,,,,,,,,,,,,,,,,,,,,,
time_out,19,224032,0.0-8.0-1.0,"""event"",""trial"",""time""
""fullscreenenter"",""1"",""8095""
","
","
","""event"",""trial"",""time""
""fullscreenenter"",""1"",""8095""
","
",,2672.6,"<p>If you don't make your choice fast enough, you’ll have to wait a few seconds before you can make another one.</p><p>You can’t dig for more gems or travel to new planets. You just have to sit and wait.</p><br><p><img src='run_exp/static/images/task_images/time_out.jpg'  height='600' width='auto'></p>",,,,,,,1,,,,,,,,,,,,,,,,,,
html-keyboard-response,20,224471,0.0-8.0-2.0,"""event"",""trial"",""time""
""fullscreenenter"",""1"",""8095""
","
","
","""event"",""trial"",""time""
""fullscreenenter"",""1"",""8095""
","
",,434.4,"<p>If you don't make your choice fast enough, you’ll have to wait a few seconds before you can make another one.</p><p>You can’t dig for more gems or travel to new planets. You just have to sit and wait.</p><br><p><img src='run_exp/static/images/task_images/time_out.jpg'  height='600' width='auto'></p><button class=""jspsych-html-btn-unchosen""><img src=""run_exp/static/images/task_images/planet-01.jpg"" height=""50""></button><button class=""jspsych-html-btn-chosen""><img src=""run_exp/static/images/task_images/planet-02.jpg"" height=""50""></button><p><b>[press the space bar to lock in your answer]<b><br></p>",32,,,,,,,,,,,,,,,,,,,,,,,,
instruc_break,21,240427,0.0-9.0-0.0,"""event"",""trial"",""time""
""fullscreenenter"",""1"",""8095""
","
","
","""event"",""trial"",""time""
""fullscreenenter"",""1"",""8095""
","
",,null,run_exp/static/audio/clip_8_break.m4a,null,"<p> After digging and traveling for a while, you’ll be able to take a break at home base. </p><p>The game will last 20 minutes no matter what.</p><p>You will visit home base every 5 minutes, so, you will visit home base three times during the game.</p><br><p><img src='run_exp/static/images/task_images/home_base.jpg' height='600' width='auto'></p>",,,,,,,,,,,,,,,,,,,,,,,
instruc_break,22,243392,0.0-9.0-1.0,"""event"",""trial"",""time""
""fullscreenenter"",""1"",""8095""
","
","
","""event"",""trial"",""time""
""fullscreenenter"",""1"",""8095""
","
",,2959.5,"<p> After digging and traveling for a while, you’ll be able to take a break at home base. </p><p>The game will last 20 minutes no matter what.</p><p>You will visit home base every 5 minutes, so, you will visit home base three times during the game.</p><br><p><img src='run_exp/static/images/task_images/home_base.jpg' height='600' width='auto'></p>",,,,,,,1,,,,,,,,,,,,,,,,,,
html-keyboard-response,23,245722,0.0-9.0-2.0,"""event"",""trial"",""time""
""fullscreenenter"",""1"",""8095""
","
","
","""event"",""trial"",""time""
""fullscreenenter"",""1"",""8095""
","
",,2322.9,"<p> After digging and traveling for a while, you’ll be able to take a break at home base. </p><p>The game will last 20 minutes no matter what.</p><p>You will visit home base every 5 minutes, so, you will visit home base three times during the game.</p><br><p><img src='run_exp/static/images/task_images/home_base.jpg' height='600' width='auto'></p><button class=""jspsych-html-btn-unchosen""><img src=""run_exp/static/images/task_images/planet-01.jpg"" height=""50""></button><button class=""jspsych-html-btn-chosen""><img src=""run_exp/static/images/task_images/planet-02.jpg"" height=""50""></button><p><b>[press the space bar to lock in your answer]<b><br></p>",32,,,,,,,,,,,,,,,,,,,,,,,,
instruc_prac_game,24,256170,0.0-10.0-0.0,"""event"",""trial"",""time""
""fullscreenenter"",""1"",""8095""
","
","
","""event"",""trial"",""time""
""fullscreenenter"",""1"",""8095""
","
",,null,run_exp/static/audio/clip_9_practice.m4a,null,"<p> Are you ready to play a practice game? </p> <p>In this practice game, you'll be digging up barrels of gems. But, in the real game, you'll be digging up the gems themselves. </p>",,,,,,,,,,,,,,,,,,,,,,,
html-button-response,25,258740,0.0-10.0-1.0,"""event"",""trial"",""time""
""fullscreenenter"",""1"",""8095""
","
","
","""event"",""trial"",""time""
""fullscreenenter"",""1"",""8095""
","
",,2566.8,"<p> Are you ready to play a practice game? </p> <p>In this practice game, you'll be digging up barrels of gems. But, in the real game, you'll be digging up the gems themselves. </p>",,,,,,,0,,,,,,,,,,,,,,,,,,
alien_welcome_prac,26,263753,0.0-11.0-0.0,"""event"",""trial"",""time""
""fullscreenenter"",""1"",""8095""
","
","
","""event"",""trial"",""time""
""fullscreenenter"",""1"",""8095""
","
",,null,run_exp/static/images/task_images/aliens/practice_aliens/planet/alien_planet-5.jpg,null,,,,,,,,,,,,,,,,,,,,,,,,
land_prac,27,264265,0.0-11.0-1.0,"""event"",""trial"",""time""
""fullscreenenter"",""1"",""8095""
","
","
","""event"",""trial"",""time""
""fullscreenenter"",""1"",""8095""
","
",,null,run_exp/static/images/task_images/land.jpg,null,,,,,,,113,,,0,,,,,,,,,,,,,,
dig_prac,28,266281,0.0-11.0-2.0,"""event"",""trial"",""time""
""fullscreenenter"",""1"",""8095""
","
","
","""event"",""trial"",""time""
""fullscreenenter"",""1"",""8095""
","
",,,,,,,,,,,,"[{""stimulus"":""run_exp/static/images/task_images/dig.jpg"",""time"":1.300000000745058},{""stimulus"":""run_exp/static/images/task_images/land.jpg"",""time"":674.5999999996275},{""stimulus"":""run_exp/static/images/task_images/dig.jpg"",""time"":1346.0999999996275}]",[],,,,,,,,,,,,,,,
harvest_prac,29,267285,0.0-11.0-3.0,"""event"",""trial"",""time""
""fullscreenenter"",""1"",""8095""
","
","
","""event"",""trial"",""time""
""fullscreenenter"",""1"",""8095""
","
",,null,run_exp/static/images/task_images/barrel_text.jpg,null,,,,,,,,,,,,,,,,,,,,,,,,
decision_prac,30,270289,0.0-11.0-4.0,"""event"",""trial"",""time""
""fullscreenenter"",""1"",""8095""
","
","
","""event"",""trial"",""time""
""fullscreenenter"",""1"",""8095""
","
",,null,run_exp/static/images/task_images/land.jpg,null,,,,,,,,,,,1,,,,,,,,,,,,,
time_out,31,272305,0.0-12.0-0.0,"""event"",""trial"",""time""
""fullscreenenter"",""1"",""8095""
","
","
","""event"",""trial"",""time""
""fullscreenenter"",""1"",""8095""
","
",,null,run_exp/static/images/task_images/time_out.jpg,null,,,,,,,,,,,,,,,,,,,,,,,,
decision_prac,32,275313,0.0-12.0-1.0,"""event"",""trial"",""time""
""fullscreenenter"",""1"",""8095""
","
","
","""event"",""trial"",""time""
""fullscreenenter"",""1"",""8095""
","
",,null,run_exp/static/images/task_images/land.jpg,null,,,,,,,,,,,2,,,,,,,,,,,,,
time_out,33,277330,0.0-13.0-0.0,"""event"",""trial"",""time""
""fullscreenenter"",""1"",""8095""
","
","
","""event"",""trial"",""time""
""fullscreenenter"",""1"",""8095""
","
",,null,run_exp/static/images/task_images/time_out.jpg,null,,,,,,,,,,,,,,,,,,,,,,,,
decision_prac,34,278469,0.0-13.0-1.0,"""event"",""trial"",""time""
""fullscreenenter"",""1"",""8095""
","
","
","""event"",""trial"",""time""
""fullscreenenter"",""1"",""8095""
","
",,1134.3,run_exp/static/images/task_images/land.jpg,76,,,,,,,,,,,3,,,,,,,,,,,,,
travel,35,287353,0.0-14.0-0.0,"""event"",""trial"",""time""
""fullscreenenter"",""1"",""8095""
","
","
","""event"",""trial"",""time""
""fullscreenenter"",""1"",""8095""
","
",,,,,,,,,,,,"[{""stimulus"":""run_exp/static/images/task_images/rocket-01.jpg"",""time"":1},{""stimulus"":""run_exp/static/images/task_images/rocket-02.jpg"",""time"":992.8000000007451},{""stimulus"":""run_exp/static/images/task_images/rocket-03.jpg"",""time"":1976.2000000011176},{""stimulus"":""run_exp/static/images/task_images/rocket-04.jpg"",""time"":2960.300000000745},{""stimulus"":""run_exp/static/images/task_images/rocket-05.jpg"",""time"":3944.5999999996275},{""stimulus"":""run_exp/static/images/task_images/rocket-06.jpg"",""time"":4936.5999999996275},{""stimulus"":""run_exp/static/images/task_images/rocket-07.jpg"",""time"":5920.200000001118},{""stimulus"":""run_exp/static/images/task_images/rocket-08.jpg"",""time"":6904.9000000003725},{""stimulus"":""run_exp/static/images/task_images/rocket-09.jpg"",""time"":7888.300000000745}]",[],0,,,,,,,,,,,,,,
alien_welcome_prac,36,292359,0.0-14.0-1.0,"""event"",""trial"",""time""
""fullscreenenter"",""1"",""8095""
","
","
","""event"",""trial"",""time""
""fullscreenenter"",""1"",""8095""
","
",,null,run_exp/static/images/task_images/aliens/practice_aliens/planet/alien_planet-4.jpg,null,,,,,,,,,,,,,,,,,,,,,,,,
land_prac,37,292865,0.0-14.0-2.0,"""event"",""trial"",""time""
""fullscreenenter"",""1"",""8095""
","
","
","""event"",""trial"",""time""
""fullscreenenter"",""1"",""8095""
","
",,null,run_exp/static/images/task_images/land.jpg,null,,,,,,,102,,,0,,,,,,,,,,,,,,
dig_prac,38,294874,0.0-14.0-3.0,"""event"",""trial"",""time""
""fullscreenenter"",""1"",""8095""
","
","
","""event"",""trial"",""time""
""fullscreenenter"",""1"",""8095""
","
",,,,,,,,,,,,"[{""stimulus"":""run_exp/static/images/task_images/dig.jpg"",""time"":1},{""stimulus"":""run_exp/static/images/task_images/land.jpg"",""time"":674.9000000003725},{""stimulus"":""run_exp/static/images/task_images/dig.jpg"",""time"":1336.699999999255}]",[],,,,,,,,,,,,,,,
harvest_prac,39,295881,0.0-14.0-4.0,"""event"",""trial"",""time""
""fullscreenenter"",""1"",""8095""
","
","
","""event"",""trial"",""time""
""fullscreenenter"",""1"",""8095""
","
",,null,run_exp/static/images/task_images/barrel_text.jpg,null,,,,,,,,,,,,,,,,,,,,,,,,
decision_prac,40,298889,0.0-14.0-5.0,"""event"",""trial"",""time""
""fullscreenenter"",""1"",""8095""
","
","
","""event"",""trial"",""time""
""fullscreenenter"",""1"",""8095""
","
",,null,run_exp/static/images/task_images/land.jpg,null,,,,,,,,,,,4,,,,,,,,,,,,,
time_out,41,300906,0.0-15.0-0.0,"""event"",""trial"",""time""
""fullscreenenter"",""1"",""8095""
","
","
","""event"",""trial"",""time""
""fullscreenenter"",""1"",""8095""
","
",,null,run_exp/static/images/task_images/time_out.jpg,null,,,,,,,,,,,,,,,,,,,,,,,,
decision_prac,42,301863,0.0-15.0-1.0,"""event"",""trial"",""time""
""fullscreenenter"",""1"",""8095""
","
","
","""event"",""trial"",""time""
""fullscreenenter"",""1"",""8095""
","
",,952.4,run_exp/static/images/task_images/land.jpg,65,,,,,,,,,,,,1,,,,,,,,,,,,
quiz_instruc,43,316092,0.0-16.0-0.0,"""event"",""trial"",""time""
""fullscreenenter"",""1"",""8095""
","
","
","""event"",""trial"",""time""
""fullscreenenter"",""1"",""8095""
","
",,14215.4,run_exp/static/audio/clip_10_quiz.m4a,,,,,,,0,,,,,,,,,,,,,,,,,,
instruc_repeat,44,359157,0.0-16.0-1.0,"""event"",""trial"",""time""
""fullscreenenter"",""1"",""8095""
","
","
","""event"",""trial"",""time""
""fullscreenenter"",""1"",""8095""
","
",,null,"<p> Are you ready to play a practice game? </p> <p>In this practice game, you'll be digging up barrels of gems. But, in the real game, you'll be digging up the gems themselves. </p>",null,"<p>In this game, your goal is to collect as many gems as you can. That’s how you will win bonus money. </p> <p>The entire game will last 20 minutes no matter how many gems you collect or how many planets you visit. </p><p>To stay on a planet and dig again, press the letter A on your keyboard. To leave for a new planet, press the letter L.</p><p>The more you dig on a planet, the fewer gems you’ll get with each dig which is why you might consider leaving for a new planet. </p><p>When you arrive at a new planet, you’ll be greeted by an alien. What the alien looks like does not tell you anything about how much treasure is on the planet. </p>",,,,,,,,,,,,,,,,,,,,,,,
instruc_repeat_continue,45,364162,0.0-16.0-2.0,"""event"",""trial"",""time""
""fullscreenenter"",""1"",""8095""
","
","
","""event"",""trial"",""time""
""fullscreenenter"",""1"",""8095""
","
",,5002.6,"<p> Are you ready to play a practice game? </p> <p>In this practice game, you'll be digging up barrels of gems. But, in the real game, you'll be digging up the gems themselves. </p>",,,,,,,0,,,,,,,,,,,,,,,,,,
quiz_q_1_ask,46,374262,0.0-16.0-3.0,"""event"",""trial"",""time""
""fullscreenenter"",""1"",""8095""
","
","
","""event"",""trial"",""time""
""fullscreenenter"",""1"",""8095""
","
",,10092.8,run_exp/static/audio/clip_11_q1_ask.m4a,,,,,,,2,,,,,,,,,,,,,,,,,,
quiz_q_1_fb_correct,47,378486,0.0-17.0-0.0,"""event"",""trial"",""time""
""fullscreenenter"",""1"",""8095""
","
","
","""event"",""trial"",""time""
""fullscreenenter"",""1"",""8095""
","
",,null,run_exp/static/audio/clip_12_q1_correct.m4a,null,<p>That’s correct. You win extra money by collecting more gems.</p>,,,,,,,,,,,,,,,,,,,,,,,
quiz_q_2_ask,48,390520,0.0-17.0-1.0,"""event"",""trial"",""time""
""fullscreenenter"",""1"",""8095""
","
","
","""event"",""trial"",""time""
""fullscreenenter"",""1"",""8095""
","
",,12030.6,run_exp/static/audio/clip_14_q2_ask.m4a,,,,,,,1,,,,,,,,,,,,,,,,,,
quiz_q_2_fb_correct,49,394742,0.0-18.0-0.0,"""event"",""trial"",""time""
""fullscreenenter"",""1"",""8095""
","
","
","""event"",""trial"",""time""
""fullscreenenter"",""1"",""8095""
","
",,null,run_exp/static/audio/clip_15_q2_correct.m4a,null,<p>That’s correct. The experiment is 20 minutes no matter what.</p>,,,,,,,,,,,,,,,,,,,,,,,
quiz_q_3_ask,50,399647,0.0-18.0-1.0,"""event"",""trial"",""time""
""fullscreenenter"",""1"",""8095""
","
","
","""event"",""trial"",""time""
""fullscreenenter"",""1"",""8095""
","
",,4900.5,run_exp/static/audio/clip_17_q3_ask.m4a,,,,,,,1,,,,,,,,,,,,,,,,,,
quiz_q_3_fb_correct,51,403958,0.0-19.0-0.0,"""event"",""trial"",""time""
""fullscreenenter"",""1"",""8095""
","
","
","""event"",""trial"",""time""
""fullscreenenter"",""1"",""8095""
","
",,null,run_exp/static/audio/clip_18_q3_correct.m4a,null,<p> That’s correct. You press the letter L to travel to a new planet.</p>,,,,,,,,,,,,,,,,,,,,,,,
quiz_q_4_ask,52,408594,0.0-19.0-1.0,"""event"",""trial"",""time""
""fullscreenenter"",""1"",""8095""
","
","
","""event"",""trial"",""time""
""fullscreenenter"",""1"",""8095""
","
",,4630.9,run_exp/static/audio/clip_20_q4_ask.m4a,,,,,,,0,,,,,,,,,,,,,,,,,,
quiz_q_4_fb_correct,53,414198,0.0-20.0-0.0,"""event"",""trial"",""time""
""fullscreenenter"",""1"",""8095""
","
","
","""event"",""trial"",""time""
""fullscreenenter"",""1"",""8095""
","
",,null,run_exp/static/audio/clip_21_q4_correct.m4a,null,<p> That’s correct. The more you dig on a planet the fewer gems you’ll get with each dig. </p>,,,,,,,,,,,,,,,,,,,,,,,
quiz_q_5_ask,54,419505,0.0-20.0-1.0,"""event"",""trial"",""time""
""fullscreenenter"",""1"",""8095""
","
","
","""event"",""trial"",""time""
""fullscreenenter"",""1"",""8095""
","
",,5302.3,run_exp/static/audio/clip_23_q5_ask.m4a,,,,,,,1,,,,,,,,,,,,,,,,,,
quiz_q_5_fb_correct,55,424821,0.0-21.0-0.0,"""event"",""trial"",""time""
""fullscreenenter"",""1"",""8095""
","
","
","""event"",""trial"",""time""
""fullscreenenter"",""1"",""8095""
","
",,null,run_exp/static/audio/clip_24_q5_correct.m4a,null,<p> That’s correct. The alien tells you nothing about how much treasure is on the planet.</p>,,,,,,,,,,,,,,,,,,,,,,,
quiz_correct,56,428661,0.0-22.0-0.0,"""event"",""trial"",""time""
""fullscreenenter"",""1"",""8095""
","
","
","""event"",""trial"",""time""
""fullscreenenter"",""1"",""8095""
","
",,null,run_exp/static/audio/clip_26_correct_quiz.m4a,null,,,,,,,,,,,,,,,,,,,,,,,,
quiz_correct_continue,57,431755,0.0-22.0-1.0,"""event"",""trial"",""time""
""fullscreenenter"",""1"",""8095""
","
","
","""event"",""trial"",""time""
""fullscreenenter"",""1"",""8095""
","
",,3092.3,<p>Good job! You're now ready to move on to the real game!</p>,,,,,,,0,,,,,,,,,,,,,,,,,,
audio-keyboard-response,58,442229,0.0-22.0-2.0,"""event"",""trial"",""time""
""fullscreenenter"",""1"",""8095""
","
","
","""event"",""trial"",""time""
""fullscreenenter"",""1"",""8095""
","
",,null,run_exp/static/audio/clip_28_real_game.m4a,null,,,,,,,,,,,,,,,,,,,,,,,,
instruc_begin_exp_contine,59,444540,0.0-22.0-3.0,"""event"",""trial"",""time""
""fullscreenenter"",""1"",""8095""
","
","
","""event"",""trial"",""time""
""fullscreenenter"",""1"",""8095""
","
",,2307.4,"<p>Now that you know how  to dig for space treasure and travel to new planets,you can start exploring! </p><p>Do you want to go over the instructions again or get started with the real game?</p>",,,,,,,1,,,,,,1,,,,,,,,,,,,
alien_welcome,60,449554,0.0-23.0-0.0,"""event"",""trial"",""time""
""fullscreenenter"",""1"",""8095""
","
","
","""event"",""trial"",""time""
""fullscreenenter"",""1"",""8095""
","
",,null,run_exp/static/images/task_images/aliens/old_aliens/planet/alien_planet-18.jpg,null,,,,,,,,,,,,,18,"18,2,74,14,35,15,72,9,7,60,19,20,31,33,73,48,59,6,28,57,45,13,17,69,22,5,70,16,66,75,79,47,62,52,78,41,54,1,25,3,34,56,21,51,24,29,67,49,12,11,44,39,42,46,68,30,65,43,4,10,61,80",,,,,,,,,,
land,61,450065,0.0-23.0-1.0,"""event"",""trial"",""time""
""fullscreenenter"",""1"",""8095""
","
","
","""event"",""trial"",""time""
""fullscreenenter"",""1"",""8095""
","
",,null,run_exp/static/images/task_images/land.jpg,null,,,,,,,103,,,1,,,,,,,,,,,,,,
dig,62,452081,0.0-23.0-2.0,"""event"",""trial"",""time""
""fullscreenenter"",""1"",""8095""
","
","
","""event"",""trial"",""time""
""fullscreenenter"",""1"",""8095""
","
",,,,,,,,,,,,"[{""stimulus"":""run_exp/static/images/task_images/dig.jpg"",""time"":1},{""stimulus"":""run_exp/static/images/task_images/land.jpg"",""time"":675.4000000003725},{""stimulus"":""run_exp/static/images/task_images/dig.jpg"",""time"":1339.4000000003725}]",[],1,,,,,,,,,,,,,,
harvest,63,453090,0.0-23.0-3.0,"""event"",""trial"",""time""
""fullscreenenter"",""1"",""8095""
","
","
","""event"",""trial"",""time""
""fullscreenenter"",""1"",""8095""
","
",,null,run_exp/static/images/task_images/gems/103.jpg,null,,,,,,,26,,,1,,,,,103,0.248361828,0.252427184,,,,,,,
decision,64,454664,0.0-23.0-4.0,"""event"",""trial"",""time""
""fullscreenenter"",""1"",""8095""
","
","
","""event"",""trial"",""time""
""fullscreenenter"",""1"",""8095""
","
",,1568.5,run_exp/static/images/task_images/land.jpg,65,,,,,,,26,,,1,,,,,,,,10120,1,0,FALSE,,,
dig,65,456121,0.0-24.0-0.0,"""event"",""trial"",""time""
""fullscreenenter"",""1"",""8095""
","
","
","""event"",""trial"",""time""
""fullscreenenter"",""1"",""8095""
","
",,,,,,,,,,,,"[{""stimulus"":""run_exp/static/images/task_images/dig.jpg"",""time"":1.700000001117587},{""stimulus"":""run_exp/static/images/task_images/land.jpg"",""time"":483.7000000011176},{""stimulus"":""run_exp/static/images/task_images/dig.jpg"",""time"":963.6000000014901}]",[],1,,,,,,,,,,,,,,
harvest,66,457129,0.0-24.0-1.0,"""event"",""trial"",""time""
""fullscreenenter"",""1"",""8095""
","
","
","""event"",""trial"",""time""
""fullscreenenter"",""1"",""8095""
","
",,null,run_exp/static/images/task_images/gems/26.jpg,null,,,,,,,6,,,1,,,,,26,0.21474243,0.230769231,,,,,,,
decision,67,457795,0.0-24.0-2.0,"""event"",""trial"",""time""
""fullscreenenter"",""1"",""8095""
","
","
","""event"",""trial"",""time""
""fullscreenenter"",""1"",""8095""
","
",,662.2,run_exp/static/images/task_images/land.jpg,65,,,,,,,6,,,1,,,,,,,,13250,1,1,FALSE,,,
dig,68,460145,0.0-25.0-0.0,"""event"",""trial"",""time""
""fullscreenenter"",""1"",""8095""
","
","
","""event"",""trial"",""time""
""fullscreenenter"",""1"",""8095""
","
",,,,,,,,,,,,"[{""stimulus"":""run_exp/static/images/task_images/dig.jpg"",""time"":0.7000000011175871},{""stimulus"":""run_exp/static/images/task_images/land.jpg"",""time"":783.2000000011176},{""stimulus"":""run_exp/static/images/task_images/dig.jpg"",""time"":1566.4000000003725}]",[],1,,,,,,,,,,,,,,
harvest,69,461153,0.0-25.0-1.0,"""event"",""trial"",""time""
""fullscreenenter"",""1"",""8095""
","
","
","""event"",""trial"",""time""
""fullscreenenter"",""1"",""8095""
","
",,null,run_exp/static/images/task_images/gems/6.jpg,null,,,,,,,1,,,1,,,,,6,0.153653561,0.166666667,,,,,,,
decision,70,461631,0.0-25.0-2.0,"""event"",""trial"",""time""
""fullscreenenter"",""1"",""8095""
","
","
","""event"",""trial"",""time""
""fullscreenenter"",""1"",""8095""
","
",,470.3,run_exp/static/images/task_images/land.jpg,76,,,,,,,1,,,1,,,,,,,,17086,1,2,TRUE,,,
travel,71,471169,0.0-26.0-0.0,"""event"",""trial"",""time""
""fullscreenenter"",""1"",""8095""
","
","
","""event"",""trial"",""time""
""fullscreenenter"",""1"",""8095""
","
",,,,,,,,,,,,"[{""stimulus"":""run_exp/static/images/task_images/rocket-01.jpg"",""time"":0.900000000372529},{""stimulus"":""run_exp/static/images/task_images/rocket-02.jpg"",""time"":1061.0999999996275},{""stimulus"":""run_exp/static/images/task_images/rocket-03.jpg"",""time"":2125.7999999988824},{""stimulus"":""run_exp/static/images/task_images/rocket-04.jpg"",""time"":3182.199999999255},{""stimulus"":""run_exp/static/images/task_images/rocket-05.jpg"",""time"":4238},{""stimulus"":""run_exp/static/images/task_images/rocket-06.jpg"",""time"":5294.5},{""stimulus"":""run_exp/static/images/task_images/rocket-07.jpg"",""time"":6358.5999999996275},{""stimulus"":""run_exp/static/images/task_images/rocket-08.jpg"",""time"":7415},{""stimulus"":""run_exp/static/images/task_images/rocket-09.jpg"",""time"":8470.199999999255}]",[],1,,,,,,,,,,,,,,
alien_welcome,72,476177,0.0-26.0-1.0,"""event"",""trial"",""time""
""fullscreenenter"",""1"",""8095""
","
","
","""event"",""trial"",""time""
""fullscreenenter"",""1"",""8095""
","
",,null,run_exp/static/images/task_images/aliens/old_aliens/planet/alien_planet-2.jpg,null,,,,,,,,,,,,,2,"18,2,74,14,35,15,72,9,7,60,19,20,31,33,73,48,59,6,28,57,45,13,17,69,22,5,70,16,66,75,79,47,62,52,78,41,54,1,25,3,34,56,21,51,24,29,67,49,12,11,44,39,42,46,68,30,65,43,4,10,61,80",,,,,,,,,,
land,73,476690,0.0-26.0-2.0,"""event"",""trial"",""time""
""fullscreenenter"",""1"",""8095""
","
","
","""event"",""trial"",""time""
""fullscreenenter"",""1"",""8095""
","
",,null,run_exp/static/images/task_images/land.jpg,null,,,,,,,101,,,2,,,,,,,,,,,,,,
dig,74,478705,0.0-26.0-3.0,"""event"",""trial"",""time""
""fullscreenenter"",""1"",""8095""
","
","
","""event"",""trial"",""time""
""fullscreenenter"",""1"",""8095""
","
",,,,,,,,,,,,"[{""stimulus"":""run_exp/static/images/task_images/dig.jpg"",""time"":1.199999999254942},{""stimulus"":""run_exp/static/images/task_images/land.jpg"",""time"":674.1999999992549},{""stimulus"":""run_exp/static/images/task_images/dig.jpg"",""time"":1337.699999999255}]",[],2,,,,,,,,,,,,,,
harvest,75,479713,0.0-26.0-4.0,"""event"",""trial"",""time""
""fullscreenenter"",""1"",""8095""
","
","
","""event"",""trial"",""time""
""fullscreenenter"",""1"",""8095""
","
",,null,run_exp/static/images/task_images/gems/101.jpg,null,,,,,,,16,,,2,,,,,101,0.161047445,0.158415842,,,,,,,
decision,76,481901,0.0-26.0-5.0,"""event"",""trial"",""time""
""fullscreenenter"",""1"",""8095""
","
","
","""event"",""trial"",""time""
""fullscreenenter"",""1"",""8095""
","
",,2184,run_exp/static/images/task_images/land.jpg,65,,,,,,,16,,,2,,,,,,,,37357,1,0,FALSE,,,
dig,77,482738,0.0-27.0-0.0,"""event"",""trial"",""time""
""fullscreenenter"",""1"",""8095""
","
","
","""event"",""trial"",""time""
""fullscreenenter"",""1"",""8095""
","
",,,,,,,,,,,,"[{""stimulus"":""run_exp/static/images/task_images/dig.jpg"",""time"":1},{""stimulus"":""run_exp/static/images/task_images/land.jpg"",""time"":278.69999999925494},{""stimulus"":""run_exp/static/images/task_images/dig.jpg"",""time"":551.5999999996275}]",[],2,,,,,,,,,,,,,,
harvest,78,483745,0.0-27.0-1.0,"""event"",""trial"",""time""
""fullscreenenter"",""1"",""8095""
","
","
","""event"",""trial"",""time""
""fullscreenenter"",""1"",""8095""
","
",,null,run_exp/static/images/task_images/gems/16.jpg,null,,,,,,,4,,,2,,,,,16,0.23368303,0.25,,,,,,,
decision,79,485040,0.0-27.0-2.0,"""event"",""trial"",""time""
""fullscreenenter"",""1"",""8095""
","
","
","""event"",""trial"",""time""
""fullscreenenter"",""1"",""8095""
","
",,1291,run_exp/static/images/task_images/land.jpg,65,,,,,,,4,,,2,,,,,,,,40496,1,1,FALSE,,,
dig,80,486769,0.0-28.0-0.0,"""event"",""trial"",""time""
""fullscreenenter"",""1"",""8095""
","
","
","""event"",""trial"",""time""
""fullscreenenter"",""1"",""8095""
","
",,,,,,,,,,,,"[{""stimulus"":""run_exp/static/images/task_images/dig.jpg"",""time"":1},{""stimulus"":""run_exp/static/images/task_images/land.jpg"",""time"":577.6999999992549},{""stimulus"":""run_exp/static/images/task_images/dig.jpg"",""time"":1146.5}]",[],2,,,,,,,,,,,,,,
harvest,81,487777,0.0-28.0-1.0,"""event"",""trial"",""time""
""fullscreenenter"",""1"",""8095""
","
","
","""event"",""trial"",""time""
""fullscreenenter"",""1"",""8095""
","
",,null,run_exp/static/images/task_images/gems/4.jpg,null,,,,,,,1,,,2,,,,,4,0.264897953,0.25,,,,,,,
decision,82,488999,0.0-28.0-2.0,"""event"",""trial"",""time""
""fullscreenenter"",""1"",""8095""
","
","
","""event"",""trial"",""time""
""fullscreenenter"",""1"",""8095""
","
",,1216.7,run_exp/static/images/task_images/land.jpg,76,,,,,,,1,,,2,,,,,,,,44454,1,2,TRUE,,,
travel,83,497793,0.0-29.0-0.0,"""event"",""trial"",""time""
""fullscreenenter"",""1"",""8095""
","
","
","""event"",""trial"",""time""
""fullscreenenter"",""1"",""8095""
","
",,,,,,,,,,,,"[{""stimulus"":""run_exp/static/images/task_images/rocket-01.jpg"",""time"":1.099999999627471},{""stimulus"":""run_exp/static/images/task_images/rocket-02.jpg"",""time"":981.6999999992549},{""stimulus"":""run_exp/static/images/task_images/rocket-03.jpg"",""time"":1958.5},{""stimulus"":""run_exp/static/images/task_images/rocket-04.jpg"",""time"":2933.9000000003725},{""stimulus"":""run_exp/static/images/task_images/rocket-05.jpg"",""time"":3910.300000000745},{""stimulus"":""run_exp/static/images/task_images/rocket-06.jpg"",""time"":4886.4000000003725},{""stimulus"":""run_exp/static/images/task_images/rocket-07.jpg"",""time"":5862.0999999996275},{""stimulus"":""run_exp/static/images/task_images/rocket-08.jpg"",""time"":6830.4000000003725},{""stimulus"":""run_exp/static/images/task_images/rocket-09.jpg"",""time"":7805.800000000745}]",[],2,,,,,,,,,,,,,,
alien_welcome,84,502801,0.0-29.0-1.0,"""event"",""trial"",""time""
""fullscreenenter"",""1"",""8095""
","
","
","""event"",""trial"",""time""
""fullscreenenter"",""1"",""8095""
","
",,null,run_exp/static/images/task_images/aliens/old_aliens/planet/alien_planet-74.jpg,null,,,,,,,,,,,,,74,"18,2,74,14,35,15,72,9,7,60,19,20,31,33,73,48,59,6,28,57,45,13,17,69,22,5,70,16,66,75,79,47,62,52,78,41,54,1,25,3,34,56,21,51,24,29,67,49,12,11,44,39,42,46,68,30,65,43,4,10,61,80",,,,,,,,,,
land,85,503313,0.0-29.0-2.0,"""event"",""trial"",""time""
""fullscreenenter"",""1"",""8095""
","
","
","""event"",""trial"",""time""
""fullscreenenter"",""1"",""8095""
","
",,null,run_exp/static/images/task_images/land.jpg,null,,,,,,,97,,,3,,,,,,,,,,,,,,
dig,86,505329,0.0-29.0-3.0,"""event"",""trial"",""time""
""fullscreenenter"",""1"",""8095""
","
","
","""event"",""trial"",""time""
""fullscreenenter"",""1"",""8095""
","
",,,,,,,,,,,,"[{""stimulus"":""run_exp/static/images/task_images/dig.jpg"",""time"":0.900000000372529},{""stimulus"":""run_exp/static/images/task_images/land.jpg"",""time"":675},{""stimulus"":""run_exp/static/images/task_images/dig.jpg"",""time"":1338.4000000003725}]",[],3,,,,,,,,,,,,,,
harvest,87,506337,0.0-29.0-4.0,"""event"",""trial"",""time""
""fullscreenenter"",""1"",""8095""
","
","
","""event"",""trial"",""time""
""fullscreenenter"",""1"",""8095""
","
",,null,run_exp/static/images/task_images/gems/97.jpg,null,,,,,,,54,,,3,,,,,97,0.552465635,0.556701031,,,,,,,
decision,88,507285,0.0-29.0-5.0,"""event"",""trial"",""time""
""fullscreenenter"",""1"",""8095""
","
","
","""event"",""trial"",""time""
""fullscreenenter"",""1"",""8095""
","
",,944.1,run_exp/static/images/task_images/land.jpg,65,,,,,,,54,,,3,,,,,,,,62740,1,0,FALSE,,,
dig,89,509353,0.0-30.0-0.0,"""event"",""trial"",""time""
""fullscreenenter"",""1"",""8095""
","
","
","""event"",""trial"",""time""
""fullscreenenter"",""1"",""8095""
","
",,,,,,,,,,,,"[{""stimulus"":""run_exp/static/images/task_images/dig.jpg"",""time"":0.6999999992549419},{""stimulus"":""run_exp/static/images/task_images/land.jpg"",""time"":693.4000000003725},{""stimulus"":""run_exp/static/images/task_images/dig.jpg"",""time"":1381.5999999996275}]",[],3,,,,,,,,,,,,,,
harvest,90,510361,0.0-30.0-1.0,"""event"",""trial"",""time""
""fullscreenenter"",""1"",""8095""
","
","
","""event"",""trial"",""time""
""fullscreenenter"",""1"",""8095""
","
",,null,run_exp/static/images/task_images/gems/54.jpg,null,,,,,,,25,,,3,,,,,54,0.47091834,0.462962963,,,,,,,
decision,91,513001,0.0-30.0-2.0,"""event"",""trial"",""time""
""fullscreenenter"",""1"",""8095""
","
","
","""event"",""trial"",""time""
""fullscreenenter"",""1"",""8095""
","
",,2635.6,run_exp/static/images/task_images/land.jpg,76,,,,,,,25,,,3,,,,,,,,68456,1,1,TRUE,,,
travel,92,520386,0.0-31.0-0.0,"""event"",""trial"",""time""
""fullscreenenter"",""1"",""8095""
","
","
","""event"",""trial"",""time""
""fullscreenenter"",""1"",""8095""
","
",,,,,,,,,,,,"[{""stimulus"":""run_exp/static/images/task_images/rocket-01.jpg"",""time"":0.6999999992549419},{""stimulus"":""run_exp/static/images/task_images/rocket-02.jpg"",""time"":825.0999999996275},{""stimulus"":""run_exp/static/images/task_images/rocket-03.jpg"",""time"":1641},{""stimulus"":""run_exp/static/images/task_images/rocket-04.jpg"",""time"":2464.699999999255},{""stimulus"":""run_exp/static/images/task_images/rocket-05.jpg"",""time"":3280.39999999851},{""stimulus"":""run_exp/static/images/task_images/rocket-06.jpg"",""time"":4096.5999999996275},{""stimulus"":""run_exp/static/images/task_images/rocket-07.jpg"",""time"":4912.5999999996275},{""stimulus"":""run_exp/static/images/task_images/rocket-08.jpg"",""time"":5736.39999999851},{""stimulus"":""run_exp/static/images/task_images/rocket-09.jpg"",""time"":6552.39999999851}]",[],3,,,,,,,,,,,,,,
alien_welcome,93,525393,0.0-31.0-1.0,"""event"",""trial"",""time""
""fullscreenenter"",""1"",""8095""
","
","
","""event"",""trial"",""time""
""fullscreenenter"",""1"",""8095""
","
",,null,run_exp/static/images/task_images/aliens/old_aliens/planet/alien_planet-14.jpg,null,,,,,,,,,,,,,14,"18,2,74,14,35,15,72,9,7,60,19,20,31,33,73,48,59,6,28,57,45,13,17,69,22,5,70,16,66,75,79,47,62,52,78,41,54,1,25,3,34,56,21,51,24,29,67,49,12,11,44,39,42,46,68,30,65,43,4,10,61,80",,,,,,,,,,
land,94,525897,0.0-31.0-2.0,"""event"",""trial"",""time""
""fullscreenenter"",""1"",""8095""
","
","
","""event"",""trial"",""time""
""fullscreenenter"",""1"",""8095""
","
",,null,run_exp/static/images/task_images/land.jpg,null,,,,,,,98,,,4,,,,,,,,,,,,,,
dig,95,527913,0.0-31.0-3.0,"""event"",""trial"",""time""
""fullscreenenter"",""1"",""8095""
","
","
","""event"",""trial"",""time""
""fullscreenenter"",""1"",""8095""
","
",,,,,,,,,,,,"[{""stimulus"":""run_exp/static/images/task_images/dig.jpg"",""time"":1.099999999627471},{""stimulus"":""run_exp/static/images/task_images/land.jpg"",""time"":676},{""stimulus"":""run_exp/static/images/task_images/dig.jpg"",""time"":1339.5}]",[],4,,,,,,,,,,,,,,
harvest,96,528921,0.0-31.0-4.0,"""event"",""trial"",""time""
""fullscreenenter"",""1"",""8095""
","
","
","""event"",""trial"",""time""
""fullscreenenter"",""1"",""8095""
","
",,null,run_exp/static/images/task_images/gems/98.jpg,null,,,,,,,47,,,4,,,,,98,0.480766578,0.479591837,,,,,,,
decision,97,529189,0.0-31.0-5.0,"""event"",""trial"",""time""
""fullscreenenter"",""1"",""8095""
","
","
","""event"",""trial"",""time""
""fullscreenenter"",""1"",""8095""
","
",,263.1,run_exp/static/images/task_images/land.jpg,65,,,,,,,47,,,4,,,,,,,,84644,1,0,FALSE,,,
dig,98,531945,0.0-32.0-0.0,"""event"",""trial"",""time""
""fullscreenenter"",""1"",""8095""
","
","
","""event"",""trial"",""time""
""fullscreenenter"",""1"",""8095""
","
",,,,,,,,,,,,"[{""stimulus"":""run_exp/static/images/task_images/dig.jpg"",""time"":1.099999999627471},{""stimulus"":""run_exp/static/images/task_images/land.jpg"",""time"":919.6999999992549},{""stimulus"":""run_exp/static/images/task_images/dig.jpg"",""time"":1831}]",[],4,,,,,,,,,,,,,,
harvest,99,532953,0.0-32.0-1.0,"""event"",""trial"",""time""
""fullscreenenter"",""1"",""8095""
","
","
","""event"",""trial"",""time""
""fullscreenenter"",""1"",""8095""
","
",,null,run_exp/static/images/task_images/gems/47.jpg,null,,,,,,,22,,,4,,,,,47,0.468601236,0.468085106,,,,,,,
decision,100,533697,0.0-32.0-2.0,"""event"",""trial"",""time""
""fullscreenenter"",""1"",""8095""
","
","
","""event"",""trial"",""time""
""fullscreenenter"",""1"",""8095""
","
",,738.7,run_exp/static/images/task_images/land.jpg,76,,,,,,,22,,,4,,,,,,,,89152,1,1,TRUE,,,
travel,101,542977,0.0-33.0-0.0,"""event"",""trial"",""time""
""fullscreenenter"",""1"",""8095""
","
","
","""event"",""trial"",""time""
""fullscreenenter"",""1"",""8095""
","
",,,,,,,,,,,,"[{""stimulus"":""run_exp/static/images/task_images/rocket-01.jpg"",""time"":1.099999999627471},{""stimulus"":""run_exp/static/images/task_images/rocket-02.jpg"",""time"":1034.699999999255},{""stimulus"":""run_exp/static/images/task_images/rocket-03.jpg"",""time"":2066.800000000745},{""stimulus"":""run_exp/static/images/task_images/rocket-04.jpg"",""time"":3099.4000000003725},{""stimulus"":""run_exp/static/images/task_images/rocket-05.jpg"",""time"":4124.800000000745},{""stimulus"":""run_exp/static/images/task_images/rocket-06.jpg"",""time"":5154.199999999255},{""stimulus"":""run_exp/static/images/task_images/rocket-07.jpg"",""time"":6178.5999999996275},{""stimulus"":""run_exp/static/images/task_images/rocket-08.jpg"",""time"":7210.699999999255},{""stimulus"":""run_exp/static/images/task_images/rocket-09.jpg"",""time"":8242.599999999627}]",[],4,,,,,,,,,,,,,,
alien_welcome,102,547985,0.0-33.0-1.0,"""event"",""trial"",""time""
""fullscreenenter"",""1"",""8095""
","
","
","""event"",""trial"",""time""
""fullscreenenter"",""1"",""8095""
","
",,null,run_exp/static/images/task_images/aliens/old_aliens/planet/alien_planet-35.jpg,null,,,,,,,,,,,,,35,"18,2,74,14,35,15,72,9,7,60,19,20,31,33,73,48,59,6,28,57,45,13,17,69,22,5,70,16,66,75,79,47,62,52,78,41,54,1,25,3,34,56,21,51,24,29,67,49,12,11,44,39,42,46,68,30,65,43,4,10,61,80",,,,,,,,,,
land,103,548498,0.0-33.0-2.0,"""event"",""trial"",""time""
""fullscreenenter"",""1"",""8095""
","
","
","""event"",""trial"",""time""
""fullscreenenter"",""1"",""8095""
","
",,null,run_exp/static/images/task_images/land.jpg,null,,,,,,,97,,,5,,,,,,,,,,,,,,
dig,104,550513,0.0-33.0-3.0,"""event"",""trial"",""time""
""fullscreenenter"",""1"",""8095""
","
","
","""event"",""trial"",""time""
""fullscreenenter"",""1"",""8095""
","
",,,,,,,,,,,,"[{""stimulus"":""run_exp/static/images/task_images/dig.jpg"",""time"":1},{""stimulus"":""run_exp/static/images/task_images/land.jpg"",""time"":675.5},{""stimulus"":""run_exp/static/images/task_images/dig.jpg"",""time"":1339.2999999988824}]",[],5,,,,,,,,,,,,,,
harvest,105,551521,0.0-33.0-4.0,"""event"",""trial"",""time""
""fullscreenenter"",""1"",""8095""
","
","
","""event"",""trial"",""time""
""fullscreenenter"",""1"",""8095""
","
",,null,run_exp/static/images/task_images/gems/97.jpg,null,,,,,,,51,,,5,,,,,97,0.528680362,0.525773196,,,,,,,
decision,106,553858,0.0-33.0-5.0,"""event"",""trial"",""time""
""fullscreenenter"",""1"",""8095""
","
","
","""event"",""trial"",""time""
""fullscreenenter"",""1"",""8095""
","
",,2332.7,run_exp/static/images/task_images/land.jpg,76,,,,,,,51,,,5,,,,,,,,109313,1,0,TRUE,,,
travel,107,561537,0.0-34.0-0.0,"""event"",""trial"",""time""
""fullscreenenter"",""1"",""8095""
","
","
","""event"",""trial"",""time""
""fullscreenenter"",""1"",""8095""
","
",,,,,,,,,,,,"[{""stimulus"":""run_exp/static/images/task_images/rocket-01.jpg"",""time"":1},{""stimulus"":""run_exp/static/images/task_images/rocket-02.jpg"",""time"":856.8000000007451},{""stimulus"":""run_exp/static/images/task_images/rocket-03.jpg"",""time"":1712},{""stimulus"":""run_exp/static/images/task_images/rocket-04.jpg"",""time"":2561},{""stimulus"":""run_exp/static/images/task_images/rocket-05.jpg"",""time"":3408.9000000003725},{""stimulus"":""run_exp/static/images/task_images/rocket-06.jpg"",""time"":4264.5999999996275},{""stimulus"":""run_exp/static/images/task_images/rocket-07.jpg"",""time"":5113.200000001118},{""stimulus"":""run_exp/static/images/task_images/rocket-08.jpg"",""time"":5969.0999999996275},{""stimulus"":""run_exp/static/images/task_images/rocket-09.jpg"",""time"":6816.5999999996275}]",[],5,,,,,,,,,,,,,,
alien_welcome,108,566545,0.0-34.0-1.0,"""event"",""trial"",""time""
""fullscreenenter"",""1"",""8095""
","
","
","""event"",""trial"",""time""
""fullscreenenter"",""1"",""8095""
","
",,null,run_exp/static/images/task_images/aliens/old_aliens/planet/alien_planet-15.jpg,null,,,,,,,,,,,,,15,"18,2,74,14,35,15,72,9,7,60,19,20,31,33,73,48,59,6,28,57,45,13,17,69,22,5,70,16,66,75,79,47,62,52,78,41,54,1,25,3,34,56,21,51,24,29,67,49,12,11,44,39,42,46,68,30,65,43,4,10,61,80",,,,,,,,,,
land,109,567049,0.0-34.0-2.0,"""event"",""trial"",""time""
""fullscreenenter"",""1"",""8095""
","
","
","""event"",""trial"",""time""
""fullscreenenter"",""1"",""8095""
","
",,null,run_exp/static/images/task_images/land.jpg,null,,,,,,,101,,,6,,,,,,,,,,,,,,
dig,110,569065,0.0-34.0-3.0,"""event"",""trial"",""time""
""fullscreenenter"",""1"",""8095""
","
","
","""event"",""trial"",""time""
""fullscreenenter"",""1"",""8095""
","
",,,,,,,,,,,,"[{""stimulus"":""run_exp/static/images/task_images/dig.jpg"",""time"":1},{""stimulus"":""run_exp/static/images/task_images/land.jpg"",""time"":675.3999999985099},{""stimulus"":""run_exp/static/images/task_images/dig.jpg"",""time"":1339.5}]",[],6,,,,,,,,,,,,,,
harvest,111,570073,0.0-34.0-4.0,"""event"",""trial"",""time""
""fullscreenenter"",""1"",""8095""
","
","
","""event"",""trial"",""time""
""fullscreenenter"",""1"",""8095""
","
",,null,run_exp/static/images/task_images/gems/101.jpg,null,,,,,,,81,,,6,,,,,101,0.799217118,0.801980198,,,,,,,
decision,112,573081,0.0-34.0-5.0,"""event"",""trial"",""time""
""fullscreenenter"",""1"",""8095""
","
","
","""event"",""trial"",""time""
""fullscreenenter"",""1"",""8095""
","
",,null,run_exp/static/images/task_images/land.jpg,null,,,,,,,81,,,6,,,,,,,,128536,1,0,FALSE,,,
time_out,113,575097,0.0-35.0-0.0,"""event"",""trial"",""time""
""fullscreenenter"",""1"",""8095""
","
","
","""event"",""trial"",""time""
""fullscreenenter"",""1"",""8095""
","
",,null,run_exp/static/images/task_images/time_out.jpg,null,,,,,,,81,,,,,,,,,,,,,,,,,
decision,114,576620,0.0-35.0-1.0,"""event"",""trial"",""time""
""fullscreenenter"",""1"",""8095""
","
","
","""event"",""trial"",""time""
""fullscreenenter"",""1"",""8095""
","
",,1518,run_exp/static/images/task_images/land.jpg,76,,,,,,,81,,,6,,,,,,,,132075,1,0,TRUE,,,
travel,115,585121,0.0-36.0-0.0,"""event"",""trial"",""time""
""fullscreenenter"",""1"",""8095""
","
","
","""event"",""trial"",""time""
""fullscreenenter"",""1"",""8095""
","
",,,,,,,,,,,,"[{""stimulus"":""run_exp/static/images/task_images/rocket-01.jpg"",""time"":1},{""stimulus"":""run_exp/static/images/task_images/rocket-02.jpg"",""time"":952.1000000014901},{""stimulus"":""run_exp/static/images/task_images/rocket-03.jpg"",""time"":1896.2000000011176},{""stimulus"":""run_exp/static/images/task_images/rocket-04.jpg"",""time"":2831.800000000745},{""stimulus"":""run_exp/static/images/task_images/rocket-05.jpg"",""time"":3776},{""stimulus"":""run_exp/static/images/task_images/rocket-06.jpg"",""time"":4719.5},{""stimulus"":""run_exp/static/images/task_images/rocket-07.jpg"",""time"":5663.4000000003725},{""stimulus"":""run_exp/static/images/task_images/rocket-08.jpg"",""time"":6599.9000000003725},{""stimulus"":""run_exp/static/images/task_images/rocket-09.jpg"",""time"":7544.200000001118}]",[],6,,,,,,,,,,,,,,
alien_welcome,116,590129,0.0-36.0-1.0,"""event"",""trial"",""time""
""fullscreenenter"",""1"",""8095""
","
","
","""event"",""trial"",""time""
""fullscreenenter"",""1"",""8095""
","
",,null,run_exp/static/images/task_images/aliens/old_aliens/planet/alien_planet-72.jpg,null,,,,,,,,,,,,,72,"18,2,74,14,35,15,72,9,7,60,19,20,31,33,73,48,59,6,28,57,45,13,17,69,22,5,70,16,66,75,79,47,62,52,78,41,54,1,25,3,34,56,21,51,24,29,67,49,12,11,44,39,42,46,68,30,65,43,4,10,61,80",,,,,,,,,,
land,117,590642,0.0-36.0-2.0,"""event"",""trial"",""time""
""fullscreenenter"",""1"",""8095""
","
","
","""event"",""trial"",""time""
""fullscreenenter"",""1"",""8095""
","
",,null,run_exp/static/images/task_images/land.jpg,null,,,,,,,93,,,7,,,,,,,,,,,,,,
dig,118,592657,0.0-36.0-3.0,"""event"",""trial"",""time""
""fullscreenenter"",""1"",""8095""
","
","
","""event"",""trial"",""time""
""fullscreenenter"",""1"",""8095""
","
",,,,,,,,,,,,"[{""stimulus"":""run_exp/static/images/task_images/dig.jpg"",""time"":1},{""stimulus"":""run_exp/static/images/task_images/land.jpg"",""time"":675},{""stimulus"":""run_exp/static/images/task_images/dig.jpg"",""time"":1338.7999999988824}]",[],7,,,,,,,,,,,,,,
harvest,119,593666,0.0-36.0-4.0,"""event"",""trial"",""time""
""fullscreenenter"",""1"",""8095""
","
","
","""event"",""trial"",""time""
""fullscreenenter"",""1"",""8095""
","
",,null,run_exp/static/images/task_images/gems/93.jpg,null,,,,,,,74,,,7,,,,,93,0.791219352,0.795698925,,,,,,,
decision,120,596508,0.0-36.0-5.0,"""event"",""trial"",""time""
""fullscreenenter"",""1"",""8095""
","
","
","""event"",""trial"",""time""
""fullscreenenter"",""1"",""8095""
","
",,2838.9,run_exp/static/images/task_images/land.jpg,76,,,,,,,74,,,7,,,,,,,,151964,1,0,TRUE,,,
travel,121,603681,0.0-37.0-0.0,"""event"",""trial"",""time""
""fullscreenenter"",""1"",""8095""
","
","
","""event"",""trial"",""time""
""fullscreenenter"",""1"",""8095""
","
",,,,,,,,,,,,"[{""stimulus"":""run_exp/static/images/task_images/rocket-01.jpg"",""time"":1},{""stimulus"":""run_exp/static/images/task_images/rocket-02.jpg"",""time"":799.1999999992549},{""stimulus"":""run_exp/static/images/task_images/rocket-03.jpg"",""time"":1600.5},{""stimulus"":""run_exp/static/images/task_images/rocket-04.jpg"",""time"":2391.5999999996275},{""stimulus"":""run_exp/static/images/task_images/rocket-05.jpg"",""time"":3191.699999999255},{""stimulus"":""run_exp/static/images/task_images/rocket-06.jpg"",""time"":3984.199999999255},{""stimulus"":""run_exp/static/images/task_images/rocket-07.jpg"",""time"":4775.5},{""stimulus"":""run_exp/static/images/task_images/rocket-08.jpg"",""time"":5575.199999999255},{""stimulus"":""run_exp/static/images/task_images/rocket-09.jpg"",""time"":6367.699999999255}]",[],7,,,,,,,,,,,,,,
alien_welcome,122,608689,0.0-37.0-1.0,"""event"",""trial"",""time""
""fullscreenenter"",""1"",""8095""
","
","
","""event"",""trial"",""time""
""fullscreenenter"",""1"",""8095""
","
",,null,run_exp/static/images/task_images/aliens/old_aliens/planet/alien_planet-9.jpg,null,,,,,,,,,,,,,9,"18,2,74,14,35,15,72,9,7,60,19,20,31,33,73,48,59,6,28,57,45,13,17,69,22,5,70,16,66,75,79,47,62,52,78,41,54,1,25,3,34,56,21,51,24,29,67,49,12,11,44,39,42,46,68,30,65,43,4,10,61,80",,,,,,,,,,
land,123,609201,0.0-37.0-2.0,"""event"",""trial"",""time""
""fullscreenenter"",""1"",""8095""
","
","
","""event"",""trial"",""time""
""fullscreenenter"",""1"",""8095""
","
",,null,run_exp/static/images/task_images/land.jpg,null,,,,,,,102,,,8,,,,,,,,,,,,,,
dig,124,611217,0.0-37.0-3.0,"""event"",""trial"",""time""
""fullscreenenter"",""1"",""8095""
","
","
","""event"",""trial"",""time""
""fullscreenenter"",""1"",""8095""
","
",,,,,,,,,,,,"[{""stimulus"":""run_exp/static/images/task_images/dig.jpg"",""time"":2.400000000372529},{""stimulus"":""run_exp/static/images/task_images/land.jpg"",""time"":675.5999999996275},{""stimulus"":""run_exp/static/images/task_images/dig.jpg"",""time"":1339.5}]",[],8,,,,,,,,,,,,,,
harvest,125,612225,0.0-37.0-4.0,"""event"",""trial"",""time""
""fullscreenenter"",""1"",""8095""
","
","
","""event"",""trial"",""time""
""fullscreenenter"",""1"",""8095""
","
",,null,run_exp/static/images/task_images/gems/102.jpg,null,,,,,,,76,,,8,,,,,102,0.740946229,0.745098039,,,,,,,
decision,126,614070,0.0-37.0-5.0,"""event"",""trial"",""time""
""fullscreenenter"",""1"",""8095""
","
","
","""event"",""trial"",""time""
""fullscreenenter"",""1"",""8095""
","
",,1840.2,run_exp/static/images/task_images/land.jpg,76,,,,,,,76,,,8,,,,,,,,169525,1,0,TRUE,,,
travel,127,622242,0.0-38.0-0.0,"""event"",""trial"",""time""
""fullscreenenter"",""1"",""8095""
","
","
","""event"",""trial"",""time""
""fullscreenenter"",""1"",""8095""
","
",,,,,,,,,,,,"[{""stimulus"":""run_exp/static/images/task_images/rocket-01.jpg"",""time"":0.900000000372529},{""stimulus"":""run_exp/static/images/task_images/rocket-02.jpg"",""time"":909.5999999996275},{""stimulus"":""run_exp/static/images/task_images/rocket-03.jpg"",""time"":1821.7000000011176},{""stimulus"":""run_exp/static/images/task_images/rocket-04.jpg"",""time"":2726.300000000745},{""stimulus"":""run_exp/static/images/task_images/rocket-05.jpg"",""time"":3629.9000000003725},{""stimulus"":""run_exp/static/images/task_images/rocket-06.jpg"",""time"":4534},{""stimulus"":""run_exp/static/images/task_images/rocket-07.jpg"",""time"":5446.200000001118},{""stimulus"":""run_exp/static/images/task_images/rocket-08.jpg"",""time"":6350.300000000745},{""stimulus"":""run_exp/static/images/task_images/rocket-09.jpg"",""time"":7254.200000001118}]",[],8,,,,,,,,,,,,,,
alien_welcome,128,627249,0.0-38.0-1.0,"""event"",""trial"",""time""
""fullscreenenter"",""1"",""8095""
","
","
","""event"",""trial"",""time""
""fullscreenenter"",""1"",""8095""
","
",,null,run_exp/static/images/task_images/aliens/old_aliens/planet/alien_planet-7.jpg,null,,,,,,,,,,,,,7,"18,2,74,14,35,15,72,9,7,60,19,20,31,33,73,48,59,6,28,57,45,13,17,69,22,5,70,16,66,75,79,47,62,52,78,41,54,1,25,3,34,56,21,51,24,29,67,49,12,11,44,39,42,46,68,30,65,43,4,10,61,80",,,,,,,,,,
land,129,627761,0.0-38.0-2.0,"""event"",""trial"",""time""
""fullscreenenter"",""1"",""8095""
","
","
","""event"",""trial"",""time""
""fullscreenenter"",""1"",""8095""
","
",,null,run_exp/static/images/task_images/land.jpg,null,,,,,,,103,,,9,,,,,,,,,,,,,,
dig,130,629777,0.0-38.0-3.0,"""event"",""trial"",""time""
""fullscreenenter"",""1"",""8095""
","
","
","""event"",""trial"",""time""
""fullscreenenter"",""1"",""8095""
","
",,,,,,,,,,,,"[{""stimulus"":""run_exp/static/images/task_images/dig.jpg"",""time"":1},{""stimulus"":""run_exp/static/images/task_images/land.jpg"",""time"":675.5},{""stimulus"":""run_exp/static/images/task_images/dig.jpg"",""time"":1339.5999999996275}]",[],9,,,,,,,,,,,,,,
harvest,131,630785,0.0-38.0-4.0,"""event"",""trial"",""time""
""fullscreenenter"",""1"",""8095""
","
","
","""event"",""trial"",""time""
""fullscreenenter"",""1"",""8095""
","
",,null,run_exp/static/images/task_images/gems/103.jpg,null,,,,,,,21,,,9,,,,,103,0.20559838,0.203883495,,,,,,,
decision,132,633361,0.0-38.0-5.0,"""event"",""trial"",""time""
""fullscreenenter"",""1"",""8095""
","
","
","""event"",""trial"",""time""
""fullscreenenter"",""1"",""8095""
","
",,2571.7,run_exp/static/images/task_images/land.jpg,76,,,,,,,21,,,9,,,,,,,,188816,1,0,TRUE,,,
travel,133,640809,0.0-39.0-0.0,"""event"",""trial"",""time""
""fullscreenenter"",""1"",""8095""
","
","
","""event"",""trial"",""time""
""fullscreenenter"",""1"",""8095""
","
",,,,,,,,,,,,"[{""stimulus"":""run_exp/static/images/task_images/rocket-01.jpg"",""time"":1},{""stimulus"":""run_exp/static/images/task_images/rocket-02.jpg"",""time"":834.0999999996275},{""stimulus"":""run_exp/static/images/task_images/rocket-03.jpg"",""time"":1658.2999999988824},{""stimulus"":""run_exp/static/images/task_images/rocket-04.jpg"",""time"":2482.5},{""stimulus"":""run_exp/static/images/task_images/rocket-05.jpg"",""time"":3305.39999999851},{""stimulus"":""run_exp/static/images/task_images/rocket-06.jpg"",""time"":4129.5999999996275},{""stimulus"":""run_exp/static/images/task_images/rocket-07.jpg"",""time"":4954.299999998882},{""stimulus"":""run_exp/static/images/task_images/rocket-08.jpg"",""time"":5785.699999999255},{""stimulus"":""run_exp/static/images/task_images/rocket-09.jpg"",""time"":6610.299999998882}]",[],9,,,,,,,,,,,,,,
alien_welcome,134,645817,0.0-39.0-1.0,"""event"",""trial"",""time""
""fullscreenenter"",""1"",""8095""
","
","
","""event"",""trial"",""time""
""fullscreenenter"",""1"",""8095""
","
",,null,run_exp/static/images/task_images/aliens/old_aliens/planet/alien_planet-60.jpg,null,,,,,,,,,,,,,60,"18,2,74,14,35,15,72,9,7,60,19,20,31,33,73,48,59,6,28,57,45,13,17,69,22,5,70,16,66,75,79,47,62,52,78,41,54,1,25,3,34,56,21,51,24,29,67,49,12,11,44,39,42,46,68,30,65,43,4,10,61,80",,,,,,,,,,
land,135,646321,0.0-39.0-2.0,"""event"",""trial"",""time""
""fullscreenenter"",""1"",""8095""
","
","
","""event"",""trial"",""time""
""fullscreenenter"",""1"",""8095""
","
",,null,run_exp/static/images/task_images/land.jpg,null,,,,,,,97,,,10,,,,,,,,,,,,,,
dig,136,648337,0.0-39.0-3.0,"""event"",""trial"",""time""
""fullscreenenter"",""1"",""8095""
","
","
","""event"",""trial"",""time""
""fullscreenenter"",""1"",""8095""
","
",,,,,,,,,,,,"[{""stimulus"":""run_exp/static/images/task_images/dig.jpg"",""time"":0.599999999627471},{""stimulus"":""run_exp/static/images/task_images/land.jpg"",""time"":675.2000000011176},{""stimulus"":""run_exp/static/images/task_images/dig.jpg"",""time"":1339.0999999996275}]",[],10,,,,,,,,,,,,,,
harvest,137,649345,0.0-39.0-4.0,"""event"",""trial"",""time""
""fullscreenenter"",""1"",""8095""
","
","
","""event"",""trial"",""time""
""fullscreenenter"",""1"",""8095""
","
",,null,run_exp/static/images/task_images/gems/97.jpg,null,,,,,,,13,,,10,,,,,97,0.134575634,0.134020619,,,,,,,
decision,138,649474,0.0-39.0-5.0,"""event"",""trial"",""time""
""fullscreenenter"",""1"",""8095""
","
","
","""event"",""trial"",""time""
""fullscreenenter"",""1"",""8095""
","
",,125.1,run_exp/static/images/task_images/land.jpg,65,,,,,,,13,,,10,,,,,,,,204930,1,0,FALSE,,,
dig,139,652369,0.0-40.0-0.0,"""event"",""trial"",""time""
""fullscreenenter"",""1"",""8095""
","
","
","""event"",""trial"",""time""
""fullscreenenter"",""1"",""8095""
","
",,,,,,,,,,,,"[{""stimulus"":""run_exp/static/images/task_images/dig.jpg"",""time"":0.599999999627471},{""stimulus"":""run_exp/static/images/task_images/land.jpg"",""time"":962.6999999992549},{""stimulus"":""run_exp/static/images/task_images/dig.jpg"",""time"":1923.0999999996275}]",[],10,,,,,,,,,,,,,,
harvest,140,653377,0.0-40.0-1.0,"""event"",""trial"",""time""
""fullscreenenter"",""1"",""8095""
","
","
","""event"",""trial"",""time""
""fullscreenenter"",""1"",""8095""
","
",,null,run_exp/static/images/task_images/gems/13.jpg,null,,,,,,,3,,,10,,,,,13,0.193905999,0.230769231,,,,,,,
decision,141,653968,0.0-40.0-2.0,"""event"",""trial"",""time""
""fullscreenenter"",""1"",""8095""
","
","
","""event"",""trial"",""time""
""fullscreenenter"",""1"",""8095""
","
",,586.4,run_exp/static/images/task_images/land.jpg,76,,,,,,,3,,,10,,,,,,,,209423,1,1,TRUE,,,
travel,142,663393,0.0-41.0-0.0,"""event"",""trial"",""time""
""fullscreenenter"",""1"",""8095""
","
","
","""event"",""trial"",""time""
""fullscreenenter"",""1"",""8095""
","
",,,,,,,,,,,,"[{""stimulus"":""run_exp/static/images/task_images/rocket-01.jpg"",""time"":1},{""stimulus"":""run_exp/static/images/task_images/rocket-02.jpg"",""time"":1051.800000000745},{""stimulus"":""run_exp/static/images/task_images/rocket-03.jpg"",""time"":2099.9000000003725},{""stimulus"":""run_exp/static/images/task_images/rocket-04.jpg"",""time"":3140.199999999255},{""stimulus"":""run_exp/static/images/task_images/rocket-05.jpg"",""time"":4188.0999999996275},{""stimulus"":""run_exp/static/images/task_images/rocket-06.jpg"",""time"":5236},{""stimulus"":""run_exp/static/images/task_images/rocket-07.jpg"",""time"":6276.300000000745},{""stimulus"":""run_exp/static/images/task_images/rocket-08.jpg"",""time"":7324.5999999996275},{""stimulus"":""run_exp/static/images/task_images/rocket-09.jpg"",""time"":8364.199999999255}]",[],10,,,,,,,,,,,,,,
alien_welcome,143,668401,0.0-41.0-1.0,"""event"",""trial"",""time""
""fullscreenenter"",""1"",""8095""
","
","
","""event"",""trial"",""time""
""fullscreenenter"",""1"",""8095""
","
",,null,run_exp/static/images/task_images/aliens/old_aliens/planet/alien_planet-19.jpg,null,,,,,,,,,,,,,19,"18,2,74,14,35,15,72,9,7,60,19,20,31,33,73,48,59,6,28,57,45,13,17,69,22,5,70,16,66,75,79,47,62,52,78,41,54,1,25,3,34,56,21,51,24,29,67,49,12,11,44,39,42,46,68,30,65,43,4,10,61,80",,,,,,,,,,
land,144,668913,0.0-41.0-2.0,"""event"",""trial"",""time""
""fullscreenenter"",""1"",""8095""
","
","
","""event"",""trial"",""time""
""fullscreenenter"",""1"",""8095""
","
",,null,run_exp/static/images/task_images/land.jpg,null,,,,,,,94,,,11,,,,,,,,,,,,,,
dig,145,670929,0.0-41.0-3.0,"""event"",""trial"",""time""
""fullscreenenter"",""1"",""8095""
","
","
","""event"",""trial"",""time""
""fullscreenenter"",""1"",""8095""
","
",,,,,,,,,,,,"[{""stimulus"":""run_exp/static/images/task_images/dig.jpg"",""time"":1},{""stimulus"":""run_exp/static/images/task_images/land.jpg"",""time"":673.6999999992549},{""stimulus"":""run_exp/static/images/task_images/dig.jpg"",""time"":1338.199999999255}]",[],11,,,,,,,,,,,,,,
harvest,146,671937,0.0-41.0-4.0,"""event"",""trial"",""time""
""fullscreenenter"",""1"",""8095""
","
","
","""event"",""trial"",""time""
""fullscreenenter"",""1"",""8095""
","
",,null,run_exp/static/images/task_images/gems/94.jpg,null,,,,,,,13,,,11,,,,,94,0.136666208,0.138297872,,,,,,,
decision,147,674668,0.0-41.0-5.0,"""event"",""trial"",""time""
""fullscreenenter"",""1"",""8095""
","
","
","""event"",""trial"",""time""
""fullscreenenter"",""1"",""8095""
","
",,2726.1,run_exp/static/images/task_images/land.jpg,76,,,,,,,13,,,11,,,,,,,,230123,1,0,TRUE,,,
travel,148,681961,0.0-42.0-0.0,"""event"",""trial"",""time""
""fullscreenenter"",""1"",""8095""
","
","
","""event"",""trial"",""time""
""fullscreenenter"",""1"",""8095""
","
",,,,,,,,,,,,"[{""stimulus"":""run_exp/static/images/task_images/rocket-01.jpg"",""time"":1},{""stimulus"":""run_exp/static/images/task_images/rocket-02.jpg"",""time"":816.5},{""stimulus"":""run_exp/static/images/task_images/rocket-03.jpg"",""time"":1624.5},{""stimulus"":""run_exp/static/images/task_images/rocket-04.jpg"",""time"":2432.300000000745},{""stimulus"":""run_exp/static/images/task_images/rocket-05.jpg"",""time"":3240.0999999996275},{""stimulus"":""run_exp/static/images/task_images/rocket-06.jpg"",""time"":4048.9000000003725},{""stimulus"":""run_exp/static/images/task_images/rocket-07.jpg"",""time"":4856.5},{""stimulus"":""run_exp/static/images/task_images/rocket-08.jpg"",""time"":5664.700000001118},{""stimulus"":""run_exp/static/images/task_images/rocket-09.jpg"",""time"":6472.5999999996275}]",[],11,,,,,,,,,,,,,,
alien_welcome,149,686970,0.0-42.0-1.0,"""event"",""trial"",""time""
""fullscreenenter"",""1"",""8095""
","
","
","""event"",""trial"",""time""
""fullscreenenter"",""1"",""8095""
","
",,null,run_exp/static/images/task_images/aliens/old_aliens/planet/alien_planet-20.jpg,null,,,,,,,,,,,,,20,"18,2,74,14,35,15,72,9,7,60,19,20,31,33,73,48,59,6,28,57,45,13,17,69,22,5,70,16,66,75,79,47,62,52,78,41,54,1,25,3,34,56,21,51,24,29,67,49,12,11,44,39,42,46,68,30,65,43,4,10,61,80",,,,,,,,,,
land,150,687481,0.0-42.0-2.0,"""event"",""trial"",""time""
""fullscreenenter"",""1"",""8095""
","
","
","""event"",""trial"",""time""
""fullscreenenter"",""1"",""8095""
","
",,null,run_exp/static/images/task_images/land.jpg,null,,,,,,,104,,,12,,,,,,,,,,,,,,
dig,151,689497,0.0-42.0-3.0,"""event"",""trial"",""time""
""fullscreenenter"",""1"",""8095""
","
","
","""event"",""trial"",""time""
""fullscreenenter"",""1"",""8095""
","
",,,,,,,,,,,,"[{""stimulus"":""run_exp/static/images/task_images/dig.jpg"",""time"":1},{""stimulus"":""run_exp/static/images/task_images/land.jpg"",""time"":675.1999999992549},{""stimulus"":""run_exp/static/images/task_images/dig.jpg"",""time"":1339.3999999985099}]",[],12,,,,,,,,,,,,,,
harvest,152,690505,0.0-42.0-4.0,"""event"",""trial"",""time""
""fullscreenenter"",""1"",""8095""
","
","
","""event"",""trial"",""time""
""fullscreenenter"",""1"",""8095""
","
",,null,run_exp/static/images/task_images/gems/104.jpg,null,,,,,,,35,,,12,,,,,104,0.332508226,0.336538462,,,,,,,
decision,153,693513,0.0-42.0-5.0,"""event"",""trial"",""time""
""fullscreenenter"",""1"",""8095""
","
","
","""event"",""trial"",""time""
""fullscreenenter"",""1"",""8095""
","
",,null,run_exp/static/images/task_images/land.jpg,null,,,,,,,35,,,12,,,,,,,,248968,1,0,FALSE,,,
time_out,154,695521,0.0-43.0-0.0,"""event"",""trial"",""time""
""fullscreenenter"",""1"",""8095""
","
","
","""event"",""trial"",""time""
""fullscreenenter"",""1"",""8095""
","
",,null,run_exp/static/images/task_images/time_out.jpg,null,,,,,,,35,,,,,,,,,,,,,,,,,
decision,155,696993,0.0-43.0-1.0,"""event"",""trial"",""time""
""fullscreenenter"",""1"",""8095""
","
","
","""event"",""trial"",""time""
""fullscreenenter"",""1"",""8095""
","
",,1466.7,run_exp/static/images/task_images/land.jpg,76,,,,,,,35,,,12,,,,,,,,252448,1,0,TRUE,,,
travel,156,705545,0.0-44.0-0.0,"""event"",""trial"",""time""
""fullscreenenter"",""1"",""8095""
","
","
","""event"",""trial"",""time""
""fullscreenenter"",""1"",""8095""
","
",,,,,,,,,,,,"[{""stimulus"":""run_exp/static/images/task_images/rocket-01.jpg"",""time"":0.8000000007450581},{""stimulus"":""run_exp/static/images/task_images/rocket-02.jpg"",""time"":956.8000000007451},{""stimulus"":""run_exp/static/images/task_images/rocket-03.jpg"",""time"":1901.2000000011176},{""stimulus"":""run_exp/static/images/task_images/rocket-04.jpg"",""time"":2852.7000000011176},{""stimulus"":""run_exp/static/images/task_images/rocket-05.jpg"",""time"":3797.2000000011176},{""stimulus"":""run_exp/static/images/task_images/rocket-06.jpg"",""time"":4749.5},{""stimulus"":""run_exp/static/images/task_images/rocket-07.jpg"",""time"":5692.9000000003725},{""stimulus"":""run_exp/static/images/task_images/rocket-08.jpg"",""time"":6645.0999999996275},{""stimulus"":""run_exp/static/images/task_images/rocket-09.jpg"",""time"":7589.200000001118}]",[],12,,,,,,,,,,,,,,
alien_welcome,157,710553,0.0-44.0-1.0,"""event"",""trial"",""time""
""fullscreenenter"",""1"",""8095""
","
","
","""event"",""trial"",""time""
""fullscreenenter"",""1"",""8095""
","
",,null,run_exp/static/images/task_images/aliens/old_aliens/planet/alien_planet-31.jpg,null,,,,,,,,,,,,,31,"18,2,74,14,35,15,72,9,7,60,19,20,31,33,73,48,59,6,28,57,45,13,17,69,22,5,70,16,66,75,79,47,62,52,78,41,54,1,25,3,34,56,21,51,24,29,67,49,12,11,44,39,42,46,68,30,65,43,4,10,61,80",,,,,,,,,,
land,158,711065,0.0-44.0-2.0,"""event"",""trial"",""time""
""fullscreenenter"",""1"",""8095""
","
","
","""event"",""trial"",""time""
""fullscreenenter"",""1"",""8095""
","
",,null,run_exp/static/images/task_images/land.jpg,null,,,,,,,99,,,13,,,,,,,,,,,,,,
dig,159,713073,0.0-44.0-3.0,"""event"",""trial"",""time""
""fullscreenenter"",""1"",""8095""
","
","
","""event"",""trial"",""time""
""fullscreenenter"",""1"",""8095""
","
",,,,,,,,,,,,"[{""stimulus"":""run_exp/static/images/task_images/dig.jpg"",""time"":1},{""stimulus"":""run_exp/static/images/task_images/land.jpg"",""time"":678},{""stimulus"":""run_exp/static/images/task_images/dig.jpg"",""time"":1342.7000000011176}]",[],13,,,,,,,,,,,,,,
harvest,160,714081,0.0-44.0-4.0,"""event"",""trial"",""time""
""fullscreenenter"",""1"",""8095""
","
","
","""event"",""trial"",""time""
""fullscreenenter"",""1"",""8095""
","
",,null,run_exp/static/images/task_images/gems/99.jpg,null,,,,,,,19,,,13,,,,,99,0.195552113,0.191919192,,,,,,,
decision,161,715645,0.0-44.0-5.0,"""event"",""trial"",""time""
""fullscreenenter"",""1"",""8095""
","
","
","""event"",""trial"",""time""
""fullscreenenter"",""1"",""8095""
","
",,1560,run_exp/static/images/task_images/land.jpg,76,,,,,,,19,,,13,,,,,,,,271100,1,0,TRUE,,,
travel,162,724097,0.0-45.0-0.0,"""event"",""trial"",""time""
""fullscreenenter"",""1"",""8095""
","
","
","""event"",""trial"",""time""
""fullscreenenter"",""1"",""8095""
","
",,,,,,,,,,,,"[{""stimulus"":""run_exp/static/images/task_images/rocket-01.jpg"",""time"":1.099999999627471},{""stimulus"":""run_exp/static/images/task_images/rocket-02.jpg"",""time"":942.2999999988824},{""stimulus"":""run_exp/static/images/task_images/rocket-03.jpg"",""time"":1878.4000000003725},{""stimulus"":""run_exp/static/images/task_images/rocket-04.jpg"",""time"":2822.9000000003725},{""stimulus"":""run_exp/static/images/task_images/rocket-05.jpg"",""time"":3758.699999999255},{""stimulus"":""run_exp/static/images/task_images/rocket-06.jpg"",""time"":4694.299999998882},{""stimulus"":""run_exp/static/images/task_images/rocket-07.jpg"",""time"":5630.799999998882},{""stimulus"":""run_exp/static/images/task_images/rocket-08.jpg"",""time"":6566.9000000003725},{""stimulus"":""run_exp/static/images/task_images/rocket-09.jpg"",""time"":7503}]",[],13,,,,,,,,,,,,,,
alien_welcome,163,729105,0.0-45.0-1.0,"""event"",""trial"",""time""
""fullscreenenter"",""1"",""8095""
","
","
","""event"",""trial"",""time""
""fullscreenenter"",""1"",""8095""
","
",,null,run_exp/static/images/task_images/aliens/old_aliens/planet/alien_planet-33.jpg,null,,,,,,,,,,,,,33,"18,2,74,14,35,15,72,9,7,60,19,20,31,33,73,48,59,6,28,57,45,13,17,69,22,5,70,16,66,75,79,47,62,52,78,41,54,1,25,3,34,56,21,51,24,29,67,49,12,11,44,39,42,46,68,30,65,43,4,10,61,80",,,,,,,,,,
land,164,729618,0.0-45.0-2.0,"""event"",""trial"",""time""
""fullscreenenter"",""1"",""8095""
","
","
","""event"",""trial"",""time""
""fullscreenenter"",""1"",""8095""
","
",,null,run_exp/static/images/task_images/land.jpg,null,,,,,,,107,,,14,,,,,,,,,,,,,,
dig,165,731633,0.0-45.0-3.0,"""event"",""trial"",""time""
""fullscreenenter"",""1"",""8095""
","
","
","""event"",""trial"",""time""
""fullscreenenter"",""1"",""8095""
","
",,,,,,,,,,,,"[{""stimulus"":""run_exp/static/images/task_images/dig.jpg"",""time"":1},{""stimulus"":""run_exp/static/images/task_images/land.jpg"",""time"":675.2000000011176},{""stimulus"":""run_exp/static/images/task_images/dig.jpg"",""time"":1339.2000000011176}]",[],14,,,,,,,,,,,,,,
harvest,166,732641,0.0-45.0-4.0,"""event"",""trial"",""time""
""fullscreenenter"",""1"",""8095""
","
","
","""event"",""trial"",""time""
""fullscreenenter"",""1"",""8095""
","
",,null,run_exp/static/images/task_images/gems/107.jpg,null,,,,,,,90,,,14,,,,,107,0.838450548,0.841121495,,,,,,,
decision,167,734455,0.0-45.0-5.0,"""event"",""trial"",""time""
""fullscreenenter"",""1"",""8095""
","
","
","""event"",""trial"",""time""
""fullscreenenter"",""1"",""8095""
","
",,1808.7,run_exp/static/images/task_images/land.jpg,76,,,,,,,90,,,14,,,,,,,,289910,1,0,TRUE,,,
travel,168,742665,0.0-46.0-0.0,"""event"",""trial"",""time""
""fullscreenenter"",""1"",""8095""
","
","
","""event"",""trial"",""time""
""fullscreenenter"",""1"",""8095""
","
",,,,,,,,,,,,"[{""stimulus"":""run_exp/static/images/task_images/rocket-01.jpg"",""time"":0.6000000014901161},{""stimulus"":""run_exp/static/images/task_images/rocket-02.jpg"",""time"":914.4000000003725},{""stimulus"":""run_exp/static/images/task_images/rocket-03.jpg"",""time"":1827},{""stimulus"":""run_exp/static/images/task_images/rocket-04.jpg"",""time"":2739.7000000011176},{""stimulus"":""run_exp/static/images/task_images/rocket-05.jpg"",""time"":3643.5},{""stimulus"":""run_exp/static/images/task_images/rocket-06.jpg"",""time"":4555.4000000003725},{""stimulus"":""run_exp/static/images/task_images/rocket-07.jpg"",""time"":5467.5},{""stimulus"":""run_exp/static/images/task_images/rocket-08.jpg"",""time"":6379.700000001118},{""stimulus"":""run_exp/static/images/task_images/rocket-09.jpg"",""time"":7283}]",[],14,,,,,,,,,,,,,,
alien_welcome,169,747674,0.0-46.0-1.0,"""event"",""trial"",""time""
""fullscreenenter"",""1"",""8095""
","
","
","""event"",""trial"",""time""
""fullscreenenter"",""1"",""8095""
","
",,null,run_exp/static/images/task_images/aliens/old_aliens/planet/alien_planet-73.jpg,null,,,,,,,,,,,,,73,"18,2,74,14,35,15,72,9,7,60,19,20,31,33,73,48,59,6,28,57,45,13,17,69,22,5,70,16,66,75,79,47,62,52,78,41,54,1,25,3,34,56,21,51,24,29,67,49,12,11,44,39,42,46,68,30,65,43,4,10,61,80",,,,,,,,,,
land,170,748185,0.0-46.0-2.0,"""event"",""trial"",""time""
""fullscreenenter"",""1"",""8095""
","
","
","""event"",""trial"",""time""
""fullscreenenter"",""1"",""8095""
","
",,null,run_exp/static/images/task_images/land.jpg,null,,,,,,,102,,,15,,,,,,,,,,,,,,
dig,171,750201,0.0-46.0-3.0,"""event"",""trial"",""time""
""fullscreenenter"",""1"",""8095""
","
","
","""event"",""trial"",""time""
""fullscreenenter"",""1"",""8095""
","
",,,,,,,,,,,,"[{""stimulus"":""run_exp/static/images/task_images/dig.jpg"",""time"":0.8999999985098839},{""stimulus"":""run_exp/static/images/task_images/land.jpg"",""time"":675},{""stimulus"":""run_exp/static/images/task_images/dig.jpg"",""time"":1338.7999999988824}]",[],15,,,,,,,,,,,,,,
harvest,172,751209,0.0-46.0-4.0,"""event"",""trial"",""time""
""fullscreenenter"",""1"",""8095""
","
","
","""event"",""trial"",""time""
""fullscreenenter"",""1"",""8095""
","
",,null,run_exp/static/images/task_images/gems/102.jpg,null,,,,,,,78,,,15,,,,,102,0.761873406,0.764705882,,,,,,,
decision,173,752499,0.0-46.0-5.0,"""event"",""trial"",""time""
""fullscreenenter"",""1"",""8095""
","
","
","""event"",""trial"",""time""
""fullscreenenter"",""1"",""8095""
","
",,1284.8,run_exp/static/images/task_images/land.jpg,76,,,,,,,78,,,15,,,,,,,,307954,1,0,TRUE,,,
end_of_block_continue,174,761542,0.0-47.0-0.0,"""event"",""trial"",""time""
""fullscreenenter"",""1"",""8095""
","
","
","""event"",""trial"",""time""
""fullscreenenter"",""1"",""8095""
","
",,null,run_exp/static/audio/clip_32_block_end.m4a,,,,,,,null,,,,,,,,,,,,,,,,,,
alien_welcome,175,766553,0.0-48.0-0.0,"""event"",""trial"",""time""
""fullscreenenter"",""1"",""8095""
","
","
","""event"",""trial"",""time""
""fullscreenenter"",""1"",""8095""
","
",,null,run_exp/static/images/task_images/aliens/old_aliens/planet/alien_planet-48.jpg,null,,,,,,,,,,,,,48,"18,2,74,14,35,15,72,9,7,60,19,20,31,33,73,48,59,6,28,57,45,13,17,69,22,5,70,16,66,75,79,47,62,52,78,41,54,1,25,3,34,56,21,51,24,29,67,49,12,11,44,39,42,46,68,30,65,43,4,10,61,80",,,,,,,,,,
land,176,767057,0.0-48.0-1.0,"""event"",""trial"",""time""
""fullscreenenter"",""1"",""8095""
","
","
","""event"",""trial"",""time""
""fullscreenenter"",""1"",""8095""
","
",,null,run_exp/static/images/task_images/land.jpg,null,,,,,,,92,,,16,,,,,,,,,,,,,,
dig,177,769073,0.0-48.0-2.0,"""event"",""trial"",""time""
""fullscreenenter"",""1"",""8095""
","
","
","""event"",""trial"",""time""
""fullscreenenter"",""1"",""8095""
","
",,,,,,,,,,,,"[{""stimulus"":""run_exp/static/images/task_images/dig.jpg"",""time"":1},{""stimulus"":""run_exp/static/images/task_images/land.jpg"",""time"":676},{""stimulus"":""run_exp/static/images/task_images/dig.jpg"",""time"":1340.4000000003725}]",[],16,,,,,,,,,,,,,,
harvest,178,770081,0.0-48.0-3.0,"""event"",""trial"",""time""
""fullscreenenter"",""1"",""8095""
","
","
","""event"",""trial"",""time""
""fullscreenenter"",""1"",""8095""
","
",,null,run_exp/static/images/task_images/gems/92.jpg,null,,,,,,,23,,,16,,,,,92,0.247464694,0.25,,,,,,,
decision,179,771597,0.0-48.0-4.0,"""event"",""trial"",""time""
""fullscreenenter"",""1"",""8095""
","
","
","""event"",""trial"",""time""
""fullscreenenter"",""1"",""8095""
","
",,1512.3,run_exp/static/images/task_images/land.jpg,76,,,,,,,23,,,16,,,,,,,,10050,2,0,TRUE,,,
travel,180,780105,0.0-49.0-0.0,"""event"",""trial"",""time""
""fullscreenenter"",""1"",""8095""
","
","
","""event"",""trial"",""time""
""fullscreenenter"",""1"",""8095""
","
",,,,,,,,,,,,"[{""stimulus"":""run_exp/static/images/task_images/rocket-01.jpg"",""time"":0.599999999627471},{""stimulus"":""run_exp/static/images/task_images/rocket-02.jpg"",""time"":946.9000000003725},{""stimulus"":""run_exp/static/images/task_images/rocket-03.jpg"",""time"":1891},{""stimulus"":""run_exp/static/images/task_images/rocket-04.jpg"",""time"":2834.7999999988824},{""stimulus"":""run_exp/static/images/task_images/rocket-05.jpg"",""time"":3779.4000000003725},{""stimulus"":""run_exp/static/images/task_images/rocket-06.jpg"",""time"":4724},{""stimulus"":""run_exp/static/images/task_images/rocket-07.jpg"",""time"":5667.299999998882},{""stimulus"":""run_exp/static/images/task_images/rocket-08.jpg"",""time"":6610.9000000003725},{""stimulus"":""run_exp/static/images/task_images/rocket-09.jpg"",""time"":7547}]",[],16,,,,,,,,,,,,,,
alien_welcome,181,785114,0.0-49.0-1.0,"""event"",""trial"",""time""
""fullscreenenter"",""1"",""8095""
","
","
","""event"",""trial"",""time""
""fullscreenenter"",""1"",""8095""
","
",,null,run_exp/static/images/task_images/aliens/old_aliens/planet/alien_planet-59.jpg,null,,,,,,,,,,,,,59,"18,2,74,14,35,15,72,9,7,60,19,20,31,33,73,48,59,6,28,57,45,13,17,69,22,5,70,16,66,75,79,47,62,52,78,41,54,1,25,3,34,56,21,51,24,29,67,49,12,11,44,39,42,46,68,30,65,43,4,10,61,80",,,,,,,,,,
land,182,785625,0.0-49.0-2.0,"""event"",""trial"",""time""
""fullscreenenter"",""1"",""8095""
","
","
","""event"",""trial"",""time""
""fullscreenenter"",""1"",""8095""
","
",,null,run_exp/static/images/task_images/land.jpg,null,,,,,,,109,,,17,,,,,,,,,,,,,,
dig,183,787641,0.0-49.0-3.0,"""event"",""trial"",""time""
""fullscreenenter"",""1"",""8095""
","
","
","""event"",""trial"",""time""
""fullscreenenter"",""1"",""8095""
","
",,,,,,,,,,,,"[{""stimulus"":""run_exp/static/images/task_images/dig.jpg"",""time"":1},{""stimulus"":""run_exp/static/images/task_images/land.jpg"",""time"":676.7000000011176},{""stimulus"":""run_exp/static/images/task_images/dig.jpg"",""time"":1340.2000000011176}]",[],17,,,,,,,,,,,,,,
harvest,184,788649,0.0-49.0-4.0,"""event"",""trial"",""time""
""fullscreenenter"",""1"",""8095""
","
","
","""event"",""trial"",""time""
""fullscreenenter"",""1"",""8095""
","
",,null,run_exp/static/images/task_images/gems/109.jpg,null,,,,,,,18,,,17,,,,,109,0.166199367,0.165137615,,,,,,,
decision,185,790496,0.0-49.0-5.0,"""event"",""trial"",""time""
""fullscreenenter"",""1"",""8095""
","
","
","""event"",""trial"",""time""
""fullscreenenter"",""1"",""8095""
","
",,1842.6,run_exp/static/images/task_images/land.jpg,76,,,,,,,18,,,17,,,,,,,,28948,2,0,TRUE,,,
travel,186,798673,0.0-50.0-0.0,"""event"",""trial"",""time""
""fullscreenenter"",""1"",""8095""
","
","
","""event"",""trial"",""time""
""fullscreenenter"",""1"",""8095""
","
",,,,,,,,,,,,"[{""stimulus"":""run_exp/static/images/task_images/rocket-01.jpg"",""time"":1},{""stimulus"":""run_exp/static/images/task_images/rocket-02.jpg"",""time"":915.6999999992549},{""stimulus"":""run_exp/static/images/task_images/rocket-03.jpg"",""time"":1820.0999999996275},{""stimulus"":""run_exp/static/images/task_images/rocket-04.jpg"",""time"":2724.9000000003725},{""stimulus"":""run_exp/static/images/task_images/rocket-05.jpg"",""time"":3628.199999999255},{""stimulus"":""run_exp/static/images/task_images/rocket-06.jpg"",""time"":4540.5},{""stimulus"":""run_exp/static/images/task_images/rocket-07.jpg"",""time"":5444.0999999996275},{""stimulus"":""run_exp/static/images/task_images/rocket-08.jpg"",""time"":6348.199999999255},{""stimulus"":""run_exp/static/images/task_images/rocket-09.jpg"",""time"":7252.0999999996275}]",[],17,,,,,,,,,,,,,,
alien_welcome,187,803681,0.0-50.0-1.0,"""event"",""trial"",""time""
""fullscreenenter"",""1"",""8095""
","
","
","""event"",""trial"",""time""
""fullscreenenter"",""1"",""8095""
","
",,null,run_exp/static/images/task_images/aliens/old_aliens/planet/alien_planet-6.jpg,null,,,,,,,,,,,,,6,"18,2,74,14,35,15,72,9,7,60,19,20,31,33,73,48,59,6,28,57,45,13,17,69,22,5,70,16,66,75,79,47,62,52,78,41,54,1,25,3,34,56,21,51,24,29,67,49,12,11,44,39,42,46,68,30,65,43,4,10,61,80",,,,,,,,,,
land,188,804193,0.0-50.0-2.0,"""event"",""trial"",""time""
""fullscreenenter"",""1"",""8095""
","
","
","""event"",""trial"",""time""
""fullscreenenter"",""1"",""8095""
","
",,null,run_exp/static/images/task_images/land.jpg,null,,,,,,,96,,,18,,,,,,,,,,,,,,
dig,189,806210,0.0-50.0-3.0,"""event"",""trial"",""time""
""fullscreenenter"",""1"",""8095""
","
","
","""event"",""trial"",""time""
""fullscreenenter"",""1"",""8095""
","
",,,,,,,,,,,,"[{""stimulus"":""run_exp/static/images/task_images/dig.jpg"",""time"":1},{""stimulus"":""run_exp/static/images/task_images/land.jpg"",""time"":675.1999999992549},{""stimulus"":""run_exp/static/images/task_images/dig.jpg"",""time"":1339.800000000745}]",[],18,,,,,,,,,,,,,,
harvest,190,807217,0.0-50.0-4.0,"""event"",""trial"",""time""
""fullscreenenter"",""1"",""8095""
","
","
","""event"",""trial"",""time""
""fullscreenenter"",""1"",""8095""
","
",,null,run_exp/static/images/task_images/gems/96.jpg,null,,,,,,,26,,,18,,,,,96,0.275866969,0.270833333,,,,,,,
decision,191,808443,0.0-50.0-5.0,"""event"",""trial"",""time""
""fullscreenenter"",""1"",""8095""
","
","
","""event"",""trial"",""time""
""fullscreenenter"",""1"",""8095""
","
",,1221.1,run_exp/static/images/task_images/land.jpg,76,,,,,,,26,,,18,,,,,,,,46895,2,0,TRUE,,,
travel,192,817241,0.0-51.0-0.0,"""event"",""trial"",""time""
""fullscreenenter"",""1"",""8095""
","
","
","""event"",""trial"",""time""
""fullscreenenter"",""1"",""8095""
","
",,,,,,,,,,,,"[{""stimulus"":""run_exp/static/images/task_images/rocket-01.jpg"",""time"":1},{""stimulus"":""run_exp/static/images/task_images/rocket-02.jpg"",""time"":983.4000000003725},{""stimulus"":""run_exp/static/images/task_images/rocket-03.jpg"",""time"":1959.300000000745},{""stimulus"":""run_exp/static/images/task_images/rocket-04.jpg"",""time"":2935.800000000745},{""stimulus"":""run_exp/static/images/task_images/rocket-05.jpg"",""time"":3912},{""stimulus"":""run_exp/static/images/task_images/rocket-06.jpg"",""time"":4879.0999999996275},{""stimulus"":""run_exp/static/images/task_images/rocket-07.jpg"",""time"":5855.700000001118},{""stimulus"":""run_exp/static/images/task_images/rocket-08.jpg"",""time"":6828},{""stimulus"":""run_exp/static/images/task_images/rocket-09.jpg"",""time"":7807.4000000003725}]",[],18,,,,,,,,,,,,,,
alien_welcome,193,822249,0.0-51.0-1.0,"""event"",""trial"",""time""
""fullscreenenter"",""1"",""8095""
","
","
","""event"",""trial"",""time""
""fullscreenenter"",""1"",""8095""
","
",,null,run_exp/static/images/task_images/aliens/old_aliens/planet/alien_planet-28.jpg,null,,,,,,,,,,,,,28,"18,2,74,14,35,15,72,9,7,60,19,20,31,33,73,48,59,6,28,57,45,13,17,69,22,5,70,16,66,75,79,47,62,52,78,41,54,1,25,3,34,56,21,51,24,29,67,49,12,11,44,39,42,46,68,30,65,43,4,10,61,80",,,,,,,,,,
land,194,822761,0.0-51.0-2.0,"""event"",""trial"",""time""
""fullscreenenter"",""1"",""8095""
","
","
","""event"",""trial"",""time""
""fullscreenenter"",""1"",""8095""
","
",,null,run_exp/static/images/task_images/land.jpg,null,,,,,,,96,,,19,,,,,,,,,,,,,,
dig,195,824777,0.0-51.0-3.0,"""event"",""trial"",""time""
""fullscreenenter"",""1"",""8095""
","
","
","""event"",""trial"",""time""
""fullscreenenter"",""1"",""8095""
","
",,,,,,,,,,,,"[{""stimulus"":""run_exp/static/images/task_images/dig.jpg"",""time"":1.1000000014901161},{""stimulus"":""run_exp/static/images/task_images/land.jpg"",""time"":675.7000000011176},{""stimulus"":""run_exp/static/images/task_images/dig.jpg"",""time"":1339}]",[],19,,,,,,,,,,,,,,
harvest,196,825786,0.0-51.0-4.0,"""event"",""trial"",""time""
""fullscreenenter"",""1"",""8095""
","
","
","""event"",""trial"",""time""
""fullscreenenter"",""1"",""8095""
","
",,null,run_exp/static/images/task_images/gems/96.jpg,null,,,,,,,80,,,19,,,,,96,0.829897684,0.833333333,,,,,,,
decision,197,827849,0.0-51.0-5.0,"""event"",""trial"",""time""
""fullscreenenter"",""1"",""8095""
","
","
","""event"",""trial"",""time""
""fullscreenenter"",""1"",""8095""
","
",,2058.6,run_exp/static/images/task_images/land.jpg,76,,,,,,,80,,,19,,,,,,,,66301,2,0,TRUE,,,
travel,198,835809,0.0-52.0-0.0,"""event"",""trial"",""time""
""fullscreenenter"",""1"",""8095""
","
","
","""event"",""trial"",""time""
""fullscreenenter"",""1"",""8095""
","
",,,,,,,,,,,,"[{""stimulus"":""run_exp/static/images/task_images/rocket-01.jpg"",""time"":0.900000000372529},{""stimulus"":""run_exp/static/images/task_images/rocket-02.jpg"",""time"":888.3000000007451},{""stimulus"":""run_exp/static/images/task_images/rocket-03.jpg"",""time"":1769.5},{""stimulus"":""run_exp/static/images/task_images/rocket-04.jpg"",""time"":2654.10000000149},{""stimulus"":""run_exp/static/images/task_images/rocket-05.jpg"",""time"":3537.7000000011176},{""stimulus"":""run_exp/static/images/task_images/rocket-06.jpg"",""time"":4418.200000001118},{""stimulus"":""run_exp/static/images/task_images/rocket-07.jpg"",""time"":5297.200000001118},{""stimulus"":""run_exp/static/images/task_images/rocket-08.jpg"",""time"":6185.200000001118},{""stimulus"":""run_exp/static/images/task_images/rocket-09.jpg"",""time"":7065.300000000745}]",[],19,,,,,,,,,,,,,,
alien_welcome,199,840817,0.0-52.0-1.0,"""event"",""trial"",""time""
""fullscreenenter"",""1"",""8095""
","
","
","""event"",""trial"",""time""
""fullscreenenter"",""1"",""8095""
","
",,null,run_exp/static/images/task_images/aliens/old_aliens/planet/alien_planet-57.jpg,null,,,,,,,,,,,,,57,"18,2,74,14,35,15,72,9,7,60,19,20,31,33,73,48,59,6,28,57,45,13,17,69,22,5,70,16,66,75,79,47,62,52,78,41,54,1,25,3,34,56,21,51,24,29,67,49,12,11,44,39,42,46,68,30,65,43,4,10,61,80",,,,,,,,,,
land,200,841329,0.0-52.0-2.0,"""event"",""trial"",""time""
""fullscreenenter"",""1"",""8095""
","
","
","""event"",""trial"",""time""
""fullscreenenter"",""1"",""8095""
","
",,null,run_exp/static/images/task_images/land.jpg,null,,,,,,,102,,,20,,,,,,,,,,,,,,
dig,201,843345,0.0-52.0-3.0,"""event"",""trial"",""time""
""fullscreenenter"",""1"",""8095""
","
","
","""event"",""trial"",""time""
""fullscreenenter"",""1"",""8095""
","
",,,,,,,,,,,,"[{""stimulus"":""run_exp/static/images/task_images/dig.jpg"",""time"":1},{""stimulus"":""run_exp/static/images/task_images/land.jpg"",""time"":675.2999999988824},{""stimulus"":""run_exp/static/images/task_images/dig.jpg"",""time"":1339.2999999988824}]",[],20,,,,,,,,,,,,,,
harvest,202,844353,0.0-52.0-4.0,"""event"",""trial"",""time""
""fullscreenenter"",""1"",""8095""
","
","
","""event"",""trial"",""time""
""fullscreenenter"",""1"",""8095""
","
",,null,run_exp/static/images/task_images/gems/102.jpg,null,,,,,,,87,,,20,,,,,102,0.854276683,0.852941176,,,,,,,
decision,203,844731,0.0-52.0-5.0,"""event"",""trial"",""time""
""fullscreenenter"",""1"",""8095""
","
","
","""event"",""trial"",""time""
""fullscreenenter"",""1"",""8095""
","
",,373.2,run_exp/static/images/task_images/land.jpg,76,,,,,,,87,,,20,,,,,,,,83183,2,0,TRUE,,,
travel,204,854370,0.0-53.0-0.0,"""event"",""trial"",""time""
""fullscreenenter"",""1"",""8095""
","
","
","""event"",""trial"",""time""
""fullscreenenter"",""1"",""8095""
","
",,,,,,,,,,,,"[{""stimulus"":""run_exp/static/images/task_images/rocket-01.jpg"",""time"":1.6000000014901161},{""stimulus"":""run_exp/static/images/task_images/rocket-02.jpg"",""time"":1078.2000000011176},{""stimulus"":""run_exp/static/images/task_images/rocket-03.jpg"",""time"":2150},{""stimulus"":""run_exp/static/images/task_images/rocket-04.jpg"",""time"":3214.7000000011176},{""stimulus"":""run_exp/static/images/task_images/rocket-05.jpg"",""time"":4286.10000000149},{""stimulus"":""run_exp/static/images/task_images/rocket-06.jpg"",""time"":5350.60000000149},{""stimulus"":""run_exp/static/images/task_images/rocket-07.jpg"",""time"":6422.60000000149},{""stimulus"":""run_exp/static/images/task_images/rocket-08.jpg"",""time"":7494.60000000149},{""stimulus"":""run_exp/static/images/task_images/rocket-09.jpg"",""time"":8558.5}]",[],20,,,,,,,,,,,,,,
alien_welcome,205,859378,0.0-53.0-1.0,"""event"",""trial"",""time""
""fullscreenenter"",""1"",""8095""
","
","
","""event"",""trial"",""time""
""fullscreenenter"",""1"",""8095""
","
",,null,run_exp/static/images/task_images/aliens/old_aliens/planet/alien_planet-45.jpg,null,,,,,,,,,,,,,45,"18,2,74,14,35,15,72,9,7,60,19,20,31,33,73,48,59,6,28,57,45,13,17,69,22,5,70,16,66,75,79,47,62,52,78,41,54,1,25,3,34,56,21,51,24,29,67,49,12,11,44,39,42,46,68,30,65,43,4,10,61,80",,,,,,,,,,
land,206,859889,0.0-53.0-2.0,"""event"",""trial"",""time""
""fullscreenenter"",""1"",""8095""
","
","
","""event"",""trial"",""time""
""fullscreenenter"",""1"",""8095""
","
",,null,run_exp/static/images/task_images/land.jpg,null,,,,,,,99,,,21,,,,,,,,,,,,,,
dig,207,861906,0.0-53.0-3.0,"""event"",""trial"",""time""
""fullscreenenter"",""1"",""8095""
","
","
","""event"",""trial"",""time""
""fullscreenenter"",""1"",""8095""
","
",,,,,,,,,,,,"[{""stimulus"":""run_exp/static/images/task_images/dig.jpg"",""time"":1},{""stimulus"":""run_exp/static/images/task_images/land.jpg"",""time"":676},{""stimulus"":""run_exp/static/images/task_images/dig.jpg"",""time"":1339.7000000011176}]",[],21,,,,,,,,,,,,,,
harvest,208,862914,0.0-53.0-4.0,"""event"",""trial"",""time""
""fullscreenenter"",""1"",""8095""
","
","
","""event"",""trial"",""time""
""fullscreenenter"",""1"",""8095""
","
",,null,run_exp/static/images/task_images/gems/99.jpg,null,,,,,,,80,,,21,,,,,99,0.80674994,0.808080808,,,,,,,
decision,209,865921,0.0-53.0-5.0,"""event"",""trial"",""time""
""fullscreenenter"",""1"",""8095""
","
","
","""event"",""trial"",""time""
""fullscreenenter"",""1"",""8095""
","
",,null,run_exp/static/images/task_images/land.jpg,null,,,,,,,80,,,21,,,,,,,,104374,2,0,FALSE,,,
time_out,210,867937,0.0-54.0-0.0,"""event"",""trial"",""time""
""fullscreenenter"",""1"",""8095""
","
","
","""event"",""trial"",""time""
""fullscreenenter"",""1"",""8095""
","
",,null,run_exp/static/images/task_images/time_out.jpg,null,,,,,,,80,,,,,,,,,,,,,,,,,
decision,211,869609,0.0-54.0-1.0,"""event"",""trial"",""time""
""fullscreenenter"",""1"",""8095""
","
","
","""event"",""trial"",""time""
""fullscreenenter"",""1"",""8095""
","
",,1667,run_exp/static/images/task_images/land.jpg,65,,,,,,,80,,,21,,,,,,,,108061,2,0,FALSE,,,
dig,212,870961,0.0-55.0-0.0,"""event"",""trial"",""time""
""fullscreenenter"",""1"",""8095""
","
","
","""event"",""trial"",""time""
""fullscreenenter"",""1"",""8095""
","
",,,,,,,,,,,,"[{""stimulus"":""run_exp/static/images/task_images/dig.jpg"",""time"":0.5},{""stimulus"":""run_exp/static/images/task_images/land.jpg"",""time"":451.7000000011176},{""stimulus"":""run_exp/static/images/task_images/dig.jpg"",""time"":891.5}]",[],21,,,,,,,,,,,,,,
harvest,213,871969,0.0-55.0-1.0,"""event"",""trial"",""time""
""fullscreenenter"",""1"",""8095""
","
","
","""event"",""trial"",""time""
""fullscreenenter"",""1"",""8095""
","
",,null,run_exp/static/images/task_images/gems/80.jpg,null,,,,,,,67,,,21,,,,,80,0.832422624,0.8375,,,,,,,
decision,214,872761,0.0-55.0-2.0,"""event"",""trial"",""time""
""fullscreenenter"",""1"",""8095""
","
","
","""event"",""trial"",""time""
""fullscreenenter"",""1"",""8095""
","
",,786.6,run_exp/static/images/task_images/land.jpg,65,,,,,,,67,,,21,,,,,,,,111213,2,1,FALSE,,,
dig,215,874993,0.0-56.0-0.0,"""event"",""trial"",""time""
""fullscreenenter"",""1"",""8095""
","
","
","""event"",""trial"",""time""
""fullscreenenter"",""1"",""8095""
","
",,,,,,,,,,,,"[{""stimulus"":""run_exp/static/images/task_images/dig.jpg"",""time"":0.7000000011175871},{""stimulus"":""run_exp/static/images/task_images/land.jpg"",""time"":743.5},{""stimulus"":""run_exp/static/images/task_images/dig.jpg"",""time"":1479.9000000003725}]",[],21,,,,,,,,,,,,,,
harvest,216,876002,0.0-56.0-1.0,"""event"",""trial"",""time""
""fullscreenenter"",""1"",""8095""
","
","
","""event"",""trial"",""time""
""fullscreenenter"",""1"",""8095""
","
",,null,run_exp/static/images/task_images/gems/67.jpg,null,,,,,,,46,,,21,,,,,67,0.685472488,0.686567164,,,,,,,
decision,217,876462,0.0-56.0-2.0,"""event"",""trial"",""time""
""fullscreenenter"",""1"",""8095""
","
","
","""event"",""trial"",""time""
""fullscreenenter"",""1"",""8095""
","
",,456,run_exp/static/images/task_images/land.jpg,76,,,,,,,46,,,21,,,,,,,,114914,2,2,TRUE,,,
travel,218,886025,0.0-57.0-0.0,"""event"",""trial"",""time""
""fullscreenenter"",""1"",""8095""
","
","
","""event"",""trial"",""time""
""fullscreenenter"",""1"",""8095""
","
",,,,,,,,,,,,"[{""stimulus"":""run_exp/static/images/task_images/rocket-01.jpg"",""time"":1},{""stimulus"":""run_exp/static/images/task_images/rocket-02.jpg"",""time"":1069.199999999255},{""stimulus"":""run_exp/static/images/task_images/rocket-03.jpg"",""time"":2124.699999999255},{""stimulus"":""run_exp/static/images/task_images/rocket-04.jpg"",""time"":3188.9000000003725},{""stimulus"":""run_exp/static/images/task_images/rocket-05.jpg"",""time"":4245.199999999255},{""stimulus"":""run_exp/static/images/task_images/rocket-06.jpg"",""time"":5311.300000000745},{""stimulus"":""run_exp/static/images/task_images/rocket-07.jpg"",""time"":6365.300000000745},{""stimulus"":""run_exp/static/images/task_images/rocket-08.jpg"",""time"":7429.4000000003725},{""stimulus"":""run_exp/static/images/task_images/rocket-09.jpg"",""time"":8485}]",[],21,,,,,,,,,,,,,,
alien_welcome,219,891034,0.0-57.0-1.0,"""event"",""trial"",""time""
""fullscreenenter"",""1"",""8095""
","
","
","""event"",""trial"",""time""
""fullscreenenter"",""1"",""8095""
","
",,null,run_exp/static/images/task_images/aliens/old_aliens/planet/alien_planet-13.jpg,null,,,,,,,,,,,,,13,"18,2,74,14,35,15,72,9,7,60,19,20,31,33,73,48,59,6,28,57,45,13,17,69,22,5,70,16,66,75,79,47,62,52,78,41,54,1,25,3,34,56,21,51,24,29,67,49,12,11,44,39,42,46,68,30,65,43,4,10,61,80",,,,,,,,,,
land,220,891545,0.0-57.0-2.0,"""event"",""trial"",""time""
""fullscreenenter"",""1"",""8095""
","
","
","""event"",""trial"",""time""
""fullscreenenter"",""1"",""8095""
","
",,null,run_exp/static/images/task_images/land.jpg,null,,,,,,,95,,,22,,,,,,,,,,,,,,
dig,221,893561,0.0-57.0-3.0,"""event"",""trial"",""time""
""fullscreenenter"",""1"",""8095""
","
","
","""event"",""trial"",""time""
""fullscreenenter"",""1"",""8095""
","
",,,,,,,,,,,,"[{""stimulus"":""run_exp/static/images/task_images/dig.jpg"",""time"":0.8999999985098839},{""stimulus"":""run_exp/static/images/task_images/land.jpg"",""time"":675.3999999985099},{""stimulus"":""run_exp/static/images/task_images/dig.jpg"",""time"":1339.199999999255}]",[],22,,,,,,,,,,,,,,
harvest,222,894569,0.0-57.0-4.0,"""event"",""trial"",""time""
""fullscreenenter"",""1"",""8095""
","
","
","""event"",""trial"",""time""
""fullscreenenter"",""1"",""8095""
","
",,null,run_exp/static/images/task_images/gems/95.jpg,null,,,,,,,80,,,22,,,,,95,0.84414008,0.842105263,,,,,,,
decision,223,895038,0.0-57.0-5.0,"""event"",""trial"",""time""
""fullscreenenter"",""1"",""8095""
","
","
","""event"",""trial"",""time""
""fullscreenenter"",""1"",""8095""
","
",,464.6,run_exp/static/images/task_images/land.jpg,76,,,,,,,80,,,22,,,,,,,,133490,2,0,TRUE,,,
travel,224,904593,0.0-58.0-0.0,"""event"",""trial"",""time""
""fullscreenenter"",""1"",""8095""
","
","
","""event"",""trial"",""time""
""fullscreenenter"",""1"",""8095""
","
