trial_type,trial_index,time_elapsed,internal_node_id,interactions,blur_events,focus_events,fullscreenenter_events,fullscreenexit_events,success,rt,stimulus,key_press,prompt,subject_id,participant_id,age,gender,button_pressed,next_reward,animation_sequence,responses,planet,curr_prac_trial,n_prac_rounds,alien,aliens,reward_received,decay_rate_actual,decay_rate_exp,time_in_block,block_num,prt,last_trial_on_planet,button_html,bonus,num_failures
pavlovia,0,2,0.0-0.0,"""event"",""trial"",""time""
""fullscreenenter"",""1"",""17384""
","
","
","""event"",""trial"",""time""
""fullscreenenter"",""1"",""17384""
","
",,,,,,,,,,,,,,,,,,,,,,,,,,,,
fullscreen,1,18381,0.0-1.0,"""event"",""trial"",""time""
""fullscreenenter"",""1"",""17384""
","
","
","""event"",""trial"",""time""
""fullscreenenter"",""1"",""17384""
","
",TRUE,,,,,,,,,,,,,,,,,,,,,,,,,,,
instruc_welcome,2,28456,0.0-2.0,"""event"",""trial"",""time""
""fullscreenenter"",""1"",""17384""
","
","
","""event"",""trial"",""time""
""fullscreenenter"",""1"",""17384""
","
",,null,run_exp/static/audio/clip_1_welcome.m4a,null,"<p>Howdy! In this experiment, you’ll be an explorer traveling through space to collect space treasure.</p><p>Your mission is to collect as much treasure as possible.</p><br><br><p><img src='run_exp/static/images/task_images/opening_img-01.jpg' height='300' width='auto'></p>",7942,3880,19.47,Male,,,,,,,,,,,,,,,,,,,
audio-keyboard-response,3,45240,0.0-3.0,"""event"",""trial"",""time""
""fullscreenenter"",""1"",""17384""
","
","
","""event"",""trial"",""time""
""fullscreenenter"",""1"",""17384""
","
",,null,run_exp/static/audio/clip_2_move.m4a,null,,,,,,,,,,,,,,,,,,,,,,,,
welcome_dec,4,45996,0.0-4.0,"""event"",""trial"",""time""
""fullscreenenter"",""1"",""17384""
","
","
","""event"",""trial"",""time""
""fullscreenenter"",""1"",""17384""
","
",,754.2,"<p>Howdy! In this experiment, you’ll be an explorer traveling through space to collect space treasure.</p><p>Your mission is to collect as much treasure as possible.</p><br><br><p><img src='run_exp/static/images/task_images/opening_img-01.jpg' height='300' width='auto'></p>",,,,,,,0,,,,,,,,,,,,,,,,,,
html-keyboard-response,5,46469,0.0-5.0,"""event"",""trial"",""time""
""fullscreenenter"",""1"",""17384""
","
","
","""event"",""trial"",""time""
""fullscreenenter"",""1"",""17384""
","
",,470.2,"<p>Howdy! In this experiment, you’ll be an explorer traveling through space to collect space treasure.</p><p>Your mission is to collect as much treasure as possible.</p><br><br><p><img src='run_exp/static/images/task_images/opening_img-01.jpg' height='300' width='auto'></p><button class=""jspsych-html-btn-chosen""><img src=""run_exp/static/images/task_images/planet-01.jpg"" height=""50""></button><button class=""jspsych-html-btn-unchosen""><img src=""run_exp/static/images/task_images/planet-02.jpg"" height=""50""></button><p><b>[press the space bar to lock in your answer]<b><br></p>",32,,,,,,,,,,,,,,,,,,,,,,,,
instruc_welcome,6,56410,0.0-6.0-0.0,"""event"",""trial"",""time""
""fullscreenenter"",""1"",""17384""
","
","
","""event"",""trial"",""time""
""fullscreenenter"",""1"",""17384""
","
",,null,run_exp/static/audio/clip_1_welcome.m4a,null,"<p>Howdy! In this experiment, you’ll be an explorer traveling through space to collect space treasure.</p><p>Your mission is to collect as much treasure as possible.</p><br><br><p><img src='run_exp/static/images/task_images/opening_img-01.jpg' height='300' width='auto'></p>",7942,3880,19,Male,,,,,,,,,,,,,,,,,,,
audio-keyboard-response,7,73197,0.0-6.0-1.0,"""event"",""trial"",""time""
""fullscreenenter"",""1"",""17384""
","
","
","""event"",""trial"",""time""
""fullscreenenter"",""1"",""17384""
","
",,null,run_exp/static/audio/clip_2_move.m4a,null,,,,,,,,,,,,,,,,,,,,,,,,
welcome_dec,8,73589,0.0-6.0-2.0,"""event"",""trial"",""time""
""fullscreenenter"",""1"",""17384""
","
","
","""event"",""trial"",""time""
""fullscreenenter"",""1"",""17384""
","
",,389.5,"<p>Howdy! In this experiment, you’ll be an explorer traveling through space to collect space treasure.</p><p>Your mission is to collect as much treasure as possible.</p><br><br><p><img src='run_exp/static/images/task_images/opening_img-01.jpg' height='300' width='auto'></p>",,,,,,,1,,,,,,,,,,,,,,,,,,
html-keyboard-response,9,73907,0.0-6.0-3.0,"""event"",""trial"",""time""
""fullscreenenter"",""1"",""17384""
","
","
","""event"",""trial"",""time""
""fullscreenenter"",""1"",""17384""
","
",,316.3,"<p>Howdy! In this experiment, you’ll be an explorer traveling through space to collect space treasure.</p><p>Your mission is to collect as much treasure as possible.</p><br><br><p><img src='run_exp/static/images/task_images/opening_img-01.jpg' height='300' width='auto'></p><button class=""jspsych-html-btn-unchosen""><img src=""run_exp/static/images/task_images/planet-01.jpg"" height=""50""></button><button class=""jspsych-html-btn-chosen""><img src=""run_exp/static/images/task_images/planet-02.jpg"" height=""50""></button><p><b>[press the space bar to lock in your answer]<b><br></p>",32,,,,,,,,,,,,,,,,,,,,,,,,
instruc_goal,10,84157,0.0-7.0-0.0,"""event"",""trial"",""time""
""fullscreenenter"",""1"",""17384""
","
","
","""event"",""trial"",""time""
""fullscreenenter"",""1"",""17384""
","
",,null,run_exp/static/audio/clip_3_goal.m4a,null,"<p> As a space explorer, you’ll visit different planets to dig for space treasure, these pink gems.</p> <p> The more treasure you dig up, the more bonus money you’ll win! </p><br><br><p><img src='run_exp/static/images/task_images/pink_gem.jpg' height='300' width='auto'></p>",,,,,,,,,,,,,,,,,,,,,,,
instruc_goal,11,84999,0.0-7.0-1.0,"""event"",""trial"",""time""
""fullscreenenter"",""1"",""17384""
","
","
","""event"",""trial"",""time""
""fullscreenenter"",""1"",""17384""
","
",,836.9,"<p> As a space explorer, you’ll visit different planets to dig for space treasure, these pink gems.</p> <p> The more treasure you dig up, the more bonus money you’ll win! </p><br><br><p><img src='run_exp/static/images/task_images/pink_gem.jpg' height='300' width='auto'></p>",,,,,,,1,,,,,,,,,,,,,,,,,,
html-keyboard-response,12,85174,0.0-7.0-2.0,"""event"",""trial"",""time""
""fullscreenenter"",""1"",""17384""
","
","
","""event"",""trial"",""time""
""fullscreenenter"",""1"",""17384""
","
",,172.1,"<p> As a space explorer, you’ll visit different planets to dig for space treasure, these pink gems.</p> <p> The more treasure you dig up, the more bonus money you’ll win! </p><br><br><p><img src='run_exp/static/images/task_images/pink_gem.jpg' height='300' width='auto'></p><button class=""jspsych-html-btn-unchosen""><img src=""run_exp/static/images/task_images/planet-01.jpg"" height=""50""></button><button class=""jspsych-html-btn-chosen""><img src=""run_exp/static/images/task_images/planet-02.jpg"" height=""50""></button><p><b>[press the space bar to lock in your answer]<b><br></p>",32,,,,,,,,,,,,,,,,,,,,,,,,
instruc_dig,13,101387,0.0-8.0-0.0,"""event"",""trial"",""time""
""fullscreenenter"",""1"",""17384""
","
","
","""event"",""trial"",""time""
""fullscreenenter"",""1"",""17384""
","
",,null,run_exp/static/audio/clip_4_dig.m4a,null,,,,,,,100,,,,,,,,,,,,,,,,,
instruc_dig_try,14,101795,0.0-8.0-1.0,"""event"",""trial"",""time""
""fullscreenenter"",""1"",""17384""
","
","
","""event"",""trial"",""time""
""fullscreenenter"",""1"",""17384""
","
",,405.8000001,"<p> When you’ve arrived at a new planet, you will dig once. </p> <p>Then, you get to decide if you want to stay on the planet and dig again or travel to a new planet and dig there.</p> <p> To stay and dig, press the letter <strong>‘A’</strong> on your keyboard. Try pressing it now! </p><p><img src='run_exp/static/images/task_images/land.jpg'  height='700' width='auto'></p>",65,"<p> When you’ve arrived at a new planet, you will dig once. </p> <p>Then, you get to decide if you want to stay on the planet and dig again or travel to a new planet and dig there.</p> <p> To stay and dig, press the letter <strong>‘A’</strong> on your keyboard. Try pressing it now! </p><p><img src='run_exp/static/images/task_images/land.jpg'  height='700' width='auto'></p>",,,,,,100,,,,,,,,,,,,,,,,,
dig_prac,15,103813,0.0-8.0-2.0,"""event"",""trial"",""time""
""fullscreenenter"",""1"",""17384""
","
","
","""event"",""trial"",""time""
""fullscreenenter"",""1"",""17384""
","
",,,,,,,,,,,,"[{""stimulus"":""run_exp/static/images/task_images/dig.jpg"",""time"":0.5},{""stimulus"":""run_exp/static/images/task_images/land.jpg"",""time"":670.8000000715256},{""stimulus"":""run_exp/static/images/task_images/dig.jpg"",""time"":1343}]",[],,,,,,,,,,,,,,,
instruc_travel,16,140257,0.0-8.0-3.0,"""event"",""trial"",""time""
""fullscreenenter"",""1"",""17384""
","
","
","""event"",""trial"",""time""
""fullscreenenter"",""1"",""17384""
","
",,null,run_exp/static/audio/clip_5_travel.m4a,null,"<p>Every time you dig up gems, there are less gems on the planet, so the more you dig on a planet the fewer gems you’ll get with each dig.</p><p>When gems are running low, you may want to travel to a new planet. </p> <p>  Planets are very far apart in this galaxy, so it will take some time to travel between them. </p> <br><p>There are lots and lots of planets for you to visit, so you won’t be able to return to any planets you’ve seen before. </p><br><p>To leave this planet and travel to a new one, press the letter <strong>‘L’</strong> on your keyboard. Try pressing it now! </p><p><img src='run_exp/static/images/task_images/rocket-01.jpg'  height='600' width='auto'></p>",,,,,,,,,,,,,,,,,,,,,,,
instruc_travel_try,17,140989,0.0-8.0-4.0,"""event"",""trial"",""time""
""fullscreenenter"",""1"",""17384""
","
","
","""event"",""trial"",""time""
""fullscreenenter"",""1"",""17384""
","
",,729.1,"<p>Every time you dig up gems, there are less gems on the planet, so the more you dig on a planet the fewer gems you’ll get with each dig.</p><p>When gems are running low, you may want to travel to a new planet. </p> <p>  Planets are very far apart in this galaxy, so it will take some time to travel between them. </p> <br><p>There are lots and lots of planets for you to visit, so you won’t be able to return to any planets you’ve seen before. </p><br><p>To leave this planet and travel to a new one, press the letter <strong>‘L’</strong> on your keyboard. Try pressing it now! </p><p><img src='run_exp/static/images/task_images/rocket-01.jpg'  height='600' width='auto'></p>",76,"<p>Every time you dig up gems, there are less gems on the planet, so the more you dig on a planet the fewer gems you’ll get with each dig.</p><p>When gems are running low, you may want to travel to a new planet. </p> <p>  Planets are very far apart in this galaxy, so it will take some time to travel between them. </p> <br><p>There are lots and lots of planets for you to visit, so you won’t be able to return to any planets you’ve seen before. </p><br><p>To leave this planet and travel to a new one, press the letter <strong>‘L’</strong> on your keyboard. Try pressing it now! </p><p><img src='run_exp/static/images/task_images/rocket-01.jpg'  height='600' width='auto'></p>",,,,,,,,,,,,,,,,,,,,,,,
travel_prac,18,150994,0.0-8.0-5.0,"""event"",""trial"",""time""
""fullscreenenter"",""1"",""17384""
","
","
","""event"",""trial"",""time""
""fullscreenenter"",""1"",""17384""
","
",,,,,,,,,,,,"[{""stimulus"":""run_exp/static/images/task_images/rocket-01.jpg"",""time"":0.20000004768371582},{""stimulus"":""run_exp/static/images/task_images/rocket-02.jpg"",""time"":1120},{""stimulus"":""run_exp/static/images/task_images/rocket-03.jpg"",""time"":2231.7000000476837},{""stimulus"":""run_exp/static/images/task_images/rocket-04.jpg"",""time"":3340},{""stimulus"":""run_exp/static/images/task_images/rocket-05.jpg"",""time"":4456},{""stimulus"":""run_exp/static/images/task_images/rocket-06.jpg"",""time"":5564.300000071526},{""stimulus"":""run_exp/static/images/task_images/rocket-07.jpg"",""time"":6676.400000095367},{""stimulus"":""run_exp/static/images/task_images/rocket-08.jpg"",""time"":7780.600000023842},{""stimulus"":""run_exp/static/images/task_images/rocket-09.jpg"",""time"":8892.400000095367}]",[],0,,,,,,,,,,,,,,
instruc_alien_greet,19,178359,0.0-8.0-6.0,"""event"",""trial"",""time""
""fullscreenenter"",""1"",""17384""
","
","
","""event"",""trial"",""time""
""fullscreenenter"",""1"",""17384""
","
",,null,run_exp/static/audio/clip_6_alien.m4a,null,"<p>When you arrive at a new planet, the alien who owns the treasure mine on that planet will greet you!</p><p>The better an alien takes care of their mine the easier it is to dig for gems. Some aliens take better care of their mine than others. So, you won’t get exactly the same amount of gems on each planet.</p><p>What the alien looks like does not tell you anything about how many gems there are on the planet.</p><br><p><img src=""run_exp/static/images/task_images/aliens/instructions_aliens/planet/alien_planet-1.jpg""  height=""600"" width=""auto""></p>",,,,,,,,,,,,,,,,,,,,,,,
instruc_alien_greet,20,181770,0.0-8.0-7.0,"""event"",""trial"",""time""
""fullscreenenter"",""1"",""17384""
","
","
","""event"",""trial"",""time""
""fullscreenenter"",""1"",""17384""
","
",,3408.7,"<p>When you arrive at a new planet, the alien who owns the treasure mine on that planet will greet you!</p><p>The better an alien takes care of their mine the easier it is to dig for gems. Some aliens take better care of their mine than others. So, you won’t get exactly the same amount of gems on each planet.</p><p>What the alien looks like does not tell you anything about how many gems there are on the planet.</p><br><p><img src=""run_exp/static/images/task_images/aliens/instructions_aliens/planet/alien_planet-1.jpg""  height=""600"" width=""auto""></p>",,,,,,,1,,,,,,,,,,,,,,,,,,
html-keyboard-response,21,182098,0.0-8.0-8.0,"""event"",""trial"",""time""
""fullscreenenter"",""1"",""17384""
","
","
","""event"",""trial"",""time""
""fullscreenenter"",""1"",""17384""
","
",,326.6999999,"<p>When you arrive at a new planet, the alien who owns the treasure mine on that planet will greet you!</p><p>The better an alien takes care of their mine the easier it is to dig for gems. Some aliens take better care of their mine than others. So, you won’t get exactly the same amount of gems on each planet.</p><p>What the alien looks like does not tell you anything about how many gems there are on the planet.</p><br><p><img src=""run_exp/static/images/task_images/aliens/instructions_aliens/planet/alien_planet-1.jpg""  height=""600"" width=""auto""></p><button class=""jspsych-html-btn-unchosen""><img src=""run_exp/static/images/task_images/planet-01.jpg"" height=""50""></button><button class=""jspsych-html-btn-chosen""><img src=""run_exp/static/images/task_images/planet-02.jpg"" height=""50""></button><p><b>[press the space bar to lock in your answer]<b><br></p>",32,,,,,,,,,,,,,,,,,,,,,,,,
time_out,22,193384,0.0-9.0-0.0,"""event"",""trial"",""time""
""fullscreenenter"",""1"",""17384""
","
","
","""event"",""trial"",""time""
""fullscreenenter"",""1"",""17384""
","
",,null,run_exp/static/audio/clip_7_timeout.m4a,null,"<p>If you don't make your choice fast enough, you’ll have to wait a few seconds before you can make another one.</p><p>You can’t dig for more gems or travel to new planets. You just have to sit and wait.</p><br><p><img src='run_exp/static/images/task_images/time_out.jpg'  height='600' width='auto'></p>",,,,,,,,,,,,,,,,,,,,,,,
time_out,23,199547,0.0-9.0-1.0,"""event"",""trial"",""time""
""fullscreenenter"",""1"",""17384""
","
","
","""event"",""trial"",""time""
""fullscreenenter"",""1"",""17384""
","
",,6160.4,"<p>If you don't make your choice fast enough, you’ll have to wait a few seconds before you can make another one.</p><p>You can’t dig for more gems or travel to new planets. You just have to sit and wait.</p><br><p><img src='run_exp/static/images/task_images/time_out.jpg'  height='600' width='auto'></p>",,,,,,,1,,,,,,,,,,,,,,,,,,
html-keyboard-response,24,199910,0.0-9.0-2.0,"""event"",""trial"",""time""
""fullscreenenter"",""1"",""17384""
","
","
","""event"",""trial"",""time""
""fullscreenenter"",""1"",""17384""
","
",,360,"<p>If you don't make your choice fast enough, you’ll have to wait a few seconds before you can make another one.</p><p>You can’t dig for more gems or travel to new planets. You just have to sit and wait.</p><br><p><img src='run_exp/static/images/task_images/time_out.jpg'  height='600' width='auto'></p><button class=""jspsych-html-btn-unchosen""><img src=""run_exp/static/images/task_images/planet-01.jpg"" height=""50""></button><button class=""jspsych-html-btn-chosen""><img src=""run_exp/static/images/task_images/planet-02.jpg"" height=""50""></button><p><b>[press the space bar to lock in your answer]<b><br></p>",32,,,,,,,,,,,,,,,,,,,,,,,,
instruc_break,25,215769,0.0-10.0-0.0,"""event"",""trial"",""time""
""fullscreenenter"",""1"",""17384""
","
","
","""event"",""trial"",""time""
""fullscreenenter"",""1"",""17384""
","
",,null,run_exp/static/audio/clip_8_break.m4a,null,"<p> After digging and traveling for a while, you’ll be able to take a break at home base. </p><p>The game will last 20 minutes no matter what.</p><p>You will visit home base every 5 minutes, so, you will visit home base three times during the game.</p><br><p><img src='run_exp/static/images/task_images/home_base.jpg' height='600' width='auto'></p>",,,,,,,,,,,,,,,,,,,,,,,
instruc_break,26,216180,0.0-10.0-1.0,"""event"",""trial"",""time""
""fullscreenenter"",""1"",""17384""
","
","
","""event"",""trial"",""time""
""fullscreenenter"",""1"",""17384""
","
",,406.4,"<p> After digging and traveling for a while, you’ll be able to take a break at home base. </p><p>The game will last 20 minutes no matter what.</p><p>You will visit home base every 5 minutes, so, you will visit home base three times during the game.</p><br><p><img src='run_exp/static/images/task_images/home_base.jpg' height='600' width='auto'></p>",,,,,,,1,,,,,,,,,,,,,,,,,,
html-keyboard-response,27,216477,0.0-10.0-2.0,"""event"",""trial"",""time""
""fullscreenenter"",""1"",""17384""
","
","
","""event"",""trial"",""time""
""fullscreenenter"",""1"",""17384""
","
",,295,"<p> After digging and traveling for a while, you’ll be able to take a break at home base. </p><p>The game will last 20 minutes no matter what.</p><p>You will visit home base every 5 minutes, so, you will visit home base three times during the game.</p><br><p><img src='run_exp/static/images/task_images/home_base.jpg' height='600' width='auto'></p><button class=""jspsych-html-btn-unchosen""><img src=""run_exp/static/images/task_images/planet-01.jpg"" height=""50""></button><button class=""jspsych-html-btn-chosen""><img src=""run_exp/static/images/task_images/planet-02.jpg"" height=""50""></button><p><b>[press the space bar to lock in your answer]<b><br></p>",32,,,,,,,,,,,,,,,,,,,,,,,,
instruc_prac_game,28,226798,0.0-11.0-0.0,"""event"",""trial"",""time""
""fullscreenenter"",""1"",""17384""
","
","
","""event"",""trial"",""time""
""fullscreenenter"",""1"",""17384""
","
",,null,run_exp/static/audio/clip_9_practice.m4a,null,"<p> Are you ready to play a practice game? </p> <p>In this practice game, you'll be digging up barrels of gems. But, in the real game, you'll be digging up the gems themselves. </p>",,,,,,,,,,,,,,,,,,,,,,,
html-button-response,29,227921,0.0-11.0-1.0,"""event"",""trial"",""time""
""fullscreenenter"",""1"",""17384""
","
","
","""event"",""trial"",""time""
""fullscreenenter"",""1"",""17384""
","
",,1119.3,"<p> Are you ready to play a practice game? </p> <p>In this practice game, you'll be digging up barrels of gems. But, in the real game, you'll be digging up the gems themselves. </p>",,,,,,,0,,,,,,,,,,,,,,,,,,
alien_welcome_prac,30,232931,0.0-12.0-0.0,"""event"",""trial"",""time""
""fullscreenenter"",""1"",""17384""
","
","
","""event"",""trial"",""time""
""fullscreenenter"",""1"",""17384""
","
",,null,run_exp/static/images/task_images/aliens/practice_aliens/planet/alien_planet-5.jpg,null,,,,,,,,,,,,,,,,,,,,,,,,
land_prac,31,233443,0.0-12.0-1.0,"""event"",""trial"",""time""
""fullscreenenter"",""1"",""17384""
","
","
","""event"",""trial"",""time""
""fullscreenenter"",""1"",""17384""
","
",,null,run_exp/static/images/task_images/land.jpg,null,,,,,,,102,,,0,,,,,,,,,,,,,,
dig_prac,32,235452,0.0-12.0-2.0,"""event"",""trial"",""time""
""fullscreenenter"",""1"",""17384""
","
","
","""event"",""trial"",""time""
""fullscreenenter"",""1"",""17384""
","
",,,,,,,,,,,,"[{""stimulus"":""run_exp/static/images/task_images/dig.jpg"",""time"":0.3999999761581421},{""stimulus"":""run_exp/static/images/task_images/land.jpg"",""time"":676.7999999523163},{""stimulus"":""run_exp/static/images/task_images/dig.jpg"",""time"":1341.1000000238419}]",[],,,,,,,,,,,,,,,
harvest_prac,33,236458,0.0-12.0-3.0,"""event"",""trial"",""time""
""fullscreenenter"",""1"",""17384""
","
","
","""event"",""trial"",""time""
""fullscreenenter"",""1"",""17384""
","
",,null,run_exp/static/images/task_images/barrel_text.jpg,null,,,,,,,,,,,,,,,,,,,,,,,,
decision_prac,34,236950,0.0-12.0-4.0,"""event"",""trial"",""time""
""fullscreenenter"",""1"",""17384""
","
","
","""event"",""trial"",""time""
""fullscreenenter"",""1"",""17384""
","
",,488.8,run_exp/static/images/task_images/land.jpg,65,,,,,,,,,,,1,,,,,,,,,,,,,
dig_prac,35,238961,0.0-13.0-0.0,"""event"",""trial"",""time""
""fullscreenenter"",""1"",""17384""
","
","
","""event"",""trial"",""time""
""fullscreenenter"",""1"",""17384""
","
",,,,,,,,,,,,"[{""stimulus"":""run_exp/static/images/task_images/dig.jpg"",""time"":0.10000002384185791},{""stimulus"":""run_exp/static/images/task_images/land.jpg"",""time"":676.5},{""stimulus"":""run_exp/static/images/task_images/dig.jpg"",""time"":1337.4000000953674}]",[],,,,,,,,,,,,,,,
harvest_prac,36,239970,0.0-13.0-1.0,"""event"",""trial"",""time""
""fullscreenenter"",""1"",""17384""
","
","
","""event"",""trial"",""time""
""fullscreenenter"",""1"",""17384""
","
",,null,run_exp/static/images/task_images/barrel_text.jpg,null,,,,,,,,,,,,,,,,,,,,,,,,
decision_prac,37,241652,0.0-13.0-2.0,"""event"",""trial"",""time""
""fullscreenenter"",""1"",""17384""
","
","
","""event"",""trial"",""time""
""fullscreenenter"",""1"",""17384""
","
",,1678.8,run_exp/static/images/task_images/land.jpg,65,,,,,,,,,,,2,,,,,,,,,,,,,
dig_prac,38,243665,0.0-14.0-0.0,"""event"",""trial"",""time""
""fullscreenenter"",""1"",""17384""
","
","
","""event"",""trial"",""time""
""fullscreenenter"",""1"",""17384""
","
",,,,,,,,,,,,"[{""stimulus"":""run_exp/static/images/task_images/dig.jpg"",""time"":0.10000002384185791},{""stimulus"":""run_exp/static/images/task_images/land.jpg"",""time"":677.2999999523163},{""stimulus"":""run_exp/static/images/task_images/dig.jpg"",""time"":1340.1999999284744}]",[],,,,,,,,,,,,,,,
harvest_prac,39,244669,0.0-14.0-1.0,"""event"",""trial"",""time""
""fullscreenenter"",""1"",""17384""
","
","
","""event"",""trial"",""time""
""fullscreenenter"",""1"",""17384""
","
",,null,run_exp/static/images/task_images/barrel_text.jpg,null,,,,,,,,,,,,,,,,,,,,,,,,
decision_prac,40,245242,0.0-14.0-2.0,"""event"",""trial"",""time""
""fullscreenenter"",""1"",""17384""
","
","
","""event"",""trial"",""time""
""fullscreenenter"",""1"",""17384""
","
",,572,run_exp/static/images/task_images/land.jpg,65,,,,,,,,,,,3,,,,,,,,,,,,,
dig_prac,41,247253,0.0-15.0-0.0,"""event"",""trial"",""time""
""fullscreenenter"",""1"",""17384""
","
","
","""event"",""trial"",""time""
""fullscreenenter"",""1"",""17384""
","
",,,,,,,,,,,,"[{""stimulus"":""run_exp/static/images/task_images/dig.jpg"",""time"":0.20000004768371582},{""stimulus"":""run_exp/static/images/task_images/land.jpg"",""time"":676.3999999761581},{""stimulus"":""run_exp/static/images/task_images/dig.jpg"",""time"":1341.6000000238419}]",[],,,,,,,,,,,,,,,
harvest_prac,42,248258,0.0-15.0-1.0,"""event"",""trial"",""time""
""fullscreenenter"",""1"",""17384""
","
","
","""event"",""trial"",""time""
""fullscreenenter"",""1"",""17384""
","
",,null,run_exp/static/images/task_images/barrel_text.jpg,null,,,,,,,,,,,,,,,,,,,,,,,,
decision_prac,43,248347,0.0-15.0-2.0,"""event"",""trial"",""time""
""fullscreenenter"",""1"",""17384""
","
","
","""event"",""trial"",""time""
""fullscreenenter"",""1"",""17384""
","
",,86.39999998,run_exp/static/images/task_images/land.jpg,65,,,,,,,,,,,4,,,,,,,,,,,,,
dig_prac,44,250355,0.0-16.0-0.0,"""event"",""trial"",""time""
""fullscreenenter"",""1"",""17384""
","
","
","""event"",""trial"",""time""
""fullscreenenter"",""1"",""17384""
","
",,,,,,,,,,,,"[{""stimulus"":""run_exp/static/images/task_images/dig.jpg"",""time"":0.09999990463256836},{""stimulus"":""run_exp/static/images/task_images/land.jpg"",""time"":680.7999999523163},{""stimulus"":""run_exp/static/images/task_images/dig.jpg"",""time"":1340.2999999523163}]",[],,,,,,,,,,,,,,,
harvest_prac,45,251365,0.0-16.0-1.0,"""event"",""trial"",""time""
""fullscreenenter"",""1"",""17384""
","
","
","""event"",""trial"",""time""
""fullscreenenter"",""1"",""17384""
","
",,null,run_exp/static/images/task_images/barrel_text.jpg,null,,,,,,,,,,,,,,,,,,,,,,,,
decision_prac,46,251796,0.0-16.0-2.0,"""event"",""trial"",""time""
""fullscreenenter"",""1"",""17384""
","
","
","""event"",""trial"",""time""
""fullscreenenter"",""1"",""17384""
","
",,428.1,run_exp/static/images/task_images/land.jpg,65,,,,,,,,,,,,1,,,,,,,,,,,,
quiz_instruc,47,254986,0.0-17.0-0.0,"""event"",""trial"",""time""
""fullscreenenter"",""1"",""17384""
","
","
","""event"",""trial"",""time""
""fullscreenenter"",""1"",""17384""
","
",,3186.8,run_exp/static/audio/clip_10_quiz.m4a,,,,,,,0,,,,,,,,,,,,,,,,,,
instruc_repeat,48,297944,0.0-17.0-1.0,"""event"",""trial"",""time""
""fullscreenenter"",""1"",""17384""
","
","
","""event"",""trial"",""time""
""fullscreenenter"",""1"",""17384""
","
",,null,"<p> Are you ready to play a practice game? </p> <p>In this practice game, you'll be digging up barrels of gems. But, in the real game, you'll be digging up the gems themselves. </p>",null,"<p>In this game, your goal is to collect as many gems as you can. That’s how you will win bonus money. </p> <p>The entire game will last 20 minutes no matter how many gems you collect or how many planets you visit. </p><p>To stay on a planet and dig again, press the letter A on your keyboard. To leave for a new planet, press the letter L.</p><p>The more you dig on a planet, the fewer gems you’ll get with each dig which is why you might consider leaving for a new planet. </p><p>When you arrive at a new planet, you’ll be greeted by an alien. What the alien looks like does not tell you anything about how much treasure is on the planet. </p>",,,,,,,,,,,,,,,,,,,,,,,
instruc_repeat_continue,49,340000,0.0-17.0-2.0,"""event"",""trial"",""time""
""fullscreenenter"",""1"",""17384""
","
","
","""event"",""trial"",""time""
""fullscreenenter"",""1"",""17384""
","
",,42052,"<p> Are you ready to play a practice game? </p> <p>In this practice game, you'll be digging up barrels of gems. But, in the real game, you'll be digging up the gems themselves. </p>",,,,,,,0,,,,,,,,,,,,,,,,,,
quiz_q_1_ask,50,342032,0.0-17.0-3.0,"""event"",""trial"",""time""
""fullscreenenter"",""1"",""17384""
","
","
","""event"",""trial"",""time""
""fullscreenenter"",""1"",""17384""
","
",,2030.1,run_exp/static/audio/clip_11_q1_ask.m4a,,,,,,,2,,,,,,,,,,,,,,,,,,
quiz_q_1_fb_correct,51,346049,0.0-18.0-0.0,"""event"",""trial"",""time""
""fullscreenenter"",""1"",""17384""
","
","
","""event"",""trial"",""time""
""fullscreenenter"",""1"",""17384""
","
",,null,run_exp/static/audio/clip_12_q1_correct.m4a,null,<p>That’s correct. You win extra money by collecting more gems.</p>,,,,,,,,,,,,,,,,,,,,,,,
quiz_q_2_ask,52,349446,0.0-18.0-1.0,"""event"",""trial"",""time""
""fullscreenenter"",""1"",""17384""
","
","
","""event"",""trial"",""time""
""fullscreenenter"",""1"",""17384""
","
",,3394.1,run_exp/static/audio/clip_14_q2_ask.m4a,,,,,,,1,,,,,,,,,,,,,,,,,,
quiz_q_2_fb_correct,53,353596,0.0-19.0-0.0,"""event"",""trial"",""time""
""fullscreenenter"",""1"",""17384""
","
","
","""event"",""trial"",""time""
""fullscreenenter"",""1"",""17384""
","
",,null,run_exp/static/audio/clip_15_q2_correct.m4a,null,<p>That’s correct. The experiment is 20 minutes no matter what.</p>,,,,,,,,,,,,,,,,,,,,,,,
quiz_q_3_ask,54,356563,0.0-19.0-1.0,"""event"",""trial"",""time""
""fullscreenenter"",""1"",""17384""
","
","
","""event"",""trial"",""time""
""fullscreenenter"",""1"",""17384""
","
",,2963.2,run_exp/static/audio/clip_17_q3_ask.m4a,,,,,,,0,,,,,,,,,,,,,,,,,,
quiz_q_3_fb_incorrect,55,360794,0.0-20.0-0.0,"""event"",""trial"",""time""
""fullscreenenter"",""1"",""17384""
","
","
","""event"",""trial"",""time""
""fullscreenenter"",""1"",""17384""
","
",,null,run_exp/static/audio/clip_19_q3_incorrect.m4a,null,<p>That’s incorrect.  You press the letter L to travel to a new planet.</p>,,,,,,,,,,,,,,,,,,,,,,,
quiz_q_4_ask,56,365730,0.0-20.0-1.0,"""event"",""trial"",""time""
""fullscreenenter"",""1"",""17384""
","
","
","""event"",""trial"",""time""
""fullscreenenter"",""1"",""17384""
","
",,4931.9,run_exp/static/audio/clip_20_q4_ask.m4a,,,,,,,0,,,,,,,,,,,,,,,,,,
quiz_q_4_fb_correct,57,371219,0.0-21.0-0.0,"""event"",""trial"",""time""
""fullscreenenter"",""1"",""17384""
","
","
","""event"",""trial"",""time""
""fullscreenenter"",""1"",""17384""
","
",,null,run_exp/static/audio/clip_21_q4_correct.m4a,null,<p> That’s correct. The more you dig on a planet the fewer gems you’ll get with each dig. </p>,,,,,,,,,,,,,,,,,,,,,,,
quiz_q_5_ask,58,373211,0.0-21.0-1.0,"""event"",""trial"",""time""
""fullscreenenter"",""1"",""17384""
","
","
","""event"",""trial"",""time""
""fullscreenenter"",""1"",""17384""
","
",,1987.8,run_exp/static/audio/clip_23_q5_ask.m4a,,,,,,,1,,,,,,,,,,,,,,,,,,
quiz_q_5_fb_correct,59,378371,0.0-22.0-0.0,"""event"",""trial"",""time""
""fullscreenenter"",""1"",""17384""
","
","
","""event"",""trial"",""time""
""fullscreenenter"",""1"",""17384""
","
",,null,run_exp/static/audio/clip_24_q5_correct.m4a,null,<p> That’s correct. The alien tells you nothing about how much treasure is on the planet.</p>,,,,,,,,,,,,,,,,,,,,,,,
quiz_incorrect,60,384107,0.0-23.0-0.0,"""event"",""trial"",""time""
""fullscreenenter"",""1"",""17384""
","
","
","""event"",""trial"",""time""
""fullscreenenter"",""1"",""17384""
","
",,null,run_exp/static/audio/clip_27_incorrect_quiz.m4a,null,,,,,,,,,,,,,,,,,,,,,,,,
quiz_incorrect_continue,61,384869,0.0-23.0-1.0,"""event"",""trial"",""time""
""fullscreenenter"",""1"",""17384""
","
","
","""event"",""trial"",""time""
""fullscreenenter"",""1"",""17384""
","
",,758.8,"<p>Oops, you missed some questions.</p><p>Now that you’ve heard the correct answers. Try the quiz again!</p>",,,,,,,0,,,,,,,,,,,,,,,,,,
quiz_q_1_ask,62,387378,0.0-23.0-2.0,"""event"",""trial"",""time""
""fullscreenenter"",""1"",""17384""
","
","
","""event"",""trial"",""time""
""fullscreenenter"",""1"",""17384""
","
",,2507.9,run_exp/static/audio/clip_11_q1_ask.m4a,,,,,,,2,,,,,,,,,,,,,,,,,,
quiz_q_1_fb_correct,63,391397,0.0-24.0-0.0,"""event"",""trial"",""time""
""fullscreenenter"",""1"",""17384""
","
","
","""event"",""trial"",""time""
""fullscreenenter"",""1"",""17384""
","
",,null,run_exp/static/audio/clip_12_q1_correct.m4a,null,<p>That’s correct. You win extra money by collecting more gems.</p>,,,,,,,,,,,,,,,,,,,,,,,
quiz_q_2_ask,64,393179,0.0-24.0-1.0,"""event"",""trial"",""time""
""fullscreenenter"",""1"",""17384""
","
","
","""event"",""trial"",""time""
""fullscreenenter"",""1"",""17384""
","
",,1778.6,run_exp/static/audio/clip_14_q2_ask.m4a,,,,,,,1,,,,,,,,,,,,,,,,,,
quiz_q_2_fb_correct,65,397342,0.0-25.0-0.0,"""event"",""trial"",""time""
""fullscreenenter"",""1"",""17384""
","
","
","""event"",""trial"",""time""
""fullscreenenter"",""1"",""17384""
","
",,null,run_exp/static/audio/clip_15_q2_correct.m4a,null,<p>That’s correct. The experiment is 20 minutes no matter what.</p>,,,,,,,,,,,,,,,,,,,,,,,
quiz_q_3_ask,66,399114,0.0-25.0-1.0,"""event"",""trial"",""time""
""fullscreenenter"",""1"",""17384""
","
","
","""event"",""trial"",""time""
""fullscreenenter"",""1"",""17384""
","
",,1769.4,run_exp/static/audio/clip_17_q3_ask.m4a,,,,,,,1,,,,,,,,,,,,,,,,,,
quiz_q_3_fb_correct,67,403240,0.0-26.0-0.0,"""event"",""trial"",""time""
""fullscreenenter"",""1"",""17384""
","
","
","""event"",""trial"",""time""
""fullscreenenter"",""1"",""17384""
","
",,null,run_exp/static/audio/clip_18_q3_correct.m4a,null,<p> That’s correct. You press the letter L to travel to a new planet.</p>,,,,,,,,,,,,,,,,,,,,,,,
quiz_q_4_ask,68,406220,0.0-26.0-1.0,"""event"",""trial"",""time""
""fullscreenenter"",""1"",""17384""
","
","
","""event"",""trial"",""time""
""fullscreenenter"",""1"",""17384""
","
",,2976.5,run_exp/static/audio/clip_20_q4_ask.m4a,,,,,,,0,,,,,,,,,,,,,,,,,,
quiz_q_4_fb_correct,69,411692,0.0-27.0-0.0,"""event"",""trial"",""time""
""fullscreenenter"",""1"",""17384""
","
","
","""event"",""trial"",""time""
""fullscreenenter"",""1"",""17384""
","
",,null,run_exp/static/audio/clip_21_q4_correct.m4a,null,<p> That’s correct. The more you dig on a planet the fewer gems you’ll get with each dig. </p>,,,,,,,,,,,,,,,,,,,,,,,
quiz_q_5_ask,70,413234,0.0-27.0-1.0,"""event"",""trial"",""time""
""fullscreenenter"",""1"",""17384""
","
","
","""event"",""trial"",""time""
""fullscreenenter"",""1"",""17384""
","
",,1539.1,run_exp/static/audio/clip_23_q5_ask.m4a,,,,,,,1,,,,,,,,,,,,,,,,,,
quiz_q_5_fb_correct,71,418379,0.0-28.0-0.0,"""event"",""trial"",""time""
""fullscreenenter"",""1"",""17384""
","
","
","""event"",""trial"",""time""
""fullscreenenter"",""1"",""17384""
","
",,null,run_exp/static/audio/clip_24_q5_correct.m4a,null,<p> That’s correct. The alien tells you nothing about how much treasure is on the planet.</p>,,,,,,,,,,,,,,,,,,,,,,,
quiz_correct,72,422001,0.0-29.0-0.0,"""event"",""trial"",""time""
""fullscreenenter"",""1"",""17384""
","
","
","""event"",""trial"",""time""
""fullscreenenter"",""1"",""17384""
","
",,null,run_exp/static/audio/clip_26_correct_quiz.m4a,null,,,,,,,,,,,,,,,,,,,,,,,,
quiz_correct_continue,73,423064,0.0-29.0-1.0,"""event"",""trial"",""time""
""fullscreenenter"",""1"",""17384""
","
","
","""event"",""trial"",""time""
""fullscreenenter"",""1"",""17384""
","
",,1061.2,<p>Good job! You're now ready to move on to the real game!</p>,,,,,,,0,,,,,,,,,,,,,,,,,,
audio-keyboard-response,74,433358,0.0-29.0-2.0,"""event"",""trial"",""time""
""fullscreenenter"",""1"",""17384""
","
","
","""event"",""trial"",""time""
""fullscreenenter"",""1"",""17384""
","
",,null,run_exp/static/audio/clip_28_real_game.m4a,null,,,,,,,,,,,,,,,,,,,,,,,,
instruc_begin_exp_contine,75,434530,0.0-29.0-3.0,"""event"",""trial"",""time""
""fullscreenenter"",""1"",""17384""
","
","
","""event"",""trial"",""time""
""fullscreenenter"",""1"",""17384""
","
",,1169.4,"<p>Now that you know how  to dig for space treasure and travel to new planets,you can start exploring! </p><p>Do you want to go over the instructions again or get started with the real game?</p>",,,,,,,1,,,,,,1,,,,,,,,,,,,
alien_welcome,76,439538,0.0-30.0-0.0,"""event"",""trial"",""time""
""fullscreenenter"",""1"",""17384""
","
","
","""event"",""trial"",""time""
""fullscreenenter"",""1"",""17384""
","
",,null,run_exp/static/images/task_images/aliens/old_aliens/planet/alien_planet-46.jpg,null,,,,,,,,,,,,,46,"46,20,3,59,75,35,28,9,21,50,65,77,10,13,5,30,16,42,39,7,14,26,1,2,66,60,23,41,47,76,74,34,45,57,71,33,64,72,63,79,17,55,19,73,36",,,,,,,,,,
land,77,440050,0.0-30.0-1.0,"""event"",""trial"",""time""
""fullscreenenter"",""1"",""17384""
","
","
","""event"",""trial"",""time""
""fullscreenenter"",""1"",""17384""
","
",,null,run_exp/static/images/task_images/land.jpg,null,,,,,,,99,,,1,,,,,,,,,,,,,,
dig,78,442059,0.0-30.0-2.0,"""event"",""trial"",""time""
""fullscreenenter"",""1"",""17384""
","
","
","""event"",""trial"",""time""
""fullscreenenter"",""1"",""17384""
","
",,,,,,,,,,,,"[{""stimulus"":""run_exp/static/images/task_images/dig.jpg"",""time"":0.5},{""stimulus"":""run_exp/static/images/task_images/land.jpg"",""time"":676.8000000715256},{""stimulus"":""run_exp/static/images/task_images/dig.jpg"",""time"":1342.2000000476837}]",[],1,,,,,,,,,,,,,,
harvest,79,443066,0.0-30.0-3.0,"""event"",""trial"",""time""
""fullscreenenter"",""1"",""17384""
","
","
","""event"",""trial"",""time""
""fullscreenenter"",""1"",""17384""
","
",,null,run_exp/static/images/task_images/gems/99.jpg,null,,,,,,,16,,,1,,,,,99,0.165799864,0.161616162,,,,,,,
decision,80,443576,0.0-30.0-4.0,"""event"",""trial"",""time""
""fullscreenenter"",""1"",""17384""
","
","
","""event"",""trial"",""time""
""fullscreenenter"",""1"",""17384""
","
",,506.3000001,run_exp/static/images/task_images/land.jpg,65,,,,,,,16,,,1,,,,,,,,9045,1,0,FALSE,,,
dig,81,446084,0.0-31.0-0.0,"""event"",""trial"",""time""
""fullscreenenter"",""1"",""17384""
","
","
","""event"",""trial"",""time""
""fullscreenenter"",""1"",""17384""
","
",,,,,,,,,,,,"[{""stimulus"":""run_exp/static/images/task_images/dig.jpg"",""time"":0.09999990463256836},{""stimulus"":""run_exp/static/images/task_images/land.jpg"",""time"":841.7999999523163},{""stimulus"":""run_exp/static/images/task_images/dig.jpg"",""time"":1670.3999999761581}]",[],1,,,,,,,,,,,,,,
harvest,82,447091,0.0-31.0-1.0,"""event"",""trial"",""time""
""fullscreenenter"",""1"",""17384""
","
","
","""event"",""trial"",""time""
""fullscreenenter"",""1"",""17384""
","
",,null,run_exp/static/images/task_images/gems/16.jpg,null,,,,,,,2,,,1,,,,,16,0.144785021,0.125,,,,,,,
decision,83,447475,0.0-31.0-2.0,"""event"",""trial"",""time""
""fullscreenenter"",""1"",""17384""
","
","
","""event"",""trial"",""time""
""fullscreenenter"",""1"",""17384""
","
",,381,run_exp/static/images/task_images/land.jpg,65,,,,,,,2,,,1,,,,,,,,12943,1,1,FALSE,,,
dig,84,450109,0.0-32.0-0.0,"""event"",""trial"",""time""
""fullscreenenter"",""1"",""17384""
","
","
","""event"",""trial"",""time""
""fullscreenenter"",""1"",""17384""
","
",,,,,,,,,,,,"[{""stimulus"":""run_exp/static/images/task_images/dig.jpg"",""time"":0.10000002384185791},{""stimulus"":""run_exp/static/images/task_images/land.jpg"",""time"":881.8000000715256},{""stimulus"":""run_exp/static/images/task_images/dig.jpg"",""time"":1757.8000000715256}]",[],1,,,,,,,,,,,,,,
harvest,85,451116,0.0-32.0-1.0,"""event"",""trial"",""time""
""fullscreenenter"",""1"",""17384""
","
","
","""event"",""trial"",""time""
""fullscreenenter"",""1"",""17384""
","
",,null,run_exp/static/images/task_images/gems/2.jpg,null,,,,,,,0,,,1,,,,,2,0.179707539,0,,,,,,,
decision,86,451454,0.0-32.0-2.0,"""event"",""trial"",""time""
""fullscreenenter"",""1"",""17384""
","
","
","""event"",""trial"",""time""
""fullscreenenter"",""1"",""17384""
","
",,335.6,run_exp/static/images/task_images/land.jpg,76,,,,,,,0,,,1,,,,,,,,16923,1,2,TRUE,,,
travel,87,461123,0.0-33.0-0.0,"""event"",""trial"",""time""
""fullscreenenter"",""1"",""17384""
","
","
","""event"",""trial"",""time""
""fullscreenenter"",""1"",""17384""
","
",,,,,,,,,,,,"[{""stimulus"":""run_exp/static/images/task_images/rocket-01.jpg"",""time"":0.20000004768371582},{""stimulus"":""run_exp/static/images/task_images/rocket-02.jpg"",""time"":1075.1000000238419},{""stimulus"":""run_exp/static/images/task_images/rocket-03.jpg"",""time"":2154.100000023842},{""stimulus"":""run_exp/static/images/task_images/rocket-04.jpg"",""time"":3227.8000000715256},{""stimulus"":""run_exp/static/images/task_images/rocket-05.jpg"",""time"":4297.700000047684},{""stimulus"":""run_exp/static/images/task_images/rocket-06.jpg"",""time"":5369.800000071526},{""stimulus"":""run_exp/static/images/task_images/rocket-07.jpg"",""time"":6444.600000023842},{""stimulus"":""run_exp/static/images/task_images/rocket-08.jpg"",""time"":7521.5},{""stimulus"":""run_exp/static/images/task_images/rocket-09.jpg"",""time"":8596.600000023842}]",[],1,,,,,,,,,,,,,,
alien_welcome,88,466131,0.0-33.0-1.0,"""event"",""trial"",""time""
""fullscreenenter"",""1"",""17384""
","
","
","""event"",""trial"",""time""
""fullscreenenter"",""1"",""17384""
","
",,null,run_exp/static/images/task_images/aliens/old_aliens/planet/alien_planet-20.jpg,null,,,,,,,,,,,,,20,"46,20,3,59,75,35,28,9,21,50,65,77,10,13,5,30,16,42,39,7,14,26,1,2,66,60,23,41,47,76,74,34,45,57,71,33,64,72,63,79,17,55,19,73,36",,,,,,,,,,
land,89,466644,0.0-33.0-2.0,"""event"",""trial"",""time""
""fullscreenenter"",""1"",""17384""
","
","
","""event"",""trial"",""time""
""fullscreenenter"",""1"",""17384""
","
",,null,run_exp/static/images/task_images/land.jpg,null,,,,,,,97,,,2,,,,,,,,,,,,,,
dig,90,468660,0.0-33.0-3.0,"""event"",""trial"",""time""
""fullscreenenter"",""1"",""17384""
","
","
","""event"",""trial"",""time""
""fullscreenenter"",""1"",""17384""
","
",,,,,,,,,,,,"[{""stimulus"":""run_exp/static/images/task_images/dig.jpg"",""time"":0.7999999523162842},{""stimulus"":""run_exp/static/images/task_images/land.jpg"",""time"":676.0999999046326},{""stimulus"":""run_exp/static/images/task_images/dig.jpg"",""time"":1340}]",[],2,,,,,,,,,,,,,,
harvest,91,469670,0.0-33.0-4.0,"""event"",""trial"",""time""
""fullscreenenter"",""1"",""17384""
","
","
","""event"",""trial"",""time""
""fullscreenenter"",""1"",""17384""
","
",,null,run_exp/static/images/task_images/gems/97.jpg,null,,,,,,,22,,,2,,,,,97,0.223454435,0.226804124,,,,,,,
decision,92,470278,0.0-33.0-5.0,"""event"",""trial"",""time""
""fullscreenenter"",""1"",""17384""
","
","
","""event"",""trial"",""time""
""fullscreenenter"",""1"",""17384""
","
",,606,run_exp/static/images/task_images/land.jpg,65,,,,,,,22,,,2,,,,,,,,35747,1,0,FALSE,,,
dig,93,472684,0.0-34.0-0.0,"""event"",""trial"",""time""
""fullscreenenter"",""1"",""17384""
","
","
","""event"",""trial"",""time""
""fullscreenenter"",""1"",""17384""
","
",,,,,,,,,,,,"[{""stimulus"":""run_exp/static/images/task_images/dig.jpg"",""time"":0.10000002384185791},{""stimulus"":""run_exp/static/images/task_images/land.jpg"",""time"":801.8000000715256},{""stimulus"":""run_exp/static/images/task_images/dig.jpg"",""time"":1601.6000000238419}]",[],2,,,,,,,,,,,,,,
harvest,94,473690,0.0-34.0-1.0,"""event"",""trial"",""time""
""fullscreenenter"",""1"",""17384""
","
","
","""event"",""trial"",""time""
""fullscreenenter"",""1"",""17384""
","
",,null,run_exp/static/images/task_images/gems/22.jpg,null,,,,,,,4,,,2,,,,,22,0.175728788,0.181818182,,,,,,,
decision,95,474344,0.0-34.0-2.0,"""event"",""trial"",""time""
""fullscreenenter"",""1"",""17384""
","
","
","""event"",""trial"",""time""
""fullscreenenter"",""1"",""17384""
","
",,651.0999999,run_exp/static/images/task_images/land.jpg,65,,,,,,,4,,,2,,,,,,,,39812,1,1,FALSE,,,
dig,96,476702,0.0-35.0-0.0,"""event"",""trial"",""time""
""fullscreenenter"",""1"",""17384""
","
","
","""event"",""trial"",""time""
""fullscreenenter"",""1"",""17384""
","
",,,,,,,,,,,,"[{""stimulus"":""run_exp/static/images/task_images/dig.jpg"",""time"":0},{""stimulus"":""run_exp/static/images/task_images/land.jpg"",""time"":788.1000000238419},{""stimulus"":""run_exp/static/images/task_images/dig.jpg"",""time"":1569}]",[],2,,,,,,,,,,,,,,
harvest,97,477710,0.0-35.0-1.0,"""event"",""trial"",""time""
""fullscreenenter"",""1"",""17384""
","
","
","""event"",""trial"",""time""
""fullscreenenter"",""1"",""17384""
","
",,null,run_exp/static/images/task_images/gems/4.jpg,null,,,,,,,1,,,2,,,,,4,0.180165171,0.25,,,,,,,
decision,98,478048,0.0-35.0-2.0,"""event"",""trial"",""time""
""fullscreenenter"",""1"",""17384""
","
","
","""event"",""trial"",""time""
""fullscreenenter"",""1"",""17384""
","
",,335.2,run_exp/static/images/task_images/land.jpg,76,,,,,,,1,,,2,,,,,,,,43516,1,2,TRUE,,,
travel,99,487715,0.0-36.0-0.0,"""event"",""trial"",""time""
""fullscreenenter"",""1"",""17384""
","
","
","""event"",""trial"",""time""
""fullscreenenter"",""1"",""17384""
","
",,,,,,,,,,,,"[{""stimulus"":""run_exp/static/images/task_images/rocket-01.jpg"",""time"":0.10000002384185791},{""stimulus"":""run_exp/static/images/task_images/rocket-02.jpg"",""time"":1075.8000000715256},{""stimulus"":""run_exp/static/images/task_images/rocket-03.jpg"",""time"":2153.399999976158},{""stimulus"":""run_exp/static/images/task_images/rocket-04.jpg"",""time"":3226.2000000476837},{""stimulus"":""run_exp/static/images/task_images/rocket-05.jpg"",""time"":4296.600000023842},{""stimulus"":""run_exp/static/images/task_images/rocket-06.jpg"",""time"":5367.200000047684},{""stimulus"":""run_exp/static/images/task_images/rocket-07.jpg"",""time"":6447.700000047684},{""stimulus"":""run_exp/static/images/task_images/rocket-08.jpg"",""time"":7521.700000047684},{""stimulus"":""run_exp/static/images/task_images/rocket-09.jpg"",""time"":8595.300000071526}]",[],2,,,,,,,,,,,,,,
alien_welcome,100,492722,0.0-36.0-1.0,"""event"",""trial"",""time""
""fullscreenenter"",""1"",""17384""
","
","
","""event"",""trial"",""time""
""fullscreenenter"",""1"",""17384""
","
",,null,run_exp/static/images/task_images/aliens/old_aliens/planet/alien_planet-3.jpg,null,,,,,,,,,,,,,3,"46,20,3,59,75,35,28,9,21,50,65,77,10,13,5,30,16,42,39,7,14,26,1,2,66,60,23,41,47,76,74,34,45,57,71,33,64,72,63,79,17,55,19,73,36",,,,,,,,,,
land,101,493234,0.0-36.0-2.0,"""event"",""trial"",""time""
""fullscreenenter"",""1"",""17384""
","
","
","""event"",""trial"",""time""
""fullscreenenter"",""1"",""17384""
","
",,null,run_exp/static/images/task_images/land.jpg,null,,,,,,,103,,,3,,,,,,,,,,,,,,
dig,102,495244,0.0-36.0-3.0,"""event"",""trial"",""time""
""fullscreenenter"",""1"",""17384""
","
","
","""event"",""trial"",""time""
""fullscreenenter"",""1"",""17384""
","
",,,,,,,,,,,,"[{""stimulus"":""run_exp/static/images/task_images/dig.jpg"",""time"":0.6999999284744263},{""stimulus"":""run_exp/static/images/task_images/land.jpg"",""time"":676.8999999761581},{""stimulus"":""run_exp/static/images/task_images/dig.jpg"",""time"":1341.2999999523163}]",[],3,,,,,,,,,,,,,,
harvest,103,496251,0.0-36.0-4.0,"""event"",""trial"",""time""
""fullscreenenter"",""1"",""17384""
","
","
","""event"",""trial"",""time""
""fullscreenenter"",""1"",""17384""
","
",,null,run_exp/static/images/task_images/gems/103.jpg,null,,,,,,,53,,,3,,,,,103,0.5132086,0.514563107,,,,,,,
decision,104,496752,0.0-36.0-5.0,"""event"",""trial"",""time""
""fullscreenenter"",""1"",""17384""
","
","
","""event"",""trial"",""time""
""fullscreenenter"",""1"",""17384""
","
",,498.9,run_exp/static/images/task_images/land.jpg,65,,,,,,,53,,,3,,,,,,,,62220,1,0,FALSE,,,
dig,105,499258,0.0-37.0-0.0,"""event"",""trial"",""time""
""fullscreenenter"",""1"",""17384""
","
","
","""event"",""trial"",""time""
""fullscreenenter"",""1"",""17384""
","
",,,,,,,,,,,,"[{""stimulus"":""run_exp/static/images/task_images/dig.jpg"",""time"":0.20000004768371582},{""stimulus"":""run_exp/static/images/task_images/land.jpg"",""time"":842.8000000715256},{""stimulus"":""run_exp/static/images/task_images/dig.jpg"",""time"":1675.5}]",[],3,,,,,,,,,,,,,,
harvest,106,500266,0.0-37.0-1.0,"""event"",""trial"",""time""
""fullscreenenter"",""1"",""17384""
","
","
","""event"",""trial"",""time""
""fullscreenenter"",""1"",""17384""
","
",,null,run_exp/static/images/task_images/gems/53.jpg,null,,,,,,,27,,,3,,,,,53,0.506868884,0.509433962,,,,,,,
decision,107,500303,0.0-37.0-2.0,"""event"",""trial"",""time""
""fullscreenenter"",""1"",""17384""
","
","
","""event"",""trial"",""time""
""fullscreenenter"",""1"",""17384""
","
",,36.60000002,run_exp/static/images/task_images/land.jpg,65,,,,,,,27,,,3,,,,,,,,65771,1,1,FALSE,,,
dig,108,503277,0.0-38.0-0.0,"""event"",""trial"",""time""
""fullscreenenter"",""1"",""17384""
","
","
","""event"",""trial"",""time""
""fullscreenenter"",""1"",""17384""
","
",,,,,,,,,,,,"[{""stimulus"":""run_exp/static/images/task_images/dig.jpg"",""time"":0},{""stimulus"":""run_exp/static/images/task_images/land.jpg"",""time"":996.1000000238419},{""stimulus"":""run_exp/static/images/task_images/dig.jpg"",""time"":1979.2000000476837}]",[],3,,,,,,,,,,,,,,
harvest,109,504283,0.0-38.0-1.0,"""event"",""trial"",""time""
""fullscreenenter"",""1"",""17384""
","
","
","""event"",""trial"",""time""
""fullscreenenter"",""1"",""17384""
","
",,null,run_exp/static/images/task_images/gems/27.jpg,null,,,,,,,13,,,3,,,,,27,0.498960834,0.481481481,,,,,,,
decision,110,505029,0.0-38.0-2.0,"""event"",""trial"",""time""
""fullscreenenter"",""1"",""17384""
","
","
","""event"",""trial"",""time""
""fullscreenenter"",""1"",""17384""
","
",,742.4,run_exp/static/images/task_images/land.jpg,65,,,,,,,13,,,3,,,,,,,,70497,1,2,FALSE,,,
dig,111,507299,0.0-39.0-0.0,"""event"",""trial"",""time""
""fullscreenenter"",""1"",""17384""
","
","
","""event"",""trial"",""time""
""fullscreenenter"",""1"",""17384""
","
",,,,,,,,,,,,"[{""stimulus"":""run_exp/static/images/task_images/dig.jpg"",""time"":0.20000004768371582},{""stimulus"":""run_exp/static/images/task_images/land.jpg"",""time"":762.2999999523163},{""stimulus"":""run_exp/static/images/task_images/dig.jpg"",""time"":1517.6000000238419}]",[],3,,,,,,,,,,,,,,
harvest,112,508306,0.0-39.0-1.0,"""event"",""trial"",""time""
""fullscreenenter"",""1"",""17384""
","
","
","""event"",""trial"",""time""
""fullscreenenter"",""1"",""17384""
","
",,null,run_exp/static/images/task_images/gems/13.jpg,null,,,,,,,7,,,3,,,,,13,0.502902697,0.538461538,,,,,,,
decision,113,508468,0.0-39.0-2.0,"""event"",""trial"",""time""
""fullscreenenter"",""1"",""17384""
","
","
","""event"",""trial"",""time""
""fullscreenenter"",""1"",""17384""
","
",,158.1,run_exp/static/images/task_images/land.jpg,65,,,,,,,7,,,3,,,,,,,,73936,1,3,FALSE,,,
dig,114,511314,0.0-40.0-0.0,"""event"",""trial"",""time""
""fullscreenenter"",""1"",""17384""
","
","
","""event"",""trial"",""time""
""fullscreenenter"",""1"",""17384""
","
",,,,,,,,,,,,"[{""stimulus"":""run_exp/static/images/task_images/dig.jpg"",""time"":0.10000002384185791},{""stimulus"":""run_exp/static/images/task_images/land.jpg"",""time"":959.1000000238419},{""stimulus"":""run_exp/static/images/task_images/dig.jpg"",""time"":1903}]",[],3,,,,,,,,,,,,,,
harvest,115,512325,0.0-40.0-1.0,"""event"",""trial"",""time""
""fullscreenenter"",""1"",""17384""
","
","
","""event"",""trial"",""time""
""fullscreenenter"",""1"",""17384""
","
",,null,run_exp/static/images/task_images/gems/7.jpg,null,,,,,,,4,,,3,,,,,7,0.531045588,0.571428571,,,,,,,
decision,116,513215,0.0-40.0-2.0,"""event"",""trial"",""time""
""fullscreenenter"",""1"",""17384""
","
","
","""event"",""trial"",""time""
""fullscreenenter"",""1"",""17384""
","
",,887.1999999,run_exp/static/images/task_images/land.jpg,65,,,,,,,4,,,3,,,,,,,,78683,1,4,FALSE,,,
dig,117,515339,0.0-41.0-0.0,"""event"",""trial"",""time""
""fullscreenenter"",""1"",""17384""
","
","
","""event"",""trial"",""time""
""fullscreenenter"",""1"",""17384""
","
",,,,,,,,,,,,"[{""stimulus"":""run_exp/static/images/task_images/dig.jpg"",""time"":0.20000004768371582},{""stimulus"":""run_exp/static/images/task_images/land.jpg"",""time"":714.1000000238419},{""stimulus"":""run_exp/static/images/task_images/dig.jpg"",""time"":1415}]",[],3,,,,,,,,,,,,,,
harvest,118,516345,0.0-41.0-1.0,"""event"",""trial"",""time""
""fullscreenenter"",""1"",""17384""
","
","
","""event"",""trial"",""time""
""fullscreenenter"",""1"",""17384""
","
",,null,run_exp/static/images/task_images/gems/4.jpg,null,,,,,,,2,,,3,,,,,4,0.43430591,0.5,,,,,,,
decision,119,516643,0.0-41.0-2.0,"""event"",""trial"",""time""
""fullscreenenter"",""1"",""17384""
","
","
","""event"",""trial"",""time""
""fullscreenenter"",""1"",""17384""
","
",,294.5,run_exp/static/images/task_images/land.jpg,76,,,,,,,2,,,3,,,,,,,,82111,1,5,TRUE,,,
travel,120,526357,0.0-42.0-0.0,"""event"",""trial"",""time""
""fullscreenenter"",""1"",""17384""
","
","
","""event"",""trial"",""time""
""fullscreenenter"",""1"",""17384""
","
",,,,,,,,,,,,"[{""stimulus"":""run_exp/static/images/task_images/rocket-01.jpg"",""time"":0},{""stimulus"":""run_exp/static/images/task_images/rocket-02.jpg"",""time"":1086.3999999761581},{""stimulus"":""run_exp/static/images/task_images/rocket-03.jpg"",""time"":2159.399999976158},{""stimulus"":""run_exp/static/images/task_images/rocket-04.jpg"",""time"":3241.399999976158},{""stimulus"":""run_exp/static/images/task_images/rocket-05.jpg"",""time"":4321.5},{""stimulus"":""run_exp/static/images/task_images/rocket-06.jpg"",""time"":5400.399999976158},{""stimulus"":""run_exp/static/images/task_images/rocket-07.jpg"",""time"":6471.899999976158},{""stimulus"":""run_exp/static/images/task_images/rocket-08.jpg"",""time"":7550.5},{""stimulus"":""run_exp/static/images/task_images/rocket-09.jpg"",""time"":8631.899999976158}]",[],3,,,,,,,,,,,,,,
alien_welcome,121,531365,0.0-42.0-1.0,"""event"",""trial"",""time""
""fullscreenenter"",""1"",""17384""
","
","
","""event"",""trial"",""time""
""fullscreenenter"",""1"",""17384""
","
",,null,run_exp/static/images/task_images/aliens/old_aliens/planet/alien_planet-59.jpg,null,,,,,,,,,,,,,59,"46,20,3,59,75,35,28,9,21,50,65,77,10,13,5,30,16,42,39,7,14,26,1,2,66,60,23,41,47,76,74,34,45,57,71,33,64,72,63,79,17,55,19,73,36",,,,,,,,,,
land,122,531874,0.0-42.0-2.0,"""event"",""trial"",""time""
""fullscreenenter"",""1"",""17384""
","
","
","""event"",""trial"",""time""
""fullscreenenter"",""1"",""17384""
","
",,null,run_exp/static/images/task_images/land.jpg,null,,,,,,,104,,,4,,,,,,,,,,,,,,
dig,123,533883,0.0-42.0-3.0,"""event"",""trial"",""time""
""fullscreenenter"",""1"",""17384""
","
","
","""event"",""trial"",""time""
""fullscreenenter"",""1"",""17384""
","
",,,,,,,,,,,,"[{""stimulus"":""run_exp/static/images/task_images/dig.jpg"",""time"":0.7000000476837158},{""stimulus"":""run_exp/static/images/task_images/land.jpg"",""time"":678},{""stimulus"":""run_exp/static/images/task_images/dig.jpg"",""time"":1342.1000000238419}]",[],4,,,,,,,,,,,,,,
harvest,124,534891,0.0-42.0-4.0,"""event"",""trial"",""time""
""fullscreenenter"",""1"",""17384""
","
","
","""event"",""trial"",""time""
""fullscreenenter"",""1"",""17384""
","
",,null,run_exp/static/images/task_images/gems/104.jpg,null,,,,,,,52,,,4,,,,,104,0.502606869,0.5,,,,,,,
decision,125,534976,0.0-42.0-5.0,"""event"",""trial"",""time""
""fullscreenenter"",""1"",""17384""
","
","
","""event"",""trial"",""time""
""fullscreenenter"",""1"",""17384""
","
",,82,run_exp/static/images/task_images/land.jpg,65,,,,,,,52,,,4,,,,,,,,100444,1,0,FALSE,,,
dig,126,537902,0.0-43.0-0.0,"""event"",""trial"",""time""
""fullscreenenter"",""1"",""17384""
","
","
","""event"",""trial"",""time""
""fullscreenenter"",""1"",""17384""
","
",,,,,,,,,,,,"[{""stimulus"":""run_exp/static/images/task_images/dig.jpg"",""time"":0},{""stimulus"":""run_exp/static/images/task_images/land.jpg"",""time"":976.7000000476837},{""stimulus"":""run_exp/static/images/task_images/dig.jpg"",""time"":1952.8000000715256}]",[],4,,,,,,,,,,,,,,
harvest,127,538915,0.0-43.0-1.0,"""event"",""trial"",""time""
""fullscreenenter"",""1"",""17384""
","
","
","""event"",""trial"",""time""
""fullscreenenter"",""1"",""17384""
","
",,null,run_exp/static/images/task_images/gems/52.jpg,null,,,,,,,24,,,4,,,,,52,0.454922555,0.461538462,,,,,,,
decision,128,539002,0.0-43.0-2.0,"""event"",""trial"",""time""
""fullscreenenter"",""1"",""17384""
","
","
","""event"",""trial"",""time""
""fullscreenenter"",""1"",""17384""
","
",,84.5,run_exp/static/images/task_images/land.jpg,65,,,,,,,24,,,4,,,,,,,,104471,1,1,FALSE,,,
dig,129,541924,0.0-44.0-0.0,"""event"",""trial"",""time""
""fullscreenenter"",""1"",""17384""
","
","
","""event"",""trial"",""time""
""fullscreenenter"",""1"",""17384""
","
",,,,,,,,,,,,"[{""stimulus"":""run_exp/static/images/task_images/dig.jpg"",""time"":0.10000002384185791},{""stimulus"":""run_exp/static/images/task_images/land.jpg"",""time"":973.9000000953674},{""stimulus"":""run_exp/static/images/task_images/dig.jpg"",""time"":1950.8000000715256}]",[],4,,,,,,,,,,,,,,
harvest,130,542932,0.0-44.0-1.0,"""event"",""trial"",""time""
""fullscreenenter"",""1"",""17384""
","
","
","""event"",""trial"",""time""
""fullscreenenter"",""1"",""17384""
","
",,null,run_exp/static/images/task_images/gems/24.jpg,null,,,,,,,13,,,4,,,,,24,0.532961935,0.541666667,,,,,,,
decision,131,542957,0.0-44.0-2.0,"""event"",""trial"",""time""
""fullscreenenter"",""1"",""17384""
","
","
","""event"",""trial"",""time""
""fullscreenenter"",""1"",""17384""
","
",,22.30000007,run_exp/static/images/task_images/land.jpg,65,,,,,,,13,,,4,,,,,,,,108425,1,2,FALSE,,,
dig,132,545940,0.0-45.0-0.0,"""event"",""trial"",""time""
""fullscreenenter"",""1"",""17384""
","
","
","""event"",""trial"",""time""
""fullscreenenter"",""1"",""17384""
","
",,,,,,,,,,,,"[{""stimulus"":""run_exp/static/images/task_images/dig.jpg"",""time"":0},{""stimulus"":""run_exp/static/images/task_images/land.jpg"",""time"":994.6999999284744},{""stimulus"":""run_exp/static/images/task_images/dig.jpg"",""time"":1988.6000000238419}]",[],4,,,,,,,,,,,,,,
harvest,133,546949,0.0-45.0-1.0,"""event"",""trial"",""time""
""fullscreenenter"",""1"",""17384""
","
","
","""event"",""trial"",""time""
""fullscreenenter"",""1"",""17384""
","
",,null,run_exp/static/images/task_images/gems/13.jpg,null,,,,,,,6,,,4,,,,,13,0.495669732,0.461538462,,,,,,,
decision,134,546977,0.0-45.0-2.0,"""event"",""trial"",""time""
""fullscreenenter"",""1"",""17384""
","
","
","""event"",""trial"",""time""
""fullscreenenter"",""1"",""17384""
","
",,25.39999998,run_exp/static/images/task_images/land.jpg,76,,,,,,,6,,,4,,,,,,,,112446,1,3,TRUE,,,
travel,135,556962,0.0-46.0-0.0,"""event"",""trial"",""time""
""fullscreenenter"",""1"",""17384""
","
","
","""event"",""trial"",""time""
""fullscreenenter"",""1"",""17384""
","
",,,,,,,,,,,,"[{""stimulus"":""run_exp/static/images/task_images/rocket-01.jpg"",""time"":0.20000004768371582},{""stimulus"":""run_exp/static/images/task_images/rocket-02.jpg"",""time"":1118.1000000238419},{""stimulus"":""run_exp/static/images/task_images/rocket-03.jpg"",""time"":2223.2000000476837},{""stimulus"":""run_exp/static/images/task_images/rocket-04.jpg"",""time"":3334.2000000476837},{""stimulus"":""run_exp/static/images/task_images/rocket-05.jpg"",""time"":4441},{""stimulus"":""run_exp/static/images/task_images/rocket-06.jpg"",""time"":5550.100000023842},{""stimulus"":""run_exp/static/images/task_images/rocket-07.jpg"",""time"":6655.300000071526},{""stimulus"":""run_exp/static/images/task_images/rocket-08.jpg"",""time"":7768.700000047684},{""stimulus"":""run_exp/static/images/task_images/rocket-09.jpg"",""time"":8871.100000023842}]",[],4,,,,,,,,,,,,,,
alien_welcome,136,561974,0.0-46.0-1.0,"""event"",""trial"",""time""
""fullscreenenter"",""1"",""17384""
","
","
","""event"",""trial"",""time""
""fullscreenenter"",""1"",""17384""
","
",,null,run_exp/static/images/task_images/aliens/old_aliens/planet/alien_planet-75.jpg,null,,,,,,,,,,,,,75,"46,20,3,59,75,35,28,9,21,50,65,77,10,13,5,30,16,42,39,7,14,26,1,2,66,60,23,41,47,76,74,34,45,57,71,33,64,72,63,79,17,55,19,73,36",,,,,,,,,,
land,137,562482,0.0-46.0-2.0,"""event"",""trial"",""time""
""fullscreenenter"",""1"",""17384""
","
","
","""event"",""trial"",""time""
""fullscreenenter"",""1"",""17384""
","
",,null,run_exp/static/images/task_images/land.jpg,null,,,,,,,105,,,5,,,,,,,,,,,,,,
dig,138,564494,0.0-46.0-3.0,"""event"",""trial"",""time""
""fullscreenenter"",""1"",""17384""
","
","
","""event"",""trial"",""time""
""fullscreenenter"",""1"",""17384""
","
",,,,,,,,,,,,"[{""stimulus"":""run_exp/static/images/task_images/dig.jpg"",""time"":0.6999999284744263},{""stimulus"":""run_exp/static/images/task_images/land.jpg"",""time"":675.0999999046326},{""stimulus"":""run_exp/static/images/task_images/dig.jpg"",""time"":1343.5999999046326}]",[],5,,,,,,,,,,,,,,
harvest,139,565502,0.0-46.0-4.0,"""event"",""trial"",""time""
""fullscreenenter"",""1"",""17384""
","
","
","""event"",""trial"",""time""
""fullscreenenter"",""1"",""17384""
","
",,null,run_exp/static/images/task_images/gems/105.jpg,null,,,,,,,56,,,5,,,,,105,0.532497124,0.533333333,,,,,,,
decision,140,565653,0.0-46.0-5.0,"""event"",""trial"",""time""
""fullscreenenter"",""1"",""17384""
","
","
","""event"",""trial"",""time""
""fullscreenenter"",""1"",""17384""
","
",,147.7,run_exp/static/images/task_images/land.jpg,65,,,,,,,56,,,5,,,,,,,,131121,1,0,FALSE,,,
dig,141,568517,0.0-47.0-0.0,"""event"",""trial"",""time""
""fullscreenenter"",""1"",""17384""
","
","
","""event"",""trial"",""time""
""fullscreenenter"",""1"",""17384""
","
",,,,,,,,,,,,"[{""stimulus"":""run_exp/static/images/task_images/dig.jpg"",""time"":0.19999992847442627},{""stimulus"":""run_exp/static/images/task_images/land.jpg"",""time"":955.7999999523163},{""stimulus"":""run_exp/static/images/task_images/dig.jpg"",""time"":1909.1999999284744}]",[],5,,,,,,,,,,,,,,
harvest,142,569521,0.0-47.0-1.0,"""event"",""trial"",""time""
""fullscreenenter"",""1"",""17384""
","
","
","""event"",""trial"",""time""
""fullscreenenter"",""1"",""17384""
","
",,null,run_exp/static/images/task_images/gems/56.jpg,null,,,,,,,30,,,5,,,,,56,0.542799455,0.535714286,,,,,,,
decision,143,569750,0.0-47.0-2.0,"""event"",""trial"",""time""
""fullscreenenter"",""1"",""17384""
","
","
","""event"",""trial"",""time""
""fullscreenenter"",""1"",""17384""
","
",,225.3,run_exp/static/images/task_images/land.jpg,65,,,,,,,30,,,5,,,,,,,,135218,1,1,FALSE,,,
dig,144,572531,0.0-48.0-0.0,"""event"",""trial"",""time""
""fullscreenenter"",""1"",""17384""
","
","
","""event"",""trial"",""time""
""fullscreenenter"",""1"",""17384""
","
",,,,,,,,,,,,"[{""stimulus"":""run_exp/static/images/task_images/dig.jpg"",""time"":0.19999992847442627},{""stimulus"":""run_exp/static/images/task_images/land.jpg"",""time"":931.5},{""stimulus"":""run_exp/static/images/task_images/dig.jpg"",""time"":1858.1999999284744}]",[],5,,,,,,,,,,,,,,
harvest,145,573539,0.0-48.0-1.0,"""event"",""trial"",""time""
""fullscreenenter"",""1"",""17384""
","
","
","""event"",""trial"",""time""
""fullscreenenter"",""1"",""17384""
","
",,null,run_exp/static/images/task_images/gems/30.jpg,null,,,,,,,15,,,5,,,,,30,0.515957519,0.5,,,,,,,
decision,146,573586,0.0-48.0-2.0,"""event"",""trial"",""time""
""fullscreenenter"",""1"",""17384""
","
","
","""event"",""trial"",""time""
""fullscreenenter"",""1"",""17384""
","
",,44.0999999,run_exp/static/images/task_images/land.jpg,65,,,,,,,15,,,5,,,,,,,,139054,1,2,FALSE,,,
dig,147,576547,0.0-49.0-0.0,"""event"",""trial"",""time""
""fullscreenenter"",""1"",""17384""
","
","
","""event"",""trial"",""time""
""fullscreenenter"",""1"",""17384""
","
",,,,,,,,,,,,"[{""stimulus"":""run_exp/static/images/task_images/dig.jpg"",""time"":0.10000002384185791},{""stimulus"":""run_exp/static/images/task_images/land.jpg"",""time"":992.9000000953674},{""stimulus"":""run_exp/static/images/task_images/dig.jpg"",""time"":1975.6000000238419}]",[],5,,,,,,,,,,,,,,
harvest,148,577555,0.0-49.0-1.0,"""event"",""trial"",""time""
""fullscreenenter"",""1"",""17384""
","
","
","""event"",""trial"",""time""
""fullscreenenter"",""1"",""17384""
","
",,null,run_exp/static/images/task_images/gems/15.jpg,null,,,,,,,8,,,5,,,,,15,0.530317396,0.533333333,,,,,,,
decision,149,578291,0.0-49.0-2.0,"""event"",""trial"",""time""
""fullscreenenter"",""1"",""17384""
","
","
","""event"",""trial"",""time""
""fullscreenenter"",""1"",""17384""
","
",,733.1999999,run_exp/static/images/task_images/land.jpg,76,,,,,,,8,,,5,,,,,,,,143760,1,3,TRUE,,,
travel,150,587565,0.0-50.0-0.0,"""event"",""trial"",""time""
""fullscreenenter"",""1"",""17384""
","
","
","""event"",""trial"",""time""
""fullscreenenter"",""1"",""17384""
","
",,,,,,,,,,,,"[{""stimulus"":""run_exp/static/images/task_images/rocket-01.jpg"",""time"":0.19999992847442627},{""stimulus"":""run_exp/static/images/task_images/rocket-02.jpg"",""time"":1038.5999999046326},{""stimulus"":""run_exp/static/images/task_images/rocket-03.jpg"",""time"":2060.7999999523163},{""stimulus"":""run_exp/static/images/task_images/rocket-04.jpg"",""time"":3094.5999999046326},{""stimulus"":""run_exp/static/images/task_images/rocket-05.jpg"",""time"":4126.099999904633},{""stimulus"":""run_exp/static/images/task_images/rocket-06.jpg"",""time"":5148.099999904633},{""stimulus"":""run_exp/static/images/task_images/rocket-07.jpg"",""time"":6180.299999952316},{""stimulus"":""run_exp/static/images/task_images/rocket-08.jpg"",""time"":7216},{""stimulus"":""run_exp/static/images/task_images/rocket-09.jpg"",""time"":8240}]",[],5,,,,,,,,,,,,,,
alien_welcome,151,592573,0.0-50.0-1.0,"""event"",""trial"",""time""
""fullscreenenter"",""1"",""17384""
","
","
","""event"",""trial"",""time""
""fullscreenenter"",""1"",""17384""
","
",,null,run_exp/static/images/task_images/aliens/old_aliens/planet/alien_planet-35.jpg,null,,,,,,,,,,,,,35,"46,20,3,59,75,35,28,9,21,50,65,77,10,13,5,30,16,42,39,7,14,26,1,2,66,60,23,41,47,76,74,34,45,57,71,33,64,72,63,79,17,55,19,73,36",,,,,,,,,,
land,152,593083,0.0-50.0-2.0,"""event"",""trial"",""time""
""fullscreenenter"",""1"",""17384""
","
","
","""event"",""trial"",""time""
""fullscreenenter"",""1"",""17384""
","
",,null,run_exp/static/images/task_images/land.jpg,null,,,,,,,93,,,6,,,,,,,,,,,,,,
dig,153,595091,0.0-50.0-3.0,"""event"",""trial"",""time""
""fullscreenenter"",""1"",""17384""
","
","
","""event"",""trial"",""time""
""fullscreenenter"",""1"",""17384""
","
",,,,,,,,,,,,"[{""stimulus"":""run_exp/static/images/task_images/dig.jpg"",""time"":0.6000000238418579},{""stimulus"":""run_exp/static/images/task_images/land.jpg"",""time"":677.2999999523163},{""stimulus"":""run_exp/static/images/task_images/dig.jpg"",""time"":1341.1000000238419}]",[],6,,,,,,,,,,,,,,
harvest,154,596099,0.0-50.0-4.0,"""event"",""trial"",""time""
""fullscreenenter"",""1"",""17384""
","
","
","""event"",""trial"",""time""
""fullscreenenter"",""1"",""17384""
","
",,null,run_exp/static/images/task_images/gems/93.jpg,null,,,,,,,73,,,6,,,,,93,0.785426211,0.784946237,,,,,,,
decision,155,596220,0.0-50.0-5.0,"""event"",""trial"",""time""
""fullscreenenter"",""1"",""17384""
","
","
","""event"",""trial"",""time""
""fullscreenenter"",""1"",""17384""
","
",,118,run_exp/static/images/task_images/land.jpg,65,,,,,,,73,,,6,,,,,,,,161688,1,0,FALSE,,,
dig,156,599107,0.0-51.0-0.0,"""event"",""trial"",""time""
""fullscreenenter"",""1"",""17384""
","
","
","""event"",""trial"",""time""
""fullscreenenter"",""1"",""17384""
","
",,,,,,,,,,,,"[{""stimulus"":""run_exp/static/images/task_images/dig.jpg"",""time"":0.10000002384185791},{""stimulus"":""run_exp/static/images/task_images/land.jpg"",""time"":970.1000000238419},{""stimulus"":""run_exp/static/images/task_images/dig.jpg"",""time"":1924.1999999284744}]",[],6,,,,,,,,,,,,,,
harvest,157,600115,0.0-51.0-1.0,"""event"",""trial"",""time""
""fullscreenenter"",""1"",""17384""
","
","
","""event"",""trial"",""time""
""fullscreenenter"",""1"",""17384""
","
",,null,run_exp/static/images/task_images/gems/73.jpg,null,,,,,,,54,,,6,,,,,73,0.742723068,0.739726027,,,,,,,
decision,158,600206,0.0-51.0-2.0,"""event"",""trial"",""time""
""fullscreenenter"",""1"",""17384""
","
","
","""event"",""trial"",""time""
""fullscreenenter"",""1"",""17384""
","
",,87.70000005,run_exp/static/images/task_images/land.jpg,65,,,,,,,54,,,6,,,,,,,,165674,1,1,FALSE,,,
dig,159,603125,0.0-52.0-0.0,"""event"",""trial"",""time""
""fullscreenenter"",""1"",""17384""
","
","
","""event"",""trial"",""time""
""fullscreenenter"",""1"",""17384""
","
",,,,,,,,,,,,"[{""stimulus"":""run_exp/static/images/task_images/dig.jpg"",""time"":0.10000002384185791},{""stimulus"":""run_exp/static/images/task_images/land.jpg"",""time"":980.6000000238419},{""stimulus"":""run_exp/static/images/task_images/dig.jpg"",""time"":1949.4000000953674}]",[],6,,,,,,,,,,,,,,
harvest,160,604131,0.0-52.0-1.0,"""event"",""trial"",""time""
""fullscreenenter"",""1"",""17384""
","
","
","""event"",""trial"",""time""
""fullscreenenter"",""1"",""17384""
","
",,null,run_exp/static/images/task_images/gems/54.jpg,null,,,,,,,43,,,6,,,,,54,0.788992471,0.796296296,,,,,,,
decision,161,604191,0.0-52.0-2.0,"""event"",""trial"",""time""
""fullscreenenter"",""1"",""17384""
","
","
","""event"",""trial"",""time""
""fullscreenenter"",""1"",""17384""
","
",,57.70000005,run_exp/static/images/task_images/land.jpg,65,,,,,,,43,,,6,,,,,,,,169660,1,2,FALSE,,,
dig,162,607139,0.0-53.0-0.0,"""event"",""trial"",""time""
""fullscreenenter"",""1"",""17384""
","
","
","""event"",""trial"",""time""
""fullscreenenter"",""1"",""17384""
","
",,,,,,,,,,,,"[{""stimulus"":""run_exp/static/images/task_images/dig.jpg"",""time"":0.10000002384185791},{""stimulus"":""run_exp/static/images/task_images/land.jpg"",""time"":985.3999999761581},{""stimulus"":""run_exp/static/images/task_images/dig.jpg"",""time"":1971.7000000476837}]",[],6,,,,,,,,,,,,,,
harvest,163,608147,0.0-53.0-1.0,"""event"",""trial"",""time""
""fullscreenenter"",""1"",""17384""
","
","
","""event"",""trial"",""time""
""fullscreenenter"",""1"",""17384""
","
",,null,run_exp/static/images/task_images/gems/43.jpg,null,,,,,,,36,,,6,,,,,43,0.827906861,0.837209302,,,,,,,
decision,164,608295,0.0-53.0-2.0,"""event"",""trial"",""time""
""fullscreenenter"",""1"",""17384""
","
","
","""event"",""trial"",""time""
""fullscreenenter"",""1"",""17384""
","
",,145.1999999,run_exp/static/images/task_images/land.jpg,65,,,,,,,36,,,6,,,,,,,,173764,1,3,FALSE,,,
dig,165,611155,0.0-54.0-0.0,"""event"",""trial"",""time""
""fullscreenenter"",""1"",""17384""
","
","
","""event"",""trial"",""time""
""fullscreenenter"",""1"",""17384""
","
",,,,,,,,,,,,"[{""stimulus"":""run_exp/static/images/task_images/dig.jpg"",""time"":0},{""stimulus"":""run_exp/static/images/task_images/land.jpg"",""time"":963},{""stimulus"":""run_exp/static/images/task_images/dig.jpg"",""time"":1912.8999999761581}]",[],6,,,,,,,,,,,,,,
harvest,166,612166,0.0-54.0-1.0,"""event"",""trial"",""time""
""fullscreenenter"",""1"",""17384""
","
","
","""event"",""trial"",""time""
""fullscreenenter"",""1"",""17384""
","
",,null,run_exp/static/images/task_images/gems/36.jpg,null,,,,,,,32,,,6,,,,,36,0.884989381,0.888888889,,,,,,,
decision,167,612267,0.0-54.0-2.0,"""event"",""trial"",""time""
""fullscreenenter"",""1"",""17384""
","
","
","""event"",""trial"",""time""
""fullscreenenter"",""1"",""17384""
","
",,97.29999995,run_exp/static/images/task_images/land.jpg,65,,,,,,,32,,,6,,,,,,,,177735,1,4,FALSE,,,
dig,168,615183,0.0-55.0-0.0,"""event"",""trial"",""time""
""fullscreenenter"",""1"",""17384""
","
","
","""event"",""trial"",""time""
""fullscreenenter"",""1"",""17384""
","
",,,,,,,,,,,,"[{""stimulus"":""run_exp/static/images/task_images/dig.jpg"",""time"":0.10000002384185791},{""stimulus"":""run_exp/static/images/task_images/land.jpg"",""time"":973.7999999523163},{""stimulus"":""run_exp/static/images/task_images/dig.jpg"",""time"":1941.2999999523163}]",[],6,,,,,,,,,,,,,,
harvest,169,616190,0.0-55.0-1.0,"""event"",""trial"",""time""
""fullscreenenter"",""1"",""17384""
","
","
","""event"",""trial"",""time""
""fullscreenenter"",""1"",""17384""
","
",,null,run_exp/static/images/task_images/gems/32.jpg,null,,,,,,,27,,,6,,,,,32,0.859028482,0.84375,,,,,,,
decision,170,616310,0.0-55.0-2.0,"""event"",""trial"",""time""
""fullscreenenter"",""1"",""17384""
","
","
","""event"",""trial"",""time""
""fullscreenenter"",""1"",""17384""
","
",,117.6,run_exp/static/images/task_images/land.jpg,65,,,,,,,27,,,6,,,,,,,,181778,1,5,FALSE,,,
dig,171,619194,0.0-56.0-0.0,"""event"",""trial"",""time""
""fullscreenenter"",""1"",""17384""
","
","
","""event"",""trial"",""time""
""fullscreenenter"",""1"",""17384""
","
",,,,,,,,,,,,"[{""stimulus"":""run_exp/static/images/task_images/dig.jpg"",""time"":0.10000002384185791},{""stimulus"":""run_exp/static/images/task_images/land.jpg"",""time"":963},{""stimulus"":""run_exp/static/images/task_images/dig.jpg"",""time"":1922.5}]",[],6,,,,,,,,,,,,,,
harvest,172,620203,0.0-56.0-1.0,"""event"",""trial"",""time""
""fullscreenenter"",""1"",""17384""
","
","
","""event"",""trial"",""time""
""fullscreenenter"",""1"",""17384""
","
",,null,run_exp/static/images/task_images/gems/27.jpg,null,,,,,,,22,,,6,,,,,27,0.811201604,0.814814815,,,,,,,
decision,173,620227,0.0-56.0-2.0,"""event"",""trial"",""time""
""fullscreenenter"",""1"",""17384""
","
","
","""event"",""trial"",""time""
""fullscreenenter"",""1"",""17384""
","
",,22.29999995,run_exp/static/images/task_images/land.jpg,76,,,,,,,22,,,6,,,,,,,,185696,1,6,TRUE,,,
travel,174,630211,0.0-57.0-0.0,"""event"",""trial"",""time""
""fullscreenenter"",""1"",""17384""
","
","
","""event"",""trial"",""time""
""fullscreenenter"",""1"",""17384""
","
",,,,,,,,,,,,"[{""stimulus"":""run_exp/static/images/task_images/rocket-01.jpg"",""time"":0.10000002384185791},{""stimulus"":""run_exp/static/images/task_images/rocket-02.jpg"",""time"":1117},{""stimulus"":""run_exp/static/images/task_images/rocket-03.jpg"",""time"":2222.399999976158},{""stimulus"":""run_exp/static/images/task_images/rocket-04.jpg"",""time"":3338.100000023842},{""stimulus"":""run_exp/static/images/task_images/rocket-05.jpg"",""time"":4438.600000023842},{""stimulus"":""run_exp/static/images/task_images/rocket-06.jpg"",""time"":5550.700000047684},{""stimulus"":""run_exp/static/images/task_images/rocket-07.jpg"",""time"":6649.600000023842},{""stimulus"":""run_exp/static/images/task_images/rocket-08.jpg"",""time"":7768.200000047684},{""stimulus"":""run_exp/static/images/task_images/rocket-09.jpg"",""time"":8870.700000047684}]",[],6,,,,,,,,,,,,,,
alien_welcome,175,635218,0.0-57.0-1.0,"""event"",""trial"",""time""
""fullscreenenter"",""1"",""17384""
","
","
","""event"",""trial"",""time""
""fullscreenenter"",""1"",""17384""
","
",,null,run_exp/static/images/task_images/aliens/old_aliens/planet/alien_planet-28.jpg,null,,,,,,,,,,,,,28,"46,20,3,59,75,35,28,9,21,50,65,77,10,13,5,30,16,42,39,7,14,26,1,2,66,60,23,41,47,76,74,34,45,57,71,33,64,72,63,79,17,55,19,73,36",,,,,,,,,,
land,176,635732,0.0-57.0-2.0,"""event"",""trial"",""time""
""fullscreenenter"",""1"",""17384""
","
","
","""event"",""trial"",""time""
""fullscreenenter"",""1"",""17384""
","
",,null,run_exp/static/images/task_images/land.jpg,null,,,,,,,91,,,7,,,,,,,,,,,,,,
dig,177,637742,0.0-57.0-3.0,"""event"",""trial"",""time""
""fullscreenenter"",""1"",""17384""
","
","
","""event"",""trial"",""time""
""fullscreenenter"",""1"",""17384""
","
",,,,,,,,,,,,"[{""stimulus"":""run_exp/static/images/task_images/dig.jpg"",""time"":0.3999999761581421},{""stimulus"":""run_exp/static/images/task_images/land.jpg"",""time"":681.1000000238419},{""stimulus"":""run_exp/static/images/task_images/dig.jpg"",""time"":1341.3000000715256}]",[],7,,,,,,,,,,,,,,
harvest,178,638748,0.0-57.0-4.0,"""event"",""trial"",""time""
""fullscreenenter"",""1"",""17384""
","
","
","""event"",""trial"",""time""
""fullscreenenter"",""1"",""17384""
","
",,null,run_exp/static/images/task_images/gems/91.jpg,null,,,,,,,74,,,7,,,,,91,0.813377013,0.813186813,,,,,,,
decision,179,638971,0.0-57.0-5.0,"""event"",""trial"",""time""
""fullscreenenter"",""1"",""17384""
","
","
","""event"",""trial"",""time""
""fullscreenenter"",""1"",""17384""
","
",,220.5,run_exp/static/images/task_images/land.jpg,65,,,,,,,74,,,7,,,,,,,,204439,1,0,FALSE,,,
dig,180,641755,0.0-58.0-0.0,"""event"",""trial"",""time""
""fullscreenenter"",""1"",""17384""
","
","
","""event"",""trial"",""time""
""fullscreenenter"",""1"",""17384""
","
",,,,,,,,,,,,"[{""stimulus"":""run_exp/static/images/task_images/dig.jpg"",""time"":0.19999992847442627},{""stimulus"":""run_exp/static/images/task_images/land.jpg"",""time"":932.8999999761581},{""stimulus"":""run_exp/static/images/task_images/dig.jpg"",""time"":1861.6000000238419}]",[],7,,,,,,,,,,,,,,
harvest,181,642763,0.0-58.0-1.0,"""event"",""trial"",""time""
""fullscreenenter"",""1"",""17384""
","
","
","""event"",""trial"",""time""
""fullscreenenter"",""1"",""17384""
","
",,null,run_exp/static/images/task_images/gems/74.jpg,null,,,,,,,59,,,7,,,,,74,0.794495007,0.797297297,,,,,,,
decision,182,642812,0.0-58.0-2.0,"""event"",""trial"",""time""
""fullscreenenter"",""1"",""17384""
","
","
","""event"",""trial"",""time""
""fullscreenenter"",""1"",""17384""
","
",,45.20000005,run_exp/static/images/task_images/land.jpg,65,,,,,,,59,,,7,,,,,,,,208280,1,1,FALSE,,,
dig,183,645771,0.0-59.0-0.0,"""event"",""trial"",""time""
""fullscreenenter"",""1"",""17384""
","
","
","""event"",""trial"",""time""
""fullscreenenter"",""1"",""17384""
","
",,,,,,,,,,,,"[{""stimulus"":""run_exp/static/images/task_images/dig.jpg"",""time"":0},{""stimulus"":""run_exp/static/images/task_images/land.jpg"",""time"":988.1999999284744},{""stimulus"":""run_exp/static/images/task_images/dig.jpg"",""time"":1975}]",[],7,,,,,,,,,,,,,,
harvest,184,646779,0.0-59.0-1.0,"""event"",""trial"",""time""
""fullscreenenter"",""1"",""17384""
","
","
","""event"",""trial"",""time""
""fullscreenenter"",""1"",""17384""
","
",,null,run_exp/static/images/task_images/gems/59.jpg,null,,,,,,,52,,,7,,,,,59,0.881216016,0.881355932,,,,,,,
decision,185,646958,0.0-59.0-2.0,"""event"",""trial"",""time""
""fullscreenenter"",""1"",""17384""
","
","
","""event"",""trial"",""time""
""fullscreenenter"",""1"",""17384""
","
",,175.4000001,run_exp/static/images/task_images/land.jpg,65,,,,,,,52,,,7,,,,,,,,212426,1,2,FALSE,,,
dig,186,649795,0.0-60.0-0.0,"""event"",""trial"",""time""
""fullscreenenter"",""1"",""17384""
","
","
","""event"",""trial"",""time""
""fullscreenenter"",""1"",""17384""
","
",,,,,,,,,,,,"[{""stimulus"":""run_exp/static/images/task_images/dig.jpg"",""time"":0.20000004768371582},{""stimulus"":""run_exp/static/images/task_images/land.jpg"",""time"":947.5},{""stimulus"":""run_exp/static/images/task_images/dig.jpg"",""time"":1889.5}]",[],7,,,,,,,,,,,,,,
harvest,187,650803,0.0-60.0-1.0,"""event"",""trial"",""time""
""fullscreenenter"",""1"",""17384""
","
","
","""event"",""trial"",""time""
""fullscreenenter"",""1"",""17384""
","
",,null,run_exp/static/images/task_images/gems/52.jpg,null,,,,,,,43,,,7,,,,,52,0.822138258,0.826923077,,,,,,,
decision,188,650861,0.0-60.0-2.0,"""event"",""trial"",""time""
""fullscreenenter"",""1"",""17384""
","
","
","""event"",""trial"",""time""
""fullscreenenter"",""1"",""17384""
","
",,54.70000005,run_exp/static/images/task_images/land.jpg,65,,,,,,,43,,,7,,,,,,,,216329,1,3,FALSE,,,
dig,189,653813,0.0-61.0-0.0,"""event"",""trial"",""time""
""fullscreenenter"",""1"",""17384""
","
","
","""event"",""trial"",""time""
""fullscreenenter"",""1"",""17384""
","
",,,,,,,,,,,,"[{""stimulus"":""run_exp/static/images/task_images/dig.jpg"",""time"":0.10000002384185791},{""stimulus"":""run_exp/static/images/task_images/land.jpg"",""time"":988.5},{""stimulus"":""run_exp/static/images/task_images/dig.jpg"",""time"":1972.2000000476837}]",[],7,,,,,,,,,,,,,,
harvest,190,654820,0.0-61.0-1.0,"""event"",""trial"",""time""
""fullscreenenter"",""1"",""17384""
","
","
","""event"",""trial"",""time""
""fullscreenenter"",""1"",""17384""
","
",,null,run_exp/static/images/task_images/gems/43.jpg,null,,,,,,,34,,,7,,,,,43,0.783793792,0.790697674,,,,,,,
decision,191,654904,0.0-61.0-2.0,"""event"",""trial"",""time""
""fullscreenenter"",""1"",""17384""
","
","
","""event"",""trial"",""time""
""fullscreenenter"",""1"",""17384""
","
",,80.79999995,run_exp/static/images/task_images/land.jpg,76,,,,,,,34,,,7,,,,,,,,220373,1,4,TRUE,,,
travel,192,664776,0.0-62.0-0.0,"""event"",""trial"",""time""
""fullscreenenter"",""1"",""17384""
","
","
","""event"",""trial"",""time""
""fullscreenenter"",""1"",""17384""
","
",,,,,,,,,,,,"[{""stimulus"":""run_exp/static/images/task_images/rocket-01.jpg"",""time"":0},{""stimulus"":""run_exp/static/images/task_images/rocket-02.jpg"",""time"":1116.2000000476837},{""stimulus"":""run_exp/static/images/task_images/rocket-03.jpg"",""time"":2210.5},{""stimulus"":""run_exp/static/images/task_images/rocket-04.jpg"",""time"":3312.8000000715256},{""stimulus"":""run_exp/static/images/task_images/rocket-05.jpg"",""time"":4419.100000023842},{""stimulus"":""run_exp/static/images/task_images/rocket-06.jpg"",""time"":5520.200000047684},{""stimulus"":""run_exp/static/images/task_images/rocket-07.jpg"",""time"":6617.899999976158},{""stimulus"":""run_exp/static/images/task_images/rocket-08.jpg"",""time"":7720.800000071526},{""stimulus"":""run_exp/static/images/task_images/rocket-09.jpg"",""time"":8826.5}]",[],7,,,,,,,,,,,,,,
alien_welcome,193,669782,0.0-62.0-1.0,"""event"",""trial"",""time""
""fullscreenenter"",""1"",""17384""
","
","
","""event"",""trial"",""time""
""fullscreenenter"",""1"",""17384""
","
",,null,run_exp/static/images/task_images/aliens/old_aliens/planet/alien_planet-9.jpg,null,,,,,,,,,,,,,9,"46,20,3,59,75,35,28,9,21,50,65,77,10,13,5,30,16,42,39,7,14,26,1,2,66,60,23,41,47,76,74,34,45,57,71,33,64,72,63,79,17,55,19,73,36",,,,,,,,,,
land,194,670295,0.0-62.0-2.0,"""event"",""trial"",""time""
""fullscreenenter"",""1"",""17384""
","
","
","""event"",""trial"",""time""
""fullscreenenter"",""1"",""17384""
","
",,null,run_exp/static/images/task_images/land.jpg,null,,,,,,,94,,,8,,,,,,,,,,,,,,
dig,195,672304,0.0-62.0-3.0,"""event"",""trial"",""time""
""fullscreenenter"",""1"",""17384""
","
","
","""event"",""trial"",""time""
""fullscreenenter"",""1"",""17384""
","
",,,,,,,,,,,,"[{""stimulus"":""run_exp/static/images/task_images/dig.jpg"",""time"":0.3999999761581421},{""stimulus"":""run_exp/static/images/task_images/land.jpg"",""time"":675.7999999523163},{""stimulus"":""run_exp/static/images/task_images/dig.jpg"",""time"":1342.1999999284744}]",[],8,,,,,,,,,,,,,,
harvest,196,673310,0.0-62.0-4.0,"""event"",""trial"",""time""
""fullscreenenter"",""1"",""17384""
","
","
","""event"",""trial"",""time""
""fullscreenenter"",""1"",""17384""
","
",,null,run_exp/static/images/task_images/gems/94.jpg,null,,,,,,,72,,,8,,,,,94,0.76151378,0.765957447,,,,,,,
decision,197,673585,0.0-62.0-5.0,"""event"",""trial"",""time""
""fullscreenenter"",""1"",""17384""
","
","
","""event"",""trial"",""time""
""fullscreenenter"",""1"",""17384""
","
",,271.5,run_exp/static/images/task_images/land.jpg,65,,,,,,,72,,,8,,,,,,,,239053,1,0,FALSE,,,
dig,198,676329,0.0-63.0-0.0,"""event"",""trial"",""time""
""fullscreenenter"",""1"",""17384""
","
","
","""event"",""trial"",""time""
""fullscreenenter"",""1"",""17384""
","
",,,,,,,,,,,,"[{""stimulus"":""run_exp/static/images/task_images/dig.jpg"",""time"":0.10000002384185791},{""stimulus"":""run_exp/static/images/task_images/land.jpg"",""time"":917.6000000238419},{""stimulus"":""run_exp/static/images/task_images/dig.jpg"",""time"":1828.2000000476837}]",[],8,,,,,,,,,,,,,,
harvest,199,677334,0.0-63.0-1.0,"""event"",""trial"",""time""
""fullscreenenter"",""1"",""17384""
","
","
","""event"",""trial"",""time""
""fullscreenenter"",""1"",""17384""
","
",,null,run_exp/static/images/task_images/gems/72.jpg,null,,,,,,,57,,,8,,,,,72,0.79280339,0.791666667,,,,,,,
decision,200,677539,0.0-63.0-2.0,"""event"",""trial"",""time""
""fullscreenenter"",""1"",""17384""
","
","
","""event"",""trial"",""time""
""fullscreenenter"",""1"",""17384""
","
",,201.3000001,run_exp/static/images/task_images/land.jpg,65,,,,,,,57,,,8,,,,,,,,243007,1,1,FALSE,,,
dig,201,680342,0.0-64.0-0.0,"""event"",""trial"",""time""
""fullscreenenter"",""1"",""17384""
","
","
","""event"",""trial"",""time""
""fullscreenenter"",""1"",""17384""
","
",,,,,,,,,,,,"[{""stimulus"":""run_exp/static/images/task_images/dig.jpg"",""time"":0.19999992847442627},{""stimulus"":""run_exp/static/images/task_images/land.jpg"",""time"":937.0999999046326},{""stimulus"":""run_exp/static/images/task_images/dig.jpg"",""time"":1875}]",[],8,,,,,,,,,,,,,,
harvest,202,681352,0.0-64.0-1.0,"""event"",""trial"",""time""
""fullscreenenter"",""1"",""17384""
","
","
","""event"",""trial"",""time""
""fullscreenenter"",""1"",""17384""
","
",,null,run_exp/static/images/task_images/gems/57.jpg,null,,,,,,,49,,,8,,,,,57,0.86083431,0.859649123,,,,,,,
decision,203,681474,0.0-64.0-2.0,"""event"",""trial"",""time""
""fullscreenenter"",""1"",""17384""
","
","
","""event"",""trial"",""time""
""fullscreenenter"",""1"",""17384""
","
",,118.5,run_exp/static/images/task_images/land.jpg,65,,,,,,,49,,,8,,,,,,,,246942,1,2,FALSE,,,
dig,204,684358,0.0-65.0-0.0,"""event"",""trial"",""time""
""fullscreenenter"",""1"",""17384""
","
","
","""event"",""trial"",""time""
""fullscreenenter"",""1"",""17384""
","
",,,,,,,,,,,,"[{""stimulus"":""run_exp/static/images/task_images/dig.jpg"",""time"":0.09999990463256836},{""stimulus"":""run_exp/static/images/task_images/land.jpg"",""time"":965.3999999761581},{""stimulus"":""run_exp/static/images/task_images/dig.jpg"",""time"":1923.8999999761581}]",[],8,,,,,,,,,,,,,,
harvest,205,685368,0.0-65.0-1.0,"""event"",""trial"",""time""
""fullscreenenter"",""1"",""17384""
","
","
","""event"",""trial"",""time""
""fullscreenenter"",""1"",""17384""
","
",,null,run_exp/static/images/task_images/gems/49.jpg,null,,,,,,,40,,,8,,,,,49,0.81202327,0.816326531,,,,,,,
decision,206,685393,0.0-65.0-2.0,"""event"",""trial"",""time""
""fullscreenenter"",""1"",""17384""
","
","
","""event"",""trial"",""time""
""fullscreenenter"",""1"",""17384""
","
",,21.29999995,run_exp/static/images/task_images/land.jpg,65,,,,,,,40,,,8,,,,,,,,250861,1,3,FALSE,,,
dig,207,688375,0.0-66.0-0.0,"""event"",""trial"",""time""
""fullscreenenter"",""1"",""17384""
","
","
","""event"",""trial"",""time""
""fullscreenenter"",""1"",""17384""
","
",,,,,,,,,,,,"[{""stimulus"":""run_exp/static/images/task_images/dig.jpg"",""time"":0},{""stimulus"":""run_exp/static/images/task_images/land.jpg"",""time"":1001.2999999523163},{""stimulus"":""run_exp/static/images/task_images/dig.jpg"",""time"":1992.0999999046326}]",[],8,,,,,,,,,,,,,,
harvest,208,689387,0.0-66.0-1.0,"""event"",""trial"",""time""
""fullscreenenter"",""1"",""17384""
","
","
","""event"",""trial"",""time""
""fullscreenenter"",""1"",""17384""
","
",,null,run_exp/static/images/task_images/gems/40.jpg,null,,,,,,,32,,,8,,,,,40,0.810466954,0.8,,,,,,,
decision,209,689613,0.0-66.0-2.0,"""event"",""trial"",""time""
""fullscreenenter"",""1"",""17384""
","
","
","""event"",""trial"",""time""
""fullscreenenter"",""1"",""17384""
","
",,223.9,run_exp/static/images/task_images/land.jpg,76,,,,,,,32,,,8,,,,,,,,255081,1,4,TRUE,,,
travel,210,699401,0.0-67.0-0.0,"""event"",""trial"",""time""
""fullscreenenter"",""1"",""17384""
","
","
","""event"",""trial"",""time""
""fullscreenenter"",""1"",""17384""
","
",,,,,,,,,,,,"[{""stimulus"":""run_exp/static/images/task_images/rocket-01.jpg"",""time"":0.10000002384185791},{""stimulus"":""run_exp/static/images/task_images/rocket-02.jpg"",""time"":1097},{""stimulus"":""run_exp/static/images/task_images/rocket-03.jpg"",""time"":2184.3000000715256},{""stimulus"":""run_exp/static/images/task_images/rocket-04.jpg"",""time"":3261.9000000953674},{""stimulus"":""run_exp/static/images/task_images/rocket-05.jpg"",""time"":4349.900000095367},{""stimulus"":""run_exp/static/images/task_images/rocket-06.jpg"",""time"":5441.700000047684},{""stimulus"":""run_exp/static/images/task_images/rocket-07.jpg"",""time"":6526.700000047684},{""stimulus"":""run_exp/static/images/task_images/rocket-08.jpg"",""time"":7609.400000095367},{""stimulus"":""run_exp/static/images/task_images/rocket-09.jpg"",""time"":8695.800000071526}]",[],8,,,,,,,,,,,,,,
alien_welcome,211,704408,0.0-67.0-1.0,"""event"",""trial"",""time""
""fullscreenenter"",""1"",""17384""
","
","
","""event"",""trial"",""time""
""fullscreenenter"",""1"",""17384""
","
",,null,run_exp/static/images/task_images/aliens/old_aliens/planet/alien_planet-21.jpg,null,,,,,,,,,,,,,21,"46,20,3,59,75,35,28,9,21,50,65,77,10,13,5,30,16,42,39,7,14,26,1,2,66,60,23,41,47,76,74,34,45,57,71,33,64,72,63,79,17,55,19,73,36",,,,,,,,,,
land,212,704919,0.0-67.0-2.0,"""event"",""trial"",""time""
""fullscreenenter"",""1"",""17384""
","
","
","""event"",""trial"",""time""
""fullscreenenter"",""1"",""17384""
","
",,null,run_exp/static/images/task_images/land.jpg,null,,,,,,,103,,,9,,,,,,,,,,,,,,
dig,213,706931,0.0-67.0-3.0,"""event"",""trial"",""time""
""fullscreenenter"",""1"",""17384""
","
","
","""event"",""trial"",""time""
""fullscreenenter"",""1"",""17384""
","
",,,,,,,,,,,,"[{""stimulus"":""run_exp/static/images/task_images/dig.jpg"",""time"":0.30000007152557373},{""stimulus"":""run_exp/static/images/task_images/land.jpg"",""time"":681.6000000238419},{""stimulus"":""run_exp/static/images/task_images/dig.jpg"",""time"":1343.7000000476837}]",[],9,,,,,,,,,,,,,,
harvest,214,707936,0.0-67.0-4.0,"""event"",""trial"",""time""
""fullscreenenter"",""1"",""17384""
","
","
","""event"",""trial"",""time""
""fullscreenenter"",""1"",""17384""
","
",,null,run_exp/static/images/task_images/gems/103.jpg,null,,,,,,,31,,,9,,,,,103,0.298767229,0.300970874,,,,,,,
decision,215,708069,0.0-67.0-5.0,"""event"",""trial"",""time""
""fullscreenenter"",""1"",""17384""
","
","
","""event"",""trial"",""time""
""fullscreenenter"",""1"",""17384""
","
",,131.9,run_exp/static/images/task_images/land.jpg,65,,,,,,,31,,,9,,,,,,,,273537,1,0,FALSE,,,
dig,216,710950,0.0-68.0-0.0,"""event"",""trial"",""time""
""fullscreenenter"",""1"",""17384""
","
","
","""event"",""trial"",""time""
""fullscreenenter"",""1"",""17384""
","
",,,,,,,,,,,,"[{""stimulus"":""run_exp/static/images/task_images/dig.jpg"",""time"":0.10000002384185791},{""stimulus"":""run_exp/static/images/task_images/land.jpg"",""time"":966.8999999761581},{""stimulus"":""run_exp/static/images/task_images/dig.jpg"",""time"":1920.3999999761581}]",[],9,,,,,,,,,,,,,,
harvest,217,711960,0.0-68.0-1.0,"""event"",""trial"",""time""
""fullscreenenter"",""1"",""17384""
","
","
","""event"",""trial"",""time""
""fullscreenenter"",""1"",""17384""
","
",,null,run_exp/static/images/task_images/gems/31.jpg,null,,,,,,,5,,,9,,,,,31,0.146644078,0.161290323,,,,,,,
decision,218,711962,0.0-68.0-2.0,"""event"",""trial"",""time""
""fullscreenenter"",""1"",""17384""
","
","
","""event"",""trial"",""time""
""fullscreenenter"",""1"",""17384""
","
",,0.100000024,run_exp/static/images/task_images/land.jpg,65,,,,,,,5,,,9,,,,,,,,277431,1,1,FALSE,,,
dig,219,714969,0.0-69.0-0.0,"""event"",""trial"",""time""
""fullscreenenter"",""1"",""17384""
","
","
","""event"",""trial"",""time""
""fullscreenenter"",""1"",""17384""
","
",,,,,,,,,,,,"[{""stimulus"":""run_exp/static/images/task_images/dig.jpg"",""time"":0.10000002384185791},{""stimulus"":""run_exp/static/images/task_images/land.jpg"",""time"":1008.6000000238419},{""stimulus"":""run_exp/static/images/task_images/dig.jpg"",""time"":2000.8999999761581}]",[],9,,,,,,,,,,,,,,
harvest,220,715976,0.0-69.0-1.0,"""event"",""trial"",""time""
""fullscreenenter"",""1"",""17384""
","
","
","""event"",""trial"",""time""
""fullscreenenter"",""1"",""17384""
","
",,null,run_exp/static/images/task_images/gems/5.jpg,null,,,,,,,1,,,9,,,,,5,0.183222997,0.2,,,,,,,
decision,221,716001,0.0-69.0-2.0,"""event"",""trial"",""time""
""fullscreenenter"",""1"",""17384""
","
","
","""event"",""trial"",""time""
""fullscreenenter"",""1"",""17384""
","
",,22.5,run_exp/static/images/task_images/land.jpg,76,,,,,,,1,,,9,,,,,,,,281469,1,2,TRUE,,,
travel,222,725986,0.0-70.0-0.0,"""event"",""trial"",""time""
""fullscreenenter"",""1"",""17384""
","
","
","""event"",""trial"",""time""
""fullscreenenter"",""1"",""17384""
","
",,,,,,,,,,,,"[{""stimulus"":""run_exp/static/images/task_images/rocket-01.jpg"",""time"":0.10000002384185791},{""stimulus"":""run_exp/static/images/task_images/rocket-02.jpg"",""time"":1115.6000000238419},{""stimulus"":""run_exp/static/images/task_images/rocket-03.jpg"",""time"":2226.3000000715256},{""stimulus"":""run_exp/static/images/task_images/rocket-04.jpg"",""time"":3332.4000000953674},{""stimulus"":""run_exp/static/images/task_images/rocket-05.jpg"",""time"":4443.900000095367},{""stimulus"":""run_exp/static/images/task_images/rocket-06.jpg"",""time"":5544.700000047684},{""stimulus"":""run_exp/static/images/task_images/rocket-07.jpg"",""time"":6652.800000071526},{""stimulus"":""run_exp/static/images/task_images/rocket-08.jpg"",""time"":7762.600000023842},{""stimulus"":""run_exp/static/images/task_images/rocket-09.jpg"",""time"":8873.600000023842}]",[],9,,,,,,,,,,,,,,
alien_welcome,223,731006,0.0-70.0-1.0,"""event"",""trial"",""time""
""fullscreenenter"",""1"",""17384""
","
","
","""event"",""trial"",""time""
""fullscreenenter"",""1"",""17384""
","
",,null,run_exp/static/images/task_images/aliens/old_aliens/planet/alien_planet-50.jpg,null,,,,,,,,,,,,,50,"46,20,3,59,75,35,28,9,21,50,65,77,10,13,5,30,16,42,39,7,14,26,1,2,66,60,23,41,47,76,74,34,45,57,71,33,64,72,63,79,17,55,19,73,36",,,,,,,,,,
land,224,731511,0.0-70.0-2.0,"""event"",""trial"",""time""
""fullscreenenter"",""1"",""17384""
","
","
","""event"",""trial"",""time""
""fullscreenenter"",""1"",""17384""
","
",,null,run_exp/static/images/task_images/land.jpg,null,,,,,,,104,,,10,,,,,,,,,,,,,,
dig,225,733518,0.0-70.0-3.0,"""event"",""trial"",""time""
""fullscreenenter"",""1"",""17384""
","
","
","""event"",""trial"",""time""
""fullscreenenter"",""1"",""17384""
","
",,,,,,,,,,,,"[{""stimulus"":""run_exp/static/images/task_images/dig.jpg"",""time"":0.6000000238418579},{""stimulus"":""run_exp/static/images/task_images/land.jpg"",""time"":678.3000000715256},{""stimulus"":""run_exp/static/images/task_images/dig.jpg"",""time"":1340.5}]",[],10,,,,,,,,,,,,,,
harvest,226,734530,0.0-70.0-4.0,"""event"",""trial"",""time""
""fullscreenenter"",""1"",""17384""
","
","
","""event"",""trial"",""time""
""fullscreenenter"",""1"",""17384""
","
",,null,run_exp/static/images/task_images/gems/104.jpg,null,,,,,,,29,,,10,,,,,104,0.280371837,0.278846154,,,,,,,
decision,227,734690,0.0-70.0-5.0,"""event"",""trial"",""time""
""fullscreenenter"",""1"",""17384""
","
","
","""event"",""trial"",""time""
""fullscreenenter"",""1"",""17384""
","
",,157.4,run_exp/static/images/task_images/land.jpg,65,,,,,,,29,,,10,,,,,,,,300158,1,0,TRUE,,,
end_of_block_continue,228,743703,0.0-71.0-0.0,"""event"",""trial"",""time""
""fullscreenenter"",""1"",""17384""
","
","
","""event"",""trial"",""time""
""fullscreenenter"",""1"",""17384""
","
",,null,run_exp/static/audio/clip_32_block_end.m4a,,,,,,,null,,,,,,,,,,,,,,,,,,
alien_welcome,229,748710,0.0-72.0-0.0,"""event"",""trial"",""time""
""fullscreenenter"",""1"",""17384""
","
","
","""event"",""trial"",""time""
""fullscreenenter"",""1"",""17384""
","
",,null,run_exp/static/images/task_images/aliens/old_aliens/planet/alien_planet-65.jpg,null,,,,,,,,,,,,,65,"46,20,3,59,75,35,28,9,21,50,65,77,10,13,5,30,16,42,39,7,14,26,1,2,66,60,23,41,47,76,74,34,45,57,71,33,64,72,63,79,17,55,19,73,36",,,,,,,,,,
land,230,749222,0.0-72.0-1.0,"""event"",""trial"",""time""
""fullscreenenter"",""1"",""17384""
","
","
","""event"",""trial"",""time""
""fullscreenenter"",""1"",""17384""
","
",,null,run_exp/static/images/task_images/land.jpg,null,,,,,,,100,,,11,,,,,,,,,,,,,,
dig,231,751230,0.0-72.0-2.0,"""event"",""trial"",""time""
""fullscreenenter"",""1"",""17384""
","
","
","""event"",""trial"",""time""
""fullscreenenter"",""1"",""17384""
","
",,,,,,,,,,,,"[{""stimulus"":""run_exp/static/images/task_images/dig.jpg"",""time"":0.6000000238418579},{""stimulus"":""run_exp/static/images/task_images/land.jpg"",""time"":675.8999999761581},{""stimulus"":""run_exp/static/images/task_images/dig.jpg"",""time"":1336.5}]",[],11,,,,,,,,,,,,,,
harvest,232,752240,0.0-72.0-3.0,"""event"",""trial"",""time""
""fullscreenenter"",""1"",""17384""
","
","
","""event"",""trial"",""time""
""fullscreenenter"",""1"",""17384""
","
",,null,run_exp/static/images/task_images/gems/100.jpg,null,,,,,,,18,,,11,,,,,100,0.184114403,0.18,,,,,,,
decision,233,752337,0.0-72.0-4.0,"""event"",""trial"",""time""
""fullscreenenter"",""1"",""17384""
","
","
","""event"",""trial"",""time""
""fullscreenenter"",""1"",""17384""
","
",,95.70000005,run_exp/static/images/task_images/land.jpg,65,,,,,,,18,,,11,,,,,,,,8631,2,0,FALSE,,,
dig,234,755255,0.0-73.0-0.0,"""event"",""trial"",""time""
""fullscreenenter"",""1"",""17384""
","
","
","""event"",""trial"",""time""
""fullscreenenter"",""1"",""17384""
","
",,,,,,,,,,,,"[{""stimulus"":""run_exp/static/images/task_images/dig.jpg"",""time"":0.10000002384185791},{""stimulus"":""run_exp/static/images/task_images/land.jpg"",""time"":981.3999999761581},{""stimulus"":""run_exp/static/images/task_images/dig.jpg"",""time"":1945.6000000238419}]",[],11,,,,,,,,,,,,,,
harvest,235,756264,0.0-73.0-1.0,"""event"",""trial"",""time""
""fullscreenenter"",""1"",""17384""
","
","
","""event"",""trial"",""time""
""fullscreenenter"",""1"",""17384""
","
",,null,run_exp/static/images/task_images/gems/18.jpg,null,,,,,,,3,,,11,,,,,18,0.167335972,0.166666667,,,,,,,
decision,236,756524,0.0-73.0-2.0,"""event"",""trial"",""time""
""fullscreenenter"",""1"",""17384""
","
","
","""event"",""trial"",""time""
""fullscreenenter"",""1"",""17384""
","
",,256.8,run_exp/static/images/task_images/land.jpg,76,,,,,,,3,,,11,,,,,,,,12818,2,1,TRUE,,,
travel,237,766270,0.0-74.0-0.0,"""event"",""trial"",""time""
""fullscreenenter"",""1"",""17384""
","
","
","""event"",""trial"",""time""
""fullscreenenter"",""1"",""17384""
","
",,,,,,,,,,,,"[{""stimulus"":""run_exp/static/images/task_images/rocket-01.jpg"",""time"":0.19999992847442627},{""stimulus"":""run_exp/static/images/task_images/rocket-02.jpg"",""time"":1089.8999999761581},{""stimulus"":""run_exp/static/images/task_images/rocket-03.jpg"",""time"":2167},{""stimulus"":""run_exp/static/images/task_images/rocket-04.jpg"",""time"":3253.899999976158},{""stimulus"":""run_exp/static/images/task_images/rocket-05.jpg"",""time"":4338.5},{""stimulus"":""run_exp/static/images/task_images/rocket-06.jpg"",""time"":5416.799999952316},{""stimulus"":""run_exp/static/images/task_images/rocket-07.jpg"",""time"":6495.299999952316},{""stimulus"":""run_exp/static/images/task_images/rocket-08.jpg"",""time"":7577.600000023842},{""stimulus"":""run_exp/static/images/task_images/rocket-09.jpg"",""time"":8665.399999976158}]",[],11,,,,,,,,,,,,,,
alien_welcome,238,771277,0.0-74.0-1.0,"""event"",""trial"",""time""
""fullscreenenter"",""1"",""17384""
","
","
","""event"",""trial"",""time""
""fullscreenenter"",""1"",""17384""
","
",,null,run_exp/static/images/task_images/aliens/old_aliens/planet/alien_planet-77.jpg,null,,,,,,,,,,,,,77,"46,20,3,59,75,35,28,9,21,50,65,77,10,13,5,30,16,42,39,7,14,26,1,2,66,60,23,41,47,76,74,34,45,57,71,33,64,72,63,79,17,55,19,73,36",,,,,,,,,,
land,239,771782,0.0-74.0-2.0,"""event"",""trial"",""time""
""fullscreenenter"",""1"",""17384""
","
","
","""event"",""trial"",""time""
""fullscreenenter"",""1"",""17384""
","
",,null,run_exp/static/images/task_images/land.jpg,null,,,,,,,106,,,12,,,,,,,,,,,,,,
dig,240,773790,0.0-74.0-3.0,"""event"",""trial"",""time""
""fullscreenenter"",""1"",""17384""
","
","
","""event"",""trial"",""time""
""fullscreenenter"",""1"",""17384""
","
",,,,,,,,,,,,"[{""stimulus"":""run_exp/static/images/task_images/dig.jpg"",""time"":0.8000000715255737},{""stimulus"":""run_exp/static/images/task_images/land.jpg"",""time"":680.8999999761581},{""stimulus"":""run_exp/static/images/task_images/dig.jpg"",""time"":1343.7000000476837}]",[],12,,,,,,,,,,,,,,
harvest,241,774798,0.0-74.0-4.0,"""event"",""trial"",""time""
""fullscreenenter"",""1"",""17384""
","
","
","""event"",""trial"",""time""
""fullscreenenter"",""1"",""17384""
","
",,null,run_exp/static/images/task_images/gems/106.jpg,null,,,,,,,18,,,12,,,,,106,0.173863227,0.169811321,,,,,,,
decision,242,775076,0.0-74.0-5.0,"""event"",""trial"",""time""
""fullscreenenter"",""1"",""17384""
","
","
","""event"",""trial"",""time""
""fullscreenenter"",""1"",""17384""
","
",,275.8,run_exp/static/images/task_images/land.jpg,65,,,,,,,18,,,12,,,,,,,,31370,2,0,FALSE,,,
dig,243,777814,0.0-75.0-0.0,"""event"",""trial"",""time""
""fullscreenenter"",""1"",""17384""
","
","
","""event"",""trial"",""time""
""fullscreenenter"",""1"",""17384""
","
",,,,,,,,,,,,"[{""stimulus"":""run_exp/static/images/task_images/dig.jpg"",""time"":0.09999990463256836},{""stimulus"":""run_exp/static/images/task_images/land.jpg"",""time"":921.3999999761581},{""stimulus"":""run_exp/static/images/task_images/dig.jpg"",""time"":1823.8999999761581}]",[],12,,,,,,,,,,,,,,
harvest,244,778822,0.0-75.0-1.0,"""event"",""trial"",""time""
""fullscreenenter"",""1"",""17384""
","
","
","""event"",""trial"",""time""
