trial_type,trial_index,time_elapsed,internal_node_id,interactions,blur_events,focus_events,fullscreenenter_events,fullscreenexit_events,success,rt,stimulus,key_press,prompt,subject_id,participant_id,age,gender,button_pressed,next_reward,animation_sequence,responses,planet,curr_prac_trial,n_prac_rounds,alien,aliens,reward_received,decay_rate_actual,decay_rate_exp,time_in_block,block_num,prt,last_trial_on_planet,button_html,bonus,num_failures
pavlovia,0,10,0.0-0.0,"""event"",""trial"",""time""
""fullscreenenter"",""1"",""3721""
","
","
","""event"",""trial"",""time""
""fullscreenenter"",""1"",""3721""
","
",,,,,,,,,,,,,,,,,,,,,,,,,,,,
fullscreen,1,4725,0.0-1.0,"""event"",""trial"",""time""
""fullscreenenter"",""1"",""3721""
","
","
","""event"",""trial"",""time""
""fullscreenenter"",""1"",""3721""
","
",TRUE,,,,,,,,,,,,,,,,,,,,,,,,,,,
instruc_welcome,2,14499,0.0-2.0,"""event"",""trial"",""time""
""fullscreenenter"",""1"",""3721""
","
","
","""event"",""trial"",""time""
""fullscreenenter"",""1"",""3721""
","
",,null,run_exp/static/audio/clip_1_welcome.m4a,null,"<p>Howdy! In this experiment, you’ll be an explorer traveling through space to collect space treasure.</p><p>Your mission is to collect as much treasure as possible.</p><br><br><p><img src='run_exp/static/images/task_images/opening_img-01.jpg' height='300' width='auto'></p>",9743,2627,25.08,Female,,,,,,,,,,,,,,,,,,,
audio-keyboard-response,3,31101,0.0-3.0,"""event"",""trial"",""time""
""fullscreenenter"",""1"",""3721""
","
","
","""event"",""trial"",""time""
""fullscreenenter"",""1"",""3721""
","
",,null,run_exp/static/audio/clip_2_move.m4a,null,,,,,,,,,,,,,,,,,,,,,,,,
welcome_dec,4,32197,0.0-4.0,"""event"",""trial"",""time""
""fullscreenenter"",""1"",""3721""
","
","
","""event"",""trial"",""time""
""fullscreenenter"",""1"",""3721""
","
",,1093.1,"<p>Howdy! In this experiment, you’ll be an explorer traveling through space to collect space treasure.</p><p>Your mission is to collect as much treasure as possible.</p><br><br><p><img src='run_exp/static/images/task_images/opening_img-01.jpg' height='300' width='auto'></p>",,,,,,,1,,,,,,,,,,,,,,,,,,
html-keyboard-response,5,32665,0.0-5.0,"""event"",""trial"",""time""
""fullscreenenter"",""1"",""3721""
","
","
","""event"",""trial"",""time""
""fullscreenenter"",""1"",""3721""
","
",,466.8,"<p>Howdy! In this experiment, you’ll be an explorer traveling through space to collect space treasure.</p><p>Your mission is to collect as much treasure as possible.</p><br><br><p><img src='run_exp/static/images/task_images/opening_img-01.jpg' height='300' width='auto'></p><button class=""jspsych-html-btn-unchosen""><img src=""run_exp/static/images/task_images/planet-01.jpg"" height=""50""></button><button class=""jspsych-html-btn-chosen""><img src=""run_exp/static/images/task_images/planet-02.jpg"" height=""50""></button><p><b>[press the space bar to lock in your answer]<b><br></p>",32,,,,,,,,,,,,,,,,,,,,,,,,
instruc_goal,6,42735,0.0-6.0-0.0,"""event"",""trial"",""time""
""fullscreenenter"",""1"",""3721""
","
","
","""event"",""trial"",""time""
""fullscreenenter"",""1"",""3721""
","
",,null,run_exp/static/audio/clip_3_goal.m4a,null,"<p> As a space explorer, you’ll visit different planets to dig for space treasure, these pink gems.</p> <p> The more treasure you dig up, the more bonus money you’ll win! </p><br><br><p><img src='run_exp/static/images/task_images/pink_gem.jpg' height='300' width='auto'></p>",,,,,,,,,,,,,,,,,,,,,,,
instruc_goal,7,44355,0.0-6.0-1.0,"""event"",""trial"",""time""
""fullscreenenter"",""1"",""3721""
","
","
","""event"",""trial"",""time""
""fullscreenenter"",""1"",""3721""
","
",,1618.2,"<p> As a space explorer, you’ll visit different planets to dig for space treasure, these pink gems.</p> <p> The more treasure you dig up, the more bonus money you’ll win! </p><br><br><p><img src='run_exp/static/images/task_images/pink_gem.jpg' height='300' width='auto'></p>",,,,,,,1,,,,,,,,,,,,,,,,,,
html-keyboard-response,8,44956,0.0-6.0-2.0,"""event"",""trial"",""time""
""fullscreenenter"",""1"",""3721""
","
","
","""event"",""trial"",""time""
""fullscreenenter"",""1"",""3721""
","
",,600.3999999,"<p> As a space explorer, you’ll visit different planets to dig for space treasure, these pink gems.</p> <p> The more treasure you dig up, the more bonus money you’ll win! </p><br><br><p><img src='run_exp/static/images/task_images/pink_gem.jpg' height='300' width='auto'></p><button class=""jspsych-html-btn-unchosen""><img src=""run_exp/static/images/task_images/planet-01.jpg"" height=""50""></button><button class=""jspsych-html-btn-chosen""><img src=""run_exp/static/images/task_images/planet-02.jpg"" height=""50""></button><p><b>[press the space bar to lock in your answer]<b><br></p>",32,,,,,,,,,,,,,,,,,,,,,,,,
instruc_dig,9,60986,0.0-7.0-0.0,"""event"",""trial"",""time""
""fullscreenenter"",""1"",""3721""
","
","
","""event"",""trial"",""time""
""fullscreenenter"",""1"",""3721""
","
",,null,run_exp/static/audio/clip_4_dig.m4a,null,,,,,,,100,,,,,,,,,,,,,,,,,
instruc_dig_try,10,61411,0.0-7.0-1.0,"""event"",""trial"",""time""
""fullscreenenter"",""1"",""3721""
","
","
","""event"",""trial"",""time""
""fullscreenenter"",""1"",""3721""
","
",,423.5999999,"<p> When you’ve arrived at a new planet, you will dig once. </p> <p>Then, you get to decide if you want to stay on the planet and dig again or travel to a new planet and dig there.</p> <p> To stay and dig, press the letter <strong>‘A’</strong> on your keyboard. Try pressing it now! </p><p><img src='run_exp/static/images/task_images/land.jpg'  height='700' width='auto'></p>",65,"<p> When you’ve arrived at a new planet, you will dig once. </p> <p>Then, you get to decide if you want to stay on the planet and dig again or travel to a new planet and dig there.</p> <p> To stay and dig, press the letter <strong>‘A’</strong> on your keyboard. Try pressing it now! </p><p><img src='run_exp/static/images/task_images/land.jpg'  height='700' width='auto'></p>",,,,,,100,,,,,,,,,,,,,,,,,
dig_prac,11,63437,0.0-7.0-2.0,"""event"",""trial"",""time""
""fullscreenenter"",""1"",""3721""
","
","
","""event"",""trial"",""time""
""fullscreenenter"",""1"",""3721""
","
",,,,,,,,,,,,"[{""stimulus"":""run_exp/static/images/task_images/dig.jpg"",""time"":0.3000001907348633},{""stimulus"":""run_exp/static/images/task_images/land.jpg"",""time"":673.6000001430511},{""stimulus"":""run_exp/static/images/task_images/dig.jpg"",""time"":1338.7000000476837}]",[],,,,,,,,,,,,,,,
instruc_travel,12,99695,0.0-7.0-3.0,"""event"",""trial"",""time""
""fullscreenenter"",""1"",""3721""
","
","
","""event"",""trial"",""time""
""fullscreenenter"",""1"",""3721""
","
",,null,run_exp/static/audio/clip_5_travel.m4a,null,"<p>Every time you dig up gems, there are less gems on the planet, so the more you dig on a planet the fewer gems you’ll get with each dig.</p><p>When gems are running low, you may want to travel to a new planet. </p> <p>  Planets are very far apart in this galaxy, so it will take some time to travel between them. </p> <br><p>There are lots and lots of planets for you to visit, so you won’t be able to return to any planets you’ve seen before. </p><br><p>To leave this planet and travel to a new one, press the letter <strong>‘L’</strong> on your keyboard. Try pressing it now! </p><p><img src='run_exp/static/images/task_images/rocket-01.jpg'  height='600' width='auto'></p>",,,,,,,,,,,,,,,,,,,,,,,
instruc_travel_try,13,102172,0.0-7.0-4.0,"""event"",""trial"",""time""
""fullscreenenter"",""1"",""3721""
","
","
","""event"",""trial"",""time""
""fullscreenenter"",""1"",""3721""
","
",,2475.9,"<p>Every time you dig up gems, there are less gems on the planet, so the more you dig on a planet the fewer gems you’ll get with each dig.</p><p>When gems are running low, you may want to travel to a new planet. </p> <p>  Planets are very far apart in this galaxy, so it will take some time to travel between them. </p> <br><p>There are lots and lots of planets for you to visit, so you won’t be able to return to any planets you’ve seen before. </p><br><p>To leave this planet and travel to a new one, press the letter <strong>‘L’</strong> on your keyboard. Try pressing it now! </p><p><img src='run_exp/static/images/task_images/rocket-01.jpg'  height='600' width='auto'></p>",76,"<p>Every time you dig up gems, there are less gems on the planet, so the more you dig on a planet the fewer gems you’ll get with each dig.</p><p>When gems are running low, you may want to travel to a new planet. </p> <p>  Planets are very far apart in this galaxy, so it will take some time to travel between them. </p> <br><p>There are lots and lots of planets for you to visit, so you won’t be able to return to any planets you’ve seen before. </p><br><p>To leave this planet and travel to a new one, press the letter <strong>‘L’</strong> on your keyboard. Try pressing it now! </p><p><img src='run_exp/static/images/task_images/rocket-01.jpg'  height='600' width='auto'></p>",,,,,,,,,,,,,,,,,,,,,,,
travel_prac,14,112175,0.0-7.0-5.0,"""event"",""trial"",""time""
""fullscreenenter"",""1"",""3721""
","
","
","""event"",""trial"",""time""
""fullscreenenter"",""1"",""3721""
","
",,,,,,,,,,,,"[{""stimulus"":""run_exp/static/images/task_images/rocket-01.jpg"",""time"":0.19999980926513672},{""stimulus"":""run_exp/static/images/task_images/rocket-02.jpg"",""time"":1117.1999998092651},{""stimulus"":""run_exp/static/images/task_images/rocket-03.jpg"",""time"":2229.2999999523163},{""stimulus"":""run_exp/static/images/task_images/rocket-04.jpg"",""time"":3341.2999999523163},{""stimulus"":""run_exp/static/images/task_images/rocket-05.jpg"",""time"":4453.299999952316},{""stimulus"":""run_exp/static/images/task_images/rocket-06.jpg"",""time"":5561.899999856949},{""stimulus"":""run_exp/static/images/task_images/rocket-07.jpg"",""time"":6669.199999809265},{""stimulus"":""run_exp/static/images/task_images/rocket-08.jpg"",""time"":7785},{""stimulus"":""run_exp/static/images/task_images/rocket-09.jpg"",""time"":8899.5}]",[],0,,,,,,,,,,,,,,
instruc_alien_greet,15,139379,0.0-7.0-6.0,"""event"",""trial"",""time""
""fullscreenenter"",""1"",""3721""
","
","
","""event"",""trial"",""time""
""fullscreenenter"",""1"",""3721""
","
",,null,run_exp/static/audio/clip_6_alien.m4a,null,"<p>When you arrive at a new planet, the alien who owns the treasure mine on that planet will greet you!</p><p>The better an alien takes care of their mine the easier it is to dig for gems. Some aliens take better care of their mine than others. So, you won’t get exactly the same amount of gems on each planet.</p><p>What the alien looks like does not tell you anything about how many gems there are on the planet.</p><br><p><img src=""run_exp/static/images/task_images/aliens/instructions_aliens/planet/alien_planet-1.jpg""  height=""600"" width=""auto""></p>",,,,,,,,,,,,,,,,,,,,,,,
instruc_alien_greet,16,142392,0.0-7.0-7.0,"""event"",""trial"",""time""
""fullscreenenter"",""1"",""3721""
","
","
","""event"",""trial"",""time""
""fullscreenenter"",""1"",""3721""
","
",,3011.4,"<p>When you arrive at a new planet, the alien who owns the treasure mine on that planet will greet you!</p><p>The better an alien takes care of their mine the easier it is to dig for gems. Some aliens take better care of their mine than others. So, you won’t get exactly the same amount of gems on each planet.</p><p>What the alien looks like does not tell you anything about how many gems there are on the planet.</p><br><p><img src=""run_exp/static/images/task_images/aliens/instructions_aliens/planet/alien_planet-1.jpg""  height=""600"" width=""auto""></p>",,,,,,,1,,,,,,,,,,,,,,,,,,
html-keyboard-response,17,142873,0.0-7.0-8.0,"""event"",""trial"",""time""
""fullscreenenter"",""1"",""3721""
","
","
","""event"",""trial"",""time""
""fullscreenenter"",""1"",""3721""
","
",,479.6000001,"<p>When you arrive at a new planet, the alien who owns the treasure mine on that planet will greet you!</p><p>The better an alien takes care of their mine the easier it is to dig for gems. Some aliens take better care of their mine than others. So, you won’t get exactly the same amount of gems on each planet.</p><p>What the alien looks like does not tell you anything about how many gems there are on the planet.</p><br><p><img src=""run_exp/static/images/task_images/aliens/instructions_aliens/planet/alien_planet-1.jpg""  height=""600"" width=""auto""></p><button class=""jspsych-html-btn-unchosen""><img src=""run_exp/static/images/task_images/planet-01.jpg"" height=""50""></button><button class=""jspsych-html-btn-chosen""><img src=""run_exp/static/images/task_images/planet-02.jpg"" height=""50""></button><p><b>[press the space bar to lock in your answer]<b><br></p>",32,,,,,,,,,,,,,,,,,,,,,,,,
time_out,18,154031,0.0-8.0-0.0,"""event"",""trial"",""time""
""fullscreenenter"",""1"",""3721""
","
","
","""event"",""trial"",""time""
""fullscreenenter"",""1"",""3721""
","
",,null,run_exp/static/audio/clip_7_timeout.m4a,null,"<p>If you don't make your choice fast enough, you’ll have to wait a few seconds before you can make another one.</p><p>You can’t dig for more gems or travel to new planets. You just have to sit and wait.</p><br><p><img src='run_exp/static/images/task_images/time_out.jpg'  height='600' width='auto'></p>",,,,,,,,,,,,,,,,,,,,,,,
time_out,19,155987,0.0-8.0-1.0,"""event"",""trial"",""time""
""fullscreenenter"",""1"",""3721""
","
","
","""event"",""trial"",""time""
""fullscreenenter"",""1"",""3721""
","
",,1953.8,"<p>If you don't make your choice fast enough, you’ll have to wait a few seconds before you can make another one.</p><p>You can’t dig for more gems or travel to new planets. You just have to sit and wait.</p><br><p><img src='run_exp/static/images/task_images/time_out.jpg'  height='600' width='auto'></p>",,,,,,,1,,,,,,,,,,,,,,,,,,
html-keyboard-response,20,157110,0.0-8.0-2.0,"""event"",""trial"",""time""
""fullscreenenter"",""1"",""3721""
","
","
","""event"",""trial"",""time""
""fullscreenenter"",""1"",""3721""
","
",,1122.1,"<p>If you don't make your choice fast enough, you’ll have to wait a few seconds before you can make another one.</p><p>You can’t dig for more gems or travel to new planets. You just have to sit and wait.</p><br><p><img src='run_exp/static/images/task_images/time_out.jpg'  height='600' width='auto'></p><button class=""jspsych-html-btn-unchosen""><img src=""run_exp/static/images/task_images/planet-01.jpg"" height=""50""></button><button class=""jspsych-html-btn-chosen""><img src=""run_exp/static/images/task_images/planet-02.jpg"" height=""50""></button><p><b>[press the space bar to lock in your answer]<b><br></p>",32,,,,,,,,,,,,,,,,,,,,,,,,
instruc_break,21,172794,0.0-9.0-0.0,"""event"",""trial"",""time""
""fullscreenenter"",""1"",""3721""
","
","
","""event"",""trial"",""time""
""fullscreenenter"",""1"",""3721""
","
",,null,run_exp/static/audio/clip_8_break.m4a,null,"<p> After digging and traveling for a while, you’ll be able to take a break at home base. </p><p>The game will last 20 minutes no matter what.</p><p>You will visit home base every 5 minutes, so, you will visit home base three times during the game.</p><br><p><img src='run_exp/static/images/task_images/home_base.jpg' height='600' width='auto'></p>",,,,,,,,,,,,,,,,,,,,,,,
instruc_break,22,175730,0.0-9.0-1.0,"""event"",""trial"",""time""
""fullscreenenter"",""1"",""3721""
","
","
","""event"",""trial"",""time""
""fullscreenenter"",""1"",""3721""
","
",,2934.3,"<p> After digging and traveling for a while, you’ll be able to take a break at home base. </p><p>The game will last 20 minutes no matter what.</p><p>You will visit home base every 5 minutes, so, you will visit home base three times during the game.</p><br><p><img src='run_exp/static/images/task_images/home_base.jpg' height='600' width='auto'></p>",,,,,,,1,,,,,,,,,,,,,,,,,,
html-keyboard-response,23,176230,0.0-9.0-2.0,"""event"",""trial"",""time""
""fullscreenenter"",""1"",""3721""
","
","
","""event"",""trial"",""time""
""fullscreenenter"",""1"",""3721""
","
",,499.3,"<p> After digging and traveling for a while, you’ll be able to take a break at home base. </p><p>The game will last 20 minutes no matter what.</p><p>You will visit home base every 5 minutes, so, you will visit home base three times during the game.</p><br><p><img src='run_exp/static/images/task_images/home_base.jpg' height='600' width='auto'></p><button class=""jspsych-html-btn-unchosen""><img src=""run_exp/static/images/task_images/planet-01.jpg"" height=""50""></button><button class=""jspsych-html-btn-chosen""><img src=""run_exp/static/images/task_images/planet-02.jpg"" height=""50""></button><p><b>[press the space bar to lock in your answer]<b><br></p>",32,,,,,,,,,,,,,,,,,,,,,,,,
instruc_prac_game,24,186378,0.0-10.0-0.0,"""event"",""trial"",""time""
""fullscreenenter"",""1"",""3721""
","
","
","""event"",""trial"",""time""
""fullscreenenter"",""1"",""3721""
","
",,null,run_exp/static/audio/clip_9_practice.m4a,null,"<p> Are you ready to play a practice game? </p> <p>In this practice game, you'll be digging up barrels of gems. But, in the real game, you'll be digging up the gems themselves. </p>",,,,,,,,,,,,,,,,,,,,,,,
html-button-response,25,187946,0.0-10.0-1.0,"""event"",""trial"",""time""
""fullscreenenter"",""1"",""3721""
","
","
","""event"",""trial"",""time""
""fullscreenenter"",""1"",""3721""
","
",,1566.7,"<p> Are you ready to play a practice game? </p> <p>In this practice game, you'll be digging up barrels of gems. But, in the real game, you'll be digging up the gems themselves. </p>",,,,,,,0,,,,,,,,,,,,,,,,,,
alien_welcome_prac,26,192954,0.0-11.0-0.0,"""event"",""trial"",""time""
""fullscreenenter"",""1"",""3721""
","
","
","""event"",""trial"",""time""
""fullscreenenter"",""1"",""3721""
","
",,null,run_exp/static/images/task_images/aliens/practice_aliens/planet/alien_planet-5.jpg,null,,,,,,,,,,,,,,,,,,,,,,,,
land_prac,27,193460,0.0-11.0-1.0,"""event"",""trial"",""time""
""fullscreenenter"",""1"",""3721""
","
","
","""event"",""trial"",""time""
""fullscreenenter"",""1"",""3721""
","
",,null,run_exp/static/images/task_images/land.jpg,null,,,,,,,97,,,0,,,,,,,,,,,,,,
dig_prac,28,195467,0.0-11.0-2.0,"""event"",""trial"",""time""
""fullscreenenter"",""1"",""3721""
","
","
","""event"",""trial"",""time""
""fullscreenenter"",""1"",""3721""
","
",,,,,,,,,,,,"[{""stimulus"":""run_exp/static/images/task_images/dig.jpg"",""time"":0.2999999523162842},{""stimulus"":""run_exp/static/images/task_images/land.jpg"",""time"":676.0999999046326},{""stimulus"":""run_exp/static/images/task_images/dig.jpg"",""time"":1340.7999999523163}]",[],,,,,,,,,,,,,,,
harvest_prac,29,196472,0.0-11.0-3.0,"""event"",""trial"",""time""
""fullscreenenter"",""1"",""3721""
","
","
","""event"",""trial"",""time""
""fullscreenenter"",""1"",""3721""
","
",,null,run_exp/static/images/task_images/barrel_text.jpg,null,,,,,,,,,,,,,,,,,,,,,,,,
decision_prac,30,197880,0.0-11.0-4.0,"""event"",""trial"",""time""
""fullscreenenter"",""1"",""3721""
","
","
","""event"",""trial"",""time""
""fullscreenenter"",""1"",""3721""
","
",,1406.7,run_exp/static/images/task_images/land.jpg,65,,,,,,,,,,,1,,,,,,,,,,,,,
dig_prac,31,199889,0.0-12.0-0.0,"""event"",""trial"",""time""
""fullscreenenter"",""1"",""3721""
","
","
","""event"",""trial"",""time""
""fullscreenenter"",""1"",""3721""
","
",,,,,,,,,,,,"[{""stimulus"":""run_exp/static/images/task_images/dig.jpg"",""time"":0.09999990463256836},{""stimulus"":""run_exp/static/images/task_images/land.jpg"",""time"":674.7000000476837},{""stimulus"":""run_exp/static/images/task_images/dig.jpg"",""time"":1335.7999999523163}]",[],,,,,,,,,,,,,,,
harvest_prac,32,200901,0.0-12.0-1.0,"""event"",""trial"",""time""
""fullscreenenter"",""1"",""3721""
","
","
","""event"",""trial"",""time""
""fullscreenenter"",""1"",""3721""
","
",,null,run_exp/static/images/task_images/barrel_text.jpg,null,,,,,,,,,,,,,,,,,,,,,,,,
decision_prac,33,201641,0.0-12.0-2.0,"""event"",""trial"",""time""
""fullscreenenter"",""1"",""3721""
","
","
","""event"",""trial"",""time""
""fullscreenenter"",""1"",""3721""
","
",,739.2,run_exp/static/images/task_images/land.jpg,65,,,,,,,,,,,2,,,,,,,,,,,,,
dig_prac,34,203653,0.0-13.0-0.0,"""event"",""trial"",""time""
""fullscreenenter"",""1"",""3721""
","
","
","""event"",""trial"",""time""
""fullscreenenter"",""1"",""3721""
","
",,,,,,,,,,,,"[{""stimulus"":""run_exp/static/images/task_images/dig.jpg"",""time"":0.20000004768371582},{""stimulus"":""run_exp/static/images/task_images/land.jpg"",""time"":673.2000000476837},{""stimulus"":""run_exp/static/images/task_images/dig.jpg"",""time"":1341.6000001430511}]",[],,,,,,,,,,,,,,,
harvest_prac,35,204659,0.0-13.0-1.0,"""event"",""trial"",""time""
""fullscreenenter"",""1"",""3721""
","
","
","""event"",""trial"",""time""
""fullscreenenter"",""1"",""3721""
","
",,null,run_exp/static/images/task_images/barrel_text.jpg,null,,,,,,,,,,,,,,,,,,,,,,,,
decision_prac,36,204689,0.0-13.0-2.0,"""event"",""trial"",""time""
""fullscreenenter"",""1"",""3721""
","
","
","""event"",""trial"",""time""
""fullscreenenter"",""1"",""3721""
","
",,29.0999999,run_exp/static/images/task_images/land.jpg,65,,,,,,,,,,,3,,,,,,,,,,,,,
dig_prac,37,206697,0.0-14.0-0.0,"""event"",""trial"",""time""
""fullscreenenter"",""1"",""3721""
","
","
","""event"",""trial"",""time""
""fullscreenenter"",""1"",""3721""
","
",,,,,,,,,,,,"[{""stimulus"":""run_exp/static/images/task_images/dig.jpg"",""time"":0.20000004768371582},{""stimulus"":""run_exp/static/images/task_images/land.jpg"",""time"":673.7999999523163},{""stimulus"":""run_exp/static/images/task_images/dig.jpg"",""time"":1341.7999999523163}]",[],,,,,,,,,,,,,,,
harvest_prac,38,207708,0.0-14.0-1.0,"""event"",""trial"",""time""
""fullscreenenter"",""1"",""3721""
","
","
","""event"",""trial"",""time""
""fullscreenenter"",""1"",""3721""
","
",,null,run_exp/static/images/task_images/barrel_text.jpg,null,,,,,,,,,,,,,,,,,,,,,,,,
decision_prac,39,210545,0.0-14.0-2.0,"""event"",""trial"",""time""
""fullscreenenter"",""1"",""3721""
","
","
","""event"",""trial"",""time""
""fullscreenenter"",""1"",""3721""
","
",,2835.8,run_exp/static/images/task_images/land.jpg,65,,,,,,,,,,,4,,,,,,,,,,,,,
dig_prac,40,212557,0.0-15.0-0.0,"""event"",""trial"",""time""
""fullscreenenter"",""1"",""3721""
","
","
","""event"",""trial"",""time""
""fullscreenenter"",""1"",""3721""
","
",,,,,,,,,,,,"[{""stimulus"":""run_exp/static/images/task_images/dig.jpg"",""time"":0.09999990463256836},{""stimulus"":""run_exp/static/images/task_images/land.jpg"",""time"":673.3999998569489},{""stimulus"":""run_exp/static/images/task_images/dig.jpg"",""time"":1341.6999998092651}]",[],,,,,,,,,,,,,,,
harvest_prac,41,213566,0.0-15.0-1.0,"""event"",""trial"",""time""
""fullscreenenter"",""1"",""3721""
","
","
","""event"",""trial"",""time""
""fullscreenenter"",""1"",""3721""
","
",,null,run_exp/static/images/task_images/barrel_text.jpg,null,,,,,,,,,,,,,,,,,,,,,,,,
decision_prac,42,214309,0.0-15.0-2.0,"""event"",""trial"",""time""
""fullscreenenter"",""1"",""3721""
","
","
","""event"",""trial"",""time""
""fullscreenenter"",""1"",""3721""
","
",,742.5,run_exp/static/images/task_images/land.jpg,65,,,,,,,,,,,,1,,,,,,,,,,,,
quiz_instruc,43,218210,0.0-16.0-0.0,"""event"",""trial"",""time""
""fullscreenenter"",""1"",""3721""
","
","
","""event"",""trial"",""time""
""fullscreenenter"",""1"",""3721""
","
",,3898.6,run_exp/static/audio/clip_10_quiz.m4a,,,,,,,0,,,,,,,,,,,,,,,,,,
instruc_repeat,44,260986,0.0-16.0-1.0,"""event"",""trial"",""time""
""fullscreenenter"",""1"",""3721""
","
","
","""event"",""trial"",""time""
""fullscreenenter"",""1"",""3721""
","
",,null,"<p> Are you ready to play a practice game? </p> <p>In this practice game, you'll be digging up barrels of gems. But, in the real game, you'll be digging up the gems themselves. </p>",null,"<p>In this game, your goal is to collect as many gems as you can. That’s how you will win bonus money. </p> <p>The entire game will last 20 minutes no matter how many gems you collect or how many planets you visit. </p><p>To stay on a planet and dig again, press the letter A on your keyboard. To leave for a new planet, press the letter L.</p><p>The more you dig on a planet, the fewer gems you’ll get with each dig which is why you might consider leaving for a new planet. </p><p>When you arrive at a new planet, you’ll be greeted by an alien. What the alien looks like does not tell you anything about how much treasure is on the planet. </p>",,,,,,,,,,,,,,,,,,,,,,,
instruc_repeat_continue,45,263312,0.0-16.0-2.0,"""event"",""trial"",""time""
""fullscreenenter"",""1"",""3721""
","
","
","""event"",""trial"",""time""
""fullscreenenter"",""1"",""3721""
","
",,2324.7,"<p> Are you ready to play a practice game? </p> <p>In this practice game, you'll be digging up barrels of gems. But, in the real game, you'll be digging up the gems themselves. </p>",,,,,,,0,,,,,,,,,,,,,,,,,,
quiz_q_1_ask,46,265413,0.0-16.0-3.0,"""event"",""trial"",""time""
""fullscreenenter"",""1"",""3721""
","
","
","""event"",""trial"",""time""
""fullscreenenter"",""1"",""3721""
","
",,2099.6,run_exp/static/audio/clip_11_q1_ask.m4a,,,,,,,2,,,,,,,,,,,,,,,,,,
quiz_q_1_fb_correct,47,269275,0.0-17.0-0.0,"""event"",""trial"",""time""
""fullscreenenter"",""1"",""3721""
","
","
","""event"",""trial"",""time""
""fullscreenenter"",""1"",""3721""
","
",,null,run_exp/static/audio/clip_12_q1_correct.m4a,null,<p>That’s correct. You win extra money by collecting more gems.</p>,,,,,,,,,,,,,,,,,,,,,,,
quiz_q_2_ask,48,271781,0.0-17.0-1.0,"""event"",""trial"",""time""
""fullscreenenter"",""1"",""3721""
","
","
","""event"",""trial"",""time""
""fullscreenenter"",""1"",""3721""
","
",,2503.8,run_exp/static/audio/clip_14_q2_ask.m4a,,,,,,,1,,,,,,,,,,,,,,,,,,
quiz_q_2_fb_correct,49,275754,0.0-18.0-0.0,"""event"",""trial"",""time""
""fullscreenenter"",""1"",""3721""
","
","
","""event"",""trial"",""time""
""fullscreenenter"",""1"",""3721""
","
",,null,run_exp/static/audio/clip_15_q2_correct.m4a,null,<p>That’s correct. The experiment is 20 minutes no matter what.</p>,,,,,,,,,,,,,,,,,,,,,,,
quiz_q_3_ask,50,277662,0.0-18.0-1.0,"""event"",""trial"",""time""
""fullscreenenter"",""1"",""3721""
","
","
","""event"",""trial"",""time""
""fullscreenenter"",""1"",""3721""
","
",,1906.5,run_exp/static/audio/clip_17_q3_ask.m4a,,,,,,,1,,,,,,,,,,,,,,,,,,
quiz_q_3_fb_correct,51,281652,0.0-19.0-0.0,"""event"",""trial"",""time""
""fullscreenenter"",""1"",""3721""
","
","
","""event"",""trial"",""time""
""fullscreenenter"",""1"",""3721""
","
",,null,run_exp/static/audio/clip_18_q3_correct.m4a,null,<p> That’s correct. You press the letter L to travel to a new planet.</p>,,,,,,,,,,,,,,,,,,,,,,,
quiz_q_4_ask,52,284142,0.0-19.0-1.0,"""event"",""trial"",""time""
""fullscreenenter"",""1"",""3721""
","
","
","""event"",""trial"",""time""
""fullscreenenter"",""1"",""3721""
","
",,2488.5,run_exp/static/audio/clip_20_q4_ask.m4a,,,,,,,0,,,,,,,,,,,,,,,,,,
quiz_q_4_fb_correct,53,289454,0.0-20.0-0.0,"""event"",""trial"",""time""
""fullscreenenter"",""1"",""3721""
","
","
","""event"",""trial"",""time""
""fullscreenenter"",""1"",""3721""
","
",,null,run_exp/static/audio/clip_21_q4_correct.m4a,null,<p> That’s correct. The more you dig on a planet the fewer gems you’ll get with each dig. </p>,,,,,,,,,,,,,,,,,,,,,,,
quiz_q_5_ask,54,291010,0.0-20.0-1.0,"""event"",""trial"",""time""
""fullscreenenter"",""1"",""3721""
","
","
","""event"",""trial"",""time""
""fullscreenenter"",""1"",""3721""
","
",,1554.6,run_exp/static/audio/clip_23_q5_ask.m4a,,,,,,,1,,,,,,,,,,,,,,,,,,
quiz_q_5_fb_correct,55,296002,0.0-21.0-0.0,"""event"",""trial"",""time""
""fullscreenenter"",""1"",""3721""
","
","
","""event"",""trial"",""time""
""fullscreenenter"",""1"",""3721""
","
",,null,run_exp/static/audio/clip_24_q5_correct.m4a,null,<p> That’s correct. The alien tells you nothing about how much treasure is on the planet.</p>,,,,,,,,,,,,,,,,,,,,,,,
quiz_correct,56,299462,0.0-22.0-0.0,"""event"",""trial"",""time""
""fullscreenenter"",""1"",""3721""
","
","
","""event"",""trial"",""time""
""fullscreenenter"",""1"",""3721""
","
",,null,run_exp/static/audio/clip_26_correct_quiz.m4a,null,,,,,,,,,,,,,,,,,,,,,,,,
quiz_correct_continue,57,300462,0.0-22.0-1.0,"""event"",""trial"",""time""
""fullscreenenter"",""1"",""3721""
","
","
","""event"",""trial"",""time""
""fullscreenenter"",""1"",""3721""
","
",,998.9000001,<p>Good job! You're now ready to move on to the real game!</p>,,,,,,,0,,,,,,,,,,,,,,,,,,
audio-keyboard-response,58,310608,0.0-22.0-2.0,"""event"",""trial"",""time""
""fullscreenenter"",""1"",""3721""
","
","
","""event"",""trial"",""time""
""fullscreenenter"",""1"",""3721""
","
",,null,run_exp/static/audio/clip_28_real_game.m4a,null,,,,,,,,,,,,,,,,,,,,,,,,
instruc_begin_exp_contine,59,311958,0.0-22.0-3.0,"""event"",""trial"",""time""
""fullscreenenter"",""1"",""3721""
","
","
","""event"",""trial"",""time""
""fullscreenenter"",""1"",""3721""
","
",,1348.2,"<p>Now that you know how  to dig for space treasure and travel to new planets,you can start exploring! </p><p>Do you want to go over the instructions again or get started with the real game?</p>",,,,,,,1,,,,,,1,,,,,,,,,,,,
alien_welcome,60,316969,0.0-23.0-0.0,"""event"",""trial"",""time""
""fullscreenenter"",""1"",""3721""
","
","
","""event"",""trial"",""time""
""fullscreenenter"",""1"",""3721""
","
",,null,run_exp/static/images/task_images/aliens/old_aliens/planet/alien_planet-33.jpg,null,,,,,,,,,,,,,33,"33,22,57,67,46,74,1,45,61,15,38,41,78,16,50,58,5,64,51,72,20,24,6,9,4,12,47,56,80,8,48,76,37,2,62,13,79,54,11,28,10,31,53,70,42,39,52,23,59,35,34",,,,,,,,,,
land,61,317478,0.0-23.0-1.0,"""event"",""trial"",""time""
""fullscreenenter"",""1"",""3721""
","
","
","""event"",""trial"",""time""
""fullscreenenter"",""1"",""3721""
","
",,null,run_exp/static/images/task_images/land.jpg,null,,,,,,,97,,,1,,,,,,,,,,,,,,
dig,62,319489,0.0-23.0-2.0,"""event"",""trial"",""time""
""fullscreenenter"",""1"",""3721""
","
","
","""event"",""trial"",""time""
""fullscreenenter"",""1"",""3721""
","
",,,,,,,,,,,,"[{""stimulus"":""run_exp/static/images/task_images/dig.jpg"",""time"":0.20000004768371582},{""stimulus"":""run_exp/static/images/task_images/land.jpg"",""time"":669},{""stimulus"":""run_exp/static/images/task_images/dig.jpg"",""time"":1340.2000000476837}]",[],1,,,,,,,,,,,,,,
harvest,63,320497,0.0-23.0-3.0,"""event"",""trial"",""time""
""fullscreenenter"",""1"",""3721""
","
","
","""event"",""trial"",""time""
""fullscreenenter"",""1"",""3721""
","
",,null,run_exp/static/images/task_images/gems/97.jpg,null,,,,,,,14,,,1,,,,,97,0.139837594,0.144329897,,,,,,,
decision,64,321453,0.0-23.0-4.0,"""event"",""trial"",""time""
""fullscreenenter"",""1"",""3721""
","
","
","""event"",""trial"",""time""
""fullscreenenter"",""1"",""3721""
","
",,955.1000001,run_exp/static/images/task_images/land.jpg,65,,,,,,,14,,,1,,,,,,,,9495,1,0,FALSE,,,
dig,65,323505,0.0-24.0-0.0,"""event"",""trial"",""time""
""fullscreenenter"",""1"",""3721""
","
","
","""event"",""trial"",""time""
""fullscreenenter"",""1"",""3721""
","
",,,,,,,,,,,,"[{""stimulus"":""run_exp/static/images/task_images/dig.jpg"",""time"":0.20000004768371582},{""stimulus"":""run_exp/static/images/task_images/land.jpg"",""time"":689},{""stimulus"":""run_exp/static/images/task_images/dig.jpg"",""time"":1365.1000001430511}]",[],1,,,,,,,,,,,,,,
harvest,66,324509,0.0-24.0-1.0,"""event"",""trial"",""time""
""fullscreenenter"",""1"",""3721""
","
","
","""event"",""trial"",""time""
""fullscreenenter"",""1"",""3721""
","
",,null,run_exp/static/images/task_images/gems/14.jpg,null,,,,,,,2,,,1,,,,,14,0.127067388,0.142857143,,,,,,,
decision,67,324979,0.0-24.0-2.0,"""event"",""trial"",""time""
""fullscreenenter"",""1"",""3721""
","
","
","""event"",""trial"",""time""
""fullscreenenter"",""1"",""3721""
","
",,468.8,run_exp/static/images/task_images/land.jpg,65,,,,,,,2,,,1,,,,,,,,13020,1,1,FALSE,,,
dig,68,327517,0.0-25.0-0.0,"""event"",""trial"",""time""
""fullscreenenter"",""1"",""3721""
","
","
","""event"",""trial"",""time""
""fullscreenenter"",""1"",""3721""
","
",,,,,,,,,,,,"[{""stimulus"":""run_exp/static/images/task_images/dig.jpg"",""time"":0.20000004768371582},{""stimulus"":""run_exp/static/images/task_images/land.jpg"",""time"":851.7000000476837},{""stimulus"":""run_exp/static/images/task_images/dig.jpg"",""time"":1695}]",[],1,,,,,,,,,,,,,,
harvest,69,328526,0.0-25.0-1.0,"""event"",""trial"",""time""
""fullscreenenter"",""1"",""3721""
","
","
","""event"",""trial"",""time""
""fullscreenenter"",""1"",""3721""
","
",,null,run_exp/static/images/task_images/gems/2.jpg,null,,,,,,,0,,,1,,,,,2,0.185375528,0,,,,,,,
decision,70,330931,0.0-25.0-2.0,"""event"",""trial"",""time""
""fullscreenenter"",""1"",""3721""
","
","
","""event"",""trial"",""time""
""fullscreenenter"",""1"",""3721""
","
",,2404,run_exp/static/images/task_images/land.jpg,65,,,,,,,0,,,1,,,,,,,,18972,1,2,FALSE,,,
dig,71,331536,0.0-26.0-0.0,"""event"",""trial"",""time""
""fullscreenenter"",""1"",""3721""
","
","
","""event"",""trial"",""time""
""fullscreenenter"",""1"",""3721""
","
",,,,,,,,,,,,"[{""stimulus"":""run_exp/static/images/task_images/dig.jpg"",""time"":0.10000014305114746},{""stimulus"":""run_exp/static/images/task_images/land.jpg"",""time"":200.10000014305115},{""stimulus"":""run_exp/static/images/task_images/dig.jpg"",""time"":402.90000009536743}]",[],1,,,,,,,,,,,,,,
harvest,72,332543,0.0-26.0-1.0,"""event"",""trial"",""time""
""fullscreenenter"",""1"",""3721""
","
","
","""event"",""trial"",""time""
""fullscreenenter"",""1"",""3721""
","
",,null,run_exp/static/images/task_images/gems/0.jpg,null,,,,,,,0,,,1,,,,,0,0.185657493,NaN,,,,,,,
decision,73,333291,0.0-26.0-2.0,"""event"",""trial"",""time""
""fullscreenenter"",""1"",""3721""
","
","
","""event"",""trial"",""time""
""fullscreenenter"",""1"",""3721""
","
",,746.8,run_exp/static/images/task_images/land.jpg,65,,,,,,,0,,,1,,,,,,,,21332,1,3,FALSE,,,
dig,74,335553,0.0-27.0-0.0,"""event"",""trial"",""time""
""fullscreenenter"",""1"",""3721""
","
","
","""event"",""trial"",""time""
""fullscreenenter"",""1"",""3721""
","
",,,,,,,,,,,,"[{""stimulus"":""run_exp/static/images/task_images/dig.jpg"",""time"":0.09999990463256836},{""stimulus"":""run_exp/static/images/task_images/land.jpg"",""time"":760.0999999046326},{""stimulus"":""run_exp/static/images/task_images/dig.jpg"",""time"":1506.2999999523163}]",[],1,,,,,,,,,,,,,,
harvest,75,336559,0.0-27.0-1.0,"""event"",""trial"",""time""
""fullscreenenter"",""1"",""3721""
","
","
","""event"",""trial"",""time""
""fullscreenenter"",""1"",""3721""
","
",,null,run_exp/static/images/task_images/gems/0.jpg,null,,,,,,,0,,,1,,,,,0,0.185219641,NaN,,,,,,,
decision,76,336896,0.0-27.0-2.0,"""event"",""trial"",""time""
""fullscreenenter"",""1"",""3721""
","
","
","""event"",""trial"",""time""
""fullscreenenter"",""1"",""3721""
","
",,335.8,run_exp/static/images/task_images/land.jpg,65,,,,,,,0,,,1,,,,,,,,24937,1,4,FALSE,,,
dig,77,339569,0.0-28.0-0.0,"""event"",""trial"",""time""
""fullscreenenter"",""1"",""3721""
","
","
","""event"",""trial"",""time""
""fullscreenenter"",""1"",""3721""
","
",,,,,,,,,,,,"[{""stimulus"":""run_exp/static/images/task_images/dig.jpg"",""time"":0.10000014305114746},{""stimulus"":""run_exp/static/images/task_images/land.jpg"",""time"":892.5},{""stimulus"":""run_exp/static/images/task_images/dig.jpg"",""time"":1782.7000000476837}]",[],1,,,,,,,,,,,,,,
harvest,78,340577,0.0-28.0-1.0,"""event"",""trial"",""time""
""fullscreenenter"",""1"",""3721""
","
","
","""event"",""trial"",""time""
""fullscreenenter"",""1"",""3721""
","
",,null,run_exp/static/images/task_images/gems/0.jpg,null,,,,,,,0,,,1,,,,,0,0.163153306,NaN,,,,,,,
decision,79,342281,0.0-28.0-2.0,"""event"",""trial"",""time""
""fullscreenenter"",""1"",""3721""
","
","
","""event"",""trial"",""time""
""fullscreenenter"",""1"",""3721""
","
",,1702.5,run_exp/static/images/task_images/land.jpg,76,,,,,,,0,,,1,,,,,,,,30322,1,5,TRUE,,,
travel,80,350582,0.0-29.0-0.0,"""event"",""trial"",""time""
""fullscreenenter"",""1"",""3721""
","
","
","""event"",""trial"",""time""
""fullscreenenter"",""1"",""3721""
","
",,,,,,,,,,,,"[{""stimulus"":""run_exp/static/images/task_images/rocket-01.jpg"",""time"":0.20000004768371582},{""stimulus"":""run_exp/static/images/task_images/rocket-02.jpg"",""time"":930.2999999523163},{""stimulus"":""run_exp/static/images/task_images/rocket-03.jpg"",""time"":1854.9000000953674},{""stimulus"":""run_exp/static/images/task_images/rocket-04.jpg"",""time"":2774.7999999523163},{""stimulus"":""run_exp/static/images/task_images/rocket-05.jpg"",""time"":3690},{""stimulus"":""run_exp/static/images/task_images/rocket-06.jpg"",""time"":4614.900000095367},{""stimulus"":""run_exp/static/images/task_images/rocket-07.jpg"",""time"":5530.799999952316},{""stimulus"":""run_exp/static/images/task_images/rocket-08.jpg"",""time"":6453.200000047684},{""stimulus"":""run_exp/static/images/task_images/rocket-09.jpg"",""time"":7374.400000095367}]",[],1,,,,,,,,,,,,,,
alien_welcome,81,355590,0.0-29.0-1.0,"""event"",""trial"",""time""
""fullscreenenter"",""1"",""3721""
","
","
","""event"",""trial"",""time""
""fullscreenenter"",""1"",""3721""
","
",,null,run_exp/static/images/task_images/aliens/old_aliens/planet/alien_planet-22.jpg,null,,,,,,,,,,,,,22,"33,22,57,67,46,74,1,45,61,15,38,41,78,16,50,58,5,64,51,72,20,24,6,9,4,12,47,56,80,8,48,76,37,2,62,13,79,54,11,28,10,31,53,70,42,39,52,23,59,35,34",,,,,,,,,,
land,82,356094,0.0-29.0-2.0,"""event"",""trial"",""time""
""fullscreenenter"",""1"",""3721""
","
","
","""event"",""trial"",""time""
""fullscreenenter"",""1"",""3721""
","
",,null,run_exp/static/images/task_images/land.jpg,null,,,,,,,104,,,2,,,,,,,,,,,,,,
dig,83,358104,0.0-29.0-3.0,"""event"",""trial"",""time""
""fullscreenenter"",""1"",""3721""
","
","
","""event"",""trial"",""time""
""fullscreenenter"",""1"",""3721""
","
",,,,,,,,,,,,"[{""stimulus"":""run_exp/static/images/task_images/dig.jpg"",""time"":0.20000004768371582},{""stimulus"":""run_exp/static/images/task_images/land.jpg"",""time"":671.4000000953674},{""stimulus"":""run_exp/static/images/task_images/dig.jpg"",""time"":1339.1000001430511}]",[],2,,,,,,,,,,,,,,
harvest,84,359111,0.0-29.0-4.0,"""event"",""trial"",""time""
""fullscreenenter"",""1"",""3721""
","
","
","""event"",""trial"",""time""
""fullscreenenter"",""1"",""3721""
","
",,null,run_exp/static/images/task_images/gems/104.jpg,null,,,,,,,12,,,2,,,,,104,0.114732528,0.115384615,,,,,,,
decision,85,359536,0.0-29.0-5.0,"""event"",""trial"",""time""
""fullscreenenter"",""1"",""3721""
","
","
","""event"",""trial"",""time""
""fullscreenenter"",""1"",""3721""
","
",,424.0999999,run_exp/static/images/task_images/land.jpg,65,,,,,,,12,,,2,,,,,,,,47577,1,0,FALSE,,,
dig,86,362119,0.0-30.0-0.0,"""event"",""trial"",""time""
""fullscreenenter"",""1"",""3721""
","
","
","""event"",""trial"",""time""
""fullscreenenter"",""1"",""3721""
","
",,,,,,,,,,,,"[{""stimulus"":""run_exp/static/images/task_images/dig.jpg"",""time"":0.10000014305114746},{""stimulus"":""run_exp/static/images/task_images/land.jpg"",""time"":866.6000001430511},{""stimulus"":""run_exp/static/images/task_images/dig.jpg"",""time"":1724.7000000476837}]",[],2,,,,,,,,,,,,,,
harvest,87,363130,0.0-30.0-1.0,"""event"",""trial"",""time""
""fullscreenenter"",""1"",""3721""
","
","
","""event"",""trial"",""time""
""fullscreenenter"",""1"",""3721""
","
",,null,run_exp/static/images/task_images/gems/12.jpg,null,,,,,,,2,,,2,,,,,12,0.148682177,0.166666667,,,,,,,
decision,88,364664,0.0-30.0-2.0,"""event"",""trial"",""time""
""fullscreenenter"",""1"",""3721""
","
","
","""event"",""trial"",""time""
""fullscreenenter"",""1"",""3721""
","
",,1533,run_exp/static/images/task_images/land.jpg,65,,,,,,,2,,,2,,,,,,,,52705,1,1,FALSE,,,
dig,89,366146,0.0-31.0-0.0,"""event"",""trial"",""time""
""fullscreenenter"",""1"",""3721""
","
","
","""event"",""trial"",""time""
""fullscreenenter"",""1"",""3721""
","
",,,,,,,,,,,,"[{""stimulus"":""run_exp/static/images/task_images/dig.jpg"",""time"":0.10000014305114746},{""stimulus"":""run_exp/static/images/task_images/land.jpg"",""time"":495.2999999523163},{""stimulus"":""run_exp/static/images/task_images/dig.jpg"",""time"":982.7999999523163}]",[],2,,,,,,,,,,,,,,
harvest,90,367150,0.0-31.0-1.0,"""event"",""trial"",""time""
""fullscreenenter"",""1"",""3721""
","
","
","""event"",""trial"",""time""
""fullscreenenter"",""1"",""3721""
","
",,null,run_exp/static/images/task_images/gems/2.jpg,null,,,,,,,0,,,2,,,,,2,0.180280544,0,,,,,,,
decision,91,367993,0.0-31.0-2.0,"""event"",""trial"",""time""
""fullscreenenter"",""1"",""3721""
","
","
","""event"",""trial"",""time""
""fullscreenenter"",""1"",""3721""
","
",,841.7,run_exp/static/images/task_images/land.jpg,65,,,,,,,0,,,2,,,,,,,,56034,1,2,FALSE,,,
dig,92,370162,0.0-32.0-0.0,"""event"",""trial"",""time""
""fullscreenenter"",""1"",""3721""
","
","
","""event"",""trial"",""time""
""fullscreenenter"",""1"",""3721""
","
",,,,,,,,,,,,"[{""stimulus"":""run_exp/static/images/task_images/dig.jpg"",""time"":0.09999990463256836},{""stimulus"":""run_exp/static/images/task_images/land.jpg"",""time"":727.0999999046326},{""stimulus"":""run_exp/static/images/task_images/dig.jpg"",""time"":1447.3999998569489}]",[],2,,,,,,,,,,,,,,
harvest,93,371166,0.0-32.0-1.0,"""event"",""trial"",""time""
""fullscreenenter"",""1"",""3721""
","
","
","""event"",""trial"",""time""
""fullscreenenter"",""1"",""3721""
","
",,null,run_exp/static/images/task_images/gems/0.jpg,null,,,,,,,0,,,2,,,,,0,0.229060557,NaN,,,,,,,
decision,94,372537,0.0-32.0-2.0,"""event"",""trial"",""time""
""fullscreenenter"",""1"",""3721""
","
","
","""event"",""trial"",""time""
""fullscreenenter"",""1"",""3721""
","
",,1370.2,run_exp/static/images/task_images/land.jpg,76,,,,,,,0,,,2,,,,,,,,60578,1,3,TRUE,,,
travel,95,381166,0.0-33.0-0.0,"""event"",""trial"",""time""
""fullscreenenter"",""1"",""3721""
","
","
","""event"",""trial"",""time""
""fullscreenenter"",""1"",""3721""
","
",,,,,,,,,,,,"[{""stimulus"":""run_exp/static/images/task_images/rocket-01.jpg"",""time"":0.20000004768371582},{""stimulus"":""run_exp/static/images/task_images/rocket-02.jpg"",""time"":966.4000000953674},{""stimulus"":""run_exp/static/images/task_images/rocket-03.jpg"",""time"":1922.2000000476837},{""stimulus"":""run_exp/static/images/task_images/rocket-04.jpg"",""time"":2886.2999999523163},{""stimulus"":""run_exp/static/images/task_images/rocket-05.jpg"",""time"":3834.600000143051},{""stimulus"":""run_exp/static/images/task_images/rocket-06.jpg"",""time"":4794.400000095367},{""stimulus"":""run_exp/static/images/task_images/rocket-07.jpg"",""time"":5754.200000047684},{""stimulus"":""run_exp/static/images/task_images/rocket-08.jpg"",""time"":6718.400000095367},{""stimulus"":""run_exp/static/images/task_images/rocket-09.jpg"",""time"":7670.299999952316}]",[],2,,,,,,,,,,,,,,
alien_welcome,96,386179,0.0-33.0-1.0,"""event"",""trial"",""time""
""fullscreenenter"",""1"",""3721""
","
","
","""event"",""trial"",""time""
""fullscreenenter"",""1"",""3721""
","
",,null,run_exp/static/images/task_images/aliens/old_aliens/planet/alien_planet-57.jpg,null,,,,,,,,,,,,,57,"33,22,57,67,46,74,1,45,61,15,38,41,78,16,50,58,5,64,51,72,20,24,6,9,4,12,47,56,80,8,48,76,37,2,62,13,79,54,11,28,10,31,53,70,42,39,52,23,59,35,34",,,,,,,,,,
land,97,386691,0.0-33.0-2.0,"""event"",""trial"",""time""
""fullscreenenter"",""1"",""3721""
","
","
","""event"",""trial"",""time""
""fullscreenenter"",""1"",""3721""
","
",,null,run_exp/static/images/task_images/land.jpg,null,,,,,,,100,,,3,,,,,,,,,,,,,,
dig,98,388695,0.0-33.0-3.0,"""event"",""trial"",""time""
""fullscreenenter"",""1"",""3721""
","
","
","""event"",""trial"",""time""
""fullscreenenter"",""1"",""3721""
","
",,,,,,,,,,,,"[{""stimulus"":""run_exp/static/images/task_images/dig.jpg"",""time"":0.2999999523162842},{""stimulus"":""run_exp/static/images/task_images/land.jpg"",""time"":674.5},{""stimulus"":""run_exp/static/images/task_images/dig.jpg"",""time"":1339.0999999046326}]",[],3,,,,,,,,,,,,,,
harvest,99,389707,0.0-33.0-4.0,"""event"",""trial"",""time""
""fullscreenenter"",""1"",""3721""
","
","
","""event"",""trial"",""time""
""fullscreenenter"",""1"",""3721""
","
",,null,run_exp/static/images/task_images/gems/100.jpg,null,,,,,,,48,,,3,,,,,100,0.479104138,0.48,,,,,,,
decision,100,390514,0.0-33.0-5.0,"""event"",""trial"",""time""
""fullscreenenter"",""1"",""3721""
","
","
","""event"",""trial"",""time""
""fullscreenenter"",""1"",""3721""
","
",,806.5,run_exp/static/images/task_images/land.jpg,76,,,,,,,48,,,3,,,,,,,,78556,1,0,TRUE,,,
travel,101,399715,0.0-34.0-0.0,"""event"",""trial"",""time""
""fullscreenenter"",""1"",""3721""
","
","
","""event"",""trial"",""time""
""fullscreenenter"",""1"",""3721""
","
",,,,,,,,,,,,"[{""stimulus"":""run_exp/static/images/task_images/rocket-01.jpg"",""time"":0.09999990463256836},{""stimulus"":""run_exp/static/images/task_images/rocket-02.jpg"",""time"":1030.1999998092651},{""stimulus"":""run_exp/static/images/task_images/rocket-03.jpg"",""time"":2053.5999999046326},{""stimulus"":""run_exp/static/images/task_images/rocket-04.jpg"",""time"":3065.0999999046326},{""stimulus"":""run_exp/static/images/task_images/rocket-05.jpg"",""time"":4093.899999856949},{""stimulus"":""run_exp/static/images/task_images/rocket-06.jpg"",""time"":5118.299999952316},{""stimulus"":""run_exp/static/images/task_images/rocket-07.jpg"",""time"":6132.899999856949},{""stimulus"":""run_exp/static/images/task_images/rocket-08.jpg"",""time"":7158.199999809265},{""stimulus"":""run_exp/static/images/task_images/rocket-09.jpg"",""time"":8171.199999809265}]",[],3,,,,,,,,,,,,,,
alien_welcome,102,404721,0.0-34.0-1.0,"""event"",""trial"",""time""
""fullscreenenter"",""1"",""3721""
","
","
","""event"",""trial"",""time""
""fullscreenenter"",""1"",""3721""
","
",,null,run_exp/static/images/task_images/aliens/old_aliens/planet/alien_planet-67.jpg,null,,,,,,,,,,,,,67,"33,22,57,67,46,74,1,45,61,15,38,41,78,16,50,58,5,64,51,72,20,24,6,9,4,12,47,56,80,8,48,76,37,2,62,13,79,54,11,28,10,31,53,70,42,39,52,23,59,35,34",,,,,,,,,,
land,103,405223,0.0-34.0-2.0,"""event"",""trial"",""time""
""fullscreenenter"",""1"",""3721""
","
","
","""event"",""trial"",""time""
""fullscreenenter"",""1"",""3721""
","
",,null,run_exp/static/images/task_images/land.jpg,null,,,,,,,99,,,4,,,,,,,,,,,,,,
dig,104,407235,0.0-34.0-3.0,"""event"",""trial"",""time""
""fullscreenenter"",""1"",""3721""
","
","
","""event"",""trial"",""time""
""fullscreenenter"",""1"",""3721""
","
",,,,,,,,,,,,"[{""stimulus"":""run_exp/static/images/task_images/dig.jpg"",""time"":0.40000009536743164},{""stimulus"":""run_exp/static/images/task_images/land.jpg"",""time"":675},{""stimulus"":""run_exp/static/images/task_images/dig.jpg"",""time"":1343.1000001430511}]",[],4,,,,,,,,,,,,,,
harvest,105,408239,0.0-34.0-4.0,"""event"",""trial"",""time""
""fullscreenenter"",""1"",""3721""
","
","
","""event"",""trial"",""time""
""fullscreenenter"",""1"",""3721""
","
",,null,run_exp/static/images/task_images/gems/99.jpg,null,,,,,,,47,,,4,,,,,99,0.472773398,0.474747475,,,,,,,
decision,106,408921,0.0-34.0-5.0,"""event"",""trial"",""time""
""fullscreenenter"",""1"",""3721""
","
","
","""event"",""trial"",""time""
""fullscreenenter"",""1"",""3721""
","
",,680.8,run_exp/static/images/task_images/land.jpg,65,,,,,,,47,,,4,,,,,,,,96962,1,0,FALSE,,,
dig,107,411247,0.0-35.0-0.0,"""event"",""trial"",""time""
""fullscreenenter"",""1"",""3721""
","
","
","""event"",""trial"",""time""
""fullscreenenter"",""1"",""3721""
","
",,,,,,,,,,,,"[{""stimulus"":""run_exp/static/images/task_images/dig.jpg"",""time"":0.19999980926513672},{""stimulus"":""run_exp/static/images/task_images/land.jpg"",""time"":782.1999998092651},{""stimulus"":""run_exp/static/images/task_images/dig.jpg"",""time"":1552.2999999523163}]",[],4,,,,,,,,,,,,,,
harvest,108,412255,0.0-35.0-1.0,"""event"",""trial"",""time""
""fullscreenenter"",""1"",""3721""
","
","
","""event"",""trial"",""time""
""fullscreenenter"",""1"",""3721""
","
",,null,run_exp/static/images/task_images/gems/47.jpg,null,,,,,,,24,,,4,,,,,47,0.508808362,0.510638298,,,,,,,
decision,109,414681,0.0-35.0-2.0,"""event"",""trial"",""time""
""fullscreenenter"",""1"",""3721""
","
","
","""event"",""trial"",""time""
""fullscreenenter"",""1"",""3721""
","
",,2425.8,run_exp/static/images/task_images/land.jpg,65,,,,,,,24,,,4,,,,,,,,102722,1,1,FALSE,,,
dig,110,415267,0.0-36.0-0.0,"""event"",""trial"",""time""
""fullscreenenter"",""1"",""3721""
","
","
","""event"",""trial"",""time""
""fullscreenenter"",""1"",""3721""
","
",,,,,,,,,,,,"[{""stimulus"":""run_exp/static/images/task_images/dig.jpg"",""time"":0.10000014305114746},{""stimulus"":""run_exp/static/images/task_images/land.jpg"",""time"":195.70000004768372},{""stimulus"":""run_exp/static/images/task_images/dig.jpg"",""time"":391.40000009536743}]",[],4,,,,,,,,,,,,,,
harvest,111,416274,0.0-36.0-1.0,"""event"",""trial"",""time""
""fullscreenenter"",""1"",""3721""
","
","
","""event"",""trial"",""time""
""fullscreenenter"",""1"",""3721""
","
",,null,run_exp/static/images/task_images/gems/24.jpg,null,,,,,,,10,,,4,,,,,24,0.43622098,0.416666667,,,,,,,
decision,112,417065,0.0-36.0-2.0,"""event"",""trial"",""time""
""fullscreenenter"",""1"",""3721""
","
","
","""event"",""trial"",""time""
""fullscreenenter"",""1"",""3721""
","
",,790.0999999,run_exp/static/images/task_images/land.jpg,76,,,,,,,10,,,4,,,,,,,,105107,1,2,TRUE,,,
travel,113,426280,0.0-37.0-0.0,"""event"",""trial"",""time""
""fullscreenenter"",""1"",""3721""
","
","
","""event"",""trial"",""time""
""fullscreenenter"",""1"",""3721""
","
",,,,,,,,,,,,"[{""stimulus"":""run_exp/static/images/task_images/rocket-01.jpg"",""time"":0.09999990463256836},{""stimulus"":""run_exp/static/images/task_images/rocket-02.jpg"",""time"":1027.7000000476837},{""stimulus"":""run_exp/static/images/task_images/rocket-03.jpg"",""time"":2056},{""stimulus"":""run_exp/static/images/task_images/rocket-04.jpg"",""time"":3079.899999856949},{""stimulus"":""run_exp/static/images/task_images/rocket-05.jpg"",""time"":4104},{""stimulus"":""run_exp/static/images/task_images/rocket-06.jpg"",""time"":5123.799999952316},{""stimulus"":""run_exp/static/images/task_images/rocket-07.jpg"",""time"":6139.799999952316},{""stimulus"":""run_exp/static/images/task_images/rocket-08.jpg"",""time"":7168},{""stimulus"":""run_exp/static/images/task_images/rocket-09.jpg"",""time"":8189.700000047684}]",[],4,,,,,,,,,,,,,,
alien_welcome,114,431287,0.0-37.0-1.0,"""event"",""trial"",""time""
""fullscreenenter"",""1"",""3721""
","
","
","""event"",""trial"",""time""
""fullscreenenter"",""1"",""3721""
","
",,null,run_exp/static/images/task_images/aliens/old_aliens/planet/alien_planet-46.jpg,null,,,,,,,,,,,,,46,"33,22,57,67,46,74,1,45,61,15,38,41,78,16,50,58,5,64,51,72,20,24,6,9,4,12,47,56,80,8,48,76,37,2,62,13,79,54,11,28,10,31,53,70,42,39,52,23,59,35,34",,,,,,,,,,
land,115,431795,0.0-37.0-2.0,"""event"",""trial"",""time""
""fullscreenenter"",""1"",""3721""
","
","
","""event"",""trial"",""time""
""fullscreenenter"",""1"",""3721""
","
",,null,run_exp/static/images/task_images/land.jpg,null,,,,,,,98,,,5,,,,,,,,,,,,,,
dig,116,433799,0.0-37.0-3.0,"""event"",""trial"",""time""
""fullscreenenter"",""1"",""3721""
","
","
","""event"",""trial"",""time""
""fullscreenenter"",""1"",""3721""
","
",,,,,,,,,,,,"[{""stimulus"":""run_exp/static/images/task_images/dig.jpg"",""time"":0.19999980926513672},{""stimulus"":""run_exp/static/images/task_images/land.jpg"",""time"":679.3999998569489},{""stimulus"":""run_exp/static/images/task_images/dig.jpg"",""time"":1339.7999999523163}]",[],5,,,,,,,,,,,,,,
harvest,117,434808,0.0-37.0-4.0,"""event"",""trial"",""time""
""fullscreenenter"",""1"",""3721""
","
","
","""event"",""trial"",""time""
""fullscreenenter"",""1"",""3721""
","
",,null,run_exp/static/images/task_images/gems/98.jpg,null,,,,,,,46,,,5,,,,,98,0.474405743,0.469387755,,,,,,,
decision,118,435388,0.0-37.0-5.0,"""event"",""trial"",""time""
""fullscreenenter"",""1"",""3721""
","
","
","""event"",""trial"",""time""
""fullscreenenter"",""1"",""3721""
","
",,578.6000001,run_exp/static/images/task_images/land.jpg,65,,,,,,,46,,,5,,,,,,,,123429,1,0,FALSE,,,
dig,119,437816,0.0-38.0-0.0,"""event"",""trial"",""time""
""fullscreenenter"",""1"",""3721""
","
","
","""event"",""trial"",""time""
""fullscreenenter"",""1"",""3721""
","
",,,,,,,,,,,,"[{""stimulus"":""run_exp/static/images/task_images/dig.jpg"",""time"":0.20000004768371582},{""stimulus"":""run_exp/static/images/task_images/land.jpg"",""time"":811.2999999523163},{""stimulus"":""run_exp/static/images/task_images/dig.jpg"",""time"":1622.2999999523163}]",[],5,,,,,,,,,,,,,,
harvest,120,438824,0.0-38.0-1.0,"""event"",""trial"",""time""
""fullscreenenter"",""1"",""3721""
","
","
","""event"",""trial"",""time""
""fullscreenenter"",""1"",""3721""
","
",,null,run_exp/static/images/task_images/gems/46.jpg,null,,,,,,,19,,,5,,,,,46,0.421202809,0.413043478,,,,,,,
decision,121,438828,0.0-38.0-2.0,"""event"",""trial"",""time""
""fullscreenenter"",""1"",""3721""
","
","
","""event"",""trial"",""time""
""fullscreenenter"",""1"",""3721""
","
",,2.300000191,run_exp/static/images/task_images/land.jpg,65,,,,,,,19,,,5,,,,,,,,126869,1,1,FALSE,,,
dig,122,441836,0.0-39.0-0.0,"""event"",""trial"",""time""
""fullscreenenter"",""1"",""3721""
","
","
","""event"",""trial"",""time""
""fullscreenenter"",""1"",""3721""
","
",,,,,,,,,,,,"[{""stimulus"":""run_exp/static/images/task_images/dig.jpg"",""time"":0.40000009536743164},{""stimulus"":""run_exp/static/images/task_images/land.jpg"",""time"":1002.2999999523163},{""stimulus"":""run_exp/static/images/task_images/dig.jpg"",""time"":2003.7999999523163}]",[],5,,,,,,,,,,,,,,
harvest,123,442840,0.0-39.0-1.0,"""event"",""trial"",""time""
""fullscreenenter"",""1"",""3721""
","
","
","""event"",""trial"",""time""
""fullscreenenter"",""1"",""3721""
","
",,null,run_exp/static/images/task_images/gems/19.jpg,null,,,,,,,8,,,5,,,,,19,0.409003116,0.421052632,,,,,,,
decision,124,442921,0.0-39.0-2.0,"""event"",""trial"",""time""
""fullscreenenter"",""1"",""3721""
","
","
","""event"",""trial"",""time""
""fullscreenenter"",""1"",""3721""
","
",,79.70000005,run_exp/static/images/task_images/land.jpg,76,,,,,,,8,,,5,,,,,,,,130962,1,2,TRUE,,,
travel,125,452850,0.0-40.0-0.0,"""event"",""trial"",""time""
""fullscreenenter"",""1"",""3721""
","
","
","""event"",""trial"",""time""
""fullscreenenter"",""1"",""3721""
","
",,,,,,,,,,,,"[{""stimulus"":""run_exp/static/images/task_images/rocket-01.jpg"",""time"":0.09999990463256836},{""stimulus"":""run_exp/static/images/task_images/rocket-02.jpg"",""time"":1110.3999998569489},{""stimulus"":""run_exp/static/images/task_images/rocket-03.jpg"",""time"":2217.399999856949},{""stimulus"":""run_exp/static/images/task_images/rocket-04.jpg"",""time"":3313.399999856949},{""stimulus"":""run_exp/static/images/task_images/rocket-05.jpg"",""time"":4415.899999856949},{""stimulus"":""run_exp/static/images/task_images/rocket-06.jpg"",""time"":5521.099999904633},{""stimulus"":""run_exp/static/images/task_images/rocket-07.jpg"",""time"":6625.399999856949},{""stimulus"":""run_exp/static/images/task_images/rocket-08.jpg"",""time"":7717.799999952316},{""stimulus"":""run_exp/static/images/task_images/rocket-09.jpg"",""time"":8825.399999856949}]",[],5,,,,,,,,,,,,,,
alien_welcome,126,457861,0.0-40.0-1.0,"""event"",""trial"",""time""
""fullscreenenter"",""1"",""3721""
","
","
","""event"",""trial"",""time""
""fullscreenenter"",""1"",""3721""
","
",,null,run_exp/static/images/task_images/aliens/old_aliens/planet/alien_planet-74.jpg,null,,,,,,,,,,,,,74,"33,22,57,67,46,74,1,45,61,15,38,41,78,16,50,58,5,64,51,72,20,24,6,9,4,12,47,56,80,8,48,76,37,2,62,13,79,54,11,28,10,31,53,70,42,39,52,23,59,35,34",,,,,,,,,,
land,127,458373,0.0-40.0-2.0,"""event"",""trial"",""time""
""fullscreenenter"",""1"",""3721""
","
","
","""event"",""trial"",""time""
""fullscreenenter"",""1"",""3721""
","
",,null,run_exp/static/images/task_images/land.jpg,null,,,,,,,101,,,6,,,,,,,,,,,,,,
dig,128,460384,0.0-40.0-3.0,"""event"",""trial"",""time""
""fullscreenenter"",""1"",""3721""
","
","
","""event"",""trial"",""time""
""fullscreenenter"",""1"",""3721""
","
",,,,,,,,,,,,"[{""stimulus"":""run_exp/static/images/task_images/dig.jpg"",""time"":0.3000001907348633},{""stimulus"":""run_exp/static/images/task_images/land.jpg"",""time"":679},{""stimulus"":""run_exp/static/images/task_images/dig.jpg"",""time"":1343}]",[],6,,,,,,,,,,,,,,
harvest,129,461397,0.0-40.0-4.0,"""event"",""trial"",""time""
""fullscreenenter"",""1"",""3721""
","
","
","""event"",""trial"",""time""
""fullscreenenter"",""1"",""3721""
","
",,null,run_exp/static/images/task_images/gems/101.jpg,null,,,,,,,81,,,6,,,,,101,0.803698121,0.801980198,,,,,,,
decision,130,461764,0.0-40.0-5.0,"""event"",""trial"",""time""
""fullscreenenter"",""1"",""3721""
","
","
","""event"",""trial"",""time""
""fullscreenenter"",""1"",""3721""
","
",,366.1999998,run_exp/static/images/task_images/land.jpg,65,,,,,,,81,,,6,,,,,,,,149805,1,0,FALSE,,,
dig,131,464405,0.0-41.0-0.0,"""event"",""trial"",""time""
""fullscreenenter"",""1"",""3721""
","
","
","""event"",""trial"",""time""
""fullscreenenter"",""1"",""3721""
","
",,,,,,,,,,,,"[{""stimulus"":""run_exp/static/images/task_images/dig.jpg"",""time"":0.09999990463256836},{""stimulus"":""run_exp/static/images/task_images/land.jpg"",""time"":886.3999998569489},{""stimulus"":""run_exp/static/images/task_images/dig.jpg"",""time"":1761.7000000476837}]",[],6,,,,,,,,,,,,,,
harvest,132,465413,0.0-41.0-1.0,"""event"",""trial"",""time""
""fullscreenenter"",""1"",""3721""
","
","
","""event"",""trial"",""time""
""fullscreenenter"",""1"",""3721""
","
",,null,run_exp/static/images/task_images/gems/81.jpg,null,,,,,,,59,,,6,,,,,81,0.723941603,0.728395062,,,,,,,
decision,133,466276,0.0-41.0-2.0,"""event"",""trial"",""time""
""fullscreenenter"",""1"",""3721""
","
","
","""event"",""trial"",""time""
""fullscreenenter"",""1"",""3721""
","
",,862.7,run_exp/static/images/task_images/land.jpg,65,,,,,,,59,,,6,,,,,,,,154317,1,1,FALSE,,,
dig,134,468416,0.0-42.0-0.0,"""event"",""trial"",""time""
""fullscreenenter"",""1"",""3721""
","
","
","""event"",""trial"",""time""
""fullscreenenter"",""1"",""3721""
","
",,,,,,,,,,,,"[{""stimulus"":""run_exp/static/images/task_images/dig.jpg"",""time"":0.09999990463256836},{""stimulus"":""run_exp/static/images/task_images/land.jpg"",""time"":718.5},{""stimulus"":""run_exp/static/images/task_images/dig.jpg"",""time"":1430.3999998569489}]",[],6,,,,,,,,,,,,,,
harvest,135,469425,0.0-42.0-1.0,"""event"",""trial"",""time""
""fullscreenenter"",""1"",""3721""
","
","
","""event"",""trial"",""time""
""fullscreenenter"",""1"",""3721""
","
",,null,run_exp/static/images/task_images/gems/59.jpg,null,,,,,,,52,,,6,,,,,59,0.882497273,0.881355932,,,,,,,
decision,136,469781,0.0-42.0-2.0,"""event"",""trial"",""time""
""fullscreenenter"",""1"",""3721""
","
","
","""event"",""trial"",""time""
""fullscreenenter"",""1"",""3721""
","
",,354.5999999,run_exp/static/images/task_images/land.jpg,65,,,,,,,52,,,6,,,,,,,,157822,1,2,FALSE,,,
dig,137,472432,0.0-43.0-0.0,"""event"",""trial"",""time""
""fullscreenenter"",""1"",""3721""
","
","
","""event"",""trial"",""time""
""fullscreenenter"",""1"",""3721""
","
",,,,,,,,,,,,"[{""stimulus"":""run_exp/static/images/task_images/dig.jpg"",""time"":0},{""stimulus"":""run_exp/static/images/task_images/land.jpg"",""time"":889.2999999523163},{""stimulus"":""run_exp/static/images/task_images/dig.jpg"",""time"":1771.5}]",[],6,,,,,,,,,,,,,,
harvest,138,473445,0.0-43.0-1.0,"""event"",""trial"",""time""
""fullscreenenter"",""1"",""3721""
","
","
","""event"",""trial"",""time""
""fullscreenenter"",""1"",""3721""
","
",,null,run_exp/static/images/task_images/gems/52.jpg,null,,,,,,,40,,,6,,,,,52,0.772428814,0.769230769,,,,,,,
decision,139,475350,0.0-43.0-2.0,"""event"",""trial"",""time""
""fullscreenenter"",""1"",""3721""
","
","
","""event"",""trial"",""time""
""fullscreenenter"",""1"",""3721""
","
",,1903.4,run_exp/static/images/task_images/land.jpg,65,,,,,,,40,,,6,,,,,,,,163391,1,3,FALSE,,,
dig,140,476450,0.0-44.0-0.0,"""event"",""trial"",""time""
""fullscreenenter"",""1"",""3721""
","
","
","""event"",""trial"",""time""
""fullscreenenter"",""1"",""3721""
","
",,,,,,,,,,,,"[{""stimulus"":""run_exp/static/images/task_images/dig.jpg"",""time"":0.09999990463256836},{""stimulus"":""run_exp/static/images/task_images/land.jpg"",""time"":369.7000000476837},{""stimulus"":""run_exp/static/images/task_images/dig.jpg"",""time"":736}]",[],6,,,,,,,,,,,,,,
harvest,141,477457,0.0-44.0-1.0,"""event"",""trial"",""time""
""fullscreenenter"",""1"",""3721""
","
","
","""event"",""trial"",""time""
""fullscreenenter"",""1"",""3721""
","
",,null,run_exp/static/images/task_images/gems/40.jpg,null,,,,,,,34,,,6,,,,,40,0.84036189,0.85,,,,,,,
decision,142,478038,0.0-44.0-2.0,"""event"",""trial"",""time""
""fullscreenenter"",""1"",""3721""
","
","
","""event"",""trial"",""time""
""fullscreenenter"",""1"",""3721""
","
",,579.6000001,run_exp/static/images/task_images/land.jpg,65,,,,,,,34,,,6,,,,,,,,166079,1,4,FALSE,,,
dig,143,480465,0.0-45.0-0.0,"""event"",""trial"",""time""
""fullscreenenter"",""1"",""3721""
","
","
","""event"",""trial"",""time""
""fullscreenenter"",""1"",""3721""
","
",,,,,,,,,,,,"[{""stimulus"":""run_exp/static/images/task_images/dig.jpg"",""time"":0.09999990463256836},{""stimulus"":""run_exp/static/images/task_images/land.jpg"",""time"":809},{""stimulus"":""run_exp/static/images/task_images/dig.jpg"",""time"":1621.2999999523163}]",[],6,,,,,,,,,,,,,,
harvest,144,481478,0.0-45.0-1.0,"""event"",""trial"",""time""
""fullscreenenter"",""1"",""3721""
","
","
","""event"",""trial"",""time""
""fullscreenenter"",""1"",""3721""
","
",,null,run_exp/static/images/task_images/gems/34.jpg,null,,,,,,,29,,,6,,,,,34,0.840700174,0.852941176,,,,,,,
decision,145,481806,0.0-45.0-2.0,"""event"",""trial"",""time""
""fullscreenenter"",""1"",""3721""
","
","
","""event"",""trial"",""time""
""fullscreenenter"",""1"",""3721""
","
",,327.5,run_exp/static/images/task_images/land.jpg,65,,,,,,,29,,,6,,,,,,,,169847,1,5,FALSE,,,
dig,146,484484,0.0-46.0-0.0,"""event"",""trial"",""time""
""fullscreenenter"",""1"",""3721""
","
","
","""event"",""trial"",""time""
""fullscreenenter"",""1"",""3721""
","
",,,,,,,,,,,,"[{""stimulus"":""run_exp/static/images/task_images/dig.jpg"",""time"":0.19999980926513672},{""stimulus"":""run_exp/static/images/task_images/land.jpg"",""time"":901.2999999523163},{""stimulus"":""run_exp/static/images/task_images/dig.jpg"",""time"":1789.2999999523163}]",[],6,,,,,,,,,,,,,,
harvest,147,485494,0.0-46.0-1.0,"""event"",""trial"",""time""
""fullscreenenter"",""1"",""3721""
","
","
","""event"",""trial"",""time""
""fullscreenenter"",""1"",""3721""
","
",,null,run_exp/static/images/task_images/gems/29.jpg,null,,,,,,,24,,,6,,,,,29,0.837363817,0.827586207,,,,,,,
decision,148,486181,0.0-46.0-2.0,"""event"",""trial"",""time""
""fullscreenenter"",""1"",""3721""
","
","
","""event"",""trial"",""time""
""fullscreenenter"",""1"",""3721""
","
",,686.5999999,run_exp/static/images/task_images/land.jpg,76,,,,,,,24,,,6,,,,,,,,174222,1,6,TRUE,,,
travel,149,495499,0.0-47.0-0.0,"""event"",""trial"",""time""
""fullscreenenter"",""1"",""3721""
","
","
","""event"",""trial"",""time""
""fullscreenenter"",""1"",""3721""
","
",,,,,,,,,,,,"[{""stimulus"":""run_exp/static/images/task_images/rocket-01.jpg"",""time"":0.09999990463256836},{""stimulus"":""run_exp/static/images/task_images/rocket-02.jpg"",""time"":1046.2000000476837},{""stimulus"":""run_exp/static/images/task_images/rocket-03.jpg"",""time"":2078.399999856949},{""stimulus"":""run_exp/static/images/task_images/rocket-04.jpg"",""time"":3108.5999999046326},{""stimulus"":""run_exp/static/images/task_images/rocket-05.jpg"",""time"":4138.700000047684},{""stimulus"":""run_exp/static/images/task_images/rocket-06.jpg"",""time"":5180.200000047684},{""stimulus"":""run_exp/static/images/task_images/rocket-07.jpg"",""time"":6214.399999856949},{""stimulus"":""run_exp/static/images/task_images/rocket-08.jpg"",""time"":7246.399999856949},{""stimulus"":""run_exp/static/images/task_images/rocket-09.jpg"",""time"":8277.399999856949}]",[],6,,,,,,,,,,,,,,
alien_welcome,150,500507,0.0-47.0-1.0,"""event"",""trial"",""time""
""fullscreenenter"",""1"",""3721""
","
","
","""event"",""trial"",""time""
""fullscreenenter"",""1"",""3721""
","
",,null,run_exp/static/images/task_images/aliens/old_aliens/planet/alien_planet-1.jpg,null,,,,,,,,,,,,,1,"33,22,57,67,46,74,1,45,61,15,38,41,78,16,50,58,5,64,51,72,20,24,6,9,4,12,47,56,80,8,48,76,37,2,62,13,79,54,11,28,10,31,53,70,42,39,52,23,59,35,34",,,,,,,,,,
land,151,501014,0.0-47.0-2.0,"""event"",""trial"",""time""
""fullscreenenter"",""1"",""3721""
","
","
","""event"",""trial"",""time""
""fullscreenenter"",""1"",""3721""
","
",,null,run_exp/static/images/task_images/land.jpg,null,,,,,,,91,,,7,,,,,,,,,,,,,,
dig,152,503025,0.0-47.0-3.0,"""event"",""trial"",""time""
""fullscreenenter"",""1"",""3721""
","
","
","""event"",""trial"",""time""
""fullscreenenter"",""1"",""3721""
","
",,,,,,,,,,,,"[{""stimulus"":""run_exp/static/images/task_images/dig.jpg"",""time"":0.3000001907348633},{""stimulus"":""run_exp/static/images/task_images/land.jpg"",""time"":675.4000000953674},{""stimulus"":""run_exp/static/images/task_images/dig.jpg"",""time"":1340.7000000476837}]",[],7,,,,,,,,,,,,,,
harvest,153,504034,0.0-47.0-4.0,"""event"",""trial"",""time""
""fullscreenenter"",""1"",""3721""
","
","
","""event"",""trial"",""time""
""fullscreenenter"",""1"",""3721""
","
",,null,run_exp/static/images/task_images/gems/91.jpg,null,,,,,,,75,,,7,,,,,91,0.823127786,0.824175824,,,,,,,
decision,154,504582,0.0-47.0-5.0,"""event"",""trial"",""time""
""fullscreenenter"",""1"",""3721""
","
","
","""event"",""trial"",""time""
""fullscreenenter"",""1"",""3721""
","
",,546.8,run_exp/static/images/task_images/land.jpg,65,,,,,,,75,,,7,,,,,,,,192623,1,0,FALSE,,,
dig,155,507046,0.0-48.0-0.0,"""event"",""trial"",""time""
""fullscreenenter"",""1"",""3721""
","
","
","""event"",""trial"",""time""
""fullscreenenter"",""1"",""3721""
","
",,,,,,,,,,,,"[{""stimulus"":""run_exp/static/images/task_images/dig.jpg"",""time"":0.20000004768371582},{""stimulus"":""run_exp/static/images/task_images/land.jpg"",""time"":829.5999999046326},{""stimulus"":""run_exp/static/images/task_images/dig.jpg"",""time"":1646}]",[],7,,,,,,,,,,,,,,
harvest,156,508054,0.0-48.0-1.0,"""event"",""trial"",""time""
""fullscreenenter"",""1"",""3721""
","
","
","""event"",""trial"",""time""
""fullscreenenter"",""1"",""3721""
","
",,null,run_exp/static/images/task_images/gems/75.jpg,null,,,,,,,63,,,7,,,,,75,0.844190924,0.84,,,,,,,
decision,157,508364,0.0-48.0-2.0,"""event"",""trial"",""time""
""fullscreenenter"",""1"",""3721""
","
","
","""event"",""trial"",""time""
""fullscreenenter"",""1"",""3721""
","
",,309.1000001,run_exp/static/images/task_images/land.jpg,65,,,,,,,63,,,7,,,,,,,,196405,1,1,FALSE,,,
dig,158,511061,0.0-49.0-0.0,"""event"",""trial"",""time""
""fullscreenenter"",""1"",""3721""
","
","
","""event"",""trial"",""time""
""fullscreenenter"",""1"",""3721""
","
",,,,,,,,,,,,"[{""stimulus"":""run_exp/static/images/task_images/dig.jpg"",""time"":0.10000014305114746},{""stimulus"":""run_exp/static/images/task_images/land.jpg"",""time"":901.9000000953674},{""stimulus"":""run_exp/static/images/task_images/dig.jpg"",""time"":1799.6000001430511}]",[],7,,,,,,,,,,,,,,
harvest,159,512069,0.0-49.0-1.0,"""event"",""trial"",""time""
""fullscreenenter"",""1"",""3721""
","
","
","""event"",""trial"",""time""
""fullscreenenter"",""1"",""3721""
","
",,null,run_exp/static/images/task_images/gems/63.jpg,null,,,,,,,56,,,7,,,,,63,0.888256204,0.888888889,,,,,,,
decision,160,512373,0.0-49.0-2.0,"""event"",""trial"",""time""
""fullscreenenter"",""1"",""3721""
","
","
","""event"",""trial"",""time""
""fullscreenenter"",""1"",""3721""
","
",,302.8,run_exp/static/images/task_images/land.jpg,65,,,,,,,56,,,7,,,,,,,,200414,1,2,FALSE,,,
dig,161,515079,0.0-50.0-0.0,"""event"",""trial"",""time""
""fullscreenenter"",""1"",""3721""
","
","
","""event"",""trial"",""time""
""fullscreenenter"",""1"",""3721""
","
",,,,,,,,,,,,"[{""stimulus"":""run_exp/static/images/task_images/dig.jpg"",""time"":0.09999990463256836},{""stimulus"":""run_exp/static/images/task_images/land.jpg"",""time"":910.6999998092651},{""stimulus"":""run_exp/static/images/task_images/dig.jpg"",""time"":1805.8999998569489}]",[],7,,,,,,,,,,,,,,
harvest,162,516087,0.0-50.0-1.0,"""event"",""trial"",""time""
""fullscreenenter"",""1"",""3721""
","
","
","""event"",""trial"",""time""
""fullscreenenter"",""1"",""3721""
","
",,null,run_exp/static/images/task_images/gems/56.jpg,null,,,,,,,46,,,7,,,,,56,0.817172706,0.821428571,,,,,,,
decision,163,516379,0.0-50.0-2.0,"""event"",""trial"",""time""
""fullscreenenter"",""1"",""3721""
","
","
","""event"",""trial"",""time""
""fullscreenenter"",""1"",""3721""
","
",,291.2,run_exp/static/images/task_images/land.jpg,65,,,,,,,46,,,7,,,,,,,,204420,1,3,FALSE,,,
dig,164,519095,0.0-51.0-0.0,"""event"",""trial"",""time""
""fullscreenenter"",""1"",""3721""
","
","
","""event"",""trial"",""time""
""fullscreenenter"",""1"",""3721""
","
",,,,,,,,,,,,"[{""stimulus"":""run_exp/static/images/task_images/dig.jpg"",""time"":0.10000014305114746},{""stimulus"":""run_exp/static/images/task_images/land.jpg"",""time"":911.5},{""stimulus"":""run_exp/static/images/task_images/dig.jpg"",""time"":1816.6000001430511}]",[],7,,,,,,,,,,,,,,
harvest,165,520102,0.0-51.0-1.0,"""event"",""trial"",""time""
""fullscreenenter"",""1"",""3721""
","
","
","""event"",""trial"",""time""
""fullscreenenter"",""1"",""3721""
","
",,null,run_exp/static/images/task_images/gems/46.jpg,null,,,,,,,37,,,7,,,,,46,0.799456744,0.804347826,,,,,,,
decision,166,520256,0.0-51.0-2.0,"""event"",""trial"",""time""
""fullscreenenter"",""1"",""3721""
","
","
","""event"",""trial"",""time""
""fullscreenenter"",""1"",""3721""
","
",,152.7,run_exp/static/images/task_images/land.jpg,76,,,,,,,37,,,7,,,,,,,,208297,1,4,TRUE,,,
travel,167,530111,0.0-52.0-0.0,"""event"",""trial"",""time""
""fullscreenenter"",""1"",""3721""
","
","
","""event"",""trial"",""time""
""fullscreenenter"",""1"",""3721""
","
",,,,,,,,,,,,"[{""stimulus"":""run_exp/static/images/task_images/rocket-01.jpg"",""time"":0.20000004768371582},{""stimulus"":""run_exp/static/images/task_images/rocket-02.jpg"",""time"":1097.5999999046326},{""stimulus"":""run_exp/static/images/task_images/rocket-03.jpg"",""time"":2191.2999999523163},{""stimulus"":""run_exp/static/images/task_images/rocket-04.jpg"",""time"":3289.9000000953674},{""stimulus"":""run_exp/static/images/task_images/rocket-05.jpg"",""time"":4384.299999952316},{""stimulus"":""run_exp/static/images/task_images/rocket-06.jpg"",""time"":5475.099999904633},{""stimulus"":""run_exp/static/images/task_images/rocket-07.jpg"",""time"":6572.099999904633},{""stimulus"":""run_exp/static/images/task_images/rocket-08.jpg"",""time"":7668.099999904633},{""stimulus"":""run_exp/static/images/task_images/rocket-09.jpg"",""time"":8760.799999952316}]",[],7,,,,,,,,,,,,,,
alien_welcome,168,535119,0.0-52.0-1.0,"""event"",""trial"",""time""
""fullscreenenter"",""1"",""3721""
","
","
","""event"",""trial"",""time""
""fullscreenenter"",""1"",""3721""
","
",,null,run_exp/static/images/task_images/aliens/old_aliens/planet/alien_planet-45.jpg,null,,,,,,,,,,,,,45,"33,22,57,67,46,74,1,45,61,15,38,41,78,16,50,58,5,64,51,72,20,24,6,9,4,12,47,56,80,8,48,76,37,2,62,13,79,54,11,28,10,31,53,70,42,39,52,23,59,35,34",,,,,,,,,,
land,169,535629,0.0-52.0-2.0,"""event"",""trial"",""time""
""fullscreenenter"",""1"",""3721""
","
","
","""event"",""trial"",""time""
""fullscreenenter"",""1"",""3721""
","
",,null,run_exp/static/images/task_images/land.jpg,null,,,,,,,99,,,8,,,,,,,,,,,,,,
dig,170,537636,0.0-52.0-3.0,"""event"",""trial"",""time""
""fullscreenenter"",""1"",""3721""
","
","
","""event"",""trial"",""time""
""fullscreenenter"",""1"",""3721""
","
",,,,,,,,,,,,"[{""stimulus"":""run_exp/static/images/task_images/dig.jpg"",""time"":0.2999999523162842},{""stimulus"":""run_exp/static/images/task_images/land.jpg"",""time"":676.7999999523163},{""stimulus"":""run_exp/static/images/task_images/dig.jpg"",""time"":1339.7999999523163}]",[],8,,,,,,,,,,,,,,
harvest,171,538643,0.0-52.0-4.0,"""event"",""trial"",""time""
""fullscreenenter"",""1"",""3721""
","
","
","""event"",""trial"",""time""
""fullscreenenter"",""1"",""3721""
","
",,null,run_exp/static/images/task_images/gems/99.jpg,null,,,,,,,90,,,8,,,,,99,0.907017308,0.909090909,,,,,,,
decision,172,538985,0.0-52.0-5.0,"""event"",""trial"",""time""
""fullscreenenter"",""1"",""3721""
","
","
","""event"",""trial"",""time""
""fullscreenenter"",""1"",""3721""
","
",,340.5999999,run_exp/static/images/task_images/land.jpg,65,,,,,,,90,,,8,,,,,,,,227026,1,0,FALSE,,,
dig,173,541653,0.0-53.0-0.0,"""event"",""trial"",""time""
""fullscreenenter"",""1"",""3721""
","
","
","""event"",""trial"",""time""
""fullscreenenter"",""1"",""3721""
","
",,,,,,,,,,,,"[{""stimulus"":""run_exp/static/images/task_images/dig.jpg"",""time"":0.10000014305114746},{""stimulus"":""run_exp/static/images/task_images/land.jpg"",""time"":898.4000000953674},{""stimulus"":""run_exp/static/images/task_images/dig.jpg"",""time"":1779.7999999523163}]",[],8,,,,,,,,,,,,,,
harvest,174,542660,0.0-53.0-1.0,"""event"",""trial"",""time""
""fullscreenenter"",""1"",""3721""
","
","
","""event"",""trial"",""time""
""fullscreenenter"",""1"",""3721""
","
",,null,run_exp/static/images/task_images/gems/90.jpg,null,,,,,,,74,,,8,,,,,90,0.818682033,0.822222222,,,,,,,
decision,175,542949,0.0-53.0-2.0,"""event"",""trial"",""time""
""fullscreenenter"",""1"",""3721""
","
","
","""event"",""trial"",""time""
""fullscreenenter"",""1"",""3721""
","
",,287.5,run_exp/static/images/task_images/land.jpg,65,,,,,,,74,,,8,,,,,,,,230990,1,1,FALSE,,,
dig,176,545667,0.0-54.0-0.0,"""event"",""trial"",""time""
""fullscreenenter"",""1"",""3721""
","
","
","""event"",""trial"",""time""
""fullscreenenter"",""1"",""3721""
","
",,,,,,,,,,,,"[{""stimulus"":""run_exp/static/images/task_images/dig.jpg"",""time"":0.20000004768371582},{""stimulus"":""run_exp/static/images/task_images/land.jpg"",""time"":907.7000000476837},{""stimulus"":""run_exp/static/images/task_images/dig.jpg"",""time"":1815.2000000476837}]",[],8,,,,,,,,,,,,,,
harvest,177,546675,0.0-54.0-1.0,"""event"",""trial"",""time""
""fullscreenenter"",""1"",""3721""
","
","
","""event"",""trial"",""time""
""fullscreenenter"",""1"",""3721""
","
",,null,run_exp/static/images/task_images/gems/74.jpg,null,,,,,,,57,,,8,,,,,74,0.767144092,0.77027027,,,,,,,
decision,178,546957,0.0-54.0-2.0,"""event"",""trial"",""time""
""fullscreenenter"",""1"",""3721""
","
","
","""event"",""trial"",""time""
""fullscreenenter"",""1"",""3721""
","
",,281.2,run_exp/static/images/task_images/land.jpg,65,,,,,,,57,,,8,,,,,,,,234998,1,2,FALSE,,,
dig,179,549686,0.0-55.0-0.0,"""event"",""trial"",""time""
""fullscreenenter"",""1"",""3721""
","
","
","""event"",""trial"",""time""
""fullscreenenter"",""1"",""3721""
","
",,,,,,,,,,,,"[{""stimulus"":""run_exp/static/images/task_images/dig.jpg"",""time"":0.19999980926513672},{""stimulus"":""run_exp/static/images/task_images/land.jpg"",""time"":908.2999999523163},{""stimulus"":""run_exp/static/images/task_images/dig.jpg"",""time"":1822.5}]",[],8,,,,,,,,,,,,,,
harvest,180,550696,0.0-55.0-1.0,"""event"",""trial"",""time""
""fullscreenenter"",""1"",""3721""
","
","
","""event"",""trial"",""time""
""fullscreenenter"",""1"",""3721""
","
",,null,run_exp/static/images/task_images/gems/57.jpg,null,,,,,,,48,,,8,,,,,57,0.838944237,0.842105263,,,,,,,
decision,181,550741,0.0-55.0-2.0,"""event"",""trial"",""time""
""fullscreenenter"",""1"",""3721""
","
","
","""event"",""trial"",""time""
""fullscreenenter"",""1"",""3721""
","
",,44.39999986,run_exp/static/images/task_images/land.jpg,76,,,,,,,48,,,8,,,,,,,,238782,1,3,TRUE,,,
travel,182,560703,0.0-56.0-0.0,"""event"",""trial"",""time""
""fullscreenenter"",""1"",""3721""
","
","
","""event"",""trial"",""time""
""fullscreenenter"",""1"",""3721""
","
",,,,,,,,,,,,"[{""stimulus"":""run_exp/static/images/task_images/rocket-01.jpg"",""time"":0.20000004768371582},{""stimulus"":""run_exp/static/images/task_images/rocket-02.jpg"",""time"":1109.7999999523163},{""stimulus"":""run_exp/static/images/task_images/rocket-03.jpg"",""time"":2220.0999999046326},{""stimulus"":""run_exp/static/images/task_images/rocket-04.jpg"",""time"":3324.7999999523163},{""stimulus"":""run_exp/static/images/task_images/rocket-05.jpg"",""time"":4428.099999904633},{""stimulus"":""run_exp/static/images/task_images/rocket-06.jpg"",""time"":5531},{""stimulus"":""run_exp/static/images/task_images/rocket-07.jpg"",""time"":6648.200000047684},{""stimulus"":""run_exp/static/images/task_images/rocket-08.jpg"",""time"":7752.200000047684},{""stimulus"":""run_exp/static/images/task_images/rocket-09.jpg"",""time"":8856.099999904633}]",[],8,,,,,,,,,,,,,,
alien_welcome,183,565708,0.0-56.0-1.0,"""event"",""trial"",""time""
""fullscreenenter"",""1"",""3721""
","
","
","""event"",""trial"",""time""
""fullscreenenter"",""1"",""3721""
","
",,null,run_exp/static/images/task_images/aliens/old_aliens/planet/alien_planet-61.jpg,null,,,,,,,,,,,,,61,"33,22,57,67,46,74,1,45,61,15,38,41,78,16,50,58,5,64,51,72,20,24,6,9,4,12,47,56,80,8,48,76,37,2,62,13,79,54,11,28,10,31,53,70,42,39,52,23,59,35,34",,,,,,,,,,
land,184,566212,0.0-56.0-2.0,"""event"",""trial"",""time""
""fullscreenenter"",""1"",""3721""
","
","
","""event"",""trial"",""time""
""fullscreenenter"",""1"",""3721""
","
",,null,run_exp/static/images/task_images/land.jpg,null,,,,,,,104,,,9,,,,,,,,,,,,,,
dig,185,568223,0.0-56.0-3.0,"""event"",""trial"",""time""
""fullscreenenter"",""1"",""3721""
","
","
","""event"",""trial"",""time""
""fullscreenenter"",""1"",""3721""
","
",,,,,,,,,,,,"[{""stimulus"":""run_exp/static/images/task_images/dig.jpg"",""time"":0.2999999523162842},{""stimulus"":""run_exp/static/images/task_images/land.jpg"",""time"":671.7999999523163},{""stimulus"":""run_exp/static/images/task_images/dig.jpg"",""time"":1343.6999998092651}]",[],9,,,,,,,,,,,,,,
harvest,186,569232,0.0-56.0-4.0,"""event"",""trial"",""time""
""fullscreenenter"",""1"",""3721""
","
","
","""event"",""trial"",""time""
""fullscreenenter"",""1"",""3721""
","
",,null,run_exp/static/images/task_images/gems/104.jpg,null,,,,,,,20,,,9,,,,,104,0.191550741,0.192307692,,,,,,,
decision,187,569844,0.0-56.0-5.0,"""event"",""trial"",""time""
""fullscreenenter"",""1"",""3721""
","
","
","""event"",""trial"",""time""
""fullscreenenter"",""1"",""3721""
","
",,611.1000001,run_exp/static/images/task_images/land.jpg,65,,,,,,,20,,,9,,,,,,,,257885,1,0,FALSE,,,
dig,188,572236,0.0-57.0-0.0,"""event"",""trial"",""time""
""fullscreenenter"",""1"",""3721""
","
","
","""event"",""trial"",""time""
""fullscreenenter"",""1"",""3721""
","
",,,,,,,,,,,,"[{""stimulus"":""run_exp/static/images/task_images/dig.jpg"",""time"":0.10000014305114746},{""stimulus"":""run_exp/static/images/task_images/land.jpg"",""time"":802.1000001430511},{""stimulus"":""run_exp/static/images/task_images/dig.jpg"",""time"":1597.5}]",[],9,,,,,,,,,,,,,,
harvest,189,573244,0.0-57.0-1.0,"""event"",""trial"",""time""
""fullscreenenter"",""1"",""3721""
","
","
","""event"",""trial"",""time""
""fullscreenenter"",""1"",""3721""
","
",,null,run_exp/static/images/task_images/gems/20.jpg,null,,,,,,,4,,,9,,,,,20,0.189583787,0.2,,,,,,,
decision,190,573612,0.0-57.0-2.0,"""event"",""trial"",""time""
""fullscreenenter"",""1"",""3721""
","
","
","""event"",""trial"",""time""
""fullscreenenter"",""1"",""3721""
","
",,366.4000001,run_exp/static/images/task_images/land.jpg,76,,,,,,,4,,,9,,,,,,,,261653,1,1,TRUE,,,
travel,191,583253,0.0-58.0-0.0,"""event"",""trial"",""time""
""fullscreenenter"",""1"",""3721""
","
","
","""event"",""trial"",""time""
""fullscreenenter"",""1"",""3721""
","
",,,,,,,,,,,,"[{""stimulus"":""run_exp/static/images/task_images/rocket-01.jpg"",""time"":0.10000014305114746},{""stimulus"":""run_exp/static/images/task_images/rocket-02.jpg"",""time"":1079},{""stimulus"":""run_exp/static/images/task_images/rocket-03.jpg"",""time"":2141.5},{""stimulus"":""run_exp/static/images/task_images/rocket-04.jpg"",""time"":3216.7999999523163},{""stimulus"":""run_exp/static/images/task_images/rocket-05.jpg"",""time"":4286.600000143051},{""stimulus"":""run_exp/static/images/task_images/rocket-06.jpg"",""time"":5357.299999952316},{""stimulus"":""run_exp/static/images/task_images/rocket-07.jpg"",""time"":6422.600000143051},{""stimulus"":""run_exp/static/images/task_images/rocket-08.jpg"",""time"":7494.299999952316},{""stimulus"":""run_exp/static/images/task_images/rocket-09.jpg"",""time"":8570.299999952316}]",[],9,,,,,,,,,,,,,,
alien_welcome,192,588265,0.0-58.0-1.0,"""event"",""trial"",""time""
""fullscreenenter"",""1"",""3721""
","
","
","""event"",""trial"",""time""
""fullscreenenter"",""1"",""3721""
","
",,null,run_exp/static/images/task_images/aliens/old_aliens/planet/alien_planet-15.jpg,null,,,,,,,,,,,,,15,"33,22,57,67,46,74,1,45,61,15,38,41,78,16,50,58,5,64,51,72,20,24,6,9,4,12,47,56,80,8,48,76,37,2,62,13,79,54,11,28,10,31,53,70,42,39,52,23,59,35,34",,,,,,,,,,
land,193,588777,0.0-58.0-2.0,"""event"",""trial"",""time""
""fullscreenenter"",""1"",""3721""
","
","
","""event"",""trial"",""time""
""fullscreenenter"",""1"",""3721""
","
",,null,run_exp/static/images/task_images/land.jpg,null,,,,,,,102,,,10,,,,,,,,,,,,,,
dig,194,590786,0.0-58.0-3.0,"""event"",""trial"",""time""
""fullscreenenter"",""1"",""3721""
","
","
","""event"",""trial"",""time""
""fullscreenenter"",""1"",""3721""
","
",,,,,,,,,,,,"[{""stimulus"":""run_exp/static/images/task_images/dig.jpg"",""time"":0.20000004768371582},{""stimulus"":""run_exp/static/images/task_images/land.jpg"",""time"":677.0999999046326},{""stimulus"":""run_exp/static/images/task_images/dig.jpg"",""time"":1335}]",[],10,,,,,,,,,,,,,,
harvest,195,591797,0.0-58.0-4.0,"""event"",""trial"",""time""
""fullscreenenter"",""1"",""3721""
","
","
","""event"",""trial"",""time""
""fullscreenenter"",""1"",""3721""
","
",,null,run_exp/static/images/task_images/gems/102.jpg,null,,,,,,,26,,,10,,,,,102,0.257007063,0.254901961,,,,,,,
decision,196,592275,0.0-58.0-5.0,"""event"",""trial"",""time""
""fullscreenenter"",""1"",""3721""
","
","
","""event"",""trial"",""time""
""fullscreenenter"",""1"",""3721""
","
",,477.9000001,run_exp/static/images/task_images/land.jpg,65,,,,,,,26,,,10,,,,,,,,280316,1,0,FALSE,,,
dig,197,594799,0.0-59.0-0.0,"""event"",""trial"",""time""
""fullscreenenter"",""1"",""3721""
","
","
","""event"",""trial"",""time""
""fullscreenenter"",""1"",""3721""
","
",,,,,,,,,,,,"[{""stimulus"":""run_exp/static/images/task_images/dig.jpg"",""time"":0.20000004768371582},{""stimulus"":""run_exp/static/images/task_images/land.jpg"",""time"":847.7999999523163},{""stimulus"":""run_exp/static/images/task_images/dig.jpg"",""time"":1688}]",[],10,,,,,,,,,,,,,,
harvest,198,595805,0.0-59.0-1.0,"""event"",""trial"",""time""
""fullscreenenter"",""1"",""3721""
","
","
","""event"",""trial"",""time""
""fullscreenenter"",""1"",""3721""
","
",,null,run_exp/static/images/task_images/gems/26.jpg,null,,,,,,,4,,,10,,,,,26,0.153778563,0.153846154,,,,,,,
decision,199,596453,0.0-59.0-2.0,"""event"",""trial"",""time""
""fullscreenenter"",""1"",""3721""
","
","
","""event"",""trial"",""time""
""fullscreenenter"",""1"",""3721""
","
",,647.8,run_exp/static/images/task_images/land.jpg,76,,,,,,,4,,,10,,,,,,,,284495,1,1,TRUE,,,
travel,200,605811,0.0-60.0-0.0,"""event"",""trial"",""time""
""fullscreenenter"",""1"",""3721""
","
","
","""event"",""trial"",""time""
""fullscreenenter"",""1"",""3721""
","
",,,,,,,,,,,,"[{""stimulus"":""run_exp/static/images/task_images/rocket-01.jpg"",""time"":0.20000004768371582},{""stimulus"":""run_exp/static/images/task_images/rocket-02.jpg"",""time"":1050.1000001430511},{""stimulus"":""run_exp/static/images/task_images/rocket-03.jpg"",""time"":2089.5},{""stimulus"":""run_exp/static/images/task_images/rocket-04.jpg"",""time"":3124.7999999523163},{""stimulus"":""run_exp/static/images/task_images/rocket-05.jpg"",""time"":4167.600000143051},{""stimulus"":""run_exp/static/images/task_images/rocket-06.jpg"",""time"":5200.799999952316},{""stimulus"":""run_exp/static/images/task_images/rocket-07.jpg"",""time"":6236.299999952316},{""stimulus"":""run_exp/static/images/task_images/rocket-08.jpg"",""time"":7279.799999952316},{""stimulus"":""run_exp/static/images/task_images/rocket-09.jpg"",""time"":8317.799999952316}]",[],10,,,,,,,,,,,,,,
alien_welcome,201,610818,0.0-60.0-1.0,"""event"",""trial"",""time""
""fullscreenenter"",""1"",""3721""
","
","
","""event"",""trial"",""time""
""fullscreenenter"",""1"",""3721""
","
",,null,run_exp/static/images/task_images/aliens/old_aliens/planet/alien_planet-38.jpg,null,,,,,,,,,,,,,38,"33,22,57,67,46,74,1,45,61,15,38,41,78,16,50,58,5,64,51,72,20,24,6,9,4,12,47,56,80,8,48,76,37,2,62,13,79,54,11,28,10,31,53,70,42,39,52,23,59,35,34",,,,,,,,,,
land,202,611330,0.0-60.0-2.0,"""event"",""trial"",""time""
""fullscreenenter"",""1"",""3721""
","
","
","""event"",""trial"",""time""
""fullscreenenter"",""1"",""3721""
","
",,null,run_exp/static/images/task_images/land.jpg,null,,,,,,,92,,,11,,,,,,,,,,,,,,
dig,203,613342,0.0-60.0-3.0,"""event"",""trial"",""time""
""fullscreenenter"",""1"",""3721""
","
","
","""event"",""trial"",""time""
""fullscreenenter"",""1"",""3721""
","
",,,,,,,,,,,,"[{""stimulus"":""run_exp/static/images/task_images/dig.jpg"",""time"":0.2999999523162842},{""stimulus"":""run_exp/static/images/task_images/land.jpg"",""time"":678.7999999523163},{""stimulus"":""run_exp/static/images/task_images/dig.jpg"",""time"":1338.6000001430511}]",[],11,,,,,,,,,,,,,,
harvest,204,614350,0.0-60.0-4.0,"""event"",""trial"",""time""
""fullscreenenter"",""1"",""3721""
","
","
","""event"",""trial"",""time""
""fullscreenenter"",""1"",""3721""
","
",,null,run_exp/static/images/task_images/gems/92.jpg,null,,,,,,,22,,,11,,,,,92,0.239914877,0.239130435,,,,,,,
decision,205,614847,0.0-60.0-5.0,"""event"",""trial"",""time""
""fullscreenenter"",""1"",""3721""
","
","
","""event"",""trial"",""time""
""fullscreenenter"",""1"",""3721""
","
",,496.0999999,run_exp/static/images/task_images/land.jpg,65,,,,,,,22,,,11,,,,,,,,302888,1,0,TRUE,,,
end_of_block_continue,206,623697,0.0-61.0-0.0,"""event"",""trial"",""time""
""fullscreenenter"",""1"",""3721""
","
","
","""event"",""trial"",""time""
""fullscreenenter"",""1"",""3721""
","
",,null,run_exp/static/audio/clip_32_block_end.m4a,,,,,,,null,,,,,,,,,,,,,,,,,,
alien_welcome,207,628727,0.0-62.0-0.0,"""event"",""trial"",""time""
""fullscreenenter"",""1"",""3721""
","
","
","""event"",""trial"",""time""
""fullscreenenter"",""1"",""3721""
","
",,null,run_exp/static/images/task_images/aliens/old_aliens/planet/alien_planet-41.jpg,null,,,,,,,,,,,,,41,"33,22,57,67,46,74,1,45,61,15,38,41,78,16,50,58,5,64,51,72,20,24,6,9,4,12,47,56,80,8,48,76,37,2,62,13,79,54,11,28,10,31,53,70,42,39,52,23,59,35,34",,,,,,,,,,
land,208,629236,0.0-62.0-1.0,"""event"",""trial"",""time""
""fullscreenenter"",""1"",""3721""
","
","
","""event"",""trial"",""time""
""fullscreenenter"",""1"",""3721""
","
",,null,run_exp/static/images/task_images/land.jpg,null,,,,,,,98,,,12,,,,,,,,,,,,,,
dig,209,631243,0.0-62.0-2.0,"""event"",""trial"",""time""
""fullscreenenter"",""1"",""3721""
","
","
","""event"",""trial"",""time""
""fullscreenenter"",""1"",""3721""
","
",,,,,,,,,,,,"[{""stimulus"":""run_exp/static/images/task_images/dig.jpg"",""time"":0.20000004768371582},{""stimulus"":""run_exp/static/images/task_images/land.jpg"",""time"":670.6000001430511},{""stimulus"":""run_exp/static/images/task_images/dig.jpg"",""time"":1337.9000000953674}]",[],12,,,,,,,,,,,,,,
harvest,210,632250,0.0-62.0-3.0,"""event"",""trial"",""time""
""fullscreenenter"",""1"",""3721""
","
","
","""event"",""trial"",""time""
""fullscreenenter"",""1"",""3721""
","
",,null,run_exp/static/images/task_images/gems/98.jpg,null,,,,,,,20,,,12,,,,,98,0.199039215,0.204081633,,,,,,,
decision,211,632824,0.0-62.0-4.0,"""event"",""trial"",""time""
""fullscreenenter"",""1"",""3721""
","
","
","""event"",""trial"",""time""
""fullscreenenter"",""1"",""3721""
","
",,572.3999999,run_exp/static/images/task_images/land.jpg,65,,,,,,,20,,,12,,,,,,,,9110,2,0,FALSE,,,
dig,212,635260,0.0-63.0-0.0,"""event"",""trial"",""time""
""fullscreenenter"",""1"",""3721""
","
","
","""event"",""trial"",""time""
""fullscreenenter"",""1"",""3721""
","
",,,,,,,,,,,,"[{""stimulus"":""run_exp/static/images/task_images/dig.jpg"",""time"":0.09999990463256836},{""stimulus"":""run_exp/static/images/task_images/land.jpg"",""time"":816.7999999523163},{""stimulus"":""run_exp/static/images/task_images/dig.jpg"",""time"":1625.1999998092651}]",[],12,,,,,,,,,,,,,,
harvest,213,636269,0.0-63.0-1.0,"""event"",""trial"",""time""
""fullscreenenter"",""1"",""3721""
","
","
","""event"",""trial"",""time""
""fullscreenenter"",""1"",""3721""
","
",,null,run_exp/static/images/task_images/gems/20.jpg,null,,,,,,,5,,,12,,,,,20,0.234520875,0.25,,,,,,,
decision,214,636935,0.0-63.0-2.0,"""event"",""trial"",""time""
""fullscreenenter"",""1"",""3721""
","
","
","""event"",""trial"",""time""
""fullscreenenter"",""1"",""3721""
","
",,664.9000001,run_exp/static/images/task_images/land.jpg,76,,,,,,,5,,,12,,,,,,,,13221,2,1,TRUE,,,
travel,215,646275,0.0-64.0-0.0,"""event"",""trial"",""time""
""fullscreenenter"",""1"",""3721""
","
","
","""event"",""trial"",""time""
""fullscreenenter"",""1"",""3721""
","
",,,,,,,,,,,,"[{""stimulus"":""run_exp/static/images/task_images/rocket-01.jpg"",""time"":0.20000004768371582},{""stimulus"":""run_exp/static/images/task_images/rocket-02.jpg"",""time"":1041.5},{""stimulus"":""run_exp/static/images/task_images/rocket-03.jpg"",""time"":2082.5999999046326},{""stimulus"":""run_exp/static/images/task_images/rocket-04.jpg"",""time"":3117.899999856949},{""stimulus"":""run_exp/static/images/task_images/rocket-05.jpg"",""time"":4158},{""stimulus"":""run_exp/static/images/task_images/rocket-06.jpg"",""time"":5195.599999904633},{""stimulus"":""run_exp/static/images/task_images/rocket-07.jpg"",""time"":6225.899999856949},{""stimulus"":""run_exp/static/images/task_images/rocket-08.jpg"",""time"":7270},{""stimulus"":""run_exp/static/images/task_images/rocket-09.jpg"",""time"":8296.899999856949}]",[],12,,,,,,,,,,,,,,
alien_welcome,216,651287,0.0-64.0-1.0,"""event"",""trial"",""time""
""fullscreenenter"",""1"",""3721""
","
","
","""event"",""trial"",""time""
""fullscreenenter"",""1"",""3721""
","
",,null,run_exp/static/images/task_images/aliens/old_aliens/planet/alien_planet-78.jpg,null,,,,,,,,,,,,,78,"33,22,57,67,46,74,1,45,61,15,38,41,78,16,50,58,5,64,51,72,20,24,6,9,4,12,47,56,80,8,48,76,37,2,62,13,79,54,11,28,10,31,53,70,42,39,52,23,59,35,34",,,,,,,,,,
land,217,651799,0.0-64.0-2.0,"""event"",""trial"",""time""
""fullscreenenter"",""1"",""3721""
","
","
","""event"",""trial"",""time""
""fullscreenenter"",""1"",""3721""
","
",,null,run_exp/static/images/task_images/land.jpg,null,,,,,,,89,,,13,,,,,,,,,,,,,,
dig,218,653811,0.0-64.0-3.0,"""event"",""trial"",""time""
""fullscreenenter"",""1"",""3721""
","
","
","""event"",""trial"",""time""
""fullscreenenter"",""1"",""3721""
","
",,,,,,,,,,,,"[{""stimulus"":""run_exp/static/images/task_images/dig.jpg"",""time"":0.20000004768371582},{""stimulus"":""run_exp/static/images/task_images/land.jpg"",""time"":678.5999999046326},{""stimulus"":""run_exp/static/images/task_images/dig.jpg"",""time"":1338.2000000476837}]",[],13,,,,,,,,,,,,,,
harvest,219,654819,0.0-64.0-4.0,"""event"",""trial"",""time""
""fullscreenenter"",""1"",""3721""
","
","
","""event"",""trial"",""time""
""fullscreenenter"",""1"",""3721""
","
",,null,run_exp/static/images/task_images/gems/89.jpg,null,,,,,,,16,,,13,,,,,89,0.184931692,0.179775281,,,,,,,
decision,220,655330,0.0-64.0-5.0,"""event"",""trial"",""time""
""fullscreenenter"",""1"",""3721""
","
","
","""event"",""trial"",""time""
""fullscreenenter"",""1"",""3721""
","
",,510.2,run_exp/static/images/task_images/land.jpg,65,,,,,,,16,,,13,,,,,,,,31616,2,0,FALSE,,,
dig,221,657828,0.0-65.0-0.0,"""event"",""trial"",""time""
""fullscreenenter"",""1"",""3721""
","
","
","""event"",""trial"",""time""
""fullscreenenter"",""1"",""3721""
","
",,,,,,,,,,,,"[{""stimulus"":""run_exp/static/images/task_images/dig.jpg"",""time"":0.09999990463256836},{""stimulus"":""run_exp/static/images/task_images/land.jpg"",""time"":842.7999999523163},{""stimulus"":""run_exp/static/images/task_images/dig.jpg"",""time"":1665}]",[],13,,,,,,,,,,,,,,
harvest,222,658833,0.0-65.0-1.0,"""event"",""trial"",""time""
""fullscreenenter"",""1"",""3721""
","
","
","""event"",""trial"",""time""
""fullscreenenter"",""1"",""3721""
","
",,null,run_exp/static/images/task_images/gems/16.jpg,null,,,,,,,2,,,13,,,,,16,0.129214799,0.125,,,,,,,
decision,223,659770,0.0-65.0-2.0,"""event"",""trial"",""time""
""fullscreenenter"",""1"",""3721""
","
","
","""event"",""trial"",""time""
""fullscreenenter"",""1"",""3721""
","
",,935.0999999,run_exp/static/images/task_images/land.jpg,76,,,,,,,2,,,13,,,,,,,,36056,2,1,TRUE,,,
travel,224,668843,0.0-66.0-0.0,"""event"",""trial"",""time""
""fullscreenenter"",""1"",""3721""
","
","
","""event"",""trial"",""time""
""fullscreenenter"",""1"",""3721""
","
",,,,,,,,,,,,"[{""stimulus"":""run_exp/static/images/task_images/rocket-01.jpg"",""time"":0},{""stimulus"":""run_exp/static/images/task_images/rocket-02.jpg"",""time"":1010.7000000476837},{""stimulus"":""run_exp/static/images/task_images/rocket-03.jpg"",""time"":2026.0999999046326},{""stimulus"":""run_exp/static/images/task_images/rocket-04.jpg"",""time"":3030.2000000476837},{""stimulus"":""run_exp/static/images/task_images/rocket-05.jpg"",""time"":4034.4000000953674},{""stimulus"":""run_exp/static/images/task_images/rocket-06.jpg"",""time"":5039},{""stimulus"":""run_exp/static/images/task_images/rocket-07.jpg"",""time"":6047.400000095367},{""stimulus"":""run_exp/static/images/task_images/rocket-08.jpg"",""time"":7056},{""stimulus"":""run_exp/static/images/task_images/rocket-09.jpg"",""time"":8065.200000047684}]",[],13,,,,,,,,,,,,,,
alien_welcome,225,673854,0.0-66.0-1.0,"""event"",""trial"",""time""
""fullscreenenter"",""1"",""3721""
","
","
","""event"",""trial"",""time""
""fullscreenenter"",""1"",""3721""
","
",,null,run_exp/static/images/task_images/aliens/old_aliens/planet/alien_planet-16.jpg,null,,,,,,,,,,,,,16,"33,22,57,67,46,74,1,45,61,15,38,41,78,16,50,58,5,64,51,72,20,24,6,9,4,12,47,56,80,8,48,76,37,2,62,13,79,54,11,28,10,31,53,70,42,39,52,23,59,35,34",,,,,,,,,,
land,226,674363,0.0-66.0-2.0,"""event"",""trial"",""time""
""fullscreenenter"",""1"",""3721""
","
","
","""event"",""trial"",""time""
""fullscreenenter"",""1"",""3721""
","
",,null,run_exp/static/images/task_images/land.jpg,null,,,,,,,105,,,14,,,,,,,,,,,,,,
dig,227,676372,0.0-66.0-3.0,"""event"",""trial"",""time""
""fullscreenenter"",""1"",""3721""
","
","
","""event"",""trial"",""time""
""fullscreenenter"",""1"",""3721""
","
",,,,,,,,,,,,"[{""stimulus"":""run_exp/static/images/task_images/dig.jpg"",""time"":0.20000004768371582},{""stimulus"":""run_exp/static/images/task_images/land.jpg"",""time"":671.9000000953674},{""stimulus"":""run_exp/static/images/task_images/dig.jpg"",""time"":1335.2999999523163}]",[],14,,,,,,,,,,,,,,
harvest,228,677381,0.0-66.0-4.0,"""event"",""trial"",""time""
""fullscreenenter"",""1"",""3721""
","
","
","""event"",""trial"",""time""
""fullscreenenter"",""1"",""3721""
","
",,null,run_exp/static/images/task_images/gems/105.jpg,null,,,,,,,13,,,14,,,,,105,0.123324763,0.123809524,,,,,,,
decision,229,677806,0.0-66.0-5.0,"""event"",""trial"",""time""
""fullscreenenter"",""1"",""3721""
","
","
","""event"",""trial"",""time""
""fullscreenenter"",""1"",""3721""
","
",,423.5999999,run_exp/static/images/task_images/land.jpg,65,,,,,,,13,,,14,,,,,,,,54092,2,0,FALSE,,,
dig,230,680387,0.0-67.0-0.0,"""event"",""trial"",""time""
""fullscreenenter"",""1"",""3721""
","
","
","""event"",""trial"",""time""
""fullscreenenter"",""1"",""3721""
","
",,,,,,,,,,,,"[{""stimulus"":""run_exp/static/images/task_images/dig.jpg"",""time"":0.09999990463256836},{""stimulus"":""run_exp/static/images/task_images/land.jpg"",""time"":865.8999998569489},{""stimulus"":""run_exp/static/images/task_images/dig.jpg"",""time"":1726.5999999046326}]",[],14,,,,,,,,,,,,,,
harvest,231,681395,0.0-67.0-1.0,"""event"",""trial"",""time""
""fullscreenenter"",""1"",""3721""
","
","
","""event"",""trial"",""time""
""fullscreenenter"",""1"",""3721""
","
",,null,run_exp/static/images/task_images/gems/13.jpg,null,,,,,,,2,,,14,,,,,13,0.186643846,0.153846154,,,,,,,
decision,232,682014,0.0-67.0-2.0,"""event"",""trial"",""time""
""fullscreenenter"",""1"",""3721""
","
","
","""event"",""trial"",""time""
""fullscreenenter"",""1"",""3721""
","
",,617.3999999,run_exp/static/images/task_images/land.jpg,76,,,,,,,2,,,14,,,,,,,,58300,2,1,TRUE,,,
travel,233,691404,0.0-68.0-0.0,"""event"",""trial"",""time""
""fullscreenenter"",""1"",""3721""
","
","
","""event"",""trial"",""time""
""fullscreenenter"",""1"",""3721""
","
",,,,,,,,,,,,"[{""stimulus"":""run_exp/static/images/task_images/rocket-01.jpg"",""time"":0.09999990463256836},{""stimulus"":""run_exp/static/images/task_images/rocket-02.jpg"",""time"":1054.3999998569489},{""stimulus"":""run_exp/static/images/task_images/rocket-03.jpg"",""time"":2093.399999856949},{""stimulus"":""run_exp/static/images/task_images/rocket-04.jpg"",""time"":3134.7999999523163},{""stimulus"":""run_exp/static/images/task_images/rocket-05.jpg"",""time"":4174.699999809265},{""stimulus"":""run_exp/static/images/task_images/rocket-06.jpg"",""time"":5222},{""stimulus"":""run_exp/static/images/task_images/rocket-07.jpg"",""time"":6263},{""stimulus"":""run_exp/static/images/task_images/rocket-08.jpg"",""time"":7297.599999904633},{""stimulus"":""run_exp/static/images/task_images/rocket-09.jpg"",""time"":8338.699999809265}]",[],14,,,,,,,,,,,,,,
alien_welcome,234,696416,0.0-68.0-1.0,"""event"",""trial"",""time""
""fullscreenenter"",""1"",""3721""
","
","
","""event"",""trial"",""time""
""fullscreenenter"",""1"",""3721""
","
",,null,run_exp/static/images/task_images/aliens/old_aliens/planet/alien_planet-50.jpg,null,,,,,,,,,,,,,50,"33,22,57,67,46,74,1,45,61,15,38,41,78,16,50,58,5,64,51,72,20,24,6,9,4,12,47,56,80,8,48,76,37,2,62,13,79,54,11,28,10,31,53,70,42,39,52,23,59,35,34",,,,,,,,,,
land,235,696928,0.0-68.0-2.0,"""event"",""trial"",""time""
""fullscreenenter"",""1"",""3721""
","
","
","""event"",""trial"",""time""
""fullscreenenter"",""1"",""3721""
","
",,null,run_exp/static/images/task_images/land.jpg,null,,,,,,,105,,,15,,,,,,,,,,,,,,
dig,236,698941,0.0-68.0-3.0,"""event"",""trial"",""time""
""fullscreenenter"",""1"",""3721""
","
","
","""event"",""trial"",""time""
""fullscreenenter"",""1"",""3721""
","
",,,,,,,,,,,,"[{""stimulus"":""run_exp/static/images/task_images/dig.jpg"",""time"":0.20000004768371582},{""stimulus"":""run_exp/static/images/task_images/land.jpg"",""time"":677},{""stimulus"":""run_exp/static/images/task_images/dig.jpg"",""time"":1334.9000000953674}]",[],15,,,,,,,,,,,,,,
harvest,237,699950,0.0-68.0-4.0,"""event"",""trial"",""time""
""fullscreenenter"",""1"",""3721""
","
","
","""event"",""trial"",""time""
""fullscreenenter"",""1"",""3721""
","
",,null,run_exp/static/images/task_images/gems/105.jpg,null,,,,,,,85,,,15,,,,,105,0.811989335,0.80952381,,,,,,,
decision,238,700325,0.0-68.0-5.0,"""event"",""trial"",""time""
""fullscreenenter"",""1"",""3721""
","
","
","""event"",""trial"",""time""
""fullscreenenter"",""1"",""3721""
","
",,374.2,run_exp/static/images/task_images/land.jpg,65,,,,,,,85,,,15,,,,,,,,76611,2,0,FALSE,,,
dig,239,702960,0.0-69.0-0.0,"""event"",""trial"",""time""
""fullscreenenter"",""1"",""3721""
","
","
","""event"",""trial"",""time""
""fullscreenenter"",""1"",""3721""
","
