trial_type,trial_index,time_elapsed,internal_node_id,interactions,blur_events,focus_events,fullscreenenter_events,fullscreenexit_events,success,rt,stimulus,key_press,prompt,subject_id,participant_id,age,gender,button_pressed,next_reward,animation_sequence,responses,planet,curr_prac_trial,n_prac_rounds,alien,aliens,reward_received,decay_rate_actual,decay_rate_exp,time_in_block,block_num,prt,last_trial_on_planet,button_html,bonus,num_failures
pavlovia,0,4,0.0-0.0,"""event"",""trial"",""time""
""fullscreenenter"",""1"",""2176""
","
","
","""event"",""trial"",""time""
""fullscreenenter"",""1"",""2176""
","
",,,,,,,,,,,,,,,,,,,,,,,,,,,,
fullscreen,1,3153,0.0-1.0,"""event"",""trial"",""time""
""fullscreenenter"",""1"",""2176""
","
","
","""event"",""trial"",""time""
""fullscreenenter"",""1"",""2176""
","
",TRUE,,,,,,,,,,,,,,,,,,,,,,,,,,,
instruc_welcome,2,12947,0.0-2.0,"""event"",""trial"",""time""
""fullscreenenter"",""1"",""2176""
","
","
","""event"",""trial"",""time""
""fullscreenenter"",""1"",""2176""
","
",,null,run_exp/static/audio/clip_1_welcome.m4a,null,"<p>Howdy! In this experiment, you’ll be an explorer traveling through space to collect space treasure.</p><p>Your mission is to collect as much treasure as possible.</p><br><br><p><img src='run_exp/static/images/task_images/opening_img-01.jpg' height='300' width='auto'></p>",9235,2752,21.03,Male,,,,,,,,,,,,,,,,,,,
audio-keyboard-response,3,29565,0.0-3.0,"""event"",""trial"",""time""
""fullscreenenter"",""1"",""2176""
","
","
","""event"",""trial"",""time""
""fullscreenenter"",""1"",""2176""
","
",,null,run_exp/static/audio/clip_2_move.m4a,null,,,,,,,,,,,,,,,,,,,,,,,,
welcome_dec,4,30231,0.0-4.0,"""event"",""trial"",""time""
""fullscreenenter"",""1"",""2176""
","
","
","""event"",""trial"",""time""
""fullscreenenter"",""1"",""2176""
","
",,663.1,"<p>Howdy! In this experiment, you’ll be an explorer traveling through space to collect space treasure.</p><p>Your mission is to collect as much treasure as possible.</p><br><br><p><img src='run_exp/static/images/task_images/opening_img-01.jpg' height='300' width='auto'></p>",,,,,,,1,,,,,,,,,,,,,,,,,,
html-keyboard-response,5,31213,0.0-5.0,"""event"",""trial"",""time""
""fullscreenenter"",""1"",""2176""
","
","
","""event"",""trial"",""time""
""fullscreenenter"",""1"",""2176""
","
",,980,"<p>Howdy! In this experiment, you’ll be an explorer traveling through space to collect space treasure.</p><p>Your mission is to collect as much treasure as possible.</p><br><br><p><img src='run_exp/static/images/task_images/opening_img-01.jpg' height='300' width='auto'></p><button class=""jspsych-html-btn-unchosen""><img src=""run_exp/static/images/task_images/planet-01.jpg"" height=""50""></button><button class=""jspsych-html-btn-chosen""><img src=""run_exp/static/images/task_images/planet-02.jpg"" height=""50""></button><p><b>[press the space bar to lock in your answer]<b><br></p>",32,,,,,,,,,,,,,,,,,,,,,,,,
instruc_goal,6,41298,0.0-6.0-0.0,"""event"",""trial"",""time""
""fullscreenenter"",""1"",""2176""
","
","
","""event"",""trial"",""time""
""fullscreenenter"",""1"",""2176""
","
",,null,run_exp/static/audio/clip_3_goal.m4a,null,"<p> As a space explorer, you’ll visit different planets to dig for space treasure, these pink gems.</p> <p> The more treasure you dig up, the more bonus money you’ll win! </p><br><br><p><img src='run_exp/static/images/task_images/pink_gem.jpg' height='300' width='auto'></p>",,,,,,,,,,,,,,,,,,,,,,,
instruc_goal,7,44019,0.0-6.0-1.0,"""event"",""trial"",""time""
""fullscreenenter"",""1"",""2176""
","
","
","""event"",""trial"",""time""
""fullscreenenter"",""1"",""2176""
","
",,2718.5,"<p> As a space explorer, you’ll visit different planets to dig for space treasure, these pink gems.</p> <p> The more treasure you dig up, the more bonus money you’ll win! </p><br><br><p><img src='run_exp/static/images/task_images/pink_gem.jpg' height='300' width='auto'></p>",,,,,,,1,,,,,,,,,,,,,,,,,,
html-keyboard-response,8,44711,0.0-6.0-2.0,"""event"",""trial"",""time""
""fullscreenenter"",""1"",""2176""
","
","
","""event"",""trial"",""time""
""fullscreenenter"",""1"",""2176""
","
",,689.7,"<p> As a space explorer, you’ll visit different planets to dig for space treasure, these pink gems.</p> <p> The more treasure you dig up, the more bonus money you’ll win! </p><br><br><p><img src='run_exp/static/images/task_images/pink_gem.jpg' height='300' width='auto'></p><button class=""jspsych-html-btn-unchosen""><img src=""run_exp/static/images/task_images/planet-01.jpg"" height=""50""></button><button class=""jspsych-html-btn-chosen""><img src=""run_exp/static/images/task_images/planet-02.jpg"" height=""50""></button><p><b>[press the space bar to lock in your answer]<b><br></p>",32,,,,,,,,,,,,,,,,,,,,,,,,
instruc_dig,9,60754,0.0-7.0-0.0,"""event"",""trial"",""time""
""fullscreenenter"",""1"",""2176""
","
","
","""event"",""trial"",""time""
""fullscreenenter"",""1"",""2176""
","
",,null,run_exp/static/audio/clip_4_dig.m4a,null,,,,,,,100,,,,,,,,,,,,,,,,,
instruc_dig_try,10,60930,0.0-7.0-1.0,"""event"",""trial"",""time""
""fullscreenenter"",""1"",""2176""
","
","
","""event"",""trial"",""time""
""fullscreenenter"",""1"",""2176""
","
",,174,"<p> When you’ve arrived at a new planet, you will dig once. </p> <p>Then, you get to decide if you want to stay on the planet and dig again or travel to a new planet and dig there.</p> <p> To stay and dig, press the letter <strong>‘A’</strong> on your keyboard. Try pressing it now! </p><p><img src='run_exp/static/images/task_images/land.jpg'  height='700' width='auto'></p>",65,"<p> When you’ve arrived at a new planet, you will dig once. </p> <p>Then, you get to decide if you want to stay on the planet and dig again or travel to a new planet and dig there.</p> <p> To stay and dig, press the letter <strong>‘A’</strong> on your keyboard. Try pressing it now! </p><p><img src='run_exp/static/images/task_images/land.jpg'  height='700' width='auto'></p>",,,,,,100,,,,,,,,,,,,,,,,,
dig_prac,11,62951,0.0-7.0-2.0,"""event"",""trial"",""time""
""fullscreenenter"",""1"",""2176""
","
","
","""event"",""trial"",""time""
""fullscreenenter"",""1"",""2176""
","
",,,,,,,,,,,,"[{""stimulus"":""run_exp/static/images/task_images/dig.jpg"",""time"":0.599999999627471},{""stimulus"":""run_exp/static/images/task_images/land.jpg"",""time"":674.8999999985099},{""stimulus"":""run_exp/static/images/task_images/dig.jpg"",""time"":1339.5999999996275}]",[],,,,,,,,,,,,,,,
instruc_travel,12,99217,0.0-7.0-3.0,"""event"",""trial"",""time""
""fullscreenenter"",""1"",""2176""
","
","
","""event"",""trial"",""time""
""fullscreenenter"",""1"",""2176""
","
",,null,run_exp/static/audio/clip_5_travel.m4a,null,"<p>Every time you dig up gems, there are less gems on the planet, so the more you dig on a planet the fewer gems you’ll get with each dig.</p><p>When gems are running low, you may want to travel to a new planet. </p> <p>  Planets are very far apart in this galaxy, so it will take some time to travel between them. </p> <br><p>There are lots and lots of planets for you to visit, so you won’t be able to return to any planets you’ve seen before. </p><br><p>To leave this planet and travel to a new one, press the letter <strong>‘L’</strong> on your keyboard. Try pressing it now! </p><p><img src='run_exp/static/images/task_images/rocket-01.jpg'  height='600' width='auto'></p>",,,,,,,,,,,,,,,,,,,,,,,
instruc_travel_try,13,99666,0.0-7.0-4.0,"""event"",""trial"",""time""
""fullscreenenter"",""1"",""2176""
","
","
","""event"",""trial"",""time""
""fullscreenenter"",""1"",""2176""
","
",,446.6,"<p>Every time you dig up gems, there are less gems on the planet, so the more you dig on a planet the fewer gems you’ll get with each dig.</p><p>When gems are running low, you may want to travel to a new planet. </p> <p>  Planets are very far apart in this galaxy, so it will take some time to travel between them. </p> <br><p>There are lots and lots of planets for you to visit, so you won’t be able to return to any planets you’ve seen before. </p><br><p>To leave this planet and travel to a new one, press the letter <strong>‘L’</strong> on your keyboard. Try pressing it now! </p><p><img src='run_exp/static/images/task_images/rocket-01.jpg'  height='600' width='auto'></p>",76,"<p>Every time you dig up gems, there are less gems on the planet, so the more you dig on a planet the fewer gems you’ll get with each dig.</p><p>When gems are running low, you may want to travel to a new planet. </p> <p>  Planets are very far apart in this galaxy, so it will take some time to travel between them. </p> <br><p>There are lots and lots of planets for you to visit, so you won’t be able to return to any planets you’ve seen before. </p><br><p>To leave this planet and travel to a new one, press the letter <strong>‘L’</strong> on your keyboard. Try pressing it now! </p><p><img src='run_exp/static/images/task_images/rocket-01.jpg'  height='600' width='auto'></p>",,,,,,,,,,,,,,,,,,,,,,,
travel_prac,14,109673,0.0-7.0-5.0,"""event"",""trial"",""time""
""fullscreenenter"",""1"",""2176""
","
","
","""event"",""trial"",""time""
""fullscreenenter"",""1"",""2176""
","
",,,,,,,,,,,,"[{""stimulus"":""run_exp/static/images/task_images/rocket-01.jpg"",""time"":0.5},{""stimulus"":""run_exp/static/images/task_images/rocket-02.jpg"",""time"":1116.699999999255},{""stimulus"":""run_exp/static/images/task_images/rocket-03.jpg"",""time"":2228.9000000003725},{""stimulus"":""run_exp/static/images/task_images/rocket-04.jpg"",""time"":3341.9000000003725},{""stimulus"":""run_exp/static/images/task_images/rocket-05.jpg"",""time"":4455.9000000003725},{""stimulus"":""run_exp/static/images/task_images/rocket-06.jpg"",""time"":5562},{""stimulus"":""run_exp/static/images/task_images/rocket-07.jpg"",""time"":6672.9000000003725},{""stimulus"":""run_exp/static/images/task_images/rocket-08.jpg"",""time"":7781.699999999255},{""stimulus"":""run_exp/static/images/task_images/rocket-09.jpg"",""time"":8897.800000000745}]",[],0,,,,,,,,,,,,,,
instruc_alien_greet,15,136892,0.0-7.0-6.0,"""event"",""trial"",""time""
""fullscreenenter"",""1"",""2176""
","
","
","""event"",""trial"",""time""
""fullscreenenter"",""1"",""2176""
","
",,null,run_exp/static/audio/clip_6_alien.m4a,null,"<p>When you arrive at a new planet, the alien who owns the treasure mine on that planet will greet you!</p><p>The better an alien takes care of their mine the easier it is to dig for gems. Some aliens take better care of their mine than others. So, you won’t get exactly the same amount of gems on each planet.</p><p>What the alien looks like does not tell you anything about how many gems there are on the planet.</p><br><p><img src=""run_exp/static/images/task_images/aliens/instructions_aliens/planet/alien_planet-1.jpg""  height=""600"" width=""auto""></p>",,,,,,,,,,,,,,,,,,,,,,,
instruc_alien_greet,16,139697,0.0-7.0-7.0,"""event"",""trial"",""time""
""fullscreenenter"",""1"",""2176""
","
","
","""event"",""trial"",""time""
""fullscreenenter"",""1"",""2176""
","
",,2801.7,"<p>When you arrive at a new planet, the alien who owns the treasure mine on that planet will greet you!</p><p>The better an alien takes care of their mine the easier it is to dig for gems. Some aliens take better care of their mine than others. So, you won’t get exactly the same amount of gems on each planet.</p><p>What the alien looks like does not tell you anything about how many gems there are on the planet.</p><br><p><img src=""run_exp/static/images/task_images/aliens/instructions_aliens/planet/alien_planet-1.jpg""  height=""600"" width=""auto""></p>",,,,,,,1,,,,,,,,,,,,,,,,,,
html-keyboard-response,17,140200,0.0-7.0-8.0,"""event"",""trial"",""time""
""fullscreenenter"",""1"",""2176""
","
","
","""event"",""trial"",""time""
""fullscreenenter"",""1"",""2176""
","
",,499.9,"<p>When you arrive at a new planet, the alien who owns the treasure mine on that planet will greet you!</p><p>The better an alien takes care of their mine the easier it is to dig for gems. Some aliens take better care of their mine than others. So, you won’t get exactly the same amount of gems on each planet.</p><p>What the alien looks like does not tell you anything about how many gems there are on the planet.</p><br><p><img src=""run_exp/static/images/task_images/aliens/instructions_aliens/planet/alien_planet-1.jpg""  height=""600"" width=""auto""></p><button class=""jspsych-html-btn-unchosen""><img src=""run_exp/static/images/task_images/planet-01.jpg"" height=""50""></button><button class=""jspsych-html-btn-chosen""><img src=""run_exp/static/images/task_images/planet-02.jpg"" height=""50""></button><p><b>[press the space bar to lock in your answer]<b><br></p>",32,,,,,,,,,,,,,,,,,,,,,,,,
time_out,18,151313,0.0-8.0-0.0,"""event"",""trial"",""time""
""fullscreenenter"",""1"",""2176""
","
","
","""event"",""trial"",""time""
""fullscreenenter"",""1"",""2176""
","
",,null,run_exp/static/audio/clip_7_timeout.m4a,null,"<p>If you don't make your choice fast enough, you’ll have to wait a few seconds before you can make another one.</p><p>You can’t dig for more gems or travel to new planets. You just have to sit and wait.</p><br><p><img src='run_exp/static/images/task_images/time_out.jpg'  height='600' width='auto'></p>",,,,,,,,,,,,,,,,,,,,,,,
time_out,19,153545,0.0-8.0-1.0,"""event"",""trial"",""time""
""fullscreenenter"",""1"",""2176""
","
","
","""event"",""trial"",""time""
""fullscreenenter"",""1"",""2176""
","
",,2229.6,"<p>If you don't make your choice fast enough, you’ll have to wait a few seconds before you can make another one.</p><p>You can’t dig for more gems or travel to new planets. You just have to sit and wait.</p><br><p><img src='run_exp/static/images/task_images/time_out.jpg'  height='600' width='auto'></p>",,,,,,,1,,,,,,,,,,,,,,,,,,
html-keyboard-response,20,154408,0.0-8.0-2.0,"""event"",""trial"",""time""
""fullscreenenter"",""1"",""2176""
","
","
","""event"",""trial"",""time""
""fullscreenenter"",""1"",""2176""
","
",,861.5,"<p>If you don't make your choice fast enough, you’ll have to wait a few seconds before you can make another one.</p><p>You can’t dig for more gems or travel to new planets. You just have to sit and wait.</p><br><p><img src='run_exp/static/images/task_images/time_out.jpg'  height='600' width='auto'></p><button class=""jspsych-html-btn-unchosen""><img src=""run_exp/static/images/task_images/planet-01.jpg"" height=""50""></button><button class=""jspsych-html-btn-chosen""><img src=""run_exp/static/images/task_images/planet-02.jpg"" height=""50""></button><p><b>[press the space bar to lock in your answer]<b><br></p>",32,,,,,,,,,,,,,,,,,,,,,,,,
instruc_break,21,170086,0.0-9.0-0.0,"""event"",""trial"",""time""
""fullscreenenter"",""1"",""2176""
","
","
","""event"",""trial"",""time""
""fullscreenenter"",""1"",""2176""
","
",,null,run_exp/static/audio/clip_8_break.m4a,null,"<p> After digging and traveling for a while, you’ll be able to take a break at home base. </p><p>The game will last 20 minutes no matter what.</p><p>You will visit home base every 5 minutes, so, you will visit home base three times during the game.</p><br><p><img src='run_exp/static/images/task_images/home_base.jpg' height='600' width='auto'></p>",,,,,,,,,,,,,,,,,,,,,,,
instruc_break,22,172312,0.0-9.0-1.0,"""event"",""trial"",""time""
""fullscreenenter"",""1"",""2176""
","
","
","""event"",""trial"",""time""
""fullscreenenter"",""1"",""2176""
","
",,2223,"<p> After digging and traveling for a while, you’ll be able to take a break at home base. </p><p>The game will last 20 minutes no matter what.</p><p>You will visit home base every 5 minutes, so, you will visit home base three times during the game.</p><br><p><img src='run_exp/static/images/task_images/home_base.jpg' height='600' width='auto'></p>",,,,,,,1,,,,,,,,,,,,,,,,,,
html-keyboard-response,23,173637,0.0-9.0-2.0,"""event"",""trial"",""time""
""fullscreenenter"",""1"",""2176""
","
","
","""event"",""trial"",""time""
""fullscreenenter"",""1"",""2176""
","
",,1324.1,"<p> After digging and traveling for a while, you’ll be able to take a break at home base. </p><p>The game will last 20 minutes no matter what.</p><p>You will visit home base every 5 minutes, so, you will visit home base three times during the game.</p><br><p><img src='run_exp/static/images/task_images/home_base.jpg' height='600' width='auto'></p><button class=""jspsych-html-btn-unchosen""><img src=""run_exp/static/images/task_images/planet-01.jpg"" height=""50""></button><button class=""jspsych-html-btn-chosen""><img src=""run_exp/static/images/task_images/planet-02.jpg"" height=""50""></button><p><b>[press the space bar to lock in your answer]<b><br></p>",32,,,,,,,,,,,,,,,,,,,,,,,,
instruc_prac_game,24,183782,0.0-10.0-0.0,"""event"",""trial"",""time""
""fullscreenenter"",""1"",""2176""
","
","
","""event"",""trial"",""time""
""fullscreenenter"",""1"",""2176""
","
",,null,run_exp/static/audio/clip_9_practice.m4a,null,"<p> Are you ready to play a practice game? </p> <p>In this practice game, you'll be digging up barrels of gems. But, in the real game, you'll be digging up the gems themselves. </p>",,,,,,,,,,,,,,,,,,,,,,,
html-button-response,25,185479,0.0-10.0-1.0,"""event"",""trial"",""time""
""fullscreenenter"",""1"",""2176""
","
","
","""event"",""trial"",""time""
""fullscreenenter"",""1"",""2176""
","
",,1695.4,"<p> Are you ready to play a practice game? </p> <p>In this practice game, you'll be digging up barrels of gems. But, in the real game, you'll be digging up the gems themselves. </p>",,,,,,,0,,,,,,,,,,,,,,,,,,
alien_welcome_prac,26,190490,0.0-11.0-0.0,"""event"",""trial"",""time""
""fullscreenenter"",""1"",""2176""
","
","
","""event"",""trial"",""time""
""fullscreenenter"",""1"",""2176""
","
",,null,run_exp/static/images/task_images/aliens/practice_aliens/planet/alien_planet-5.jpg,null,,,,,,,,,,,,,,,,,,,,,,,,
land_prac,27,191002,0.0-11.0-1.0,"""event"",""trial"",""time""
""fullscreenenter"",""1"",""2176""
","
","
","""event"",""trial"",""time""
""fullscreenenter"",""1"",""2176""
","
",,null,run_exp/static/images/task_images/land.jpg,null,,,,,,,92,,,0,,,,,,,,,,,,,,
dig_prac,28,193016,0.0-11.0-2.0,"""event"",""trial"",""time""
""fullscreenenter"",""1"",""2176""
","
","
","""event"",""trial"",""time""
""fullscreenenter"",""1"",""2176""
","
",,,,,,,,,,,,"[{""stimulus"":""run_exp/static/images/task_images/dig.jpg"",""time"":0.599999999627471},{""stimulus"":""run_exp/static/images/task_images/land.jpg"",""time"":673.6999999992549},{""stimulus"":""run_exp/static/images/task_images/dig.jpg"",""time"":1337.699999999255}]",[],,,,,,,,,,,,,,,
harvest_prac,29,194023,0.0-11.0-3.0,"""event"",""trial"",""time""
""fullscreenenter"",""1"",""2176""
","
","
","""event"",""trial"",""time""
""fullscreenenter"",""1"",""2176""
","
",,null,run_exp/static/images/task_images/barrel_text.jpg,null,,,,,,,,,,,,,,,,,,,,,,,,
decision_prac,30,196085,0.0-11.0-4.0,"""event"",""trial"",""time""
""fullscreenenter"",""1"",""2176""
","
","
","""event"",""trial"",""time""
""fullscreenenter"",""1"",""2176""
","
",,2060,run_exp/static/images/task_images/land.jpg,65,,,,,,,,,,,1,,,,,,,,,,,,,
dig_prac,31,198098,0.0-12.0-0.0,"""event"",""trial"",""time""
""fullscreenenter"",""1"",""2176""
","
","
","""event"",""trial"",""time""
""fullscreenenter"",""1"",""2176""
","
",,,,,,,,,,,,"[{""stimulus"":""run_exp/static/images/task_images/dig.jpg"",""time"":0.19999999925494194},{""stimulus"":""run_exp/static/images/task_images/land.jpg"",""time"":673.0999999996275},{""stimulus"":""run_exp/static/images/task_images/dig.jpg"",""time"":1342.699999999255}]",[],,,,,,,,,,,,,,,
harvest_prac,32,199104,0.0-12.0-1.0,"""event"",""trial"",""time""
""fullscreenenter"",""1"",""2176""
","
","
","""event"",""trial"",""time""
""fullscreenenter"",""1"",""2176""
","
",,null,run_exp/static/images/task_images/barrel_text.jpg,null,,,,,,,,,,,,,,,,,,,,,,,,
decision_prac,33,200805,0.0-12.0-2.0,"""event"",""trial"",""time""
""fullscreenenter"",""1"",""2176""
","
","
","""event"",""trial"",""time""
""fullscreenenter"",""1"",""2176""
","
",,1698.9,run_exp/static/images/task_images/land.jpg,65,,,,,,,,,,,2,,,,,,,,,,,,,
dig_prac,34,202818,0.0-13.0-0.0,"""event"",""trial"",""time""
""fullscreenenter"",""1"",""2176""
","
","
","""event"",""trial"",""time""
""fullscreenenter"",""1"",""2176""
","
",,,,,,,,,,,,"[{""stimulus"":""run_exp/static/images/task_images/dig.jpg"",""time"":0.30000000074505806},{""stimulus"":""run_exp/static/images/task_images/land.jpg"",""time"":681.3000000007451},{""stimulus"":""run_exp/static/images/task_images/dig.jpg"",""time"":1336.1000000014901}]",[],,,,,,,,,,,,,,,
harvest_prac,35,203823,0.0-13.0-1.0,"""event"",""trial"",""time""
""fullscreenenter"",""1"",""2176""
","
","
","""event"",""trial"",""time""
""fullscreenenter"",""1"",""2176""
","
",,null,run_exp/static/images/task_images/barrel_text.jpg,null,,,,,,,,,,,,,,,,,,,,,,,,
decision_prac,36,204925,0.0-13.0-2.0,"""event"",""trial"",""time""
""fullscreenenter"",""1"",""2176""
","
","
","""event"",""trial"",""time""
""fullscreenenter"",""1"",""2176""
","
",,1100.4,run_exp/static/images/task_images/land.jpg,65,,,,,,,,,,,3,,,,,,,,,,,,,
dig_prac,37,206938,0.0-14.0-0.0,"""event"",""trial"",""time""
""fullscreenenter"",""1"",""2176""
","
","
","""event"",""trial"",""time""
""fullscreenenter"",""1"",""2176""
","
",,,,,,,,,,,,"[{""stimulus"":""run_exp/static/images/task_images/dig.jpg"",""time"":0.2000000011175871},{""stimulus"":""run_exp/static/images/task_images/land.jpg"",""time"":669.7000000011176},{""stimulus"":""run_exp/static/images/task_images/dig.jpg"",""time"":1336.300000000745}]",[],,,,,,,,,,,,,,,
harvest_prac,38,207946,0.0-14.0-1.0,"""event"",""trial"",""time""
""fullscreenenter"",""1"",""2176""
","
","
","""event"",""trial"",""time""
""fullscreenenter"",""1"",""2176""
","
",,null,run_exp/static/images/task_images/barrel_text.jpg,null,,,,,,,,,,,,,,,,,,,,,,,,
decision_prac,39,209072,0.0-14.0-2.0,"""event"",""trial"",""time""
""fullscreenenter"",""1"",""2176""
","
","
","""event"",""trial"",""time""
""fullscreenenter"",""1"",""2176""
","
",,1124.2,run_exp/static/images/task_images/land.jpg,65,,,,,,,,,,,4,,,,,,,,,,,,,
dig_prac,40,211090,0.0-15.0-0.0,"""event"",""trial"",""time""
""fullscreenenter"",""1"",""2176""
","
","
","""event"",""trial"",""time""
""fullscreenenter"",""1"",""2176""
","
",,,,,,,,,,,,"[{""stimulus"":""run_exp/static/images/task_images/dig.jpg"",""time"":0.2000000011175871},{""stimulus"":""run_exp/static/images/task_images/land.jpg"",""time"":674.9000000003725},{""stimulus"":""run_exp/static/images/task_images/dig.jpg"",""time"":1338}]",[],,,,,,,,,,,,,,,
harvest_prac,41,212097,0.0-15.0-1.0,"""event"",""trial"",""time""
""fullscreenenter"",""1"",""2176""
","
","
","""event"",""trial"",""time""
""fullscreenenter"",""1"",""2176""
","
",,null,run_exp/static/images/task_images/barrel_text.jpg,null,,,,,,,,,,,,,,,,,,,,,,,,
decision_prac,42,213281,0.0-15.0-2.0,"""event"",""trial"",""time""
""fullscreenenter"",""1"",""2176""
","
","
","""event"",""trial"",""time""
""fullscreenenter"",""1"",""2176""
","
",,1182.3,run_exp/static/images/task_images/land.jpg,65,,,,,,,,,,,,1,,,,,,,,,,,,
quiz_instruc,43,220497,0.0-16.0-0.0,"""event"",""trial"",""time""
""fullscreenenter"",""1"",""2176""
","
","
","""event"",""trial"",""time""
""fullscreenenter"",""1"",""2176""
","
",,7211.1,run_exp/static/audio/clip_10_quiz.m4a,,,,,,,0,,,,,,,,,,,,,,,,,,
instruc_repeat,44,263291,0.0-16.0-1.0,"""event"",""trial"",""time""
""fullscreenenter"",""1"",""2176""
","
","
","""event"",""trial"",""time""
""fullscreenenter"",""1"",""2176""
","
",,null,"<p> Are you ready to play a practice game? </p> <p>In this practice game, you'll be digging up barrels of gems. But, in the real game, you'll be digging up the gems themselves. </p>",null,"<p>In this game, your goal is to collect as many gems as you can. That’s how you will win bonus money. </p> <p>The entire game will last 20 minutes no matter how many gems you collect or how many planets you visit. </p><p>To stay on a planet and dig again, press the letter A on your keyboard. To leave for a new planet, press the letter L.</p><p>The more you dig on a planet, the fewer gems you’ll get with each dig which is why you might consider leaving for a new planet. </p><p>When you arrive at a new planet, you’ll be greeted by an alien. What the alien looks like does not tell you anything about how much treasure is on the planet. </p>",,,,,,,,,,,,,,,,,,,,,,,
instruc_repeat_continue,45,265080,0.0-16.0-2.0,"""event"",""trial"",""time""
""fullscreenenter"",""1"",""2176""
","
","
","""event"",""trial"",""time""
""fullscreenenter"",""1"",""2176""
","
",,1786.9,"<p> Are you ready to play a practice game? </p> <p>In this practice game, you'll be digging up barrels of gems. But, in the real game, you'll be digging up the gems themselves. </p>",,,,,,,0,,,,,,,,,,,,,,,,,,
quiz_q_1_ask,46,267963,0.0-16.0-3.0,"""event"",""trial"",""time""
""fullscreenenter"",""1"",""2176""
","
","
","""event"",""trial"",""time""
""fullscreenenter"",""1"",""2176""
","
",,2879.9,run_exp/static/audio/clip_11_q1_ask.m4a,,,,,,,2,,,,,,,,,,,,,,,,,,
quiz_q_1_fb_correct,47,271803,0.0-17.0-0.0,"""event"",""trial"",""time""
""fullscreenenter"",""1"",""2176""
","
","
","""event"",""trial"",""time""
""fullscreenenter"",""1"",""2176""
","
",,null,run_exp/static/audio/clip_12_q1_correct.m4a,null,<p>That’s correct. You win extra money by collecting more gems.</p>,,,,,,,,,,,,,,,,,,,,,,,
quiz_q_2_ask,48,274497,0.0-17.0-1.0,"""event"",""trial"",""time""
""fullscreenenter"",""1"",""2176""
","
","
","""event"",""trial"",""time""
""fullscreenenter"",""1"",""2176""
","
",,2687.7,run_exp/static/audio/clip_14_q2_ask.m4a,,,,,,,1,,,,,,,,,,,,,,,,,,
quiz_q_2_fb_correct,49,278502,0.0-18.0-0.0,"""event"",""trial"",""time""
""fullscreenenter"",""1"",""2176""
","
","
","""event"",""trial"",""time""
""fullscreenenter"",""1"",""2176""
","
",,null,run_exp/static/audio/clip_15_q2_correct.m4a,null,<p>That’s correct. The experiment is 20 minutes no matter what.</p>,,,,,,,,,,,,,,,,,,,,,,,
quiz_q_3_ask,50,280997,0.0-18.0-1.0,"""event"",""trial"",""time""
""fullscreenenter"",""1"",""2176""
","
","
","""event"",""trial"",""time""
""fullscreenenter"",""1"",""2176""
","
",,2492.6,run_exp/static/audio/clip_17_q3_ask.m4a,,,,,,,1,,,,,,,,,,,,,,,,,,
quiz_q_3_fb_correct,51,284966,0.0-19.0-0.0,"""event"",""trial"",""time""
""fullscreenenter"",""1"",""2176""
","
","
","""event"",""trial"",""time""
""fullscreenenter"",""1"",""2176""
","
",,null,run_exp/static/audio/clip_18_q3_correct.m4a,null,<p> That’s correct. You press the letter L to travel to a new planet.</p>,,,,,,,,,,,,,,,,,,,,,,,
quiz_q_4_ask,52,287213,0.0-19.0-1.0,"""event"",""trial"",""time""
""fullscreenenter"",""1"",""2176""
","
","
","""event"",""trial"",""time""
""fullscreenenter"",""1"",""2176""
","
",,2245.3,run_exp/static/audio/clip_20_q4_ask.m4a,,,,,,,0,,,,,,,,,,,,,,,,,,
quiz_q_4_fb_correct,53,292519,0.0-20.0-0.0,"""event"",""trial"",""time""
""fullscreenenter"",""1"",""2176""
","
","
","""event"",""trial"",""time""
""fullscreenenter"",""1"",""2176""
","
",,null,run_exp/static/audio/clip_21_q4_correct.m4a,null,<p> That’s correct. The more you dig on a planet the fewer gems you’ll get with each dig. </p>,,,,,,,,,,,,,,,,,,,,,,,
quiz_q_5_ask,54,295663,0.0-20.0-1.0,"""event"",""trial"",""time""
""fullscreenenter"",""1"",""2176""
","
","
","""event"",""trial"",""time""
""fullscreenenter"",""1"",""2176""
","
",,3141.1,run_exp/static/audio/clip_23_q5_ask.m4a,,,,,,,1,,,,,,,,,,,,,,,,,,
quiz_q_5_fb_correct,55,300667,0.0-21.0-0.0,"""event"",""trial"",""time""
""fullscreenenter"",""1"",""2176""
","
","
","""event"",""trial"",""time""
""fullscreenenter"",""1"",""2176""
","
",,null,run_exp/static/audio/clip_24_q5_correct.m4a,null,<p> That’s correct. The alien tells you nothing about how much treasure is on the planet.</p>,,,,,,,,,,,,,,,,,,,,,,,
quiz_correct,56,304123,0.0-22.0-0.0,"""event"",""trial"",""time""
""fullscreenenter"",""1"",""2176""
","
","
","""event"",""trial"",""time""
""fullscreenenter"",""1"",""2176""
","
",,null,run_exp/static/audio/clip_26_correct_quiz.m4a,null,,,,,,,,,,,,,,,,,,,,,,,,
quiz_correct_continue,57,305563,0.0-22.0-1.0,"""event"",""trial"",""time""
""fullscreenenter"",""1"",""2176""
","
","
","""event"",""trial"",""time""
""fullscreenenter"",""1"",""2176""
","
",,1437.8,<p>Good job! You're now ready to move on to the real game!</p>,,,,,,,0,,,,,,,,,,,,,,,,,,
audio-keyboard-response,58,315664,0.0-22.0-2.0,"""event"",""trial"",""time""
""fullscreenenter"",""1"",""2176""
","
","
","""event"",""trial"",""time""
""fullscreenenter"",""1"",""2176""
","
",,null,run_exp/static/audio/clip_28_real_game.m4a,null,,,,,,,,,,,,,,,,,,,,,,,,
instruc_begin_exp_contine,59,316597,0.0-22.0-3.0,"""event"",""trial"",""time""
""fullscreenenter"",""1"",""2176""
","
","
","""event"",""trial"",""time""
""fullscreenenter"",""1"",""2176""
","
",,930.2,"<p>Now that you know how  to dig for space treasure and travel to new planets,you can start exploring! </p><p>Do you want to go over the instructions again or get started with the real game?</p>",,,,,,,1,,,,,,1,,,,,,,,,,,,
alien_welcome,60,321603,0.0-23.0-0.0,"""event"",""trial"",""time""
""fullscreenenter"",""1"",""2176""
","
","
","""event"",""trial"",""time""
""fullscreenenter"",""1"",""2176""
","
",,null,run_exp/static/images/task_images/aliens/old_aliens/planet/alien_planet-65.jpg,null,,,,,,,,,,,,,65,"65,9,2,79,51,14,19,13,71,36,5,47,8,57,46,55,4,73,32,15,80,72,21,58,6,12,62,69,26,27,53,34,10,68,3,7,48,37,31,75,78,18,40,45,74,39,63,56,41,23,25,64,76,52,17,24,67,43,33,70,66",,,,,,,,,,
land,61,322116,0.0-23.0-1.0,"""event"",""trial"",""time""
""fullscreenenter"",""1"",""2176""
","
","
","""event"",""trial"",""time""
""fullscreenenter"",""1"",""2176""
","
",,null,run_exp/static/images/task_images/land.jpg,null,,,,,,,89,,,1,,,,,,,,,,,,,,
dig,62,324133,0.0-23.0-2.0,"""event"",""trial"",""time""
""fullscreenenter"",""1"",""2176""
","
","
","""event"",""trial"",""time""
""fullscreenenter"",""1"",""2176""
","
",,,,,,,,,,,,"[{""stimulus"":""run_exp/static/images/task_images/dig.jpg"",""time"":0.5},{""stimulus"":""run_exp/static/images/task_images/land.jpg"",""time"":675.4000000003725},{""stimulus"":""run_exp/static/images/task_images/dig.jpg"",""time"":1338.300000000745}]",[],1,,,,,,,,,,,,,,
harvest,63,325140,0.0-23.0-3.0,"""event"",""trial"",""time""
""fullscreenenter"",""1"",""2176""
","
","
","""event"",""trial"",""time""
""fullscreenenter"",""1"",""2176""
","
",,null,run_exp/static/images/task_images/gems/89.jpg,null,,,,,,,23,,,1,,,,,89,0.256406942,0.258426966,,,,,,,
decision,64,326239,0.0-23.0-4.0,"""event"",""trial"",""time""
""fullscreenenter"",""1"",""2176""
","
","
","""event"",""trial"",""time""
""fullscreenenter"",""1"",""2176""
","
",,1096,run_exp/static/images/task_images/land.jpg,65,,,,,,,23,,,1,,,,,,,,9640,1,0,FALSE,,,
dig,65,328156,0.0-24.0-0.0,"""event"",""trial"",""time""
""fullscreenenter"",""1"",""2176""
","
","
","""event"",""trial"",""time""
""fullscreenenter"",""1"",""2176""
","
",,,,,,,,,,,,"[{""stimulus"":""run_exp/static/images/task_images/dig.jpg"",""time"":0.40000000037252903},{""stimulus"":""run_exp/static/images/task_images/land.jpg"",""time"":643.0999999996275},{""stimulus"":""run_exp/static/images/task_images/dig.jpg"",""time"":1275.5}]",[],1,,,,,,,,,,,,,,
harvest,66,329165,0.0-24.0-1.0,"""event"",""trial"",""time""
""fullscreenenter"",""1"",""2176""
","
","
","""event"",""trial"",""time""
""fullscreenenter"",""1"",""2176""
","
",,null,run_exp/static/images/task_images/gems/23.jpg,null,,,,,,,5,,,1,,,,,23,0.236064268,0.217391304,,,,,,,
decision,67,329178,0.0-24.0-2.0,"""event"",""trial"",""time""
""fullscreenenter"",""1"",""2176""
","
","
","""event"",""trial"",""time""
""fullscreenenter"",""1"",""2176""
","
",,11.7,run_exp/static/images/task_images/land.jpg,65,,,,,,,5,,,1,,,,,,,,12579,1,1,FALSE,,,
dig,68,332177,0.0-25.0-0.0,"""event"",""trial"",""time""
""fullscreenenter"",""1"",""2176""
","
","
","""event"",""trial"",""time""
""fullscreenenter"",""1"",""2176""
","
",,,,,,,,,,,,"[{""stimulus"":""run_exp/static/images/task_images/dig.jpg"",""time"":0.09999999962747097},{""stimulus"":""run_exp/static/images/task_images/land.jpg"",""time"":1004.7999999988824},{""stimulus"":""run_exp/static/images/task_images/dig.jpg"",""time"":1998.8999999985099}]",[],1,,,,,,,,,,,,,,
harvest,69,333185,0.0-25.0-1.0,"""event"",""trial"",""time""
""fullscreenenter"",""1"",""2176""
","
","
","""event"",""trial"",""time""
""fullscreenenter"",""1"",""2176""
","
",,null,run_exp/static/images/task_images/gems/5.jpg,null,,,,,,,1,,,1,,,,,5,0.186824854,0.2,,,,,,,
decision,70,333360,0.0-25.0-2.0,"""event"",""trial"",""time""
""fullscreenenter"",""1"",""2176""
","
","
","""event"",""trial"",""time""
""fullscreenenter"",""1"",""2176""
","
",,172.6,run_exp/static/images/task_images/land.jpg,76,,,,,,,1,,,1,,,,,,,,16761,1,2,TRUE,,,
travel,71,343189,0.0-26.0-0.0,"""event"",""trial"",""time""
""fullscreenenter"",""1"",""2176""
","
","
","""event"",""trial"",""time""
""fullscreenenter"",""1"",""2176""
","
",,,,,,,,,,,,"[{""stimulus"":""run_exp/static/images/task_images/rocket-01.jpg"",""time"":0.30000000074505806},{""stimulus"":""run_exp/static/images/task_images/rocket-02.jpg"",""time"":1094},{""stimulus"":""run_exp/static/images/task_images/rocket-03.jpg"",""time"":2193.800000000745},{""stimulus"":""run_exp/static/images/task_images/rocket-04.jpg"",""time"":3278.300000000745},{""stimulus"":""run_exp/static/images/task_images/rocket-05.jpg"",""time"":4368.10000000149},{""stimulus"":""run_exp/static/images/task_images/rocket-06.jpg"",""time"":5466},{""stimulus"":""run_exp/static/images/task_images/rocket-07.jpg"",""time"":6554.300000000745},{""stimulus"":""run_exp/static/images/task_images/rocket-08.jpg"",""time"":7649.5},{""stimulus"":""run_exp/static/images/task_images/rocket-09.jpg"",""time"":8735.60000000149}]",[],1,,,,,,,,,,,,,,
alien_welcome,72,348195,0.0-26.0-1.0,"""event"",""trial"",""time""
""fullscreenenter"",""1"",""2176""
","
","
","""event"",""trial"",""time""
""fullscreenenter"",""1"",""2176""
","
",,null,run_exp/static/images/task_images/aliens/old_aliens/planet/alien_planet-9.jpg,null,,,,,,,,,,,,,9,"65,9,2,79,51,14,19,13,71,36,5,47,8,57,46,55,4,73,32,15,80,72,21,58,6,12,62,69,26,27,53,34,10,68,3,7,48,37,31,75,78,18,40,45,74,39,63,56,41,23,25,64,76,52,17,24,67,43,33,70,66",,,,,,,,,,
land,73,348706,0.0-26.0-2.0,"""event"",""trial"",""time""
""fullscreenenter"",""1"",""2176""
","
","
","""event"",""trial"",""time""
""fullscreenenter"",""1"",""2176""
","
",,null,run_exp/static/images/task_images/land.jpg,null,,,,,,,103,,,2,,,,,,,,,,,,,,
dig,74,350714,0.0-26.0-3.0,"""event"",""trial"",""time""
""fullscreenenter"",""1"",""2176""
","
","
","""event"",""trial"",""time""
""fullscreenenter"",""1"",""2176""
","
",,,,,,,,,,,,"[{""stimulus"":""run_exp/static/images/task_images/dig.jpg"",""time"":0.30000000074505806},{""stimulus"":""run_exp/static/images/task_images/land.jpg"",""time"":673.5},{""stimulus"":""run_exp/static/images/task_images/dig.jpg"",""time"":1340.7000000011176}]",[],2,,,,,,,,,,,,,,
harvest,75,351716,0.0-26.0-4.0,"""event"",""trial"",""time""
""fullscreenenter"",""1"",""2176""
","
","
","""event"",""trial"",""time""
""fullscreenenter"",""1"",""2176""
","
",,null,run_exp/static/images/task_images/gems/103.jpg,null,,,,,,,31,,,2,,,,,103,0.30325846,0.300970874,,,,,,,
decision,76,352676,0.0-26.0-5.0,"""event"",""trial"",""time""
""fullscreenenter"",""1"",""2176""
","
","
","""event"",""trial"",""time""
""fullscreenenter"",""1"",""2176""
","
",,957.9,run_exp/static/images/task_images/land.jpg,65,,,,,,,31,,,2,,,,,,,,36078,1,0,FALSE,,,
dig,77,354731,0.0-27.0-0.0,"""event"",""trial"",""time""
""fullscreenenter"",""1"",""2176""
","
","
","""event"",""trial"",""time""
""fullscreenenter"",""1"",""2176""
","
",,,,,,,,,,,,"[{""stimulus"":""run_exp/static/images/task_images/dig.jpg"",""time"":0.19999999925494194},{""stimulus"":""run_exp/static/images/task_images/land.jpg"",""time"":692.5999999996275},{""stimulus"":""run_exp/static/images/task_images/dig.jpg"",""time"":1372.4000000003725}]",[],2,,,,,,,,,,,,,,
harvest,78,355740,0.0-27.0-1.0,"""event"",""trial"",""time""
""fullscreenenter"",""1"",""2176""
","
","
","""event"",""trial"",""time""
""fullscreenenter"",""1"",""2176""
","
",,null,run_exp/static/images/task_images/gems/31.jpg,null,,,,,,,7,,,2,,,,,31,0.232966997,0.225806452,,,,,,,
decision,79,356726,0.0-27.0-2.0,"""event"",""trial"",""time""
""fullscreenenter"",""1"",""2176""
","
","
","""event"",""trial"",""time""
""fullscreenenter"",""1"",""2176""
","
",,984.4,run_exp/static/images/task_images/land.jpg,65,,,,,,,7,,,2,,,,,,,,40127,1,1,FALSE,,,
dig,80,358744,0.0-28.0-0.0,"""event"",""trial"",""time""
""fullscreenenter"",""1"",""2176""
","
","
","""event"",""trial"",""time""
""fullscreenenter"",""1"",""2176""
","
",,,,,,,,,,,,"[{""stimulus"":""run_exp/static/images/task_images/dig.jpg"",""time"":0.30000000074505806},{""stimulus"":""run_exp/static/images/task_images/land.jpg"",""time"":683.2000000011176},{""stimulus"":""run_exp/static/images/task_images/dig.jpg"",""time"":1353.800000000745}]",[],2,,,,,,,,,,,,,,
harvest,81,359752,0.0-28.0-1.0,"""event"",""trial"",""time""
""fullscreenenter"",""1"",""2176""
","
","
","""event"",""trial"",""time""
""fullscreenenter"",""1"",""2176""
","
",,null,run_exp/static/images/task_images/gems/7.jpg,null,,,,,,,2,,,2,,,,,7,0.28599561,0.285714286,,,,,,,
decision,82,360382,0.0-28.0-2.0,"""event"",""trial"",""time""
""fullscreenenter"",""1"",""2176""
","
","
","""event"",""trial"",""time""
""fullscreenenter"",""1"",""2176""
","
",,628.4,run_exp/static/images/task_images/land.jpg,76,,,,,,,2,,,2,,,,,,,,43783,1,2,TRUE,,,
travel,83,369754,0.0-29.0-0.0,"""event"",""trial"",""time""
""fullscreenenter"",""1"",""2176""
","
","
","""event"",""trial"",""time""
""fullscreenenter"",""1"",""2176""
","
",,,,,,,,,,,,"[{""stimulus"":""run_exp/static/images/task_images/rocket-01.jpg"",""time"":0.10000000149011612},{""stimulus"":""run_exp/static/images/task_images/rocket-02.jpg"",""time"":1052.4000000003725},{""stimulus"":""run_exp/static/images/task_images/rocket-03.jpg"",""time"":2089.60000000149},{""stimulus"":""run_exp/static/images/task_images/rocket-04.jpg"",""time"":3132.2000000011176},{""stimulus"":""run_exp/static/images/task_images/rocket-05.jpg"",""time"":4172.300000000745},{""stimulus"":""run_exp/static/images/task_images/rocket-06.jpg"",""time"":5208.5},{""stimulus"":""run_exp/static/images/task_images/rocket-07.jpg"",""time"":6252.300000000745},{""stimulus"":""run_exp/static/images/task_images/rocket-08.jpg"",""time"":7300.10000000149},{""stimulus"":""run_exp/static/images/task_images/rocket-09.jpg"",""time"":8335.700000001118}]",[],2,,,,,,,,,,,,,,
alien_welcome,84,374764,0.0-29.0-1.0,"""event"",""trial"",""time""
""fullscreenenter"",""1"",""2176""
","
","
","""event"",""trial"",""time""
""fullscreenenter"",""1"",""2176""
","
",,null,run_exp/static/images/task_images/aliens/old_aliens/planet/alien_planet-2.jpg,null,,,,,,,,,,,,,2,"65,9,2,79,51,14,19,13,71,36,5,47,8,57,46,55,4,73,32,15,80,72,21,58,6,12,62,69,26,27,53,34,10,68,3,7,48,37,31,75,78,18,40,45,74,39,63,56,41,23,25,64,76,52,17,24,67,43,33,70,66",,,,,,,,,,
land,85,375273,0.0-29.0-2.0,"""event"",""trial"",""time""
""fullscreenenter"",""1"",""2176""
","
","
","""event"",""trial"",""time""
""fullscreenenter"",""1"",""2176""
","
",,null,run_exp/static/images/task_images/land.jpg,null,,,,,,,101,,,3,,,,,,,,,,,,,,
dig,86,377290,0.0-29.0-3.0,"""event"",""trial"",""time""
""fullscreenenter"",""1"",""2176""
","
","
","""event"",""trial"",""time""
""fullscreenenter"",""1"",""2176""
","
",,,,,,,,,,,,"[{""stimulus"":""run_exp/static/images/task_images/dig.jpg"",""time"":0.30000000074505806},{""stimulus"":""run_exp/static/images/task_images/land.jpg"",""time"":678.9000000003725},{""stimulus"":""run_exp/static/images/task_images/dig.jpg"",""time"":1341.2000000011176}]",[],3,,,,,,,,,,,,,,
harvest,87,378297,0.0-29.0-4.0,"""event"",""trial"",""time""
""fullscreenenter"",""1"",""2176""
","
","
","""event"",""trial"",""time""
""fullscreenenter"",""1"",""2176""
","
",,null,run_exp/static/images/task_images/gems/101.jpg,null,,,,,,,57,,,3,,,,,101,0.567687012,0.564356436,,,,,,,
decision,88,378696,0.0-29.0-5.0,"""event"",""trial"",""time""
""fullscreenenter"",""1"",""2176""
","
","
","""event"",""trial"",""time""
""fullscreenenter"",""1"",""2176""
","
",,397.6,run_exp/static/images/task_images/land.jpg,65,,,,,,,57,,,3,,,,,,,,62097,1,0,FALSE,,,
dig,89,381306,0.0-30.0-0.0,"""event"",""trial"",""time""
""fullscreenenter"",""1"",""2176""
","
","
","""event"",""trial"",""time""
""fullscreenenter"",""1"",""2176""
","
",,,,,,,,,,,,"[{""stimulus"":""run_exp/static/images/task_images/dig.jpg"",""time"":0.2999999988824129},{""stimulus"":""run_exp/static/images/task_images/land.jpg"",""time"":877.6999999992549},{""stimulus"":""run_exp/static/images/task_images/dig.jpg"",""time"":1740.8999999985099}]",[],3,,,,,,,,,,,,,,
harvest,90,382314,0.0-30.0-1.0,"""event"",""trial"",""time""
""fullscreenenter"",""1"",""2176""
","
","
","""event"",""trial"",""time""
""fullscreenenter"",""1"",""2176""
","
",,null,run_exp/static/images/task_images/gems/57.jpg,null,,,,,,,30,,,3,,,,,57,0.528955996,0.526315789,,,,,,,
decision,91,383131,0.0-30.0-2.0,"""event"",""trial"",""time""
""fullscreenenter"",""1"",""2176""
","
","
","""event"",""trial"",""time""
""fullscreenenter"",""1"",""2176""
","
",,815.2,run_exp/static/images/task_images/land.jpg,65,,,,,,,30,,,3,,,,,,,,66532,1,1,FALSE,,,
dig,92,385331,0.0-31.0-0.0,"""event"",""trial"",""time""
""fullscreenenter"",""1"",""2176""
","
","
","""event"",""trial"",""time""
""fullscreenenter"",""1"",""2176""
","
",,,,,,,,,,,,"[{""stimulus"":""run_exp/static/images/task_images/dig.jpg"",""time"":0.09999999962747097},{""stimulus"":""run_exp/static/images/task_images/land.jpg"",""time"":738},{""stimulus"":""run_exp/static/images/task_images/dig.jpg"",""time"":1467}]",[],3,,,,,,,,,,,,,,
harvest,93,386339,0.0-31.0-1.0,"""event"",""trial"",""time""
""fullscreenenter"",""1"",""2176""
","
","
","""event"",""trial"",""time""
""fullscreenenter"",""1"",""2176""
","
",,null,run_exp/static/images/task_images/gems/30.jpg,null,,,,,,,15,,,3,,,,,30,0.500247694,0.5,,,,,,,
decision,94,387144,0.0-31.0-2.0,"""event"",""trial"",""time""
""fullscreenenter"",""1"",""2176""
","
","
","""event"",""trial"",""time""
""fullscreenenter"",""1"",""2176""
","
",,802.8,run_exp/static/images/task_images/land.jpg,76,,,,,,,15,,,3,,,,,,,,70545,1,2,TRUE,,,
travel,95,396344,0.0-32.0-0.0,"""event"",""trial"",""time""
""fullscreenenter"",""1"",""2176""
","
","
","""event"",""trial"",""time""
""fullscreenenter"",""1"",""2176""
","
",,,,,,,,,,,,"[{""stimulus"":""run_exp/static/images/task_images/rocket-01.jpg"",""time"":0.40000000037252903},{""stimulus"":""run_exp/static/images/task_images/rocket-02.jpg"",""time"":1027.7000000011176},{""stimulus"":""run_exp/static/images/task_images/rocket-03.jpg"",""time"":2056},{""stimulus"":""run_exp/static/images/task_images/rocket-04.jpg"",""time"":3071.7000000011176},{""stimulus"":""run_exp/static/images/task_images/rocket-05.jpg"",""time"":4092.800000000745},{""stimulus"":""run_exp/static/images/task_images/rocket-06.jpg"",""time"":5109.700000001118},{""stimulus"":""run_exp/static/images/task_images/rocket-07.jpg"",""time"":6135.700000001118},{""stimulus"":""run_exp/static/images/task_images/rocket-08.jpg"",""time"":7159.5999999996275},{""stimulus"":""run_exp/static/images/task_images/rocket-09.jpg"",""time"":8175.700000001118}]",[],3,,,,,,,,,,,,,,
alien_welcome,96,401351,0.0-32.0-1.0,"""event"",""trial"",""time""
""fullscreenenter"",""1"",""2176""
","
","
","""event"",""trial"",""time""
""fullscreenenter"",""1"",""2176""
","
",,null,run_exp/static/images/task_images/aliens/old_aliens/planet/alien_planet-79.jpg,null,,,,,,,,,,,,,79,"65,9,2,79,51,14,19,13,71,36,5,47,8,57,46,55,4,73,32,15,80,72,21,58,6,12,62,69,26,27,53,34,10,68,3,7,48,37,31,75,78,18,40,45,74,39,63,56,41,23,25,64,76,52,17,24,67,43,33,70,66",,,,,,,,,,
land,97,401856,0.0-32.0-2.0,"""event"",""trial"",""time""
""fullscreenenter"",""1"",""2176""
","
","
","""event"",""trial"",""time""
""fullscreenenter"",""1"",""2176""
","
",,null,run_exp/static/images/task_images/land.jpg,null,,,,,,,95,,,4,,,,,,,,,,,,,,
dig,98,403867,0.0-32.0-3.0,"""event"",""trial"",""time""
""fullscreenenter"",""1"",""2176""
","
","
","""event"",""trial"",""time""
""fullscreenenter"",""1"",""2176""
","
",,,,,,,,,,,,"[{""stimulus"":""run_exp/static/images/task_images/dig.jpg"",""time"":0.5},{""stimulus"":""run_exp/static/images/task_images/land.jpg"",""time"":680.4000000003725},{""stimulus"":""run_exp/static/images/task_images/dig.jpg"",""time"":1341.4000000003725}]",[],4,,,,,,,,,,,,,,
harvest,99,404873,0.0-32.0-4.0,"""event"",""trial"",""time""
""fullscreenenter"",""1"",""2176""
","
","
","""event"",""trial"",""time""
""fullscreenenter"",""1"",""2176""
","
",,null,run_exp/static/images/task_images/gems/95.jpg,null,,,,,,,52,,,4,,,,,95,0.548141066,0.547368421,,,,,,,
decision,100,405390,0.0-32.0-5.0,"""event"",""trial"",""time""
""fullscreenenter"",""1"",""2176""
","
","
","""event"",""trial"",""time""
""fullscreenenter"",""1"",""2176""
","
",,514.8,run_exp/static/images/task_images/land.jpg,65,,,,,,,52,,,4,,,,,,,,88791,1,0,FALSE,,,
dig,101,407890,0.0-33.0-0.0,"""event"",""trial"",""time""
""fullscreenenter"",""1"",""2176""
","
","
","""event"",""trial"",""time""
""fullscreenenter"",""1"",""2176""
","
",,,,,,,,,,,,"[{""stimulus"":""run_exp/static/images/task_images/dig.jpg"",""time"":0.40000000037252903},{""stimulus"":""run_exp/static/images/task_images/land.jpg"",""time"":842.1999999992549},{""stimulus"":""run_exp/static/images/task_images/dig.jpg"",""time"":1664.199999999255}]",[],4,,,,,,,,,,,,,,
harvest,102,408898,0.0-33.0-1.0,"""event"",""trial"",""time""
""fullscreenenter"",""1"",""2176""
","
","
","""event"",""trial"",""time""
""fullscreenenter"",""1"",""2176""
","
",,null,run_exp/static/images/task_images/gems/52.jpg,null,,,,,,,24,,,4,,,,,52,0.468429554,0.461538462,,,,,,,
decision,103,409282,0.0-33.0-2.0,"""event"",""trial"",""time""
""fullscreenenter"",""1"",""2176""
","
","
","""event"",""trial"",""time""
""fullscreenenter"",""1"",""2176""
","
",,381.6,run_exp/static/images/task_images/land.jpg,76,,,,,,,24,,,4,,,,,,,,92683,1,1,TRUE,,,
travel,104,418906,0.0-34.0-0.0,"""event"",""trial"",""time""
""fullscreenenter"",""1"",""2176""
","
","
","""event"",""trial"",""time""
""fullscreenenter"",""1"",""2176""
","
",,,,,,,,,,,,"[{""stimulus"":""run_exp/static/images/task_images/rocket-01.jpg"",""time"":0.09999999962747097},{""stimulus"":""run_exp/static/images/task_images/rocket-02.jpg"",""time"":1074.699999999255},{""stimulus"":""run_exp/static/images/task_images/rocket-03.jpg"",""time"":2145.5},{""stimulus"":""run_exp/static/images/task_images/rocket-04.jpg"",""time"":3213.199999999255},{""stimulus"":""run_exp/static/images/task_images/rocket-05.jpg"",""time"":4283.5999999996275},{""stimulus"":""run_exp/static/images/task_images/rocket-06.jpg"",""time"":5349.5999999996275},{""stimulus"":""run_exp/static/images/task_images/rocket-07.jpg"",""time"":6417.5},{""stimulus"":""run_exp/static/images/task_images/rocket-08.jpg"",""time"":7483},{""stimulus"":""run_exp/static/images/task_images/rocket-09.jpg"",""time"":8555.400000000373}]",[],4,,,,,,,,,,,,,,
alien_welcome,105,423914,0.0-34.0-1.0,"""event"",""trial"",""time""
""fullscreenenter"",""1"",""2176""
","
","
","""event"",""trial"",""time""
""fullscreenenter"",""1"",""2176""
","
",,null,run_exp/static/images/task_images/aliens/old_aliens/planet/alien_planet-51.jpg,null,,,,,,,,,,,,,51,"65,9,2,79,51,14,19,13,71,36,5,47,8,57,46,55,4,73,32,15,80,72,21,58,6,12,62,69,26,27,53,34,10,68,3,7,48,37,31,75,78,18,40,45,74,39,63,56,41,23,25,64,76,52,17,24,67,43,33,70,66",,,,,,,,,,
land,106,424423,0.0-34.0-2.0,"""event"",""trial"",""time""
""fullscreenenter"",""1"",""2176""
","
","
","""event"",""trial"",""time""
""fullscreenenter"",""1"",""2176""
","
",,null,run_exp/static/images/task_images/land.jpg,null,,,,,,,106,,,5,,,,,,,,,,,,,,
dig,107,426433,0.0-34.0-3.0,"""event"",""trial"",""time""
""fullscreenenter"",""1"",""2176""
","
","
","""event"",""trial"",""time""
""fullscreenenter"",""1"",""2176""
","
",,,,,,,,,,,,"[{""stimulus"":""run_exp/static/images/task_images/dig.jpg"",""time"":0.599999999627471},{""stimulus"":""run_exp/static/images/task_images/land.jpg"",""time"":680.6999999992549},{""stimulus"":""run_exp/static/images/task_images/dig.jpg"",""time"":1341.0999999996275}]",[],5,,,,,,,,,,,,,,
harvest,108,427440,0.0-34.0-4.0,"""event"",""trial"",""time""
""fullscreenenter"",""1"",""2176""
","
","
","""event"",""trial"",""time""
""fullscreenenter"",""1"",""2176""
","
",,null,run_exp/static/images/task_images/gems/106.jpg,null,,,,,,,49,,,5,,,,,106,0.466049176,0.462264151,,,,,,,
decision,109,428027,0.0-34.0-5.0,"""event"",""trial"",""time""
""fullscreenenter"",""1"",""2176""
","
","
","""event"",""trial"",""time""
""fullscreenenter"",""1"",""2176""
","
",,584.7,run_exp/static/images/task_images/land.jpg,65,,,,,,,49,,,5,,,,,,,,111428,1,0,FALSE,,,
dig,110,430457,0.0-35.0-0.0,"""event"",""trial"",""time""
""fullscreenenter"",""1"",""2176""
","
","
","""event"",""trial"",""time""
""fullscreenenter"",""1"",""2176""
","
",,,,,,,,,,,,"[{""stimulus"":""run_exp/static/images/task_images/dig.jpg"",""time"":0.40000000037252903},{""stimulus"":""run_exp/static/images/task_images/land.jpg"",""time"":807.7000000011176},{""stimulus"":""run_exp/static/images/task_images/dig.jpg"",""time"":1616}]",[],5,,,,,,,,,,,,,,
harvest,111,431461,0.0-35.0-1.0,"""event"",""trial"",""time""
""fullscreenenter"",""1"",""2176""
","
","
","""event"",""trial"",""time""
""fullscreenenter"",""1"",""2176""
","
",,null,run_exp/static/images/task_images/gems/49.jpg,null,,,,,,,19,,,5,,,,,49,0.391269953,0.387755102,,,,,,,
decision,112,431799,0.0-35.0-2.0,"""event"",""trial"",""time""
""fullscreenenter"",""1"",""2176""
","
","
","""event"",""trial"",""time""
""fullscreenenter"",""1"",""2176""
","
",,336.2,run_exp/static/images/task_images/land.jpg,76,,,,,,,19,,,5,,,,,,,,115200,1,1,TRUE,,,
travel,113,441473,0.0-36.0-0.0,"""event"",""trial"",""time""
""fullscreenenter"",""1"",""2176""
","
","
","""event"",""trial"",""time""
""fullscreenenter"",""1"",""2176""
","
",,,,,,,,,,,,"[{""stimulus"":""run_exp/static/images/task_images/rocket-01.jpg"",""time"":0.2999999988824129},{""stimulus"":""run_exp/static/images/task_images/rocket-02.jpg"",""time"":1078.3999999985099},{""stimulus"":""run_exp/static/images/task_images/rocket-03.jpg"",""time"":2154},{""stimulus"":""run_exp/static/images/task_images/rocket-04.jpg"",""time"":3230.39999999851},{""stimulus"":""run_exp/static/images/task_images/rocket-05.jpg"",""time"":4302.799999998882},{""stimulus"":""run_exp/static/images/task_images/rocket-06.jpg"",""time"":5370.699999999255},{""stimulus"":""run_exp/static/images/task_images/rocket-07.jpg"",""time"":6446.39999999851},{""stimulus"":""run_exp/static/images/task_images/rocket-08.jpg"",""time"":7518.699999999255},{""stimulus"":""run_exp/static/images/task_images/rocket-09.jpg"",""time"":8587.39999999851}]",[],5,,,,,,,,,,,,,,
alien_welcome,114,446481,0.0-36.0-1.0,"""event"",""trial"",""time""
""fullscreenenter"",""1"",""2176""
","
","
","""event"",""trial"",""time""
""fullscreenenter"",""1"",""2176""
","
",,null,run_exp/static/images/task_images/aliens/old_aliens/planet/alien_planet-14.jpg,null,,,,,,,,,,,,,14,"65,9,2,79,51,14,19,13,71,36,5,47,8,57,46,55,4,73,32,15,80,72,21,58,6,12,62,69,26,27,53,34,10,68,3,7,48,37,31,75,78,18,40,45,74,39,63,56,41,23,25,64,76,52,17,24,67,43,33,70,66",,,,,,,,,,
land,115,446990,0.0-36.0-2.0,"""event"",""trial"",""time""
""fullscreenenter"",""1"",""2176""
","
","
","""event"",""trial"",""time""
""fullscreenenter"",""1"",""2176""
","
",,null,run_exp/static/images/task_images/land.jpg,null,,,,,,,93,,,6,,,,,,,,,,,,,,
dig,116,448999,0.0-36.0-3.0,"""event"",""trial"",""time""
""fullscreenenter"",""1"",""2176""
","
","
","""event"",""trial"",""time""
""fullscreenenter"",""1"",""2176""
","
",,,,,,,,,,,,"[{""stimulus"":""run_exp/static/images/task_images/dig.jpg"",""time"":0.5},{""stimulus"":""run_exp/static/images/task_images/land.jpg"",""time"":681.0999999996275},{""stimulus"":""run_exp/static/images/task_images/dig.jpg"",""time"":1341.5}]",[],6,,,,,,,,,,,,,,
harvest,117,450007,0.0-36.0-4.0,"""event"",""trial"",""time""
""fullscreenenter"",""1"",""2176""
","
","
","""event"",""trial"",""time""
""fullscreenenter"",""1"",""2176""
","
",,null,run_exp/static/images/task_images/gems/93.jpg,null,,,,,,,75,,,6,,,,,93,0.80976232,0.806451613,,,,,,,
decision,118,450508,0.0-36.0-5.0,"""event"",""trial"",""time""
""fullscreenenter"",""1"",""2176""
","
","
","""event"",""trial"",""time""
""fullscreenenter"",""1"",""2176""
","
",,499.6,run_exp/static/images/task_images/land.jpg,65,,,,,,,75,,,6,,,,,,,,133909,1,0,FALSE,,,
dig,119,453023,0.0-37.0-0.0,"""event"",""trial"",""time""
""fullscreenenter"",""1"",""2176""
","
","
","""event"",""trial"",""time""
""fullscreenenter"",""1"",""2176""
","
",,,,,,,,,,,,"[{""stimulus"":""run_exp/static/images/task_images/dig.jpg"",""time"":0.40000000037252903},{""stimulus"":""run_exp/static/images/task_images/land.jpg"",""time"":841.0999999996275},{""stimulus"":""run_exp/static/images/task_images/dig.jpg"",""time"":1672.7999999988824}]",[],6,,,,,,,,,,,,,,
harvest,120,454028,0.0-37.0-1.0,"""event"",""trial"",""time""
""fullscreenenter"",""1"",""2176""
","
","
","""event"",""trial"",""time""
""fullscreenenter"",""1"",""2176""
","
",,null,run_exp/static/images/task_images/gems/75.jpg,null,,,,,,,62,,,6,,,,,75,0.830321075,0.826666667,,,,,,,
decision,121,454500,0.0-37.0-2.0,"""event"",""trial"",""time""
""fullscreenenter"",""1"",""2176""
","
","
","""event"",""trial"",""time""
""fullscreenenter"",""1"",""2176""
","
",,470.4,run_exp/static/images/task_images/land.jpg,65,,,,,,,62,,,6,,,,,,,,137901,1,1,FALSE,,,
dig,122,457040,0.0-38.0-0.0,"""event"",""trial"",""time""
""fullscreenenter"",""1"",""2176""
","
","
","""event"",""trial"",""time""
""fullscreenenter"",""1"",""2176""
","
",,,,,,,,,,,,"[{""stimulus"":""run_exp/static/images/task_images/dig.jpg"",""time"":0.09999999962747097},{""stimulus"":""run_exp/static/images/task_images/land.jpg"",""time"":852.8000000007451},{""stimulus"":""run_exp/static/images/task_images/dig.jpg"",""time"":1697}]",[],6,,,,,,,,,,,,,,
harvest,123,458046,0.0-38.0-1.0,"""event"",""trial"",""time""
""fullscreenenter"",""1"",""2176""
","
","
","""event"",""trial"",""time""
""fullscreenenter"",""1"",""2176""
","
",,null,run_exp/static/images/task_images/gems/62.jpg,null,,,,,,,49,,,6,,,,,62,0.787464915,0.790322581,,,,,,,
decision,124,458414,0.0-38.0-2.0,"""event"",""trial"",""time""
""fullscreenenter"",""1"",""2176""
","
","
","""event"",""trial"",""time""
""fullscreenenter"",""1"",""2176""
","
",,365.8,run_exp/static/images/task_images/land.jpg,65,,,,,,,49,,,6,,,,,,,,141815,1,2,FALSE,,,
dig,125,461064,0.0-39.0-0.0,"""event"",""trial"",""time""
""fullscreenenter"",""1"",""2176""
","
","
","""event"",""trial"",""time""
""fullscreenenter"",""1"",""2176""
","
",,,,,,,,,,,,"[{""stimulus"":""run_exp/static/images/task_images/dig.jpg"",""time"":0.10000000149011612},{""stimulus"":""run_exp/static/images/task_images/land.jpg"",""time"":883.8000000007451},{""stimulus"":""run_exp/static/images/task_images/dig.jpg"",""time"":1767.300000000745}]",[],6,,,,,,,,,,,,,,
harvest,126,462069,0.0-39.0-1.0,"""event"",""trial"",""time""
""fullscreenenter"",""1"",""2176""
","
","
","""event"",""trial"",""time""
""fullscreenenter"",""1"",""2176""
","
",,null,run_exp/static/images/task_images/gems/49.jpg,null,,,,,,,37,,,6,,,,,49,0.763873732,0.755102041,,,,,,,
decision,127,462820,0.0-39.0-2.0,"""event"",""trial"",""time""
""fullscreenenter"",""1"",""2176""
","
","
","""event"",""trial"",""time""
""fullscreenenter"",""1"",""2176""
","
",,748.5,run_exp/static/images/task_images/land.jpg,65,,,,,,,37,,,6,,,,,,,,146221,1,3,FALSE,,,
dig,128,465080,0.0-40.0-0.0,"""event"",""trial"",""time""
""fullscreenenter"",""1"",""2176""
","
","
","""event"",""trial"",""time""
""fullscreenenter"",""1"",""2176""
","
",,,,,,,,,,,,"[{""stimulus"":""run_exp/static/images/task_images/dig.jpg"",""time"":0.19999999925494194},{""stimulus"":""run_exp/static/images/task_images/land.jpg"",""time"":761.7999999988824},{""stimulus"":""run_exp/static/images/task_images/dig.jpg"",""time"":1513.7999999988824}]",[],6,,,,,,,,,,,,,,
harvest,129,466092,0.0-40.0-1.0,"""event"",""trial"",""time""
""fullscreenenter"",""1"",""2176""
","
","
","""event"",""trial"",""time""
""fullscreenenter"",""1"",""2176""
","
",,null,run_exp/static/images/task_images/gems/37.jpg,null,,,,,,,30,,,6,,,,,37,0.814366335,0.810810811,,,,,,,
decision,130,466790,0.0-40.0-2.0,"""event"",""trial"",""time""
""fullscreenenter"",""1"",""2176""
","
","
","""event"",""trial"",""time""
""fullscreenenter"",""1"",""2176""
","
",,694.9,run_exp/static/images/task_images/land.jpg,76,,,,,,,30,,,6,,,,,,,,150191,1,4,TRUE,,,
travel,131,476104,0.0-41.0-0.0,"""event"",""trial"",""time""
""fullscreenenter"",""1"",""2176""
","
","
","""event"",""trial"",""time""
""fullscreenenter"",""1"",""2176""
","
",,,,,,,,,,,,"[{""stimulus"":""run_exp/static/images/task_images/rocket-01.jpg"",""time"":0.2000000011175871},{""stimulus"":""run_exp/static/images/task_images/rocket-02.jpg"",""time"":1046.5},{""stimulus"":""run_exp/static/images/task_images/rocket-03.jpg"",""time"":2078.9000000003725},{""stimulus"":""run_exp/static/images/task_images/rocket-04.jpg"",""time"":3109.9000000003725},{""stimulus"":""run_exp/static/images/task_images/rocket-05.jpg"",""time"":4142.800000000745},{""stimulus"":""run_exp/static/images/task_images/rocket-06.jpg"",""time"":5171},{""stimulus"":""run_exp/static/images/task_images/rocket-07.jpg"",""time"":6203.800000000745},{""stimulus"":""run_exp/static/images/task_images/rocket-08.jpg"",""time"":7235.10000000149},{""stimulus"":""run_exp/static/images/task_images/rocket-09.jpg"",""time"":8270.10000000149}]",[],6,,,,,,,,,,,,,,
alien_welcome,132,481108,0.0-41.0-1.0,"""event"",""trial"",""time""
""fullscreenenter"",""1"",""2176""
","
","
","""event"",""trial"",""time""
""fullscreenenter"",""1"",""2176""
","
",,null,run_exp/static/images/task_images/aliens/old_aliens/planet/alien_planet-19.jpg,null,,,,,,,,,,,,,19,"65,9,2,79,51,14,19,13,71,36,5,47,8,57,46,55,4,73,32,15,80,72,21,58,6,12,62,69,26,27,53,34,10,68,3,7,48,37,31,75,78,18,40,45,74,39,63,56,41,23,25,64,76,52,17,24,67,43,33,70,66",,,,,,,,,,
land,133,481616,0.0-41.0-2.0,"""event"",""trial"",""time""
""fullscreenenter"",""1"",""2176""
","
","
","""event"",""trial"",""time""
""fullscreenenter"",""1"",""2176""
","
",,null,run_exp/static/images/task_images/land.jpg,null,,,,,,,103,,,7,,,,,,,,,,,,,,
dig,134,483631,0.0-41.0-3.0,"""event"",""trial"",""time""
""fullscreenenter"",""1"",""2176""
","
","
","""event"",""trial"",""time""
""fullscreenenter"",""1"",""2176""
","
",,,,,,,,,,,,"[{""stimulus"":""run_exp/static/images/task_images/dig.jpg"",""time"":0.5},{""stimulus"":""run_exp/static/images/task_images/land.jpg"",""time"":674.4000000003725},{""stimulus"":""run_exp/static/images/task_images/dig.jpg"",""time"":1338.800000000745}]",[],7,,,,,,,,,,,,,,
harvest,135,484637,0.0-41.0-4.0,"""event"",""trial"",""time""
""fullscreenenter"",""1"",""2176""
","
","
","""event"",""trial"",""time""
""fullscreenenter"",""1"",""2176""
","
",,null,run_exp/static/images/task_images/gems/103.jpg,null,,,,,,,83,,,7,,,,,103,0.802372795,0.805825243,,,,,,,
decision,136,485031,0.0-41.0-5.0,"""event"",""trial"",""time""
""fullscreenenter"",""1"",""2176""
","
","
","""event"",""trial"",""time""
""fullscreenenter"",""1"",""2176""
","
",,392.5,run_exp/static/images/task_images/land.jpg,65,,,,,,,83,,,7,,,,,,,,168433,1,0,FALSE,,,
dig,137,487647,0.0-42.0-0.0,"""event"",""trial"",""time""
""fullscreenenter"",""1"",""2176""
","
","
","""event"",""trial"",""time""
""fullscreenenter"",""1"",""2176""
","
",,,,,,,,,,,,"[{""stimulus"":""run_exp/static/images/task_images/dig.jpg"",""time"":0.19999999925494194},{""stimulus"":""run_exp/static/images/task_images/land.jpg"",""time"":872.5},{""stimulus"":""run_exp/static/images/task_images/dig.jpg"",""time"":1749.4000000003725}]",[],7,,,,,,,,,,,,,,
harvest,138,488653,0.0-42.0-1.0,"""event"",""trial"",""time""
""fullscreenenter"",""1"",""2176""
","
","
","""event"",""trial"",""time""
""fullscreenenter"",""1"",""2176""
","
",,null,run_exp/static/images/task_images/gems/83.jpg,null,,,,,,,71,,,7,,,,,83,0.857161313,0.855421687,,,,,,,
decision,139,488948,0.0-42.0-2.0,"""event"",""trial"",""time""
""fullscreenenter"",""1"",""2176""
","
","
","""event"",""trial"",""time""
""fullscreenenter"",""1"",""2176""
","
",,293.4,run_exp/static/images/task_images/land.jpg,65,,,,,,,71,,,7,,,,,,,,172350,1,1,FALSE,,,
dig,140,491671,0.0-43.0-0.0,"""event"",""trial"",""time""
""fullscreenenter"",""1"",""2176""
","
","
","""event"",""trial"",""time""
""fullscreenenter"",""1"",""2176""
","
",,,,,,,,,,,,"[{""stimulus"":""run_exp/static/images/task_images/dig.jpg"",""time"":0.09999999962747097},{""stimulus"":""run_exp/static/images/task_images/land.jpg"",""time"":909.3000000007451},{""stimulus"":""run_exp/static/images/task_images/dig.jpg"",""time"":1811.2000000011176}]",[],7,,,,,,,,,,,,,,
harvest,141,492679,0.0-43.0-1.0,"""event"",""trial"",""time""
""fullscreenenter"",""1"",""2176""
","
","
","""event"",""trial"",""time""
""fullscreenenter"",""1"",""2176""
","
",,null,run_exp/static/images/task_images/gems/71.jpg,null,,,,,,,50,,,7,,,,,71,0.703471125,0.704225352,,,,,,,
decision,142,493356,0.0-43.0-2.0,"""event"",""trial"",""time""
""fullscreenenter"",""1"",""2176""
","
","
","""event"",""trial"",""time""
""fullscreenenter"",""1"",""2176""
","
",,675.1,run_exp/static/images/task_images/land.jpg,65,,,,,,,50,,,7,,,,,,,,176757,1,2,FALSE,,,
dig,143,495695,0.0-44.0-0.0,"""event"",""trial"",""time""
""fullscreenenter"",""1"",""2176""
","
","
","""event"",""trial"",""time""
""fullscreenenter"",""1"",""2176""
","
",,,,,,,,,,,,"[{""stimulus"":""run_exp/static/images/task_images/dig.jpg"",""time"":0.19999999925494194},{""stimulus"":""run_exp/static/images/task_images/land.jpg"",""time"":780.1999999992549},{""stimulus"":""run_exp/static/images/task_images/dig.jpg"",""time"":1554.300000000745}]",[],7,,,,,,,,,,,,,,
harvest,144,496699,0.0-44.0-1.0,"""event"",""trial"",""time""
""fullscreenenter"",""1"",""2176""
","
","
","""event"",""trial"",""time""
""fullscreenenter"",""1"",""2176""
","
",,null,run_exp/static/images/task_images/gems/50.jpg,null,,,,,,,40,,,7,,,,,50,0.808022037,0.8,,,,,,,
decision,145,499707,0.0-44.0-2.0,"""event"",""trial"",""time""
""fullscreenenter"",""1"",""2176""
","
","
","""event"",""trial"",""time""
""fullscreenenter"",""1"",""2176""
","
",,null,run_exp/static/images/task_images/land.jpg,null,,,,,,,40,,,7,,,,,,,,183108,1,3,FALSE,,,
time_out,146,501715,0.0-45.0-0.0,"""event"",""trial"",""time""
""fullscreenenter"",""1"",""2176""
","
","
","""event"",""trial"",""time""
""fullscreenenter"",""1"",""2176""
","
",,null,run_exp/static/images/task_images/time_out.jpg,null,,,,,,,40,,,,,,,,,,,,,,,,,
decision,147,502855,0.0-45.0-1.0,"""event"",""trial"",""time""
""fullscreenenter"",""1"",""2176""
","
","
","""event"",""trial"",""time""
""fullscreenenter"",""1"",""2176""
","
",,1137.5,run_exp/static/images/task_images/land.jpg,76,,,,,,,40,,,7,,,,,,,,186256,1,3,TRUE,,,
travel,148,511723,0.0-46.0-0.0,"""event"",""trial"",""time""
""fullscreenenter"",""1"",""2176""
""blur"",""149"",""513609""
""focus"",""149"",""513611""
","""event"",""trial"",""time""
""blur"",""149"",""513609""
","""event"",""trial"",""time""
""focus"",""149"",""513611""
","""event"",""trial"",""time""
""fullscreenenter"",""1"",""2176""
","
",,,,,,,,,,,,"[{""stimulus"":""run_exp/static/images/task_images/rocket-01.jpg"",""time"":0.30000000074505806},{""stimulus"":""run_exp/static/images/task_images/rocket-02.jpg"",""time"":993.8000000007451},{""stimulus"":""run_exp/static/images/task_images/rocket-03.jpg"",""time"":1980.9000000003725},{""stimulus"":""run_exp/static/images/task_images/rocket-04.jpg"",""time"":2964.9000000003725},{""stimulus"":""run_exp/static/images/task_images/rocket-05.jpg"",""time"":3948.9000000003725},{""stimulus"":""run_exp/static/images/task_images/rocket-06.jpg"",""time"":4932.200000001118},{""stimulus"":""run_exp/static/images/task_images/rocket-07.jpg"",""time"":5915.5999999996275},{""stimulus"":""run_exp/static/images/task_images/rocket-08.jpg"",""time"":6898.9000000003725},{""stimulus"":""run_exp/static/images/task_images/rocket-09.jpg"",""time"":7882.200000001118}]",[],7,,,,,,,,,,,,,,
alien_welcome,149,516735,0.0-46.0-1.0,"""event"",""trial"",""time""
""fullscreenenter"",""1"",""2176""
""blur"",""149"",""513609""
""focus"",""149"",""513611""
","""event"",""trial"",""time""
""blur"",""149"",""513609""
","""event"",""trial"",""time""
""focus"",""149"",""513611""
","""event"",""trial"",""time""
""fullscreenenter"",""1"",""2176""
","
",,null,run_exp/static/images/task_images/aliens/old_aliens/planet/alien_planet-13.jpg,null,,,,,,,,,,,,,13,"65,9,2,79,51,14,19,13,71,36,5,47,8,57,46,55,4,73,32,15,80,72,21,58,6,12,62,69,26,27,53,34,10,68,3,7,48,37,31,75,78,18,40,45,74,39,63,56,41,23,25,64,76,52,17,24,67,43,33,70,66",,,,,,,,,,
land,150,517246,0.0-46.0-2.0,"""event"",""trial"",""time""
""fullscreenenter"",""1"",""2176""
""blur"",""149"",""513609""
""focus"",""149"",""513611""
","""event"",""trial"",""time""
""blur"",""149"",""513609""
","""event"",""trial"",""time""
""focus"",""149"",""513611""
","""event"",""trial"",""time""
""fullscreenenter"",""1"",""2176""
","
",,null,run_exp/static/images/task_images/land.jpg,null,,,,,,,101,,,8,,,,,,,,,,,,,,
dig,151,519262,0.0-46.0-3.0,"""event"",""trial"",""time""
""fullscreenenter"",""1"",""2176""
""blur"",""149"",""513609""
""focus"",""149"",""513611""
","""event"",""trial"",""time""
""blur"",""149"",""513609""
","""event"",""trial"",""time""
""focus"",""149"",""513611""
","""event"",""trial"",""time""
""fullscreenenter"",""1"",""2176""
","
",,,,,,,,,,,,"[{""stimulus"":""run_exp/static/images/task_images/dig.jpg"",""time"":0.40000000037252903},{""stimulus"":""run_exp/static/images/task_images/land.jpg"",""time"":675.4000000003725},{""stimulus"":""run_exp/static/images/task_images/dig.jpg"",""time"":1339}]",[],8,,,,,,,,,,,,,,
harvest,152,520270,0.0-46.0-4.0,"""event"",""trial"",""time""
""fullscreenenter"",""1"",""2176""
""blur"",""149"",""513609""
""focus"",""149"",""513611""
","""event"",""trial"",""time""
""blur"",""149"",""513609""
","""event"",""trial"",""time""
""focus"",""149"",""513611""
","""event"",""trial"",""time""
""fullscreenenter"",""1"",""2176""
","
",,null,run_exp/static/images/task_images/gems/101.jpg,null,,,,,,,78,,,8,,,,,101,0.776902772,0.772277228,,,,,,,
decision,153,520576,0.0-46.0-5.0,"""event"",""trial"",""time""
""fullscreenenter"",""1"",""2176""
""blur"",""149"",""513609""
""focus"",""149"",""513611""
","""event"",""trial"",""time""
""blur"",""149"",""513609""
","""event"",""trial"",""time""
""focus"",""149"",""513611""
","""event"",""trial"",""time""
""fullscreenenter"",""1"",""2176""
","
",,303.8,run_exp/static/images/task_images/land.jpg,65,,,,,,,78,,,8,,,,,,,,203977,1,0,FALSE,,,
dig,154,523286,0.0-47.0-0.0,"""event"",""trial"",""time""
""fullscreenenter"",""1"",""2176""
""blur"",""149"",""513609""
""focus"",""149"",""513611""
","""event"",""trial"",""time""
""blur"",""149"",""513609""
","""event"",""trial"",""time""
""focus"",""149"",""513611""
","""event"",""trial"",""time""
""fullscreenenter"",""1"",""2176""
","
",,,,,,,,,,,,"[{""stimulus"":""run_exp/static/images/task_images/dig.jpg"",""time"":0.599999999627471},{""stimulus"":""run_exp/static/images/task_images/land.jpg"",""time"":907},{""stimulus"":""run_exp/static/images/task_images/dig.jpg"",""time"":1802.800000000745}]",[],8,,,,,,,,,,,,,,
harvest,155,524290,0.0-47.0-1.0,"""event"",""trial"",""time""
""fullscreenenter"",""1"",""2176""
""blur"",""149"",""513609""
""focus"",""149"",""513611""
","""event"",""trial"",""time""
""blur"",""149"",""513609""
","""event"",""trial"",""time""
""focus"",""149"",""513611""
","""event"",""trial"",""time""
""fullscreenenter"",""1"",""2176""
","
",,null,run_exp/static/images/task_images/gems/78.jpg,null,,,,,,,58,,,8,,,,,78,0.740061388,0.743589744,,,,,,,
decision,156,525364,0.0-47.0-2.0,"""event"",""trial"",""time""
""fullscreenenter"",""1"",""2176""
""blur"",""149"",""513609""
""focus"",""149"",""513611""
","""event"",""trial"",""time""
""blur"",""149"",""513609""
","""event"",""trial"",""time""
""focus"",""149"",""513611""
","""event"",""trial"",""time""
""fullscreenenter"",""1"",""2176""
","
",,1072.1,run_exp/static/images/task_images/land.jpg,65,,,,,,,58,,,8,,,,,,,,208765,1,1,FALSE,,,
dig,157,527299,0.0-48.0-0.0,"""event"",""trial"",""time""
""fullscreenenter"",""1"",""2176""
""blur"",""149"",""513609""
""focus"",""149"",""513611""
","""event"",""trial"",""time""
""blur"",""149"",""513609""
","""event"",""trial"",""time""
""focus"",""149"",""513611""
","""event"",""trial"",""time""
""fullscreenenter"",""1"",""2176""
","
",,,,,,,,,,,,"[{""stimulus"":""run_exp/static/images/task_images/dig.jpg"",""time"":0.30000000074505806},{""stimulus"":""run_exp/static/images/task_images/land.jpg"",""time"":651.9000000003725},{""stimulus"":""run_exp/static/images/task_images/dig.jpg"",""time"":1295.300000000745}]",[],8,,,,,,,,,,,,,,
harvest,158,528307,0.0-48.0-1.0,"""event"",""trial"",""time""
""fullscreenenter"",""1"",""2176""
""blur"",""149"",""513609""
""focus"",""149"",""513611""
","""event"",""trial"",""time""
""blur"",""149"",""513609""
","""event"",""trial"",""time""
""focus"",""149"",""513611""
","""event"",""trial"",""time""
""fullscreenenter"",""1"",""2176""
","
",,null,run_exp/static/images/task_images/gems/58.jpg,null,,,,,,,47,,,8,,,,,58,0.802950121,0.810344828,,,,,,,
decision,159,528679,0.0-48.0-2.0,"""event"",""trial"",""time""
""fullscreenenter"",""1"",""2176""
""blur"",""149"",""513609""
""focus"",""149"",""513611""
","""event"",""trial"",""time""
""blur"",""149"",""513609""
","""event"",""trial"",""time""
""focus"",""149"",""513611""
","""event"",""trial"",""time""
""fullscreenenter"",""1"",""2176""
","
",,369.9,run_exp/static/images/task_images/land.jpg,76,,,,,,,47,,,8,,,,,,,,212080,1,2,TRUE,,,
travel,160,538326,0.0-49.0-0.0,"""event"",""trial"",""time""
""fullscreenenter"",""1"",""2176""
""blur"",""149"",""513609""
""focus"",""149"",""513611""
","""event"",""trial"",""time""
""blur"",""149"",""513609""
","""event"",""trial"",""time""
""focus"",""149"",""513611""
","""event"",""trial"",""time""
""fullscreenenter"",""1"",""2176""
","
",,,,,,,,,,,,"[{""stimulus"":""run_exp/static/images/task_images/rocket-01.jpg"",""time"":0.2000000011175871},{""stimulus"":""run_exp/static/images/task_images/rocket-02.jpg"",""time"":1074.1000000014901},{""stimulus"":""run_exp/static/images/task_images/rocket-03.jpg"",""time"":2145.300000000745},{""stimulus"":""run_exp/static/images/task_images/rocket-04.jpg"",""time"":3219.4000000003725},{""stimulus"":""run_exp/static/images/task_images/rocket-05.jpg"",""time"":4290.9000000003725},{""stimulus"":""run_exp/static/images/task_images/rocket-06.jpg"",""time"":5362.800000000745},{""stimulus"":""run_exp/static/images/task_images/rocket-07.jpg"",""time"":6424.200000001118},{""stimulus"":""run_exp/static/images/task_images/rocket-08.jpg"",""time"":7495.10000000149},{""stimulus"":""run_exp/static/images/task_images/rocket-09.jpg"",""time"":8570.700000001118}]",[],8,,,,,,,,,,,,,,
alien_welcome,161,543333,0.0-49.0-1.0,"""event"",""trial"",""time""
""fullscreenenter"",""1"",""2176""
""blur"",""149"",""513609""
""focus"",""149"",""513611""
","""event"",""trial"",""time""
""blur"",""149"",""513609""
","""event"",""trial"",""time""
""focus"",""149"",""513611""
","""event"",""trial"",""time""
""fullscreenenter"",""1"",""2176""
","
",,null,run_exp/static/images/task_images/aliens/old_aliens/planet/alien_planet-71.jpg,null,,,,,,,,,,,,,71,"65,9,2,79,51,14,19,13,71,36,5,47,8,57,46,55,4,73,32,15,80,72,21,58,6,12,62,69,26,27,53,34,10,68,3,7,48,37,31,75,78,18,40,45,74,39,63,56,41,23,25,64,76,52,17,24,67,43,33,70,66",,,,,,,,,,
land,162,543841,0.0-49.0-2.0,"""event"",""trial"",""time""
""fullscreenenter"",""1"",""2176""
""blur"",""149"",""513609""
""focus"",""149"",""513611""
","""event"",""trial"",""time""
""blur"",""149"",""513609""
","""event"",""trial"",""time""
""focus"",""149"",""513611""
","""event"",""trial"",""time""
""fullscreenenter"",""1"",""2176""
","
",,null,run_exp/static/images/task_images/land.jpg,null,,,,,,,112,,,9,,,,,,,,,,,,,,
dig,163,545849,0.0-49.0-3.0,"""event"",""trial"",""time""
""fullscreenenter"",""1"",""2176""
""blur"",""149"",""513609""
""focus"",""149"",""513611""
","""event"",""trial"",""time""
""blur"",""149"",""513609""
","""event"",""trial"",""time""
""focus"",""149"",""513611""
","""event"",""trial"",""time""
""fullscreenenter"",""1"",""2176""
","
",,,,,,,,,,,,"[{""stimulus"":""run_exp/static/images/task_images/dig.jpg"",""time"":0.40000000037252903},{""stimulus"":""run_exp/static/images/task_images/land.jpg"",""time"":672.5999999996275},{""stimulus"":""run_exp/static/images/task_images/dig.jpg"",""time"":1345}]",[],9,,,,,,,,,,,,,,
harvest,164,546857,0.0-49.0-4.0,"""event"",""trial"",""time""
""fullscreenenter"",""1"",""2176""
""blur"",""149"",""513609""
""focus"",""149"",""513611""
","""event"",""trial"",""time""
""blur"",""149"",""513609""
","""event"",""trial"",""time""
""focus"",""149"",""513611""
","""event"",""trial"",""time""
""fullscreenenter"",""1"",""2176""
","
",,null,run_exp/static/images/task_images/gems/112.jpg,null,,,,,,,18,,,9,,,,,112,0.157011906,0.160714286,,,,,,,
decision,165,547583,0.0-49.0-5.0,"""event"",""trial"",""time""
""fullscreenenter"",""1"",""2176""
""blur"",""149"",""513609""
""focus"",""149"",""513611""
","""event"",""trial"",""time""
""blur"",""149"",""513609""
","""event"",""trial"",""time""
""focus"",""149"",""513611""
","""event"",""trial"",""time""
""fullscreenenter"",""1"",""2176""
","
",,724.4,run_exp/static/images/task_images/land.jpg,65,,,,,,,18,,,9,,,,,,,,230984,1,0,FALSE,,,
dig,166,549869,0.0-50.0-0.0,"""event"",""trial"",""time""
""fullscreenenter"",""1"",""2176""
""blur"",""149"",""513609""
""focus"",""149"",""513611""
","""event"",""trial"",""time""
""blur"",""149"",""513609""
","""event"",""trial"",""time""
""focus"",""149"",""513611""
","""event"",""trial"",""time""
""fullscreenenter"",""1"",""2176""
","
",,,,,,,,,,,,"[{""stimulus"":""run_exp/static/images/task_images/dig.jpg"",""time"":0.09999999962747097},{""stimulus"":""run_exp/static/images/task_images/land.jpg"",""time"":767.6999999992549},{""stimulus"":""run_exp/static/images/task_images/dig.jpg"",""time"":1520.5}]",[],9,,,,,,,,,,,,,,
harvest,167,550874,0.0-50.0-1.0,"""event"",""trial"",""time""
""fullscreenenter"",""1"",""2176""
""blur"",""149"",""513609""
""focus"",""149"",""513611""
","""event"",""trial"",""time""
""blur"",""149"",""513609""
","""event"",""trial"",""time""
""focus"",""149"",""513611""
","""event"",""trial"",""time""
""fullscreenenter"",""1"",""2176""
","
",,null,run_exp/static/images/task_images/gems/18.jpg,null,,,,,,,2,,,9,,,,,18,0.135976009,0.111111111,,,,,,,
decision,168,551425,0.0-50.0-2.0,"""event"",""trial"",""time""
""fullscreenenter"",""1"",""2176""
""blur"",""149"",""513609""
""focus"",""149"",""513611""
","""event"",""trial"",""time""
""blur"",""149"",""513609""
","""event"",""trial"",""time""
""focus"",""149"",""513611""
","""event"",""trial"",""time""
""fullscreenenter"",""1"",""2176""
","
",,549.2,run_exp/static/images/task_images/land.jpg,76,,,,,,,2,,,9,,,,,,,,234826,1,1,TRUE,,,
travel,169,560885,0.0-51.0-0.0,"""event"",""trial"",""time""
""fullscreenenter"",""1"",""2176""
""blur"",""149"",""513609""
""focus"",""149"",""513611""
","""event"",""trial"",""time""
""blur"",""149"",""513609""
","""event"",""trial"",""time""
""focus"",""149"",""513611""
","""event"",""trial"",""time""
""fullscreenenter"",""1"",""2176""
","
",,,,,,,,,,,,"[{""stimulus"":""run_exp/static/images/task_images/rocket-01.jpg"",""time"":0.3999999985098839},{""stimulus"":""run_exp/static/images/task_images/rocket-02.jpg"",""time"":1053.2999999988824},{""stimulus"":""run_exp/static/images/task_images/rocket-03.jpg"",""time"":2112.699999999255},{""stimulus"":""run_exp/static/images/task_images/rocket-04.jpg"",""time"":3156.5},{""stimulus"":""run_exp/static/images/task_images/rocket-05.jpg"",""time"":4209.799999998882},{""stimulus"":""run_exp/static/images/task_images/rocket-06.jpg"",""time"":5252.5999999996275},{""stimulus"":""run_exp/static/images/task_images/rocket-07.jpg"",""time"":6312.699999999255},{""stimulus"":""run_exp/static/images/task_images/rocket-08.jpg"",""time"":7359.199999999255},{""stimulus"":""run_exp/static/images/task_images/rocket-09.jpg"",""time"":8408.5}]",[],9,,,,,,,,,,,,,,
alien_welcome,170,565890,0.0-51.0-1.0,"""event"",""trial"",""time""
""fullscreenenter"",""1"",""2176""
""blur"",""149"",""513609""
""focus"",""149"",""513611""
","""event"",""trial"",""time""
""blur"",""149"",""513609""
","""event"",""trial"",""time""
""focus"",""149"",""513611""
","""event"",""trial"",""time""
""fullscreenenter"",""1"",""2176""
","
",,null,run_exp/static/images/task_images/aliens/old_aliens/planet/alien_planet-36.jpg,null,,,,,,,,,,,,,36,"65,9,2,79,51,14,19,13,71,36,5,47,8,57,46,55,4,73,32,15,80,72,21,58,6,12,62,69,26,27,53,34,10,68,3,7,48,37,31,75,78,18,40,45,74,39,63,56,41,23,25,64,76,52,17,24,67,43,33,70,66",,,,,,,,,,
land,171,566404,0.0-51.0-2.0,"""event"",""trial"",""time""
""fullscreenenter"",""1"",""2176""
""blur"",""149"",""513609""
""focus"",""149"",""513611""
","""event"",""trial"",""time""
""blur"",""149"",""513609""
","""event"",""trial"",""time""
""focus"",""149"",""513611""
","""event"",""trial"",""time""
""fullscreenenter"",""1"",""2176""
","
",,null,run_exp/static/images/task_images/land.jpg,null,,,,,,,100,,,10,,,,,,,,,,,,,,
dig,172,568421,0.0-51.0-3.0,"""event"",""trial"",""time""
""fullscreenenter"",""1"",""2176""
""blur"",""149"",""513609""
""focus"",""149"",""513611""
","""event"",""trial"",""time""
""blur"",""149"",""513609""
","""event"",""trial"",""time""
""focus"",""149"",""513611""
","""event"",""trial"",""time""
""fullscreenenter"",""1"",""2176""
","
",,,,,,,,,,,,"[{""stimulus"":""run_exp/static/images/task_images/dig.jpg"",""time"":0.599999999627471},{""stimulus"":""run_exp/static/images/task_images/land.jpg"",""time"":679},{""stimulus"":""run_exp/static/images/task_images/dig.jpg"",""time"":1338.5999999996275}]",[],10,,,,,,,,,,,,,,
harvest,173,569425,0.0-51.0-4.0,"""event"",""trial"",""time""
""fullscreenenter"",""1"",""2176""
""blur"",""149"",""513609""
""focus"",""149"",""513611""
","""event"",""trial"",""time""
""blur"",""149"",""513609""
","""event"",""trial"",""time""
""focus"",""149"",""513611""
","""event"",""trial"",""time""
""fullscreenenter"",""1"",""2176""
","
",,null,run_exp/static/images/task_images/gems/100.jpg,null,,,,,,,28,,,10,,,,,100,0.283038145,0.28,,,,,,,
decision,174,570430,0.0-51.0-5.0,"""event"",""trial"",""time""
""fullscreenenter"",""1"",""2176""
""blur"",""149"",""513609""
""focus"",""149"",""513611""
","""event"",""trial"",""time""
""blur"",""149"",""513609""
","""event"",""trial"",""time""
""focus"",""149"",""513611""
","""event"",""trial"",""time""
""fullscreenenter"",""1"",""2176""
","
",,1003.6,run_exp/static/images/task_images/land.jpg,65,,,,,,,28,,,10,,,,,,,,253831,1,0,FALSE,,,
dig,175,572440,0.0-52.0-0.0,"""event"",""trial"",""time""
""fullscreenenter"",""1"",""2176""
""blur"",""149"",""513609""
""focus"",""149"",""513611""
","""event"",""trial"",""time""
""blur"",""149"",""513609""
","""event"",""trial"",""time""
""focus"",""149"",""513611""
","""event"",""trial"",""time""
""fullscreenenter"",""1"",""2176""
","
",,,,,,,,,,,,"[{""stimulus"":""run_exp/static/images/task_images/dig.jpg"",""time"":0.40000000037252903},{""stimulus"":""run_exp/static/images/task_images/land.jpg"",""time"":671.4000000003725},{""stimulus"":""run_exp/static/images/task_images/dig.jpg"",""time"":1336.5}]",[],10,,,,,,,,,,,,,,
harvest,176,573449,0.0-52.0-1.0,"""event"",""trial"",""time""
""fullscreenenter"",""1"",""2176""
""blur"",""149"",""513609""
""focus"",""149"",""513611""
","""event"",""trial"",""time""
""blur"",""149"",""513609""
","""event"",""trial"",""time""
""focus"",""149"",""513611""
","""event"",""trial"",""time""
""fullscreenenter"",""1"",""2176""
","
",,null,run_exp/static/images/task_images/gems/28.jpg,null,,,,,,,5,,,10,,,,,28,0.174152306,0.178571429,,,,,,,
decision,177,574199,0.0-52.0-2.0,"""event"",""trial"",""time""
""fullscreenenter"",""1"",""2176""
""blur"",""149"",""513609""
""focus"",""149"",""513611""
","""event"",""trial"",""time""
""blur"",""149"",""513609""
","""event"",""trial"",""time""
""focus"",""149"",""513611""
","""event"",""trial"",""time""
""fullscreenenter"",""1"",""2176""
","
",,748.3,run_exp/static/images/task_images/land.jpg,76,,,,,,,5,,,10,,,,,,,,257600,1,1,TRUE,,,
travel,178,583457,0.0-53.0-0.0,"""event"",""trial"",""time""
""fullscreenenter"",""1"",""2176""
""blur"",""149"",""513609""
""focus"",""149"",""513611""
","""event"",""trial"",""time""
""blur"",""149"",""513609""
","""event"",""trial"",""time""
""focus"",""149"",""513611""
","""event"",""trial"",""time""
""fullscreenenter"",""1"",""2176""
","
",,,,,,,,,,,,"[{""stimulus"":""run_exp/static/images/task_images/rocket-01.jpg"",""time"":0.2000000011175871},{""stimulus"":""run_exp/static/images/task_images/rocket-02.jpg"",""time"":1037.1000000014901},{""stimulus"":""run_exp/static/images/task_images/rocket-03.jpg"",""time"":2065.4000000003725},{""stimulus"":""run_exp/static/images/task_images/rocket-04.jpg"",""time"":3088.9000000003725},{""stimulus"":""run_exp/static/images/task_images/rocket-05.jpg"",""time"":4120.60000000149},{""stimulus"":""run_exp/static/images/task_images/rocket-06.jpg"",""time"":5141},{""stimulus"":""run_exp/static/images/task_images/rocket-07.jpg"",""time"":6165.700000001118},{""stimulus"":""run_exp/static/images/task_images/rocket-08.jpg"",""time"":7198.9000000003725},{""stimulus"":""run_exp/static/images/task_images/rocket-09.jpg"",""time"":8220.60000000149}]",[],10,,,,,,,,,,,,,,
alien_welcome,179,588468,0.0-53.0-1.0,"""event"",""trial"",""time""
""fullscreenenter"",""1"",""2176""
""blur"",""149"",""513609""
""focus"",""149"",""513611""
","""event"",""trial"",""time""
""blur"",""149"",""513609""
","""event"",""trial"",""time""
""focus"",""149"",""513611""
","""event"",""trial"",""time""
""fullscreenenter"",""1"",""2176""
","
",,null,run_exp/static/images/task_images/aliens/old_aliens/planet/alien_planet-5.jpg,null,,,,,,,,,,,,,5,"65,9,2,79,51,14,19,13,71,36,5,47,8,57,46,55,4,73,32,15,80,72,21,58,6,12,62,69,26,27,53,34,10,68,3,7,48,37,31,75,78,18,40,45,74,39,63,56,41,23,25,64,76,52,17,24,67,43,33,70,66",,,,,,,,,,
land,180,588980,0.0-53.0-2.0,"""event"",""trial"",""time""
""fullscreenenter"",""1"",""2176""
""blur"",""149"",""513609""
""focus"",""149"",""513611""
","""event"",""trial"",""time""
""blur"",""149"",""513609""
","""event"",""trial"",""time""
""focus"",""149"",""513611""
","""event"",""trial"",""time""
""fullscreenenter"",""1"",""2176""
","
",,null,run_exp/static/images/task_images/land.jpg,null,,,,,,,96,,,11,,,,,,,,,,,,,,
dig,181,590992,0.0-53.0-3.0,"""event"",""trial"",""time""
""fullscreenenter"",""1"",""2176""
""blur"",""149"",""513609""
""focus"",""149"",""513611""
","""event"",""trial"",""time""
""blur"",""149"",""513609""
","""event"",""trial"",""time""
""focus"",""149"",""513611""
","""event"",""trial"",""time""
""fullscreenenter"",""1"",""2176""
","
",,,,,,,,,,,,"[{""stimulus"":""run_exp/static/images/task_images/dig.jpg"",""time"":0.40000000037252903},{""stimulus"":""run_exp/static/images/task_images/land.jpg"",""time"":675.8000000007451},{""stimulus"":""run_exp/static/images/task_images/dig.jpg"",""time"":1339.199999999255}]",[],11,,,,,,,,,,,,,,
harvest,182,592000,0.0-53.0-4.0,"""event"",""trial"",""time""
""fullscreenenter"",""1"",""2176""
""blur"",""149"",""513609""
""focus"",""149"",""513611""
","""event"",""trial"",""time""
""blur"",""149"",""513609""
","""event"",""trial"",""time""
""focus"",""149"",""513611""
","""event"",""trial"",""time""
""fullscreenenter"",""1"",""2176""
","
",,null,run_exp/static/images/task_images/gems/96.jpg,null,,,,,,,27,,,11,,,,,96,0.284479781,0.28125,,,,,,,
decision,183,593156,0.0-53.0-5.0,"""event"",""trial"",""time""
""fullscreenenter"",""1"",""2176""
""blur"",""149"",""513609""
""focus"",""149"",""513611""
","""event"",""trial"",""time""
""blur"",""149"",""513609""
","""event"",""trial"",""time""
""focus"",""149"",""513611""
","""event"",""trial"",""time""
""fullscreenenter"",""1"",""2176""
","
",,1154.1,run_exp/static/images/task_images/land.jpg,76,,,,,,,27,,,11,,,,,,,,276557,1,0,TRUE,,,
travel,184,602007,0.0-54.0-0.0,"""event"",""trial"",""time""
""fullscreenenter"",""1"",""2176""
""blur"",""149"",""513609""
""focus"",""149"",""513611""
","""event"",""trial"",""time""
""blur"",""149"",""513609""
","""event"",""trial"",""time""
""focus"",""149"",""513611""
","""event"",""trial"",""time""
""fullscreenenter"",""1"",""2176""
","
",,,,,,,,,,,,"[{""stimulus"":""run_exp/static/images/task_images/rocket-01.jpg"",""time"":0.09999999962747097},{""stimulus"":""run_exp/static/images/task_images/rocket-02.jpg"",""time"":996.0999999996275},{""stimulus"":""run_exp/static/images/task_images/rocket-03.jpg"",""time"":1967.9000000003725},{""stimulus"":""run_exp/static/images/task_images/rocket-04.jpg"",""time"":2953.5999999996275},{""stimulus"":""run_exp/static/images/task_images/rocket-05.jpg"",""time"":3939.5},{""stimulus"":""run_exp/static/images/task_images/rocket-06.jpg"",""time"":4920},{""stimulus"":""run_exp/static/images/task_images/rocket-07.jpg"",""time"":5897.5},{""stimulus"":""run_exp/static/images/task_images/rocket-08.jpg"",""time"":6880.9000000003725},{""stimulus"":""run_exp/static/images/task_images/rocket-09.jpg"",""time"":7864.299999998882}]",[],11,,,,,,,,,,,,,,
alien_welcome,185,607015,0.0-54.0-1.0,"""event"",""trial"",""time""
""fullscreenenter"",""1"",""2176""
""blur"",""149"",""513609""
""focus"",""149"",""513611""
","""event"",""trial"",""time""
""blur"",""149"",""513609""
","""event"",""trial"",""time""
""focus"",""149"",""513611""
","""event"",""trial"",""time""
""fullscreenenter"",""1"",""2176""
","
",,null,run_exp/static/images/task_images/aliens/old_aliens/planet/alien_planet-47.jpg,null,,,,,,,,,,,,,47,"65,9,2,79,51,14,19,13,71,36,5,47,8,57,46,55,4,73,32,15,80,72,21,58,6,12,62,69,26,27,53,34,10,68,3,7,48,37,31,75,78,18,40,45,74,39,63,56,41,23,25,64,76,52,17,24,67,43,33,70,66",,,,,,,,,,
land,186,607519,0.0-54.0-2.0,"""event"",""trial"",""time""
""fullscreenenter"",""1"",""2176""
""blur"",""149"",""513609""
""focus"",""149"",""513611""
","""event"",""trial"",""time""
""blur"",""149"",""513609""
","""event"",""trial"",""time""
""focus"",""149"",""513611""
","""event"",""trial"",""time""
""fullscreenenter"",""1"",""2176""
","
",,null,run_exp/static/images/task_images/land.jpg,null,,,,,,,101,,,12,,,,,,,,,,,,,,
dig,187,609529,0.0-54.0-3.0,"""event"",""trial"",""time""
""fullscreenenter"",""1"",""2176""
""blur"",""149"",""513609""
""focus"",""149"",""513611""
","""event"",""trial"",""time""
""blur"",""149"",""513609""
","""event"",""trial"",""time""
""focus"",""149"",""513611""
","""event"",""trial"",""time""
""fullscreenenter"",""1"",""2176""
","
",,,,,,,,,,,,"[{""stimulus"":""run_exp/static/images/task_images/dig.jpg"",""time"":0.40000000037252903},{""stimulus"":""run_exp/static/images/task_images/land.jpg"",""time"":669.1999999992549},{""stimulus"":""run_exp/static/images/task_images/dig.jpg"",""time"":1335.9000000003725}]",[],12,,,,,,,,,,,,,,
harvest,188,610539,0.0-54.0-4.0,"""event"",""trial"",""time""
""fullscreenenter"",""1"",""2176""
""blur"",""149"",""513609""
""focus"",""149"",""513611""
","""event"",""trial"",""time""
""blur"",""149"",""513609""
","""event"",""trial"",""time""
""focus"",""149"",""513611""
","""event"",""trial"",""time""
""fullscreenenter"",""1"",""2176""
","
",,null,run_exp/static/images/task_images/gems/101.jpg,null,,,,,,,16,,,12,,,,,101,0.154292874,0.158415842,,,,,,,
decision,189,611995,0.0-54.0-5.0,"""event"",""trial"",""time""
""fullscreenenter"",""1"",""2176""
""blur"",""149"",""513609""
""focus"",""149"",""513611""
","""event"",""trial"",""time""
""blur"",""149"",""513609""
","""event"",""trial"",""time""
""focus"",""149"",""513611""
","""event"",""trial"",""time""
""fullscreenenter"",""1"",""2176""
","
",,1454.3,run_exp/static/images/task_images/land.jpg,65,,,,,,,16,,,12,,,,,,,,295397,1,0,FALSE,,,
dig,190,613551,0.0-55.0-0.0,"""event"",""trial"",""time""
""fullscreenenter"",""1"",""2176""
""blur"",""149"",""513609""
""focus"",""149"",""513611""
","""event"",""trial"",""time""
""blur"",""149"",""513609""
","""event"",""trial"",""time""
""focus"",""149"",""513611""
","""event"",""trial"",""time""
""fullscreenenter"",""1"",""2176""
","
",,,,,,,,,,,,"[{""stimulus"":""run_exp/static/images/task_images/dig.jpg"",""time"":0},{""stimulus"":""run_exp/static/images/task_images/land.jpg"",""time"":522.2999999988824},{""stimulus"":""run_exp/static/images/task_images/dig.jpg"",""time"":1032.3999999985099}]",[],12,,,,,,,,,,,,,,
harvest,191,614563,0.0-55.0-1.0,"""event"",""trial"",""time""
""fullscreenenter"",""1"",""2176""
""blur"",""149"",""513609""
""focus"",""149"",""513611""
","""event"",""trial"",""time""
""blur"",""149"",""513609""
","""event"",""trial"",""time""
""focus"",""149"",""513611""
","""event"",""trial"",""time""
""fullscreenenter"",""1"",""2176""
","
",,null,run_exp/static/images/task_images/gems/16.jpg,null,,,,,,,2,,,12,,,,,16,0.155137949,0.125,,,,,,,
decision,192,615312,0.0-55.0-2.0,"""event"",""trial"",""time""
""fullscreenenter"",""1"",""2176""
""blur"",""149"",""513609""
""focus"",""149"",""513611""
","""event"",""trial"",""time""
""blur"",""149"",""513609""
","""event"",""trial"",""time""
""focus"",""149"",""513611""
","""event"",""trial"",""time""
""fullscreenenter"",""1"",""2176""
","
",,745.7,run_exp/static/images/task_images/land.jpg,76,,,,,,,2,,,12,,,,,,,,298713,1,1,TRUE,,,
travel,193,624579,0.0-56.0-0.0,"""event"",""trial"",""time""
""fullscreenenter"",""1"",""2176""
""blur"",""149"",""513609""
""focus"",""149"",""513611""
","""event"",""trial"",""time""
""blur"",""149"",""513609""
","""event"",""trial"",""time""
""focus"",""149"",""513611""
","""event"",""trial"",""time""
""fullscreenenter"",""1"",""2176""
","
",,,,,,,,,,,,"[{""stimulus"":""run_exp/static/images/task_images/rocket-01.jpg"",""time"":0.19999999925494194},{""stimulus"":""run_exp/static/images/task_images/rocket-02.jpg"",""time"":1039.7999999988824},{""stimulus"":""run_exp/static/images/task_images/rocket-03.jpg"",""time"":2063.5},{""stimulus"":""run_exp/static/images/task_images/rocket-04.jpg"",""time"":3091.699999999255},{""stimulus"":""run_exp/static/images/task_images/rocket-05.jpg"",""time"":4119.799999998882},{""stimulus"":""run_exp/static/images/task_images/rocket-06.jpg"",""time"":5151.5},{""stimulus"":""run_exp/static/images/task_images/rocket-07.jpg"",""time"":6175.5999999996275},{""stimulus"":""run_exp/static/images/task_images/rocket-08.jpg"",""time"":7207.89999999851},{""stimulus"":""run_exp/static/images/task_images/rocket-09.jpg"",""time"":8227.5}]",[],12,,,,,,,,,,,,,,
alien_welcome,194,629586,0.0-56.0-1.0,"""event"",""trial"",""time""
""fullscreenenter"",""1"",""2176""
""blur"",""149"",""513609""
""focus"",""149"",""513611""
","""event"",""trial"",""time""
""blur"",""149"",""513609""
","""event"",""trial"",""time""
""focus"",""149"",""513611""
","""event"",""trial"",""time""
""fullscreenenter"",""1"",""2176""
","
",,null,run_exp/static/images/task_images/aliens/old_aliens/planet/alien_planet-8.jpg,null,,,,,,,,,,,,,8,"65,9,2,79,51,14,19,13,71,36,5,47,8,57,46,55,4,73,32,15,80,72,21,58,6,12,62,69,26,27,53,34,10,68,3,7,48,37,31,75,78,18,40,45,74,39,63,56,41,23,25,64,76,52,17,24,67,43,33,70,66",,,,,,,,,,
land,195,630096,0.0-56.0-2.0,"""event"",""trial"",""time""
""fullscreenenter"",""1"",""2176""
""blur"",""149"",""513609""
""focus"",""149"",""513611""
","""event"",""trial"",""time""
""blur"",""149"",""513609""
","""event"",""trial"",""time""
""focus"",""149"",""513611""
","""event"",""trial"",""time""
""fullscreenenter"",""1"",""2176""
","
",,null,run_exp/static/images/task_images/land.jpg,null,,,,,,,108,,,13,,,,,,,,,,,,,,
dig,196,632106,0.0-56.0-3.0,"""event"",""trial"",""time""
""fullscreenenter"",""1"",""2176""
""blur"",""149"",""513609""
""focus"",""149"",""513611""
","""event"",""trial"",""time""
""blur"",""149"",""513609""
","""event"",""trial"",""time""
""focus"",""149"",""513611""
","""event"",""trial"",""time""
""fullscreenenter"",""1"",""2176""
","
",,,,,,,,,,,,"[{""stimulus"":""run_exp/static/images/task_images/dig.jpg"",""time"":0.40000000037252903},{""stimulus"":""run_exp/static/images/task_images/land.jpg"",""time"":677.9000000003725},{""stimulus"":""run_exp/static/images/task_images/dig.jpg"",""time"":1342.7000000011176}]",[],13,,,,,,,,,,,,,,
harvest,197,633114,0.0-56.0-4.0,"""event"",""trial"",""time""
""fullscreenenter"",""1"",""2176""
""blur"",""149"",""513609""
""focus"",""149"",""513611""
","""event"",""trial"",""time""
""blur"",""149"",""513609""
","""event"",""trial"",""time""
""focus"",""149"",""513611""
","""event"",""trial"",""time""
""fullscreenenter"",""1"",""2176""
","
",,null,run_exp/static/images/task_images/gems/108.jpg,null,,,,,,,22,,,13,,,,,108,0.200955728,0.203703704,,,,,,,
decision,198,634714,0.0-56.0-5.0,"""event"",""trial"",""time""
""fullscreenenter"",""1"",""2176""
""blur"",""149"",""513609""
""focus"",""149"",""513611""
","""event"",""trial"",""time""
""blur"",""149"",""513609""
","""event"",""trial"",""time""
""focus"",""149"",""513611""
","""event"",""trial"",""time""
""fullscreenenter"",""1"",""2176""
","
",,1597.7,run_exp/static/images/task_images/land.jpg,76,,,,,,,22,,,13,,,,,,,,318115,1,0,TRUE,,,
end_of_block_continue,199,643579,0.0-57.0-0.0,"""event"",""trial"",""time""
""fullscreenenter"",""1"",""2176""
""blur"",""149"",""513609""
""focus"",""149"",""513611""
","""event"",""trial"",""time""
""blur"",""149"",""513609""
","""event"",""trial"",""time""
""focus"",""149"",""513611""
","""event"",""trial"",""time""
""fullscreenenter"",""1"",""2176""
","
",,null,run_exp/static/audio/clip_32_block_end.m4a,,,,,,,null,,,,,,,,,,,,,,,,,,
alien_welcome,200,648590,0.0-58.0-0.0,"""event"",""trial"",""time""
""fullscreenenter"",""1"",""2176""
""blur"",""149"",""513609""
""focus"",""149"",""513611""
","""event"",""trial"",""time""
""blur"",""149"",""513609""
","""event"",""trial"",""time""
""focus"",""149"",""513611""
","""event"",""trial"",""time""
""fullscreenenter"",""1"",""2176""
","
",,null,run_exp/static/images/task_images/aliens/old_aliens/planet/alien_planet-57.jpg,null,,,,,,,,,,,,,57,"65,9,2,79,51,14,19,13,71,36,5,47,8,57,46,55,4,73,32,15,80,72,21,58,6,12,62,69,26,27,53,34,10,68,3,7,48,37,31,75,78,18,40,45,74,39,63,56,41,23,25,64,76,52,17,24,67,43,33,70,66",,,,,,,,,,
land,201,649097,0.0-58.0-1.0,"""event"",""trial"",""time""
""fullscreenenter"",""1"",""2176""
""blur"",""149"",""513609""
""focus"",""149"",""513611""
","""event"",""trial"",""time""
""blur"",""149"",""513609""
","""event"",""trial"",""time""
""focus"",""149"",""513611""
","""event"",""trial"",""time""
""fullscreenenter"",""1"",""2176""
","
",,null,run_exp/static/images/task_images/land.jpg,null,,,,,,,96,,,14,,,,,,,,,,,,,,
dig,202,651109,0.0-58.0-2.0,"""event"",""trial"",""time""
""fullscreenenter"",""1"",""2176""
""blur"",""149"",""513609""
""focus"",""149"",""513611""
","""event"",""trial"",""time""
""blur"",""149"",""513609""
","""event"",""trial"",""time""
""focus"",""149"",""513611""
","""event"",""trial"",""time""
""fullscreenenter"",""1"",""2176""
","
",,,,,,,,,,,,"[{""stimulus"":""run_exp/static/images/task_images/dig.jpg"",""time"":0.5},{""stimulus"":""run_exp/static/images/task_images/land.jpg"",""time"":676.1999999992549},{""stimulus"":""run_exp/static/images/task_images/dig.jpg"",""time"":1341.699999999255}]",[],14,,,,,,,,,,,,,,
harvest,203,652122,0.0-58.0-3.0,"""event"",""trial"",""time""
""fullscreenenter"",""1"",""2176""
""blur"",""149"",""513609""
""focus"",""149"",""513611""
","""event"",""trial"",""time""
""blur"",""149"",""513609""
","""event"",""trial"",""time""
""focus"",""149"",""513611""
","""event"",""trial"",""time""
""fullscreenenter"",""1"",""2176""
","
",,null,run_exp/static/images/task_images/gems/96.jpg,null,,,,,,,19,,,14,,,,,96,0.195144876,0.197916667,,,,,,,
decision,204,653200,0.0-58.0-4.0,"""event"",""trial"",""time""
""fullscreenenter"",""1"",""2176""
""blur"",""149"",""513609""
""focus"",""149"",""513611""
","""event"",""trial"",""time""
""blur"",""149"",""513609""
","""event"",""trial"",""time""
""focus"",""149"",""513611""
","""event"",""trial"",""time""
""fullscreenenter"",""1"",""2176""
","
",,1076.6,run_exp/static/images/task_images/land.jpg,65,,,,,,,19,,,14,,,,,,,,9618,2,0,FALSE,,,
dig,205,655137,0.0-59.0-0.0,"""event"",""trial"",""time""
""fullscreenenter"",""1"",""2176""
""blur"",""149"",""513609""
""focus"",""149"",""513611""
","""event"",""trial"",""time""
""blur"",""149"",""513609""
","""event"",""trial"",""time""
""focus"",""149"",""513611""
","""event"",""trial"",""time""
""fullscreenenter"",""1"",""2176""
","
",,,,,,,,,,,,"[{""stimulus"":""run_exp/static/images/task_images/dig.jpg"",""time"":0.19999999925494194},{""stimulus"":""run_exp/static/images/task_images/land.jpg"",""time"":653.0999999996275},{""stimulus"":""run_exp/static/images/task_images/dig.jpg"",""time"":1289.4000000003725}]",[],14,,,,,,,,,,,,,,
harvest,206,656142,0.0-59.0-1.0,"""event"",""trial"",""time""
""fullscreenenter"",""1"",""2176""
""blur"",""149"",""513609""
""focus"",""149"",""513611""
","""event"",""trial"",""time""
""blur"",""149"",""513609""
","""event"",""trial"",""time""
""focus"",""149"",""513611""
","""event"",""trial"",""time""
""fullscreenenter"",""1"",""2176""
","
",,null,run_exp/static/images/task_images/gems/19.jpg,null,,,,,,,3,,,14,,,,,19,0.167480677,0.157894737,,,,,,,
decision,207,656810,0.0-59.0-2.0,"""event"",""trial"",""time""
""fullscreenenter"",""1"",""2176""
""blur"",""149"",""513609""
""focus"",""149"",""513611""
","""event"",""trial"",""time""
""blur"",""149"",""513609""
","""event"",""trial"",""time""
""focus"",""149"",""513611""
","""event"",""trial"",""time""
""fullscreenenter"",""1"",""2176""
","
",,665.7,run_exp/static/images/task_images/land.jpg,76,,,,,,,3,,,14,,,,,,,,13228,2,1,TRUE,,,
travel,208,666157,0.0-60.0-0.0,"""event"",""trial"",""time""
""fullscreenenter"",""1"",""2176""
""blur"",""149"",""513609""
""focus"",""149"",""513611""
","""event"",""trial"",""time""
""blur"",""149"",""513609""
","""event"",""trial"",""time""
""focus"",""149"",""513611""
","""event"",""trial"",""time""
""fullscreenenter"",""1"",""2176""
","
",,,,,,,,,,,,"[{""stimulus"":""run_exp/static/images/task_images/rocket-01.jpg"",""time"":0.40000000037252903},{""stimulus"":""run_exp/static/images/task_images/rocket-02.jpg"",""time"":1051.0999999996275},{""stimulus"":""run_exp/static/images/task_images/rocket-03.jpg"",""time"":2081.699999999255},{""stimulus"":""run_exp/static/images/task_images/rocket-04.jpg"",""time"":3123.4000000003725},{""stimulus"":""run_exp/static/images/task_images/rocket-05.jpg"",""time"":4155.5},{""stimulus"":""run_exp/static/images/task_images/rocket-06.jpg"",""time"":5193.199999999255},{""stimulus"":""run_exp/static/images/task_images/rocket-07.jpg"",""time"":6235.300000000745},{""stimulus"":""run_exp/static/images/task_images/rocket-08.jpg"",""time"":7267.5},{""stimulus"":""run_exp/static/images/task_images/rocket-09.jpg"",""time"":8307.5}]",[],14,,,,,,,,,,,,,,
alien_welcome,209,671169,0.0-60.0-1.0,"""event"",""trial"",""time""
""fullscreenenter"",""1"",""2176""
