trial_type,trial_index,time_elapsed,internal_node_id,success,rt,stimulus,key_press,prompt,subject_id,age,gender,button_pressed,next_reward,animation_sequence,responses,planet,curr_prac_trial,n_prac_rounds,alien,aliens,reward_received,decay_rate_actual,decay_rate_exp,time_in_block,block_num,prt,last_trial_on_planet,button_html,bonus,num_failures
pavlovia,0,4,0.0-0.0,,,,,,,,,,,,,,,,,,,,,,,,,,,
fullscreen,1,2338,0.0-1.0,TRUE,,,,,,,,,,,,,,,,,,,,,,,,,,
instruc_welcome,2,12099,0.0-2.0,,null,run_exp/static/audio/clip_1_welcome.m4a,null,"<p>Howdy! In this experiment, you’ll be an explorer traveling through space to collect space treasure.</p><p>Your mission is to collect as much treasure as possible.</p><br><br><p><img src='run_exp/static/images/task_images/opening_img-01.jpg' height='300' width='auto'></p>",p79bmmg6Ma0DxiA_1Y3uCvx5VSxv8Zo_MLRP_9Y0BogigRZWYaTY,16.27,male,,,,,,,,,,,,,,,,,,,
audio-keyboard-response,3,28738,0.0-3.0,,null,run_exp/static/audio/clip_2_move.m4a,null,,,,,,,,,,,,,,,,,,,,,,,
welcome_dec,4,64603,0.0-4.0,,35859.3,"<p>Howdy! In this experiment, you’ll be an explorer traveling through space to collect space treasure.</p><p>Your mission is to collect as much treasure as possible.</p><br><br><p><img src='run_exp/static/images/task_images/opening_img-01.jpg' height='300' width='auto'></p>",,,,,,1,,,,,,,,,,,,,,,,,,
html-keyboard-response,5,66149,0.0-5.0,,1541.5,"<p>Howdy! In this experiment, you’ll be an explorer traveling through space to collect space treasure.</p><p>Your mission is to collect as much treasure as possible.</p><br><br><p><img src='run_exp/static/images/task_images/opening_img-01.jpg' height='300' width='auto'></p><button class=""jspsych-html-btn-unchosen""><img src=""run_exp/static/images/task_images/planet-01.jpg"" height=""50""></button><button class=""jspsych-html-btn-chosen""><img src=""run_exp/static/images/task_images/planet-02.jpg"" height=""50""></button><p><b>[press the space bar to lock in your answer]<b><br></p>",32,,,,,,,,,,,,,,,,,,,,,,,
instruc_goal,6,76767,0.0-6.0-0.0,,null,run_exp/static/audio/clip_3_goal.m4a,null,"<p> As a space explorer, you’ll visit different planets to dig for space treasure, these pink gems.</p> <p> The more treasure you dig up, the more bonus money you’ll win! </p><br><br><p><img src='run_exp/static/images/task_images/pink_gem.jpg' height='300' width='auto'></p>",,,,,,,,,,,,,,,,,,,,,,
instruc_goal,7,79374,0.0-6.0-1.0,,2603.4,"<p> As a space explorer, you’ll visit different planets to dig for space treasure, these pink gems.</p> <p> The more treasure you dig up, the more bonus money you’ll win! </p><br><br><p><img src='run_exp/static/images/task_images/pink_gem.jpg' height='300' width='auto'></p>",,,,,,1,,,,,,,,,,,,,,,,,,
html-keyboard-response,8,81008,0.0-6.0-2.0,,1631.6,"<p> As a space explorer, you’ll visit different planets to dig for space treasure, these pink gems.</p> <p> The more treasure you dig up, the more bonus money you’ll win! </p><br><br><p><img src='run_exp/static/images/task_images/pink_gem.jpg' height='300' width='auto'></p><button class=""jspsych-html-btn-unchosen""><img src=""run_exp/static/images/task_images/planet-01.jpg"" height=""50""></button><button class=""jspsych-html-btn-chosen""><img src=""run_exp/static/images/task_images/planet-02.jpg"" height=""50""></button><p><b>[press the space bar to lock in your answer]<b><br></p>",32,,,,,,,,,,,,,,,,,,,,,,,
instruc_dig,9,97087,0.0-7.0-0.0,,null,run_exp/static/audio/clip_4_dig.m4a,null,,,,,,100,,,,,,,,,,,,,,,,,
instruc_dig_try,10,97523,0.0-7.0-1.0,,433,"<p> When you’ve arrived at a new planet, you will dig once. </p> <p>Then, you get to decide if you want to stay on the planet and dig again or travel to a new planet and dig there.</p> <p> To stay and dig, press the letter <strong>‘A’</strong> on your keyboard. Try pressing it now! </p><p><img src='run_exp/static/images/task_images/land.jpg'  height='700' width='auto'></p>",65,"<p> When you’ve arrived at a new planet, you will dig once. </p> <p>Then, you get to decide if you want to stay on the planet and dig again or travel to a new planet and dig there.</p> <p> To stay and dig, press the letter <strong>‘A’</strong> on your keyboard. Try pressing it now! </p><p><img src='run_exp/static/images/task_images/land.jpg'  height='700' width='auto'></p>",,,,,100,,,,,,,,,,,,,,,,,
dig_prac,11,99553,0.0-7.0-2.0,,,,,,,,,,,"[{""stimulus"":""run_exp/static/images/task_images/dig.jpg"",""time"":0.6000000014901161},{""stimulus"":""run_exp/static/images/task_images/land.jpg"",""time"":677.2000000011176},{""stimulus"":""run_exp/static/images/task_images/dig.jpg"",""time"":1345}]",[],,,,,,,,,,,,,,,
instruc_travel,12,135847,0.0-7.0-3.0,,null,run_exp/static/audio/clip_5_travel.m4a,null,"<p>Every time you dig up gems, there are less gems on the planet, so the more you dig on a planet the fewer gems you’ll get with each dig.</p><p>When gems are running low, you may want to travel to a new planet. </p> <p>  Planets are very far apart in this galaxy, so it will take some time to travel between them. </p> <br><p>There are lots and lots of planets for you to visit, so you won’t be able to return to any planets you’ve seen before. </p><br><p>To leave this planet and travel to a new one, press the letter <strong>‘L’</strong> on your keyboard. Try pressing it now! </p><p><img src='run_exp/static/images/task_images/rocket-01.jpg'  height='600' width='auto'></p>",,,,,,,,,,,,,,,,,,,,,,
instruc_travel_try,13,144889,0.0-7.0-4.0,,9040.1,"<p>Every time you dig up gems, there are less gems on the planet, so the more you dig on a planet the fewer gems you’ll get with each dig.</p><p>When gems are running low, you may want to travel to a new planet. </p> <p>  Planets are very far apart in this galaxy, so it will take some time to travel between them. </p> <br><p>There are lots and lots of planets for you to visit, so you won’t be able to return to any planets you’ve seen before. </p><br><p>To leave this planet and travel to a new one, press the letter <strong>‘L’</strong> on your keyboard. Try pressing it now! </p><p><img src='run_exp/static/images/task_images/rocket-01.jpg'  height='600' width='auto'></p>",76,"<p>Every time you dig up gems, there are less gems on the planet, so the more you dig on a planet the fewer gems you’ll get with each dig.</p><p>When gems are running low, you may want to travel to a new planet. </p> <p>  Planets are very far apart in this galaxy, so it will take some time to travel between them. </p> <br><p>There are lots and lots of planets for you to visit, so you won’t be able to return to any planets you’ve seen before. </p><br><p>To leave this planet and travel to a new one, press the letter <strong>‘L’</strong> on your keyboard. Try pressing it now! </p><p><img src='run_exp/static/images/task_images/rocket-01.jpg'  height='600' width='auto'></p>",,,,,,,,,,,,,,,,,,,,,,
travel_prac,14,154908,0.0-7.0-5.0,,,,,,,,,,,"[{""stimulus"":""run_exp/static/images/task_images/rocket-01.jpg"",""time"":0.2999999988824129},{""stimulus"":""run_exp/static/images/task_images/rocket-02.jpg"",""time"":1124.699999999255},{""stimulus"":""run_exp/static/images/task_images/rocket-03.jpg"",""time"":2233.5999999996275},{""stimulus"":""run_exp/static/images/task_images/rocket-04.jpg"",""time"":3338.5},{""stimulus"":""run_exp/static/images/task_images/rocket-05.jpg"",""time"":4447.4000000003725},{""stimulus"":""run_exp/static/images/task_images/rocket-06.jpg"",""time"":5568.699999999255},{""stimulus"":""run_exp/static/images/task_images/rocket-07.jpg"",""time"":6677.699999999255},{""stimulus"":""run_exp/static/images/task_images/rocket-08.jpg"",""time"":7782.4000000003725},{""stimulus"":""run_exp/static/images/task_images/rocket-09.jpg"",""time"":8897.5}]",[],0,,,,,,,,,,,,,,
instruc_alien_greet,15,182208,0.0-7.0-6.0,,null,run_exp/static/audio/clip_6_alien.m4a,null,"<p>When you arrive at a new planet, the alien who owns the treasure mine on that planet will greet you!</p><p>The better an alien takes care of their mine the easier it is to dig for gems. Some aliens take better care of their mine than others. So, you won’t get exactly the same amount of gems on each planet.</p><p>What the alien looks like does not tell you anything about how many gems there are on the planet.</p><br><p><img src=""run_exp/static/images/task_images/aliens/instructions_aliens/planet/alien_planet-1.jpg""  height=""600"" width=""auto""></p>",,,,,,,,,,,,,,,,,,,,,,
instruc_alien_greet,16,192954,0.0-7.0-7.0,,10742.9,"<p>When you arrive at a new planet, the alien who owns the treasure mine on that planet will greet you!</p><p>The better an alien takes care of their mine the easier it is to dig for gems. Some aliens take better care of their mine than others. So, you won’t get exactly the same amount of gems on each planet.</p><p>What the alien looks like does not tell you anything about how many gems there are on the planet.</p><br><p><img src=""run_exp/static/images/task_images/aliens/instructions_aliens/planet/alien_planet-1.jpg""  height=""600"" width=""auto""></p>",,,,,,1,,,,,,,,,,,,,,,,,,
html-keyboard-response,17,193991,0.0-7.0-8.0,,1034.2,"<p>When you arrive at a new planet, the alien who owns the treasure mine on that planet will greet you!</p><p>The better an alien takes care of their mine the easier it is to dig for gems. Some aliens take better care of their mine than others. So, you won’t get exactly the same amount of gems on each planet.</p><p>What the alien looks like does not tell you anything about how many gems there are on the planet.</p><br><p><img src=""run_exp/static/images/task_images/aliens/instructions_aliens/planet/alien_planet-1.jpg""  height=""600"" width=""auto""></p><button class=""jspsych-html-btn-unchosen""><img src=""run_exp/static/images/task_images/planet-01.jpg"" height=""50""></button><button class=""jspsych-html-btn-chosen""><img src=""run_exp/static/images/task_images/planet-02.jpg"" height=""50""></button><p><b>[press the space bar to lock in your answer]<b><br></p>",32,,,,,,,,,,,,,,,,,,,,,,,
time_out,18,205098,0.0-8.0-0.0,,null,run_exp/static/audio/clip_7_timeout.m4a,null,"<p>If you don't make your choice fast enough, you’ll have to wait a few seconds before you can make another one.</p><p>You can’t dig for more gems or travel to new planets. You just have to sit and wait.</p><br><p><img src='run_exp/static/images/task_images/time_out.jpg'  height='600' width='auto'></p>",,,,,,,,,,,,,,,,,,,,,,
time_out,19,218762,0.0-8.0-1.0,,13661.3,"<p>If you don't make your choice fast enough, you’ll have to wait a few seconds before you can make another one.</p><p>You can’t dig for more gems or travel to new planets. You just have to sit and wait.</p><br><p><img src='run_exp/static/images/task_images/time_out.jpg'  height='600' width='auto'></p>",,,,,,1,,,,,,,,,,,,,,,,,,
html-keyboard-response,20,219320,0.0-8.0-2.0,,555,"<p>If you don't make your choice fast enough, you’ll have to wait a few seconds before you can make another one.</p><p>You can’t dig for more gems or travel to new planets. You just have to sit and wait.</p><br><p><img src='run_exp/static/images/task_images/time_out.jpg'  height='600' width='auto'></p><button class=""jspsych-html-btn-unchosen""><img src=""run_exp/static/images/task_images/planet-01.jpg"" height=""50""></button><button class=""jspsych-html-btn-chosen""><img src=""run_exp/static/images/task_images/planet-02.jpg"" height=""50""></button><p><b>[press the space bar to lock in your answer]<b><br></p>",32,,,,,,,,,,,,,,,,,,,,,,,
instruc_break,21,235189,0.0-9.0-0.0,,null,run_exp/static/audio/clip_8_break.m4a,null,"<p> After digging and traveling for a while, you’ll be able to take a break at home base. </p><p>The game will last 20 minutes no matter what.</p><p>You will visit home base every 5 minutes, so, you will visit home base three times during the game.</p><br><p><img src='run_exp/static/images/task_images/home_base.jpg' height='600' width='auto'></p>",,,,,,,,,,,,,,,,,,,,,,
instruc_break,22,238776,0.0-9.0-1.0,,3584,"<p> After digging and traveling for a while, you’ll be able to take a break at home base. </p><p>The game will last 20 minutes no matter what.</p><p>You will visit home base every 5 minutes, so, you will visit home base three times during the game.</p><br><p><img src='run_exp/static/images/task_images/home_base.jpg' height='600' width='auto'></p>",,,,,,1,,,,,,,,,,,,,,,,,,
html-keyboard-response,23,240191,0.0-9.0-2.0,,1413.9,"<p> After digging and traveling for a while, you’ll be able to take a break at home base. </p><p>The game will last 20 minutes no matter what.</p><p>You will visit home base every 5 minutes, so, you will visit home base three times during the game.</p><br><p><img src='run_exp/static/images/task_images/home_base.jpg' height='600' width='auto'></p><button class=""jspsych-html-btn-unchosen""><img src=""run_exp/static/images/task_images/planet-01.jpg"" height=""50""></button><button class=""jspsych-html-btn-chosen""><img src=""run_exp/static/images/task_images/planet-02.jpg"" height=""50""></button><p><b>[press the space bar to lock in your answer]<b><br></p>",32,,,,,,,,,,,,,,,,,,,,,,,
instruc_prac_game,24,250369,0.0-10.0-0.0,,null,run_exp/static/audio/clip_9_practice.m4a,null,"<p> Are you ready to play a practice game? </p> <p>In this practice game, you'll be digging up barrels of gems. But, in the real game, you'll be digging up the gems themselves. </p>",,,,,,,,,,,,,,,,,,,,,,
html-button-response,25,253367,0.0-10.0-1.0,,2995,"<p> Are you ready to play a practice game? </p> <p>In this practice game, you'll be digging up barrels of gems. But, in the real game, you'll be digging up the gems themselves. </p>",,,,,,0,,,,,,,,,,,,,,,,,,
alien_welcome_prac,26,258384,0.0-11.0-0.0,,null,run_exp/static/images/task_images/aliens/practice_aliens/planet/alien_planet-5.jpg,null,,,,,,,,,,,,,,,,,,,,,,,
land_prac,27,258886,0.0-11.0-1.0,,null,run_exp/static/images/task_images/land.jpg,null,,,,,,103,,,0,,,,,,,,,,,,,,
dig_prac,28,260905,0.0-11.0-2.0,,,,,,,,,,,"[{""stimulus"":""run_exp/static/images/task_images/dig.jpg"",""time"":0.2999999988824129},{""stimulus"":""run_exp/static/images/task_images/land.jpg"",""time"":678.5},{""stimulus"":""run_exp/static/images/task_images/dig.jpg"",""time"":1347.5}]",[],,,,,,,,,,,,,,,
harvest_prac,29,261921,0.0-11.0-3.0,,null,run_exp/static/images/task_images/barrel_text.jpg,null,,,,,,,,,,,,,,,,,,,,,,,
decision_prac,30,264925,0.0-11.0-4.0,,3001.9,run_exp/static/images/task_images/land.jpg,65,,,,,,,,,,1,,,,,,,,,,,,,
dig_prac,31,266934,0.0-12.0-0.0,,,,,,,,,,,"[{""stimulus"":""run_exp/static/images/task_images/dig.jpg"",""time"":0.40000000037252903},{""stimulus"":""run_exp/static/images/task_images/land.jpg"",""time"":683.5},{""stimulus"":""run_exp/static/images/task_images/dig.jpg"",""time"":1336.7999999988824}]",[],,,,,,,,,,,,,,,
harvest_prac,32,267945,0.0-12.0-1.0,,null,run_exp/static/images/task_images/barrel_text.jpg,null,,,,,,,,,,,,,,,,,,,,,,,
decision_prac,33,268499,0.0-12.0-2.0,,552.8,run_exp/static/images/task_images/land.jpg,65,,,,,,,,,,2,,,,,,,,,,,,,
dig_prac,34,270518,0.0-13.0-0.0,,,,,,,,,,,"[{""stimulus"":""run_exp/static/images/task_images/dig.jpg"",""time"":0.2000000011175871},{""stimulus"":""run_exp/static/images/task_images/land.jpg"",""time"":673.5},{""stimulus"":""run_exp/static/images/task_images/dig.jpg"",""time"":1346}]",[],,,,,,,,,,,,,,,
harvest_prac,35,271519,0.0-13.0-1.0,,null,run_exp/static/images/task_images/barrel_text.jpg,null,,,,,,,,,,,,,,,,,,,,,,,
decision_prac,36,273077,0.0-13.0-2.0,,1556.5,run_exp/static/images/task_images/land.jpg,65,,,,,,,,,,3,,,,,,,,,,,,,
dig_prac,37,275097,0.0-14.0-0.0,,,,,,,,,,,"[{""stimulus"":""run_exp/static/images/task_images/dig.jpg"",""time"":0.30000000074505806},{""stimulus"":""run_exp/static/images/task_images/land.jpg"",""time"":675.4000000003725},{""stimulus"":""run_exp/static/images/task_images/dig.jpg"",""time"":1343.5999999996275}]",[],,,,,,,,,,,,,,,
harvest_prac,38,276110,0.0-14.0-1.0,,null,run_exp/static/images/task_images/barrel_text.jpg,null,,,,,,,,,,,,,,,,,,,,,,,
decision_prac,39,276630,0.0-14.0-2.0,,519.3,run_exp/static/images/task_images/land.jpg,65,,,,,,,,,,4,,,,,,,,,,,,,
dig_prac,40,278648,0.0-15.0-0.0,,,,,,,,,,,"[{""stimulus"":""run_exp/static/images/task_images/dig.jpg"",""time"":0.19999999925494194},{""stimulus"":""run_exp/static/images/task_images/land.jpg"",""time"":673.2999999988824},{""stimulus"":""run_exp/static/images/task_images/dig.jpg"",""time"":1342.5999999996275}]",[],,,,,,,,,,,,,,,
harvest_prac,41,279659,0.0-15.0-1.0,,null,run_exp/static/images/task_images/barrel_text.jpg,null,,,,,,,,,,,,,,,,,,,,,,,
decision_prac,42,280254,0.0-15.0-2.0,,593.5,run_exp/static/images/task_images/land.jpg,65,,,,,,,,,,,1,,,,,,,,,,,,
quiz_instruc,43,284349,0.0-16.0-0.0,,4090.6,run_exp/static/audio/clip_10_quiz.m4a,,,,,,0,,,,,,,,,,,,,,,,,,
instruc_repeat,44,327148,0.0-16.0-1.0,,null,"<p> Are you ready to play a practice game? </p> <p>In this practice game, you'll be digging up barrels of gems. But, in the real game, you'll be digging up the gems themselves. </p>",null,"<p>In this game, your goal is to collect as many gems as you can. That’s how you will win bonus money. </p> <p>The entire game will last 20 minutes no matter how many gems you collect or how many planets you visit. </p><p>To stay on a planet and dig again, press the letter A on your keyboard. To leave for a new planet, press the letter L.</p><p>The more you dig on a planet, the fewer gems you’ll get with each dig which is why you might consider leaving for a new planet. </p><p>When you arrive at a new planet, you’ll be greeted by an alien. What the alien looks like does not tell you anything about how much treasure is on the planet. </p>",,,,,,,,,,,,,,,,,,,,,,
instruc_repeat_continue,45,361775,0.0-16.0-2.0,,34623,"<p> Are you ready to play a practice game? </p> <p>In this practice game, you'll be digging up barrels of gems. But, in the real game, you'll be digging up the gems themselves. </p>",,,,,,0,,,,,,,,,,,,,,,,,,
quiz_q_1_ask,46,365869,0.0-16.0-3.0,,4090.6,run_exp/static/audio/clip_11_q1_ask.m4a,,,,,,2,,,,,,,,,,,,,,,,,,
quiz_q_1_fb_correct,47,369765,0.0-17.0-0.0,,null,run_exp/static/audio/clip_12_q1_corrrect.m4a,null,<p>That’s correct. You win extra money by collecting more gems.</p>,,,,,,,,,,,,,,,,,,,,,,
quiz_q_2_ask,48,372690,0.0-17.0-1.0,,2922.3,run_exp/static/audio/clip_14_q2_ask.m4a,,,,,,1,,,,,,,,,,,,,,,,,,
quiz_q_2_fb_correct,49,376765,0.0-18.0-0.0,,null,run_exp/static/audio/clip_15_q2_correct.m4a,null,<p>That’s correct. The experiment is 20 minutes no matter what.</p>,,,,,,,,,,,,,,,,,,,,,,
quiz_q_3_ask,50,378856,0.0-18.0-1.0,,2088.9,run_exp/static/audio/clip_17_q3_ask.m4a,,,,,,1,,,,,,,,,,,,,,,,,,
quiz_q_3_fb_correct,51,382885,0.0-19.0-0.0,,null,run_exp/static/audio/clip_18_q3_correct.m4a,null,<p> That’s correct. You press the letter L to travel to a new planet.</p>,,,,,,,,,,,,,,,,,,,,,,
quiz_q_4_ask,52,384961,0.0-19.0-1.0,,2073.6,run_exp/static/audio/clip_20_q4_ask.m4a,,,,,,0,,,,,,,,,,,,,,,,,,
quiz_q_4_fb_correct,53,390345,0.0-20.0-0.0,,null,run_exp/static/audio/clip_21_q4_correct.m4a,null,<p> That’s correct. The more you dig on a planet the fewer gems you’ll get with each dig. </p>,,,,,,,,,,,,,,,,,,,,,,
quiz_q_5_ask,54,426891,0.0-20.0-1.0,,36543.4,run_exp/static/audio/clip_23_q5_ask.m4a,,,,,,1,,,,,,,,,,,,,,,,,,
quiz_q_5_fb_correct,55,432323,0.0-21.0-0.0,,null,run_exp/static/audio/clip_24_q5_correct.m4a,null,<p> That’s correct. The alien tells you nothing about how much treasure is on the planet.</p>,,,,,,,,,,,,,,,,,,,,,,
quiz_correct,56,435843,0.0-22.0-0.0,,null,run_exp/static/audio/clip_26_correct_quiz.m4a,null,,,,,,,,,,,,,,,,,,,,,,,
quiz_correct_continue,57,439774,0.0-22.0-1.0,,3927.9,<p>Good job! You're now ready to move on to the real game!</p>,,,,,,0,,,,,,,,,,,,,,,,,,
audio-keyboard-response,58,449963,0.0-22.0-2.0,,null,run_exp/static/audio/clip_28_real_game.m4a,null,,,,,,,,,,,,,,,,,,,,,,,
instruc_begin_exp_contine,59,478555,0.0-22.0-3.0,,28590,"<p>Now that you know how  to dig for space treasure and travel to new planets,you can start exploring! </p><p>Do you want to go over the instructions again or get started with the real game?</p>",,,,,,1,,,,,,1,,,,,,,,,,,,
alien_welcome,60,483575,0.0-23.0-0.0,,null,run_exp/static/images/task_images/aliens/old_aliens/planet/alien_planet-41.jpg,null,,,,,,,,,,,,41,"41,65,37,16,18,58,21,49,13,70,60,68,61,28,56,34,78,5,27,59,40,4,1,71,38,2,12,64,63,10,32,30,17,42,36,76,15,43,51,80,25,23,67,73",,,,,,,,,,
land,61,484078,0.0-23.0-1.0,,null,run_exp/static/images/task_images/land.jpg,null,,,,,,99,,,1,,,,,,,,,,,,,,
dig,62,486092,0.0-23.0-2.0,,,,,,,,,,,"[{""stimulus"":""run_exp/static/images/task_images/dig.jpg"",""time"":0.40000000037252903},{""stimulus"":""run_exp/static/images/task_images/land.jpg"",""time"":675.8000000007451},{""stimulus"":""run_exp/static/images/task_images/dig.jpg"",""time"":1344.800000000745}]",[],1,,,,,,,,,,,,,,
harvest,63,487106,0.0-23.0-3.0,,null,run_exp/static/images/task_images/gems/99.jpg,null,,,,,,23,,,1,,,,,99,0.235885906,0.232323232,,,,,,,
decision,64,490111,0.0-23.0-4.0,,null,run_exp/static/images/task_images/land.jpg,null,,,,,,23,,,1,,,,,,,,11554,1,0,FALSE,,,
time_out,65,492132,0.0-24.0-0.0,,null,run_exp/static/images/task_images/time_out.jpg,null,,,,,,23,,,,,,,,,,,,,,,,,
decision,66,492169,0.0-24.0-1.0,,34.4,run_exp/static/images/task_images/land.jpg,65,,,,,,23,,,1,,,,,,,,13611,1,0,FALSE,,,
dig,67,495150,0.0-25.0-0.0,,,,,,,,,,,"[{""stimulus"":""run_exp/static/images/task_images/dig.jpg"",""time"":0.2999999988824129},{""stimulus"":""run_exp/static/images/task_images/land.jpg"",""time"":999.5},{""stimulus"":""run_exp/static/images/task_images/dig.jpg"",""time"":1981.2999999988824}]",[],1,,,,,,,,,,,,,,
harvest,68,496162,0.0-25.0-1.0,,null,run_exp/static/images/task_images/gems/23.jpg,null,,,,,,4,,,1,,,,,23,0.168804373,0.173913043,,,,,,,
decision,69,496602,0.0-25.0-2.0,,437.7,run_exp/static/images/task_images/land.jpg,65,,,,,,4,,,1,,,,,,,,18044,1,1,FALSE,,,
dig,70,499181,0.0-26.0-0.0,,,,,,,,,,,"[{""stimulus"":""run_exp/static/images/task_images/dig.jpg"",""time"":0.30000000074505806},{""stimulus"":""run_exp/static/images/task_images/land.jpg"",""time"":864.7000000011176},{""stimulus"":""run_exp/static/images/task_images/dig.jpg"",""time"":1719.5}]",[],1,,,,,,,,,,,,,,
harvest,71,500193,0.0-26.0-1.0,,null,run_exp/static/images/task_images/gems/4.jpg,null,,,,,,1,,,1,,,,,4,0.163896576,0.25,,,,,,,
decision,72,500671,0.0-26.0-2.0,,475.8,run_exp/static/images/task_images/land.jpg,76,,,,,,1,,,1,,,,,,,,22113,1,2,TRUE,,,
travel,73,510206,0.0-27.0-0.0,,,,,,,,,,,"[{""stimulus"":""run_exp/static/images/task_images/rocket-01.jpg"",""time"":0.30000000074505806},{""stimulus"":""run_exp/static/images/task_images/rocket-02.jpg"",""time"":1073},{""stimulus"":""run_exp/static/images/task_images/rocket-03.jpg"",""time"":2129.2000000011176},{""stimulus"":""run_exp/static/images/task_images/rocket-04.jpg"",""time"":3187},{""stimulus"":""run_exp/static/images/task_images/rocket-05.jpg"",""time"":4247.700000001118},{""stimulus"":""run_exp/static/images/task_images/rocket-06.jpg"",""time"":5300.9000000003725},{""stimulus"":""run_exp/static/images/task_images/rocket-07.jpg"",""time"":6357},{""stimulus"":""run_exp/static/images/task_images/rocket-08.jpg"",""time"":7416.700000001118},{""stimulus"":""run_exp/static/images/task_images/rocket-09.jpg"",""time"":8473.900000000373}]",[],1,,,,,,,,,,,,,,
alien_welcome,74,515224,0.0-27.0-1.0,,null,run_exp/static/images/task_images/aliens/old_aliens/planet/alien_planet-65.jpg,null,,,,,,,,,,,,65,"41,65,37,16,18,58,21,49,13,70,60,68,61,28,56,34,78,5,27,59,40,4,1,71,38,2,12,64,63,10,32,30,17,42,36,76,15,43,51,80,25,23,67,73",,,,,,,,,,
land,75,515738,0.0-27.0-2.0,,null,run_exp/static/images/task_images/land.jpg,null,,,,,,95,,,2,,,,,,,,,,,,,,
dig,76,517758,0.0-27.0-3.0,,,,,,,,,,,"[{""stimulus"":""run_exp/static/images/task_images/dig.jpg"",""time"":0.5},{""stimulus"":""run_exp/static/images/task_images/land.jpg"",""time"":683.2999999988824},{""stimulus"":""run_exp/static/images/task_images/dig.jpg"",""time"":1349.4000000003725}]",[],2,,,,,,,,,,,,,,
harvest,77,518774,0.0-27.0-4.0,,null,run_exp/static/images/task_images/gems/95.jpg,null,,,,,,16,,,2,,,,,95,0.17094158,0.168421053,,,,,,,
decision,78,518941,0.0-27.0-5.0,,165.1,run_exp/static/images/task_images/land.jpg,65,,,,,,16,,,2,,,,,,,,40384,1,0,FALSE,,,
dig,79,521790,0.0-28.0-0.0,,,,,,,,,,,"[{""stimulus"":""run_exp/static/images/task_images/dig.jpg"",""time"":0.19999999925494194},{""stimulus"":""run_exp/static/images/task_images/land.jpg"",""time"":960.8000000007451},{""stimulus"":""run_exp/static/images/task_images/dig.jpg"",""time"":1894.300000000745}]",[],2,,,,,,,,,,,,,,
harvest,80,522803,0.0-28.0-1.0,,null,run_exp/static/images/task_images/gems/16.jpg,null,,,,,,3,,,2,,,,,16,0.160825021,0.1875,,,,,,,
decision,81,524079,0.0-28.0-2.0,,1271.9,run_exp/static/images/task_images/land.jpg,76,,,,,,3,,,2,,,,,,,,45521,1,1,TRUE,,,
travel,82,532816,0.0-29.0-0.0,,,,,,,,,,,"[{""stimulus"":""run_exp/static/images/task_images/rocket-01.jpg"",""time"":0.40000000037252903},{""stimulus"":""run_exp/static/images/task_images/rocket-02.jpg"",""time"":972.7999999988824},{""stimulus"":""run_exp/static/images/task_images/rocket-03.jpg"",""time"":1952.9000000003725},{""stimulus"":""run_exp/static/images/task_images/rocket-04.jpg"",""time"":2915.5},{""stimulus"":""run_exp/static/images/task_images/rocket-05.jpg"",""time"":3892.5999999996275},{""stimulus"":""run_exp/static/images/task_images/rocket-06.jpg"",""time"":4860.4000000003725},{""stimulus"":""run_exp/static/images/task_images/rocket-07.jpg"",""time"":5826.699999999255},{""stimulus"":""run_exp/static/images/task_images/rocket-08.jpg"",""time"":6790.9000000003725},{""stimulus"":""run_exp/static/images/task_images/rocket-09.jpg"",""time"":7754.699999999255}]",[],2,,,,,,,,,,,,,,
alien_welcome,83,537824,0.0-29.0-1.0,,null,run_exp/static/images/task_images/aliens/old_aliens/planet/alien_planet-37.jpg,null,,,,,,,,,,,,37,"41,65,37,16,18,58,21,49,13,70,60,68,61,28,56,34,78,5,27,59,40,4,1,71,38,2,12,64,63,10,32,30,17,42,36,76,15,43,51,80,25,23,67,73",,,,,,,,,,
land,84,538336,0.0-29.0-2.0,,null,run_exp/static/images/task_images/land.jpg,null,,,,,,97,,,3,,,,,,,,,,,,,,
dig,85,540359,0.0-29.0-3.0,,,,,,,,,,,"[{""stimulus"":""run_exp/static/images/task_images/dig.jpg"",""time"":0.5},{""stimulus"":""run_exp/static/images/task_images/land.jpg"",""time"":682.2999999988824},{""stimulus"":""run_exp/static/images/task_images/dig.jpg"",""time"":1350.199999999255}]",[],3,,,,,,,,,,,,,,
harvest,86,541372,0.0-29.0-4.0,,null,run_exp/static/images/task_images/gems/97.jpg,null,,,,,,40,,,3,,,,,97,0.413186144,0.412371134,,,,,,,
decision,87,541691,0.0-29.0-5.0,,316.6,run_exp/static/images/task_images/land.jpg,65,,,,,,40,,,3,,,,,,,,63133,1,0,FALSE,,,
dig,88,544386,0.0-30.0-0.0,,,,,,,,,,,"[{""stimulus"":""run_exp/static/images/task_images/dig.jpg"",""time"":0.40000000037252903},{""stimulus"":""run_exp/static/images/task_images/land.jpg"",""time"":899.5999999996275},{""stimulus"":""run_exp/static/images/task_images/dig.jpg"",""time"":1801.800000000745}]",[],3,,,,,,,,,,,,,,
harvest,89,545402,0.0-30.0-1.0,,null,run_exp/static/images/task_images/gems/40.jpg,null,,,,,,23,,,3,,,,,40,0.565815851,0.575,,,,,,,
decision,90,545780,0.0-30.0-2.0,,376.3,run_exp/static/images/task_images/land.jpg,65,,,,,,23,,,3,,,,,,,,67222,1,1,FALSE,,,
dig,91,548423,0.0-31.0-0.0,,,,,,,,,,,"[{""stimulus"":""run_exp/static/images/task_images/dig.jpg"",""time"":0.30000000074505806},{""stimulus"":""run_exp/static/images/task_images/land.jpg"",""time"":890.0999999996275},{""stimulus"":""run_exp/static/images/task_images/dig.jpg"",""time"":1761.4000000003725}]",[],3,,,,,,,,,,,,,,
harvest,92,549438,0.0-31.0-1.0,,null,run_exp/static/images/task_images/gems/23.jpg,null,,,,,,10,,,3,,,,,23,0.435905668,0.434782609,,,,,,,
decision,93,552444,0.0-31.0-2.0,,null,run_exp/static/images/task_images/land.jpg,null,,,,,,10,,,3,,,,,,,,73886,1,2,FALSE,,,
time_out,94,554457,0.0-32.0-0.0,,null,run_exp/static/images/task_images/time_out.jpg,null,,,,,,10,,,,,,,,,,,,,,,,,
decision,95,554716,0.0-32.0-1.0,,257.5,run_exp/static/images/task_images/land.jpg,76,,,,,,10,,,3,,,,,,,,76159,1,2,TRUE,,,
travel,96,564471,0.0-33.0-0.0,,,,,,,,,,,"[{""stimulus"":""run_exp/static/images/task_images/rocket-01.jpg"",""time"":0.30000000074505806},{""stimulus"":""run_exp/static/images/task_images/rocket-02.jpg"",""time"":1090.800000000745},{""stimulus"":""run_exp/static/images/task_images/rocket-03.jpg"",""time"":2181.0999999996275},{""stimulus"":""run_exp/static/images/task_images/rocket-04.jpg"",""time"":3252.300000000745},{""stimulus"":""run_exp/static/images/task_images/rocket-05.jpg"",""time"":4339.199999999255},{""stimulus"":""run_exp/static/images/task_images/rocket-06.jpg"",""time"":5424.5},{""stimulus"":""run_exp/static/images/task_images/rocket-07.jpg"",""time"":6503.39999999851},{""stimulus"":""run_exp/static/images/task_images/rocket-08.jpg"",""time"":7588.699999999255},{""stimulus"":""run_exp/static/images/task_images/rocket-09.jpg"",""time"":8663.10000000149}]",[],3,,,,,,,,,,,,,,
alien_welcome,97,569482,0.0-33.0-1.0,,null,run_exp/static/images/task_images/aliens/old_aliens/planet/alien_planet-16.jpg,null,,,,,,,,,,,,16,"41,65,37,16,18,58,21,49,13,70,60,68,61,28,56,34,78,5,27,59,40,4,1,71,38,2,12,64,63,10,32,30,17,42,36,76,15,43,51,80,25,23,67,73",,,,,,,,,,
land,98,569989,0.0-33.0-2.0,,null,run_exp/static/images/task_images/land.jpg,null,,,,,,94,,,4,,,,,,,,,,,,,,
dig,99,572000,0.0-33.0-3.0,,,,,,,,,,,"[{""stimulus"":""run_exp/static/images/task_images/dig.jpg"",""time"":0.30000000074505806},{""stimulus"":""run_exp/static/images/task_images/land.jpg"",""time"":683.3000000007451},{""stimulus"":""run_exp/static/images/task_images/dig.jpg"",""time"":1340.199999999255}]",[],4,,,,,,,,,,,,,,
harvest,100,573012,0.0-33.0-4.0,,null,run_exp/static/images/task_images/gems/94.jpg,null,,,,,,48,,,4,,,,,94,0.505727228,0.510638298,,,,,,,
decision,101,573241,0.0-33.0-5.0,,226.4,run_exp/static/images/task_images/land.jpg,65,,,,,,48,,,4,,,,,,,,94683,1,0,FALSE,,,
dig,102,576032,0.0-34.0-0.0,,,,,,,,,,,"[{""stimulus"":""run_exp/static/images/task_images/dig.jpg"",""time"":0.3999999985098839},{""stimulus"":""run_exp/static/images/task_images/land.jpg"",""time"":932.3000000007451},{""stimulus"":""run_exp/static/images/task_images/dig.jpg"",""time"":1854.8999999985099}]",[],4,,,,,,,,,,,,,,
harvest,103,577045,0.0-34.0-1.0,,null,run_exp/static/images/task_images/gems/48.jpg,null,,,,,,28,,,4,,,,,48,0.5789175,0.583333333,,,,,,,
decision,104,577550,0.0-34.0-2.0,,503,run_exp/static/images/task_images/land.jpg,65,,,,,,28,,,4,,,,,,,,98992,1,1,FALSE,,,
dig,105,580063,0.0-35.0-0.0,,,,,,,,,,,"[{""stimulus"":""run_exp/static/images/task_images/dig.jpg"",""time"":0.3999999985098839},{""stimulus"":""run_exp/static/images/task_images/land.jpg"",""time"":841.5},{""stimulus"":""run_exp/static/images/task_images/dig.jpg"",""time"":1666.5}]",[],4,,,,,,,,,,,,,,
harvest,106,581077,0.0-35.0-1.0,,null,run_exp/static/images/task_images/gems/28.jpg,null,,,,,,16,,,4,,,,,28,0.575033045,0.571428571,,,,,,,
decision,107,581478,0.0-35.0-2.0,,399.2,run_exp/static/images/task_images/land.jpg,76,,,,,,16,,,4,,,,,,,,102920,1,2,TRUE,,,
travel,108,591081,0.0-36.0-0.0,,,,,,,,,,,"[{""stimulus"":""run_exp/static/images/task_images/rocket-01.jpg"",""time"":0.29999999701976776},{""stimulus"":""run_exp/static/images/task_images/rocket-02.jpg"",""time"":1073.7999999970198},{""stimulus"":""run_exp/static/images/task_images/rocket-03.jpg"",""time"":2148.2999999970198},{""stimulus"":""run_exp/static/images/task_images/rocket-04.jpg"",""time"":3204},{""stimulus"":""run_exp/static/images/task_images/rocket-05.jpg"",""time"":4274.699999999255},{""stimulus"":""run_exp/static/images/task_images/rocket-06.jpg"",""time"":5333},{""stimulus"":""run_exp/static/images/task_images/rocket-07.jpg"",""time"":6408.29999999702},{""stimulus"":""run_exp/static/images/task_images/rocket-08.jpg"",""time"":7466.5},{""stimulus"":""run_exp/static/images/task_images/rocket-09.jpg"",""time"":8540.5}]",[],4,,,,,,,,,,,,,,
alien_welcome,109,596097,0.0-36.0-1.0,,null,run_exp/static/images/task_images/aliens/old_aliens/planet/alien_planet-18.jpg,null,,,,,,,,,,,,18,"41,65,37,16,18,58,21,49,13,70,60,68,61,28,56,34,78,5,27,59,40,4,1,71,38,2,12,64,63,10,32,30,17,42,36,76,15,43,51,80,25,23,67,73",,,,,,,,,,
land,110,596613,0.0-36.0-2.0,,null,run_exp/static/images/task_images/land.jpg,null,,,,,,94,,,5,,,,,,,,,,,,,,
dig,111,598633,0.0-36.0-3.0,,,,,,,,,,,"[{""stimulus"":""run_exp/static/images/task_images/dig.jpg"",""time"":0.30000000074505806},{""stimulus"":""run_exp/static/images/task_images/land.jpg"",""time"":683.1999999992549},{""stimulus"":""run_exp/static/images/task_images/dig.jpg"",""time"":1336.0999999977648}]",[],5,,,,,,,,,,,,,,
harvest,112,599646,0.0-36.0-4.0,,null,run_exp/static/images/task_images/gems/94.jpg,null,,,,,,41,,,5,,,,,94,0.43786823,0.436170213,,,,,,,
decision,113,599924,0.0-36.0-5.0,,276,run_exp/static/images/task_images/land.jpg,65,,,,,,41,,,5,,,,,,,,121366,1,0,FALSE,,,
dig,114,602662,0.0-37.0-0.0,,,,,,,,,,,"[{""stimulus"":""run_exp/static/images/task_images/dig.jpg"",""time"":0.30000000074505806},{""stimulus"":""run_exp/static/images/task_images/land.jpg"",""time"":920.1999999992549},{""stimulus"":""run_exp/static/images/task_images/dig.jpg"",""time"":1824.199999999255}]",[],5,,,,,,,,,,,,,,
harvest,115,603674,0.0-37.0-1.0,,null,run_exp/static/images/task_images/gems/41.jpg,null,,,,,,18,,,5,,,,,41,0.447684721,0.43902439,,,,,,,
decision,116,604495,0.0-37.0-2.0,,818.7,run_exp/static/images/task_images/land.jpg,76,,,,,,18,,,5,,,,,,,,125937,1,1,TRUE,,,
travel,117,613684,0.0-38.0-0.0,,,,,,,,,,,"[{""stimulus"":""run_exp/static/images/task_images/rocket-01.jpg"",""time"":0.3999999985098839},{""stimulus"":""run_exp/static/images/task_images/rocket-02.jpg"",""time"":1026.199999999255},{""stimulus"":""run_exp/static/images/task_images/rocket-03.jpg"",""time"":2055.300000000745},{""stimulus"":""run_exp/static/images/task_images/rocket-04.jpg"",""time"":3070.300000000745},{""stimulus"":""run_exp/static/images/task_images/rocket-05.jpg"",""time"":4082.800000000745},{""stimulus"":""run_exp/static/images/task_images/rocket-06.jpg"",""time"":5107.800000000745},{""stimulus"":""run_exp/static/images/task_images/rocket-07.jpg"",""time"":6133.699999999255},{""stimulus"":""run_exp/static/images/task_images/rocket-08.jpg"",""time"":7144.099999997765},{""stimulus"":""run_exp/static/images/task_images/rocket-09.jpg"",""time"":8170.199999999255}]",[],5,,,,,,,,,,,,,,
alien_welcome,118,618687,0.0-38.0-1.0,,null,run_exp/static/images/task_images/aliens/old_aliens/planet/alien_planet-58.jpg,null,,,,,,,,,,,,58,"41,65,37,16,18,58,21,49,13,70,60,68,61,28,56,34,78,5,27,59,40,4,1,71,38,2,12,64,63,10,32,30,17,42,36,76,15,43,51,80,25,23,67,73",,,,,,,,,,
land,119,619197,0.0-38.0-2.0,,null,run_exp/static/images/task_images/land.jpg,null,,,,,,103,,,6,,,,,,,,,,,,,,
dig,120,621219,0.0-38.0-3.0,,,,,,,,,,,"[{""stimulus"":""run_exp/static/images/task_images/dig.jpg"",""time"":0.4000000022351742},{""stimulus"":""run_exp/static/images/task_images/land.jpg"",""time"":680.8000000007451},{""stimulus"":""run_exp/static/images/task_images/dig.jpg"",""time"":1350.9000000022352}]",[],6,,,,,,,,,,,,,,
harvest,121,622229,0.0-38.0-4.0,,null,run_exp/static/images/task_images/gems/103.jpg,null,,,,,,84,,,6,,,,,103,0.818880943,0.815533981,,,,,,,
decision,122,622599,0.0-38.0-5.0,,367.9,run_exp/static/images/task_images/land.jpg,65,,,,,,84,,,6,,,,,,,,144041,1,0,FALSE,,,
dig,123,625245,0.0-39.0-0.0,,,,,,,,,,,"[{""stimulus"":""run_exp/static/images/task_images/dig.jpg"",""time"":0.3999999985098839},{""stimulus"":""run_exp/static/images/task_images/land.jpg"",""time"":880.2999999970198},{""stimulus"":""run_exp/static/images/task_images/dig.jpg"",""time"":1766.3999999985099}]",[],6,,,,,,,,,,,,,,
harvest,124,626256,0.0-39.0-1.0,,null,run_exp/static/images/task_images/gems/84.jpg,null,,,,,,71,,,6,,,,,84,0.848567716,0.845238095,,,,,,,
decision,125,626562,0.0-39.0-2.0,,303.1,run_exp/static/images/task_images/land.jpg,65,,,,,,71,,,6,,,,,,,,148004,1,1,FALSE,,,
dig,126,629266,0.0-40.0-0.0,,,,,,,,,,,"[{""stimulus"":""run_exp/static/images/task_images/dig.jpg"",""time"":0.5},{""stimulus"":""run_exp/static/images/task_images/land.jpg"",""time"":903.8999999985099},{""stimulus"":""run_exp/static/images/task_images/dig.jpg"",""time"":1809.3999999985099}]",[],6,,,,,,,,,,,,,,
harvest,127,630279,0.0-40.0-1.0,,null,run_exp/static/images/task_images/gems/71.jpg,null,,,,,,52,,,6,,,,,71,0.737201169,0.732394366,,,,,,,
decision,128,630548,0.0-40.0-2.0,,267.2,run_exp/static/images/task_images/land.jpg,65,,,,,,52,,,6,,,,,,,,151990,1,2,FALSE,,,
dig,129,633297,0.0-41.0-0.0,,,,,,,,,,,"[{""stimulus"":""run_exp/static/images/task_images/dig.jpg"",""time"":0.4000000022351742},{""stimulus"":""run_exp/static/images/task_images/land.jpg"",""time"":923.8000000007451},{""stimulus"":""run_exp/static/images/task_images/dig.jpg"",""time"":1826.5}]",[],6,,,,,,,,,,,,,,
harvest,130,634299,0.0-41.0-1.0,,null,run_exp/static/images/task_images/gems/52.jpg,null,,,,,,46,,,6,,,,,52,0.877857819,0.884615385,,,,,,,
decision,131,634489,0.0-41.0-2.0,,188.4,run_exp/static/images/task_images/land.jpg,65,,,,,,46,,,6,,,,,,,,155932,1,3,FALSE,,,
dig,132,637313,0.0-42.0-0.0,,,,,,,,,,,"[{""stimulus"":""run_exp/static/images/task_images/dig.jpg"",""time"":0.30000000074505806},{""stimulus"":""run_exp/static/images/task_images/land.jpg"",""time"":953.3000000007451},{""stimulus"":""run_exp/static/images/task_images/dig.jpg"",""time"":1886.800000000745}]",[],6,,,,,,,,,,,,,,
harvest,133,638326,0.0-42.0-1.0,,null,run_exp/static/images/task_images/gems/46.jpg,null,,,,,,38,,,6,,,,,46,0.816540919,0.826086957,,,,,,,
decision,134,638692,0.0-42.0-2.0,,363.8,run_exp/static/images/task_images/land.jpg,65,,,,,,38,,,6,,,,,,,,160134,1,4,FALSE,,,
dig,135,641332,0.0-43.0-0.0,,,,,,,,,,,"[{""stimulus"":""run_exp/static/images/task_images/dig.jpg"",""time"":0.30000000074505806},{""stimulus"":""run_exp/static/images/task_images/land.jpg"",""time"":889.6999999992549},{""stimulus"":""run_exp/static/images/task_images/dig.jpg"",""time"":1763.699999999255}]",[],6,,,,,,,,,,,,,,
harvest,136,642343,0.0-43.0-1.0,,null,run_exp/static/images/task_images/gems/38.jpg,null,,,,,,30,,,6,,,,,38,0.783554047,0.789473684,,,,,,,
decision,137,642876,0.0-43.0-2.0,,530.8,run_exp/static/images/task_images/land.jpg,76,,,,,,30,,,6,,,,,,,,164318,1,5,TRUE,,,
travel,138,652356,0.0-44.0-0.0,,,,,,,,,,,"[{""stimulus"":""run_exp/static/images/task_images/rocket-01.jpg"",""time"":0.6999999992549419},{""stimulus"":""run_exp/static/images/task_images/rocket-02.jpg"",""time"":1066.699999999255},{""stimulus"":""run_exp/static/images/task_images/rocket-03.jpg"",""time"":2109.89999999851},{""stimulus"":""run_exp/static/images/task_images/rocket-04.jpg"",""time"":3165.5},{""stimulus"":""run_exp/static/images/task_images/rocket-05.jpg"",""time"":4222},{""stimulus"":""run_exp/static/images/task_images/rocket-06.jpg"",""time"":5264.599999997765},{""stimulus"":""run_exp/static/images/task_images/rocket-07.jpg"",""time"":6319.300000000745},{""stimulus"":""run_exp/static/images/task_images/rocket-08.jpg"",""time"":7375.5},{""stimulus"":""run_exp/static/images/task_images/rocket-09.jpg"",""time"":8432.5}]",[],6,,,,,,,,,,,,,,
alien_welcome,139,657369,0.0-44.0-1.0,,null,run_exp/static/images/task_images/aliens/old_aliens/planet/alien_planet-21.jpg,null,,,,,,,,,,,,21,"41,65,37,16,18,58,21,49,13,70,60,68,61,28,56,34,78,5,27,59,40,4,1,71,38,2,12,64,63,10,32,30,17,42,36,76,15,43,51,80,25,23,67,73",,,,,,,,,,
land,140,657882,0.0-44.0-2.0,,null,run_exp/static/images/task_images/land.jpg,null,,,,,,105,,,7,,,,,,,,,,,,,,
dig,141,659887,0.0-44.0-3.0,,,,,,,,,,,"[{""stimulus"":""run_exp/static/images/task_images/dig.jpg"",""time"":0.3999999985098839},{""stimulus"":""run_exp/static/images/task_images/land.jpg"",""time"":682.8999999985099},{""stimulus"":""run_exp/static/images/task_images/dig.jpg"",""time"":1351}]",[],7,,,,,,,,,,,,,,
harvest,142,660898,0.0-44.0-4.0,,null,run_exp/static/images/task_images/gems/105.jpg,null,,,,,,88,,,7,,,,,105,0.836356189,0.838095238,,,,,,,
decision,143,661227,0.0-44.0-5.0,,327.6,run_exp/static/images/task_images/land.jpg,65,,,,,,88,,,7,,,,,,,,182669,1,0,FALSE,,,
dig,144,663908,0.0-45.0-0.0,,,,,,,,,,,"[{""stimulus"":""run_exp/static/images/task_images/dig.jpg"",""time"":0.29999999701976776},{""stimulus"":""run_exp/static/images/task_images/land.jpg"",""time"":902.8999999985099},{""stimulus"":""run_exp/static/images/task_images/dig.jpg"",""time"":1790.5999999977648}]",[],7,,,,,,,,,,,,,,
harvest,145,664920,0.0-45.0-1.0,,null,run_exp/static/images/task_images/gems/88.jpg,null,,,,,,72,,,7,,,,,88,0.818922451,0.818181818,,,,,,,
decision,146,665026,0.0-45.0-2.0,,104.9,run_exp/static/images/task_images/land.jpg,65,,,,,,72,,,7,,,,,,,,186469,1,1,FALSE,,,
dig,147,667938,0.0-46.0-0.0,,,,,,,,,,,"[{""stimulus"":""run_exp/static/images/task_images/dig.jpg"",""time"":0.29999999701976776},{""stimulus"":""run_exp/static/images/task_images/land.jpg"",""time"":975.6999999992549},{""stimulus"":""run_exp/static/images/task_images/dig.jpg"",""time"":1942.5}]",[],7,,,,,,,,,,,,,,
harvest,148,668953,0.0-46.0-1.0,,null,run_exp/static/images/task_images/gems/72.jpg,null,,,,,,56,,,7,,,,,72,0.782235591,0.777777778,,,,,,,
decision,149,669058,0.0-46.0-2.0,,103.5,run_exp/static/images/task_images/land.jpg,65,,,,,,56,,,7,,,,,,,,190500,1,2,FALSE,,,
dig,150,671961,0.0-47.0-0.0,,,,,,,,,,,"[{""stimulus"":""run_exp/static/images/task_images/dig.jpg"",""time"":0.19999999925494194},{""stimulus"":""run_exp/static/images/task_images/land.jpg"",""time"":980.8999999985099},{""stimulus"":""run_exp/static/images/task_images/dig.jpg"",""time"":1934.300000000745}]",[],7,,,,,,,,,,,,,,
harvest,151,672974,0.0-47.0-1.0,,null,run_exp/static/images/task_images/gems/56.jpg,null,,,,,,46,,,7,,,,,56,0.821933698,0.821428571,,,,,,,
decision,152,673132,0.0-47.0-2.0,,155.4,run_exp/static/images/task_images/land.jpg,65,,,,,,46,,,7,,,,,,,,194575,1,3,FALSE,,,
dig,153,675990,0.0-48.0-0.0,,,,,,,,,,,"[{""stimulus"":""run_exp/static/images/task_images/dig.jpg"",""time"":0.30000000074505806},{""stimulus"":""run_exp/static/images/task_images/land.jpg"",""time"":954.1000000014901},{""stimulus"":""run_exp/static/images/task_images/dig.jpg"",""time"":1903.300000000745}]",[],7,,,,,,,,,,,,,,
harvest,154,677005,0.0-48.0-1.0,,null,run_exp/static/images/task_images/gems/46.jpg,null,,,,,,40,,,7,,,,,46,0.869306636,0.869565217,,,,,,,
decision,155,677267,0.0-48.0-2.0,,259.8,run_exp/static/images/task_images/land.jpg,76,,,,,,40,,,7,,,,,,,,198709,1,4,TRUE,,,
travel,156,687019,0.0-49.0-0.0,,,,,,,,,,,"[{""stimulus"":""run_exp/static/images/task_images/rocket-01.jpg"",""time"":0.30000000074505806},{""stimulus"":""run_exp/static/images/task_images/rocket-02.jpg"",""time"":1089},{""stimulus"":""run_exp/static/images/task_images/rocket-03.jpg"",""time"":2179.10000000149},{""stimulus"":""run_exp/static/images/task_images/rocket-04.jpg"",""time"":3259.900000002235},{""stimulus"":""run_exp/static/images/task_images/rocket-05.jpg"",""time"":4333.900000002235},{""stimulus"":""run_exp/static/images/task_images/rocket-06.jpg"",""time"":5420.60000000149},{""stimulus"":""run_exp/static/images/task_images/rocket-07.jpg"",""time"":6508.400000002235},{""stimulus"":""run_exp/static/images/task_images/rocket-08.jpg"",""time"":7584.699999999255},{""stimulus"":""run_exp/static/images/task_images/rocket-09.jpg"",""time"":8658.5}]",[],7,,,,,,,,,,,,,,
alien_welcome,157,692022,0.0-49.0-1.0,,null,run_exp/static/images/task_images/aliens/old_aliens/planet/alien_planet-49.jpg,null,,,,,,,,,,,,49,"41,65,37,16,18,58,21,49,13,70,60,68,61,28,56,34,78,5,27,59,40,4,1,71,38,2,12,64,63,10,32,30,17,42,36,76,15,43,51,80,25,23,67,73",,,,,,,,,,
land,158,692535,0.0-49.0-2.0,,null,run_exp/static/images/task_images/land.jpg,null,,,,,,94,,,8,,,,,,,,,,,,,,
dig,159,694542,0.0-49.0-3.0,,,,,,,,,,,"[{""stimulus"":""run_exp/static/images/task_images/dig.jpg"",""time"":0.30000000074505806},{""stimulus"":""run_exp/static/images/task_images/land.jpg"",""time"":680.8000000007451},{""stimulus"":""run_exp/static/images/task_images/dig.jpg"",""time"":1349.3999999985099}]",[],8,,,,,,,,,,,,,,
harvest,160,695557,0.0-49.0-4.0,,null,run_exp/static/images/task_images/gems/94.jpg,null,,,,,,73,,,8,,,,,94,0.776627951,0.776595745,,,,,,,
decision,161,695839,0.0-49.0-5.0,,280,run_exp/static/images/task_images/land.jpg,65,,,,,,73,,,8,,,,,,,,217281,1,0,FALSE,,,
dig,162,698570,0.0-50.0-0.0,,,,,,,,,,,"[{""stimulus"":""run_exp/static/images/task_images/dig.jpg"",""time"":0.30000000074505806},{""stimulus"":""run_exp/static/images/task_images/land.jpg"",""time"":919.4000000022352},{""stimulus"":""run_exp/static/images/task_images/dig.jpg"",""time"":1823.300000000745}]",[],8,,,,,,,,,,,,,,
harvest,163,699583,0.0-50.0-1.0,,null,run_exp/static/images/task_images/gems/73.jpg,null,,,,,,64,,,8,,,,,73,0.872958772,0.876712329,,,,,,,
decision,164,700430,0.0-50.0-2.0,,845.1,run_exp/static/images/task_images/land.jpg,65,,,,,,64,,,8,,,,,,,,221872,1,1,FALSE,,,
dig,165,702595,0.0-51.0-0.0,,,,,,,,,,,"[{""stimulus"":""run_exp/static/images/task_images/dig.jpg"",""time"":0.30000000074505806},{""stimulus"":""run_exp/static/images/task_images/land.jpg"",""time"":728.1999999992549},{""stimulus"":""run_exp/static/images/task_images/dig.jpg"",""time"":1441.3999999985099}]",[],8,,,,,,,,,,,,,,
harvest,166,703607,0.0-51.0-1.0,,null,run_exp/static/images/task_images/gems/64.jpg,null,,,,,,47,,,8,,,,,64,0.735719579,0.734375,,,,,,,
decision,167,705399,0.0-51.0-2.0,,1790.4,run_exp/static/images/task_images/land.jpg,65,,,,,,47,,,8,,,,,,,,226842,1,2,FALSE,,,
dig,168,706631,0.0-52.0-0.0,,,,,,,,,,,"[{""stimulus"":""run_exp/static/images/task_images/dig.jpg"",""time"":0.29999999701976776},{""stimulus"":""run_exp/static/images/task_images/land.jpg"",""time"":410.79999999701977},{""stimulus"":""run_exp/static/images/task_images/dig.jpg"",""time"":820.1999999992549}]",[],8,,,,,,,,,,,,,,
harvest,169,707633,0.0-52.0-1.0,,null,run_exp/static/images/task_images/gems/47.jpg,null,,,,,,38,,,8,,,,,47,0.799911136,0.808510638,,,,,,,
decision,170,707964,0.0-52.0-2.0,,327.5,run_exp/static/images/task_images/land.jpg,76,,,,,,38,,,8,,,,,,,,229406,1,3,TRUE,,,
travel,171,717645,0.0-53.0-0.0,,,,,,,,,,,"[{""stimulus"":""run_exp/static/images/task_images/rocket-01.jpg"",""time"":0.30000000074505806},{""stimulus"":""run_exp/static/images/task_images/rocket-02.jpg"",""time"":1084.699999999255},{""stimulus"":""run_exp/static/images/task_images/rocket-03.jpg"",""time"":2159.300000000745},{""stimulus"":""run_exp/static/images/task_images/rocket-04.jpg"",""time"":3236},{""stimulus"":""run_exp/static/images/task_images/rocket-05.jpg"",""time"":4310},{""stimulus"":""run_exp/static/images/task_images/rocket-06.jpg"",""time"":5373.800000000745},{""stimulus"":""run_exp/static/images/task_images/rocket-07.jpg"",""time"":6452.39999999851},{""stimulus"":""run_exp/static/images/task_images/rocket-08.jpg"",""time"":7525.099999997765},{""stimulus"":""run_exp/static/images/task_images/rocket-09.jpg"",""time"":8598.5}]",[],8,,,,,,,,,,,,,,
alien_welcome,172,722662,0.0-53.0-1.0,,null,run_exp/static/images/task_images/aliens/old_aliens/planet/alien_planet-13.jpg,null,,,,,,,,,,,,13,"41,65,37,16,18,58,21,49,13,70,60,68,61,28,56,34,78,5,27,59,40,4,1,71,38,2,12,64,63,10,32,30,17,42,36,76,15,43,51,80,25,23,67,73",,,,,,,,,,
land,173,723174,0.0-53.0-2.0,,null,run_exp/static/images/task_images/land.jpg,null,,,,,,98,,,9,,,,,,,,,,,,,,
dig,174,725187,0.0-53.0-3.0,,,,,,,,,,,"[{""stimulus"":""run_exp/static/images/task_images/dig.jpg"",""time"":0.30000000074505806},{""stimulus"":""run_exp/static/images/task_images/land.jpg"",""time"":669.6000000014901},{""stimulus"":""run_exp/static/images/task_images/dig.jpg"",""time"":1339.800000000745}]",[],9,,,,,,,,,,,,,,
harvest,175,726203,0.0-53.0-4.0,,null,run_exp/static/images/task_images/gems/98.jpg,null,,,,,,25,,,9,,,,,98,0.255575111,0.255102041,,,,,,,
decision,176,726643,0.0-53.0-5.0,,438.5,run_exp/static/images/task_images/land.jpg,65,,,,,,25,,,9,,,,,,,,248085,1,0,FALSE,,,
dig,177,729217,0.0-54.0-0.0,,,,,,,,,,,"[{""stimulus"":""run_exp/static/images/task_images/dig.jpg"",""time"":0.19999999925494194},{""stimulus"":""run_exp/static/images/task_images/land.jpg"",""time"":859.6999999992549},{""stimulus"":""run_exp/static/images/task_images/dig.jpg"",""time"":1717.199999999255}]",[],9,,,,,,,,,,,,,,
harvest,178,730230,0.0-54.0-1.0,,null,run_exp/static/images/task_images/gems/25.jpg,null,,,,,,6,,,9,,,,,25,0.242978429,0.24,,,,,,,
decision,179,730830,0.0-54.0-2.0,,597.7,run_exp/static/images/task_images/land.jpg,76,,,,,,6,,,9,,,,,,,,252272,1,1,TRUE,,,
travel,180,740238,0.0-55.0-0.0,,,,,,,,,,,"[{""stimulus"":""run_exp/static/images/task_images/rocket-01.jpg"",""time"":0.30000000074505806},{""stimulus"":""run_exp/static/images/task_images/rocket-02.jpg"",""time"":1058.300000000745},{""stimulus"":""run_exp/static/images/task_images/rocket-03.jpg"",""time"":2103.10000000149},{""stimulus"":""run_exp/static/images/task_images/rocket-04.jpg"",""time"":3144.5},{""stimulus"":""run_exp/static/images/task_images/rocket-05.jpg"",""time"":4189},{""stimulus"":""run_exp/static/images/task_images/rocket-06.jpg"",""time"":5234},{""stimulus"":""run_exp/static/images/task_images/rocket-07.jpg"",""time"":6272.199999999255},{""stimulus"":""run_exp/static/images/task_images/rocket-08.jpg"",""time"":7316.5},{""stimulus"":""run_exp/static/images/task_images/rocket-09.jpg"",""time"":8358.10000000149}]",[],9,,,,,,,,,,,,,,
alien_welcome,181,745247,0.0-55.0-1.0,,null,run_exp/static/images/task_images/aliens/old_aliens/planet/alien_planet-70.jpg,null,,,,,,,,,,,,70,"41,65,37,16,18,58,21,49,13,70,60,68,61,28,56,34,78,5,27,59,40,4,1,71,38,2,12,64,63,10,32,30,17,42,36,76,15,43,51,80,25,23,67,73",,,,,,,,,,
land,182,745761,0.0-55.0-2.0,,null,run_exp/static/images/task_images/land.jpg,null,,,,,,105,,,10,,,,,,,,,,,,,,
dig,183,747770,0.0-55.0-3.0,,,,,,,,,,,"[{""stimulus"":""run_exp/static/images/task_images/dig.jpg"",""time"":0.3999999985098839},{""stimulus"":""run_exp/static/images/task_images/land.jpg"",""time"":669.5},{""stimulus"":""run_exp/static/images/task_images/dig.jpg"",""time"":1338.1000000014901}]",[],10,,,,,,,,,,,,,,
harvest,184,748782,0.0-55.0-4.0,,null,run_exp/static/images/task_images/gems/105.jpg,null,,,,,,15,,,10,,,,,105,0.143736093,0.142857143,,,,,,,
decision,185,749035,0.0-55.0-5.0,,250.9,run_exp/static/images/task_images/land.jpg,65,,,,,,15,,,10,,,,,,,,270477,1,0,FALSE,,,
dig,186,751802,0.0-56.0-0.0,,,,,,,,,,,"[{""stimulus"":""run_exp/static/images/task_images/dig.jpg"",""time"":0.30000000074505806},{""stimulus"":""run_exp/static/images/task_images/land.jpg"",""time"":926.2000000029802},{""stimulus"":""run_exp/static/images/task_images/dig.jpg"",""time"":1842}]",[],10,,,,,,,,,,,,,,
harvest,187,752818,0.0-56.0-1.0,,null,run_exp/static/images/task_images/gems/15.jpg,null,,,,,,2,,,10,,,,,15,0.146712467,0.133333333,,,,,,,
decision,188,753051,0.0-56.0-2.0,,231.3,run_exp/static/images/task_images/land.jpg,76,,,,,,2,,,10,,,,,,,,274493,1,1,TRUE,,,
travel,189,762838,0.0-57.0-0.0,,,,,,,,,,,"[{""stimulus"":""run_exp/static/images/task_images/rocket-01.jpg"",""time"":0.3999999985098839},{""stimulus"":""run_exp/static/images/task_images/rocket-02.jpg"",""time"":1095.300000000745},{""stimulus"":""run_exp/static/images/task_images/rocket-03.jpg"",""time"":2185},{""stimulus"":""run_exp/static/images/task_images/rocket-04.jpg"",""time"":3258.199999999255},{""stimulus"":""run_exp/static/images/task_images/rocket-05.jpg"",""time"":4347.699999999255},{""stimulus"":""run_exp/static/images/task_images/rocket-06.jpg"",""time"":5438},{""stimulus"":""run_exp/static/images/task_images/rocket-07.jpg"",""time"":6527.099999997765},{""stimulus"":""run_exp/static/images/task_images/rocket-08.jpg"",""time"":7599.89999999851},{""stimulus"":""run_exp/static/images/task_images/rocket-09.jpg"",""time"":8690}]",[],10,,,,,,,,,,,,,,
alien_welcome,190,767852,0.0-57.0-1.0,,null,run_exp/static/images/task_images/aliens/old_aliens/planet/alien_planet-60.jpg,null,,,,,,,,,,,,60,"41,65,37,16,18,58,21,49,13,70,60,68,61,28,56,34,78,5,27,59,40,4,1,71,38,2,12,64,63,10,32,30,17,42,36,76,15,43,51,80,25,23,67,73",,,,,,,,,,
land,191,768367,0.0-57.0-2.0,,null,run_exp/static/images/task_images/land.jpg,null,,,,,,106,,,11,,,,,,,,,,,,,,
dig,192,770378,0.0-57.0-3.0,,,,,,,,,,,"[{""stimulus"":""run_exp/static/images/task_images/dig.jpg"",""time"":0.3999999985098839},{""stimulus"":""run_exp/static/images/task_images/land.jpg"",""time"":681.5999999977648},{""stimulus"":""run_exp/static/images/task_images/dig.jpg"",""time"":1337.7999999970198}]",[],11,,,,,,,,,,,,,,
harvest,193,771389,0.0-57.0-4.0,,null,run_exp/static/images/task_images/gems/106.jpg,null,,,,,,16,,,11,,,,,106,0.150423548,0.150943396,,,,,,,
decision,194,772021,0.0-57.0-5.0,,629.7,run_exp/static/images/task_images/land.jpg,65,,,,,,16,,,11,,,,,,,,293463,1,0,FALSE,,,
dig,195,774408,0.0-58.0-0.0,,,,,,,,,,,"[{""stimulus"":""run_exp/static/images/task_images/dig.jpg"",""time"":0.19999999925494194},{""stimulus"":""run_exp/static/images/task_images/land.jpg"",""time"":794.3999999985099},{""stimulus"":""run_exp/static/images/task_images/dig.jpg"",""time"":1588.5}]",[],11,,,,,,,,,,,,,,
harvest,196,775421,0.0-58.0-1.0,,null,run_exp/static/images/task_images/gems/16.jpg,null,,,,,,3,,,11,,,,,16,0.186175908,0.1875,,,,,,,
decision,197,775471,0.0-58.0-2.0,,48.5,run_exp/static/images/task_images/land.jpg,76,,,,,,3,,,11,,,,,,,,296914,1,1,TRUE,,,
travel,198,785436,0.0-59.0-0.0,,,,,,,,,,,"[{""stimulus"":""run_exp/static/images/task_images/rocket-01.jpg"",""time"":0.3999999985098839},{""stimulus"":""run_exp/static/images/task_images/rocket-02.jpg"",""time"":1120.5999999977648},{""stimulus"":""run_exp/static/images/task_images/rocket-03.jpg"",""time"":2225.5},{""stimulus"":""run_exp/static/images/task_images/rocket-04.jpg"",""time"":3331.199999999255},{""stimulus"":""run_exp/static/images/task_images/rocket-05.jpg"",""time"":4432.599999997765},{""stimulus"":""run_exp/static/images/task_images/rocket-06.jpg"",""time"":5535.199999999255},{""stimulus"":""run_exp/static/images/task_images/rocket-07.jpg"",""time"":6639},{""stimulus"":""run_exp/static/images/task_images/rocket-08.jpg"",""time"":7743.89999999851},{""stimulus"":""run_exp/static/images/task_images/rocket-09.jpg"",""time"":8849.79999999702}]",[],11,,,,,,,,,,,,,,
alien_welcome,199,790445,0.0-59.0-1.0,,null,run_exp/static/images/task_images/aliens/old_aliens/planet/alien_planet-68.jpg,null,,,,,,,,,,,,68,"41,65,37,16,18,58,21,49,13,70,60,68,61,28,56,34,78,5,27,59,40,4,1,71,38,2,12,64,63,10,32,30,17,42,36,76,15,43,51,80,25,23,67,73",,,,,,,,,,
land,200,790960,0.0-59.0-2.0,,null,run_exp/static/images/task_images/land.jpg,null,,,,,,94,,,12,,,,,,,,,,,,,,
dig,201,792969,0.0-59.0-3.0,,,,,,,,,,,"[{""stimulus"":""run_exp/static/images/task_images/dig.jpg"",""time"":0.3999999985098839},{""stimulus"":""run_exp/static/images/task_images/land.jpg"",""time"":684.3000000007451},{""stimulus"":""run_exp/static/images/task_images/dig.jpg"",""time"":1339.0999999977648}]",[],12,,,,,,,,,,,,,,
harvest,202,793983,0.0-59.0-4.0,,null,run_exp/static/images/task_images/gems/94.jpg,null,,,,,,23,,,12,,,,,94,0.241870497,0.244680851,,,,,,,
decision,203,794228,0.0-59.0-5.0,,243,run_exp/static/images/task_images/land.jpg,65,,,,,,23,,,12,,,,,,,,315670,1,0,TRUE,,,
end_of_block_continue,204,801157,0.0-60.0-0.0,,6923.1,run_exp/static/audio/clip_32_block_end.m4a,,,,,,0,,,,,,,,,,,,,,,,,,
alien_welcome,205,806167,0.0-61.0-0.0,,null,run_exp/static/images/task_images/aliens/old_aliens/planet/alien_planet-61.jpg,null,,,,,,,,,,,,61,"41,65,37,16,18,58,21,49,13,70,60,68,61,28,56,34,78,5,27,59,40,4,1,71,38,2,12,64,63,10,32,30,17,42,36,76,15,43,51,80,25,23,67,73",,,,,,,,,,
land,206,806677,0.0-61.0-1.0,,null,run_exp/static/images/task_images/land.jpg,null,,,,,,96,,,13,,,,,,,,,,,,,,
dig,207,808698,0.0-61.0-2.0,,,,,,,,,,,"[{""stimulus"":""run_exp/static/images/task_images/dig.jpg"",""time"":0.5},{""stimulus"":""run_exp/static/images/task_images/land.jpg"",""time"":682.3000000007451},{""stimulus"":""run_exp/static/images/task_images/dig.jpg"",""time"":1349.9000000022352}]",[],13,,,,,,,,,,,,,,
harvest,208,809712,0.0-61.0-3.0,,null,run_exp/static/images/task_images/gems/96.jpg,null,,,,,,15,,,13,,,,,96,0.154356468,0.15625,,,,,,,
decision,209,809812,0.0-61.0-4.0,,97.8,run_exp/static/images/task_images/land.jpg,65,,,,,,15,,,13,,,,,,,,8650,2,0,FALSE,,,
dig,210,812730,0.0-62.0-0.0,,,,,,,,,,,"[{""stimulus"":""run_exp/static/images/task_images/dig.jpg"",""time"":0.4000000022351742},{""stimulus"":""run_exp/static/images/task_images/land.jpg"",""time"":980.4000000022352},{""stimulus"":""run_exp/static/images/task_images/dig.jpg"",""time"":1942.7000000029802}]",[],13,,,,,,,,,,,,,,
harvest,211,813746,0.0-62.0-1.0,,null,run_exp/static/images/task_images/gems/15.jpg,null,,,,,,2,,,13,,,,,15,0.16575157,0.133333333,,,,,,,
decision,212,814397,0.0-62.0-2.0,,649.6,run_exp/static/images/task_images/land.jpg,76,,,,,,2,,,13,,,,,,,,13235,2,1,TRUE,,,
travel,213,823760,0.0-63.0-0.0,,,,,,,,,,,"[{""stimulus"":""run_exp/static/images/task_images/rocket-01.jpg"",""time"":0.19999999925494194},{""stimulus"":""run_exp/static/images/task_images/rocket-02.jpg"",""time"":1041.5},{""stimulus"":""run_exp/static/images/task_images/rocket-03.jpg"",""time"":2087.699999999255},{""stimulus"":""run_exp/static/images/task_images/rocket-04.jpg"",""time"":3130.60000000149},{""stimulus"":""run_exp/static/images/task_images/rocket-05.jpg"",""time"":4154.60000000149},{""stimulus"":""run_exp/static/images/task_images/rocket-06.jpg"",""time"":5191.699999999255},{""stimulus"":""run_exp/static/images/task_images/rocket-07.jpg"",""time"":6235.5},{""stimulus"":""run_exp/static/images/task_images/rocket-08.jpg"",""time"":7280.60000000149},{""stimulus"":""run_exp/static/images/task_images/rocket-09.jpg"",""time"":8320.10000000149}]",[],13,,,,,,,,,,,,,,
alien_welcome,214,828771,0.0-63.0-1.0,,null,run_exp/static/images/task_images/aliens/old_aliens/planet/alien_planet-28.jpg,null,,,,,,,,,,,,28,"41,65,37,16,18,58,21,49,13,70,60,68,61,28,56,34,78,5,27,59,40,4,1,71,38,2,12,64,63,10,32,30,17,42,36,76,15,43,51,80,25,23,67,73",,,,,,,,,,
land,215,829274,0.0-63.0-2.0,,null,run_exp/static/images/task_images/land.jpg,null,,,,,,103,,,14,,,,,,,,,,,,,,
dig,216,831290,0.0-63.0-3.0,,,,,,,,,,,"[{""stimulus"":""run_exp/static/images/task_images/dig.jpg"",""time"":0.5},{""stimulus"":""run_exp/static/images/task_images/land.jpg"",""time"":676.1999999992549},{""stimulus"":""run_exp/static/images/task_images/dig.jpg"",""time"":1346.0999999977648}]",[],14,,,,,,,,,,,,,,
harvest,217,832302,0.0-63.0-4.0,,null,run_exp/static/images/task_images/gems/103.jpg,null,,,,,,19,,,14,,,,,103,0.18890991,0.184466019,,,,,,,
decision,218,832439,0.0-63.0-5.0,,134.1,run_exp/static/images/task_images/land.jpg,65,,,,,,19,,,14,,,,,,,,31277,2,0,FALSE,,,
dig,219,835322,0.0-64.0-0.0,,,,,,,,,,,"[{""stimulus"":""run_exp/static/images/task_images/dig.jpg"",""time"":0.30000000074505806},{""stimulus"":""run_exp/static/images/task_images/land.jpg"",""time"":962},{""stimulus"":""run_exp/static/images/task_images/dig.jpg"",""time"":1927}]",[],14,,,,,,,,,,,,,,
harvest,220,836334,0.0-64.0-1.0,,null,run_exp/static/images/task_images/gems/19.jpg,null,,,,,,5,,,14,,,,,19,0.237735358,0.263157895,,,,,,,
decision,221,836557,0.0-64.0-2.0,,221.1,run_exp/static/images/task_images/land.jpg,76,,,,,,5,,,14,,,,,,,,35396,2,1,TRUE,,,
travel,222,846344,0.0-65.0-0.0,,,,,,,,,,,"[{""stimulus"":""run_exp/static/images/task_images/rocket-01.jpg"",""time"":0.3999999985098839},{""stimulus"":""run_exp/static/images/task_images/rocket-02.jpg"",""time"":1097.7999999970198},{""stimulus"":""run_exp/static/images/task_images/rocket-03.jpg"",""time"":2175.39999999851},{""stimulus"":""run_exp/static/images/task_images/rocket-04.jpg"",""time"":3267.39999999851},{""stimulus"":""run_exp/static/images/task_images/rocket-05.jpg"",""time"":4356},{""stimulus"":""run_exp/static/images/task_images/rocket-06.jpg"",""time"":5445.5},{""stimulus"":""run_exp/static/images/task_images/rocket-07.jpg"",""time"":6529.39999999851},{""stimulus"":""run_exp/static/images/task_images/rocket-08.jpg"",""time"":7604},{""stimulus"":""run_exp/static/images/task_images/rocket-09.jpg"",""time"":8695.699999999255}]",[],14,,,,,,,,,,,,,,
alien_welcome,223,851360,0.0-65.0-1.0,,null,run_exp/static/images/task_images/aliens/old_aliens/planet/alien_planet-56.jpg,null,,,,,,,,,,,,56,"41,65,37,16,18,58,21,49,13,70,60,68,61,28,56,34,78,5,27,59,40,4,1,71,38,2,12,64,63,10,32,30,17,42,36,76,15,43,51,80,25,23,67,73",,,,,,,,,,
land,224,851874,0.0-65.0-2.0,,null,run_exp/static/images/task_images/land.jpg,null,,,,,,96,,,15,,,,,,,,,,,,,,
dig,225,853880,0.0-65.0-3.0,,,,,,,,,,,"[{""stimulus"":""run_exp/static/images/task_images/dig.jpg"",""time"":0.3999999985098839},{""stimulus"":""run_exp/static/images/task_images/land.jpg"",""time"":682.6999999992549},{""stimulus"":""run_exp/static/images/task_images/dig.jpg"",""time"":1340.8999999985099}]",[],15,,,,,,,,,,,,,,
harvest,226,854892,0.0-65.0-4.0,,null,run_exp/static/images/task_images/gems/96.jpg,null,,,,,,14,,,15,,,,,96,0.147513906,0.145833333,,,,,,,
decision,227,855389,0.0-65.0-5.0,,495.5,run_exp/static/images/task_images/land.jpg,65,,,,,,14,,,15,,,,,,,,54228,2,0,FALSE,,,
dig,228,857914,0.0-66.0-0.0,,,,,,,,,,,"[{""stimulus"":""run_exp/static/images/task_images/dig.jpg"",""time"":0.5},{""stimulus"":""run_exp/static/images/task_images/land.jpg"",""time"":851.1999999992549},{""stimulus"":""run_exp/static/images/task_images/dig.jpg"",""time"":1678.3999999985099}]",[],15,,,,,,,,,,,,,,
harvest,229,858929,0.0-66.0-1.0,,null,run_exp/static/images/task_images/gems/14.jpg,null,,,,,,2,,,15,,,,,14,0.142945013,0.142857143,,,,,,,
decision,230,858939,0.0-66.0-2.0,,8,run_exp/static/images/task_images/land.jpg,76,,,,,,2,,,15,,,,,,,,57777,2,1,TRUE,,,
travel,231,868951,0.0-67.0-0.0,,,,,,,,,,,"[{""stimulus"":""run_exp/static/images/task_images/rocket-01.jpg"",""time"":0.3999999985098839},{""stimulus"":""run_exp/static/images/task_images/rocket-02.jpg"",""time"":1121.0999999977648},{""stimulus"":""run_exp/static/images/task_images/rocket-03.jpg"",""time"":2226},{""stimulus"":""run_exp/static/images/task_images/rocket-04.jpg"",""time"":3344.599999997765},{""stimulus"":""run_exp/static/images/task_images/rocket-05.jpg"",""time"":4453.199999999255},{""stimulus"":""run_exp/static/images/task_images/rocket-06.jpg"",""time"":5554.89999999851},{""stimulus"":""run_exp/static/images/task_images/rocket-07.jpg"",""time"":6674.39999999851},{""stimulus"":""run_exp/static/images/task_images/rocket-08.jpg"",""time"":7778.89999999851},{""stimulus"":""run_exp/static/images/task_images/rocket-09.jpg"",""time"":8886.300000000745}]",[],15,,,,,,,,,,,,,,
alien_welcome,232,873958,0.0-67.0-1.0,,null,run_exp/static/images/task_images/aliens/old_aliens/planet/alien_planet-34.jpg,null,,,,,,,,,,,,34,"41,65,37,16,18,58,21,49,13,70,60,68,61,28,56,34,78,5,27,59,40,4,1,71,38,2,12,64,63,10,32,30,17,42,36,76,15,43,51,80,25,23,67,73",,,,,,,,,,
land,233,874469,0.0-67.0-2.0,,null,run_exp/static/images/task_images/land.jpg,null,,,,,,103,,,16,,,,,,,,,,,,,,
dig,234,876480,0.0-67.0-3.0,,,,,,,,,,,"[{""stimulus"":""run_exp/static/images/task_images/dig.jpg"",""time"":0.5},{""stimulus"":""run_exp/static/images/task_images/land.jpg"",""time"":683.1999999992549},{""stimulus"":""run_exp/static/images/task_images/dig.jpg"",""time"":1340}]",[],16,,,,,,,,,,,,,,
harvest,235,877489,0.0-67.0-4.0,,null,run_exp/static/images/task_images/gems/103.jpg,null,,,,,,78,,,16,,,,,103,0.761363467,0.757281553,,,,,,,
decision,236,878025,0.0-67.0-5.0,,535,run_exp/static/images/task_images/land.jpg,65,,,,,,78,,,16,,,,,,,,76863,2,0,FALSE,,,
dig,237,880496,0.0-68.0-0.0,,,,,,,,,,,"[{""stimulus"":""run_exp/static/images/task_images/dig.jpg"",""time"":0.30000000074505806},{""stimulus"":""run_exp/static/images/task_images/land.jpg"",""time"":824.4000000022352},{""stimulus"":""run_exp/static/images/task_images/dig.jpg"",""time"":1658.1000000014901}]",[],16,,,,,,,,,,,,,,
harvest,238,881510,0.0-68.0-1.0,,null,run_exp/static/images/task_images/gems/78.jpg,null,,,,,,61,,,16,,,,,78,0.785442375,0.782051282,,,,,,,
decision,239,882743,0.0-68.0-2.0,,1231,run_exp/static/images/task_images/land.jpg,65,,,,,,61,,,16,,,,,,,,81582,2,1,FALSE,,,
dig,240,884520,0.0-69.0-0.0,,,,,,,,,,,"[{""stimulus"":""run_exp/static/images/task_images/dig.jpg"",""time"":0.4000000022351742},{""stimulus"":""run_exp/static/images/task_images/land.jpg"",""time"":603.4000000022352},{""stimulus"":""run_exp/static/images/task_images/dig.jpg"",""time"":1180.5}]",[],16,,,,,,,,,,,,,,
harvest,241,885536,0.0-69.0-1.0,,null,run_exp/static/images/task_images/gems/61.jpg,null,,,,,,51,,,16,,,,,61,0.842899612,0.836065574,,,,,,,
decision,242,886513,0.0-69.0-2.0,,975.3,run_exp/static/images/task_images/land.jpg,65,,,,,,51,,,16,,,,,,,,85351,2,2,FALSE,,,
dig,243,888549,0.0-70.0-0.0,,,,,,,,,,,"[{""stimulus"":""run_exp/static/images/task_images/dig.jpg"",""time"":0.30000000074505806},{""stimulus"":""run_exp/static/images/task_images/land.jpg"",""time"":681.1000000014901},{""stimulus"":""run_exp/static/images/task_images/dig.jpg"",""time"":1365}]",[],16,,,,,,,,,,,,,,
harvest,244,889559,0.0-70.0-1.0,,null,run_exp/static/images/task_images/gems/51.jpg,null,,,,,,41,,,16,,,,,51,0.811674891,0.803921569,,,,,,,
decision,245,890334,0.0-70.0-2.0,,773.7,run_exp/static/images/task_images/land.jpg,65,,,,,,41,,,16,,,,,,,,89173,2,3,FALSE,,,
dig,246,892574,0.0-71.0-0.0,,,,,,,,,,,"[{""stimulus"":""run_exp/static/images/task_images/dig.jpg"",""time"":0.10000000149011612},{""stimulus"":""run_exp/static/images/task_images/land.jpg"",""time"":745},{""stimulus"":""run_exp/static/images/task_images/dig.jpg"",""time"":1488.300000000745}]",[],16,,,,,,,,,,,,,,
harvest,247,893587,0.0-71.0-1.0,,null,run_exp/static/images/task_images/gems/41.jpg,null,,,,,,32,,,16,,,,,41,0.788088837,0.780487805,,,,,,,
decision,248,893922,0.0-71.0-2.0,,333.5,run_exp/static/images/task_images/land.jpg,76,,,,,,32,,,16,,,,,,,,92760,2,4,TRUE,,,
travel,249,903598,0.0-72.0-0.0,,,,,,,,,,,"[{""stimulus"":""run_exp/static/images/task_images/rocket-01.jpg"",""time"":0.30000000074505806},{""stimulus"":""run_exp/static/images/task_images/rocket-02.jpg"",""time"":1075.9000000022352},{""stimulus"":""run_exp/static/images/task_images/rocket-03.jpg"",""time"":2163},{""stimulus"":""run_exp/static/images/task_images/rocket-04.jpg"",""time"":3234.199999999255},{""stimulus"":""run_exp/static/images/task_images/rocket-05.jpg"",""time"":4310.900000002235},{""stimulus"":""run_exp/static/images/task_images/rocket-06.jpg"",""time"":5385.10000000149},{""stimulus"":""run_exp/static/images/task_images/rocket-07.jpg"",""time"":6455.10000000149},{""stimulus"":""run_exp/static/images/task_images/rocket-08.jpg"",""time"":7530.10000000149},{""stimulus"":""run_exp/static/images/task_images/rocket-09.jpg"",""time"":8600.10000000149}]",[],16,,,,,,,,,,,,,,
alien_welcome,250,908602,0.0-72.0-1.0,,null,run_exp/static/images/task_images/aliens/old_aliens/planet/alien_planet-78.jpg,null,,,,,,,,,,,,78,"41,65,37,16,18,58,21,49,13,70,60,68,61,28,56,34,78,5,27,59,40,4,1,71,38,2,12,64,63,10,32,30,17,42,36,76,15,43,51,80,25,23,67,73",,,,,,,,,,
land,251,909117,0.0-72.0-2.0,,null,run_exp/static/images/task_images/land.jpg,null,,,,,,102,,,17,,,,,,,,,,,,,,
dig,252,911122,0.0-72.0-3.0,,,,,,,,,,,"[{""stimulus"":""run_exp/static/images/task_images/dig.jpg"",""time"":0.5},{""stimulus"":""run_exp/static/images/task_images/land.jpg"",""time"":679.7999999970198},{""stimulus"":""run_exp/static/images/task_images/dig.jpg"",""time"":1350.7999999970198}]",[],17,,,,,,,,,,,,,,
harvest,253,912138,0.0-72.0-4.0,,null,run_exp/static/images/task_images/gems/102.jpg,null,,,,,,83,,,17,,,,,102,0.813094416,0.81372549,,,,,,,
decision,254,912564,0.0-72.0-5.0,,423.8,run_exp/static/images/task_images/land.jpg,65,,,,,,83,,,17,,,,,,,,111402,2,0,FALSE,,,
dig,255,915155,0.0-73.0-0.0,,,,,,,,,,,"[{""stimulus"":""run_exp/static/images/task_images/dig.jpg"",""time"":0.4000000022351742},{""stimulus"":""run_exp/static/images/task_images/land.jpg"",""time"":872.6000000014901},{""stimulus"":""run_exp/static/images/task_images/dig.jpg"",""time"":1730.4000000022352}]",[],17,,,,,,,,,,,,,,
harvest,256,916159,0.0-73.0-1.0,,null,run_exp/static/images/task_images/gems/83.jpg,null,,,,,,63,,,17,,,,,83,0.760083011,0.759036145,,,,,,,
decision,257,917932,0.0-73.0-2.0,,1771.3,run_exp/static/images/task_images/land.jpg,65,,,,,,63,,,17,,,,,,,,116770,2,1,FALSE,,,
dig,258,919168,0.0-74.0-0.0,,,,,,,,,,,"[{""stimulus"":""run_exp/static/images/task_images/dig.jpg"",""time"":0.30000000074505806},{""stimulus"":""run_exp/static/images/task_images/land.jpg"",""time"":420.80000000074506},{""stimulus"":""run_exp/static/images/task_images/dig.jpg"",""time"":825.6999999992549}]",[],17,,,,,,,,,,,,,,
harvest,259,920178,0.0-74.0-1.0,,null,run_exp/static/images/task_images/gems/63.jpg,null,,,,,,47,,,17,,,,,63,0.748218656,0.746031746,,,,,,,
decision,260,921599,0.0-74.0-2.0,,1418.4,run_exp/static/images/task_images/land.jpg,65,,,,,,47,,,17,,,,,,,,120437,2,2,FALSE,,,
dig,261,923194,0.0-75.0-0.0,,,,,,,,,,,"[{""stimulus"":""run_exp/static/images/task_images/dig.jpg"",""time"":0.3999999985098839},{""stimulus"":""run_exp/static/images/task_images/land.jpg"",""time"":532.8999999985099},{""stimulus"":""run_exp/static/images/task_images/dig.jpg"",""time"":1062.3999999985099}]",[],17,,,,,,,,,,,,,,
harvest,262,924205,0.0-75.0-1.0,,null,run_exp/static/images/task_images/gems/47.jpg,null,,,,,,36,,,17,,,,,47,0.760693615,0.765957447,,,,,,,
decision,263,924804,0.0-75.0-2.0,,596.6,run_exp/static/images/task_images/land.jpg,65,,,,,,36,,,17,,,,,,,,123642,2,3,FALSE,,,
dig,264,927236,0.0-76.0-0.0,,,,,,,,,,,"[{""stimulus"":""run_exp/static/images/task_images/dig.jpg"",""time"":0.5},{""stimulus"":""run_exp/static/images/task_images/land.jpg"",""time"":803.3999999985099},{""stimulus"":""run_exp/static/images/task_images/dig.jpg"",""time"":1609.5999999977648}]",[],17,,,,,,,,,,,,,,
harvest,265,928251,0.0-76.0-1.0,,null,run_exp/static/images/task_images/gems/36.jpg,null,,,,,,28,,,17,,,,,36,0.777751849,0.777777778,,,,,,,
decision,266,929789,0.0-76.0-2.0,,1536.4,run_exp/static/images/task_images/land.jpg,76,,,,,,28,,,17,,,,,,,,128627,2,4,TRUE,,,
travel,267,938257,0.0-77.0-0.0,,,,,,,,,,,"[{""stimulus"":""run_exp/static/images/task_images/rocket-01.jpg"",""time"":0.3999999985098839},{""stimulus"":""run_exp/static/images/task_images/rocket-02.jpg"",""time"":951.8999999985099},{""stimulus"":""run_exp/static/images/task_images/rocket-03.jpg"",""time"":1886.0999999977648},{""stimulus"":""run_exp/static/images/task_images/rocket-04.jpg"",""time"":2834.199999999255},{""stimulus"":""run_exp/static/images/task_images/rocket-05.jpg"",""time"":3763.099999997765},{""stimulus"":""run_exp/static/images/task_images/rocket-06.jpg"",""time"":4716.5},{""stimulus"":""run_exp/static/images/task_images/rocket-07.jpg"",""time"":5650},{""stimulus"":""run_exp/static/images/task_images/rocket-08.jpg"",""time"":6596.099999997765},{""stimulus"":""run_exp/static/images/task_images/rocket-09.jpg"",""time"":7530.599999997765}]",[],17,,,,,,,,,,,,,,
alien_welcome,268,943268,0.0-77.0-1.0,,null,run_exp/static/images/task_images/aliens/old_aliens/planet/alien_planet-5.jpg,null,,,,,,,,,,,,5,"41,65,37,16,18,58,21,49,13,70,60,68,61,28,56,34,78,5,27,59,40,4,1,71,38,2,12,64,63,10,32,30,17,42,36,76,15,43,51,80,25,23,67,73",,,,,,,,,,
land,269,943778,0.0-77.0-2.0,,null,run_exp/static/images/task_images/land.jpg,null,,,,,,95,,,18,,,,,,,,,,,,,,
dig,270,945798,0.0-77.0-3.0,,,,,,,,,,,"[{""stimulus"":""run_exp/static/images/task_images/dig.jpg"",""time"":0.30000000074505806},{""stimulus"":""run_exp/static/images/task_images/land.jpg"",""time"":680},{""stimulus"":""run_exp/static/images/task_images/dig.jpg"",""time"":1350.300000000745}]",[],18,,,,,,,,,,,,,,
harvest,271,946810,0.0-77.0-4.0,,null,run_exp/static/images/task_images/gems/95.jpg,null,,,,,,79,,,18,,,,,95,0.826634334,0.831578947,,,,,,,
decision,272,946842,0.0-77.0-5.0,,29.8,run_exp/static/images/task_images/land.jpg,65,,,,,,79,,,18,,,,,,,,145680,2,0,FALSE,,,
dig,273,949830,0.0-78.0-0.0,,,,,,,,,,,"[{""stimulus"":""run_exp/static/images/task_images/dig.jpg"",""time"":0.29999999701976776},{""stimulus"":""run_exp/static/images/task_images/land.jpg"",""time"":1006.0999999977648},{""stimulus"":""run_exp/static/images/task_images/dig.jpg"",""time"":1987.199999999255}]",[],18,,,,,,,,,,,,,,
harvest,274,950841,0.0-78.0-1.0,,null,run_exp/static/images/task_images/gems/79.jpg,null,,,,,,68,,,18,,,,,79,0.865354849,0.860759494,,,,,,,
decision,275,951817,0.0-78.0-2.0,,974.1,run_exp/static/images/task_images/land.jpg,65,,,,,,68,,,18,,,,,,,,150655,2,1,FALSE,,,
dig,276,953863,0.0-79.0-0.0,,,,,,,,,,,"[{""stimulus"":""run_exp/static/images/task_images/dig.jpg"",""time"":0.30000000074505806},{""stimulus"":""run_exp/static/images/task_images/land.jpg"",""time"":683.3999999985099},{""stimulus"":""run_exp/static/images/task_images/dig.jpg"",""time"":1352.300000000745}]",[],18,,,,,,,,,,,,,,
harvest,277,954874,0.0-79.0-1.0,,null,run_exp/static/images/task_images/gems/68.jpg,null,,,,,,58,,,18,,,,,68,0.85628084,0.852941176,,,,,,,
decision,278,955064,0.0-79.0-2.0,,187.9,run_exp/static/images/task_images/land.jpg,65,,,,,,58,,,18,,,,,,,,153902,2,2,FALSE,,,
dig,279,957890,0.0-80.0-0.0,,,,,,,,,,,"[{""stimulus"":""run_exp/static/images/task_images/dig.jpg"",""time"":0.4000000022351742},{""stimulus"":""run_exp/static/images/task_images/land.jpg"",""time"":953.8000000007451},{""stimulus"":""run_exp/static/images/task_images/dig.jpg"",""time"":1886.5}]",[],18,,,,,,,,,,,,,,
harvest,280,958903,0.0-80.0-1.0,,null,run_exp/static/images/task_images/gems/58.jpg,null,,,,,,51,,,18,,,,,58,0.871286737,0.879310345,,,,,,,
decision,281,961912,0.0-80.0-2.0,,null,run_exp/static/images/task_images/land.jpg,null,,,,,,51,,,18,,,,,,,,160751,2,3,FALSE,,,
time_out,282,963921,0.0-81.0-0.0,,null,run_exp/static/images/task_images/time_out.jpg,null,,,,,,51,,,,,,,,,,,,,,,,,
decision,283,964721,0.0-81.0-1.0,,797.7,run_exp/static/images/task_images/land.jpg,65,,,,,,51,,,18,,,,,,,,163560,2,3,FALSE,,,
dig,284,966937,0.0-82.0-0.0,,,,,,,,,,,"[{""stimulus"":""run_exp/static/images/task_images/dig.jpg"",""time"":0.30000000074505806},{""stimulus"":""run_exp/static/images/task_images/land.jpg"",""time"":737.7000000029802},{""stimulus"":""run_exp/static/images/task_images/dig.jpg"",""time"":1483.800000000745}]",[],18,,,,,,,,,,,,,,
harvest,285,967946,0.0-82.0-1.0,,null,run_exp/static/images/task_images/gems/51.jpg,null,,,,,,40,,,18,,,,,51,0.778951618,0.784313725,,,,,,,
decision,286,968076,0.0-82.0-2.0,,128.3,run_exp/static/images/task_images/land.jpg,65,,,,,,40,,,18,,,,,,,,166914,2,4,FALSE,,,
dig,287,970954,0.0-83.0-0.0,,,,,,,,,,,"[{""stimulus"":""run_exp/static/images/task_images/dig.jpg"",""time"":0.20000000298023224},{""stimulus"":""run_exp/static/images/task_images/land.jpg"",""time"":969.4000000022352},{""stimulus"":""run_exp/static/images/task_images/dig.jpg"",""time"":1919.9000000022352}]",[],18,,,,,,,,,,,,,,
harvest,288,971971,0.0-83.0-1.0,,null,run_exp/static/images/task_images/gems/40.jpg,null,,,,,,32,,,18,,,,,40,0.800318868,0.8,,,,,,,
decision,289,972780,0.0-83.0-2.0,,807.1,run_exp/static/images/task_images/land.jpg,65,,,,,,32,,,18,,,,,,,,171618,2,5,FALSE,,,
dig,290,974994,0.0-84.0-0.0,,,,,,,,,,,"[{""stimulus"":""run_exp/static/images/task_images/dig.jpg"",""time"":0.30000000074505806},{""stimulus"":""run_exp/static/images/task_images/land.jpg"",""time"":744.6000000014901},{""stimulus"":""run_exp/static/images/task_images/dig.jpg"",""time"":1476.699999999255}]",[],18,,,,,,,,,,,,,,
harvest,291,976008,0.0-84.0-1.0,,null,run_exp/static/images/task_images/gems/32.jpg,null,,,,,,25,,,18,,,,,32,0.777059258,0.78125,,,,,,,
decision,292,976088,0.0-84.0-2.0,,78.3,run_exp/static/images/task_images/land.jpg,76,,,,,,25,,,18,,,,,,,,174926,2,6,TRUE,,,
travel,293,986027,0.0-85.0-0.0,,,,,,,,,,,"[{""stimulus"":""run_exp/static/images/task_images/rocket-01.jpg"",""time"":0.19999999925494194},{""stimulus"":""run_exp/static/images/task_images/rocket-02.jpg"",""time"":1112.8999999985099},{""stimulus"":""run_exp/static/images/task_images/rocket-03.jpg"",""time"":2218.89999999851},{""stimulus"":""run_exp/static/images/task_images/rocket-04.jpg"",""time"":3320.699999999255},{""stimulus"":""run_exp/static/images/task_images/rocket-05.jpg"",""time"":4410.89999999851},{""stimulus"":""run_exp/static/images/task_images/rocket-06.jpg"",""time"":5527.300000000745},{""stimulus"":""run_exp/static/images/task_images/rocket-07.jpg"",""time"":6618.699999999255},{""stimulus"":""run_exp/static/images/task_images/rocket-08.jpg"",""time"":7722},{""stimulus"":""run_exp/static/images/task_images/rocket-09.jpg"",""time"":8827.89999999851}]",[],18,,,,,,,,,,,,,,
alien_welcome,294,991034,0.0-85.0-1.0,,null,run_exp/static/images/task_images/aliens/old_aliens/planet/alien_planet-27.jpg,null,,,,,,,,,,,,27,"41,65,37,16,18,58,21,49,13,70,60,68,61,28,56,34,78,5,27,59,40,4,1,71,38,2,12,64,63,10,32,30,17,42,36,76,15,43,51,80,25,23,67,73",,,,,,,,,,
land,295,991547,0.0-85.0-2.0,,null,run_exp/static/images/task_images/land.jpg,null,,,,,,105,,,19,,,,,,,,,,,,,,
dig,296,993554,0.0-85.0-3.0,,,,,,,,,,,"[{""stimulus"":""run_exp/static/images/task_images/dig.jpg"",""time"":0.4000000022351742},{""stimulus"":""run_exp/static/images/task_images/land.jpg"",""time"":682.8000000007451},{""stimulus"":""run_exp/static/images/task_images/dig.jpg"",""time"":1337.4000000022352}]",[],19,,,,,,,,,,,,,,
harvest,297,994565,0.0-85.0-4.0,,null,run_exp/static/images/task_images/gems/105.jpg,null,,,,,,82,,,19,,,,,105,0.780565858,0.780952381,,,,,,,
decision,298,995011,0.0-85.0-5.0,,444.1,run_exp/static/images/task_images/land.jpg,65,,,,,,82,,,19,,,,,,,,193849,2,0,FALSE,,,
dig,299,997583,0.0-86.0-0.0,,,,,,,,,,,"[{""stimulus"":""run_exp/static/images/task_images/dig.jpg"",""time"":0.30000000074505806},{""stimulus"":""run_exp/static/images/task_images/land.jpg"",""time"":853.1999999992549},{""stimulus"":""run_exp/static/images/task_images/dig.jpg"",""time"":1708.300000000745}]",[],19,,,,,,,,,,,,,,
harvest,300,998597,0.0-86.0-1.0,,null,run_exp/static/images/task_images/gems/82.jpg,null,,,,,,69,,,19,,,,,82,0.836071266,0.841463415,,,,,,,
decision,301,998885,0.0-86.0-2.0,,286,run_exp/static/images/task_images/land.jpg,65,,,,,,69,,,19,,,,,,,,197723,2,1,FALSE,,,
dig,302,1001610,0.0-87.0-0.0,,,,,,,,,,,"[{""stimulus"":""run_exp/static/images/task_images/dig.jpg"",""time"":0.4000000022351742},{""stimulus"":""run_exp/static/images/task_images/land.jpg"",""time"":918.9000000022352},{""stimulus"":""run_exp/static/images/task_images/dig.jpg"",""time"":1822}]",[],19,,,,,,,,,,,,,,
harvest,303,1002625,0.0-87.0-1.0,,null,run_exp/static/images/task_images/gems/69.jpg,null,,,,,,60,,,19,,,,,69,0.872917892,0.869565217,,,,,,,
decision,304,1002948,0.0-87.0-2.0,,321.8,run_exp/static/images/task_images/land.jpg,65,,,,,,60,,,19,,,,,,,,201787,2,2,FALSE,,,
dig,305,1005646,0.0-88.0-0.0,,,,,,,,,,,"[{""stimulus"":""run_exp/static/images/task_images/dig.jpg"",""time"":0.3999999985098839},{""stimulus"":""run_exp/static/images/task_images/land.jpg"",""time"":900.0999999977648},{""stimulus"":""run_exp/static/images/task_images/dig.jpg"",""time"":1800.5999999977648}]",[],19,,,,,,,,,,,,,,
harvest,306,1006660,0.0-88.0-1.0,,null,run_exp/static/images/task_images/gems/60.jpg,null,,,,,,40,,,19,,,,,60,0.667964092,0.666666667,,,,,,,
decision,307,1006883,0.0-88.0-2.0,,221.2,run_exp/static/images/task_images/land.jpg,65,,,,,,40,,,19,,,,,,,,205721,2,3,FALSE,,,
dig,308,1009681,0.0-89.0-0.0,,,,,,,,,,,"[{""stimulus"":""run_exp/static/images/task_images/dig.jpg"",""time"":0.3999999985098839},{""stimulus"":""run_exp/static/images/task_images/land.jpg"",""time"":938},{""stimulus"":""run_exp/static/images/task_images/dig.jpg"",""time"":1857.6000000014901}]",[],19,,,,,,,,,,,,,,
harvest,309,1010698,0.0-89.0-1.0,,null,run_exp/static/images/task_images/gems/40.jpg,null,,,,,,32,,,19,,,,,40,0.799376608,0.8,,,,,,,
decision,310,1011299,0.0-89.0-2.0,,599.1,run_exp/static/images/task_images/land.jpg,65,,,,,,32,,,19,,,,,,,,210137,2,4,FALSE,,,
dig,311,1013713,0.0-90.0-0.0,,,,,,,,,,,"[{""stimulus"":""run_exp/static/images/task_images/dig.jpg"",""time"":0.4000000022351742},{""stimulus"":""run_exp/static/images/task_images/land.jpg"",""time"":805.6999999992549},{""stimulus"":""run_exp/static/images/task_images/dig.jpg"",""time"":1616.9000000022352}]",[],19,,,,,,,,,,,,,,
harvest,312,1014723,0.0-90.0-1.0,,null,run_exp/static/images/task_images/gems/32.jpg,null,,,,,,27,,,19,,,,,32,0.829621788,0.84375,,,,,,,
decision,313,1015008,0.0-90.0-2.0,,282.8,run_exp/static/images/task_images/land.jpg,76,,,,,,27,,,19,,,,,,,,213846,2,5,TRUE,,,
travel,314,1024744,0.0-91.0-0.0,,,,,,,,,,,"[{""stimulus"":""run_exp/static/images/task_images/rocket-01.jpg"",""time"":0.30000000074505806},{""stimulus"":""run_exp/static/images/task_images/rocket-02.jpg"",""time"":1089.8999999985099},{""stimulus"":""run_exp/static/images/task_images/rocket-03.jpg"",""time"":2164.800000000745},{""stimulus"":""run_exp/static/images/task_images/rocket-04.jpg"",""time"":3253.699999999255},{""stimulus"":""run_exp/static/images/task_images/rocket-05.jpg"",""time"":4325.5},{""stimulus"":""run_exp/static/images/task_images/rocket-06.jpg"",""time"":5412.199999999255},{""stimulus"":""run_exp/static/images/task_images/rocket-07.jpg"",""time"":6484.39999999851},{""stimulus"":""run_exp/static/images/task_images/rocket-08.jpg"",""time"":7562.300000000745},{""stimulus"":""run_exp/static/images/task_images/rocket-09.jpg"",""time"":8635.300000000745}]",[],19,,,,,,,,,,,,,,
alien_welcome,315,1029756,0.0-91.0-1.0,,null,run_exp/static/images/task_images/aliens/old_aliens/planet/alien_planet-59.jpg,null,,,,,,,,,,,,59,"41,65,37,16,18,58,21,49,13,70,60,68,61,28,56,34,78,5,27,59,40,4,1,71,38,2,12,64,63,10,32,30,17,42,36,76,15,43,51,80,25,23,67,73",,,,,,,,,,
land,316,1030269,0.0-91.0-2.0,,null,run_exp/static/images/task_images/land.jpg,null,,,,,,96,,,20,,,,,,,,,,,,,,
dig,317,1032274,0.0-91.0-3.0,,,,,,,,,,,"[{""stimulus"":""run_exp/static/images/task_images/dig.jpg"",""time"":0.5},{""stimulus"":""run_exp/static/images/task_images/land.jpg"",""time"":682.8999999985099},{""stimulus"":""run_exp/static/images/task_images/dig.jpg"",""time"":1349.199999999255}]",[],20,,,,,,,,,,,,,,
harvest,318,1033286,0.0-91.0-4.0,,null,run_exp/static/images/task_images/gems/96.jpg,null,,,,,,77,,,20,,,,,96,0.801124714,0.802083333,,,,,,,
decision,319,1033752,0.0-91.0-5.0,,464.1,run_exp/static/images/task_images/land.jpg,65,,,,,,77,,,20,,,,,,,,232590,2,0,FALSE,,,
dig,320,1036298,0.0-92.0-0.0,,,,,,,,,,,"[{""stimulus"":""run_exp/static/images/task_images/dig.jpg"",""time"":0.3999999985098839},{""stimulus"":""run_exp/static/images/task_images/land.jpg"",""time"":847.0999999977648},{""stimulus"":""run_exp/static/images/task_images/dig.jpg"",""time"":1700.8999999985099}]",[],20,,,,,,,,,,,,,,
harvest,321,1037309,0.0-92.0-1.0,,null,run_exp/static/images/task_images/gems/77.jpg,null,,,,,,65,,,20,,,,,77,0.845228701,0.844155844,,,,,,,
decision,322,1037524,0.0-92.0-2.0,,213.2,run_exp/static/images/task_images/land.jpg,65,,,,,,65,,,20,,,,,,,,236362,2,1,FALSE,,,
dig,323,1040333,0.0-93.0-0.0,,,,,,,,,,,"[{""stimulus"":""run_exp/static/images/task_images/dig.jpg"",""time"":0.3999999985098839},{""stimulus"":""run_exp/static/images/task_images/land.jpg"",""time"":930.0999999977648},{""stimulus"":""run_exp/static/images/task_images/dig.jpg"",""time"":1865}]",[],20,,,,,,,,,,,,,,
harvest,324,1041348,0.0-93.0-1.0,,null,run_exp/static/images/task_images/gems/65.jpg,null,,,,,,53,,,20,,,,,65,0.82232721,0.815384615,,,,,,,
decision,325,1041607,0.0-93.0-2.0,,257.1,run_exp/static/images/task_images/land.jpg,65,,,,,,53,,,20,,,,,,,,240445,2,2,FALSE,,,
dig,326,1044361,0.0-94.0-0.0,,,,,,,,,,,"[{""stimulus"":""run_exp/static/images/task_images/dig.jpg"",""time"":0.30000000074505806},{""stimulus"":""run_exp/static/images/task_images/land.jpg"",""time"":917.4000000022352},{""stimulus"":""run_exp/static/images/task_images/dig.jpg"",""time"":1831.7000000029802}]",[],20,,,,,,,,,,,,,,
harvest,327,1045377,0.0-94.0-1.0,,null,run_exp/static/images/task_images/gems/53.jpg,null,,,,,,45,,,20,,,,,53,0.842147168,0.849056604,,,,,,,
decision,328,1045730,0.0-94.0-2.0,,351.6,run_exp/static/images/task_images/land.jpg,65,,,,,,45,,,20,,,,,,,,244569,2,3,FALSE,,,
dig,329,1048403,0.0-95.0-0.0,,,,,,,,,,,"[{""stimulus"":""run_exp/static/images/task_images/dig.jpg"",""time"":0.5},{""stimulus"":""run_exp/static/images/task_images/land.jpg"",""time"":899.6999999992549},{""stimulus"":""run_exp/static/images/task_images/dig.jpg"",""time"":1773.800000000745}]",[],20,,,,,,,,,,,,,,
harvest,330,1049420,0.0-95.0-1.0,,null,run_exp/static/images/task_images/gems/45.jpg,null,,,,,,38,,,20,,,,,45,0.846119018,0.844444444,,,,,,,
decision,331,1049859,0.0-95.0-2.0,,437.8,run_exp/static/images/task_images/land.jpg,76,,,,,,38,,,20,,,,,,,,248698,2,4,TRUE,,,
travel,332,1059434,0.0-96.0-0.0,,,,,,,,,,,"[{""stimulus"":""run_exp/static/images/task_images/rocket-01.jpg"",""time"":0.30000000074505806},{""stimulus"":""run_exp/static/images/task_images/rocket-02.jpg"",""time"":1076.800000000745},{""stimulus"":""run_exp/static/images/task_images/rocket-03.jpg"",""time"":2140.400000002235},{""stimulus"":""run_exp/static/images/task_images/rocket-04.jpg"",""time"":3198.300000000745},{""stimulus"":""run_exp/static/images/task_images/rocket-05.jpg"",""time"":4255},{""stimulus"":""run_exp/static/images/task_images/rocket-06.jpg"",""time"":5326.900000002235},{""stimulus"":""run_exp/static/images/task_images/rocket-07.jpg"",""time"":6382.400000002235},{""stimulus"":""run_exp/static/images/task_images/rocket-08.jpg"",""time"":7441},{""stimulus"":""run_exp/static/images/task_images/rocket-09.jpg"",""time"":8512.10000000149}]",[],20,,,,,,,,,,,,,,
alien_welcome,333,1064441,0.0-96.0-1.0,,null,run_exp/static/images/task_images/aliens/old_aliens/planet/alien_planet-40.jpg,null,,,,,,,,,,,,40,"41,65,37,16,18,58,21,49,13,70,60,68,61,28,56,34,78,5,27,59,40,4,1,71,38,2,12,64,63,10,32,30,17,42,36,76,15,43,51,80,25,23,67,73",,,,,,,,,,
land,334,1064958,0.0-96.0-2.0,,null,run_exp/static/images/task_images/land.jpg,null,,,,,,95,,,21,,,,,,,,,,,,,,
dig,335,1066971,0.0-96.0-3.0,,,,,,,,,,,"[{""stimulus"":""run_exp/static/images/task_images/dig.jpg"",""time"":0.5},{""stimulus"":""run_exp/static/images/task_images/land.jpg"",""time"":669.0999999977648},{""stimulus"":""run_exp/static/images/task_images/dig.jpg"",""time"":1337.7999999970198}]",[],21,,,,,,,,,,,,,,
harvest,336,1067982,0.0-96.0-4.0,,null,run_exp/static/images/task_images/gems/95.jpg,null,,,,,,45,,,21,,,,,95,0.470015221,0.473684211,,,,,,,
decision,337,1069020,0.0-96.0-5.0,,1036,run_exp/static/images/task_images/land.jpg,65,,,,,,45,,,21,,,,,,,,267858,2,0,FALSE,,,
dig,338,1070993,0.0-97.0-0.0,,,,,,,,,,,"[{""stimulus"":""run_exp/static/images/task_images/dig.jpg"",""time"":0.30000000074505806},{""stimulus"":""run_exp/static/images/task_images/land.jpg"",""time"":663.5},{""stimulus"":""run_exp/static/images/task_images/dig.jpg"",""time"":1313.7000000029802}]",[],21,,,,,,,,,,,,,,
harvest,339,1072004,0.0-97.0-1.0,,null,run_exp/static/images/task_images/gems/45.jpg,null,,,,,,23,,,21,,,,,45,0.519578231,0.511111111,,,,,,,
decision,340,1073940,0.0-97.0-2.0,,1933.3,run_exp/static/images/task_images/land.jpg,76,,,,,,23,,,21,,,,,,,,272778,2,1,TRUE,,,
travel,341,1082011,0.0-98.0-0.0,,,,,,,,,,,"[{""stimulus"":""run_exp/static/images/task_images/rocket-01.jpg"",""time"":0.20000000298023224},{""stimulus"":""run_exp/static/images/task_images/rocket-02.jpg"",""time"":899.7000000029802},{""stimulus"":""run_exp/static/images/task_images/rocket-03.jpg"",""time"":1804.1000000014901},{""stimulus"":""run_exp/static/images/task_images/rocket-04.jpg"",""time"":2690.2000000029802},{""stimulus"":""run_exp/static/images/task_images/rocket-05.jpg"",""time"":3588.800000000745},{""stimulus"":""run_exp/static/images/task_images/rocket-06.jpg"",""time"":4494.900000002235},{""stimulus"":""run_exp/static/images/task_images/rocket-07.jpg"",""time"":5383.900000002235},{""stimulus"":""run_exp/static/images/task_images/rocket-08.jpg"",""time"":6280.10000000149},{""stimulus"":""run_exp/static/images/task_images/rocket-09.jpg"",""time"":7181.300000000745}]",[],21,,,,,,,,,,,,,,
alien_welcome,342,1087029,0.0-98.0-1.0,,null,run_exp/static/images/task_images/aliens/old_aliens/planet/alien_planet-4.jpg,null,,,,,,,,,,,,4,"41,65,37,16,18,58,21,49,13,70,60,68,61,28,56,34,78,5,27,59,40,4,1,71,38,2,12,64,63,10,32,30,17,42,36,76,15,43,51,80,25,23,67,73",,,,,,,,,,
land,343,1087540,0.0-98.0-2.0,,null,run_exp/static/images/task_images/land.jpg,null,,,,,,107,,,22,,,,,,,,,,,,,,
dig,344,1089560,0.0-98.0-3.0,,,,,,,,,,,"[{""stimulus"":""run_exp/static/images/task_images/dig.jpg"",""time"":0.3999999985098839},{""stimulus"":""run_exp/static/images/task_images/land.jpg"",""time"":679.0999999977648},{""stimulus"":""run_exp/static/images/task_images/dig.jpg"",""time"":1350.2999999970198}]",[],22,,,,,,,,,,,,,,
harvest,345,1090572,0.0-98.0-4.0,,null,run_exp/static/images/task_images/gems/107.jpg,null,,,,,,87,,,22,,,,,107,0.812569195,0.813084112,,,,,,,
decision,346,1091642,0.0-98.0-5.0,,1068.2,run_exp/static/images/task_images/land.jpg,65,,,,,,87,,,22,,,,,,,,290480,2,0,FALSE,,,
dig,347,1093595,0.0-99.0-0.0,,,,,,,,,,,"[{""stimulus"":""run_exp/static/images/task_images/dig.jpg"",""time"":0.3999999985098839},{""stimulus"":""run_exp/static/images/task_images/land.jpg"",""time"":649.8000000007451},{""stimulus"":""run_exp/static/images/task_images/dig.jpg"",""time"":1288.3999999985099}]",[],22,,,,,,,,,,,,,,
harvest,348,1094611,0.0-99.0-1.0,,null,run_exp/static/images/task_images/gems/87.jpg,null,,,,,,71,,,22,,,,,87,0.820424799,0.816091954,,,,,,,
decision,349,1095106,0.0-99.0-2.0,,493,run_exp/static/images/task_images/land.jpg,65,,,,,,71,,,22,,,,,,,,293945,2,1,FALSE,,,
dig,350,1097621,0.0-100.0-0.0,,,,,,,,,,,"[{""stimulus"":""run_exp/static/images/task_images/dig.jpg"",""time"":0.30000000074505806},{""stimulus"":""run_exp/static/images/task_images/land.jpg"",""time"":840.6999999992549},{""stimulus"":""run_exp/static/images/task_images/dig.jpg"",""time"":1682}]",[],22,,,,,,,,,,,,,,
harvest,351,1098632,0.0-100.0-1.0,,null,run_exp/static/images/task_images/gems/71.jpg,null,,,,,,56,,,22,,,,,71,0.784903943,0.788732394,,,,,,,
decision,352,1099298,0.0-100.0-2.0,,664,run_exp/static/images/task_images/land.jpg,65,,,,,,56,,,22,,,,,,,,298136,2,2,FALSE,,,
dig,353,1101654,0.0-101.0-0.0,,,,,,,,,,,"[{""stimulus"":""run_exp/static/images/task_images/dig.jpg"",""time"":0.4000000022351742},{""stimulus"":""run_exp/static/images/task_images/land.jpg"",""time"":782.1000000014901},{""stimulus"":""run_exp/static/images/task_images/dig.jpg"",""time"":1572}]",[],22,,,,,,,,,,,,,,
harvest,354,1102664,0.0-101.0-1.0,,null,run_exp/static/images/task_images/gems/56.jpg,null,,,,,,45,,,22,,,,,56,0.797412948,0.803571429,,,,,,,
decision,355,1103441,0.0-101.0-2.0,,774.8,run_exp/static/images/task_images/land.jpg,65,,,,,,45,,,22,,,,,,,,302279,2,3,TRUE,,,
end_of_block_continue,356,1112461,0.0-102.0-0.0,,null,run_exp/static/audio/clip_32_block_end.m4a,,,,,,null,,,,,,,,,,,,,,,,,,
alien_welcome,357,1117473,0.0-103.0-0.0,,null,run_exp/static/images/task_images/aliens/old_aliens/planet/alien_planet-1.jpg,null,,,,,,,,,,,,1,"41,65,37,16,18,58,21,49,13,70,60,68,61,28,56,34,78,5,27,59,40,4,1,71,38,2,12,64,63,10,32,30,17,42,36,76,15,43,51,80,25,23,67,73",,,,,,,,,,
land,358,1117982,0.0-103.0-1.0,,null,run_exp/static/images/task_images/land.jpg,null,,,,,,94,,,23,,,,,,,,,,,,,,
dig,359,1119990,0.0-103.0-2.0,,,,,,,,,,,"[{""stimulus"":""run_exp/static/images/task_images/dig.jpg"",""time"":0.30000000074505806},{""stimulus"":""run_exp/static/images/task_images/land.jpg"",""time"":682},{""stimulus"":""run_exp/static/images/task_images/dig.jpg"",""time"":1336}]",[],23,,,,,,,,,,,,,,
harvest,360,1121005,0.0-103.0-3.0,,null,run_exp/static/images/task_images/gems/94.jpg,null,,,,,,52,,,23,,,,,94,0.554226171,0.553191489,,,,,,,
decision,361,1124011,0.0-103.0-4.0,,null,run_exp/static/images/task_images/land.jpg,null,,,,,,52,,,23,,,,,,,,11542,3,0,FALSE,,,
time_out,362,1126022,0.0-104.0-0.0,,null,run_exp/static/images/task_images/time_out.jpg,null,,,,,,52,,,,,,,,,,,,,,,,,
decision,363,1129031,0.0-104.0-1.0,,null,run_exp/static/images/task_images/land.jpg,null,,,,,,52,,,23,,,,,,,,16563,3,0,FALSE,,,
time_out,364,1131046,0.0-105.0-0.0,,null,run_exp/static/images/task_images/time_out.jpg,null,,,,,,52,,,,,,,,,,,,,,,,,
decision,365,1134058,0.0-105.0-1.0,,null,run_exp/static/images/task_images/land.jpg,null,,,,,,52,,,23,,,,,,,,21590,3,0,FALSE,,,
time_out,366,1136080,0.0-106.0-0.0,,null,run_exp/static/images/task_images/time_out.jpg,null,,,,,,52,,,,,,,,,,,,,,,,,
decision,367,1136139,0.0-106.0-1.0,,57.2,run_exp/static/images/task_images/land.jpg,65,,,,,,52,,,23,,,,,,,,23671,3,0,FALSE,,,
dig,368,1139099,0.0-107.0-0.0,,,,,,,,,,,"[{""stimulus"":""run_exp/static/images/task_images/dig.jpg"",""time"":0.4000000022351742},{""stimulus"":""run_exp/static/images/task_images/land.jpg"",""time"":991.6000000014901},{""stimulus"":""run_exp/static/images/task_images/dig.jpg"",""time"":1975}]",[],23,,,,,,,,,,,,,,
harvest,369,1140114,0.0-107.0-1.0,,null,run_exp/static/images/task_images/gems/52.jpg,null,,,,,,26,,,23,,,,,52,0.498662651,0.5,,,,,,,
decision,370,1140463,0.0-107.0-2.0,,345.9,run_exp/static/images/task_images/land.jpg,65,,,,,,26,,,23,,,,,,,,27994,3,1,FALSE,,,
dig,371,1143129,0.0-108.0-0.0,,,,,,,,,,,"[{""stimulus"":""run_exp/static/images/task_images/dig.jpg"",""time"":0.5},{""stimulus"":""run_exp/static/images/task_images/land.jpg"",""time"":888.6000000014901},{""stimulus"":""run_exp/static/images/task_images/dig.jpg"",""time"":1781.1000000014901}]",[],23,,,,,,,,,,,,,,
harvest,372,1144140,0.0-108.0-1.0,,null,run_exp/static/images/task_images/gems/26.jpg,null,,,,,,11,,,23,,,,,26,0.409884362,0.423076923,,,,,,,
decision,373,1144288,0.0-108.0-2.0,,145.3,run_exp/static/images/task_images/land.jpg,76,,,,,,11,,,23,,,,,,,,31819,3,2,TRUE,,,
travel,374,1154150,0.0-109.0-0.0,,,,,,,,,,,"[{""stimulus"":""run_exp/static/images/task_images/rocket-01.jpg"",""time"":0.30000000074505806},{""stimulus"":""run_exp/static/images/task_images/rocket-02.jpg"",""time"":1105.300000000745},{""stimulus"":""run_exp/static/images/task_images/rocket-03.jpg"",""time"":2197.699999999255},{""stimulus"":""run_exp/static/images/task_images/rocket-04.jpg"",""time"":3288.699999999255},{""stimulus"":""run_exp/static/images/task_images/rocket-05.jpg"",""time"":4390.800000000745},{""stimulus"":""run_exp/static/images/task_images/rocket-06.jpg"",""time"":5482.699999999255},{""stimulus"":""run_exp/static/images/task_images/rocket-07.jpg"",""time"":6570.699999999255},{""stimulus"":""run_exp/static/images/task_images/rocket-08.jpg"",""time"":7660.699999999255},{""stimulus"":""run_exp/static/images/task_images/rocket-09.jpg"",""time"":8765.699999999255}]",[],23,,,,,,,,,,,,,,
alien_welcome,375,1159157,0.0-109.0-1.0,,null,run_exp/static/images/task_images/aliens/old_aliens/planet/alien_planet-71.jpg,null,,,,,,,,,,,,71,"41,65,37,16,18,58,21,49,13,70,60,68,61,28,56,34,78,5,27,59,40,4,1,71,38,2,12,64,63,10,32,30,17,42,36,76,15,43,51,80,25,23,67,73",,,,,,,,,,
land,376,1159668,0.0-109.0-2.0,,null,run_exp/static/images/task_images/land.jpg,null,,,,,,100,,,24,,,,,,,,,,,,,,
dig,377,1161676,0.0-109.0-3.0,,,,,,,,,,,"[{""stimulus"":""run_exp/static/images/task_images/dig.jpg"",""time"":0.3999999985098839},{""stimulus"":""run_exp/static/images/task_images/land.jpg"",""time"":682.1000000014901},{""stimulus"":""run_exp/static/images/task_images/dig.jpg"",""time"":1337.6000000014901}]",[],24,,,,,,,,,,,,,,
harvest,378,1162687,0.0-109.0-4.0,,null,run_exp/static/images/task_images/gems/100.jpg,null,,,,,,70,,,24,,,,,100,0.701676269,0.7,,,,,,,
decision,379,1163064,0.0-109.0-5.0,,374.5,run_exp/static/images/task_images/land.jpg,65,,,,,,70,,,24,,,,,,,,50595,3,0,FALSE,,,
dig,380,1165706,0.0-110.0-0.0,,,,,,,,,,,"[{""stimulus"":""run_exp/static/images/task_images/dig.jpg"",""time"":0.30000000074505806},{""stimulus"":""run_exp/static/images/task_images/land.jpg"",""time"":889.6000000014901},{""stimulus"":""run_exp/static/images/task_images/dig.jpg"",""time"":1763.800000000745}]",[],24,,,,,,,,,,,,,,
harvest,381,1166719,0.0-110.0-1.0,,null,run_exp/static/images/task_images/gems/70.jpg,null,,,,,,49,,,24,,,,,70,0.704858386,0.7,,,,,,,
decision,382,1167039,0.0-110.0-2.0,,316.5,run_exp/static/images/task_images/land.jpg,65,,,,,,49,,,24,,,,,,,,54570,3,1,FALSE,,,
dig,383,1169733,0.0-111.0-0.0,,,,,,,,,,,"[{""stimulus"":""run_exp/static/images/task_images/dig.jpg"",""time"":0.30000000074505806},{""stimulus"":""run_exp/static/images/task_images/land.jpg"",""time"":901.3999999985099},{""stimulus"":""run_exp/static/images/task_images/dig.jpg"",""time"":1803.300000000745}]",[],24,,,,,,,,,,,,,,
harvest,384,1170749,0.0-111.0-1.0,,null,run_exp/static/images/task_images/gems/49.jpg,null,,,,,,41,,,24,,,,,49,0.842839798,0.836734694,,,,,,,
decision,385,1171305,0.0-111.0-2.0,,554.7,run_exp/static/images/task_images/land.jpg,65,,,,,,41,,,24,,,,,,,,58837,3,2,FALSE,,,
dig,386,1173765,0.0-112.0-0.0,,,,,,,,,,,"[{""stimulus"":""run_exp/static/images/task_images/dig.jpg"",""time"":0.29999999701976776},{""stimulus"":""run_exp/static/images/task_images/land.jpg"",""time"":820.8999999985099},{""stimulus"":""run_exp/static/images/task_images/dig.jpg"",""time"":1643.5}]",[],24,,,,,,,,,,,,,,
harvest,387,1174776,0.0-112.0-1.0,,null,run_exp/static/images/task_images/gems/41.jpg,null,,,,,,33,,,24,,,,,41,0.802792393,0.804878049,,,,,,,
decision,388,1174829,0.0-112.0-2.0,,50.9,run_exp/static/images/task_images/land.jpg,76,,,,,,33,,,24,,,,,,,,62361,3,3,TRUE,,,
travel,389,1184796,0.0-113.0-0.0,,,,,,,,,,,"[{""stimulus"":""run_exp/static/images/task_images/rocket-01.jpg"",""time"":0.30000000074505806},{""stimulus"":""run_exp/static/images/task_images/rocket-02.jpg"",""time"":1120},{""stimulus"":""run_exp/static/images/task_images/rocket-03.jpg"",""time"":2227},{""stimulus"":""run_exp/static/images/task_images/rocket-04.jpg"",""time"":3331.300000000745},{""stimulus"":""run_exp/static/images/task_images/rocket-05.jpg"",""time"":4433.39999999851},{""stimulus"":""run_exp/static/images/task_images/rocket-06.jpg"",""time"":5534.300000000745},{""stimulus"":""run_exp/static/images/task_images/rocket-07.jpg"",""time"":6641.699999999255},{""stimulus"":""run_exp/static/images/task_images/rocket-08.jpg"",""time"":7745.10000000149},{""stimulus"":""run_exp/static/images/task_images/rocket-09.jpg"",""time"":8851.5}]",[],24,,,,,,,,,,,,,,
alien_welcome,390,1189801,0.0-113.0-1.0,,null,run_exp/static/images/task_images/aliens/old_aliens/planet/alien_planet-38.jpg,null,,,,,,,,,,,,38,"41,65,37,16,18,58,21,49,13,70,60,68,61,28,56,34,78,5,27,59,40,4,1,71,38,2,12,64,63,10,32,30,17,42,36,76,15,43,51,80,25,23,67,73",,,,,,,,,,
land,391,1190314,0.0-113.0-2.0,,null,run_exp/static/images/task_images/land.jpg,null,,,,,,100,,,25,,,,,,,,,,,,,,
dig,392,1192321,0.0-113.0-3.0,,,,,,,,,,,"[{""stimulus"":""run_exp/static/images/task_images/dig.jpg"",""time"":0.8999999985098839},{""stimulus"":""run_exp/static/images/task_images/land.jpg"",""time"":682.5},{""stimulus"":""run_exp/static/images/task_images/dig.jpg"",""time"":1350.699999999255}]",[],25,,,,,,,,,,,,,,
harvest,393,1193332,0.0-113.0-4.0,,null,run_exp/static/images/task_images/gems/100.jpg,null,,,,,,60,,,25,,,,,100,0.5993571,0.6,,,,,,,
decision,394,1193445,0.0-113.0-5.0,,110.8,run_exp/static/images/task_images/land.jpg,65,,,,,,60,,,25,,,,,,,,80976,3,0,FALSE,,,
