trial_type,trial_index,time_elapsed,internal_node_id,interactions,blur_events,focus_events,fullscreenenter_events,fullscreenexit_events,success,rt,stimulus,key_press,prompt,subject_id,participant_id,age,gender,button_pressed,next_reward,animation_sequence,responses,planet,curr_prac_trial,n_prac_rounds,alien,aliens,reward_received,decay_rate_actual,decay_rate_exp,time_in_block,block_num,prt,last_trial_on_planet,button_html,bonus,num_failures
pavlovia,0,14,0.0-0.0,"""event"",""trial"",""time""
""fullscreenenter"",""1"",""3810""
","
","
","""event"",""trial"",""time""
""fullscreenenter"",""1"",""3810""
","
",,,,,,,,,,,,,,,,,,,,,,,,,,,,
fullscreen,1,4688,0.0-1.0,"""event"",""trial"",""time""
""fullscreenenter"",""1"",""3810""
","
","
","""event"",""trial"",""time""
""fullscreenenter"",""1"",""3810""
","
",TRUE,,,,,,,,,,,,,,,,,,,,,,,,,,,
instruc_welcome,2,14583,0.0-2.0,"""event"",""trial"",""time""
""fullscreenenter"",""1"",""3810""
","
","
","""event"",""trial"",""time""
""fullscreenenter"",""1"",""3810""
","
",,null,run_exp/static/audio/clip_1_welcome.m4a,null,"<p>Howdy! In this experiment, you’ll be an explorer traveling through space to collect space treasure.</p><p>Your mission is to collect as much treasure as possible.</p><br><br><p><img src='run_exp/static/images/task_images/opening_img-01.jpg' height='300' width='auto'></p>",14300,5004,15.17,Female,,,,,,,,,,,,,,,,,,,
audio-keyboard-response,3,31607,0.0-3.0,"""event"",""trial"",""time""
""fullscreenenter"",""1"",""3810""
","
","
","""event"",""trial"",""time""
""fullscreenenter"",""1"",""3810""
","
",,null,run_exp/static/audio/clip_2_move.m4a,null,,,,,,,,,,,,,,,,,,,,,,,,
welcome_dec,4,34437,0.0-4.0,"""event"",""trial"",""time""
""fullscreenenter"",""1"",""3810""
","
","
","""event"",""trial"",""time""
""fullscreenenter"",""1"",""3810""
","
",,2821.2,"<p>Howdy! In this experiment, you’ll be an explorer traveling through space to collect space treasure.</p><p>Your mission is to collect as much treasure as possible.</p><br><br><p><img src='run_exp/static/images/task_images/opening_img-01.jpg' height='300' width='auto'></p>",,,,,,,1,,,,,,,,,,,,,,,,,,
html-keyboard-response,5,35812,0.0-5.0,"""event"",""trial"",""time""
""fullscreenenter"",""1"",""3810""
","
","
","""event"",""trial"",""time""
""fullscreenenter"",""1"",""3810""
","
",,1367.4,"<p>Howdy! In this experiment, you’ll be an explorer traveling through space to collect space treasure.</p><p>Your mission is to collect as much treasure as possible.</p><br><br><p><img src='run_exp/static/images/task_images/opening_img-01.jpg' height='300' width='auto'></p><button class=""jspsych-html-btn-unchosen""><img src=""run_exp/static/images/task_images/planet-01.jpg"" height=""50""></button><button class=""jspsych-html-btn-chosen""><img src=""run_exp/static/images/task_images/planet-02.jpg"" height=""50""></button><p><b>[press the space bar to lock in your answer]<b><br></p>",32,,,,,,,,,,,,,,,,,,,,,,,,
instruc_goal,6,46197,0.0-6.0-0.0,"""event"",""trial"",""time""
""fullscreenenter"",""1"",""3810""
","
","
","""event"",""trial"",""time""
""fullscreenenter"",""1"",""3810""
","
",,null,run_exp/static/audio/clip_3_goal.m4a,null,"<p> As a space explorer, you’ll visit different planets to dig for space treasure, these pink gems.</p> <p> The more treasure you dig up, the more bonus money you’ll win! </p><br><br><p><img src='run_exp/static/images/task_images/pink_gem.jpg' height='300' width='auto'></p>",,,,,,,,,,,,,,,,,,,,,,,
instruc_goal,7,50346,0.0-6.0-1.0,"""event"",""trial"",""time""
""fullscreenenter"",""1"",""3810""
","
","
","""event"",""trial"",""time""
""fullscreenenter"",""1"",""3810""
","
",,4142.5,"<p> As a space explorer, you’ll visit different planets to dig for space treasure, these pink gems.</p> <p> The more treasure you dig up, the more bonus money you’ll win! </p><br><br><p><img src='run_exp/static/images/task_images/pink_gem.jpg' height='300' width='auto'></p>",,,,,,,1,,,,,,,,,,,,,,,,,,
html-keyboard-response,8,51332,0.0-6.0-2.0,"""event"",""trial"",""time""
""fullscreenenter"",""1"",""3810""
","
","
","""event"",""trial"",""time""
""fullscreenenter"",""1"",""3810""
","
",,980.2,"<p> As a space explorer, you’ll visit different planets to dig for space treasure, these pink gems.</p> <p> The more treasure you dig up, the more bonus money you’ll win! </p><br><br><p><img src='run_exp/static/images/task_images/pink_gem.jpg' height='300' width='auto'></p><button class=""jspsych-html-btn-unchosen""><img src=""run_exp/static/images/task_images/planet-01.jpg"" height=""50""></button><button class=""jspsych-html-btn-chosen""><img src=""run_exp/static/images/task_images/planet-02.jpg"" height=""50""></button><p><b>[press the space bar to lock in your answer]<b><br></p>",32,,,,,,,,,,,,,,,,,,,,,,,,
instruc_dig,9,67701,0.0-7.0-0.0,"""event"",""trial"",""time""
""fullscreenenter"",""1"",""3810""
","
","
","""event"",""trial"",""time""
""fullscreenenter"",""1"",""3810""
","
",,null,run_exp/static/audio/clip_4_dig.m4a,null,,,,,,,100,,,,,,,,,,,,,,,,,
instruc_dig_try,10,69700,0.0-7.0-1.0,"""event"",""trial"",""time""
""fullscreenenter"",""1"",""3810""
","
","
","""event"",""trial"",""time""
""fullscreenenter"",""1"",""3810""
","
",,1994.3,"<p> When you’ve arrived at a new planet, you will dig once. </p> <p>Then, you get to decide if you want to stay on the planet and dig again or travel to a new planet and dig there.</p> <p> To stay and dig, press the letter <strong>‘A’</strong> on your keyboard. Try pressing it now! </p><p><img src='run_exp/static/images/task_images/land.jpg'  height='700' width='auto'></p>",65,"<p> When you’ve arrived at a new planet, you will dig once. </p> <p>Then, you get to decide if you want to stay on the planet and dig again or travel to a new planet and dig there.</p> <p> To stay and dig, press the letter <strong>‘A’</strong> on your keyboard. Try pressing it now! </p><p><img src='run_exp/static/images/task_images/land.jpg'  height='700' width='auto'></p>",,,,,,100,,,,,,,,,,,,,,,,,
dig_prac,11,71728,0.0-7.0-2.0,"""event"",""trial"",""time""
""fullscreenenter"",""1"",""3810""
","
","
","""event"",""trial"",""time""
""fullscreenenter"",""1"",""3810""
","
",,,,,,,,,,,,"[{""stimulus"":""run_exp/static/images/task_images/dig.jpg"",""time"":1.400000000023283},{""stimulus"":""run_exp/static/images/task_images/land.jpg"",""time"":675.5999999999767},{""stimulus"":""run_exp/static/images/task_images/dig.jpg"",""time"":1338.7999999999302}]",[],,,,,,,,,,,,,,,
instruc_travel,12,108280,0.0-7.0-3.0,"""event"",""trial"",""time""
""fullscreenenter"",""1"",""3810""
","
","
","""event"",""trial"",""time""
""fullscreenenter"",""1"",""3810""
","
",,null,run_exp/static/audio/clip_5_travel.m4a,null,"<p>Every time you dig up gems, there are less gems on the planet, so the more you dig on a planet the fewer gems you’ll get with each dig.</p><p>When gems are running low, you may want to travel to a new planet. </p> <p>  Planets are very far apart in this galaxy, so it will take some time to travel between them. </p> <br><p>There are lots and lots of planets for you to visit, so you won’t be able to return to any planets you’ve seen before. </p><br><p>To leave this planet and travel to a new one, press the letter <strong>‘L’</strong> on your keyboard. Try pressing it now! </p><p><img src='run_exp/static/images/task_images/rocket-01.jpg'  height='600' width='auto'></p>",,,,,,,,,,,,,,,,,,,,,,,
instruc_travel_try,13,110010,0.0-7.0-4.0,"""event"",""trial"",""time""
""fullscreenenter"",""1"",""3810""
","
","
","""event"",""trial"",""time""
""fullscreenenter"",""1"",""3810""
","
",,1726,"<p>Every time you dig up gems, there are less gems on the planet, so the more you dig on a planet the fewer gems you’ll get with each dig.</p><p>When gems are running low, you may want to travel to a new planet. </p> <p>  Planets are very far apart in this galaxy, so it will take some time to travel between them. </p> <br><p>There are lots and lots of planets for you to visit, so you won’t be able to return to any planets you’ve seen before. </p><br><p>To leave this planet and travel to a new one, press the letter <strong>‘L’</strong> on your keyboard. Try pressing it now! </p><p><img src='run_exp/static/images/task_images/rocket-01.jpg'  height='600' width='auto'></p>",76,"<p>Every time you dig up gems, there are less gems on the planet, so the more you dig on a planet the fewer gems you’ll get with each dig.</p><p>When gems are running low, you may want to travel to a new planet. </p> <p>  Planets are very far apart in this galaxy, so it will take some time to travel between them. </p> <br><p>There are lots and lots of planets for you to visit, so you won’t be able to return to any planets you’ve seen before. </p><br><p>To leave this planet and travel to a new one, press the letter <strong>‘L’</strong> on your keyboard. Try pressing it now! </p><p><img src='run_exp/static/images/task_images/rocket-01.jpg'  height='600' width='auto'></p>",,,,,,,,,,,,,,,,,,,,,,,
travel_prac,14,120016,0.0-7.0-5.0,"""event"",""trial"",""time""
""fullscreenenter"",""1"",""3810""
","
","
","""event"",""trial"",""time""
""fullscreenenter"",""1"",""3810""
","
",,,,,,,,,,,,"[{""stimulus"":""run_exp/static/images/task_images/rocket-01.jpg"",""time"":0.6999999999534339},{""stimulus"":""run_exp/static/images/task_images/rocket-02.jpg"",""time"":1115.2999999999302},{""stimulus"":""run_exp/static/images/task_images/rocket-03.jpg"",""time"":2227.4000000000233},{""stimulus"":""run_exp/static/images/task_images/rocket-04.jpg"",""time"":3339.4000000000233},{""stimulus"":""run_exp/static/images/task_images/rocket-05.jpg"",""time"":4448.099999999977},{""stimulus"":""run_exp/static/images/task_images/rocket-06.jpg"",""time"":5559.79999999993},{""stimulus"":""run_exp/static/images/task_images/rocket-07.jpg"",""time"":6671.400000000023},{""stimulus"":""run_exp/static/images/task_images/rocket-08.jpg"",""time"":7784},{""stimulus"":""run_exp/static/images/task_images/rocket-09.jpg"",""time"":8891.599999999977}]",[],0,,,,,,,,,,,,,,
instruc_alien_greet,15,147493,0.0-7.0-6.0,"""event"",""trial"",""time""
""fullscreenenter"",""1"",""3810""
","
","
","""event"",""trial"",""time""
""fullscreenenter"",""1"",""3810""
","
",,null,run_exp/static/audio/clip_6_alien.m4a,null,"<p>When you arrive at a new planet, the alien who owns the treasure mine on that planet will greet you!</p><p>The better an alien takes care of their mine the easier it is to dig for gems. Some aliens take better care of their mine than others. So, you won’t get exactly the same amount of gems on each planet.</p><p>What the alien looks like does not tell you anything about how many gems there are on the planet.</p><br><p><img src=""run_exp/static/images/task_images/aliens/instructions_aliens/planet/alien_planet-1.jpg""  height=""600"" width=""auto""></p>",,,,,,,,,,,,,,,,,,,,,,,
instruc_alien_greet,16,160312,0.0-7.0-7.0,"""event"",""trial"",""time""
""fullscreenenter"",""1"",""3810""
","
","
","""event"",""trial"",""time""
""fullscreenenter"",""1"",""3810""
","
",,12812.4,"<p>When you arrive at a new planet, the alien who owns the treasure mine on that planet will greet you!</p><p>The better an alien takes care of their mine the easier it is to dig for gems. Some aliens take better care of their mine than others. So, you won’t get exactly the same amount of gems on each planet.</p><p>What the alien looks like does not tell you anything about how many gems there are on the planet.</p><br><p><img src=""run_exp/static/images/task_images/aliens/instructions_aliens/planet/alien_planet-1.jpg""  height=""600"" width=""auto""></p>",,,,,,,1,,,,,,,,,,,,,,,,,,
html-keyboard-response,17,161166,0.0-7.0-8.0,"""event"",""trial"",""time""
""fullscreenenter"",""1"",""3810""
","
","
","""event"",""trial"",""time""
""fullscreenenter"",""1"",""3810""
","
",,846.6,"<p>When you arrive at a new planet, the alien who owns the treasure mine on that planet will greet you!</p><p>The better an alien takes care of their mine the easier it is to dig for gems. Some aliens take better care of their mine than others. So, you won’t get exactly the same amount of gems on each planet.</p><p>What the alien looks like does not tell you anything about how many gems there are on the planet.</p><br><p><img src=""run_exp/static/images/task_images/aliens/instructions_aliens/planet/alien_planet-1.jpg""  height=""600"" width=""auto""></p><button class=""jspsych-html-btn-unchosen""><img src=""run_exp/static/images/task_images/planet-01.jpg"" height=""50""></button><button class=""jspsych-html-btn-chosen""><img src=""run_exp/static/images/task_images/planet-02.jpg"" height=""50""></button><p><b>[press the space bar to lock in your answer]<b><br></p>",32,,,,,,,,,,,,,,,,,,,,,,,,
time_out,18,172460,0.0-8.0-0.0,"""event"",""trial"",""time""
""fullscreenenter"",""1"",""3810""
","
","
","""event"",""trial"",""time""
""fullscreenenter"",""1"",""3810""
","
",,null,run_exp/static/audio/clip_7_timeout.m4a,null,"<p>If you don't make your choice fast enough, you’ll have to wait a few seconds before you can make another one.</p><p>You can’t dig for more gems or travel to new planets. You just have to sit and wait.</p><br><p><img src='run_exp/static/images/task_images/time_out.jpg'  height='600' width='auto'></p>",,,,,,,,,,,,,,,,,,,,,,,
time_out,19,177264,0.0-8.0-1.0,"""event"",""trial"",""time""
""fullscreenenter"",""1"",""3810""
","
","
","""event"",""trial"",""time""
""fullscreenenter"",""1"",""3810""
","
",,4799.2,"<p>If you don't make your choice fast enough, you’ll have to wait a few seconds before you can make another one.</p><p>You can’t dig for more gems or travel to new planets. You just have to sit and wait.</p><br><p><img src='run_exp/static/images/task_images/time_out.jpg'  height='600' width='auto'></p>",,,,,,,1,,,,,,,,,,,,,,,,,,
html-keyboard-response,20,177472,0.0-8.0-2.0,"""event"",""trial"",""time""
""fullscreenenter"",""1"",""3810""
","
","
","""event"",""trial"",""time""
""fullscreenenter"",""1"",""3810""
","
",,203.4,"<p>If you don't make your choice fast enough, you’ll have to wait a few seconds before you can make another one.</p><p>You can’t dig for more gems or travel to new planets. You just have to sit and wait.</p><br><p><img src='run_exp/static/images/task_images/time_out.jpg'  height='600' width='auto'></p><button class=""jspsych-html-btn-unchosen""><img src=""run_exp/static/images/task_images/planet-01.jpg"" height=""50""></button><button class=""jspsych-html-btn-chosen""><img src=""run_exp/static/images/task_images/planet-02.jpg"" height=""50""></button><p><b>[press the space bar to lock in your answer]<b><br></p>",32,,,,,,,,,,,,,,,,,,,,,,,,
instruc_break,21,193454,0.0-9.0-0.0,"""event"",""trial"",""time""
""fullscreenenter"",""1"",""3810""
","
","
","""event"",""trial"",""time""
""fullscreenenter"",""1"",""3810""
","
",,null,run_exp/static/audio/clip_8_break.m4a,null,"<p> After digging and traveling for a while, you’ll be able to take a break at home base. </p><p>The game will last 20 minutes no matter what.</p><p>You will visit home base every 5 minutes, so, you will visit home base three times during the game.</p><br><p><img src='run_exp/static/images/task_images/home_base.jpg' height='600' width='auto'></p>",,,,,,,,,,,,,,,,,,,,,,,
instruc_break,22,203365,0.0-9.0-1.0,"""event"",""trial"",""time""
""fullscreenenter"",""1"",""3810""
","
","
","""event"",""trial"",""time""
""fullscreenenter"",""1"",""3810""
","
",,9905.8,"<p> After digging and traveling for a while, you’ll be able to take a break at home base. </p><p>The game will last 20 minutes no matter what.</p><p>You will visit home base every 5 minutes, so, you will visit home base three times during the game.</p><br><p><img src='run_exp/static/images/task_images/home_base.jpg' height='600' width='auto'></p>",,,,,,,1,,,,,,,,,,,,,,,,,,
html-keyboard-response,23,205978,0.0-9.0-2.0,"""event"",""trial"",""time""
""fullscreenenter"",""1"",""3810""
","
","
","""event"",""trial"",""time""
""fullscreenenter"",""1"",""3810""
","
",,2608,"<p> After digging and traveling for a while, you’ll be able to take a break at home base. </p><p>The game will last 20 minutes no matter what.</p><p>You will visit home base every 5 minutes, so, you will visit home base three times during the game.</p><br><p><img src='run_exp/static/images/task_images/home_base.jpg' height='600' width='auto'></p><button class=""jspsych-html-btn-unchosen""><img src=""run_exp/static/images/task_images/planet-01.jpg"" height=""50""></button><button class=""jspsych-html-btn-chosen""><img src=""run_exp/static/images/task_images/planet-02.jpg"" height=""50""></button><p><b>[press the space bar to lock in your answer]<b><br></p>",32,,,,,,,,,,,,,,,,,,,,,,,,
instruc_prac_game,24,216255,0.0-10.0-0.0,"""event"",""trial"",""time""
""fullscreenenter"",""1"",""3810""
","
","
","""event"",""trial"",""time""
""fullscreenenter"",""1"",""3810""
","
",,null,run_exp/static/audio/clip_9_practice.m4a,null,"<p> Are you ready to play a practice game? </p> <p>In this practice game, you'll be digging up barrels of gems. But, in the real game, you'll be digging up the gems themselves. </p>",,,,,,,,,,,,,,,,,,,,,,,
html-button-response,25,223992,0.0-10.0-1.0,"""event"",""trial"",""time""
""fullscreenenter"",""1"",""3810""
","
","
","""event"",""trial"",""time""
""fullscreenenter"",""1"",""3810""
","
",,7733.3,"<p> Are you ready to play a practice game? </p> <p>In this practice game, you'll be digging up barrels of gems. But, in the real game, you'll be digging up the gems themselves. </p>",,,,,,,0,,,,,,,,,,,,,,,,,,
alien_welcome_prac,26,229005,0.0-11.0-0.0,"""event"",""trial"",""time""
""fullscreenenter"",""1"",""3810""
","
","
","""event"",""trial"",""time""
""fullscreenenter"",""1"",""3810""
","
",,null,run_exp/static/images/task_images/aliens/practice_aliens/planet/alien_planet-5.jpg,null,,,,,,,,,,,,,,,,,,,,,,,,
land_prac,27,229512,0.0-11.0-1.0,"""event"",""trial"",""time""
""fullscreenenter"",""1"",""3810""
","
","
","""event"",""trial"",""time""
""fullscreenenter"",""1"",""3810""
","
",,null,run_exp/static/images/task_images/land.jpg,null,,,,,,,98,,,0,,,,,,,,,,,,,,
dig_prac,28,231520,0.0-11.0-2.0,"""event"",""trial"",""time""
""fullscreenenter"",""1"",""3810""
","
","
","""event"",""trial"",""time""
""fullscreenenter"",""1"",""3810""
","
",,,,,,,,,,,,"[{""stimulus"":""run_exp/static/images/task_images/dig.jpg"",""time"":0.7000000000698492},{""stimulus"":""run_exp/static/images/task_images/land.jpg"",""time"":673.7000000000698},{""stimulus"":""run_exp/static/images/task_images/dig.jpg"",""time"":1337.2000000000698}]",[],,,,,,,,,,,,,,,
harvest_prac,29,232524,0.0-11.0-3.0,"""event"",""trial"",""time""
""fullscreenenter"",""1"",""3810""
","
","
","""event"",""trial"",""time""
""fullscreenenter"",""1"",""3810""
","
",,null,run_exp/static/images/task_images/barrel_text.jpg,null,,,,,,,,,,,,,,,,,,,,,,,,
decision_prac,30,233754,0.0-11.0-4.0,"""event"",""trial"",""time""
""fullscreenenter"",""1"",""3810""
","
","
","""event"",""trial"",""time""
""fullscreenenter"",""1"",""3810""
","
",,1228.3,run_exp/static/images/task_images/land.jpg,65,,,,,,,,,,,1,,,,,,,,,,,,,
dig_prac,31,235768,0.0-12.0-0.0,"""event"",""trial"",""time""
""fullscreenenter"",""1"",""3810""
","
","
","""event"",""trial"",""time""
""fullscreenenter"",""1"",""3810""
","
",,,,,,,,,,,,"[{""stimulus"":""run_exp/static/images/task_images/dig.jpg"",""time"":0.5999999999767169},{""stimulus"":""run_exp/static/images/task_images/land.jpg"",""time"":670},{""stimulus"":""run_exp/static/images/task_images/dig.jpg"",""time"":1338.1999999999534}]",[],,,,,,,,,,,,,,,
harvest_prac,32,236772,0.0-12.0-1.0,"""event"",""trial"",""time""
""fullscreenenter"",""1"",""3810""
","
","
","""event"",""trial"",""time""
""fullscreenenter"",""1"",""3810""
","
",,null,run_exp/static/images/task_images/barrel_text.jpg,null,,,,,,,,,,,,,,,,,,,,,,,,
decision_prac,33,237298,0.0-12.0-2.0,"""event"",""trial"",""time""
""fullscreenenter"",""1"",""3810""
","
","
","""event"",""trial"",""time""
""fullscreenenter"",""1"",""3810""
","
",,523.5,run_exp/static/images/task_images/land.jpg,65,,,,,,,,,,,2,,,,,,,,,,,,,
dig_prac,34,239312,0.0-13.0-0.0,"""event"",""trial"",""time""
""fullscreenenter"",""1"",""3810""
","
","
","""event"",""trial"",""time""
""fullscreenenter"",""1"",""3810""
","
",,,,,,,,,,,,"[{""stimulus"":""run_exp/static/images/task_images/dig.jpg"",""time"":0.40000000002328306},{""stimulus"":""run_exp/static/images/task_images/land.jpg"",""time"":673.5},{""stimulus"":""run_exp/static/images/task_images/dig.jpg"",""time"":1336.5999999999767}]",[],,,,,,,,,,,,,,,
harvest_prac,35,240316,0.0-13.0-1.0,"""event"",""trial"",""time""
""fullscreenenter"",""1"",""3810""
","
","
","""event"",""trial"",""time""
""fullscreenenter"",""1"",""3810""
","
",,null,run_exp/static/images/task_images/barrel_text.jpg,null,,,,,,,,,,,,,,,,,,,,,,,,
decision_prac,36,243321,0.0-13.0-2.0,"""event"",""trial"",""time""
""fullscreenenter"",""1"",""3810""
","
","
","""event"",""trial"",""time""
""fullscreenenter"",""1"",""3810""
","
",,null,run_exp/static/images/task_images/land.jpg,null,,,,,,,,,,,3,,,,,,,,,,,,,
time_out,37,245336,0.0-14.0-0.0,"""event"",""trial"",""time""
""fullscreenenter"",""1"",""3810""
","
","
","""event"",""trial"",""time""
""fullscreenenter"",""1"",""3810""
","
",,null,run_exp/static/images/task_images/time_out.jpg,null,,,,,,,,,,,,,,,,,,,,,,,,
decision_prac,38,246313,0.0-14.0-1.0,"""event"",""trial"",""time""
""fullscreenenter"",""1"",""3810""
","
","
","""event"",""trial"",""time""
""fullscreenenter"",""1"",""3810""
","
",,973.1,run_exp/static/images/task_images/land.jpg,76,,,,,,,,,,,4,,,,,,,,,,,,,
travel,39,255340,0.0-15.0-0.0,"""event"",""trial"",""time""
""fullscreenenter"",""1"",""3810""
","
","
","""event"",""trial"",""time""
""fullscreenenter"",""1"",""3810""
","
",,,,,,,,,,,,"[{""stimulus"":""run_exp/static/images/task_images/rocket-01.jpg"",""time"":0.5},{""stimulus"":""run_exp/static/images/task_images/rocket-02.jpg"",""time"":1007.7999999999302},{""stimulus"":""run_exp/static/images/task_images/rocket-03.jpg"",""time"":2008.2999999999302},{""stimulus"":""run_exp/static/images/task_images/rocket-04.jpg"",""time"":3012.0999999999767},{""stimulus"":""run_exp/static/images/task_images/rocket-05.jpg"",""time"":4011.899999999907},{""stimulus"":""run_exp/static/images/task_images/rocket-06.jpg"",""time"":5016.099999999977},{""stimulus"":""run_exp/static/images/task_images/rocket-07.jpg"",""time"":6016.099999999977},{""stimulus"":""run_exp/static/images/task_images/rocket-08.jpg"",""time"":7021.5},{""stimulus"":""run_exp/static/images/task_images/rocket-09.jpg"",""time"":8019.699999999953}]",[],0,,,,,,,,,,,,,,
alien_welcome_prac,40,260344,0.0-15.0-1.0,"""event"",""trial"",""time""
""fullscreenenter"",""1"",""3810""
","
","
","""event"",""trial"",""time""
""fullscreenenter"",""1"",""3810""
","
",,null,run_exp/static/images/task_images/aliens/practice_aliens/planet/alien_planet-4.jpg,null,,,,,,,,,,,,,,,,,,,,,,,,
land_prac,41,260849,0.0-15.0-2.0,"""event"",""trial"",""time""
""fullscreenenter"",""1"",""3810""
","
","
","""event"",""trial"",""time""
""fullscreenenter"",""1"",""3810""
","
",,null,run_exp/static/images/task_images/land.jpg,null,,,,,,,104,,,0,,,,,,,,,,,,,,
dig_prac,42,262856,0.0-15.0-3.0,"""event"",""trial"",""time""
""fullscreenenter"",""1"",""3810""
","
","
","""event"",""trial"",""time""
""fullscreenenter"",""1"",""3810""
","
",,,,,,,,,,,,"[{""stimulus"":""run_exp/static/images/task_images/dig.jpg"",""time"":0.7000000000698492},{""stimulus"":""run_exp/static/images/task_images/land.jpg"",""time"":673},{""stimulus"":""run_exp/static/images/task_images/dig.jpg"",""time"":1341.2000000000698}]",[],,,,,,,,,,,,,,,
harvest_prac,43,263860,0.0-15.0-4.0,"""event"",""trial"",""time""
""fullscreenenter"",""1"",""3810""
","
","
","""event"",""trial"",""time""
""fullscreenenter"",""1"",""3810""
","
",,null,run_exp/static/images/task_images/barrel_text.jpg,null,,,,,,,,,,,,,,,,,,,,,,,,
decision_prac,44,265008,0.0-15.0-5.0,"""event"",""trial"",""time""
""fullscreenenter"",""1"",""3810""
","
","
","""event"",""trial"",""time""
""fullscreenenter"",""1"",""3810""
","
",,1145.9,run_exp/static/images/task_images/land.jpg,65,,,,,,,,,,,,1,,,,,,,,,,,,
quiz_instruc,45,274880,0.0-16.0-0.0,"""event"",""trial"",""time""
""fullscreenenter"",""1"",""3810""
","
","
","""event"",""trial"",""time""
""fullscreenenter"",""1"",""3810""
","
",,9864.6,run_exp/static/audio/clip_10_quiz.m4a,,,,,,,0,,,,,,,,,,,,,,,,,,
instruc_repeat,46,318047,0.0-16.0-1.0,"""event"",""trial"",""time""
""fullscreenenter"",""1"",""3810""
","
","
","""event"",""trial"",""time""
""fullscreenenter"",""1"",""3810""
","
",,null,"<p> Are you ready to play a practice game? </p> <p>In this practice game, you'll be digging up barrels of gems. But, in the real game, you'll be digging up the gems themselves. </p>",null,"<p>In this game, your goal is to collect as many gems as you can. That’s how you will win bonus money. </p> <p>The entire game will last 20 minutes no matter how many gems you collect or how many planets you visit. </p><p>To stay on a planet and dig again, press the letter A on your keyboard. To leave for a new planet, press the letter L.</p><p>The more you dig on a planet, the fewer gems you’ll get with each dig which is why you might consider leaving for a new planet. </p><p>When you arrive at a new planet, you’ll be greeted by an alien. What the alien looks like does not tell you anything about how much treasure is on the planet. </p>",,,,,,,,,,,,,,,,,,,,,,,
instruc_repeat_continue,47,319815,0.0-16.0-2.0,"""event"",""trial"",""time""
""fullscreenenter"",""1"",""3810""
","
","
","""event"",""trial"",""time""
""fullscreenenter"",""1"",""3810""
","
",,1765.5,"<p> Are you ready to play a practice game? </p> <p>In this practice game, you'll be digging up barrels of gems. But, in the real game, you'll be digging up the gems themselves. </p>",,,,,,,0,,,,,,,,,,,,,,,,,,
quiz_q_1_ask,48,324829,0.0-16.0-3.0,"""event"",""trial"",""time""
""fullscreenenter"",""1"",""3810""
","
","
","""event"",""trial"",""time""
""fullscreenenter"",""1"",""3810""
","
",,5007.6,run_exp/static/audio/clip_11_q1_ask.m4a,,,,,,,2,,,,,,,,,,,,,,,,,,
quiz_q_1_fb_correct,49,329055,0.0-17.0-0.0,"""event"",""trial"",""time""
""fullscreenenter"",""1"",""3810""
","
","
","""event"",""trial"",""time""
""fullscreenenter"",""1"",""3810""
","
",,null,run_exp/static/audio/clip_12_q1_correct.m4a,null,<p>That’s correct. You win extra money by collecting more gems.</p>,,,,,,,,,,,,,,,,,,,,,,,
quiz_q_2_ask,50,330800,0.0-17.0-1.0,"""event"",""trial"",""time""
""fullscreenenter"",""1"",""3810""
","
","
","""event"",""trial"",""time""
""fullscreenenter"",""1"",""3810""
","
",,1739.8,run_exp/static/audio/clip_14_q2_ask.m4a,,,,,,,1,,,,,,,,,,,,,,,,,,
quiz_q_2_fb_correct,51,334942,0.0-18.0-0.0,"""event"",""trial"",""time""
""fullscreenenter"",""1"",""3810""
","
","
","""event"",""trial"",""time""
""fullscreenenter"",""1"",""3810""
","
",,null,run_exp/static/audio/clip_15_q2_correct.m4a,null,<p>That’s correct. The experiment is 20 minutes no matter what.</p>,,,,,,,,,,,,,,,,,,,,,,,
quiz_q_3_ask,52,336867,0.0-18.0-1.0,"""event"",""trial"",""time""
""fullscreenenter"",""1"",""3810""
","
","
","""event"",""trial"",""time""
""fullscreenenter"",""1"",""3810""
","
",,1921.6,run_exp/static/audio/clip_17_q3_ask.m4a,,,,,,,1,,,,,,,,,,,,,,,,,,
quiz_q_3_fb_correct,53,341215,0.0-19.0-0.0,"""event"",""trial"",""time""
""fullscreenenter"",""1"",""3810""
","
","
","""event"",""trial"",""time""
""fullscreenenter"",""1"",""3810""
","
",,null,run_exp/static/audio/clip_18_q3_correct.m4a,null,<p> That’s correct. You press the letter L to travel to a new planet.</p>,,,,,,,,,,,,,,,,,,,,,,,
quiz_q_4_ask,54,344567,0.0-19.0-1.0,"""event"",""trial"",""time""
""fullscreenenter"",""1"",""3810""
","
","
","""event"",""trial"",""time""
""fullscreenenter"",""1"",""3810""
","
",,3348.4,run_exp/static/audio/clip_20_q4_ask.m4a,,,,,,,0,,,,,,,,,,,,,,,,,,
quiz_q_4_fb_correct,55,350178,0.0-20.0-0.0,"""event"",""trial"",""time""
""fullscreenenter"",""1"",""3810""
","
","
","""event"",""trial"",""time""
""fullscreenenter"",""1"",""3810""
","
",,null,run_exp/static/audio/clip_21_q4_correct.m4a,null,<p> That’s correct. The more you dig on a planet the fewer gems you’ll get with each dig. </p>,,,,,,,,,,,,,,,,,,,,,,,
quiz_q_5_ask,56,352521,0.0-20.0-1.0,"""event"",""trial"",""time""
""fullscreenenter"",""1"",""3810""
","
","
","""event"",""trial"",""time""
""fullscreenenter"",""1"",""3810""
","
",,2337.6,run_exp/static/audio/clip_23_q5_ask.m4a,,,,,,,1,,,,,,,,,,,,,,,,,,
quiz_q_5_fb_correct,57,357857,0.0-21.0-0.0,"""event"",""trial"",""time""
""fullscreenenter"",""1"",""3810""
","
","
","""event"",""trial"",""time""
""fullscreenenter"",""1"",""3810""
","
",,null,run_exp/static/audio/clip_24_q5_correct.m4a,null,<p> That’s correct. The alien tells you nothing about how much treasure is on the planet.</p>,,,,,,,,,,,,,,,,,,,,,,,
quiz_correct,58,361693,0.0-22.0-0.0,"""event"",""trial"",""time""
""fullscreenenter"",""1"",""3810""
","
","
","""event"",""trial"",""time""
""fullscreenenter"",""1"",""3810""
","
",,null,run_exp/static/audio/clip_26_correct_quiz.m4a,null,,,,,,,,,,,,,,,,,,,,,,,,
quiz_correct_continue,59,363320,0.0-22.0-1.0,"""event"",""trial"",""time""
""fullscreenenter"",""1"",""3810""
","
","
","""event"",""trial"",""time""
""fullscreenenter"",""1"",""3810""
","
",,1623.3,<p>Good job! You're now ready to move on to the real game!</p>,,,,,,,0,,,,,,,,,,,,,,,,,,
audio-keyboard-response,60,373727,0.0-22.0-2.0,"""event"",""trial"",""time""
""fullscreenenter"",""1"",""3810""
","
","
","""event"",""trial"",""time""
""fullscreenenter"",""1"",""3810""
","
",,null,run_exp/static/audio/clip_28_real_game.m4a,null,,,,,,,,,,,,,,,,,,,,,,,,
instruc_begin_exp_contine,61,374937,0.0-22.0-3.0,"""event"",""trial"",""time""
""fullscreenenter"",""1"",""3810""
","
","
","""event"",""trial"",""time""
""fullscreenenter"",""1"",""3810""
","
",,1206.7,"<p>Now that you know how  to dig for space treasure and travel to new planets,you can start exploring! </p><p>Do you want to go over the instructions again or get started with the real game?</p>",,,,,,,1,,,,,,1,,,,,,,,,,,,
alien_welcome,62,379948,0.0-23.0-0.0,"""event"",""trial"",""time""
""fullscreenenter"",""1"",""3810""
","
","
","""event"",""trial"",""time""
""fullscreenenter"",""1"",""3810""
","
",,null,run_exp/static/images/task_images/aliens/old_aliens/planet/alien_planet-16.jpg,null,,,,,,,,,,,,,16,"16,50,55,61,17,24,43,79,12,6,51,36,48,9,63,58,20,44,74,65,29,30,4,41,57,66,26,60,53,23,27,19,71,10,21,52,3,15,35,64,47,34",,,,,,,,,,
land,63,380452,0.0-23.0-1.0,"""event"",""trial"",""time""
""fullscreenenter"",""1"",""3810""
","
","
","""event"",""trial"",""time""
""fullscreenenter"",""1"",""3810""
","
",,null,run_exp/static/images/task_images/land.jpg,null,,,,,,,96,,,1,,,,,,,,,,,,,,
dig,64,382463,0.0-23.0-2.0,"""event"",""trial"",""time""
""fullscreenenter"",""1"",""3810""
","
","
","""event"",""trial"",""time""
""fullscreenenter"",""1"",""3810""
","
",,,,,,,,,,,,"[{""stimulus"":""run_exp/static/images/task_images/dig.jpg"",""time"":1.1999999999534339},{""stimulus"":""run_exp/static/images/task_images/land.jpg"",""time"":675},{""stimulus"":""run_exp/static/images/task_images/dig.jpg"",""time"":1338.6999999999534}]",[],1,,,,,,,,,,,,,,
harvest,65,383468,0.0-23.0-3.0,"""event"",""trial"",""time""
""fullscreenenter"",""1"",""3810""
","
","
","""event"",""trial"",""time""
""fullscreenenter"",""1"",""3810""
","
",,null,run_exp/static/images/task_images/gems/96.jpg,null,,,,,,,18,,,1,,,,,96,0.185509411,0.1875,,,,,,,
decision,66,383506,0.0-23.0-4.0,"""event"",""trial"",""time""
""fullscreenenter"",""1"",""3810""
","
","
","""event"",""trial"",""time""
""fullscreenenter"",""1"",""3810""
","
",,34.9,run_exp/static/images/task_images/land.jpg,65,,,,,,,18,,,1,,,,,,,,8566,1,0,FALSE,,,
dig,67,386484,0.0-24.0-0.0,"""event"",""trial"",""time""
""fullscreenenter"",""1"",""3810""
","
","
","""event"",""trial"",""time""
""fullscreenenter"",""1"",""3810""
","
",,,,,,,,,,,,"[{""stimulus"":""run_exp/static/images/task_images/dig.jpg"",""time"":0.5999999998603016},{""stimulus"":""run_exp/static/images/task_images/land.jpg"",""time"":994.8999999999069},{""stimulus"":""run_exp/static/images/task_images/dig.jpg"",""time"":1979.7999999998137}]",[],1,,,,,,,,,,,,,,
harvest,68,387489,0.0-24.0-1.0,"""event"",""trial"",""time""
""fullscreenenter"",""1"",""3810""
","
","
","""event"",""trial"",""time""
""fullscreenenter"",""1"",""3810""
","
",,null,run_exp/static/images/task_images/gems/18.jpg,null,,,,,,,5,,,1,,,,,18,0.274742338,0.277777778,,,,,,,
decision,69,387990,0.0-24.0-2.0,"""event"",""trial"",""time""
""fullscreenenter"",""1"",""3810""
","
","
","""event"",""trial"",""time""
""fullscreenenter"",""1"",""3810""
","
",,497.4,run_exp/static/images/task_images/land.jpg,65,,,,,,,5,,,1,,,,,,,,13049,1,1,FALSE,,,
dig,70,390513,0.0-25.0-0.0,"""event"",""trial"",""time""
""fullscreenenter"",""1"",""3810""
","
","
","""event"",""trial"",""time""
""fullscreenenter"",""1"",""3810""
","
",,,,,,,,,,,,"[{""stimulus"":""run_exp/static/images/task_images/dig.jpg"",""time"":1},{""stimulus"":""run_exp/static/images/task_images/land.jpg"",""time"":841},{""stimulus"":""run_exp/static/images/task_images/dig.jpg"",""time"":1673.5}]",[],1,,,,,,,,,,,,,,
harvest,71,391517,0.0-25.0-1.0,"""event"",""trial"",""time""
""fullscreenenter"",""1"",""3810""
","
","
","""event"",""trial"",""time""
""fullscreenenter"",""1"",""3810""
","
",,null,run_exp/static/images/task_images/gems/5.jpg,null,,,,,,,2,,,1,,,,,5,0.326007691,0.4,,,,,,,
decision,72,391894,0.0-25.0-2.0,"""event"",""trial"",""time""
""fullscreenenter"",""1"",""3810""
","
","
","""event"",""trial"",""time""
""fullscreenenter"",""1"",""3810""
","
",,374.3,run_exp/static/images/task_images/land.jpg,65,,,,,,,2,,,1,,,,,,,,16953,1,2,FALSE,,,
dig,73,394536,0.0-26.0-0.0,"""event"",""trial"",""time""
""fullscreenenter"",""1"",""3810""
","
","
","""event"",""trial"",""time""
""fullscreenenter"",""1"",""3810""
","
",,,,,,,,,,,,"[{""stimulus"":""run_exp/static/images/task_images/dig.jpg"",""time"":1.1000000000931323},{""stimulus"":""run_exp/static/images/task_images/land.jpg"",""time"":881.8000000000466},{""stimulus"":""run_exp/static/images/task_images/dig.jpg"",""time"":1753.1000000000931}]",[],1,,,,,,,,,,,,,,
harvest,74,395545,0.0-26.0-1.0,"""event"",""trial"",""time""
""fullscreenenter"",""1"",""3810""
","
","
","""event"",""trial"",""time""
""fullscreenenter"",""1"",""3810""
","
",,null,run_exp/static/images/task_images/gems/2.jpg,null,,,,,,,0,,,1,,,,,2,0.206141176,0,,,,,,,
decision,75,396277,0.0-26.0-2.0,"""event"",""trial"",""time""
""fullscreenenter"",""1"",""3810""
","
","
","""event"",""trial"",""time""
""fullscreenenter"",""1"",""3810""
","
",,729.6,run_exp/static/images/task_images/land.jpg,76,,,,,,,0,,,1,,,,,,,,21336,1,3,TRUE,,,
travel,76,405560,0.0-27.0-0.0,"""event"",""trial"",""time""
""fullscreenenter"",""1"",""3810""
","
","
","""event"",""trial"",""time""
""fullscreenenter"",""1"",""3810""
","
",,,,,,,,,,,,"[{""stimulus"":""run_exp/static/images/task_images/rocket-01.jpg"",""time"":0.6000000000931323},{""stimulus"":""run_exp/static/images/task_images/rocket-02.jpg"",""time"":1037.1000000000931},{""stimulus"":""run_exp/static/images/task_images/rocket-03.jpg"",""time"":2064},{""stimulus"":""run_exp/static/images/task_images/rocket-04.jpg"",""time"":3095.600000000093},{""stimulus"":""run_exp/static/images/task_images/rocket-05.jpg"",""time"":4124.5},{""stimulus"":""run_exp/static/images/task_images/rocket-06.jpg"",""time"":5155.700000000186},{""stimulus"":""run_exp/static/images/task_images/rocket-07.jpg"",""time"":6184.600000000093},{""stimulus"":""run_exp/static/images/task_images/rocket-08.jpg"",""time"":7216.40000000014},{""stimulus"":""run_exp/static/images/task_images/rocket-09.jpg"",""time"":8244.300000000047}]",[],1,,,,,,,,,,,,,,
alien_welcome,77,410564,0.0-27.0-1.0,"""event"",""trial"",""time""
""fullscreenenter"",""1"",""3810""
","
","
","""event"",""trial"",""time""
""fullscreenenter"",""1"",""3810""
","
",,null,run_exp/static/images/task_images/aliens/old_aliens/planet/alien_planet-50.jpg,null,,,,,,,,,,,,,50,"16,50,55,61,17,24,43,79,12,6,51,36,48,9,63,58,20,44,74,65,29,30,4,41,57,66,26,60,53,23,27,19,71,10,21,52,3,15,35,64,47,34",,,,,,,,,,
land,78,411069,0.0-27.0-2.0,"""event"",""trial"",""time""
""fullscreenenter"",""1"",""3810""
","
","
","""event"",""trial"",""time""
""fullscreenenter"",""1"",""3810""
","
",,null,run_exp/static/images/task_images/land.jpg,null,,,,,,,96,,,2,,,,,,,,,,,,,,
dig,79,413080,0.0-27.0-3.0,"""event"",""trial"",""time""
""fullscreenenter"",""1"",""3810""
","
","
","""event"",""trial"",""time""
""fullscreenenter"",""1"",""3810""
","
",,,,,,,,,,,,"[{""stimulus"":""run_exp/static/images/task_images/dig.jpg"",""time"":0.6000000000931323},{""stimulus"":""run_exp/static/images/task_images/land.jpg"",""time"":673.8000000000466},{""stimulus"":""run_exp/static/images/task_images/dig.jpg"",""time"":1337.5}]",[],2,,,,,,,,,,,,,,
harvest,80,414085,0.0-27.0-4.0,"""event"",""trial"",""time""
""fullscreenenter"",""1"",""3810""
","
","
","""event"",""trial"",""time""
""fullscreenenter"",""1"",""3810""
","
",,null,run_exp/static/images/task_images/gems/96.jpg,null,,,,,,,14,,,2,,,,,96,0.145515803,0.145833333,,,,,,,
decision,81,416889,0.0-27.0-5.0,"""event"",""trial"",""time""
""fullscreenenter"",""1"",""3810""
","
","
","""event"",""trial"",""time""
""fullscreenenter"",""1"",""3810""
","
",,2800.8,run_exp/static/images/task_images/land.jpg,65,,,,,,,14,,,2,,,,,,,,41948,1,0,FALSE,,,
dig,82,417100,0.0-28.0-0.0,"""event"",""trial"",""time""
""fullscreenenter"",""1"",""3810""
","
","
","""event"",""trial"",""time""
""fullscreenenter"",""1"",""3810""
","
",,,,,,,,,,,,"[{""stimulus"":""run_exp/static/images/task_images/dig.jpg"",""time"":0.6000000000931323},{""stimulus"":""run_exp/static/images/task_images/land.jpg"",""time"":70.5},{""stimulus"":""run_exp/static/images/task_images/dig.jpg"",""time"":135.10000000009313}]",[],2,,,,,,,,,,,,,,
harvest,83,418104,0.0-28.0-1.0,"""event"",""trial"",""time""
""fullscreenenter"",""1"",""3810""
","
","
","""event"",""trial"",""time""
""fullscreenenter"",""1"",""3810""
","
",,null,run_exp/static/images/task_images/gems/14.jpg,null,,,,,,,2,,,2,,,,,14,0.134760848,0.142857143,,,,,,,
decision,84,418878,0.0-28.0-2.0,"""event"",""trial"",""time""
""fullscreenenter"",""1"",""3810""
","
","
","""event"",""trial"",""time""
""fullscreenenter"",""1"",""3810""
","
",,769.4,run_exp/static/images/task_images/land.jpg,65,,,,,,,2,,,2,,,,,,,,43937,1,1,FALSE,,,
dig,85,421116,0.0-29.0-0.0,"""event"",""trial"",""time""
""fullscreenenter"",""1"",""3810""
","
","
","""event"",""trial"",""time""
""fullscreenenter"",""1"",""3810""
","
",,,,,,,,,,,,"[{""stimulus"":""run_exp/static/images/task_images/dig.jpg"",""time"":0.5999999998603016},{""stimulus"":""run_exp/static/images/task_images/land.jpg"",""time"":747.7999999998137},{""stimulus"":""run_exp/static/images/task_images/dig.jpg"",""time"":1491.8999999999069}]",[],2,,,,,,,,,,,,,,
harvest,86,422120,0.0-29.0-1.0,"""event"",""trial"",""time""
""fullscreenenter"",""1"",""3810""
","
","
","""event"",""trial"",""time""
""fullscreenenter"",""1"",""3810""
","
",,null,run_exp/static/images/task_images/gems/2.jpg,null,,,,,,,0,,,2,,,,,2,0.244340854,0,,,,,,,
decision,87,424241,0.0-29.0-2.0,"""event"",""trial"",""time""
""fullscreenenter"",""1"",""3810""
","
","
","""event"",""trial"",""time""
""fullscreenenter"",""1"",""3810""
","
",,2117.6,run_exp/static/images/task_images/land.jpg,65,,,,,,,0,,,2,,,,,,,,49300,1,2,FALSE,,,
dig,88,425136,0.0-30.0-0.0,"""event"",""trial"",""time""
""fullscreenenter"",""1"",""3810""
","
","
","""event"",""trial"",""time""
""fullscreenenter"",""1"",""3810""
","
",,,,,,,,,,,,"[{""stimulus"":""run_exp/static/images/task_images/dig.jpg"",""time"":0.5},{""stimulus"":""run_exp/static/images/task_images/land.jpg"",""time"":299.89999999990687},{""stimulus"":""run_exp/static/images/task_images/dig.jpg"",""time"":591.1999999999534}]",[],2,,,,,,,,,,,,,,
harvest,89,426140,0.0-30.0-1.0,"""event"",""trial"",""time""
""fullscreenenter"",""1"",""3810""
","
","
","""event"",""trial"",""time""
""fullscreenenter"",""1"",""3810""
","
",,null,run_exp/static/images/task_images/gems/0.jpg,null,,,,,,,0,,,2,,,,,0,0.126062384,NaN,,,,,,,
decision,90,427217,0.0-30.0-2.0,"""event"",""trial"",""time""
""fullscreenenter"",""1"",""3810""
","
","
","""event"",""trial"",""time""
""fullscreenenter"",""1"",""3810""
","
",,1075.3,run_exp/static/images/task_images/land.jpg,76,,,,,,,0,,,2,,,,,,,,52277,1,3,TRUE,,,
travel,91,436152,0.0-31.0-0.0,"""event"",""trial"",""time""
""fullscreenenter"",""1"",""3810""
","
","
","""event"",""trial"",""time""
""fullscreenenter"",""1"",""3810""
","
",,,,,,,,,,,,"[{""stimulus"":""run_exp/static/images/task_images/rocket-01.jpg"",""time"":0.5999999998603016},{""stimulus"":""run_exp/static/images/task_images/rocket-02.jpg"",""time"":999.5999999998603},{""stimulus"":""run_exp/static/images/task_images/rocket-03.jpg"",""time"":1988.3999999999069},{""stimulus"":""run_exp/static/images/task_images/rocket-04.jpg"",""time"":2979},{""stimulus"":""run_exp/static/images/task_images/rocket-05.jpg"",""time"":3968.899999999907},{""stimulus"":""run_exp/static/images/task_images/rocket-06.jpg"",""time"":4959.699999999953},{""stimulus"":""run_exp/static/images/task_images/rocket-07.jpg"",""time"":5950.899999999907},{""stimulus"":""run_exp/static/images/task_images/rocket-08.jpg"",""time"":6944.199999999953},{""stimulus"":""run_exp/static/images/task_images/rocket-09.jpg"",""time"":7935}]",[],2,,,,,,,,,,,,,,
alien_welcome,92,441160,0.0-31.0-1.0,"""event"",""trial"",""time""
""fullscreenenter"",""1"",""3810""
","
","
","""event"",""trial"",""time""
""fullscreenenter"",""1"",""3810""
","
",,null,run_exp/static/images/task_images/aliens/old_aliens/planet/alien_planet-55.jpg,null,,,,,,,,,,,,,55,"16,50,55,61,17,24,43,79,12,6,51,36,48,9,63,58,20,44,74,65,29,30,4,41,57,66,26,60,53,23,27,19,71,10,21,52,3,15,35,64,47,34",,,,,,,,,,
land,93,441664,0.0-31.0-2.0,"""event"",""trial"",""time""
""fullscreenenter"",""1"",""3810""
","
","
","""event"",""trial"",""time""
""fullscreenenter"",""1"",""3810""
","
",,null,run_exp/static/images/task_images/land.jpg,null,,,,,,,87,,,3,,,,,,,,,,,,,,
dig,94,443676,0.0-31.0-3.0,"""event"",""trial"",""time""
""fullscreenenter"",""1"",""3810""
","
","
","""event"",""trial"",""time""
""fullscreenenter"",""1"",""3810""
","
",,,,,,,,,,,,"[{""stimulus"":""run_exp/static/images/task_images/dig.jpg"",""time"":1.1000000000931323},{""stimulus"":""run_exp/static/images/task_images/land.jpg"",""time"":674.8000000000466},{""stimulus"":""run_exp/static/images/task_images/dig.jpg"",""time"":1338.5}]",[],3,,,,,,,,,,,,,,
harvest,95,444680,0.0-31.0-4.0,"""event"",""trial"",""time""
""fullscreenenter"",""1"",""3810""
","
","
","""event"",""trial"",""time""
""fullscreenenter"",""1"",""3810""
","
",,null,run_exp/static/images/task_images/gems/87.jpg,null,,,,,,,42,,,3,,,,,87,0.481424631,0.482758621,,,,,,,
decision,96,445080,0.0-31.0-5.0,"""event"",""trial"",""time""
""fullscreenenter"",""1"",""3810""
","
","
","""event"",""trial"",""time""
""fullscreenenter"",""1"",""3810""
","
",,397.1,run_exp/static/images/task_images/land.jpg,65,,,,,,,42,,,3,,,,,,,,70139,1,0,FALSE,,,
dig,97,447696,0.0-32.0-0.0,"""event"",""trial"",""time""
""fullscreenenter"",""1"",""3810""
","
","
","""event"",""trial"",""time""
""fullscreenenter"",""1"",""3810""
","
",,,,,,,,,,,,"[{""stimulus"":""run_exp/static/images/task_images/dig.jpg"",""time"":0.6999999999534339},{""stimulus"":""run_exp/static/images/task_images/land.jpg"",""time"":872.0999999998603},{""stimulus"":""run_exp/static/images/task_images/dig.jpg"",""time"":1739.2999999998137}]",[],3,,,,,,,,,,,,,,
harvest,98,448700,0.0-32.0-1.0,"""event"",""trial"",""time""
""fullscreenenter"",""1"",""3810""
","
","
","""event"",""trial"",""time""
""fullscreenenter"",""1"",""3810""
","
",,null,run_exp/static/images/task_images/gems/42.jpg,null,,,,,,,17,,,3,,,,,42,0.411302777,0.404761905,,,,,,,
decision,99,449155,0.0-32.0-2.0,"""event"",""trial"",""time""
""fullscreenenter"",""1"",""3810""
","
","
","""event"",""trial"",""time""
""fullscreenenter"",""1"",""3810""
","
",,451.9,run_exp/static/images/task_images/land.jpg,65,,,,,,,17,,,3,,,,,,,,74214,1,1,FALSE,,,
dig,100,451712,0.0-33.0-0.0,"""event"",""trial"",""time""
""fullscreenenter"",""1"",""3810""
","
","
","""event"",""trial"",""time""
""fullscreenenter"",""1"",""3810""
","
",,,,,,,,,,,,"[{""stimulus"":""run_exp/static/images/task_images/dig.jpg"",""time"":0.5999999998603016},{""stimulus"":""run_exp/static/images/task_images/land.jpg"",""time"":855.0999999998603},{""stimulus"":""run_exp/static/images/task_images/dig.jpg"",""time"":1702.3000000000466}]",[],3,,,,,,,,,,,,,,
harvest,101,452716,0.0-33.0-1.0,"""event"",""trial"",""time""
""fullscreenenter"",""1"",""3810""
","
","
","""event"",""trial"",""time""
""fullscreenenter"",""1"",""3810""
","
",,null,run_exp/static/images/task_images/gems/17.jpg,null,,,,,,,9,,,3,,,,,17,0.500751229,0.529411765,,,,,,,
decision,102,452726,0.0-33.0-2.0,"""event"",""trial"",""time""
""fullscreenenter"",""1"",""3810""
","
","
","""event"",""trial"",""time""
""fullscreenenter"",""1"",""3810""
","
",,6.8,run_exp/static/images/task_images/land.jpg,65,,,,,,,9,,,3,,,,,,,,77785,1,2,FALSE,,,
dig,103,455736,0.0-34.0-0.0,"""event"",""trial"",""time""
""fullscreenenter"",""1"",""3810""
","
","
","""event"",""trial"",""time""
""fullscreenenter"",""1"",""3810""
","
",,,,,,,,,,,,"[{""stimulus"":""run_exp/static/images/task_images/dig.jpg"",""time"":1},{""stimulus"":""run_exp/static/images/task_images/land.jpg"",""time"":1001},{""stimulus"":""run_exp/static/images/task_images/dig.jpg"",""time"":2000.8000000000466}]",[],3,,,,,,,,,,,,,,
harvest,104,456740,0.0-34.0-1.0,"""event"",""trial"",""time""
""fullscreenenter"",""1"",""3810""
","
","
","""event"",""trial"",""time""
""fullscreenenter"",""1"",""3810""
","
",,null,run_exp/static/images/task_images/gems/9.jpg,null,,,,,,,5,,,3,,,,,9,0.547001297,0.555555556,,,,,,,
decision,105,457081,0.0-34.0-2.0,"""event"",""trial"",""time""
""fullscreenenter"",""1"",""3810""
","
","
","""event"",""trial"",""time""
""fullscreenenter"",""1"",""3810""
","
",,338.2,run_exp/static/images/task_images/land.jpg,65,,,,,,,5,,,3,,,,,,,,82140,1,3,FALSE,,,
dig,106,459756,0.0-35.0-0.0,"""event"",""trial"",""time""
""fullscreenenter"",""1"",""3810""
","
","
","""event"",""trial"",""time""
""fullscreenenter"",""1"",""3810""
","
",,,,,,,,,,,,"[{""stimulus"":""run_exp/static/images/task_images/dig.jpg"",""time"":0.5999999998603016},{""stimulus"":""run_exp/static/images/task_images/land.jpg"",""time"":891.1999999999534},{""stimulus"":""run_exp/static/images/task_images/dig.jpg"",""time"":1779.8999999999069}]",[],3,,,,,,,,,,,,,,
harvest,107,460760,0.0-35.0-1.0,"""event"",""trial"",""time""
""fullscreenenter"",""1"",""3810""
","
","
","""event"",""trial"",""time""
""fullscreenenter"",""1"",""3810""
","
",,null,run_exp/static/images/task_images/gems/5.jpg,null,,,,,,,2,,,3,,,,,5,0.483304811,0.4,,,,,,,
decision,108,461077,0.0-35.0-2.0,"""event"",""trial"",""time""
""fullscreenenter"",""1"",""3810""
","
","
","""event"",""trial"",""time""
""fullscreenenter"",""1"",""3810""
","
",,311.7,run_exp/static/images/task_images/land.jpg,65,,,,,,,2,,,3,,,,,,,,86136,1,4,FALSE,,,
dig,109,463777,0.0-36.0-0.0,"""event"",""trial"",""time""
""fullscreenenter"",""1"",""3810""
","
","
","""event"",""trial"",""time""
""fullscreenenter"",""1"",""3810""
","
",,,,,,,,,,,,"[{""stimulus"":""run_exp/static/images/task_images/dig.jpg"",""time"":0.5},{""stimulus"":""run_exp/static/images/task_images/land.jpg"",""time"":899.8000000000466},{""stimulus"":""run_exp/static/images/task_images/dig.jpg"",""time"":1795.6000000000931}]",[],3,,,,,,,,,,,,,,
harvest,110,464785,0.0-36.0-1.0,"""event"",""trial"",""time""
""fullscreenenter"",""1"",""3810""
","
","
","""event"",""trial"",""time""
""fullscreenenter"",""1"",""3810""
","
",,null,run_exp/static/images/task_images/gems/2.jpg,null,,,,,,,1,,,3,,,,,2,0.485273412,0.5,,,,,,,
decision,111,467788,0.0-36.0-2.0,"""event"",""trial"",""time""
""fullscreenenter"",""1"",""3810""
","
","
","""event"",""trial"",""time""
""fullscreenenter"",""1"",""3810""
","
",,null,run_exp/static/images/task_images/land.jpg,null,,,,,,,1,,,3,,,,,,,,92847,1,5,FALSE,,,
time_out,112,469804,0.0-37.0-0.0,"""event"",""trial"",""time""
""fullscreenenter"",""1"",""3810""
","
","
","""event"",""trial"",""time""
""fullscreenenter"",""1"",""3810""
","
",,null,run_exp/static/images/task_images/time_out.jpg,null,,,,,,,1,,,,,,,,,,,,,,,,,
decision,113,469810,0.0-37.0-1.0,"""event"",""trial"",""time""
""fullscreenenter"",""1"",""3810""
","
","
","""event"",""trial"",""time""
""fullscreenenter"",""1"",""3810""
","
",,1.7,run_exp/static/images/task_images/land.jpg,76,,,,,,,1,,,3,,,,,,,,94869,1,5,TRUE,,,
travel,114,479812,0.0-38.0-0.0,"""event"",""trial"",""time""
""fullscreenenter"",""1"",""3810""
","
","
","""event"",""trial"",""time""
""fullscreenenter"",""1"",""3810""
","
",,,,,,,,,,,,"[{""stimulus"":""run_exp/static/images/task_images/rocket-01.jpg"",""time"":0.6999999999534339},{""stimulus"":""run_exp/static/images/task_images/rocket-02.jpg"",""time"":1114.1000000000931},{""stimulus"":""run_exp/static/images/task_images/rocket-03.jpg"",""time"":2225.5},{""stimulus"":""run_exp/static/images/task_images/rocket-04.jpg"",""time"":3333.5},{""stimulus"":""run_exp/static/images/task_images/rocket-05.jpg"",""time"":4445.800000000047},{""stimulus"":""run_exp/static/images/task_images/rocket-06.jpg"",""time"":5553.699999999953},{""stimulus"":""run_exp/static/images/task_images/rocket-07.jpg"",""time"":6665.300000000047},{""stimulus"":""run_exp/static/images/task_images/rocket-08.jpg"",""time"":7773.300000000047},{""stimulus"":""run_exp/static/images/task_images/rocket-09.jpg"",""time"":8885.5}]",[],3,,,,,,,,,,,,,,
alien_welcome,115,484816,0.0-38.0-1.0,"""event"",""trial"",""time""
""fullscreenenter"",""1"",""3810""
","
","
","""event"",""trial"",""time""
""fullscreenenter"",""1"",""3810""
","
",,null,run_exp/static/images/task_images/aliens/old_aliens/planet/alien_planet-61.jpg,null,,,,,,,,,,,,,61,"16,50,55,61,17,24,43,79,12,6,51,36,48,9,63,58,20,44,74,65,29,30,4,41,57,66,26,60,53,23,27,19,71,10,21,52,3,15,35,64,47,34",,,,,,,,,,
land,116,485320,0.0-38.0-2.0,"""event"",""trial"",""time""
""fullscreenenter"",""1"",""3810""
","
","
","""event"",""trial"",""time""
""fullscreenenter"",""1"",""3810""
","
",,null,run_exp/static/images/task_images/land.jpg,null,,,,,,,99,,,4,,,,,,,,,,,,,,
dig,117,487328,0.0-38.0-3.0,"""event"",""trial"",""time""
""fullscreenenter"",""1"",""3810""
","
","
","""event"",""trial"",""time""
""fullscreenenter"",""1"",""3810""
","
",,,,,,,,,,,,"[{""stimulus"":""run_exp/static/images/task_images/dig.jpg"",""time"":0.7000000001862645},{""stimulus"":""run_exp/static/images/task_images/land.jpg"",""time"":673},{""stimulus"":""run_exp/static/images/task_images/dig.jpg"",""time"":1341.3000000000466}]",[],4,,,,,,,,,,,,,,
harvest,118,488332,0.0-38.0-4.0,"""event"",""trial"",""time""
""fullscreenenter"",""1"",""3810""
","
","
","""event"",""trial"",""time""
""fullscreenenter"",""1"",""3810""
","
",,null,run_exp/static/images/task_images/gems/99.jpg,null,,,,,,,48,,,4,,,,,99,0.482158722,0.484848485,,,,,,,
decision,119,488683,0.0-38.0-5.0,"""event"",""trial"",""time""
""fullscreenenter"",""1"",""3810""
","
","
","""event"",""trial"",""time""
""fullscreenenter"",""1"",""3810""
","
",,348.4,run_exp/static/images/task_images/land.jpg,65,,,,,,,48,,,4,,,,,,,,113742,1,0,FALSE,,,
dig,120,491348,0.0-39.0-0.0,"""event"",""trial"",""time""
""fullscreenenter"",""1"",""3810""
","
","
","""event"",""trial"",""time""
""fullscreenenter"",""1"",""3810""
","
",,,,,,,,,,,,"[{""stimulus"":""run_exp/static/images/task_images/dig.jpg"",""time"":1.6999999999534339},{""stimulus"":""run_exp/static/images/task_images/land.jpg"",""time"":889.1000000000931},{""stimulus"":""run_exp/static/images/task_images/dig.jpg"",""time"":1773.1000000000931}]",[],4,,,,,,,,,,,,,,
harvest,121,492352,0.0-39.0-1.0,"""event"",""trial"",""time""
""fullscreenenter"",""1"",""3810""
","
","
","""event"",""trial"",""time""
""fullscreenenter"",""1"",""3810""
","
",,null,run_exp/static/images/task_images/gems/48.jpg,null,,,,,,,24,,,4,,,,,48,0.495371152,0.5,,,,,,,
decision,122,492791,0.0-39.0-2.0,"""event"",""trial"",""time""
""fullscreenenter"",""1"",""3810""
","
","
","""event"",""trial"",""time""
""fullscreenenter"",""1"",""3810""
","
",,436.2,run_exp/static/images/task_images/land.jpg,65,,,,,,,24,,,4,,,,,,,,117851,1,1,FALSE,,,
dig,123,495372,0.0-40.0-0.0,"""event"",""trial"",""time""
""fullscreenenter"",""1"",""3810""
","
","
","""event"",""trial"",""time""
""fullscreenenter"",""1"",""3810""
","
",,,,,,,,,,,,"[{""stimulus"":""run_exp/static/images/task_images/dig.jpg"",""time"":1},{""stimulus"":""run_exp/static/images/task_images/land.jpg"",""time"":860.5},{""stimulus"":""run_exp/static/images/task_images/dig.jpg"",""time"":1712}]",[],4,,,,,,,,,,,,,,
harvest,124,496376,0.0-40.0-1.0,"""event"",""trial"",""time""
""fullscreenenter"",""1"",""3810""
","
","
","""event"",""trial"",""time""
""fullscreenenter"",""1"",""3810""
","
",,null,run_exp/static/images/task_images/gems/24.jpg,null,,,,,,,10,,,4,,,,,24,0.417382495,0.416666667,,,,,,,
decision,125,496629,0.0-40.0-2.0,"""event"",""trial"",""time""
""fullscreenenter"",""1"",""3810""
","
","
","""event"",""trial"",""time""
""fullscreenenter"",""1"",""3810""
","
",,250.5,run_exp/static/images/task_images/land.jpg,65,,,,,,,10,,,4,,,,,,,,121688,1,2,FALSE,,,
dig,126,499388,0.0-41.0-0.0,"""event"",""trial"",""time""
""fullscreenenter"",""1"",""3810""
","
","
","""event"",""trial"",""time""
""fullscreenenter"",""1"",""3810""
","
",,,,,,,,,,,,"[{""stimulus"":""run_exp/static/images/task_images/dig.jpg"",""time"":0.6000000000931323},{""stimulus"":""run_exp/static/images/task_images/land.jpg"",""time"":919.8000000000466},{""stimulus"":""run_exp/static/images/task_images/dig.jpg"",""time"":1835.8000000000466}]",[],4,,,,,,,,,,,,,,
harvest,127,500392,0.0-41.0-1.0,"""event"",""trial"",""time""
""fullscreenenter"",""1"",""3810""
","
","
","""event"",""trial"",""time""
""fullscreenenter"",""1"",""3810""
","
",,null,run_exp/static/images/task_images/gems/10.jpg,null,,,,,,,5,,,4,,,,,10,0.481478929,0.5,,,,,,,
decision,128,500795,0.0-41.0-2.0,"""event"",""trial"",""time""
""fullscreenenter"",""1"",""3810""
","
","
","""event"",""trial"",""time""
""fullscreenenter"",""1"",""3810""
","
",,399.7,run_exp/static/images/task_images/land.jpg,65,,,,,,,5,,,4,,,,,,,,125854,1,3,FALSE,,,
dig,129,503404,0.0-42.0-0.0,"""event"",""trial"",""time""
""fullscreenenter"",""1"",""3810""
","
","
","""event"",""trial"",""time""
""fullscreenenter"",""1"",""3810""
","
",,,,,,,,,,,,"[{""stimulus"":""run_exp/static/images/task_images/dig.jpg"",""time"":0.5999999998603016},{""stimulus"":""run_exp/static/images/task_images/land.jpg"",""time"":870},{""stimulus"":""run_exp/static/images/task_images/dig.jpg"",""time"":1737.8999999999069}]",[],4,,,,,,,,,,,,,,
harvest,130,504408,0.0-42.0-1.0,"""event"",""trial"",""time""
""fullscreenenter"",""1"",""3810""
","
","
","""event"",""trial"",""time""
""fullscreenenter"",""1"",""3810""
","
",,null,run_exp/static/images/task_images/gems/5.jpg,null,,,,,,,3,,,4,,,,,5,0.501387351,0.6,,,,,,,
decision,131,505621,0.0-42.0-2.0,"""event"",""trial"",""time""
""fullscreenenter"",""1"",""3810""
","
","
","""event"",""trial"",""time""
""fullscreenenter"",""1"",""3810""
","
",,1209.6,run_exp/static/images/task_images/land.jpg,65,,,,,,,3,,,4,,,,,,,,130681,1,4,FALSE,,,
dig,132,507428,0.0-43.0-0.0,"""event"",""trial"",""time""
""fullscreenenter"",""1"",""3810""
","
","
","""event"",""trial"",""time""
""fullscreenenter"",""1"",""3810""
","
",,,,,,,,,,,,"[{""stimulus"":""run_exp/static/images/task_images/dig.jpg"",""time"":1.1999999999534339},{""stimulus"":""run_exp/static/images/task_images/land.jpg"",""time"":602.9000000001397},{""stimulus"":""run_exp/static/images/task_images/dig.jpg"",""time"":1199.1999999999534}]",[],4,,,,,,,,,,,,,,
harvest,133,508432,0.0-43.0-1.0,"""event"",""trial"",""time""
""fullscreenenter"",""1"",""3810""
","
","
","""event"",""trial"",""time""
""fullscreenenter"",""1"",""3810""
","
",,null,run_exp/static/images/task_images/gems/3.jpg,null,,,,,,,1,,,4,,,,,3,0.457031855,0.333333333,,,,,,,
decision,134,508836,0.0-43.0-2.0,"""event"",""trial"",""time""
""fullscreenenter"",""1"",""3810""
","
","
","""event"",""trial"",""time""
""fullscreenenter"",""1"",""3810""
","
",,400.4,run_exp/static/images/task_images/land.jpg,65,,,,,,,1,,,4,,,,,,,,133895,1,5,FALSE,,,
dig,135,511444,0.0-44.0-0.0,"""event"",""trial"",""time""
""fullscreenenter"",""1"",""3810""
","
","
","""event"",""trial"",""time""
""fullscreenenter"",""1"",""3810""
","
",,,,,,,,,,,,"[{""stimulus"":""run_exp/static/images/task_images/dig.jpg"",""time"":0.5999999998603016},{""stimulus"":""run_exp/static/images/task_images/land.jpg"",""time"":869.5},{""stimulus"":""run_exp/static/images/task_images/dig.jpg"",""time"":1738.0999999998603}]",[],4,,,,,,,,,,,,,,
harvest,136,512448,0.0-44.0-1.0,"""event"",""trial"",""time""
""fullscreenenter"",""1"",""3810""
","
","
","""event"",""trial"",""time""
""fullscreenenter"",""1"",""3810""
","
",,null,run_exp/static/images/task_images/gems/1.jpg,null,,,,,,,1,,,4,,,,,1,0.521315746,1,,,,,,,
decision,137,512727,0.0-44.0-2.0,"""event"",""trial"",""time""
""fullscreenenter"",""1"",""3810""
","
","
","""event"",""trial"",""time""
""fullscreenenter"",""1"",""3810""
","
",,275.9,run_exp/static/images/task_images/land.jpg,76,,,,,,,1,,,4,,,,,,,,137786,1,6,TRUE,,,
travel,138,522461,0.0-45.0-0.0,"""event"",""trial"",""time""
""fullscreenenter"",""1"",""3810""
","
","
","""event"",""trial"",""time""
""fullscreenenter"",""1"",""3810""
","
",,,,,,,,,,,,"[{""stimulus"":""run_exp/static/images/task_images/rocket-01.jpg"",""time"":0.5},{""stimulus"":""run_exp/static/images/task_images/rocket-02.jpg"",""time"":1085.8000000000466},{""stimulus"":""run_exp/static/images/task_images/rocket-03.jpg"",""time"":2165.8000000000466},{""stimulus"":""run_exp/static/images/task_images/rocket-04.jpg"",""time"":3242.8000000000466},{""stimulus"":""run_exp/static/images/task_images/rocket-05.jpg"",""time"":4322.5},{""stimulus"":""run_exp/static/images/task_images/rocket-06.jpg"",""time"":5405.800000000047},{""stimulus"":""run_exp/static/images/task_images/rocket-07.jpg"",""time"":6485.699999999953},{""stimulus"":""run_exp/static/images/task_images/rocket-08.jpg"",""time"":7566.199999999953},{""stimulus"":""run_exp/static/images/task_images/rocket-09.jpg"",""time"":8645.899999999907}]",[],4,,,,,,,,,,,,,,
alien_welcome,139,527468,0.0-45.0-1.0,"""event"",""trial"",""time""
""fullscreenenter"",""1"",""3810""
","
","
","""event"",""trial"",""time""
""fullscreenenter"",""1"",""3810""
","
",,null,run_exp/static/images/task_images/aliens/old_aliens/planet/alien_planet-17.jpg,null,,,,,,,,,,,,,17,"16,50,55,61,17,24,43,79,12,6,51,36,48,9,63,58,20,44,74,65,29,30,4,41,57,66,26,60,53,23,27,19,71,10,21,52,3,15,35,64,47,34",,,,,,,,,,
land,140,527973,0.0-45.0-2.0,"""event"",""trial"",""time""
""fullscreenenter"",""1"",""3810""
","
","
","""event"",""trial"",""time""
""fullscreenenter"",""1"",""3810""
","
",,null,run_exp/static/images/task_images/land.jpg,null,,,,,,,99,,,5,,,,,,,,,,,,,,
dig,141,529980,0.0-45.0-3.0,"""event"",""trial"",""time""
""fullscreenenter"",""1"",""3810""
","
","
","""event"",""trial"",""time""
""fullscreenenter"",""1"",""3810""
","
",,,,,,,,,,,,"[{""stimulus"":""run_exp/static/images/task_images/dig.jpg"",""time"":0.5999999998603016},{""stimulus"":""run_exp/static/images/task_images/land.jpg"",""time"":671.8999999999069},{""stimulus"":""run_exp/static/images/task_images/dig.jpg"",""time"":1340.0999999998603}]",[],5,,,,,,,,,,,,,,
harvest,142,530984,0.0-45.0-4.0,"""event"",""trial"",""time""
""fullscreenenter"",""1"",""3810""
","
","
","""event"",""trial"",""time""
""fullscreenenter"",""1"",""3810""
","
",,null,run_exp/static/images/task_images/gems/99.jpg,null,,,,,,,52,,,5,,,,,99,0.525272917,0.525252525,,,,,,,
decision,143,531250,0.0-45.0-5.0,"""event"",""trial"",""time""
""fullscreenenter"",""1"",""3810""
","
","
","""event"",""trial"",""time""
""fullscreenenter"",""1"",""3810""
","
",,263.5,run_exp/static/images/task_images/land.jpg,65,,,,,,,52,,,5,,,,,,,,156309,1,0,FALSE,,,
dig,144,534000,0.0-46.0-0.0,"""event"",""trial"",""time""
""fullscreenenter"",""1"",""3810""
","
","
","""event"",""trial"",""time""
""fullscreenenter"",""1"",""3810""
","
",,,,,,,,,,,,"[{""stimulus"":""run_exp/static/images/task_images/dig.jpg"",""time"":0.6000000000931323},{""stimulus"":""run_exp/static/images/task_images/land.jpg"",""time"":919},{""stimulus"":""run_exp/static/images/task_images/dig.jpg"",""time"":1829.6000000000931}]",[],5,,,,,,,,,,,,,,
harvest,145,535004,0.0-46.0-1.0,"""event"",""trial"",""time""
""fullscreenenter"",""1"",""3810""
","
","
","""event"",""trial"",""time""
""fullscreenenter"",""1"",""3810""
","
",,null,run_exp/static/images/task_images/gems/52.jpg,null,,,,,,,22,,,5,,,,,52,0.418684543,0.423076923,,,,,,,
decision,146,535284,0.0-46.0-2.0,"""event"",""trial"",""time""
""fullscreenenter"",""1"",""3810""
","
","
","""event"",""trial"",""time""
""fullscreenenter"",""1"",""3810""
","
",,276.4,run_exp/static/images/task_images/land.jpg,65,,,,,,,22,,,5,,,,,,,,160343,1,1,FALSE,,,
dig,147,538016,0.0-47.0-0.0,"""event"",""trial"",""time""
""fullscreenenter"",""1"",""3810""
","
","
","""event"",""trial"",""time""
""fullscreenenter"",""1"",""3810""
","
",,,,,,,,,,,,"[{""stimulus"":""run_exp/static/images/task_images/dig.jpg"",""time"":0.5999999998603016},{""stimulus"":""run_exp/static/images/task_images/land.jpg"",""time"":913},{""stimulus"":""run_exp/static/images/task_images/dig.jpg"",""time"":1816.7999999998137}]",[],5,,,,,,,,,,,,,,
harvest,148,539020,0.0-47.0-1.0,"""event"",""trial"",""time""
""fullscreenenter"",""1"",""3810""
","
","
","""event"",""trial"",""time""
""fullscreenenter"",""1"",""3810""
","
",,null,run_exp/static/images/task_images/gems/22.jpg,null,,,,,,,12,,,5,,,,,22,0.549785471,0.545454545,,,,,,,
decision,149,539803,0.0-47.0-2.0,"""event"",""trial"",""time""
""fullscreenenter"",""1"",""3810""
","
","
","""event"",""trial"",""time""
""fullscreenenter"",""1"",""3810""
","
",,779.4,run_exp/static/images/task_images/land.jpg,76,,,,,,,12,,,5,,,,,,,,164862,1,2,TRUE,,,
travel,150,549040,0.0-48.0-0.0,"""event"",""trial"",""time""
""fullscreenenter"",""1"",""3810""
","
","
","""event"",""trial"",""time""
""fullscreenenter"",""1"",""3810""
","
",,,,,,,,,,,,"[{""stimulus"":""run_exp/static/images/task_images/rocket-01.jpg"",""time"":1},{""stimulus"":""run_exp/static/images/task_images/rocket-02.jpg"",""time"":1030.1999999999534},{""stimulus"":""run_exp/static/images/task_images/rocket-03.jpg"",""time"":2054.5999999998603},{""stimulus"":""run_exp/static/images/task_images/rocket-04.jpg"",""time"":3078.5},{""stimulus"":""run_exp/static/images/task_images/rocket-05.jpg"",""time"":4102.199999999953},{""stimulus"":""run_exp/static/images/task_images/rocket-06.jpg"",""time"":5125.899999999907},{""stimulus"":""run_exp/static/images/task_images/rocket-07.jpg"",""time"":6152.300000000047},{""stimulus"":""run_exp/static/images/task_images/rocket-08.jpg"",""time"":7174.699999999953},{""stimulus"":""run_exp/static/images/task_images/rocket-09.jpg"",""time"":8198.300000000047}]",[],5,,,,,,,,,,,,,,
alien_welcome,151,554044,0.0-48.0-1.0,"""event"",""trial"",""time""
""fullscreenenter"",""1"",""3810""
","
","
","""event"",""trial"",""time""
""fullscreenenter"",""1"",""3810""
","
",,null,run_exp/static/images/task_images/aliens/old_aliens/planet/alien_planet-24.jpg,null,,,,,,,,,,,,,24,"16,50,55,61,17,24,43,79,12,6,51,36,48,9,63,58,20,44,74,65,29,30,4,41,57,66,26,60,53,23,27,19,71,10,21,52,3,15,35,64,47,34",,,,,,,,,,
land,152,554548,0.0-48.0-2.0,"""event"",""trial"",""time""
""fullscreenenter"",""1"",""3810""
","
","
","""event"",""trial"",""time""
""fullscreenenter"",""1"",""3810""
","
",,null,run_exp/static/images/task_images/land.jpg,null,,,,,,,96,,,6,,,,,,,,,,,,,,
dig,153,556556,0.0-48.0-3.0,"""event"",""trial"",""time""
""fullscreenenter"",""1"",""3810""
","
","
","""event"",""trial"",""time""
""fullscreenenter"",""1"",""3810""
","
",,,,,,,,,,,,"[{""stimulus"":""run_exp/static/images/task_images/dig.jpg"",""time"":0.6999999999534339},{""stimulus"":""run_exp/static/images/task_images/land.jpg"",""time"":672},{""stimulus"":""run_exp/static/images/task_images/dig.jpg"",""time"":1340}]",[],6,,,,,,,,,,,,,,
harvest,154,557560,0.0-48.0-4.0,"""event"",""trial"",""time""
""fullscreenenter"",""1"",""3810""
","
","
","""event"",""trial"",""time""
""fullscreenenter"",""1"",""3810""
","
",,null,run_exp/static/images/task_images/gems/96.jpg,null,,,,,,,75,,,6,,,,,96,0.777935528,0.78125,,,,,,,
decision,155,557813,0.0-48.0-5.0,"""event"",""trial"",""time""
""fullscreenenter"",""1"",""3810""
","
","
","""event"",""trial"",""time""
""fullscreenenter"",""1"",""3810""
","
",,250.2,run_exp/static/images/task_images/land.jpg,65,,,,,,,75,,,6,,,,,,,,182873,1,0,FALSE,,,
dig,156,560576,0.0-49.0-0.0,"""event"",""trial"",""time""
""fullscreenenter"",""1"",""3810""
","
","
","""event"",""trial"",""time""
""fullscreenenter"",""1"",""3810""
","
",,,,,,,,,,,,"[{""stimulus"":""run_exp/static/images/task_images/dig.jpg"",""time"":0.5},{""stimulus"":""run_exp/static/images/task_images/land.jpg"",""time"":923.8999999999069},{""stimulus"":""run_exp/static/images/task_images/dig.jpg"",""time"":1838.3999999999069}]",[],6,,,,,,,,,,,,,,
harvest,157,561580,0.0-49.0-1.0,"""event"",""trial"",""time""
""fullscreenenter"",""1"",""3810""
","
","
","""event"",""trial"",""time""
""fullscreenenter"",""1"",""3810""
","
",,null,run_exp/static/images/task_images/gems/75.jpg,null,,,,,,,47,,,6,,,,,75,0.626068599,0.626666667,,,,,,,
decision,158,562001,0.0-49.0-2.0,"""event"",""trial"",""time""
""fullscreenenter"",""1"",""3810""
","
","
","""event"",""trial"",""time""
""fullscreenenter"",""1"",""3810""
","
",,418.7,run_exp/static/images/task_images/land.jpg,76,,,,,,,47,,,6,,,,,,,,187060,1,1,TRUE,,,
travel,159,571588,0.0-50.0-0.0,"""event"",""trial"",""time""
""fullscreenenter"",""1"",""3810""
","
","
","""event"",""trial"",""time""
""fullscreenenter"",""1"",""3810""
","
",,,,,,,,,,,,"[{""stimulus"":""run_exp/static/images/task_images/rocket-01.jpg"",""time"":0.5999999998603016},{""stimulus"":""run_exp/static/images/task_images/rocket-02.jpg"",""time"":1067.0999999998603},{""stimulus"":""run_exp/static/images/task_images/rocket-03.jpg"",""time"":2130.3000000000466},{""stimulus"":""run_exp/static/images/task_images/rocket-04.jpg"",""time"":3194.3000000000466},{""stimulus"":""run_exp/static/images/task_images/rocket-05.jpg"",""time"":4258.800000000047},{""stimulus"":""run_exp/static/images/task_images/rocket-06.jpg"",""time"":5322.199999999953},{""stimulus"":""run_exp/static/images/task_images/rocket-07.jpg"",""time"":6386.199999999953},{""stimulus"":""run_exp/static/images/task_images/rocket-08.jpg"",""time"":7450.199999999953},{""stimulus"":""run_exp/static/images/task_images/rocket-09.jpg"",""time"":8514.699999999953}]",[],6,,,,,,,,,,,,,,
alien_welcome,160,576592,0.0-50.0-1.0,"""event"",""trial"",""time""
""fullscreenenter"",""1"",""3810""
","
","
","""event"",""trial"",""time""
""fullscreenenter"",""1"",""3810""
","
",,null,run_exp/static/images/task_images/aliens/old_aliens/planet/alien_planet-43.jpg,null,,,,,,,,,,,,,43,"16,50,55,61,17,24,43,79,12,6,51,36,48,9,63,58,20,44,74,65,29,30,4,41,57,66,26,60,53,23,27,19,71,10,21,52,3,15,35,64,47,34",,,,,,,,,,
land,161,577096,0.0-50.0-2.0,"""event"",""trial"",""time""
""fullscreenenter"",""1"",""3810""
","
","
","""event"",""trial"",""time""
""fullscreenenter"",""1"",""3810""
","
",,null,run_exp/static/images/task_images/land.jpg,null,,,,,,,109,,,7,,,,,,,,,,,,,,
dig,162,579104,0.0-50.0-3.0,"""event"",""trial"",""time""
""fullscreenenter"",""1"",""3810""
","
","
","""event"",""trial"",""time""
""fullscreenenter"",""1"",""3810""
","
",,,,,,,,,,,,"[{""stimulus"":""run_exp/static/images/task_images/dig.jpg"",""time"":0.7999999998137355},{""stimulus"":""run_exp/static/images/task_images/land.jpg"",""time"":672.8999999999069},{""stimulus"":""run_exp/static/images/task_images/dig.jpg"",""time"":1347.5}]",[],7,,,,,,,,,,,,,,
harvest,163,580108,0.0-50.0-4.0,"""event"",""trial"",""time""
""fullscreenenter"",""1"",""3810""
","
","
","""event"",""trial"",""time""
""fullscreenenter"",""1"",""3810""
","
",,null,run_exp/static/images/task_images/gems/109.jpg,null,,,,,,,97,,,7,,,,,109,0.885661933,0.889908257,,,,,,,
decision,164,580310,0.0-50.0-5.0,"""event"",""trial"",""time""
""fullscreenenter"",""1"",""3810""
","
","
","""event"",""trial"",""time""
""fullscreenenter"",""1"",""3810""
","
",,199.6,run_exp/static/images/task_images/land.jpg,65,,,,,,,97,,,7,,,,,,,,205370,1,0,FALSE,,,
dig,165,583120,0.0-51.0-0.0,"""event"",""trial"",""time""
""fullscreenenter"",""1"",""3810""
","
","
","""event"",""trial"",""time""
""fullscreenenter"",""1"",""3810""
","
",,,,,,,,,,,,"[{""stimulus"":""run_exp/static/images/task_images/dig.jpg"",""time"":0.6000000000931323},{""stimulus"":""run_exp/static/images/task_images/land.jpg"",""time"":938.4000000001397},{""stimulus"":""run_exp/static/images/task_images/dig.jpg"",""time"":1870.4000000001397}]",[],7,,,,,,,,,,,,,,
harvest,166,584124,0.0-51.0-1.0,"""event"",""trial"",""time""
""fullscreenenter"",""1"",""3810""
","
","
","""event"",""trial"",""time""
""fullscreenenter"",""1"",""3810""
","
",,null,run_exp/static/images/task_images/gems/97.jpg,null,,,,,,,69,,,7,,,,,97,0.709269942,0.711340206,,,,,,,
decision,167,585036,0.0-51.0-2.0,"""event"",""trial"",""time""
""fullscreenenter"",""1"",""3810""
","
","
","""event"",""trial"",""time""
""fullscreenenter"",""1"",""3810""
","
",,908.6,run_exp/static/images/task_images/land.jpg,65,,,,,,,69,,,7,,,,,,,,210095,1,1,FALSE,,,
dig,168,587136,0.0-52.0-0.0,"""event"",""trial"",""time""
""fullscreenenter"",""1"",""3810""
","
","
","""event"",""trial"",""time""
""fullscreenenter"",""1"",""3810""
","
",,,,,,,,,,,,"[{""stimulus"":""run_exp/static/images/task_images/dig.jpg"",""time"":0.6000000000931323},{""stimulus"":""run_exp/static/images/task_images/land.jpg"",""time"":701.6000000000931},{""stimulus"":""run_exp/static/images/task_images/dig.jpg"",""time"":1397.6000000000931}]",[],7,,,,,,,,,,,,,,
harvest,169,588140,0.0-52.0-1.0,"""event"",""trial"",""time""
""fullscreenenter"",""1"",""3810""
","
","
","""event"",""trial"",""time""
""fullscreenenter"",""1"",""3810""
","
",,null,run_exp/static/images/task_images/gems/69.jpg,null,,,,,,,55,,,7,,,,,69,0.800076992,0.797101449,,,,,,,
decision,170,588495,0.0-52.0-2.0,"""event"",""trial"",""time""
""fullscreenenter"",""1"",""3810""
","
","
","""event"",""trial"",""time""
""fullscreenenter"",""1"",""3810""
","
",,351.7,run_exp/static/images/task_images/land.jpg,65,,,,,,,55,,,7,,,,,,,,213554,1,2,FALSE,,,
dig,171,591152,0.0-53.0-0.0,"""event"",""trial"",""time""
""fullscreenenter"",""1"",""3810""
","
","
","""event"",""trial"",""time""
""fullscreenenter"",""1"",""3810""
","
",,,,,,,,,,,,"[{""stimulus"":""run_exp/static/images/task_images/dig.jpg"",""time"":0.6000000000931323},{""stimulus"":""run_exp/static/images/task_images/land.jpg"",""time"":885.1000000000931},{""stimulus"":""run_exp/static/images/task_images/dig.jpg"",""time"":1768.7000000001863}]",[],7,,,,,,,,,,,,,,
harvest,172,592156,0.0-53.0-1.0,"""event"",""trial"",""time""
""fullscreenenter"",""1"",""3810""
","
","
","""event"",""trial"",""time""
""fullscreenenter"",""1"",""3810""
","
",,null,run_exp/static/images/task_images/gems/55.jpg,null,,,,,,,47,,,7,,,,,55,0.857690015,0.854545455,,,,,,,
decision,173,592377,0.0-53.0-2.0,"""event"",""trial"",""time""
""fullscreenenter"",""1"",""3810""
","
","
","""event"",""trial"",""time""
""fullscreenenter"",""1"",""3810""
","
",,218,run_exp/static/images/task_images/land.jpg,65,,,,,,,47,,,7,,,,,,,,217437,1,3,FALSE,,,
dig,174,595172,0.0-54.0-0.0,"""event"",""trial"",""time""
""fullscreenenter"",""1"",""3810""
","
","
","""event"",""trial"",""time""
""fullscreenenter"",""1"",""3810""
","
",,,,,,,,,,,,"[{""stimulus"":""run_exp/static/images/task_images/dig.jpg"",""time"":0.6999999999534339},{""stimulus"":""run_exp/static/images/task_images/land.jpg"",""time"":933.0999999998603},{""stimulus"":""run_exp/static/images/task_images/dig.jpg"",""time"":1858.0999999998603}]",[],7,,,,,,,,,,,,,,
harvest,175,596180,0.0-54.0-1.0,"""event"",""trial"",""time""
""fullscreenenter"",""1"",""3810""
","
","
","""event"",""trial"",""time""
""fullscreenenter"",""1"",""3810""
","
",,null,run_exp/static/images/task_images/gems/47.jpg,null,,,,,,,34,,,7,,,,,47,0.715908078,0.723404255,,,,,,,
decision,176,596952,0.0-54.0-2.0,"""event"",""trial"",""time""
""fullscreenenter"",""1"",""3810""
","
","
","""event"",""trial"",""time""
""fullscreenenter"",""1"",""3810""
","
",,769.4,run_exp/static/images/task_images/land.jpg,76,,,,,,,34,,,7,,,,,,,,222011,1,4,TRUE,,,
travel,177,606188,0.0-55.0-0.0,"""event"",""trial"",""time""
""fullscreenenter"",""1"",""3810""
","
","
","""event"",""trial"",""time""
""fullscreenenter"",""1"",""3810""
","
",,,,,,,,,,,,"[{""stimulus"":""run_exp/static/images/task_images/rocket-01.jpg"",""time"":0.5},{""stimulus"":""run_exp/static/images/task_images/rocket-02.jpg"",""time"":1027.5999999998603},{""stimulus"":""run_exp/static/images/task_images/rocket-03.jpg"",""time"":2056},{""stimulus"":""run_exp/static/images/task_images/rocket-04.jpg"",""time"":3079.899999999907},{""stimulus"":""run_exp/static/images/task_images/rocket-05.jpg"",""time"":4103.800000000047},{""stimulus"":""run_exp/static/images/task_images/rocket-06.jpg"",""time"":5131.699999999953},{""stimulus"":""run_exp/static/images/task_images/rocket-07.jpg"",""time"":6155.899999999907},{""stimulus"":""run_exp/static/images/task_images/rocket-08.jpg"",""time"":7179.699999999953},{""stimulus"":""run_exp/static/images/task_images/rocket-09.jpg"",""time"":8203.399999999907}]",[],7,,,,,,,,,,,,,,
alien_welcome,178,611192,0.0-55.0-1.0,"""event"",""trial"",""time""
""fullscreenenter"",""1"",""3810""
","
","
","""event"",""trial"",""time""
""fullscreenenter"",""1"",""3810""
","
",,null,run_exp/static/images/task_images/aliens/old_aliens/planet/alien_planet-79.jpg,null,,,,,,,,,,,,,79,"16,50,55,61,17,24,43,79,12,6,51,36,48,9,63,58,20,44,74,65,29,30,4,41,57,66,26,60,53,23,27,19,71,10,21,52,3,15,35,64,47,34",,,,,,,,,,
land,179,611697,0.0-55.0-2.0,"""event"",""trial"",""time""
""fullscreenenter"",""1"",""3810""
","
","
","""event"",""trial"",""time""
""fullscreenenter"",""1"",""3810""
","
",,null,run_exp/static/images/task_images/land.jpg,null,,,,,,,111,,,8,,,,,,,,,,,,,,
dig,180,613704,0.0-55.0-3.0,"""event"",""trial"",""time""
""fullscreenenter"",""1"",""3810""
","
","
","""event"",""trial"",""time""
""fullscreenenter"",""1"",""3810""
","
",,,,,,,,,,,,"[{""stimulus"":""run_exp/static/images/task_images/dig.jpg"",""time"":0.8000000000465661},{""stimulus"":""run_exp/static/images/task_images/land.jpg"",""time"":672.5},{""stimulus"":""run_exp/static/images/task_images/dig.jpg"",""time"":1340.2000000001863}]",[],8,,,,,,,,,,,,,,
harvest,181,614708,0.0-55.0-4.0,"""event"",""trial"",""time""
""fullscreenenter"",""1"",""3810""
","
","
","""event"",""trial"",""time""
""fullscreenenter"",""1"",""3810""
","
",,null,run_exp/static/images/task_images/gems/111.jpg,null,,,,,,,92,,,8,,,,,111,0.832810613,0.828828829,,,,,,,
decision,182,614979,0.0-55.0-5.0,"""event"",""trial"",""time""
""fullscreenenter"",""1"",""3810""
","
","
","""event"",""trial"",""time""
""fullscreenenter"",""1"",""3810""
","
",,268.1,run_exp/static/images/task_images/land.jpg,65,,,,,,,92,,,8,,,,,,,,240038,1,0,FALSE,,,
dig,183,617720,0.0-56.0-0.0,"""event"",""trial"",""time""
""fullscreenenter"",""1"",""3810""
","
","
","""event"",""trial"",""time""
""fullscreenenter"",""1"",""3810""
","
",,,,,,,,,,,,"[{""stimulus"":""run_exp/static/images/task_images/dig.jpg"",""time"":0.8000000000465661},{""stimulus"":""run_exp/static/images/task_images/land.jpg"",""time"":914.3000000000466},{""stimulus"":""run_exp/static/images/task_images/dig.jpg"",""time"":1825.8000000000466}]",[],8,,,,,,,,,,,,,,
harvest,184,618724,0.0-56.0-1.0,"""event"",""trial"",""time""
""fullscreenenter"",""1"",""3810""
","
","
","""event"",""trial"",""time""
""fullscreenenter"",""1"",""3810""
","
",,null,run_exp/static/images/task_images/gems/92.jpg,null,,,,,,,77,,,8,,,,,92,0.839379813,0.836956522,,,,,,,
decision,185,619037,0.0-56.0-2.0,"""event"",""trial"",""time""
""fullscreenenter"",""1"",""3810""
","
","
","""event"",""trial"",""time""
""fullscreenenter"",""1"",""3810""
","
",,309.8,run_exp/static/images/task_images/land.jpg,65,,,,,,,77,,,8,,,,,,,,244096,1,1,FALSE,,,
dig,186,621736,0.0-57.0-0.0,"""event"",""trial"",""time""
""fullscreenenter"",""1"",""3810""
","
","
","""event"",""trial"",""time""
""fullscreenenter"",""1"",""3810""
","
",,,,,,,,,,,,"[{""stimulus"":""run_exp/static/images/task_images/dig.jpg"",""time"":0.5},{""stimulus"":""run_exp/static/images/task_images/land.jpg"",""time"":900.0999999998603},{""stimulus"":""run_exp/static/images/task_images/dig.jpg"",""time"":1795.6999999999534}]",[],8,,,,,,,,,,,,,,
harvest,187,622740,0.0-57.0-1.0,"""event"",""trial"",""time""
""fullscreenenter"",""1"",""3810""
","
","
","""event"",""trial"",""time""
""fullscreenenter"",""1"",""3810""
","
",,null,run_exp/static/images/task_images/gems/77.jpg,null,,,,,,,60,,,8,,,,,77,0.78037479,0.779220779,,,,,,,
decision,188,622988,0.0-57.0-2.0,"""event"",""trial"",""time""
""fullscreenenter"",""1"",""3810""
","
","
","""event"",""trial"",""time""
""fullscreenenter"",""1"",""3810""
","
",,245.5,run_exp/static/images/task_images/land.jpg,65,,,,,,,60,,,8,,,,,,,,248047,1,2,FALSE,,,
dig,189,625752,0.0-58.0-0.0,"""event"",""trial"",""time""
""fullscreenenter"",""1"",""3810""
","
","
","""event"",""trial"",""time""
""fullscreenenter"",""1"",""3810""
","
",,,,,,,,,,,,"[{""stimulus"":""run_exp/static/images/task_images/dig.jpg"",""time"":0.5999999998603016},{""stimulus"":""run_exp/static/images/task_images/land.jpg"",""time"":921.0999999998603},{""stimulus"":""run_exp/static/images/task_images/dig.jpg"",""time"":1840.8999999999069}]",[],8,,,,,,,,,,,,,,
harvest,190,626756,0.0-58.0-1.0,"""event"",""trial"",""time""
""fullscreenenter"",""1"",""3810""
","
","
","""event"",""trial"",""time""
""fullscreenenter"",""1"",""3810""
","
",,null,run_exp/static/images/task_images/gems/60.jpg,null,,,,,,,51,,,8,,,,,60,0.842611102,0.85,,,,,,,
decision,191,627050,0.0-58.0-2.0,"""event"",""trial"",""time""
""fullscreenenter"",""1"",""3810""
","
","
","""event"",""trial"",""time""
""fullscreenenter"",""1"",""3810""
","
",,291.1,run_exp/static/images/task_images/land.jpg,65,,,,,,,51,,,8,,,,,,,,252109,1,3,FALSE,,,
dig,192,629768,0.0-59.0-0.0,"""event"",""trial"",""time""
""fullscreenenter"",""1"",""3810""
","
","
","""event"",""trial"",""time""
""fullscreenenter"",""1"",""3810""
","
",,,,,,,,,,,,"[{""stimulus"":""run_exp/static/images/task_images/dig.jpg"",""time"":1.1000000000931323},{""stimulus"":""run_exp/static/images/task_images/land.jpg"",""time"":907.6000000000931},{""stimulus"":""run_exp/static/images/task_images/dig.jpg"",""time"":1810.3000000000466}]",[],8,,,,,,,,,,,,,,
harvest,193,630773,0.0-59.0-1.0,"""event"",""trial"",""time""
""fullscreenenter"",""1"",""3810""
","
","
","""event"",""trial"",""time""
""fullscreenenter"",""1"",""3810""
","
",,null,run_exp/static/images/task_images/gems/51.jpg,null,,,,,,,41,,,8,,,,,51,0.80816114,0.803921569,,,,,,,
decision,194,630980,0.0-59.0-2.0,"""event"",""trial"",""time""
""fullscreenenter"",""1"",""3810""
","
","
","""event"",""trial"",""time""
""fullscreenenter"",""1"",""3810""
","
",,204.2,run_exp/static/images/task_images/land.jpg,76,,,,,,,41,,,8,,,,,,,,256039,1,4,TRUE,,,
travel,195,640784,0.0-60.0-0.0,"""event"",""trial"",""time""
""fullscreenenter"",""1"",""3810""
","
","
","""event"",""trial"",""time""
""fullscreenenter"",""1"",""3810""
","
",,,,,,,,,,,,"[{""stimulus"":""run_exp/static/images/task_images/rocket-01.jpg"",""time"":0.5999999998603016},{""stimulus"":""run_exp/static/images/task_images/rocket-02.jpg"",""time"":1091.5},{""stimulus"":""run_exp/static/images/task_images/rocket-03.jpg"",""time"":2180.5999999998603},{""stimulus"":""run_exp/static/images/task_images/rocket-04.jpg"",""time"":3270.2999999998137},{""stimulus"":""run_exp/static/images/task_images/rocket-05.jpg"",""time"":4355.5},{""stimulus"":""run_exp/static/images/task_images/rocket-06.jpg"",""time"":5443.899999999907},{""stimulus"":""run_exp/static/images/task_images/rocket-07.jpg"",""time"":6531.899999999907},{""stimulus"":""run_exp/static/images/task_images/rocket-08.jpg"",""time"":7619.5},{""stimulus"":""run_exp/static/images/task_images/rocket-09.jpg"",""time"":8707.799999999814}]",[],8,,,,,,,,,,,,,,
alien_welcome,196,645789,0.0-60.0-1.0,"""event"",""trial"",""time""
""fullscreenenter"",""1"",""3810""
","
","
","""event"",""trial"",""time""
""fullscreenenter"",""1"",""3810""
","
",,null,run_exp/static/images/task_images/aliens/old_aliens/planet/alien_planet-12.jpg,null,,,,,,,,,,,,,12,"16,50,55,61,17,24,43,79,12,6,51,36,48,9,63,58,20,44,74,65,29,30,4,41,57,66,26,60,53,23,27,19,71,10,21,52,3,15,35,64,47,34",,,,,,,,,,
land,197,646292,0.0-60.0-2.0,"""event"",""trial"",""time""
""fullscreenenter"",""1"",""3810""
","
","
","""event"",""trial"",""time""
""fullscreenenter"",""1"",""3810""
","
",,null,run_exp/static/images/task_images/land.jpg,null,,,,,,,91,,,9,,,,,,,,,,,,,,
dig,198,648300,0.0-60.0-3.0,"""event"",""trial"",""time""
""fullscreenenter"",""1"",""3810""
","
","
","""event"",""trial"",""time""
""fullscreenenter"",""1"",""3810""
","
",,,,,,,,,,,,"[{""stimulus"":""run_exp/static/images/task_images/dig.jpg"",""time"":0.6999999999534339},{""stimulus"":""run_exp/static/images/task_images/land.jpg"",""time"":672.4000000001397},{""stimulus"":""run_exp/static/images/task_images/dig.jpg"",""time"":1337}]",[],9,,,,,,,,,,,,,,
harvest,199,649304,0.0-60.0-4.0,"""event"",""trial"",""time""
""fullscreenenter"",""1"",""3810""
","
","
","""event"",""trial"",""time""
""fullscreenenter"",""1"",""3810""
","
",,null,run_exp/static/images/task_images/gems/91.jpg,null,,,,,,,16,,,9,,,,,91,0.172642242,0.175824176,,,,,,,
decision,200,649636,0.0-60.0-5.0,"""event"",""trial"",""time""
""fullscreenenter"",""1"",""3810""
","
","
","""event"",""trial"",""time""
""fullscreenenter"",""1"",""3810""
","
",,328.1,run_exp/static/images/task_images/land.jpg,65,,,,,,,16,,,9,,,,,,,,274696,1,0,FALSE,,,
dig,201,652320,0.0-61.0-0.0,"""event"",""trial"",""time""
""fullscreenenter"",""1"",""3810""
","
","
","""event"",""trial"",""time""
""fullscreenenter"",""1"",""3810""
","
",,,,,,,,,,,,"[{""stimulus"":""run_exp/static/images/task_images/dig.jpg"",""time"":0.5},{""stimulus"":""run_exp/static/images/task_images/land.jpg"",""time"":892.8999999999069},{""stimulus"":""run_exp/static/images/task_images/dig.jpg"",""time"":1784.1000000000931}]",[],9,,,,,,,,,,,,,,
harvest,202,653324,0.0-61.0-1.0,"""event"",""trial"",""time""
""fullscreenenter"",""1"",""3810""
","
","
","""event"",""trial"",""time""
""fullscreenenter"",""1"",""3810""
","
",,null,run_exp/static/images/task_images/gems/16.jpg,null,,,,,,,3,,,9,,,,,16,0.18469564,0.1875,,,,,,,
decision,203,653505,0.0-61.0-2.0,"""event"",""trial"",""time""
""fullscreenenter"",""1"",""3810""
","
","
","""event"",""trial"",""time""
""fullscreenenter"",""1"",""3810""
","
",,177.9,run_exp/static/images/task_images/land.jpg,65,,,,,,,3,,,9,,,,,,,,278564,1,1,FALSE,,,
dig,204,656340,0.0-62.0-0.0,"""event"",""trial"",""time""
""fullscreenenter"",""1"",""3810""
","
","
","""event"",""trial"",""time""
""fullscreenenter"",""1"",""3810""
","
",,,,,,,,,,,,"[{""stimulus"":""run_exp/static/images/task_images/dig.jpg"",""time"":0.5},{""stimulus"":""run_exp/static/images/task_images/land.jpg"",""time"":946},{""stimulus"":""run_exp/static/images/task_images/dig.jpg"",""time"":1882.5}]",[],9,,,,,,,,,,,,,,
harvest,205,657344,0.0-62.0-1.0,"""event"",""trial"",""time""
""fullscreenenter"",""1"",""3810""
","
","
","""event"",""trial"",""time""
""fullscreenenter"",""1"",""3810""
","
",,null,run_exp/static/images/task_images/gems/3.jpg,null,,,,,,,0,,,9,,,,,3,0.145318335,0,,,,,,,
decision,206,658594,0.0-62.0-2.0,"""event"",""trial"",""time""
""fullscreenenter"",""1"",""3810""
","
","
","""event"",""trial"",""time""
""fullscreenenter"",""1"",""3810""
","
",,1246.5,run_exp/static/images/task_images/land.jpg,76,,,,,,,0,,,9,,,,,,,,283653,1,2,TRUE,,,
travel,207,667352,0.0-63.0-0.0,"""event"",""trial"",""time""
""fullscreenenter"",""1"",""3810""
","
","
","""event"",""trial"",""time""
""fullscreenenter"",""1"",""3810""
","
",,,,,,,,,,,,"[{""stimulus"":""run_exp/static/images/task_images/rocket-01.jpg"",""time"":0.6000000000931323},{""stimulus"":""run_exp/static/images/task_images/rocket-02.jpg"",""time"":974.1000000000931},{""stimulus"":""run_exp/static/images/task_images/rocket-03.jpg"",""time"":1946.3999999999069},{""stimulus"":""run_exp/static/images/task_images/rocket-04.jpg"",""time"":2918.6999999999534},{""stimulus"":""run_exp/static/images/task_images/rocket-05.jpg"",""time"":3894.600000000093},{""stimulus"":""run_exp/static/images/task_images/rocket-06.jpg"",""time"":4866.699999999953},{""stimulus"":""run_exp/static/images/task_images/rocket-07.jpg"",""time"":5838.5},{""stimulus"":""run_exp/static/images/task_images/rocket-08.jpg"",""time"":6806.800000000047},{""stimulus"":""run_exp/static/images/task_images/rocket-09.jpg"",""time"":7778.600000000093}]",[],9,,,,,,,,,,,,,,
alien_welcome,208,672356,0.0-63.0-1.0,"""event"",""trial"",""time""
""fullscreenenter"",""1"",""3810""
","
","
","""event"",""trial"",""time""
""fullscreenenter"",""1"",""3810""
","
",,null,run_exp/static/images/task_images/aliens/old_aliens/planet/alien_planet-6.jpg,null,,,,,,,,,,,,,6,"16,50,55,61,17,24,43,79,12,6,51,36,48,9,63,58,20,44,74,65,29,30,4,41,57,66,26,60,53,23,27,19,71,10,21,52,3,15,35,64,47,34",,,,,,,,,,
land,209,672860,0.0-63.0-2.0,"""event"",""trial"",""time""
""fullscreenenter"",""1"",""3810""
","
","
","""event"",""trial"",""time""
""fullscreenenter"",""1"",""3810""
","
",,null,run_exp/static/images/task_images/land.jpg,null,,,,,,,98,,,10,,,,,,,,,,,,,,
dig,210,674868,0.0-63.0-3.0,"""event"",""trial"",""time""
""fullscreenenter"",""1"",""3810""
","
","
","""event"",""trial"",""time""
""fullscreenenter"",""1"",""3810""
","
",,,,,,,,,,,,"[{""stimulus"":""run_exp/static/images/task_images/dig.jpg"",""time"":0.6999999999534339},{""stimulus"":""run_exp/static/images/task_images/land.jpg"",""time"":672.3999999999069},{""stimulus"":""run_exp/static/images/task_images/dig.jpg"",""time"":1340.7999999998137}]",[],10,,,,,,,,,,,,,,
harvest,211,675872,0.0-63.0-4.0,"""event"",""trial"",""time""
""fullscreenenter"",""1"",""3810""
","
","
","""event"",""trial"",""time""
""fullscreenenter"",""1"",""3810""
","
",,null,run_exp/static/images/task_images/gems/98.jpg,null,,,,,,,18,,,10,,,,,98,0.183333002,0.183673469,,,,,,,
decision,212,676293,0.0-63.0-5.0,"""event"",""trial"",""time""
""fullscreenenter"",""1"",""3810""
","
","
","""event"",""trial"",""time""
""fullscreenenter"",""1"",""3810""
","
",,417.6,run_exp/static/images/task_images/land.jpg,65,,,,,,,18,,,10,,,,,,,,301352,1,0,TRUE,,,
end_of_block_continue,213,685293,0.0-64.0-0.0,"""event"",""trial"",""time""
""fullscreenenter"",""1"",""3810""
","
","
","""event"",""trial"",""time""
""fullscreenenter"",""1"",""3810""
","
",,null,run_exp/static/audio/clip_32_block_end.m4a,,,,,,,null,,,,,,,,,,,,,,,,,,
alien_welcome,214,690308,0.0-65.0-0.0,"""event"",""trial"",""time""
""fullscreenenter"",""1"",""3810""
","
","
","""event"",""trial"",""time""
""fullscreenenter"",""1"",""3810""
","
",,null,run_exp/static/images/task_images/aliens/old_aliens/planet/alien_planet-51.jpg,null,,,,,,,,,,,,,51,"16,50,55,61,17,24,43,79,12,6,51,36,48,9,63,58,20,44,74,65,29,30,4,41,57,66,26,60,53,23,27,19,71,10,21,52,3,15,35,64,47,34",,,,,,,,,,
land,215,690821,0.0-65.0-1.0,"""event"",""trial"",""time""
""fullscreenenter"",""1"",""3810""
","
","
","""event"",""trial"",""time""
""fullscreenenter"",""1"",""3810""
","
",,null,run_exp/static/images/task_images/land.jpg,null,,,,,,,100,,,11,,,,,,,,,,,,,,
dig,216,692829,0.0-65.0-2.0,"""event"",""trial"",""time""
""fullscreenenter"",""1"",""3810""
","
","
","""event"",""trial"",""time""
""fullscreenenter"",""1"",""3810""
","
",,,,,,,,,,,,"[{""stimulus"":""run_exp/static/images/task_images/dig.jpg"",""time"":0.5},{""stimulus"":""run_exp/static/images/task_images/land.jpg"",""time"":672.2000000001863},{""stimulus"":""run_exp/static/images/task_images/dig.jpg"",""time"":1336.2000000001863}]",[],11,,,,,,,,,,,,,,
harvest,217,693833,0.0-65.0-3.0,"""event"",""trial"",""time""
""fullscreenenter"",""1"",""3810""
","
","
","""event"",""trial"",""time""
""fullscreenenter"",""1"",""3810""
","
",,null,run_exp/static/images/task_images/gems/100.jpg,null,,,,,,,16,,,11,,,,,100,0.15944122,0.16,,,,,,,
decision,218,694042,0.0-65.0-4.0,"""event"",""trial"",""time""
""fullscreenenter"",""1"",""3810""
","
","
","""event"",""trial"",""time""
""fullscreenenter"",""1"",""3810""
","
",,205.9,run_exp/static/images/task_images/land.jpg,65,,,,,,,16,,,11,,,,,,,,8737,2,0,FALSE,,,
dig,219,696848,0.0-66.0-0.0,"""event"",""trial"",""time""
""fullscreenenter"",""1"",""3810""
","
","
","""event"",""trial"",""time""
""fullscreenenter"",""1"",""3810""
","
",,,,,,,,,,,,"[{""stimulus"":""run_exp/static/images/task_images/dig.jpg"",""time"":0.6000000000931323},{""stimulus"":""run_exp/static/images/task_images/land.jpg"",""time"":934.8000000000466},{""stimulus"":""run_exp/static/images/task_images/dig.jpg"",""time"":1867.4000000001397}]",[],11,,,,,,,,,,,,,,
harvest,220,697857,0.0-66.0-1.0,"""event"",""trial"",""time""
""fullscreenenter"",""1"",""3810""
","
","
","""event"",""trial"",""time""
""fullscreenenter"",""1"",""3810""
","
",,null,run_exp/static/images/task_images/gems/16.jpg,null,,,,,,,2,,,11,,,,,16,0.117043096,0.125,,,,,,,
decision,221,700073,0.0-66.0-2.0,"""event"",""trial"",""time""
""fullscreenenter"",""1"",""3810""
","
","
","""event"",""trial"",""time""
""fullscreenenter"",""1"",""3810""
","
",,2210.4,run_exp/static/images/task_images/land.jpg,76,,,,,,,2,,,11,,,,,,,,14768,2,1,TRUE,,,
travel,222,707868,0.0-67.0-0.0,"""event"",""trial"",""time""
""fullscreenenter"",""1"",""3810""
","
","
","""event"",""trial"",""time""
""fullscreenenter"",""1"",""3810""
","
",,,,,,,,,,,,"[{""stimulus"":""run_exp/static/images/task_images/rocket-01.jpg"",""time"":0.5},{""stimulus"":""run_exp/static/images/task_images/rocket-02.jpg"",""time"":867.6000000000931},{""stimulus"":""run_exp/static/images/task_images/rocket-03.jpg"",""time"":1736},{""stimulus"":""run_exp/static/images/task_images/rocket-04.jpg"",""time"":2600.100000000093},{""stimulus"":""run_exp/static/images/task_images/rocket-05.jpg"",""time"":3464.3000000000466},{""stimulus"":""run_exp/static/images/task_images/rocket-06.jpg"",""time"":4327.699999999953},{""stimulus"":""run_exp/static/images/task_images/rocket-07.jpg"",""time"":5195.600000000093},{""stimulus"":""run_exp/static/images/task_images/rocket-08.jpg"",""time"":6060.5},{""stimulus"":""run_exp/static/images/task_images/rocket-09.jpg"",""time"":6923.699999999953}]",[],11,,,,,,,,,,,,,,
alien_welcome,223,712873,0.0-67.0-1.0,"""event"",""trial"",""time""
""fullscreenenter"",""1"",""3810""
","
","
","""event"",""trial"",""time""
""fullscreenenter"",""1"",""3810""
","
",,null,run_exp/static/images/task_images/aliens/old_aliens/planet/alien_planet-36.jpg,null,,,,,,,,,,,,,36,"16,50,55,61,17,24,43,79,12,6,51,36,48,9,63,58,20,44,74,65,29,30,4,41,57,66,26,60,53,23,27,19,71,10,21,52,3,15,35,64,47,34",,,,,,,,,,
land,224,713376,0.0-67.0-2.0,"""event"",""trial"",""time""
""fullscreenenter"",""1"",""3810""
","
","
","""event"",""trial"",""time""
""fullscreenenter"",""1"",""3810""
","
",,null,run_exp/static/images/task_images/land.jpg,null,,,,,,,99,,,12,,,,,,,,,,,,,,
dig,225,715385,0.0-67.0-3.0,"""event"",""trial"",""time""
""fullscreenenter"",""1"",""3810""
","
","
","""event"",""trial"",""time""
""fullscreenenter"",""1"",""3810""
","
",,,,,,,,,,,,"[{""stimulus"":""run_exp/static/images/task_images/dig.jpg"",""time"":0.8000000000465661},{""stimulus"":""run_exp/static/images/task_images/land.jpg"",""time"":672.1999999999534},{""stimulus"":""run_exp/static/images/task_images/dig.jpg"",""time"":1340.6000000000931}]",[],12,,,,,,,,,,,,,,
harvest,226,716388,0.0-67.0-4.0,"""event"",""trial"",""time""
""fullscreenenter"",""1"",""3810""
","
","
","""event"",""trial"",""time""
""fullscreenenter"",""1"",""3810""
","
",,null,run_exp/static/images/task_images/gems/99.jpg,null,,,,,,,21,,,12,,,,,99,0.208803447,0.212121212,,,,,,,
decision,227,716698,0.0-67.0-5.0,"""event"",""trial"",""time""
""fullscreenenter"",""1"",""3810""
","
","
","""event"",""trial"",""time""
""fullscreenenter"",""1"",""3810""
","
",,306.5,run_exp/static/images/task_images/land.jpg,65,,,,,,,21,,,12,,,,,,,,31394,2,0,FALSE,,,
dig,228,719404,0.0-68.0-0.0,"""event"",""trial"",""time""
""fullscreenenter"",""1"",""3810""
","
","
","""event"",""trial"",""time""
""fullscreenenter"",""1"",""3810""
","
",,,,,,,,,,,,"[{""stimulus"":""run_exp/static/images/task_images/dig.jpg"",""time"":0.6000000000931323},{""stimulus"":""run_exp/static/images/task_images/land.jpg"",""time"":900.5},{""stimulus"":""run_exp/static/images/task_images/dig.jpg"",""time"":1796.6000000000931}]",[],12,,,,,,,,,,,,,,
harvest,229,720408,0.0-68.0-1.0,"""event"",""trial"",""time""
""fullscreenenter"",""1"",""3810""
","
","
","""event"",""trial"",""time""
""fullscreenenter"",""1"",""3810""
","
",,null,run_exp/static/images/task_images/gems/21.jpg,null,,,,,,,4,,,12,,,,,21,0.192548752,0.19047619,,,,,,,
decision,230,720652,0.0-68.0-2.0,"""event"",""trial"",""time""
""fullscreenenter"",""1"",""3810""
","
","
","""event"",""trial"",""time""
""fullscreenenter"",""1"",""3810""
","
",,240.5,run_exp/static/images/task_images/land.jpg,65,,,,,,,4,,,12,,,,,,,,35347,2,1,FALSE,,,
dig,231,723424,0.0-69.0-0.0,"""event"",""trial"",""time""
""fullscreenenter"",""1"",""3810""
","
","
","""event"",""trial"",""time""
""fullscreenenter"",""1"",""3810""
","
",,,,,,,,,,,,"[{""stimulus"":""run_exp/static/images/task_images/dig.jpg"",""time"":0.6999999999534339},{""stimulus"":""run_exp/static/images/task_images/land.jpg"",""time"":922.4000000001397},{""stimulus"":""run_exp/static/images/task_images/dig.jpg"",""time"":1843.1000000000931}]",[],12,,,,,,,,,,,,,,
harvest,232,724429,0.0-69.0-1.0,"""event"",""trial"",""time""
""fullscreenenter"",""1"",""3810""
","
","
","""event"",""trial"",""time""
""fullscreenenter"",""1"",""3810""
","
",,null,run_exp/static/images/task_images/gems/4.jpg,null,,,,,,,1,,,12,,,,,4,0.188755742,0.25,,,,,,,
decision,233,724491,0.0-69.0-2.0,"""event"",""trial"",""time""
""fullscreenenter"",""1"",""3810""
","
","
","""event"",""trial"",""time""
""fullscreenenter"",""1"",""3810""
","
",,58.6,run_exp/static/images/task_images/land.jpg,76,,,,,,,1,,,12,,,,,,,,39186,2,2,TRUE,,,
travel,234,734448,0.0-70.0-0.0,"""event"",""trial"",""time""
""fullscreenenter"",""1"",""3810""
","
","
","""event"",""trial"",""time""
""fullscreenenter"",""1"",""3810""
","
",,,,,,,,,,,,"[{""stimulus"":""run_exp/static/images/task_images/rocket-01.jpg"",""time"":1},{""stimulus"":""run_exp/static/images/task_images/rocket-02.jpg"",""time"":1109.5},{""stimulus"":""run_exp/static/images/task_images/rocket-03.jpg"",""time"":2212.7000000001863},{""stimulus"":""run_exp/static/images/task_images/rocket-04.jpg"",""time"":3317.3000000000466},{""stimulus"":""run_exp/static/images/task_images/rocket-05.jpg"",""time"":4420.700000000186},{""stimulus"":""run_exp/static/images/task_images/rocket-06.jpg"",""time"":5524.600000000093},{""stimulus"":""run_exp/static/images/task_images/rocket-07.jpg"",""time"":6629.5},{""stimulus"":""run_exp/static/images/task_images/rocket-08.jpg"",""time"":7733.100000000093},{""stimulus"":""run_exp/static/images/task_images/rocket-09.jpg"",""time"":8837.40000000014}]",[],12,,,,,,,,,,,,,,
alien_welcome,235,739453,0.0-70.0-1.0,"""event"",""trial"",""time""
""fullscreenenter"",""1"",""3810""
","
","
","""event"",""trial"",""time""
""fullscreenenter"",""1"",""3810""
","
",,null,run_exp/static/images/task_images/aliens/old_aliens/planet/alien_planet-48.jpg,null,,,,,,,,,,,,,48,"16,50,55,61,17,24,43,79,12,6,51,36,48,9,63,58,20,44,74,65,29,30,4,41,57,66,26,60,53,23,27,19,71,10,21,52,3,15,35,64,47,34",,,,,,,,,,
land,236,739956,0.0-70.0-2.0,"""event"",""trial"",""time""
""fullscreenenter"",""1"",""3810""
","
","
","""event"",""trial"",""time""
""fullscreenenter"",""1"",""3810""
","
",,null,run_exp/static/images/task_images/land.jpg,null,,,,,,,95,,,13,,,,,,,,,,,,,,
dig,237,741965,0.0-70.0-3.0,"""event"",""trial"",""time""
""fullscreenenter"",""1"",""3810""
","
","
","""event"",""trial"",""time""
""fullscreenenter"",""1"",""3810""
","
",,,,,,,,,,,,"[{""stimulus"":""run_exp/static/images/task_images/dig.jpg"",""time"":0.6999999999534339},{""stimulus"":""run_exp/static/images/task_images/land.jpg"",""time"":673},{""stimulus"":""run_exp/static/images/task_images/dig.jpg"",""time"":1340.6999999999534}]",[],13,,,,,,,,,,,,,,
harvest,238,742968,0.0-70.0-4.0,"""event"",""trial"",""time""
""fullscreenenter"",""1"",""3810""
","
","
","""event"",""trial"",""time""
""fullscreenenter"",""1"",""3810""
","
",,null,run_exp/static/images/task_images/gems/95.jpg,null,,,,,,,16,,,13,,,,,95,0.168796757,0.168421053,,,,,,,
decision,239,743247,0.0-70.0-5.0,"""event"",""trial"",""time""
""fullscreenenter"",""1"",""3810""
","
","
","""event"",""trial"",""time""
""fullscreenenter"",""1"",""3810""
","
",,275.7,run_exp/static/images/task_images/land.jpg,65,,,,,,,16,,,13,,,,,,,,57942,2,0,FALSE,,,
dig,240,745984,0.0-71.0-0.0,"""event"",""trial"",""time""
""fullscreenenter"",""1"",""3810""
","
","
","""event"",""trial"",""time""
""fullscreenenter"",""1"",""3810""
","
",,,,,,,,,,,,"[{""stimulus"":""run_exp/static/images/task_images/dig.jpg"",""time"":0.5999999998603016},{""stimulus"":""run_exp/static/images/task_images/land.jpg"",""time"":913},{""stimulus"":""run_exp/static/images/task_images/dig.jpg"",""time"":1821.5999999998603}]",[],13,,,,,,,,,,,,,,
harvest,241,746988,0.0-71.0-1.0,"""event"",""trial"",""time""
""fullscreenenter"",""1"",""3810""
","
","
","""event"",""trial"",""time""
""fullscreenenter"",""1"",""3810""
","
",,null,run_exp/static/images/task_images/gems/16.jpg,null,,,,,,,3,,,13,,,,,16,0.191116702,0.1875,,,,,,,
decision,242,747285,0.0-71.0-2.0,"""event"",""trial"",""time""
""fullscreenenter"",""1"",""3810""
","
","
","""event"",""trial"",""time""
""fullscreenenter"",""1"",""3810""
","
",,293.8,run_exp/static/images/task_images/land.jpg,65,,,,,,,3,,,13,,,,,,,,61981,2,1,FALSE,,,
dig,243,750008,0.0-72.0-0.0,"""event"",""trial"",""time""
""fullscreenenter"",""1"",""3810""
","
","
","""event"",""trial"",""time""
""fullscreenenter"",""1"",""3810""
","
",,,,,,,,,,,,"[{""stimulus"":""run_exp/static/images/task_images/dig.jpg"",""time"":0.5999999998603016},{""stimulus"":""run_exp/static/images/task_images/land.jpg"",""time"":908.8000000000466},{""stimulus"":""run_exp/static/images/task_images/dig.jpg"",""time"":1808.8000000000466}]",[],13,,,,,,,,,,,,,,
harvest,244,751012,0.0-72.0-1.0,"""event"",""trial"",""time""
""fullscreenenter"",""1"",""3810""
","
","
","""event"",""trial"",""time""
""fullscreenenter"",""1"",""3810""
","
",,null,run_exp/static/images/task_images/gems/3.jpg,null,,,,,,,1,,,13,,,,,3,0.215646768,0.333333333,,,,,,,
decision,245,751316,0.0-72.0-2.0,"""event"",""trial"",""time""
""fullscreenenter"",""1"",""3810""
","
","
","""event"",""trial"",""time""
