trial_type,trial_index,time_elapsed,internal_node_id,interactions,blur_events,focus_events,fullscreenenter_events,fullscreenexit_events,success,rt,stimulus,key_press,prompt,subject_id,participant_id,age,gender,button_pressed,next_reward,animation_sequence,responses,planet,curr_prac_trial,n_prac_rounds,alien,aliens,reward_received,decay_rate_actual,decay_rate_exp,time_in_block,block_num,prt,last_trial_on_planet,button_html,bonus,num_failures
pavlovia,0,20,0.0-0.0,"""event"",""trial"",""time""
""focus"",""0"",""0""
""fullscreenenter"",""1"",""7772""
","
","""event"",""trial"",""time""
""focus"",""0"",""0""
","""event"",""trial"",""time""
""fullscreenenter"",""1"",""7772""
","
",,,,,,,,,,,,,,,,,,,,,,,,,,,,
fullscreen,1,8511,0.0-1.0,"""event"",""trial"",""time""
""focus"",""0"",""0""
""fullscreenenter"",""1"",""7772""
","
","""event"",""trial"",""time""
""focus"",""0"",""0""
","""event"",""trial"",""time""
""fullscreenenter"",""1"",""7772""
","
",TRUE,,,,,,,,,,,,,,,,,,,,,,,,,,,
instruc_welcome,2,18338,0.0-2.0,"""event"",""trial"",""time""
""focus"",""0"",""0""
""fullscreenenter"",""1"",""7772""
","
","""event"",""trial"",""time""
""focus"",""0"",""0""
","""event"",""trial"",""time""
""fullscreenenter"",""1"",""7772""
","
",,null,run_exp/static/audio/clip_1_welcome.m4a,null,"<p>Howdy! In this experiment, you’ll be an explorer traveling through space to collect space treasure.</p><p>Your mission is to collect as much treasure as possible.</p><br><br><p><img src='run_exp/static/images/task_images/opening_img-01.jpg' height='300' width='auto'></p>",12490,2337,9.21,Male,,,,,,,,,,,,,,,,,,,
audio-keyboard-response,3,35004,0.0-3.0,"""event"",""trial"",""time""
""focus"",""0"",""0""
""fullscreenenter"",""1"",""7772""
","
","""event"",""trial"",""time""
""focus"",""0"",""0""
","""event"",""trial"",""time""
""fullscreenenter"",""1"",""7772""
","
",,null,run_exp/static/audio/clip_2_move.m4a,null,,,,,,,,,,,,,,,,,,,,,,,,
welcome_dec,4,40142,0.0-4.0,"""event"",""trial"",""time""
""focus"",""0"",""0""
""fullscreenenter"",""1"",""7772""
","
","""event"",""trial"",""time""
""focus"",""0"",""0""
","""event"",""trial"",""time""
""fullscreenenter"",""1"",""7772""
","
",,5135,"<p>Howdy! In this experiment, you’ll be an explorer traveling through space to collect space treasure.</p><p>Your mission is to collect as much treasure as possible.</p><br><br><p><img src='run_exp/static/images/task_images/opening_img-01.jpg' height='300' width='auto'></p>",,,,,,,1,,,,,,,,,,,,,,,,,,
html-keyboard-response,5,42826,0.0-5.0,"""event"",""trial"",""time""
""focus"",""0"",""0""
""fullscreenenter"",""1"",""7772""
","
","""event"",""trial"",""time""
""focus"",""0"",""0""
","""event"",""trial"",""time""
""fullscreenenter"",""1"",""7772""
","
",,2682,"<p>Howdy! In this experiment, you’ll be an explorer traveling through space to collect space treasure.</p><p>Your mission is to collect as much treasure as possible.</p><br><br><p><img src='run_exp/static/images/task_images/opening_img-01.jpg' height='300' width='auto'></p><button class=""jspsych-html-btn-unchosen""><img src=""run_exp/static/images/task_images/planet-01.jpg"" height=""50""></button><button class=""jspsych-html-btn-chosen""><img src=""run_exp/static/images/task_images/planet-02.jpg"" height=""50""></button><p><b>[press the space bar to lock in your answer]<b><br></p>",32,,,,,,,,,,,,,,,,,,,,,,,,
instruc_goal,6,52948,0.0-6.0-0.0,"""event"",""trial"",""time""
""focus"",""0"",""0""
""fullscreenenter"",""1"",""7772""
","
","""event"",""trial"",""time""
""focus"",""0"",""0""
","""event"",""trial"",""time""
""fullscreenenter"",""1"",""7772""
","
",,null,run_exp/static/audio/clip_3_goal.m4a,null,"<p> As a space explorer, you’ll visit different planets to dig for space treasure, these pink gems.</p> <p> The more treasure you dig up, the more bonus money you’ll win! </p><br><br><p><img src='run_exp/static/images/task_images/pink_gem.jpg' height='300' width='auto'></p>",,,,,,,,,,,,,,,,,,,,,,,
instruc_goal,7,55137,0.0-6.0-1.0,"""event"",""trial"",""time""
""focus"",""0"",""0""
""fullscreenenter"",""1"",""7772""
","
","""event"",""trial"",""time""
""focus"",""0"",""0""
","""event"",""trial"",""time""
""fullscreenenter"",""1"",""7772""
","
",,2187,"<p> As a space explorer, you’ll visit different planets to dig for space treasure, these pink gems.</p> <p> The more treasure you dig up, the more bonus money you’ll win! </p><br><br><p><img src='run_exp/static/images/task_images/pink_gem.jpg' height='300' width='auto'></p>",,,,,,,1,,,,,,,,,,,,,,,,,,
html-keyboard-response,8,55417,0.0-6.0-2.0,"""event"",""trial"",""time""
""focus"",""0"",""0""
""fullscreenenter"",""1"",""7772""
""blur"",""9"",""70381""
","""event"",""trial"",""time""
""blur"",""9"",""70381""
","""event"",""trial"",""time""
""focus"",""0"",""0""
","""event"",""trial"",""time""
""fullscreenenter"",""1"",""7772""
","
",,277,"<p> As a space explorer, you’ll visit different planets to dig for space treasure, these pink gems.</p> <p> The more treasure you dig up, the more bonus money you’ll win! </p><br><br><p><img src='run_exp/static/images/task_images/pink_gem.jpg' height='300' width='auto'></p><button class=""jspsych-html-btn-unchosen""><img src=""run_exp/static/images/task_images/planet-01.jpg"" height=""50""></button><button class=""jspsych-html-btn-chosen""><img src=""run_exp/static/images/task_images/planet-02.jpg"" height=""50""></button><p><b>[press the space bar to lock in your answer]<b><br></p>",32,,,,,,,,,,,,,,,,,,,,,,,,
instruc_dig,9,71485,0.0-7.0-0.0,"""event"",""trial"",""time""
""focus"",""0"",""0""
""fullscreenenter"",""1"",""7772""
""blur"",""9"",""70381""
""focus"",""10"",""72352""
","""event"",""trial"",""time""
""blur"",""9"",""70381""
","""event"",""trial"",""time""
""focus"",""0"",""0""
""focus"",""10"",""72352""
","""event"",""trial"",""time""
""fullscreenenter"",""1"",""7772""
","
",,null,run_exp/static/audio/clip_4_dig.m4a,null,,,,,,,100,,,,,,,,,,,,,,,,,
instruc_dig_try,10,72769,0.0-7.0-1.0,"""event"",""trial"",""time""
""focus"",""0"",""0""
""fullscreenenter"",""1"",""7772""
""blur"",""9"",""70381""
""focus"",""10"",""72352""
","""event"",""trial"",""time""
""blur"",""9"",""70381""
","""event"",""trial"",""time""
""focus"",""0"",""0""
""focus"",""10"",""72352""
","""event"",""trial"",""time""
""fullscreenenter"",""1"",""7772""
","
",,1283,"<p> When you’ve arrived at a new planet, you will dig once. </p> <p>Then, you get to decide if you want to stay on the planet and dig again or travel to a new planet and dig there.</p> <p> To stay and dig, press the letter <strong>‘A’</strong> on your keyboard. Try pressing it now! </p><p><img src='run_exp/static/images/task_images/land.jpg'  height='700' width='auto'></p>",65,"<p> When you’ve arrived at a new planet, you will dig once. </p> <p>Then, you get to decide if you want to stay on the planet and dig again or travel to a new planet and dig there.</p> <p> To stay and dig, press the letter <strong>‘A’</strong> on your keyboard. Try pressing it now! </p><p><img src='run_exp/static/images/task_images/land.jpg'  height='700' width='auto'></p>",,,,,,100,,,,,,,,,,,,,,,,,
dig_prac,11,74881,0.0-7.0-2.0,"""event"",""trial"",""time""
""focus"",""0"",""0""
""fullscreenenter"",""1"",""7772""
""blur"",""9"",""70381""
""focus"",""10"",""72352""
","""event"",""trial"",""time""
""blur"",""9"",""70381""
","""event"",""trial"",""time""
""focus"",""0"",""0""
""focus"",""10"",""72352""
","""event"",""trial"",""time""
""fullscreenenter"",""1"",""7772""
","
",,,,,,,,,,,,"[{""stimulus"":""run_exp/static/images/task_images/dig.jpg"",""time"":1},{""stimulus"":""run_exp/static/images/task_images/land.jpg"",""time"":700},{""stimulus"":""run_exp/static/images/task_images/dig.jpg"",""time"":1377}]",[],,,,,,,,,,,,,,,
instruc_travel,12,111201,0.0-7.0-3.0,"""event"",""trial"",""time""
""focus"",""0"",""0""
""fullscreenenter"",""1"",""7772""
""blur"",""9"",""70381""
""focus"",""10"",""72352""
","""event"",""trial"",""time""
""blur"",""9"",""70381""
","""event"",""trial"",""time""
""focus"",""0"",""0""
""focus"",""10"",""72352""
","""event"",""trial"",""time""
""fullscreenenter"",""1"",""7772""
","
",,null,run_exp/static/audio/clip_5_travel.m4a,null,"<p>Every time you dig up gems, there are less gems on the planet, so the more you dig on a planet the fewer gems you’ll get with each dig.</p><p>When gems are running low, you may want to travel to a new planet. </p> <p>  Planets are very far apart in this galaxy, so it will take some time to travel between them. </p> <br><p>There are lots and lots of planets for you to visit, so you won’t be able to return to any planets you’ve seen before. </p><br><p>To leave this planet and travel to a new one, press the letter <strong>‘L’</strong> on your keyboard. Try pressing it now! </p><p><img src='run_exp/static/images/task_images/rocket-01.jpg'  height='600' width='auto'></p>",,,,,,,,,,,,,,,,,,,,,,,
instruc_travel_try,13,111281,0.0-7.0-4.0,"""event"",""trial"",""time""
""focus"",""0"",""0""
""fullscreenenter"",""1"",""7772""
""blur"",""9"",""70381""
""focus"",""10"",""72352""
","""event"",""trial"",""time""
""blur"",""9"",""70381""
","""event"",""trial"",""time""
""focus"",""0"",""0""
""focus"",""10"",""72352""
","""event"",""trial"",""time""
""fullscreenenter"",""1"",""7772""
","
",,78,"<p>Every time you dig up gems, there are less gems on the planet, so the more you dig on a planet the fewer gems you’ll get with each dig.</p><p>When gems are running low, you may want to travel to a new planet. </p> <p>  Planets are very far apart in this galaxy, so it will take some time to travel between them. </p> <br><p>There are lots and lots of planets for you to visit, so you won’t be able to return to any planets you’ve seen before. </p><br><p>To leave this planet and travel to a new one, press the letter <strong>‘L’</strong> on your keyboard. Try pressing it now! </p><p><img src='run_exp/static/images/task_images/rocket-01.jpg'  height='600' width='auto'></p>",76,"<p>Every time you dig up gems, there are less gems on the planet, so the more you dig on a planet the fewer gems you’ll get with each dig.</p><p>When gems are running low, you may want to travel to a new planet. </p> <p>  Planets are very far apart in this galaxy, so it will take some time to travel between them. </p> <br><p>There are lots and lots of planets for you to visit, so you won’t be able to return to any planets you’ve seen before. </p><br><p>To leave this planet and travel to a new one, press the letter <strong>‘L’</strong> on your keyboard. Try pressing it now! </p><p><img src='run_exp/static/images/task_images/rocket-01.jpg'  height='600' width='auto'></p>",,,,,,,,,,,,,,,,,,,,,,,
travel_prac,14,121436,0.0-7.0-5.0,"""event"",""trial"",""time""
""focus"",""0"",""0""
""fullscreenenter"",""1"",""7772""
""blur"",""9"",""70381""
""focus"",""10"",""72352""
","""event"",""trial"",""time""
""blur"",""9"",""70381""
","""event"",""trial"",""time""
""focus"",""0"",""0""
""focus"",""10"",""72352""
","""event"",""trial"",""time""
""fullscreenenter"",""1"",""7772""
","
",,,,,,,,,,,,"[{""stimulus"":""run_exp/static/images/task_images/rocket-01.jpg"",""time"":1},{""stimulus"":""run_exp/static/images/task_images/rocket-02.jpg"",""time"":1126},{""stimulus"":""run_exp/static/images/task_images/rocket-03.jpg"",""time"":2256},{""stimulus"":""run_exp/static/images/task_images/rocket-04.jpg"",""time"":3387},{""stimulus"":""run_exp/static/images/task_images/rocket-05.jpg"",""time"":4505},{""stimulus"":""run_exp/static/images/task_images/rocket-06.jpg"",""time"":5623},{""stimulus"":""run_exp/static/images/task_images/rocket-07.jpg"",""time"":6736},{""stimulus"":""run_exp/static/images/task_images/rocket-08.jpg"",""time"":7876},{""stimulus"":""run_exp/static/images/task_images/rocket-09.jpg"",""time"":9015}]",[],0,,,,,,,,,,,,,,
instruc_alien_greet,15,148762,0.0-7.0-6.0,"""event"",""trial"",""time""
""focus"",""0"",""0""
""fullscreenenter"",""1"",""7772""
""blur"",""9"",""70381""
""focus"",""10"",""72352""
","""event"",""trial"",""time""
""blur"",""9"",""70381""
","""event"",""trial"",""time""
""focus"",""0"",""0""
""focus"",""10"",""72352""
","""event"",""trial"",""time""
""fullscreenenter"",""1"",""7772""
","
",,null,run_exp/static/audio/clip_6_alien.m4a,null,"<p>When you arrive at a new planet, the alien who owns the treasure mine on that planet will greet you!</p><p>The better an alien takes care of their mine the easier it is to dig for gems. Some aliens take better care of their mine than others. So, you won’t get exactly the same amount of gems on each planet.</p><p>What the alien looks like does not tell you anything about how many gems there are on the planet.</p><br><p><img src=""run_exp/static/images/task_images/aliens/instructions_aliens/planet/alien_planet-1.jpg""  height=""600"" width=""auto""></p>",,,,,,,,,,,,,,,,,,,,,,,
instruc_alien_greet,16,151293,0.0-7.0-7.0,"""event"",""trial"",""time""
""focus"",""0"",""0""
""fullscreenenter"",""1"",""7772""
""blur"",""9"",""70381""
""focus"",""10"",""72352""
","""event"",""trial"",""time""
""blur"",""9"",""70381""
","""event"",""trial"",""time""
""focus"",""0"",""0""
""focus"",""10"",""72352""
","""event"",""trial"",""time""
""fullscreenenter"",""1"",""7772""
","
",,2530,"<p>When you arrive at a new planet, the alien who owns the treasure mine on that planet will greet you!</p><p>The better an alien takes care of their mine the easier it is to dig for gems. Some aliens take better care of their mine than others. So, you won’t get exactly the same amount of gems on each planet.</p><p>What the alien looks like does not tell you anything about how many gems there are on the planet.</p><br><p><img src=""run_exp/static/images/task_images/aliens/instructions_aliens/planet/alien_planet-1.jpg""  height=""600"" width=""auto""></p>",,,,,,,1,,,,,,,,,,,,,,,,,,
html-keyboard-response,17,151560,0.0-7.0-8.0,"""event"",""trial"",""time""
""focus"",""0"",""0""
""fullscreenenter"",""1"",""7772""
""blur"",""9"",""70381""
""focus"",""10"",""72352""
","""event"",""trial"",""time""
""blur"",""9"",""70381""
","""event"",""trial"",""time""
""focus"",""0"",""0""
""focus"",""10"",""72352""
","""event"",""trial"",""time""
""fullscreenenter"",""1"",""7772""
","
",,266,"<p>When you arrive at a new planet, the alien who owns the treasure mine on that planet will greet you!</p><p>The better an alien takes care of their mine the easier it is to dig for gems. Some aliens take better care of their mine than others. So, you won’t get exactly the same amount of gems on each planet.</p><p>What the alien looks like does not tell you anything about how many gems there are on the planet.</p><br><p><img src=""run_exp/static/images/task_images/aliens/instructions_aliens/planet/alien_planet-1.jpg""  height=""600"" width=""auto""></p><button class=""jspsych-html-btn-unchosen""><img src=""run_exp/static/images/task_images/planet-01.jpg"" height=""50""></button><button class=""jspsych-html-btn-chosen""><img src=""run_exp/static/images/task_images/planet-02.jpg"" height=""50""></button><p><b>[press the space bar to lock in your answer]<b><br></p>",32,,,,,,,,,,,,,,,,,,,,,,,,
time_out,18,162911,0.0-8.0-0.0,"""event"",""trial"",""time""
""focus"",""0"",""0""
""fullscreenenter"",""1"",""7772""
""blur"",""9"",""70381""
""focus"",""10"",""72352""
","""event"",""trial"",""time""
""blur"",""9"",""70381""
","""event"",""trial"",""time""
""focus"",""0"",""0""
""focus"",""10"",""72352""
","""event"",""trial"",""time""
""fullscreenenter"",""1"",""7772""
","
",,null,run_exp/static/audio/clip_7_timeout.m4a,null,"<p>If you don't make your choice fast enough, you’ll have to wait a few seconds before you can make another one.</p><p>You can’t dig for more gems or travel to new planets. You just have to sit and wait.</p><br><p><img src='run_exp/static/images/task_images/time_out.jpg'  height='600' width='auto'></p>",,,,,,,,,,,,,,,,,,,,,,,
time_out,19,175367,0.0-8.0-1.0,"""event"",""trial"",""time""
""focus"",""0"",""0""
""fullscreenenter"",""1"",""7772""
""blur"",""9"",""70381""
""focus"",""10"",""72352""
","""event"",""trial"",""time""
""blur"",""9"",""70381""
","""event"",""trial"",""time""
""focus"",""0"",""0""
""focus"",""10"",""72352""
","""event"",""trial"",""time""
""fullscreenenter"",""1"",""7772""
","
",,12454,"<p>If you don't make your choice fast enough, you’ll have to wait a few seconds before you can make another one.</p><p>You can’t dig for more gems or travel to new planets. You just have to sit and wait.</p><br><p><img src='run_exp/static/images/task_images/time_out.jpg'  height='600' width='auto'></p>",,,,,,,1,,,,,,,,,,,,,,,,,,
html-keyboard-response,20,175841,0.0-8.0-2.0,"""event"",""trial"",""time""
""focus"",""0"",""0""
""fullscreenenter"",""1"",""7772""
""blur"",""9"",""70381""
""focus"",""10"",""72352""
","""event"",""trial"",""time""
""blur"",""9"",""70381""
","""event"",""trial"",""time""
""focus"",""0"",""0""
""focus"",""10"",""72352""
","""event"",""trial"",""time""
""fullscreenenter"",""1"",""7772""
","
",,472,"<p>If you don't make your choice fast enough, you’ll have to wait a few seconds before you can make another one.</p><p>You can’t dig for more gems or travel to new planets. You just have to sit and wait.</p><br><p><img src='run_exp/static/images/task_images/time_out.jpg'  height='600' width='auto'></p><button class=""jspsych-html-btn-unchosen""><img src=""run_exp/static/images/task_images/planet-01.jpg"" height=""50""></button><button class=""jspsych-html-btn-chosen""><img src=""run_exp/static/images/task_images/planet-02.jpg"" height=""50""></button><p><b>[press the space bar to lock in your answer]<b><br></p>",32,,,,,,,,,,,,,,,,,,,,,,,,
instruc_break,21,191587,0.0-9.0-0.0,"""event"",""trial"",""time""
""focus"",""0"",""0""
""fullscreenenter"",""1"",""7772""
""blur"",""9"",""70381""
""focus"",""10"",""72352""
","""event"",""trial"",""time""
""blur"",""9"",""70381""
","""event"",""trial"",""time""
""focus"",""0"",""0""
""focus"",""10"",""72352""
","""event"",""trial"",""time""
""fullscreenenter"",""1"",""7772""
","
",,null,run_exp/static/audio/clip_8_break.m4a,null,"<p> After digging and traveling for a while, you’ll be able to take a break at home base. </p><p>The game will last 20 minutes no matter what.</p><p>You will visit home base every 5 minutes, so, you will visit home base three times during the game.</p><br><p><img src='run_exp/static/images/task_images/home_base.jpg' height='600' width='auto'></p>",,,,,,,,,,,,,,,,,,,,,,,
instruc_break,22,192263,0.0-9.0-1.0,"""event"",""trial"",""time""
""focus"",""0"",""0""
""fullscreenenter"",""1"",""7772""
""blur"",""9"",""70381""
""focus"",""10"",""72352""
","""event"",""trial"",""time""
""blur"",""9"",""70381""
","""event"",""trial"",""time""
""focus"",""0"",""0""
""focus"",""10"",""72352""
","""event"",""trial"",""time""
""fullscreenenter"",""1"",""7772""
","
",,673,"<p> After digging and traveling for a while, you’ll be able to take a break at home base. </p><p>The game will last 20 minutes no matter what.</p><p>You will visit home base every 5 minutes, so, you will visit home base three times during the game.</p><br><p><img src='run_exp/static/images/task_images/home_base.jpg' height='600' width='auto'></p>",,,,,,,1,,,,,,,,,,,,,,,,,,
html-keyboard-response,23,192360,0.0-9.0-2.0,"""event"",""trial"",""time""
""focus"",""0"",""0""
""fullscreenenter"",""1"",""7772""
""blur"",""9"",""70381""
""focus"",""10"",""72352""
","""event"",""trial"",""time""
""blur"",""9"",""70381""
","""event"",""trial"",""time""
""focus"",""0"",""0""
""focus"",""10"",""72352""
","""event"",""trial"",""time""
""fullscreenenter"",""1"",""7772""
","
",,95,"<p> After digging and traveling for a while, you’ll be able to take a break at home base. </p><p>The game will last 20 minutes no matter what.</p><p>You will visit home base every 5 minutes, so, you will visit home base three times during the game.</p><br><p><img src='run_exp/static/images/task_images/home_base.jpg' height='600' width='auto'></p><button class=""jspsych-html-btn-unchosen""><img src=""run_exp/static/images/task_images/planet-01.jpg"" height=""50""></button><button class=""jspsych-html-btn-chosen""><img src=""run_exp/static/images/task_images/planet-02.jpg"" height=""50""></button><p><b>[press the space bar to lock in your answer]<b><br></p>",32,,,,,,,,,,,,,,,,,,,,,,,,
instruc_prac_game,24,202529,0.0-10.0-0.0,"""event"",""trial"",""time""
""focus"",""0"",""0""
""fullscreenenter"",""1"",""7772""
""blur"",""9"",""70381""
""focus"",""10"",""72352""
","""event"",""trial"",""time""
""blur"",""9"",""70381""
","""event"",""trial"",""time""
""focus"",""0"",""0""
""focus"",""10"",""72352""
","""event"",""trial"",""time""
""fullscreenenter"",""1"",""7772""
","
",,null,run_exp/static/audio/clip_9_practice.m4a,null,"<p> Are you ready to play a practice game? </p> <p>In this practice game, you'll be digging up barrels of gems. But, in the real game, you'll be digging up the gems themselves. </p>",,,,,,,,,,,,,,,,,,,,,,,
html-button-response,25,203309,0.0-10.0-1.0,"""event"",""trial"",""time""
""focus"",""0"",""0""
""fullscreenenter"",""1"",""7772""
""blur"",""9"",""70381""
""focus"",""10"",""72352""
","""event"",""trial"",""time""
""blur"",""9"",""70381""
","""event"",""trial"",""time""
""focus"",""0"",""0""
""focus"",""10"",""72352""
","""event"",""trial"",""time""
""fullscreenenter"",""1"",""7772""
","
",,780,"<p> Are you ready to play a practice game? </p> <p>In this practice game, you'll be digging up barrels of gems. But, in the real game, you'll be digging up the gems themselves. </p>",,,,,,,0,,,,,,,,,,,,,,,,,,
alien_welcome_prac,26,208319,0.0-11.0-0.0,"""event"",""trial"",""time""
""focus"",""0"",""0""
""fullscreenenter"",""1"",""7772""
""blur"",""9"",""70381""
""focus"",""10"",""72352""
","""event"",""trial"",""time""
""blur"",""9"",""70381""
","""event"",""trial"",""time""
""focus"",""0"",""0""
""focus"",""10"",""72352""
","""event"",""trial"",""time""
""fullscreenenter"",""1"",""7772""
","
",,null,run_exp/static/images/task_images/aliens/practice_aliens/planet/alien_planet-5.jpg,null,,,,,,,,,,,,,,,,,,,,,,,,
land_prac,27,208821,0.0-11.0-1.0,"""event"",""trial"",""time""
""focus"",""0"",""0""
""fullscreenenter"",""1"",""7772""
""blur"",""9"",""70381""
""focus"",""10"",""72352""
","""event"",""trial"",""time""
""blur"",""9"",""70381""
","""event"",""trial"",""time""
""focus"",""0"",""0""
""focus"",""10"",""72352""
","""event"",""trial"",""time""
""fullscreenenter"",""1"",""7772""
","
",,null,run_exp/static/images/task_images/land.jpg,null,,,,,,,98,,,0,,,,,,,,,,,,,,
dig_prac,28,210863,0.0-11.0-2.0,"""event"",""trial"",""time""
""focus"",""0"",""0""
""fullscreenenter"",""1"",""7772""
""blur"",""9"",""70381""
""focus"",""10"",""72352""
","""event"",""trial"",""time""
""blur"",""9"",""70381""
","""event"",""trial"",""time""
""focus"",""0"",""0""
""focus"",""10"",""72352""
","""event"",""trial"",""time""
""fullscreenenter"",""1"",""7772""
","
",,,,,,,,,,,,"[{""stimulus"":""run_exp/static/images/task_images/dig.jpg"",""time"":1},{""stimulus"":""run_exp/static/images/task_images/land.jpg"",""time"":680},{""stimulus"":""run_exp/static/images/task_images/dig.jpg"",""time"":1356}]",[],,,,,,,,,,,,,,,
harvest_prac,29,211865,0.0-11.0-3.0,"""event"",""trial"",""time""
""focus"",""0"",""0""
""fullscreenenter"",""1"",""7772""
""blur"",""9"",""70381""
""focus"",""10"",""72352""
","""event"",""trial"",""time""
""blur"",""9"",""70381""
","""event"",""trial"",""time""
""focus"",""0"",""0""
""focus"",""10"",""72352""
","""event"",""trial"",""time""
""fullscreenenter"",""1"",""7772""
","
",,null,run_exp/static/images/task_images/barrel_text.jpg,null,,,,,,,,,,,,,,,,,,,,,,,,
decision_prac,30,214489,0.0-11.0-4.0,"""event"",""trial"",""time""
""focus"",""0"",""0""
""fullscreenenter"",""1"",""7772""
""blur"",""9"",""70381""
""focus"",""10"",""72352""
","""event"",""trial"",""time""
""blur"",""9"",""70381""
","""event"",""trial"",""time""
""focus"",""0"",""0""
""focus"",""10"",""72352""
","""event"",""trial"",""time""
""fullscreenenter"",""1"",""7772""
","
",,2622,run_exp/static/images/task_images/land.jpg,65,,,,,,,,,,,1,,,,,,,,,,,,,
dig_prac,31,216534,0.0-12.0-0.0,"""event"",""trial"",""time""
""focus"",""0"",""0""
""fullscreenenter"",""1"",""7772""
""blur"",""9"",""70381""
""focus"",""10"",""72352""
","""event"",""trial"",""time""
""blur"",""9"",""70381""
","""event"",""trial"",""time""
""focus"",""0"",""0""
""focus"",""10"",""72352""
","""event"",""trial"",""time""
""fullscreenenter"",""1"",""7772""
","
",,,,,,,,,,,,"[{""stimulus"":""run_exp/static/images/task_images/dig.jpg"",""time"":0},{""stimulus"":""run_exp/static/images/task_images/land.jpg"",""time"":675},{""stimulus"":""run_exp/static/images/task_images/dig.jpg"",""time"":1351}]",[],,,,,,,,,,,,,,,
harvest_prac,32,217536,0.0-12.0-1.0,"""event"",""trial"",""time""
""focus"",""0"",""0""
""fullscreenenter"",""1"",""7772""
""blur"",""9"",""70381""
""focus"",""10"",""72352""
","""event"",""trial"",""time""
""blur"",""9"",""70381""
","""event"",""trial"",""time""
""focus"",""0"",""0""
""focus"",""10"",""72352""
","""event"",""trial"",""time""
""fullscreenenter"",""1"",""7772""
","
",,null,run_exp/static/images/task_images/barrel_text.jpg,null,,,,,,,,,,,,,,,,,,,,,,,,
decision_prac,33,217897,0.0-12.0-2.0,"""event"",""trial"",""time""
""focus"",""0"",""0""
""fullscreenenter"",""1"",""7772""
""blur"",""9"",""70381""
""focus"",""10"",""72352""
","""event"",""trial"",""time""
""blur"",""9"",""70381""
","""event"",""trial"",""time""
""focus"",""0"",""0""
""focus"",""10"",""72352""
","""event"",""trial"",""time""
""fullscreenenter"",""1"",""7772""
","
",,360,run_exp/static/images/task_images/land.jpg,65,,,,,,,,,,,2,,,,,,,,,,,,,
dig_prac,34,219940,0.0-13.0-0.0,"""event"",""trial"",""time""
""focus"",""0"",""0""
""fullscreenenter"",""1"",""7772""
""blur"",""9"",""70381""
""focus"",""10"",""72352""
","""event"",""trial"",""time""
""blur"",""9"",""70381""
","""event"",""trial"",""time""
""focus"",""0"",""0""
""focus"",""10"",""72352""
","""event"",""trial"",""time""
""fullscreenenter"",""1"",""7772""
","
",,,,,,,,,,,,"[{""stimulus"":""run_exp/static/images/task_images/dig.jpg"",""time"":0},{""stimulus"":""run_exp/static/images/task_images/land.jpg"",""time"":671},{""stimulus"":""run_exp/static/images/task_images/dig.jpg"",""time"":1343}]",[],,,,,,,,,,,,,,,
harvest_prac,35,220942,0.0-13.0-1.0,"""event"",""trial"",""time""
""focus"",""0"",""0""
""fullscreenenter"",""1"",""7772""
""blur"",""9"",""70381""
""focus"",""10"",""72352""
","""event"",""trial"",""time""
""blur"",""9"",""70381""
","""event"",""trial"",""time""
""focus"",""0"",""0""
""focus"",""10"",""72352""
","""event"",""trial"",""time""
""fullscreenenter"",""1"",""7772""
","
",,null,run_exp/static/images/task_images/barrel_text.jpg,null,,,,,,,,,,,,,,,,,,,,,,,,
decision_prac,36,221032,0.0-13.0-2.0,"""event"",""trial"",""time""
""focus"",""0"",""0""
""fullscreenenter"",""1"",""7772""
""blur"",""9"",""70381""
""focus"",""10"",""72352""
","""event"",""trial"",""time""
""blur"",""9"",""70381""
","""event"",""trial"",""time""
""focus"",""0"",""0""
""focus"",""10"",""72352""
","""event"",""trial"",""time""
""fullscreenenter"",""1"",""7772""
","
",,89,run_exp/static/images/task_images/land.jpg,65,,,,,,,,,,,3,,,,,,,,,,,,,
dig_prac,37,223069,0.0-14.0-0.0,"""event"",""trial"",""time""
""focus"",""0"",""0""
""fullscreenenter"",""1"",""7772""
""blur"",""9"",""70381""
""focus"",""10"",""72352""
","""event"",""trial"",""time""
""blur"",""9"",""70381""
","""event"",""trial"",""time""
""focus"",""0"",""0""
""focus"",""10"",""72352""
","""event"",""trial"",""time""
""fullscreenenter"",""1"",""7772""
","
",,,,,,,,,,,,"[{""stimulus"":""run_exp/static/images/task_images/dig.jpg"",""time"":0},{""stimulus"":""run_exp/static/images/task_images/land.jpg"",""time"":671},{""stimulus"":""run_exp/static/images/task_images/dig.jpg"",""time"":1353}]",[],,,,,,,,,,,,,,,
harvest_prac,38,224071,0.0-14.0-1.0,"""event"",""trial"",""time""
""focus"",""0"",""0""
""fullscreenenter"",""1"",""7772""
""blur"",""9"",""70381""
""focus"",""10"",""72352""
","""event"",""trial"",""time""
""blur"",""9"",""70381""
","""event"",""trial"",""time""
""focus"",""0"",""0""
""focus"",""10"",""72352""
","""event"",""trial"",""time""
""fullscreenenter"",""1"",""7772""
","
",,null,run_exp/static/images/task_images/barrel_text.jpg,null,,,,,,,,,,,,,,,,,,,,,,,,
decision_prac,39,224161,0.0-14.0-2.0,"""event"",""trial"",""time""
""focus"",""0"",""0""
""fullscreenenter"",""1"",""7772""
""blur"",""9"",""70381""
""focus"",""10"",""72352""
","""event"",""trial"",""time""
""blur"",""9"",""70381""
","""event"",""trial"",""time""
""focus"",""0"",""0""
""focus"",""10"",""72352""
","""event"",""trial"",""time""
""fullscreenenter"",""1"",""7772""
","
",,88,run_exp/static/images/task_images/land.jpg,65,,,,,,,,,,,4,,,,,,,,,,,,,
dig_prac,40,226213,0.0-15.0-0.0,"""event"",""trial"",""time""
""focus"",""0"",""0""
""fullscreenenter"",""1"",""7772""
""blur"",""9"",""70381""
""focus"",""10"",""72352""
","""event"",""trial"",""time""
""blur"",""9"",""70381""
","""event"",""trial"",""time""
""focus"",""0"",""0""
""focus"",""10"",""72352""
","""event"",""trial"",""time""
""fullscreenenter"",""1"",""7772""
","
",,,,,,,,,,,,"[{""stimulus"":""run_exp/static/images/task_images/dig.jpg"",""time"":1},{""stimulus"":""run_exp/static/images/task_images/land.jpg"",""time"":671},{""stimulus"":""run_exp/static/images/task_images/dig.jpg"",""time"":1352}]",[],,,,,,,,,,,,,,,
harvest_prac,41,227215,0.0-15.0-1.0,"""event"",""trial"",""time""
""focus"",""0"",""0""
""fullscreenenter"",""1"",""7772""
""blur"",""9"",""70381""
""focus"",""10"",""72352""
","""event"",""trial"",""time""
""blur"",""9"",""70381""
","""event"",""trial"",""time""
""focus"",""0"",""0""
""focus"",""10"",""72352""
","""event"",""trial"",""time""
""fullscreenenter"",""1"",""7772""
","
",,null,run_exp/static/images/task_images/barrel_text.jpg,null,,,,,,,,,,,,,,,,,,,,,,,,
decision_prac,42,227416,0.0-15.0-2.0,"""event"",""trial"",""time""
""focus"",""0"",""0""
""fullscreenenter"",""1"",""7772""
""blur"",""9"",""70381""
""focus"",""10"",""72352""
","""event"",""trial"",""time""
""blur"",""9"",""70381""
","""event"",""trial"",""time""
""focus"",""0"",""0""
""focus"",""10"",""72352""
","""event"",""trial"",""time""
""fullscreenenter"",""1"",""7772""
","
",,201,run_exp/static/images/task_images/land.jpg,65,,,,,,,,,,,,1,,,,,,,,,,,,
quiz_instruc,43,230656,0.0-16.0-0.0,"""event"",""trial"",""time""
""focus"",""0"",""0""
""fullscreenenter"",""1"",""7772""
""blur"",""9"",""70381""
""focus"",""10"",""72352""
","""event"",""trial"",""time""
""blur"",""9"",""70381""
","""event"",""trial"",""time""
""focus"",""0"",""0""
""focus"",""10"",""72352""
","""event"",""trial"",""time""
""fullscreenenter"",""1"",""7772""
","
",,3236,run_exp/static/audio/clip_10_quiz.m4a,,,,,,,0,,,,,,,,,,,,,,,,,,
instruc_repeat,44,273397,0.0-16.0-1.0,"""event"",""trial"",""time""
""focus"",""0"",""0""
""fullscreenenter"",""1"",""7772""
""blur"",""9"",""70381""
""focus"",""10"",""72352""
","""event"",""trial"",""time""
""blur"",""9"",""70381""
","""event"",""trial"",""time""
""focus"",""0"",""0""
""focus"",""10"",""72352""
","""event"",""trial"",""time""
""fullscreenenter"",""1"",""7772""
","
",,null,"<p> Are you ready to play a practice game? </p> <p>In this practice game, you'll be digging up barrels of gems. But, in the real game, you'll be digging up the gems themselves. </p>",null,"<p>In this game, your goal is to collect as many gems as you can. That’s how you will win bonus money. </p> <p>The entire game will last 20 minutes no matter how many gems you collect or how many planets you visit. </p><p>To stay on a planet and dig again, press the letter A on your keyboard. To leave for a new planet, press the letter L.</p><p>The more you dig on a planet, the fewer gems you’ll get with each dig which is why you might consider leaving for a new planet. </p><p>When you arrive at a new planet, you’ll be greeted by an alien. What the alien looks like does not tell you anything about how much treasure is on the planet. </p>",,,,,,,,,,,,,,,,,,,,,,,
instruc_repeat_continue,45,273981,0.0-16.0-2.0,"""event"",""trial"",""time""
""focus"",""0"",""0""
""fullscreenenter"",""1"",""7772""
""blur"",""9"",""70381""
""focus"",""10"",""72352""
","""event"",""trial"",""time""
""blur"",""9"",""70381""
","""event"",""trial"",""time""
""focus"",""0"",""0""
""focus"",""10"",""72352""
","""event"",""trial"",""time""
""fullscreenenter"",""1"",""7772""
","
",,583,"<p> Are you ready to play a practice game? </p> <p>In this practice game, you'll be digging up barrels of gems. But, in the real game, you'll be digging up the gems themselves. </p>",,,,,,,0,,,,,,,,,,,,,,,,,,
quiz_q_1_ask,46,276183,0.0-16.0-3.0,"""event"",""trial"",""time""
""focus"",""0"",""0""
""fullscreenenter"",""1"",""7772""
""blur"",""9"",""70381""
""focus"",""10"",""72352""
","""event"",""trial"",""time""
""blur"",""9"",""70381""
","""event"",""trial"",""time""
""focus"",""0"",""0""
""focus"",""10"",""72352""
","""event"",""trial"",""time""
""fullscreenenter"",""1"",""7772""
","
",,2201,run_exp/static/audio/clip_11_q1_ask.m4a,,,,,,,2,,,,,,,,,,,,,,,,,,
quiz_q_1_fb_correct,47,280012,0.0-17.0-0.0,"""event"",""trial"",""time""
""focus"",""0"",""0""
""fullscreenenter"",""1"",""7772""
""blur"",""9"",""70381""
""focus"",""10"",""72352""
","""event"",""trial"",""time""
""blur"",""9"",""70381""
","""event"",""trial"",""time""
""focus"",""0"",""0""
""focus"",""10"",""72352""
","""event"",""trial"",""time""
""fullscreenenter"",""1"",""7772""
","
",,null,run_exp/static/audio/clip_12_q1_correct.m4a,null,<p>That’s correct. You win extra money by collecting more gems.</p>,,,,,,,,,,,,,,,,,,,,,,,
quiz_q_2_ask,48,282050,0.0-17.0-1.0,"""event"",""trial"",""time""
""focus"",""0"",""0""
""fullscreenenter"",""1"",""7772""
""blur"",""9"",""70381""
""focus"",""10"",""72352""
","""event"",""trial"",""time""
""blur"",""9"",""70381""
","""event"",""trial"",""time""
""focus"",""0"",""0""
""focus"",""10"",""72352""
","""event"",""trial"",""time""
""fullscreenenter"",""1"",""7772""
","
",,2035,run_exp/static/audio/clip_14_q2_ask.m4a,,,,,,,1,,,,,,,,,,,,,,,,,,
quiz_q_2_fb_correct,49,286032,0.0-18.0-0.0,"""event"",""trial"",""time""
""focus"",""0"",""0""
""fullscreenenter"",""1"",""7772""
""blur"",""9"",""70381""
""focus"",""10"",""72352""
","""event"",""trial"",""time""
""blur"",""9"",""70381""
","""event"",""trial"",""time""
""focus"",""0"",""0""
""focus"",""10"",""72352""
","""event"",""trial"",""time""
""fullscreenenter"",""1"",""7772""
","
",,null,run_exp/static/audio/clip_15_q2_correct.m4a,null,<p>That’s correct. The experiment is 20 minutes no matter what.</p>,,,,,,,,,,,,,,,,,,,,,,,
quiz_q_3_ask,50,288530,0.0-18.0-1.0,"""event"",""trial"",""time""
""focus"",""0"",""0""
""fullscreenenter"",""1"",""7772""
""blur"",""9"",""70381""
""focus"",""10"",""72352""
","""event"",""trial"",""time""
""blur"",""9"",""70381""
","""event"",""trial"",""time""
""focus"",""0"",""0""
""focus"",""10"",""72352""
","""event"",""trial"",""time""
""fullscreenenter"",""1"",""7772""
","
",,2498,run_exp/static/audio/clip_17_q3_ask.m4a,,,,,,,1,,,,,,,,,,,,,,,,,,
quiz_q_3_fb_correct,51,292471,0.0-19.0-0.0,"""event"",""trial"",""time""
""focus"",""0"",""0""
""fullscreenenter"",""1"",""7772""
""blur"",""9"",""70381""
""focus"",""10"",""72352""
","""event"",""trial"",""time""
""blur"",""9"",""70381""
","""event"",""trial"",""time""
""focus"",""0"",""0""
""focus"",""10"",""72352""
","""event"",""trial"",""time""
""fullscreenenter"",""1"",""7772""
","
",,null,run_exp/static/audio/clip_18_q3_correct.m4a,null,<p> That’s correct. You press the letter L to travel to a new planet.</p>,,,,,,,,,,,,,,,,,,,,,,,
quiz_q_4_ask,52,296442,0.0-19.0-1.0,"""event"",""trial"",""time""
""focus"",""0"",""0""
""fullscreenenter"",""1"",""7772""
""blur"",""9"",""70381""
""focus"",""10"",""72352""
","""event"",""trial"",""time""
""blur"",""9"",""70381""
","""event"",""trial"",""time""
""focus"",""0"",""0""
""focus"",""10"",""72352""
","""event"",""trial"",""time""
""fullscreenenter"",""1"",""7772""
","
",,3970,run_exp/static/audio/clip_20_q4_ask.m4a,,,,,,,0,,,,,,,,,,,,,,,,,,
quiz_q_4_fb_correct,53,301733,0.0-20.0-0.0,"""event"",""trial"",""time""
""focus"",""0"",""0""
""fullscreenenter"",""1"",""7772""
""blur"",""9"",""70381""
""focus"",""10"",""72352""
","""event"",""trial"",""time""
""blur"",""9"",""70381""
","""event"",""trial"",""time""
""focus"",""0"",""0""
""focus"",""10"",""72352""
","""event"",""trial"",""time""
""fullscreenenter"",""1"",""7772""
","
",,null,run_exp/static/audio/clip_21_q4_correct.m4a,null,<p> That’s correct. The more you dig on a planet the fewer gems you’ll get with each dig. </p>,,,,,,,,,,,,,,,,,,,,,,,
quiz_q_5_ask,54,303924,0.0-20.0-1.0,"""event"",""trial"",""time""
""focus"",""0"",""0""
""fullscreenenter"",""1"",""7772""
""blur"",""9"",""70381""
""focus"",""10"",""72352""
","""event"",""trial"",""time""
""blur"",""9"",""70381""
","""event"",""trial"",""time""
""focus"",""0"",""0""
""focus"",""10"",""72352""
","""event"",""trial"",""time""
""fullscreenenter"",""1"",""7772""
","
",,2190,run_exp/static/audio/clip_23_q5_ask.m4a,,,,,,,1,,,,,,,,,,,,,,,,,,
quiz_q_5_fb_correct,55,308902,0.0-21.0-0.0,"""event"",""trial"",""time""
""focus"",""0"",""0""
""fullscreenenter"",""1"",""7772""
""blur"",""9"",""70381""
""focus"",""10"",""72352""
","""event"",""trial"",""time""
""blur"",""9"",""70381""
","""event"",""trial"",""time""
""focus"",""0"",""0""
""focus"",""10"",""72352""
","""event"",""trial"",""time""
""fullscreenenter"",""1"",""7772""
","
",,null,run_exp/static/audio/clip_24_q5_correct.m4a,null,<p> That’s correct. The alien tells you nothing about how much treasure is on the planet.</p>,,,,,,,,,,,,,,,,,,,,,,,
quiz_correct,56,312353,0.0-22.0-0.0,"""event"",""trial"",""time""
""focus"",""0"",""0""
""fullscreenenter"",""1"",""7772""
""blur"",""9"",""70381""
""focus"",""10"",""72352""
","""event"",""trial"",""time""
""blur"",""9"",""70381""
","""event"",""trial"",""time""
""focus"",""0"",""0""
""focus"",""10"",""72352""
","""event"",""trial"",""time""
""fullscreenenter"",""1"",""7772""
","
",,null,run_exp/static/audio/clip_26_correct_quiz.m4a,null,,,,,,,,,,,,,,,,,,,,,,,,
quiz_correct_continue,57,313456,0.0-22.0-1.0,"""event"",""trial"",""time""
""focus"",""0"",""0""
""fullscreenenter"",""1"",""7772""
""blur"",""9"",""70381""
""focus"",""10"",""72352""
","""event"",""trial"",""time""
""blur"",""9"",""70381""
","""event"",""trial"",""time""
""focus"",""0"",""0""
""focus"",""10"",""72352""
","""event"",""trial"",""time""
""fullscreenenter"",""1"",""7772""
","
",,1102,<p>Good job! You're now ready to move on to the real game!</p>,,,,,,,0,,,,,,,,,,,,,,,,,,
audio-keyboard-response,58,323537,0.0-22.0-2.0,"""event"",""trial"",""time""
""focus"",""0"",""0""
""fullscreenenter"",""1"",""7772""
""blur"",""9"",""70381""
""focus"",""10"",""72352""
","""event"",""trial"",""time""
""blur"",""9"",""70381""
","""event"",""trial"",""time""
""focus"",""0"",""0""
""focus"",""10"",""72352""
","""event"",""trial"",""time""
""fullscreenenter"",""1"",""7772""
","
",,null,run_exp/static/audio/clip_28_real_game.m4a,null,,,,,,,,,,,,,,,,,,,,,,,,
instruc_begin_exp_contine,59,328147,0.0-22.0-3.0,"""event"",""trial"",""time""
""focus"",""0"",""0""
""fullscreenenter"",""1"",""7772""
""blur"",""9"",""70381""
""focus"",""10"",""72352""
","""event"",""trial"",""time""
""blur"",""9"",""70381""
","""event"",""trial"",""time""
""focus"",""0"",""0""
""focus"",""10"",""72352""
","""event"",""trial"",""time""
""fullscreenenter"",""1"",""7772""
","
",,4608,"<p>Now that you know how  to dig for space treasure and travel to new planets,you can start exploring! </p><p>Do you want to go over the instructions again or get started with the real game?</p>",,,,,,,1,,,,,,1,,,,,,,,,,,,
alien_welcome,60,333637,0.0-23.0-0.0,"""event"",""trial"",""time""
""focus"",""0"",""0""
""fullscreenenter"",""1"",""7772""
""blur"",""9"",""70381""
""focus"",""10"",""72352""
","""event"",""trial"",""time""
""blur"",""9"",""70381""
","""event"",""trial"",""time""
""focus"",""0"",""0""
""focus"",""10"",""72352""
","""event"",""trial"",""time""
""fullscreenenter"",""1"",""7772""
","
",,null,run_exp/static/images/task_images/aliens/old_aliens/planet/alien_planet-9.jpg,null,,,,,,,,,,,,,9,"9,21,30,37,29,4,24,32,63,23,58,68,78,71,53,25,10,31,46,19,20,26,5,75,52,17,28,13,33,73,42,67,64,47",,,,,,,,,,
land,61,334140,0.0-23.0-1.0,"""event"",""trial"",""time""
""focus"",""0"",""0""
""fullscreenenter"",""1"",""7772""
""blur"",""9"",""70381""
""focus"",""10"",""72352""
","""event"",""trial"",""time""
""blur"",""9"",""70381""
","""event"",""trial"",""time""
""focus"",""0"",""0""
""focus"",""10"",""72352""
","""event"",""trial"",""time""
""fullscreenenter"",""1"",""7772""
","
",,null,run_exp/static/images/task_images/land.jpg,null,,,,,,,95,,,1,,,,,,,,,,,,,,
dig,62,336178,0.0-23.0-2.0,"""event"",""trial"",""time""
""focus"",""0"",""0""
""fullscreenenter"",""1"",""7772""
""blur"",""9"",""70381""
""focus"",""10"",""72352""
","""event"",""trial"",""time""
""blur"",""9"",""70381""
","""event"",""trial"",""time""
""focus"",""0"",""0""
""focus"",""10"",""72352""
","""event"",""trial"",""time""
""fullscreenenter"",""1"",""7772""
","
",,,,,,,,,,,,"[{""stimulus"":""run_exp/static/images/task_images/dig.jpg"",""time"":2},{""stimulus"":""run_exp/static/images/task_images/land.jpg"",""time"":671},{""stimulus"":""run_exp/static/images/task_images/dig.jpg"",""time"":1345}]",[],1,,,,,,,,,,,,,,
harvest,63,337182,0.0-23.0-3.0,"""event"",""trial"",""time""
""focus"",""0"",""0""
""fullscreenenter"",""1"",""7772""
""blur"",""9"",""70381""
""focus"",""10"",""72352""
","""event"",""trial"",""time""
""blur"",""9"",""70381""
","""event"",""trial"",""time""
""focus"",""0"",""0""
""focus"",""10"",""72352""
","""event"",""trial"",""time""
""fullscreenenter"",""1"",""7772""
","
",,null,run_exp/static/images/task_images/gems/95.jpg,null,,,,,,,18,,,1,,,,,95,0.194037284,0.189473684,,,,,,,
decision,64,338000,0.0-23.0-4.0,"""event"",""trial"",""time""
""focus"",""0"",""0""
""fullscreenenter"",""1"",""7772""
""blur"",""9"",""70381""
""focus"",""10"",""72352""
","""event"",""trial"",""time""
""blur"",""9"",""70381""
","""event"",""trial"",""time""
""focus"",""0"",""0""
""focus"",""10"",""72352""
","""event"",""trial"",""time""
""fullscreenenter"",""1"",""7772""
","
",,817,run_exp/static/images/task_images/land.jpg,65,,,,,,,18,,,1,,,,,,,,9852,1,0,FALSE,,,
dig,65,340237,0.0-24.0-0.0,"""event"",""trial"",""time""
""focus"",""0"",""0""
""fullscreenenter"",""1"",""7772""
""blur"",""9"",""70381""
""focus"",""10"",""72352""
","""event"",""trial"",""time""
""blur"",""9"",""70381""
","""event"",""trial"",""time""
""focus"",""0"",""0""
""focus"",""10"",""72352""
","""event"",""trial"",""time""
""fullscreenenter"",""1"",""7772""
","
",,,,,,,,,,,,"[{""stimulus"":""run_exp/static/images/task_images/dig.jpg"",""time"":1},{""stimulus"":""run_exp/static/images/task_images/land.jpg"",""time"":747},{""stimulus"":""run_exp/static/images/task_images/dig.jpg"",""time"":1487}]",[],1,,,,,,,,,,,,,,
harvest,66,341239,0.0-24.0-1.0,"""event"",""trial"",""time""
""focus"",""0"",""0""
""fullscreenenter"",""1"",""7772""
""blur"",""9"",""70381""
""focus"",""10"",""72352""
","""event"",""trial"",""time""
""blur"",""9"",""70381""
","""event"",""trial"",""time""
""focus"",""0"",""0""
""focus"",""10"",""72352""
","""event"",""trial"",""time""
""fullscreenenter"",""1"",""7772""
","
",,null,run_exp/static/images/task_images/gems/18.jpg,null,,,,,,,4,,,1,,,,,18,0.205057603,0.222222222,,,,,,,
decision,67,341656,0.0-24.0-2.0,"""event"",""trial"",""time""
""focus"",""0"",""0""
""fullscreenenter"",""1"",""7772""
""blur"",""9"",""70381""
""focus"",""10"",""72352""
","""event"",""trial"",""time""
""blur"",""9"",""70381""
","""event"",""trial"",""time""
""focus"",""0"",""0""
""focus"",""10"",""72352""
","""event"",""trial"",""time""
""fullscreenenter"",""1"",""7772""
","
",,414,run_exp/static/images/task_images/land.jpg,76,,,,,,,4,,,1,,,,,,,,13508,1,1,TRUE,,,
travel,68,351342,0.0-25.0-0.0,"""event"",""trial"",""time""
""focus"",""0"",""0""
""fullscreenenter"",""1"",""7772""
""blur"",""9"",""70381""
""focus"",""10"",""72352""
","""event"",""trial"",""time""
""blur"",""9"",""70381""
","""event"",""trial"",""time""
""focus"",""0"",""0""
""focus"",""10"",""72352""
","""event"",""trial"",""time""
""fullscreenenter"",""1"",""7772""
","
",,,,,,,,,,,,"[{""stimulus"":""run_exp/static/images/task_images/rocket-01.jpg"",""time"":1},{""stimulus"":""run_exp/static/images/task_images/rocket-02.jpg"",""time"":1070},{""stimulus"":""run_exp/static/images/task_images/rocket-03.jpg"",""time"":2150},{""stimulus"":""run_exp/static/images/task_images/rocket-04.jpg"",""time"":3231},{""stimulus"":""run_exp/static/images/task_images/rocket-05.jpg"",""time"":4309},{""stimulus"":""run_exp/static/images/task_images/rocket-06.jpg"",""time"":5379},{""stimulus"":""run_exp/static/images/task_images/rocket-07.jpg"",""time"":6461},{""stimulus"":""run_exp/static/images/task_images/rocket-08.jpg"",""time"":7534},{""stimulus"":""run_exp/static/images/task_images/rocket-09.jpg"",""time"":8605}]",[],1,,,,,,,,,,,,,,
alien_welcome,69,356354,0.0-25.0-1.0,"""event"",""trial"",""time""
""focus"",""0"",""0""
""fullscreenenter"",""1"",""7772""
""blur"",""9"",""70381""
""focus"",""10"",""72352""
","""event"",""trial"",""time""
""blur"",""9"",""70381""
","""event"",""trial"",""time""
""focus"",""0"",""0""
""focus"",""10"",""72352""
","""event"",""trial"",""time""
""fullscreenenter"",""1"",""7772""
","
",,null,run_exp/static/images/task_images/aliens/old_aliens/planet/alien_planet-21.jpg,null,,,,,,,,,,,,,21,"9,21,30,37,29,4,24,32,63,23,58,68,78,71,53,25,10,31,46,19,20,26,5,75,52,17,28,13,33,73,42,67,64,47",,,,,,,,,,
land,70,356858,0.0-25.0-2.0,"""event"",""trial"",""time""
""focus"",""0"",""0""
""fullscreenenter"",""1"",""7772""
""blur"",""9"",""70381""
""focus"",""10"",""72352""
","""event"",""trial"",""time""
""blur"",""9"",""70381""
","""event"",""trial"",""time""
""focus"",""0"",""0""
""focus"",""10"",""72352""
","""event"",""trial"",""time""
""fullscreenenter"",""1"",""7772""
","
",,null,run_exp/static/images/task_images/land.jpg,null,,,,,,,98,,,2,,,,,,,,,,,,,,
dig,71,358897,0.0-25.0-3.0,"""event"",""trial"",""time""
""focus"",""0"",""0""
""fullscreenenter"",""1"",""7772""
""blur"",""9"",""70381""
""focus"",""10"",""72352""
","""event"",""trial"",""time""
""blur"",""9"",""70381""
","""event"",""trial"",""time""
""focus"",""0"",""0""
""focus"",""10"",""72352""
","""event"",""trial"",""time""
""fullscreenenter"",""1"",""7772""
","
",,,,,,,,,,,,"[{""stimulus"":""run_exp/static/images/task_images/dig.jpg"",""time"":1},{""stimulus"":""run_exp/static/images/task_images/land.jpg"",""time"":672},{""stimulus"":""run_exp/static/images/task_images/dig.jpg"",""time"":1346}]",[],2,,,,,,,,,,,,,,
harvest,72,359900,0.0-25.0-4.0,"""event"",""trial"",""time""
""focus"",""0"",""0""
""fullscreenenter"",""1"",""7772""
""blur"",""9"",""70381""
""focus"",""10"",""72352""
","""event"",""trial"",""time""
""blur"",""9"",""70381""
","""event"",""trial"",""time""
""focus"",""0"",""0""
""focus"",""10"",""72352""
","""event"",""trial"",""time""
""fullscreenenter"",""1"",""7772""
","
",,null,run_exp/static/images/task_images/gems/98.jpg,null,,,,,,,24,,,2,,,,,98,0.243490477,0.244897959,,,,,,,
decision,73,360064,0.0-25.0-5.0,"""event"",""trial"",""time""
""focus"",""0"",""0""
""fullscreenenter"",""1"",""7772""
""blur"",""9"",""70381""
""focus"",""10"",""72352""
","""event"",""trial"",""time""
""blur"",""9"",""70381""
","""event"",""trial"",""time""
""focus"",""0"",""0""
""focus"",""10"",""72352""
","""event"",""trial"",""time""
""fullscreenenter"",""1"",""7772""
","
",,163,run_exp/static/images/task_images/land.jpg,65,,,,,,,24,,,2,,,,,,,,31916,1,0,FALSE,,,
dig,74,362938,0.0-26.0-0.0,"""event"",""trial"",""time""
""focus"",""0"",""0""
""fullscreenenter"",""1"",""7772""
""blur"",""9"",""70381""
""focus"",""10"",""72352""
","""event"",""trial"",""time""
""blur"",""9"",""70381""
","""event"",""trial"",""time""
""focus"",""0"",""0""
""focus"",""10"",""72352""
","""event"",""trial"",""time""
""fullscreenenter"",""1"",""7772""
","
",,,,,,,,,,,,"[{""stimulus"":""run_exp/static/images/task_images/dig.jpg"",""time"":0},{""stimulus"":""run_exp/static/images/task_images/land.jpg"",""time"":961},{""stimulus"":""run_exp/static/images/task_images/dig.jpg"",""time"":1911}]",[],2,,,,,,,,,,,,,,
harvest,75,363994,0.0-26.0-1.0,"""event"",""trial"",""time""
""focus"",""0"",""0""
""fullscreenenter"",""1"",""7772""
""blur"",""9"",""70381""
""focus"",""10"",""72352""
","""event"",""trial"",""time""
""blur"",""9"",""70381""
","""event"",""trial"",""time""
""focus"",""0"",""0""
""focus"",""10"",""72352""
","""event"",""trial"",""time""
""fullscreenenter"",""1"",""7772""
","
",,null,run_exp/static/images/task_images/gems/24.jpg,null,,,,,,,3,,,2,,,,,24,0.139130114,0.125,,,,,,,
decision,76,364401,0.0-26.0-2.0,"""event"",""trial"",""time""
""focus"",""0"",""0""
""fullscreenenter"",""1"",""7772""
""blur"",""9"",""70381""
""focus"",""10"",""72352""
","""event"",""trial"",""time""
""blur"",""9"",""70381""
","""event"",""trial"",""time""
""focus"",""0"",""0""
""focus"",""10"",""72352""
","""event"",""trial"",""time""
""fullscreenenter"",""1"",""7772""
","
",,405,run_exp/static/images/task_images/land.jpg,65,,,,,,,3,,,2,,,,,,,,36253,1,1,FALSE,,,
dig,77,367027,0.0-27.0-0.0,"""event"",""trial"",""time""
""focus"",""0"",""0""
""fullscreenenter"",""1"",""7772""
""blur"",""9"",""70381""
""focus"",""10"",""72352""
","""event"",""trial"",""time""
""blur"",""9"",""70381""
","""event"",""trial"",""time""
""focus"",""0"",""0""
""focus"",""10"",""72352""
","""event"",""trial"",""time""
""fullscreenenter"",""1"",""7772""
","
",,,,,,,,,,,,"[{""stimulus"":""run_exp/static/images/task_images/dig.jpg"",""time"":0},{""stimulus"":""run_exp/static/images/task_images/land.jpg"",""time"":873},{""stimulus"":""run_exp/static/images/task_images/dig.jpg"",""time"":1743}]",[],2,,,,,,,,,,,,,,
harvest,78,368029,0.0-27.0-1.0,"""event"",""trial"",""time""
""focus"",""0"",""0""
""fullscreenenter"",""1"",""7772""
""blur"",""9"",""70381""
""focus"",""10"",""72352""
","""event"",""trial"",""time""
""blur"",""9"",""70381""
","""event"",""trial"",""time""
""focus"",""0"",""0""
""focus"",""10"",""72352""
","""event"",""trial"",""time""
""fullscreenenter"",""1"",""7772""
","
",,null,run_exp/static/images/task_images/gems/3.jpg,null,,,,,,,1,,,2,,,,,3,0.196701285,0.333333333,,,,,,,
decision,79,368199,0.0-27.0-2.0,"""event"",""trial"",""time""
""focus"",""0"",""0""
""fullscreenenter"",""1"",""7772""
""blur"",""9"",""70381""
""focus"",""10"",""72352""
","""event"",""trial"",""time""
""blur"",""9"",""70381""
","""event"",""trial"",""time""
""focus"",""0"",""0""
""focus"",""10"",""72352""
","""event"",""trial"",""time""
""fullscreenenter"",""1"",""7772""
","
",,170,run_exp/static/images/task_images/land.jpg,76,,,,,,,1,,,2,,,,,,,,40051,1,2,TRUE,,,
travel,80,378249,0.0-28.0-0.0,"""event"",""trial"",""time""
""focus"",""0"",""0""
""fullscreenenter"",""1"",""7772""
""blur"",""9"",""70381""
""focus"",""10"",""72352""
","""event"",""trial"",""time""
""blur"",""9"",""70381""
","""event"",""trial"",""time""
""focus"",""0"",""0""
""focus"",""10"",""72352""
","""event"",""trial"",""time""
""fullscreenenter"",""1"",""7772""
","
",,,,,,,,,,,,"[{""stimulus"":""run_exp/static/images/task_images/rocket-01.jpg"",""time"":0},{""stimulus"":""run_exp/static/images/task_images/rocket-02.jpg"",""time"":1105},{""stimulus"":""run_exp/static/images/task_images/rocket-03.jpg"",""time"":2207},{""stimulus"":""run_exp/static/images/task_images/rocket-04.jpg"",""time"":3300},{""stimulus"":""run_exp/static/images/task_images/rocket-05.jpg"",""time"":4411},{""stimulus"":""run_exp/static/images/task_images/rocket-06.jpg"",""time"":5506},{""stimulus"":""run_exp/static/images/task_images/rocket-07.jpg"",""time"":6600},{""stimulus"":""run_exp/static/images/task_images/rocket-08.jpg"",""time"":7701},{""stimulus"":""run_exp/static/images/task_images/rocket-09.jpg"",""time"":8821}]",[],2,,,,,,,,,,,,,,
alien_welcome,81,383263,0.0-28.0-1.0,"""event"",""trial"",""time""
""focus"",""0"",""0""
""fullscreenenter"",""1"",""7772""
""blur"",""9"",""70381""
""focus"",""10"",""72352""
","""event"",""trial"",""time""
""blur"",""9"",""70381""
","""event"",""trial"",""time""
""focus"",""0"",""0""
""focus"",""10"",""72352""
","""event"",""trial"",""time""
""fullscreenenter"",""1"",""7772""
","
",,null,run_exp/static/images/task_images/aliens/old_aliens/planet/alien_planet-30.jpg,null,,,,,,,,,,,,,30,"9,21,30,37,29,4,24,32,63,23,58,68,78,71,53,25,10,31,46,19,20,26,5,75,52,17,28,13,33,73,42,67,64,47",,,,,,,,,,
land,82,383779,0.0-28.0-2.0,"""event"",""trial"",""time""
""focus"",""0"",""0""
""fullscreenenter"",""1"",""7772""
""blur"",""9"",""70381""
""focus"",""10"",""72352""
","""event"",""trial"",""time""
""blur"",""9"",""70381""
","""event"",""trial"",""time""
""focus"",""0"",""0""
""focus"",""10"",""72352""
","""event"",""trial"",""time""
""fullscreenenter"",""1"",""7772""
","
",,null,run_exp/static/images/task_images/land.jpg,null,,,,,,,102,,,3,,,,,,,,,,,,,,
dig,83,385840,0.0-28.0-3.0,"""event"",""trial"",""time""
""focus"",""0"",""0""
""fullscreenenter"",""1"",""7772""
""blur"",""9"",""70381""
""focus"",""10"",""72352""
","""event"",""trial"",""time""
""blur"",""9"",""70381""
","""event"",""trial"",""time""
""focus"",""0"",""0""
""focus"",""10"",""72352""
","""event"",""trial"",""time""
""fullscreenenter"",""1"",""7772""
","
",,,,,,,,,,,,"[{""stimulus"":""run_exp/static/images/task_images/dig.jpg"",""time"":1},{""stimulus"":""run_exp/static/images/task_images/land.jpg"",""time"":683},{""stimulus"":""run_exp/static/images/task_images/dig.jpg"",""time"":1368}]",[],3,,,,,,,,,,,,,,
harvest,84,386858,0.0-28.0-4.0,"""event"",""trial"",""time""
""focus"",""0"",""0""
""fullscreenenter"",""1"",""7772""
""blur"",""9"",""70381""
""focus"",""10"",""72352""
","""event"",""trial"",""time""
""blur"",""9"",""70381""
","""event"",""trial"",""time""
""focus"",""0"",""0""
""focus"",""10"",""72352""
","""event"",""trial"",""time""
""fullscreenenter"",""1"",""7772""
","
",,null,run_exp/static/images/task_images/gems/102.jpg,null,,,,,,,54,,,3,,,,,102,0.53237152,0.529411765,,,,,,,
decision,85,386968,0.0-28.0-5.0,"""event"",""trial"",""time""
""focus"",""0"",""0""
""fullscreenenter"",""1"",""7772""
""blur"",""9"",""70381""
""focus"",""10"",""72352""
","""event"",""trial"",""time""
""blur"",""9"",""70381""
","""event"",""trial"",""time""
""focus"",""0"",""0""
""focus"",""10"",""72352""
","""event"",""trial"",""time""
""fullscreenenter"",""1"",""7772""
","
",,109,run_exp/static/images/task_images/land.jpg,65,,,,,,,54,,,3,,,,,,,,58820,1,0,FALSE,,,
dig,86,390019,0.0-29.0-0.0,"""event"",""trial"",""time""
""focus"",""0"",""0""
""fullscreenenter"",""1"",""7772""
""blur"",""9"",""70381""
""focus"",""10"",""72352""
","""event"",""trial"",""time""
""blur"",""9"",""70381""
","""event"",""trial"",""time""
""focus"",""0"",""0""
""focus"",""10"",""72352""
","""event"",""trial"",""time""
""fullscreenenter"",""1"",""7772""
","
",,,,,,,,,,,,"[{""stimulus"":""run_exp/static/images/task_images/dig.jpg"",""time"":1},{""stimulus"":""run_exp/static/images/task_images/land.jpg"",""time"":995},{""stimulus"":""run_exp/static/images/task_images/dig.jpg"",""time"":2062}]",[],3,,,,,,,,,,,,,,
harvest,87,391022,0.0-29.0-1.0,"""event"",""trial"",""time""
""focus"",""0"",""0""
""fullscreenenter"",""1"",""7772""
""blur"",""9"",""70381""
""focus"",""10"",""72352""
","""event"",""trial"",""time""
""blur"",""9"",""70381""
","""event"",""trial"",""time""
""focus"",""0"",""0""
""focus"",""10"",""72352""
","""event"",""trial"",""time""
""fullscreenenter"",""1"",""7772""
","
",,null,run_exp/static/images/task_images/gems/54.jpg,null,,,,,,,26,,,3,,,,,54,0.483054618,0.481481481,,,,,,,
decision,88,391166,0.0-29.0-2.0,"""event"",""trial"",""time""
""focus"",""0"",""0""
""fullscreenenter"",""1"",""7772""
""blur"",""9"",""70381""
""focus"",""10"",""72352""
","""event"",""trial"",""time""
""blur"",""9"",""70381""
","""event"",""trial"",""time""
""focus"",""0"",""0""
""focus"",""10"",""72352""
","""event"",""trial"",""time""
""fullscreenenter"",""1"",""7772""
","
",,142,run_exp/static/images/task_images/land.jpg,65,,,,,,,26,,,3,,,,,,,,63018,1,1,FALSE,,,
dig,89,394176,0.0-30.0-0.0,"""event"",""trial"",""time""
""focus"",""0"",""0""
""fullscreenenter"",""1"",""7772""
""blur"",""9"",""70381""
""focus"",""10"",""72352""
","""event"",""trial"",""time""
""blur"",""9"",""70381""
","""event"",""trial"",""time""
""focus"",""0"",""0""
""focus"",""10"",""72352""
","""event"",""trial"",""time""
""fullscreenenter"",""1"",""7772""
","
",,,,,,,,,,,,"[{""stimulus"":""run_exp/static/images/task_images/dig.jpg"",""time"":0},{""stimulus"":""run_exp/static/images/task_images/land.jpg"",""time"":987},{""stimulus"":""run_exp/static/images/task_images/dig.jpg"",""time"":2048}]",[],3,,,,,,,,,,,,,,
harvest,90,395179,0.0-30.0-1.0,"""event"",""trial"",""time""
""focus"",""0"",""0""
""fullscreenenter"",""1"",""7772""
""blur"",""9"",""70381""
""focus"",""10"",""72352""
","""event"",""trial"",""time""
""blur"",""9"",""70381""
","""event"",""trial"",""time""
""focus"",""0"",""0""
""focus"",""10"",""72352""
","""event"",""trial"",""time""
""fullscreenenter"",""1"",""7772""
","
",,null,run_exp/static/images/task_images/gems/26.jpg,null,,,,,,,12,,,3,,,,,26,0.478636786,0.461538462,,,,,,,
decision,91,395217,0.0-30.0-2.0,"""event"",""trial"",""time""
""focus"",""0"",""0""
""fullscreenenter"",""1"",""7772""
""blur"",""9"",""70381""
""focus"",""10"",""72352""
","""event"",""trial"",""time""
""blur"",""9"",""70381""
","""event"",""trial"",""time""
""focus"",""0"",""0""
""focus"",""10"",""72352""
","""event"",""trial"",""time""
""fullscreenenter"",""1"",""7772""
","
",,34,run_exp/static/images/task_images/land.jpg,65,,,,,,,12,,,3,,,,,,,,67069,1,2,FALSE,,,
dig,92,398287,0.0-31.0-0.0,"""event"",""trial"",""time""
""focus"",""0"",""0""
""fullscreenenter"",""1"",""7772""
""blur"",""9"",""70381""
""focus"",""10"",""72352""
","""event"",""trial"",""time""
""blur"",""9"",""70381""
","""event"",""trial"",""time""
""focus"",""0"",""0""
""focus"",""10"",""72352""
","""event"",""trial"",""time""
""fullscreenenter"",""1"",""7772""
","
",,,,,,,,,,,,"[{""stimulus"":""run_exp/static/images/task_images/dig.jpg"",""time"":0},{""stimulus"":""run_exp/static/images/task_images/land.jpg"",""time"":1000},{""stimulus"":""run_exp/static/images/task_images/dig.jpg"",""time"":2052}]",[],3,,,,,,,,,,,,,,
harvest,93,399289,0.0-31.0-1.0,"""event"",""trial"",""time""
""focus"",""0"",""0""
""fullscreenenter"",""1"",""7772""
""blur"",""9"",""70381""
""focus"",""10"",""72352""
","""event"",""trial"",""time""
""blur"",""9"",""70381""
","""event"",""trial"",""time""
""focus"",""0"",""0""
""focus"",""10"",""72352""
","""event"",""trial"",""time""
""fullscreenenter"",""1"",""7772""
","
",,null,run_exp/static/images/task_images/gems/12.jpg,null,,,,,,,6,,,3,,,,,12,0.500940889,0.5,,,,,,,
decision,94,399395,0.0-31.0-2.0,"""event"",""trial"",""time""
""focus"",""0"",""0""
""fullscreenenter"",""1"",""7772""
""blur"",""9"",""70381""
""focus"",""10"",""72352""
","""event"",""trial"",""time""
""blur"",""9"",""70381""
","""event"",""trial"",""time""
""focus"",""0"",""0""
""focus"",""10"",""72352""
","""event"",""trial"",""time""
""fullscreenenter"",""1"",""7772""
","
",,104,run_exp/static/images/task_images/land.jpg,65,,,,,,,6,,,3,,,,,,,,71247,1,3,FALSE,,,
dig,95,402412,0.0-32.0-0.0,"""event"",""trial"",""time""
""focus"",""0"",""0""
""fullscreenenter"",""1"",""7772""
""blur"",""9"",""70381""
""focus"",""10"",""72352""
","""event"",""trial"",""time""
""blur"",""9"",""70381""
","""event"",""trial"",""time""
""focus"",""0"",""0""
""focus"",""10"",""72352""
","""event"",""trial"",""time""
""fullscreenenter"",""1"",""7772""
","
",,,,,,,,,,,,"[{""stimulus"":""run_exp/static/images/task_images/dig.jpg"",""time"":0},{""stimulus"":""run_exp/static/images/task_images/land.jpg"",""time"":972},{""stimulus"":""run_exp/static/images/task_images/dig.jpg"",""time"":2041}]",[],3,,,,,,,,,,,,,,
harvest,96,403416,0.0-32.0-1.0,"""event"",""trial"",""time""
""focus"",""0"",""0""
""fullscreenenter"",""1"",""7772""
""blur"",""9"",""70381""
""focus"",""10"",""72352""
","""event"",""trial"",""time""
""blur"",""9"",""70381""
","""event"",""trial"",""time""
""focus"",""0"",""0""
""focus"",""10"",""72352""
","""event"",""trial"",""time""
""fullscreenenter"",""1"",""7772""
","
",,null,run_exp/static/images/task_images/gems/6.jpg,null,,,,,,,3,,,3,,,,,6,0.531092123,0.5,,,,,,,
decision,97,403529,0.0-32.0-2.0,"""event"",""trial"",""time""
""focus"",""0"",""0""
""fullscreenenter"",""1"",""7772""
""blur"",""9"",""70381""
""focus"",""10"",""72352""
","""event"",""trial"",""time""
""blur"",""9"",""70381""
","""event"",""trial"",""time""
""focus"",""0"",""0""
""focus"",""10"",""72352""
","""event"",""trial"",""time""
""fullscreenenter"",""1"",""7772""
","
",,113,run_exp/static/images/task_images/land.jpg,76,,,,,,,3,,,3,,,,,,,,75381,1,4,TRUE,,,
travel,98,413552,0.0-33.0-0.0,"""event"",""trial"",""time""
""focus"",""0"",""0""
""fullscreenenter"",""1"",""7772""
""blur"",""9"",""70381""
""focus"",""10"",""72352""
","""event"",""trial"",""time""
""blur"",""9"",""70381""
","""event"",""trial"",""time""
""focus"",""0"",""0""
""focus"",""10"",""72352""
","""event"",""trial"",""time""
""fullscreenenter"",""1"",""7772""
","
",,,,,,,,,,,,"[{""stimulus"":""run_exp/static/images/task_images/rocket-01.jpg"",""time"":0},{""stimulus"":""run_exp/static/images/task_images/rocket-02.jpg"",""time"":1109},{""stimulus"":""run_exp/static/images/task_images/rocket-03.jpg"",""time"":2220},{""stimulus"":""run_exp/static/images/task_images/rocket-04.jpg"",""time"":3330},{""stimulus"":""run_exp/static/images/task_images/rocket-05.jpg"",""time"":4429},{""stimulus"":""run_exp/static/images/task_images/rocket-06.jpg"",""time"":5539},{""stimulus"":""run_exp/static/images/task_images/rocket-07.jpg"",""time"":6639},{""stimulus"":""run_exp/static/images/task_images/rocket-08.jpg"",""time"":7754},{""stimulus"":""run_exp/static/images/task_images/rocket-09.jpg"",""time"":8865}]",[],3,,,,,,,,,,,,,,
alien_welcome,99,418627,0.0-33.0-1.0,"""event"",""trial"",""time""
""focus"",""0"",""0""
""fullscreenenter"",""1"",""7772""
""blur"",""9"",""70381""
""focus"",""10"",""72352""
","""event"",""trial"",""time""
""blur"",""9"",""70381""
","""event"",""trial"",""time""
""focus"",""0"",""0""
""focus"",""10"",""72352""
","""event"",""trial"",""time""
""fullscreenenter"",""1"",""7772""
","
",,null,run_exp/static/images/task_images/aliens/old_aliens/planet/alien_planet-37.jpg,null,,,,,,,,,,,,,37,"9,21,30,37,29,4,24,32,63,23,58,68,78,71,53,25,10,31,46,19,20,26,5,75,52,17,28,13,33,73,42,67,64,47",,,,,,,,,,
land,100,419130,0.0-33.0-2.0,"""event"",""trial"",""time""
""focus"",""0"",""0""
""fullscreenenter"",""1"",""7772""
""blur"",""9"",""70381""
""focus"",""10"",""72352""
","""event"",""trial"",""time""
""blur"",""9"",""70381""
","""event"",""trial"",""time""
""focus"",""0"",""0""
""focus"",""10"",""72352""
","""event"",""trial"",""time""
""fullscreenenter"",""1"",""7772""
","
",,null,run_exp/static/images/task_images/land.jpg,null,,,,,,,100,,,4,,,,,,,,,,,,,,
dig,101,421176,0.0-33.0-3.0,"""event"",""trial"",""time""
""focus"",""0"",""0""
""fullscreenenter"",""1"",""7772""
""blur"",""9"",""70381""
""focus"",""10"",""72352""
","""event"",""trial"",""time""
""blur"",""9"",""70381""
","""event"",""trial"",""time""
""focus"",""0"",""0""
""focus"",""10"",""72352""
","""event"",""trial"",""time""
""fullscreenenter"",""1"",""7772""
","
",,,,,,,,,,,,"[{""stimulus"":""run_exp/static/images/task_images/dig.jpg"",""time"":1},{""stimulus"":""run_exp/static/images/task_images/land.jpg"",""time"":686},{""stimulus"":""run_exp/static/images/task_images/dig.jpg"",""time"":1364}]",[],4,,,,,,,,,,,,,,
harvest,102,422179,0.0-33.0-4.0,"""event"",""trial"",""time""
""focus"",""0"",""0""
""fullscreenenter"",""1"",""7772""
""blur"",""9"",""70381""
""focus"",""10"",""72352""
","""event"",""trial"",""time""
""blur"",""9"",""70381""
","""event"",""trial"",""time""
""focus"",""0"",""0""
""focus"",""10"",""72352""
","""event"",""trial"",""time""
""fullscreenenter"",""1"",""7772""
","
",,null,run_exp/static/images/task_images/gems/100.jpg,null,,,,,,,47,,,4,,,,,100,0.470982242,0.47,,,,,,,
decision,103,422248,0.0-33.0-5.0,"""event"",""trial"",""time""
""focus"",""0"",""0""
""fullscreenenter"",""1"",""7772""
""blur"",""9"",""70381""
""focus"",""10"",""72352""
","""event"",""trial"",""time""
""blur"",""9"",""70381""
","""event"",""trial"",""time""
""focus"",""0"",""0""
""focus"",""10"",""72352""
","""event"",""trial"",""time""
""fullscreenenter"",""1"",""7772""
","
",,67,run_exp/static/images/task_images/land.jpg,65,,,,,,,47,,,4,,,,,,,,94101,1,0,FALSE,,,
dig,104,425302,0.0-34.0-0.0,"""event"",""trial"",""time""
""focus"",""0"",""0""
""fullscreenenter"",""1"",""7772""
""blur"",""9"",""70381""
""focus"",""10"",""72352""
","""event"",""trial"",""time""
""blur"",""9"",""70381""
","""event"",""trial"",""time""
""focus"",""0"",""0""
""focus"",""10"",""72352""
","""event"",""trial"",""time""
""fullscreenenter"",""1"",""7772""
","
",,,,,,,,,,,,"[{""stimulus"":""run_exp/static/images/task_images/dig.jpg"",""time"":0},{""stimulus"":""run_exp/static/images/task_images/land.jpg"",""time"":986},{""stimulus"":""run_exp/static/images/task_images/dig.jpg"",""time"":2053}]",[],4,,,,,,,,,,,,,,
harvest,105,426305,0.0-34.0-1.0,"""event"",""trial"",""time""
""focus"",""0"",""0""
""fullscreenenter"",""1"",""7772""
""blur"",""9"",""70381""
""focus"",""10"",""72352""
","""event"",""trial"",""time""
""blur"",""9"",""70381""
","""event"",""trial"",""time""
""focus"",""0"",""0""
""focus"",""10"",""72352""
","""event"",""trial"",""time""
""fullscreenenter"",""1"",""7772""
","
",,null,run_exp/static/images/task_images/gems/47.jpg,null,,,,,,,20,,,4,,,,,47,0.430789514,0.425531915,,,,,,,
decision,106,426470,0.0-34.0-2.0,"""event"",""trial"",""time""
""focus"",""0"",""0""
""fullscreenenter"",""1"",""7772""
""blur"",""9"",""70381""
""focus"",""10"",""72352""
","""event"",""trial"",""time""
""blur"",""9"",""70381""
","""event"",""trial"",""time""
""focus"",""0"",""0""
""focus"",""10"",""72352""
","""event"",""trial"",""time""
""fullscreenenter"",""1"",""7772""
","
",,163,run_exp/static/images/task_images/land.jpg,65,,,,,,,20,,,4,,,,,,,,98322,1,1,FALSE,,,
dig,107,429340,0.0-35.0-0.0,"""event"",""trial"",""time""
""focus"",""0"",""0""
""fullscreenenter"",""1"",""7772""
""blur"",""9"",""70381""
""focus"",""10"",""72352""
","""event"",""trial"",""time""
""blur"",""9"",""70381""
","""event"",""trial"",""time""
""focus"",""0"",""0""
""focus"",""10"",""72352""
","""event"",""trial"",""time""
""fullscreenenter"",""1"",""7772""
","
",,,,,,,,,,,,"[{""stimulus"":""run_exp/static/images/task_images/dig.jpg"",""time"":0},{""stimulus"":""run_exp/static/images/task_images/land.jpg"",""time"":964},{""stimulus"":""run_exp/static/images/task_images/dig.jpg"",""time"":1916}]",[],4,,,,,,,,,,,,,,
harvest,108,430344,0.0-35.0-1.0,"""event"",""trial"",""time""
""focus"",""0"",""0""
""fullscreenenter"",""1"",""7772""
""blur"",""9"",""70381""
""focus"",""10"",""72352""
","""event"",""trial"",""time""
""blur"",""9"",""70381""
","""event"",""trial"",""time""
""focus"",""0"",""0""
""focus"",""10"",""72352""
","""event"",""trial"",""time""
""fullscreenenter"",""1"",""7772""
","
",,null,run_exp/static/images/task_images/gems/20.jpg,null,,,,,,,11,,,4,,,,,20,0.548617699,0.55,,,,,,,
decision,109,430608,0.0-35.0-2.0,"""event"",""trial"",""time""
""focus"",""0"",""0""
""fullscreenenter"",""1"",""7772""
""blur"",""9"",""70381""
""focus"",""10"",""72352""
","""event"",""trial"",""time""
""blur"",""9"",""70381""
","""event"",""trial"",""time""
""focus"",""0"",""0""
""focus"",""10"",""72352""
","""event"",""trial"",""time""
""fullscreenenter"",""1"",""7772""
","
",,262,run_exp/static/images/task_images/land.jpg,65,,,,,,,11,,,4,,,,,,,,102460,1,2,FALSE,,,
dig,110,433381,0.0-36.0-0.0,"""event"",""trial"",""time""
""focus"",""0"",""0""
""fullscreenenter"",""1"",""7772""
""blur"",""9"",""70381""
""focus"",""10"",""72352""
","""event"",""trial"",""time""
""blur"",""9"",""70381""
","""event"",""trial"",""time""
""focus"",""0"",""0""
""focus"",""10"",""72352""
","""event"",""trial"",""time""
""fullscreenenter"",""1"",""7772""
","
",,,,,,,,,,,,"[{""stimulus"":""run_exp/static/images/task_images/dig.jpg"",""time"":1},{""stimulus"":""run_exp/static/images/task_images/land.jpg"",""time"":925},{""stimulus"":""run_exp/static/images/task_images/dig.jpg"",""time"":1838}]",[],4,,,,,,,,,,,,,,
harvest,111,434382,0.0-36.0-1.0,"""event"",""trial"",""time""
""focus"",""0"",""0""
""fullscreenenter"",""1"",""7772""
""blur"",""9"",""70381""
""focus"",""10"",""72352""
","""event"",""trial"",""time""
""blur"",""9"",""70381""
","""event"",""trial"",""time""
""focus"",""0"",""0""
""focus"",""10"",""72352""
","""event"",""trial"",""time""
""fullscreenenter"",""1"",""7772""
","
",,null,run_exp/static/images/task_images/gems/11.jpg,null,,,,,,,5,,,4,,,,,11,0.481414546,0.454545455,,,,,,,
decision,112,434584,0.0-36.0-2.0,"""event"",""trial"",""time""
""focus"",""0"",""0""
""fullscreenenter"",""1"",""7772""
""blur"",""9"",""70381""
""focus"",""10"",""72352""
","""event"",""trial"",""time""
""blur"",""9"",""70381""
","""event"",""trial"",""time""
""focus"",""0"",""0""
""focus"",""10"",""72352""
","""event"",""trial"",""time""
""fullscreenenter"",""1"",""7772""
","
",,198,run_exp/static/images/task_images/land.jpg,65,,,,,,,5,,,4,,,,,,,,106437,1,3,FALSE,,,
dig,113,437438,0.0-37.0-0.0,"""event"",""trial"",""time""
""focus"",""0"",""0""
""fullscreenenter"",""1"",""7772""
""blur"",""9"",""70381""
""focus"",""10"",""72352""
","""event"",""trial"",""time""
""blur"",""9"",""70381""
","""event"",""trial"",""time""
""focus"",""0"",""0""
""focus"",""10"",""72352""
","""event"",""trial"",""time""
""fullscreenenter"",""1"",""7772""
","
",,,,,,,,,,,,"[{""stimulus"":""run_exp/static/images/task_images/dig.jpg"",""time"":0},{""stimulus"":""run_exp/static/images/task_images/land.jpg"",""time"":952},{""stimulus"":""run_exp/static/images/task_images/dig.jpg"",""time"":1891}]",[],4,,,,,,,,,,,,,,
harvest,114,438572,0.0-37.0-1.0,"""event"",""trial"",""time""
""focus"",""0"",""0""
""fullscreenenter"",""1"",""7772""
""blur"",""9"",""70381""
""focus"",""10"",""72352""
","""event"",""trial"",""time""
""blur"",""9"",""70381""
","""event"",""trial"",""time""
""focus"",""0"",""0""
""focus"",""10"",""72352""
","""event"",""trial"",""time""
""fullscreenenter"",""1"",""7772""
","
",,null,run_exp/static/images/task_images/gems/5.jpg,null,,,,,,,3,,,4,,,,,5,0.501184791,0.6,,,,,,,
decision,115,438880,0.0-37.0-2.0,"""event"",""trial"",""time""
""focus"",""0"",""0""
""fullscreenenter"",""1"",""7772""
""blur"",""9"",""70381""
""focus"",""10"",""72352""
","""event"",""trial"",""time""
""blur"",""9"",""70381""
","""event"",""trial"",""time""
""focus"",""0"",""0""
""focus"",""10"",""72352""
","""event"",""trial"",""time""
""fullscreenenter"",""1"",""7772""
","
",,305,run_exp/static/images/task_images/land.jpg,76,,,,,,,3,,,4,,,,,,,,110733,1,4,TRUE,,,
travel,116,448710,0.0-38.0-0.0,"""event"",""trial"",""time""
""focus"",""0"",""0""
""fullscreenenter"",""1"",""7772""
""blur"",""9"",""70381""
""focus"",""10"",""72352""
","""event"",""trial"",""time""
""blur"",""9"",""70381""
","""event"",""trial"",""time""
""focus"",""0"",""0""
""focus"",""10"",""72352""
","""event"",""trial"",""time""
""fullscreenenter"",""1"",""7772""
","
",,,,,,,,,,,,"[{""stimulus"":""run_exp/static/images/task_images/rocket-01.jpg"",""time"":1},{""stimulus"":""run_exp/static/images/task_images/rocket-02.jpg"",""time"":1096},{""stimulus"":""run_exp/static/images/task_images/rocket-03.jpg"",""time"":2177},{""stimulus"":""run_exp/static/images/task_images/rocket-04.jpg"",""time"":3256},{""stimulus"":""run_exp/static/images/task_images/rocket-05.jpg"",""time"":4347},{""stimulus"":""run_exp/static/images/task_images/rocket-06.jpg"",""time"":5458},{""stimulus"":""run_exp/static/images/task_images/rocket-07.jpg"",""time"":6537},{""stimulus"":""run_exp/static/images/task_images/rocket-08.jpg"",""time"":7627},{""stimulus"":""run_exp/static/images/task_images/rocket-09.jpg"",""time"":8712}]",[],4,,,,,,,,,,,,,,
alien_welcome,117,453721,0.0-38.0-1.0,"""event"",""trial"",""time""
""focus"",""0"",""0""
""fullscreenenter"",""1"",""7772""
""blur"",""9"",""70381""
""focus"",""10"",""72352""
","""event"",""trial"",""time""
""blur"",""9"",""70381""
","""event"",""trial"",""time""
""focus"",""0"",""0""
""focus"",""10"",""72352""
","""event"",""trial"",""time""
""fullscreenenter"",""1"",""7772""
","
",,null,run_exp/static/images/task_images/aliens/old_aliens/planet/alien_planet-29.jpg,null,,,,,,,,,,,,,29,"9,21,30,37,29,4,24,32,63,23,58,68,78,71,53,25,10,31,46,19,20,26,5,75,52,17,28,13,33,73,42,67,64,47",,,,,,,,,,
land,118,454238,0.0-38.0-2.0,"""event"",""trial"",""time""
""focus"",""0"",""0""
""fullscreenenter"",""1"",""7772""
""blur"",""9"",""70381""
""focus"",""10"",""72352""
","""event"",""trial"",""time""
""blur"",""9"",""70381""
","""event"",""trial"",""time""
""focus"",""0"",""0""
""focus"",""10"",""72352""
","""event"",""trial"",""time""
""fullscreenenter"",""1"",""7772""
","
",,null,run_exp/static/images/task_images/land.jpg,null,,,,,,,96,,,5,,,,,,,,,,,,,,
dig,119,456278,0.0-38.0-3.0,"""event"",""trial"",""time""
""focus"",""0"",""0""
""fullscreenenter"",""1"",""7772""
""blur"",""9"",""70381""
""focus"",""10"",""72352""
","""event"",""trial"",""time""
""blur"",""9"",""70381""
","""event"",""trial"",""time""
""focus"",""0"",""0""
""focus"",""10"",""72352""
","""event"",""trial"",""time""
""fullscreenenter"",""1"",""7772""
","
",,,,,,,,,,,,"[{""stimulus"":""run_exp/static/images/task_images/dig.jpg"",""time"":0},{""stimulus"":""run_exp/static/images/task_images/land.jpg"",""time"":672},{""stimulus"":""run_exp/static/images/task_images/dig.jpg"",""time"":1346}]",[],5,,,,,,,,,,,,,,
harvest,120,457280,0.0-38.0-4.0,"""event"",""trial"",""time""
""focus"",""0"",""0""
""fullscreenenter"",""1"",""7772""
""blur"",""9"",""70381""
""focus"",""10"",""72352""
","""event"",""trial"",""time""
""blur"",""9"",""70381""
","""event"",""trial"",""time""
""focus"",""0"",""0""
""focus"",""10"",""72352""
","""event"",""trial"",""time""
""fullscreenenter"",""1"",""7772""
","
",,null,run_exp/static/images/task_images/gems/96.jpg,null,,,,,,,49,,,5,,,,,96,0.511724991,0.510416667,,,,,,,
decision,121,457544,0.0-38.0-5.0,"""event"",""trial"",""time""
""focus"",""0"",""0""
""fullscreenenter"",""1"",""7772""
""blur"",""9"",""70381""
""focus"",""10"",""72352""
","""event"",""trial"",""time""
""blur"",""9"",""70381""
","""event"",""trial"",""time""
""focus"",""0"",""0""
""focus"",""10"",""72352""
","""event"",""trial"",""time""
""fullscreenenter"",""1"",""7772""
","
",,261,run_exp/static/images/task_images/land.jpg,65,,,,,,,49,,,5,,,,,,,,129396,1,0,FALSE,,,
dig,122,460316,0.0-39.0-0.0,"""event"",""trial"",""time""
""focus"",""0"",""0""
""fullscreenenter"",""1"",""7772""
""blur"",""9"",""70381""
""focus"",""10"",""72352""
","""event"",""trial"",""time""
""blur"",""9"",""70381""
","""event"",""trial"",""time""
""focus"",""0"",""0""
""focus"",""10"",""72352""
","""event"",""trial"",""time""
""fullscreenenter"",""1"",""7772""
","
",,,,,,,,,,,,"[{""stimulus"":""run_exp/static/images/task_images/dig.jpg"",""time"":0},{""stimulus"":""run_exp/static/images/task_images/land.jpg"",""time"":923},{""stimulus"":""run_exp/static/images/task_images/dig.jpg"",""time"":1839}]",[],5,,,,,,,,,,,,,,
harvest,123,461318,0.0-39.0-1.0,"""event"",""trial"",""time""
""focus"",""0"",""0""
""fullscreenenter"",""1"",""7772""
""blur"",""9"",""70381""
""focus"",""10"",""72352""
","""event"",""trial"",""time""
""blur"",""9"",""70381""
","""event"",""trial"",""time""
""focus"",""0"",""0""
""focus"",""10"",""72352""
","""event"",""trial"",""time""
""fullscreenenter"",""1"",""7772""
","
",,null,run_exp/static/images/task_images/gems/49.jpg,null,,,,,,,27,,,5,,,,,49,0.556176576,0.551020408,,,,,,,
decision,124,461384,0.0-39.0-2.0,"""event"",""trial"",""time""
""focus"",""0"",""0""
""fullscreenenter"",""1"",""7772""
""blur"",""9"",""70381""
""focus"",""10"",""72352""
","""event"",""trial"",""time""
""blur"",""9"",""70381""
","""event"",""trial"",""time""
""focus"",""0"",""0""
""focus"",""10"",""72352""
","""event"",""trial"",""time""
""fullscreenenter"",""1"",""7772""
","
",,64,run_exp/static/images/task_images/land.jpg,65,,,,,,,27,,,5,,,,,,,,133236,1,1,FALSE,,,
dig,125,464437,0.0-40.0-0.0,"""event"",""trial"",""time""
""focus"",""0"",""0""
""fullscreenenter"",""1"",""7772""
""blur"",""9"",""70381""
""focus"",""10"",""72352""
","""event"",""trial"",""time""
""blur"",""9"",""70381""
","""event"",""trial"",""time""
""focus"",""0"",""0""
""focus"",""10"",""72352""
","""event"",""trial"",""time""
""fullscreenenter"",""1"",""7772""
","
",,,,,,,,,,,,"[{""stimulus"":""run_exp/static/images/task_images/dig.jpg"",""time"":1},{""stimulus"":""run_exp/static/images/task_images/land.jpg"",""time"":1000},{""stimulus"":""run_exp/static/images/task_images/dig.jpg"",""time"":2052}]",[],5,,,,,,,,,,,,,,
harvest,126,465440,0.0-40.0-1.0,"""event"",""trial"",""time""
""focus"",""0"",""0""
""fullscreenenter"",""1"",""7772""
""blur"",""9"",""70381""
""focus"",""10"",""72352""
","""event"",""trial"",""time""
""blur"",""9"",""70381""
","""event"",""trial"",""time""
""focus"",""0"",""0""
""focus"",""10"",""72352""
","""event"",""trial"",""time""
""fullscreenenter"",""1"",""7772""
","
",,null,run_exp/static/images/task_images/gems/27.jpg,null,,,,,,,14,,,5,,,,,27,0.507870885,0.518518519,,,,,,,
decision,127,465624,0.0-40.0-2.0,"""event"",""trial"",""time""
""focus"",""0"",""0""
""fullscreenenter"",""1"",""7772""
""blur"",""9"",""70381""
""focus"",""10"",""72352""
","""event"",""trial"",""time""
""blur"",""9"",""70381""
","""event"",""trial"",""time""
""focus"",""0"",""0""
""focus"",""10"",""72352""
","""event"",""trial"",""time""
""fullscreenenter"",""1"",""7772""
","
",,181,run_exp/static/images/task_images/land.jpg,65,,,,,,,14,,,5,,,,,,,,137476,1,2,FALSE,,,
dig,128,468552,0.0-41.0-0.0,"""event"",""trial"",""time""
""focus"",""0"",""0""
""fullscreenenter"",""1"",""7772""
""blur"",""9"",""70381""
""focus"",""10"",""72352""
","""event"",""trial"",""time""
""blur"",""9"",""70381""
","""event"",""trial"",""time""
""focus"",""0"",""0""
""focus"",""10"",""72352""
","""event"",""trial"",""time""
""fullscreenenter"",""1"",""7772""
","
",,,,,,,,,,,,"[{""stimulus"":""run_exp/static/images/task_images/dig.jpg"",""time"":0},{""stimulus"":""run_exp/static/images/task_images/land.jpg"",""time"":948},{""stimulus"":""run_exp/static/images/task_images/dig.jpg"",""time"":1974}]",[],5,,,,,,,,,,,,,,
harvest,129,469633,0.0-41.0-1.0,"""event"",""trial"",""time""
""focus"",""0"",""0""
""fullscreenenter"",""1"",""7772""
""blur"",""9"",""70381""
""focus"",""10"",""72352""
","""event"",""trial"",""time""
""blur"",""9"",""70381""
","""event"",""trial"",""time""
""focus"",""0"",""0""
""focus"",""10"",""72352""
","""event"",""trial"",""time""
""fullscreenenter"",""1"",""7772""
","
",,null,run_exp/static/images/task_images/gems/14.jpg,null,,,,,,,7,,,5,,,,,14,0.511200029,0.5,,,,,,,
decision,130,469728,0.0-41.0-2.0,"""event"",""trial"",""time""
""focus"",""0"",""0""
""fullscreenenter"",""1"",""7772""
""blur"",""9"",""70381""
""focus"",""10"",""72352""
","""event"",""trial"",""time""
""blur"",""9"",""70381""
","""event"",""trial"",""time""
""focus"",""0"",""0""
""focus"",""10"",""72352""
","""event"",""trial"",""time""
""fullscreenenter"",""1"",""7772""
","
",,92,run_exp/static/images/task_images/land.jpg,65,,,,,,,7,,,5,,,,,,,,141580,1,3,FALSE,,,
dig,131,472742,0.0-42.0-0.0,"""event"",""trial"",""time""
""focus"",""0"",""0""
""fullscreenenter"",""1"",""7772""
""blur"",""9"",""70381""
""focus"",""10"",""72352""
","""event"",""trial"",""time""
""blur"",""9"",""70381""
","""event"",""trial"",""time""
""focus"",""0"",""0""
""focus"",""10"",""72352""
","""event"",""trial"",""time""
""fullscreenenter"",""1"",""7772""
","
",,,,,,,,,,,,"[{""stimulus"":""run_exp/static/images/task_images/dig.jpg"",""time"":0},{""stimulus"":""run_exp/static/images/task_images/land.jpg"",""time"":988},{""stimulus"":""run_exp/static/images/task_images/dig.jpg"",""time"":2030}]",[],5,,,,,,,,,,,,,,
harvest,132,473744,0.0-42.0-1.0,"""event"",""trial"",""time""
""focus"",""0"",""0""
""fullscreenenter"",""1"",""7772""
""blur"",""9"",""70381""
""focus"",""10"",""72352""
","""event"",""trial"",""time""
""blur"",""9"",""70381""
","""event"",""trial"",""time""
""focus"",""0"",""0""
""focus"",""10"",""72352""
","""event"",""trial"",""time""
""fullscreenenter"",""1"",""7772""
","
",,null,run_exp/static/images/task_images/gems/7.jpg,null,,,,,,,4,,,5,,,,,7,0.549534777,0.571428571,,,,,,,
decision,133,474064,0.0-42.0-2.0,"""event"",""trial"",""time""
""focus"",""0"",""0""
""fullscreenenter"",""1"",""7772""
""blur"",""9"",""70381""
""focus"",""10"",""72352""
","""event"",""trial"",""time""
""blur"",""9"",""70381""
","""event"",""trial"",""time""
""focus"",""0"",""0""
""focus"",""10"",""72352""
","""event"",""trial"",""time""
""fullscreenenter"",""1"",""7772""
","
",,318,run_exp/static/images/task_images/land.jpg,76,,,,,,,4,,,5,,,,,,,,145916,1,4,TRUE,,,
travel,134,483823,0.0-43.0-0.0,"""event"",""trial"",""time""
""focus"",""0"",""0""
""fullscreenenter"",""1"",""7772""
""blur"",""9"",""70381""
""focus"",""10"",""72352""
","""event"",""trial"",""time""
""blur"",""9"",""70381""
","""event"",""trial"",""time""
""focus"",""0"",""0""
""focus"",""10"",""72352""
","""event"",""trial"",""time""
""fullscreenenter"",""1"",""7772""
","
",,,,,,,,,,,,"[{""stimulus"":""run_exp/static/images/task_images/rocket-01.jpg"",""time"":1},{""stimulus"":""run_exp/static/images/task_images/rocket-02.jpg"",""time"":1080},{""stimulus"":""run_exp/static/images/task_images/rocket-03.jpg"",""time"":2161},{""stimulus"":""run_exp/static/images/task_images/rocket-04.jpg"",""time"":3236},{""stimulus"":""run_exp/static/images/task_images/rocket-05.jpg"",""time"":4314},{""stimulus"":""run_exp/static/images/task_images/rocket-06.jpg"",""time"":5395},{""stimulus"":""run_exp/static/images/task_images/rocket-07.jpg"",""time"":6475},{""stimulus"":""run_exp/static/images/task_images/rocket-08.jpg"",""time"":7555},{""stimulus"":""run_exp/static/images/task_images/rocket-09.jpg"",""time"":8671}]",[],5,,,,,,,,,,,,,,
alien_welcome,135,488836,0.0-43.0-1.0,"""event"",""trial"",""time""
""focus"",""0"",""0""
""fullscreenenter"",""1"",""7772""
""blur"",""9"",""70381""
""focus"",""10"",""72352""
","""event"",""trial"",""time""
""blur"",""9"",""70381""
","""event"",""trial"",""time""
""focus"",""0"",""0""
""focus"",""10"",""72352""
","""event"",""trial"",""time""
""fullscreenenter"",""1"",""7772""
","
",,null,run_exp/static/images/task_images/aliens/old_aliens/planet/alien_planet-4.jpg,null,,,,,,,,,,,,,4,"9,21,30,37,29,4,24,32,63,23,58,68,78,71,53,25,10,31,46,19,20,26,5,75,52,17,28,13,33,73,42,67,64,47",,,,,,,,,,
land,136,489354,0.0-43.0-2.0,"""event"",""trial"",""time""
""focus"",""0"",""0""
""fullscreenenter"",""1"",""7772""
""blur"",""9"",""70381""
""focus"",""10"",""72352""
","""event"",""trial"",""time""
""blur"",""9"",""70381""
","""event"",""trial"",""time""
""focus"",""0"",""0""
""focus"",""10"",""72352""
","""event"",""trial"",""time""
""fullscreenenter"",""1"",""7772""
","
",,null,run_exp/static/images/task_images/land.jpg,null,,,,,,,95,,,6,,,,,,,,,,,,,,
dig,137,491400,0.0-43.0-3.0,"""event"",""trial"",""time""
""focus"",""0"",""0""
""fullscreenenter"",""1"",""7772""
""blur"",""9"",""70381""
""focus"",""10"",""72352""
","""event"",""trial"",""time""
""blur"",""9"",""70381""
","""event"",""trial"",""time""
""focus"",""0"",""0""
""focus"",""10"",""72352""
","""event"",""trial"",""time""
""fullscreenenter"",""1"",""7772""
","
",,,,,,,,,,,,"[{""stimulus"":""run_exp/static/images/task_images/dig.jpg"",""time"":0},{""stimulus"":""run_exp/static/images/task_images/land.jpg"",""time"":679},{""stimulus"":""run_exp/static/images/task_images/dig.jpg"",""time"":1356}]",[],6,,,,,,,,,,,,,,
harvest,138,492487,0.0-43.0-4.0,"""event"",""trial"",""time""
""focus"",""0"",""0""
""fullscreenenter"",""1"",""7772""
""blur"",""9"",""70381""
""focus"",""10"",""72352""
","""event"",""trial"",""time""
""blur"",""9"",""70381""
","""event"",""trial"",""time""
""focus"",""0"",""0""
""focus"",""10"",""72352""
","""event"",""trial"",""time""
""fullscreenenter"",""1"",""7772""
","
",,null,run_exp/static/images/task_images/gems/95.jpg,null,,,,,,,76,,,6,,,,,95,0.801389432,0.8,,,,,,,
decision,139,492578,0.0-43.0-5.0,"""event"",""trial"",""time""
""focus"",""0"",""0""
""fullscreenenter"",""1"",""7772""
""blur"",""9"",""70381""
""focus"",""10"",""72352""
","""event"",""trial"",""time""
""blur"",""9"",""70381""
","""event"",""trial"",""time""
""focus"",""0"",""0""
""focus"",""10"",""72352""
","""event"",""trial"",""time""
""fullscreenenter"",""1"",""7772""
","
",,89,run_exp/static/images/task_images/land.jpg,65,,,,,,,76,,,6,,,,,,,,164430,1,0,FALSE,,,
dig,140,495613,0.0-44.0-0.0,"""event"",""trial"",""time""
""focus"",""0"",""0""
""fullscreenenter"",""1"",""7772""
""blur"",""9"",""70381""
""focus"",""10"",""72352""
","""event"",""trial"",""time""
""blur"",""9"",""70381""
","""event"",""trial"",""time""
""focus"",""0"",""0""
""focus"",""10"",""72352""
","""event"",""trial"",""time""
""fullscreenenter"",""1"",""7772""
","
",,,,,,,,,,,,"[{""stimulus"":""run_exp/static/images/task_images/dig.jpg"",""time"":1},{""stimulus"":""run_exp/static/images/task_images/land.jpg"",""time"":976},{""stimulus"":""run_exp/static/images/task_images/dig.jpg"",""time"":2050}]",[],6,,,,,,,,,,,,,,
harvest,141,496647,0.0-44.0-1.0,"""event"",""trial"",""time""
""focus"",""0"",""0""
""fullscreenenter"",""1"",""7772""
""blur"",""9"",""70381""
""focus"",""10"",""72352""
","""event"",""trial"",""time""
""blur"",""9"",""70381""
","""event"",""trial"",""time""
""focus"",""0"",""0""
""focus"",""10"",""72352""
","""event"",""trial"",""time""
""fullscreenenter"",""1"",""7772""
","
",,null,run_exp/static/images/task_images/gems/76.jpg,null,,,,,,,62,,,6,,,,,76,0.813907332,0.815789474,,,,,,,
decision,142,496744,0.0-44.0-2.0,"""event"",""trial"",""time""
""focus"",""0"",""0""
""fullscreenenter"",""1"",""7772""
""blur"",""9"",""70381""
""focus"",""10"",""72352""
","""event"",""trial"",""time""
""blur"",""9"",""70381""
","""event"",""trial"",""time""
""focus"",""0"",""0""
""focus"",""10"",""72352""
","""event"",""trial"",""time""
""fullscreenenter"",""1"",""7772""
","
",,95,run_exp/static/images/task_images/land.jpg,65,,,,,,,62,,,6,,,,,,,,168597,1,1,FALSE,,,
dig,143,499761,0.0-45.0-0.0,"""event"",""trial"",""time""
""focus"",""0"",""0""
""fullscreenenter"",""1"",""7772""
""blur"",""9"",""70381""
""focus"",""10"",""72352""
","""event"",""trial"",""time""
""blur"",""9"",""70381""
","""event"",""trial"",""time""
""focus"",""0"",""0""
""focus"",""10"",""72352""
","""event"",""trial"",""time""
""fullscreenenter"",""1"",""7772""
","
",,,,,,,,,,,,"[{""stimulus"":""run_exp/static/images/task_images/dig.jpg"",""time"":0},{""stimulus"":""run_exp/static/images/task_images/land.jpg"",""time"":970},{""stimulus"":""run_exp/static/images/task_images/dig.jpg"",""time"":2037}]",[],6,,,,,,,,,,,,,,
harvest,144,500794,0.0-45.0-1.0,"""event"",""trial"",""time""
""focus"",""0"",""0""
""fullscreenenter"",""1"",""7772""
""blur"",""9"",""70381""
""focus"",""10"",""72352""
","""event"",""trial"",""time""
""blur"",""9"",""70381""
","""event"",""trial"",""time""
""focus"",""0"",""0""
""focus"",""10"",""72352""
","""event"",""trial"",""time""
""fullscreenenter"",""1"",""7772""
","
",,null,run_exp/static/images/task_images/gems/62.jpg,null,,,,,,,48,,,6,,,,,62,0.780452799,0.774193548,,,,,,,
decision,145,500864,0.0-45.0-2.0,"""event"",""trial"",""time""
""focus"",""0"",""0""
""fullscreenenter"",""1"",""7772""
""blur"",""9"",""70381""
""focus"",""10"",""72352""
","""event"",""trial"",""time""
""blur"",""9"",""70381""
","""event"",""trial"",""time""
""focus"",""0"",""0""
""focus"",""10"",""72352""
","""event"",""trial"",""time""
""fullscreenenter"",""1"",""7772""
","
",,65,run_exp/static/images/task_images/land.jpg,65,,,,,,,48,,,6,,,,,,,,172716,1,2,FALSE,,,
dig,146,503976,0.0-46.0-0.0,"""event"",""trial"",""time""
""focus"",""0"",""0""
""fullscreenenter"",""1"",""7772""
""blur"",""9"",""70381""
""focus"",""10"",""72352""
","""event"",""trial"",""time""
""blur"",""9"",""70381""
","""event"",""trial"",""time""
""focus"",""0"",""0""
""focus"",""10"",""72352""
","""event"",""trial"",""time""
""fullscreenenter"",""1"",""7772""
","
",,,,,,,,,,,,"[{""stimulus"":""run_exp/static/images/task_images/dig.jpg"",""time"":0},{""stimulus"":""run_exp/static/images/task_images/land.jpg"",""time"":997},{""stimulus"":""run_exp/static/images/task_images/dig.jpg"",""time"":2099}]",[],6,,,,,,,,,,,,,,
harvest,147,505000,0.0-46.0-1.0,"""event"",""trial"",""time""
""focus"",""0"",""0""
""fullscreenenter"",""1"",""7772""
""blur"",""9"",""70381""
""focus"",""10"",""72352""
","""event"",""trial"",""time""
""blur"",""9"",""70381""
","""event"",""trial"",""time""
""focus"",""0"",""0""
""focus"",""10"",""72352""
","""event"",""trial"",""time""
""fullscreenenter"",""1"",""7772""
","
",,null,run_exp/static/images/task_images/gems/48.jpg,null,,,,,,,41,,,6,,,,,48,0.864144123,0.854166667,,,,,,,
decision,148,505149,0.0-46.0-2.0,"""event"",""trial"",""time""
""focus"",""0"",""0""
""fullscreenenter"",""1"",""7772""
""blur"",""9"",""70381""
""focus"",""10"",""72352""
","""event"",""trial"",""time""
""blur"",""9"",""70381""
","""event"",""trial"",""time""
""focus"",""0"",""0""
""focus"",""10"",""72352""
","""event"",""trial"",""time""
""fullscreenenter"",""1"",""7772""
","
",,147,run_exp/static/images/task_images/land.jpg,65,,,,,,,41,,,6,,,,,,,,177002,1,3,FALSE,,,
dig,149,508150,0.0-47.0-0.0,"""event"",""trial"",""time""
""focus"",""0"",""0""
""fullscreenenter"",""1"",""7772""
""blur"",""9"",""70381""
""focus"",""10"",""72352""
","""event"",""trial"",""time""
""blur"",""9"",""70381""
","""event"",""trial"",""time""
""focus"",""0"",""0""
""focus"",""10"",""72352""
","""event"",""trial"",""time""
""fullscreenenter"",""1"",""7772""
","
",,,,,,,,,,,,"[{""stimulus"":""run_exp/static/images/task_images/dig.jpg"",""time"":0},{""stimulus"":""run_exp/static/images/task_images/land.jpg"",""time"":990},{""stimulus"":""run_exp/static/images/task_images/dig.jpg"",""time"":2038}]",[],6,,,,,,,,,,,,,,
harvest,150,509203,0.0-47.0-1.0,"""event"",""trial"",""time""
""focus"",""0"",""0""
""fullscreenenter"",""1"",""7772""
""blur"",""9"",""70381""
""focus"",""10"",""72352""
","""event"",""trial"",""time""
""blur"",""9"",""70381""
","""event"",""trial"",""time""
""focus"",""0"",""0""
""focus"",""10"",""72352""
","""event"",""trial"",""time""
""fullscreenenter"",""1"",""7772""
","
",,null,run_exp/static/images/task_images/gems/41.jpg,null,,,,,,,36,,,6,,,,,41,0.874705053,0.87804878,,,,,,,
decision,151,509482,0.0-47.0-2.0,"""event"",""trial"",""time""
""focus"",""0"",""0""
""fullscreenenter"",""1"",""7772""
""blur"",""9"",""70381""
""focus"",""10"",""72352""
","""event"",""trial"",""time""
""blur"",""9"",""70381""
","""event"",""trial"",""time""
""focus"",""0"",""0""
""focus"",""10"",""72352""
","""event"",""trial"",""time""
""fullscreenenter"",""1"",""7772""
","
",,277,run_exp/static/images/task_images/land.jpg,65,,,,,,,36,,,6,,,,,,,,181334,1,4,FALSE,,,
dig,152,512242,0.0-48.0-0.0,"""event"",""trial"",""time""
""focus"",""0"",""0""
""fullscreenenter"",""1"",""7772""
""blur"",""9"",""70381""
""focus"",""10"",""72352""
","""event"",""trial"",""time""
""blur"",""9"",""70381""
","""event"",""trial"",""time""
""focus"",""0"",""0""
""focus"",""10"",""72352""
","""event"",""trial"",""time""
""fullscreenenter"",""1"",""7772""
","
",,,,,,,,,,,,"[{""stimulus"":""run_exp/static/images/task_images/dig.jpg"",""time"":0},{""stimulus"":""run_exp/static/images/task_images/land.jpg"",""time"":909},{""stimulus"":""run_exp/static/images/task_images/dig.jpg"",""time"":1825}]",[],6,,,,,,,,,,,,,,
harvest,153,513261,0.0-48.0-1.0,"""event"",""trial"",""time""
""focus"",""0"",""0""
""fullscreenenter"",""1"",""7772""
""blur"",""9"",""70381""
""focus"",""10"",""72352""
","""event"",""trial"",""time""
""blur"",""9"",""70381""
","""event"",""trial"",""time""
""focus"",""0"",""0""
""focus"",""10"",""72352""
","""event"",""trial"",""time""
""fullscreenenter"",""1"",""7772""
","
",,null,run_exp/static/images/task_images/gems/36.jpg,null,,,,,,,26,,,6,,,,,36,0.709736753,0.722222222,,,,,,,
decision,154,513448,0.0-48.0-2.0,"""event"",""trial"",""time""
""focus"",""0"",""0""
""fullscreenenter"",""1"",""7772""
""blur"",""9"",""70381""
""focus"",""10"",""72352""
","""event"",""trial"",""time""
""blur"",""9"",""70381""
","""event"",""trial"",""time""
""focus"",""0"",""0""
""focus"",""10"",""72352""
","""event"",""trial"",""time""
""fullscreenenter"",""1"",""7772""
","
",,184,run_exp/static/images/task_images/land.jpg,65,,,,,,,26,,,6,,,,,,,,185300,1,5,FALSE,,,
dig,155,516321,0.0-49.0-0.0,"""event"",""trial"",""time""
""focus"",""0"",""0""
""fullscreenenter"",""1"",""7772""
""blur"",""9"",""70381""
""focus"",""10"",""72352""
","""event"",""trial"",""time""
""blur"",""9"",""70381""
","""event"",""trial"",""time""
""focus"",""0"",""0""
""focus"",""10"",""72352""
","""event"",""trial"",""time""
""fullscreenenter"",""1"",""7772""
","
",,,,,,,,,,,,"[{""stimulus"":""run_exp/static/images/task_images/dig.jpg"",""time"":1},{""stimulus"":""run_exp/static/images/task_images/land.jpg"",""time"":971},{""stimulus"":""run_exp/static/images/task_images/dig.jpg"",""time"":1911}]",[],6,,,,,,,,,,,,,,
harvest,156,517377,0.0-49.0-1.0,"""event"",""trial"",""time""
""focus"",""0"",""0""
""fullscreenenter"",""1"",""7772""
""blur"",""9"",""70381""
""focus"",""10"",""72352""
","""event"",""trial"",""time""
""blur"",""9"",""70381""
","""event"",""trial"",""time""
""focus"",""0"",""0""
""focus"",""10"",""72352""
","""event"",""trial"",""time""
""fullscreenenter"",""1"",""7772""
","
",,null,run_exp/static/images/task_images/gems/26.jpg,null,,,,,,,20,,,6,,,,,26,0.758465489,0.769230769,,,,,,,
decision,157,517394,0.0-49.0-2.0,"""event"",""trial"",""time""
""focus"",""0"",""0""
""fullscreenenter"",""1"",""7772""
""blur"",""9"",""70381""
""focus"",""10"",""72352""
","""event"",""trial"",""time""
""blur"",""9"",""70381""
","""event"",""trial"",""time""
""focus"",""0"",""0""
""focus"",""10"",""72352""
","""event"",""trial"",""time""
""fullscreenenter"",""1"",""7772""
","
",,15,run_exp/static/images/task_images/land.jpg,65,,,,,,,20,,,6,,,,,,,,189246,1,6,FALSE,,,
dig,158,520527,0.0-50.0-0.0,"""event"",""trial"",""time""
""focus"",""0"",""0""
""fullscreenenter"",""1"",""7772""
""blur"",""9"",""70381""
""focus"",""10"",""72352""
","""event"",""trial"",""time""
""blur"",""9"",""70381""
","""event"",""trial"",""time""
""focus"",""0"",""0""
""focus"",""10"",""72352""
","""event"",""trial"",""time""
""fullscreenenter"",""1"",""7772""
","
",,,,,,,,,,,,"[{""stimulus"":""run_exp/static/images/task_images/dig.jpg"",""time"":0},{""stimulus"":""run_exp/static/images/task_images/land.jpg"",""time"":998},{""stimulus"":""run_exp/static/images/task_images/dig.jpg"",""time"":2114}]",[],6,,,,,,,,,,,,,,
harvest,159,521530,0.0-50.0-1.0,"""event"",""trial"",""time""
""focus"",""0"",""0""
""fullscreenenter"",""1"",""7772""
""blur"",""9"",""70381""
""focus"",""10"",""72352""
","""event"",""trial"",""time""
""blur"",""9"",""70381""
","""event"",""trial"",""time""
""focus"",""0"",""0""
""focus"",""10"",""72352""
","""event"",""trial"",""time""
""fullscreenenter"",""1"",""7772""
","
",,null,run_exp/static/images/task_images/gems/20.jpg,null,,,,,,,15,,,6,,,,,20,0.732805271,0.75,,,,,,,
decision,160,521776,0.0-50.0-2.0,"""event"",""trial"",""time""
""focus"",""0"",""0""
""fullscreenenter"",""1"",""7772""
""blur"",""9"",""70381""
""focus"",""10"",""72352""
","""event"",""trial"",""time""
""blur"",""9"",""70381""
","""event"",""trial"",""time""
""focus"",""0"",""0""
""focus"",""10"",""72352""
","""event"",""trial"",""time""
""fullscreenenter"",""1"",""7772""
","
",,243,run_exp/static/images/task_images/land.jpg,65,,,,,,,15,,,6,,,,,,,,193628,1,7,FALSE,,,
dig,161,524592,0.0-51.0-0.0,"""event"",""trial"",""time""
""focus"",""0"",""0""
""fullscreenenter"",""1"",""7772""
""blur"",""9"",""70381""
""focus"",""10"",""72352""
","""event"",""trial"",""time""
""blur"",""9"",""70381""
","""event"",""trial"",""time""
""focus"",""0"",""0""
""focus"",""10"",""72352""
","""event"",""trial"",""time""
""fullscreenenter"",""1"",""7772""
","
",,,,,,,,,,,,"[{""stimulus"":""run_exp/static/images/task_images/dig.jpg"",""time"":1},{""stimulus"":""run_exp/static/images/task_images/land.jpg"",""time"":946},{""stimulus"":""run_exp/static/images/task_images/dig.jpg"",""time"":1868}]",[],6,,,,,,,,,,,,,,
harvest,162,525664,0.0-51.0-1.0,"""event"",""trial"",""time""
""focus"",""0"",""0""
""fullscreenenter"",""1"",""7772""
""blur"",""9"",""70381""
""focus"",""10"",""72352""
","""event"",""trial"",""time""
""blur"",""9"",""70381""
","""event"",""trial"",""time""
""focus"",""0"",""0""
""focus"",""10"",""72352""
","""event"",""trial"",""time""
""fullscreenenter"",""1"",""7772""
","
",,null,run_exp/static/images/task_images/gems/15.jpg,null,,,,,,,12,,,6,,,,,15,0.821107074,0.8,,,,,,,
decision,163,525831,0.0-51.0-2.0,"""event"",""trial"",""time""
""focus"",""0"",""0""
""fullscreenenter"",""1"",""7772""
""blur"",""9"",""70381""
""focus"",""10"",""72352""
","""event"",""trial"",""time""
""blur"",""9"",""70381""
","""event"",""trial"",""time""
""focus"",""0"",""0""
""focus"",""10"",""72352""
","""event"",""trial"",""time""
""fullscreenenter"",""1"",""7772""
","
",,166,run_exp/static/images/task_images/land.jpg,65,,,,,,,12,,,6,,,,,,,,197683,1,8,FALSE,,,
dig,164,528709,0.0-52.0-0.0,"""event"",""trial"",""time""
""focus"",""0"",""0""
""fullscreenenter"",""1"",""7772""
""blur"",""9"",""70381""
""focus"",""10"",""72352""
","""event"",""trial"",""time""
""blur"",""9"",""70381""
","""event"",""trial"",""time""
""focus"",""0"",""0""
""focus"",""10"",""72352""
","""event"",""trial"",""time""
""fullscreenenter"",""1"",""7772""
","
",,,,,,,,,,,,"[{""stimulus"":""run_exp/static/images/task_images/dig.jpg"",""time"":0},{""stimulus"":""run_exp/static/images/task_images/land.jpg"",""time"":959},{""stimulus"":""run_exp/static/images/task_images/dig.jpg"",""time"":1916}]",[],6,,,,,,,,,,,,,,
harvest,165,529765,0.0-52.0-1.0,"""event"",""trial"",""time""
""focus"",""0"",""0""
""fullscreenenter"",""1"",""7772""
""blur"",""9"",""70381""
""focus"",""10"",""72352""
","""event"",""trial"",""time""
""blur"",""9"",""70381""
","""event"",""trial"",""time""
""focus"",""0"",""0""
""focus"",""10"",""72352""
","""event"",""trial"",""time""
""fullscreenenter"",""1"",""7772""
","
",,null,run_exp/static/images/task_images/gems/12.jpg,null,,,,,,,10,,,6,,,,,12,0.830623363,0.833333333,,,,,,,
decision,166,532773,0.0-52.0-2.0,"""event"",""trial"",""time""
""focus"",""0"",""0""
""fullscreenenter"",""1"",""7772""
""blur"",""9"",""70381""
""focus"",""10"",""72352""
","""event"",""trial"",""time""
""blur"",""9"",""70381""
","""event"",""trial"",""time""
""focus"",""0"",""0""
""focus"",""10"",""72352""
","""event"",""trial"",""time""
""fullscreenenter"",""1"",""7772""
","
",,null,run_exp/static/images/task_images/land.jpg,null,,,,,,,10,,,6,,,,,,,,204625,1,9,FALSE,,,
time_out,167,535013,0.0-53.0-0.0,"""event"",""trial"",""time""
""focus"",""0"",""0""
""fullscreenenter"",""1"",""7772""
""blur"",""9"",""70381""
""focus"",""10"",""72352""
","""event"",""trial"",""time""
""blur"",""9"",""70381""
","""event"",""trial"",""time""
