trial_type,trial_index,time_elapsed,internal_node_id,success,rt,stimulus,key_press,prompt,subject_id,age,gender,button_pressed,next_reward,animation_sequence,responses,planet,curr_prac_trial,n_prac_rounds,alien,aliens,reward_received,decay_rate_actual,decay_rate_exp,time_in_block,block_num,prt,last_trial_on_planet,button_html,bonus,num_failures
pavlovia,0,14,0.0-0.0,,,,,,,,,,,,,,,,,,,,,,,,,,,
fullscreen,1,9404,0.0-1.0,TRUE,,,,,,,,,,,,,,,,,,,,,,,,,,
instruc_welcome,2,19308,0.0-2.0,,null,run_exp/static/audio/clip_1_welcome.m4a,null,"<p>Howdy! In this experiment, you’ll be an explorer traveling through space to collect space treasure.</p><p>Your mission is to collect as much treasure as possible.</p><br><br><p><img src='run_exp/static/images/task_images/opening_img-01.jpg' height='300' width='auto'></p>",trEiwhVO8K99ZMh_a5Ke5UddwllDBGZ_MLRP_3TVn052vxRZU0V8,9.64,female,,,,,,,,,,,,,,,,,,,
audio-keyboard-response,3,35898,0.0-3.0,,null,run_exp/static/audio/clip_2_move.m4a,null,,,,,,,,,,,,,,,,,,,,,,,
welcome_dec,4,36306,0.0-4.0,,403.405,"<p>Howdy! In this experiment, you’ll be an explorer traveling through space to collect space treasure.</p><p>Your mission is to collect as much treasure as possible.</p><br><br><p><img src='run_exp/static/images/task_images/opening_img-01.jpg' height='300' width='auto'></p>",,,,,,1,,,,,,,,,,,,,,,,,,
html-keyboard-response,5,37376,0.0-5.0,,1065.88,"<p>Howdy! In this experiment, you’ll be an explorer traveling through space to collect space treasure.</p><p>Your mission is to collect as much treasure as possible.</p><br><br><p><img src='run_exp/static/images/task_images/opening_img-01.jpg' height='300' width='auto'></p><button class=""jspsych-html-btn-unchosen""><img src=""run_exp/static/images/task_images/planet-01.jpg"" height=""50""></button><button class=""jspsych-html-btn-chosen""><img src=""run_exp/static/images/task_images/planet-02.jpg"" height=""50""></button><p><b>[press the space bar to lock in your answer]<b><br></p>",32,,,,,,,,,,,,,,,,,,,,,,,
instruc_goal,6,47439,0.0-6.0-0.0,,null,run_exp/static/audio/clip_3_goal.m4a,null,"<p> As a space explorer, you’ll visit different planets to dig for space treasure, these pink gems.</p> <p> The more treasure you dig up, the more bonus money you’ll win! </p><br><br><p><img src='run_exp/static/images/task_images/pink_gem.jpg' height='300' width='auto'></p>",,,,,,,,,,,,,,,,,,,,,,
instruc_goal,7,49108,0.0-6.0-1.0,,1666.33,"<p> As a space explorer, you’ll visit different planets to dig for space treasure, these pink gems.</p> <p> The more treasure you dig up, the more bonus money you’ll win! </p><br><br><p><img src='run_exp/static/images/task_images/pink_gem.jpg' height='300' width='auto'></p>",,,,,,1,,,,,,,,,,,,,,,,,,
html-keyboard-response,8,49309,0.0-6.0-2.0,,199.685,"<p> As a space explorer, you’ll visit different planets to dig for space treasure, these pink gems.</p> <p> The more treasure you dig up, the more bonus money you’ll win! </p><br><br><p><img src='run_exp/static/images/task_images/pink_gem.jpg' height='300' width='auto'></p><button class=""jspsych-html-btn-unchosen""><img src=""run_exp/static/images/task_images/planet-01.jpg"" height=""50""></button><button class=""jspsych-html-btn-chosen""><img src=""run_exp/static/images/task_images/planet-02.jpg"" height=""50""></button><p><b>[press the space bar to lock in your answer]<b><br></p>",32,,,,,,,,,,,,,,,,,,,,,,,
instruc_dig,9,65341,0.0-7.0-0.0,,null,run_exp/static/audio/clip_4_dig.m4a,null,,,,,,100,,,,,,,,,,,,,,,,,
instruc_dig_try,10,65451,0.0-7.0-1.0,,108.03,"<p> When you’ve arrived at a new planet, you will dig once. </p> <p>Then, you get to decide if you want to stay on the planet and dig again or travel to a new planet and dig there.</p> <p> To stay and dig, press the letter <strong>‘A’</strong> on your keyboard. Try pressing it now! </p><p><img src='run_exp/static/images/task_images/land.jpg'  height='700' width='auto'></p>",65,"<p> When you’ve arrived at a new planet, you will dig once. </p> <p>Then, you get to decide if you want to stay on the planet and dig again or travel to a new planet and dig there.</p> <p> To stay and dig, press the letter <strong>‘A’</strong> on your keyboard. Try pressing it now! </p><p><img src='run_exp/static/images/task_images/land.jpg'  height='700' width='auto'></p>",,,,,100,,,,,,,,,,,,,,,,,
dig_prac,11,67472,0.0-7.0-2.0,,,,,,,,,,,"[{""stimulus"":""run_exp/static/images/task_images/dig.jpg"",""time"":0.3600000000005821},{""stimulus"":""run_exp/static/images/task_images/land.jpg"",""time"":671.460000000021},{""stimulus"":""run_exp/static/images/task_images/dig.jpg"",""time"":1339.6899999997986}]",[],,,,,,,,,,,,,,,
instruc_travel,12,103701,0.0-7.0-3.0,,null,run_exp/static/audio/clip_5_travel.m4a,null,"<p>Every time you dig up gems, there are less gems on the planet, so the more you dig on a planet the fewer gems you’ll get with each dig.</p><p>When gems are running low, you may want to travel to a new planet. </p> <p>  Planets are very far apart in this galaxy, so it will take some time to travel between them. </p> <br><p>There are lots and lots of planets for you to visit, so you won’t be able to return to any planets you’ve seen before. </p><br><p>To leave this planet and travel to a new one, press the letter <strong>‘L’</strong> on your keyboard. Try pressing it now! </p><p><img src='run_exp/static/images/task_images/rocket-01.jpg'  height='600' width='auto'></p>",,,,,,,,,,,,,,,,,,,,,,
instruc_travel_try,13,104552,0.0-7.0-4.0,,848.855,"<p>Every time you dig up gems, there are less gems on the planet, so the more you dig on a planet the fewer gems you’ll get with each dig.</p><p>When gems are running low, you may want to travel to a new planet. </p> <p>  Planets are very far apart in this galaxy, so it will take some time to travel between them. </p> <br><p>There are lots and lots of planets for you to visit, so you won’t be able to return to any planets you’ve seen before. </p><br><p>To leave this planet and travel to a new one, press the letter <strong>‘L’</strong> on your keyboard. Try pressing it now! </p><p><img src='run_exp/static/images/task_images/rocket-01.jpg'  height='600' width='auto'></p>",76,"<p>Every time you dig up gems, there are less gems on the planet, so the more you dig on a planet the fewer gems you’ll get with each dig.</p><p>When gems are running low, you may want to travel to a new planet. </p> <p>  Planets are very far apart in this galaxy, so it will take some time to travel between them. </p> <br><p>There are lots and lots of planets for you to visit, so you won’t be able to return to any planets you’ve seen before. </p><br><p>To leave this planet and travel to a new one, press the letter <strong>‘L’</strong> on your keyboard. Try pressing it now! </p><p><img src='run_exp/static/images/task_images/rocket-01.jpg'  height='600' width='auto'></p>",,,,,,,,,,,,,,,,,,,,,,
travel_prac,14,114556,0.0-7.0-5.0,,,,,,,,,,,"[{""stimulus"":""run_exp/static/images/task_images/rocket-01.jpg"",""time"":0.3099999999103602},{""stimulus"":""run_exp/static/images/task_images/rocket-02.jpg"",""time"":1117.420000000042},{""stimulus"":""run_exp/static/images/task_images/rocket-03.jpg"",""time"":2226.255000000063},{""stimulus"":""run_exp/static/images/task_images/rocket-04.jpg"",""time"":3338.584999999992},{""stimulus"":""run_exp/static/images/task_images/rocket-05.jpg"",""time"":4448.159999999916},{""stimulus"":""run_exp/static/images/task_images/rocket-06.jpg"",""time"":5561.369999999908},{""stimulus"":""run_exp/static/images/task_images/rocket-07.jpg"",""time"":6669.989999999874},{""stimulus"":""run_exp/static/images/task_images/rocket-08.jpg"",""time"":7780.854999999981},{""stimulus"":""run_exp/static/images/task_images/rocket-09.jpg"",""time"":8889.319999999774}]",[],0,,,,,,,,,,,,,,
instruc_alien_greet,15,141922,0.0-7.0-6.0,,null,run_exp/static/audio/clip_6_alien.m4a,null,"<p>When you arrive at a new planet, the alien who owns the treasure mine on that planet will greet you!</p><p>The better an alien takes care of their mine the easier it is to dig for gems. Some aliens take better care of their mine than others. So, you won’t get exactly the same amount of gems on each planet.</p><p>What the alien looks like does not tell you anything about how many gems there are on the planet.</p><br><p><img src=""run_exp/static/images/task_images/aliens/instructions_aliens/planet/alien_planet-1.jpg""  height=""600"" width=""auto""></p>",,,,,,,,,,,,,,,,,,,,,,
instruc_alien_greet,16,148709,0.0-7.0-7.0,,6768.52,"<p>When you arrive at a new planet, the alien who owns the treasure mine on that planet will greet you!</p><p>The better an alien takes care of their mine the easier it is to dig for gems. Some aliens take better care of their mine than others. So, you won’t get exactly the same amount of gems on each planet.</p><p>What the alien looks like does not tell you anything about how many gems there are on the planet.</p><br><p><img src=""run_exp/static/images/task_images/aliens/instructions_aliens/planet/alien_planet-1.jpg""  height=""600"" width=""auto""></p>",,,,,,1,,,,,,,,,,,,,,,,,,
html-keyboard-response,17,149893,0.0-7.0-8.0,,1181.445,"<p>When you arrive at a new planet, the alien who owns the treasure mine on that planet will greet you!</p><p>The better an alien takes care of their mine the easier it is to dig for gems. Some aliens take better care of their mine than others. So, you won’t get exactly the same amount of gems on each planet.</p><p>What the alien looks like does not tell you anything about how many gems there are on the planet.</p><br><p><img src=""run_exp/static/images/task_images/aliens/instructions_aliens/planet/alien_planet-1.jpg""  height=""600"" width=""auto""></p><button class=""jspsych-html-btn-unchosen""><img src=""run_exp/static/images/task_images/planet-01.jpg"" height=""50""></button><button class=""jspsych-html-btn-chosen""><img src=""run_exp/static/images/task_images/planet-02.jpg"" height=""50""></button><p><b>[press the space bar to lock in your answer]<b><br></p>",32,,,,,,,,,,,,,,,,,,,,,,,
time_out,18,160986,0.0-8.0-0.0,,null,run_exp/static/audio/clip_7_timeout.m4a,null,"<p>If you don't make your choice fast enough, you’ll have to wait a few seconds before you can make another one.</p><p>You can’t dig for more gems or travel to new planets. You just have to sit and wait.</p><br><p><img src='run_exp/static/images/task_images/time_out.jpg'  height='600' width='auto'></p>",,,,,,,,,,,,,,,,,,,,,,
time_out,19,163838,0.0-8.0-1.0,,2835.635,"<p>If you don't make your choice fast enough, you’ll have to wait a few seconds before you can make another one.</p><p>You can’t dig for more gems or travel to new planets. You just have to sit and wait.</p><br><p><img src='run_exp/static/images/task_images/time_out.jpg'  height='600' width='auto'></p>",,,,,,1,,,,,,,,,,,,,,,,,,
html-keyboard-response,20,164015,0.0-8.0-2.0,,174.83,"<p>If you don't make your choice fast enough, you’ll have to wait a few seconds before you can make another one.</p><p>You can’t dig for more gems or travel to new planets. You just have to sit and wait.</p><br><p><img src='run_exp/static/images/task_images/time_out.jpg'  height='600' width='auto'></p><button class=""jspsych-html-btn-unchosen""><img src=""run_exp/static/images/task_images/planet-01.jpg"" height=""50""></button><button class=""jspsych-html-btn-chosen""><img src=""run_exp/static/images/task_images/planet-02.jpg"" height=""50""></button><p><b>[press the space bar to lock in your answer]<b><br></p>",32,,,,,,,,,,,,,,,,,,,,,,,
instruc_break,21,179679,0.0-9.0-0.0,,null,run_exp/static/audio/clip_8_break.m4a,null,"<p> After digging and traveling for a while, you’ll be able to take a break at home base. </p><p>The game will last 20 minutes no matter what.</p><p>You will visit home base every 5 minutes, so, you will visit home base three times during the game.</p><br><p><img src='run_exp/static/images/task_images/home_base.jpg' height='600' width='auto'></p>",,,,,,,,,,,,,,,,,,,,,,
instruc_break,22,182663,0.0-9.0-1.0,,2981.165,"<p> After digging and traveling for a while, you’ll be able to take a break at home base. </p><p>The game will last 20 minutes no matter what.</p><p>You will visit home base every 5 minutes, so, you will visit home base three times during the game.</p><br><p><img src='run_exp/static/images/task_images/home_base.jpg' height='600' width='auto'></p>",,,,,,1,,,,,,,,,,,,,,,,,,
html-keyboard-response,23,183894,0.0-9.0-2.0,,1228.88,"<p> After digging and traveling for a while, you’ll be able to take a break at home base. </p><p>The game will last 20 minutes no matter what.</p><p>You will visit home base every 5 minutes, so, you will visit home base three times during the game.</p><br><p><img src='run_exp/static/images/task_images/home_base.jpg' height='600' width='auto'></p><button class=""jspsych-html-btn-unchosen""><img src=""run_exp/static/images/task_images/planet-01.jpg"" height=""50""></button><button class=""jspsych-html-btn-chosen""><img src=""run_exp/static/images/task_images/planet-02.jpg"" height=""50""></button><p><b>[press the space bar to lock in your answer]<b><br></p>",32,,,,,,,,,,,,,,,,,,,,,,,
instruc_prac_game,24,194029,0.0-10.0-0.0,,null,run_exp/static/audio/clip_9_practice.m4a,null,"<p> Are you ready to play a practice game? </p> <p>In this practice game, you'll be digging up barrels of gems. But, in the real game, you'll be digging up the gems themselves. </p>",,,,,,,,,,,,,,,,,,,,,,
html-button-response,25,195726,0.0-10.0-1.0,,1678.89,"<p> Are you ready to play a practice game? </p> <p>In this practice game, you'll be digging up barrels of gems. But, in the real game, you'll be digging up the gems themselves. </p>",,,,,,0,,,,,,,,,,,,,,,,,,
alien_welcome_prac,26,200733,0.0-11.0-0.0,,null,run_exp/static/images/task_images/aliens/practice_aliens/planet/alien_planet-5.jpg,null,,,,,,,,,,,,,,,,,,,,,,,
land_prac,27,201240,0.0-11.0-1.0,,null,run_exp/static/images/task_images/land.jpg,null,,,,,,102,,,0,,,,,,,,,,,,,,
dig_prac,28,203258,0.0-11.0-2.0,,,,,,,,,,,"[{""stimulus"":""run_exp/static/images/task_images/dig.jpg"",""time"":0.35999999998603016},{""stimulus"":""run_exp/static/images/task_images/land.jpg"",""time"":671.3450000002049},{""stimulus"":""run_exp/static/images/task_images/dig.jpg"",""time"":1338.365000000049}]",[],,,,,,,,,,,,,,,
harvest_prac,29,204260,0.0-11.0-3.0,,null,run_exp/static/images/task_images/barrel_text.jpg,null,,,,,,,,,,,,,,,,,,,,,,,
decision_prac,30,205860,0.0-11.0-4.0,,1598.445,run_exp/static/images/task_images/land.jpg,65,,,,,,,,,,1,,,,,,,,,,,,,
dig_prac,31,207868,0.0-12.0-0.0,,,,,,,,,,,"[{""stimulus"":""run_exp/static/images/task_images/dig.jpg"",""time"":0.19999999995343387},{""stimulus"":""run_exp/static/images/task_images/land.jpg"",""time"":673.2449999999371},{""stimulus"":""run_exp/static/images/task_images/dig.jpg"",""time"":1339.944999999716}]",[],,,,,,,,,,,,,,,
harvest_prac,32,208874,0.0-12.0-1.0,,null,run_exp/static/images/task_images/barrel_text.jpg,null,,,,,,,,,,,,,,,,,,,,,,,
decision_prac,33,209666,0.0-12.0-2.0,,789.65,run_exp/static/images/task_images/land.jpg,65,,,,,,,,,,2,,,,,,,,,,,,,
dig_prac,34,211676,0.0-13.0-0.0,,,,,,,,,,,"[{""stimulus"":""run_exp/static/images/task_images/dig.jpg"",""time"":0.23999999984516762},{""stimulus"":""run_exp/static/images/task_images/land.jpg"",""time"":668.6049999998359},{""stimulus"":""run_exp/static/images/task_images/dig.jpg"",""time"":1340.5149999998685}]",[],,,,,,,,,,,,,,,
harvest_prac,35,212683,0.0-13.0-1.0,,null,run_exp/static/images/task_images/barrel_text.jpg,null,,,,,,,,,,,,,,,,,,,,,,,
decision_prac,36,212704,0.0-13.0-2.0,,19.48,run_exp/static/images/task_images/land.jpg,76,,,,,,,,,,3,,,,,,,,,,,,,
travel,37,222683,0.0-14.0-0.0,,,,,,,,,,,"[{""stimulus"":""run_exp/static/images/task_images/rocket-01.jpg"",""time"":0.39500000001862645},{""stimulus"":""run_exp/static/images/task_images/rocket-02.jpg"",""time"":1114.5449999999255},{""stimulus"":""run_exp/static/images/task_images/rocket-03.jpg"",""time"":2218.9600000001665},{""stimulus"":""run_exp/static/images/task_images/rocket-04.jpg"",""time"":3325.635000000155},{""stimulus"":""run_exp/static/images/task_images/rocket-05.jpg"",""time"":4434.780000000057},{""stimulus"":""run_exp/static/images/task_images/rocket-06.jpg"",""time"":5543.700000000186},{""stimulus"":""run_exp/static/images/task_images/rocket-07.jpg"",""time"":6652.439999999857},{""stimulus"":""run_exp/static/images/task_images/rocket-08.jpg"",""time"":7762.360000000161},{""stimulus"":""run_exp/static/images/task_images/rocket-09.jpg"",""time"":8869.970000000205}]",[],0,,,,,,,,,,,,,,
alien_welcome_prac,38,227690,0.0-14.0-1.0,,null,run_exp/static/images/task_images/aliens/practice_aliens/planet/alien_planet-4.jpg,null,,,,,,,,,,,,,,,,,,,,,,,
land_prac,39,228195,0.0-14.0-2.0,,null,run_exp/static/images/task_images/land.jpg,null,,,,,,102,,,0,,,,,,,,,,,,,,
dig_prac,40,230204,0.0-14.0-3.0,,,,,,,,,,,"[{""stimulus"":""run_exp/static/images/task_images/dig.jpg"",""time"":0.34000000002561137},{""stimulus"":""run_exp/static/images/task_images/land.jpg"",""time"":670.0700000001234},{""stimulus"":""run_exp/static/images/task_images/dig.jpg"",""time"":1336.490000000107}]",[],,,,,,,,,,,,,,,
harvest_prac,41,231206,0.0-14.0-4.0,,null,run_exp/static/images/task_images/barrel_text.jpg,null,,,,,,,,,,,,,,,,,,,,,,,
decision_prac,42,231401,0.0-14.0-5.0,,193.65,run_exp/static/images/task_images/land.jpg,65,,,,,,,,,,4,,,,,,,,,,,,,
dig_prac,43,233408,0.0-15.0-0.0,,,,,,,,,,,"[{""stimulus"":""run_exp/static/images/task_images/dig.jpg"",""time"":0.18499999988125637},{""stimulus"":""run_exp/static/images/task_images/land.jpg"",""time"":668.5549999997602},{""stimulus"":""run_exp/static/images/task_images/dig.jpg"",""time"":1335.859999999695}]",[],,,,,,,,,,,,,,,
harvest_prac,44,234415,0.0-15.0-1.0,,null,run_exp/static/images/task_images/barrel_text.jpg,null,,,,,,,,,,,,,,,,,,,,,,,
decision_prac,45,234485,0.0-15.0-2.0,,68.355,run_exp/static/images/task_images/land.jpg,65,,,,,,,,,,,1,,,,,,,,,,,,
quiz_instruc,46,245367,0.0-16.0-0.0,,10876.46,run_exp/static/audio/clip_10_quiz.m4a,,,,,,0,,,,,,,,,,,,,,,,,,
instruc_repeat,47,288166,0.0-16.0-1.0,,null,"<p> Are you ready to play a practice game? </p> <p>In this practice game, you'll be digging up barrels of gems. But, in the real game, you'll be digging up the gems themselves. </p>",null,"<p>In this game, your goal is to collect as many gems as you can. That’s how you will win bonus money. </p> <p>The entire game will last 20 minutes no matter how many gems you collect or how many planets you visit. </p><p>To stay on a planet and dig again, press the letter A on your keyboard. To leave for a new planet, press the letter L.</p><p>The more you dig on a planet, the fewer gems you’ll get with each dig which is why you might consider leaving for a new planet. </p><p>When you arrive at a new planet, you’ll be greeted by an alien. What the alien looks like does not tell you anything about how much treasure is on the planet. </p>",,,,,,,,,,,,,,,,,,,,,,
instruc_repeat_continue,48,294105,0.0-16.0-2.0,,5936.385,"<p> Are you ready to play a practice game? </p> <p>In this practice game, you'll be digging up barrels of gems. But, in the real game, you'll be digging up the gems themselves. </p>",,,,,,0,,,,,,,,,,,,,,,,,,
quiz_q_1_ask,49,298796,0.0-16.0-3.0,,4688.72,run_exp/static/audio/clip_11_q1_ask.m4a,,,,,,2,,,,,,,,,,,,,,,,,,
quiz_q_1_fb_correct,50,302655,0.0-17.0-0.0,,null,run_exp/static/audio/clip_12_q1_corrrect.m4a,null,<p>That’s correct. You win extra money by collecting more gems.</p>,,,,,,,,,,,,,,,,,,,,,,
quiz_q_2_ask,51,306696,0.0-17.0-1.0,,4038.245,run_exp/static/audio/clip_14_q2_ask.m4a,,,,,,1,,,,,,,,,,,,,,,,,,
quiz_q_2_fb_correct,52,310690,0.0-18.0-0.0,,null,run_exp/static/audio/clip_15_q2_correct.m4a,null,<p>That’s correct. The experiment is 20 minutes no matter what.</p>,,,,,,,,,,,,,,,,,,,,,,
quiz_q_3_ask,53,313518,0.0-18.0-1.0,,2825.795,run_exp/static/audio/clip_17_q3_ask.m4a,,,,,,1,,,,,,,,,,,,,,,,,,
quiz_q_3_fb_correct,54,317493,0.0-19.0-0.0,,null,run_exp/static/audio/clip_18_q3_correct.m4a,null,<p> That’s correct. You press the letter L to travel to a new planet.</p>,,,,,,,,,,,,,,,,,,,,,,
quiz_q_4_ask,55,322850,0.0-19.0-1.0,,5354.18,run_exp/static/audio/clip_20_q4_ask.m4a,,,,,,0,,,,,,,,,,,,,,,,,,
quiz_q_4_fb_correct,56,328175,0.0-20.0-0.0,,null,run_exp/static/audio/clip_21_q4_correct.m4a,null,<p> That’s correct. The more you dig on a planet the fewer gems you’ll get with each dig. </p>,,,,,,,,,,,,,,,,,,,,,,
quiz_q_5_ask,57,332170,0.0-20.0-1.0,,3990.43,run_exp/static/audio/clip_23_q5_ask.m4a,,,,,,1,,,,,,,,,,,,,,,,,,
quiz_q_5_fb_correct,58,337184,0.0-21.0-0.0,,null,run_exp/static/audio/clip_24_q5_correct.m4a,null,<p> That’s correct. The alien tells you nothing about how much treasure is on the planet.</p>,,,,,,,,,,,,,,,,,,,,,,
quiz_correct,59,340622,0.0-22.0-0.0,,null,run_exp/static/audio/clip_26_correct_quiz.m4a,null,,,,,,,,,,,,,,,,,,,,,,,
quiz_correct_continue,60,342374,0.0-22.0-1.0,,1750.925,<p>Good job! You're now ready to move on to the real game!</p>,,,,,,0,,,,,,,,,,,,,,,,,,
audio-keyboard-response,61,352510,0.0-22.0-2.0,,null,run_exp/static/audio/clip_28_real_game.m4a,null,,,,,,,,,,,,,,,,,,,,,,,
instruc_begin_exp_contine,62,354696,0.0-22.0-3.0,,2183.6,"<p>Now that you know how  to dig for space treasure and travel to new planets,you can start exploring! </p><p>Do you want to go over the instructions again or get started with the real game?</p>",,,,,,1,,,,,,1,,,,,,,,,,,,
alien_welcome,63,359707,0.0-23.0-0.0,,null,run_exp/static/images/task_images/aliens/old_aliens/planet/alien_planet-47.jpg,null,,,,,,,,,,,,47,"47,50,37,76,54,71,26,41,11,60,1,23,17,65,30,56,14,35,5,9,72,39,18,43,31,73,21,44,28,45,24,34,80,66,20,16,57,36,42,55,64,59,25,77,70",,,,,,,,,,
land,64,360214,0.0-23.0-1.0,,null,run_exp/static/images/task_images/land.jpg,null,,,,,,107,,,1,,,,,,,,,,,,,,
dig,65,362221,0.0-23.0-2.0,,,,,,,,,,,"[{""stimulus"":""run_exp/static/images/task_images/dig.jpg"",""time"":0.34000000002561137},{""stimulus"":""run_exp/static/images/task_images/land.jpg"",""time"":673.4200000000419},{""stimulus"":""run_exp/static/images/task_images/dig.jpg"",""time"":1340.4250000002794}]",[],1,,,,,,,,,,,,,,
harvest,66,363224,0.0-23.0-3.0,,null,run_exp/static/images/task_images/gems/107.jpg,null,,,,,,21,,,1,,,,,107,0.2004569,0.196261682,,,,,,,
decision,67,363900,0.0-23.0-4.0,,674.54,run_exp/static/images/task_images/land.jpg,65,,,,,,21,,,1,,,,,,,,9201,1,0,FALSE,,,
dig,68,366231,0.0-24.0-0.0,,,,,,,,,,,"[{""stimulus"":""run_exp/static/images/task_images/dig.jpg"",""time"":0.16000000009080395},{""stimulus"":""run_exp/static/images/task_images/land.jpg"",""time"":780.6499999997322},{""stimulus"":""run_exp/static/images/task_images/dig.jpg"",""time"":1551.5249999999069}]",[],1,,,,,,,,,,,,,,
harvest,69,367237,0.0-24.0-1.0,,null,run_exp/static/images/task_images/gems/21.jpg,null,,,,,,4,,,1,,,,,21,0.191549583,0.19047619,,,,,,,
decision,70,367779,0.0-24.0-2.0,,540,run_exp/static/images/task_images/land.jpg,76,,,,,,4,,,1,,,,,,,,13079,1,1,TRUE,,,
travel,71,377243,0.0-25.0-0.0,,,,,,,,,,,"[{""stimulus"":""run_exp/static/images/task_images/rocket-01.jpg"",""time"":0.2599999997764826},{""stimulus"":""run_exp/static/images/task_images/rocket-02.jpg"",""time"":1057.2900000001537},{""stimulus"":""run_exp/static/images/task_images/rocket-03.jpg"",""time"":2107.0249999997905},{""stimulus"":""run_exp/static/images/task_images/rocket-04.jpg"",""time"":3159.1300000000047},{""stimulus"":""run_exp/static/images/task_images/rocket-05.jpg"",""time"":4209.115000000107},{""stimulus"":""run_exp/static/images/task_images/rocket-06.jpg"",""time"":5259.399999999907},{""stimulus"":""run_exp/static/images/task_images/rocket-07.jpg"",""time"":6309.084999999846},{""stimulus"":""run_exp/static/images/task_images/rocket-08.jpg"",""time"":7359.170000000158},{""stimulus"":""run_exp/static/images/task_images/rocket-09.jpg"",""time"":8411.895000000193}]",[],1,,,,,,,,,,,,,,
alien_welcome,72,382247,0.0-25.0-1.0,,null,run_exp/static/images/task_images/aliens/old_aliens/planet/alien_planet-50.jpg,null,,,,,,,,,,,,50,"47,50,37,76,54,71,26,41,11,60,1,23,17,65,30,56,14,35,5,9,72,39,18,43,31,73,21,44,28,45,24,34,80,66,20,16,57,36,42,55,64,59,25,77,70",,,,,,,,,,
land,73,382751,0.0-25.0-2.0,,null,run_exp/static/images/task_images/land.jpg,null,,,,,,103,,,2,,,,,,,,,,,,,,
dig,74,384756,0.0-25.0-3.0,,,,,,,,,,,"[{""stimulus"":""run_exp/static/images/task_images/dig.jpg"",""time"":0.33500000019557774},{""stimulus"":""run_exp/static/images/task_images/land.jpg"",""time"":672.9900000000489},{""stimulus"":""run_exp/static/images/task_images/dig.jpg"",""time"":1339.9300000001094}]",[],2,,,,,,,,,,,,,,
harvest,75,385762,0.0-25.0-4.0,,null,run_exp/static/images/task_images/gems/103.jpg,null,,,,,,16,,,2,,,,,103,0.152077829,0.155339806,,,,,,,
decision,76,386204,0.0-25.0-5.0,,440.59,run_exp/static/images/task_images/land.jpg,65,,,,,,16,,,2,,,,,,,,31504,1,0,FALSE,,,
dig,77,388768,0.0-26.0-0.0,,,,,,,,,,,"[{""stimulus"":""run_exp/static/images/task_images/dig.jpg"",""time"":0.18999999976949766},{""stimulus"":""run_exp/static/images/task_images/land.jpg"",""time"":858.3650000000489},{""stimulus"":""run_exp/static/images/task_images/dig.jpg"",""time"":1711.094999999681}]",[],2,,,,,,,,,,,,,,
harvest,78,389771,0.0-26.0-1.0,,null,run_exp/static/images/task_images/gems/16.jpg,null,,,,,,4,,,2,,,,,16,0.220210629,0.25,,,,,,,
decision,79,389815,0.0-26.0-2.0,,41.995,run_exp/static/images/task_images/land.jpg,65,,,,,,4,,,2,,,,,,,,35128,1,1,FALSE,,,
dig,80,392796,0.0-27.0-0.0,,,,,,,,,,,"[{""stimulus"":""run_exp/static/images/task_images/dig.jpg"",""time"":0.2899999999208376},{""stimulus"":""run_exp/static/images/task_images/land.jpg"",""time"":991.7900000000373},{""stimulus"":""run_exp/static/images/task_images/dig.jpg"",""time"":1978.3600000000442}]",[],2,,,,,,,,,,,,,,
harvest,81,393798,0.0-27.0-1.0,,null,run_exp/static/images/task_images/gems/4.jpg,null,,,,,,1,,,2,,,,,4,0.188008519,0.25,,,,,,,
decision,82,394556,0.0-27.0-2.0,,755.44,run_exp/static/images/task_images/land.jpg,76,,,,,,1,,,2,,,,,,,,39856,1,2,TRUE,,,
travel,83,403804,0.0-28.0-0.0,,,,,,,,,,,"[{""stimulus"":""run_exp/static/images/task_images/rocket-01.jpg"",""time"":0.22999999963212758},{""stimulus"":""run_exp/static/images/task_images/rocket-02.jpg"",""time"":1031.5849999996717},{""stimulus"":""run_exp/static/images/task_images/rocket-03.jpg"",""time"":2059.789999999746},{""stimulus"":""run_exp/static/images/task_images/rocket-04.jpg"",""time"":3086.1599999997998},{""stimulus"":""run_exp/static/images/task_images/rocket-05.jpg"",""time"":4112.659999999742},{""stimulus"":""run_exp/static/images/task_images/rocket-06.jpg"",""time"":5136.0849999996135},{""stimulus"":""run_exp/static/images/task_images/rocket-07.jpg"",""time"":6164.974999999686},{""stimulus"":""run_exp/static/images/task_images/rocket-08.jpg"",""time"":7195.254999999597},{""stimulus"":""run_exp/static/images/task_images/rocket-09.jpg"",""time"":8219.219999999914}]",[],2,,,,,,,,,,,,,,
alien_welcome,84,408811,0.0-28.0-1.0,,null,run_exp/static/images/task_images/aliens/old_aliens/planet/alien_planet-37.jpg,null,,,,,,,,,,,,37,"47,50,37,76,54,71,26,41,11,60,1,23,17,65,30,56,14,35,5,9,72,39,18,43,31,73,21,44,28,45,24,34,80,66,20,16,57,36,42,55,64,59,25,77,70",,,,,,,,,,
land,85,409318,0.0-28.0-2.0,,null,run_exp/static/images/task_images/land.jpg,null,,,,,,97,,,3,,,,,,,,,,,,,,
dig,86,411327,0.0-28.0-3.0,,,,,,,,,,,"[{""stimulus"":""run_exp/static/images/task_images/dig.jpg"",""time"":0.34500000037951395},{""stimulus"":""run_exp/static/images/task_images/land.jpg"",""time"":673.4050000000279},{""stimulus"":""run_exp/static/images/task_images/dig.jpg"",""time"":1338.890000000014}]",[],3,,,,,,,,,,,,,,
harvest,87,412331,0.0-28.0-4.0,,null,run_exp/static/images/task_images/gems/97.jpg,null,,,,,,52,,,3,,,,,97,0.535632963,0.536082474,,,,,,,
decision,88,412749,0.0-28.0-5.0,,416.36,run_exp/static/images/task_images/land.jpg,65,,,,,,52,,,3,,,,,,,,58049,1,0,FALSE,,,
dig,89,415337,0.0-29.0-0.0,,,,,,,,,,,"[{""stimulus"":""run_exp/static/images/task_images/dig.jpg"",""time"":0.1900000001769513},{""stimulus"":""run_exp/static/images/task_images/land.jpg"",""time"":866.2549999998882},{""stimulus"":""run_exp/static/images/task_images/dig.jpg"",""time"":1728.1950000001234}]",[],3,,,,,,,,,,,,,,
harvest,90,416343,0.0-29.0-1.0,,null,run_exp/static/images/task_images/gems/52.jpg,null,,,,,,27,,,3,,,,,52,0.528037781,0.519230769,,,,,,,
decision,91,417254,0.0-29.0-2.0,,908.925,run_exp/static/images/task_images/land.jpg,76,,,,,,27,,,3,,,,,,,,62554,1,1,TRUE,,,
travel,92,426349,0.0-30.0-0.0,,,,,,,,,,,"[{""stimulus"":""run_exp/static/images/task_images/rocket-01.jpg"",""time"":0.18999999976949766},{""stimulus"":""run_exp/static/images/task_images/rocket-02.jpg"",""time"":1012.4449999998324},{""stimulus"":""run_exp/static/images/task_images/rocket-03.jpg"",""time"":2021.9050000000861},{""stimulus"":""run_exp/static/images/task_images/rocket-04.jpg"",""time"":3032.259999999951},{""stimulus"":""run_exp/static/images/task_images/rocket-05.jpg"",""time"":4042.654999999737},{""stimulus"":""run_exp/static/images/task_images/rocket-06.jpg"",""time"":5052.510000000009},{""stimulus"":""run_exp/static/images/task_images/rocket-07.jpg"",""time"":6061.859999999811},{""stimulus"":""run_exp/static/images/task_images/rocket-08.jpg"",""time"":7071.919999999867},{""stimulus"":""run_exp/static/images/task_images/rocket-09.jpg"",""time"":8081.984999999811}]",[],3,,,,,,,,,,,,,,
alien_welcome,93,431357,0.0-30.0-1.0,,null,run_exp/static/images/task_images/aliens/old_aliens/planet/alien_planet-76.jpg,null,,,,,,,,,,,,76,"47,50,37,76,54,71,26,41,11,60,1,23,17,65,30,56,14,35,5,9,72,39,18,43,31,73,21,44,28,45,24,34,80,66,20,16,57,36,42,55,64,59,25,77,70",,,,,,,,,,
land,94,431861,0.0-30.0-2.0,,null,run_exp/static/images/task_images/land.jpg,null,,,,,,97,,,4,,,,,,,,,,,,,,
dig,95,433865,0.0-30.0-3.0,,,,,,,,,,,"[{""stimulus"":""run_exp/static/images/task_images/dig.jpg"",""time"":0.32000000012340024},{""stimulus"":""run_exp/static/images/task_images/land.jpg"",""time"":673.3899999998976},{""stimulus"":""run_exp/static/images/task_images/dig.jpg"",""time"":1338.8199999999488}]",[],4,,,,,,,,,,,,,,
harvest,96,434871,0.0-30.0-4.0,,null,run_exp/static/images/task_images/gems/97.jpg,null,,,,,,52,,,4,,,,,97,0.53388646,0.536082474,,,,,,,
decision,97,435355,0.0-30.0-5.0,,481.265,run_exp/static/images/task_images/land.jpg,65,,,,,,52,,,4,,,,,,,,80655,1,0,FALSE,,,
dig,98,437878,0.0-31.0-0.0,,,,,,,,,,,"[{""stimulus"":""run_exp/static/images/task_images/dig.jpg"",""time"":0.24499999976251274},{""stimulus"":""run_exp/static/images/task_images/land.jpg"",""time"":841.1550000000861},{""stimulus"":""run_exp/static/images/task_images/dig.jpg"",""time"":1684.2600000000093}]",[],4,,,,,,,,,,,,,,
harvest,99,438884,0.0-31.0-1.0,,null,run_exp/static/images/task_images/gems/52.jpg,null,,,,,,22,,,4,,,,,52,0.424679505,0.423076923,,,,,,,
decision,100,439246,0.0-31.0-2.0,,360.135,run_exp/static/images/task_images/land.jpg,65,,,,,,22,,,4,,,,,,,,84546,1,1,FALSE,,,
dig,101,441888,0.0-32.0-0.0,,,,,,,,,,,"[{""stimulus"":""run_exp/static/images/task_images/dig.jpg"",""time"":0.18499999988125637},{""stimulus"":""run_exp/static/images/task_images/land.jpg"",""time"":884.9549999999581},{""stimulus"":""run_exp/static/images/task_images/dig.jpg"",""time"":1764.160000000149}]",[],4,,,,,,,,,,,,,,
harvest,102,442891,0.0-32.0-1.0,,null,run_exp/static/images/task_images/gems/22.jpg,null,,,,,,10,,,4,,,,,22,0.449463908,0.454545455,,,,,,,
decision,103,443551,0.0-32.0-2.0,,657.26,run_exp/static/images/task_images/land.jpg,76,,,,,,10,,,4,,,,,,,,88851,1,2,TRUE,,,
travel,104,452904,0.0-33.0-0.0,,,,,,,,,,,"[{""stimulus"":""run_exp/static/images/task_images/rocket-01.jpg"",""time"":0.23000000009778887},{""stimulus"":""run_exp/static/images/task_images/rocket-02.jpg"",""time"":1041.7000000002445},{""stimulus"":""run_exp/static/images/task_images/rocket-03.jpg"",""time"":2082.249999999942},{""stimulus"":""run_exp/static/images/task_images/rocket-04.jpg"",""time"":3119.3050000001676},{""stimulus"":""run_exp/static/images/task_images/rocket-05.jpg"",""time"":4157.830000000133},{""stimulus"":""run_exp/static/images/task_images/rocket-06.jpg"",""time"":5193.674999999988},{""stimulus"":""run_exp/static/images/task_images/rocket-07.jpg"",""time"":6229.940000000177},{""stimulus"":""run_exp/static/images/task_images/rocket-08.jpg"",""time"":7269.055000000226},{""stimulus"":""run_exp/static/images/task_images/rocket-09.jpg"",""time"":8307.784999999974}]",[],4,,,,,,,,,,,,,,
alien_welcome,105,457910,0.0-33.0-1.0,,null,run_exp/static/images/task_images/aliens/old_aliens/planet/alien_planet-54.jpg,null,,,,,,,,,,,,54,"47,50,37,76,54,71,26,41,11,60,1,23,17,65,30,56,14,35,5,9,72,39,18,43,31,73,21,44,28,45,24,34,80,66,20,16,57,36,42,55,64,59,25,77,70",,,,,,,,,,
land,106,458417,0.0-33.0-2.0,,null,run_exp/static/images/task_images/land.jpg,null,,,,,,96,,,5,,,,,,,,,,,,,,
dig,107,460426,0.0-33.0-3.0,,,,,,,,,,,"[{""stimulus"":""run_exp/static/images/task_images/dig.jpg"",""time"":0.34000000008381903},{""stimulus"":""run_exp/static/images/task_images/land.jpg"",""time"":673.3950000002515},{""stimulus"":""run_exp/static/images/task_images/dig.jpg"",""time"":1340.4350000000559}]",[],5,,,,,,,,,,,,,,
harvest,108,461429,0.0-33.0-4.0,,null,run_exp/static/images/task_images/gems/96.jpg,null,,,,,,51,,,5,,,,,96,0.5336008,0.53125,,,,,,,
decision,109,462125,0.0-33.0-5.0,,694.565,run_exp/static/images/task_images/land.jpg,65,,,,,,51,,,5,,,,,,,,107425,1,0,FALSE,,,
dig,110,464433,0.0-34.0-0.0,,,,,,,,,,,"[{""stimulus"":""run_exp/static/images/task_images/dig.jpg"",""time"":0.155000000144355},{""stimulus"":""run_exp/static/images/task_images/land.jpg"",""time"":769.4799999999232},{""stimulus"":""run_exp/static/images/task_images/dig.jpg"",""time"":1538.719999999972}]",[],5,,,,,,,,,,,,,,
harvest,111,465437,0.0-34.0-1.0,,null,run_exp/static/images/task_images/gems/51.jpg,null,,,,,,22,,,5,,,,,51,0.438088938,0.431372549,,,,,,,
decision,112,465529,0.0-34.0-2.0,,89.66,run_exp/static/images/task_images/land.jpg,65,,,,,,22,,,5,,,,,,,,110829,1,1,FALSE,,,
dig,113,468444,0.0-35.0-0.0,,,,,,,,,,,"[{""stimulus"":""run_exp/static/images/task_images/dig.jpg"",""time"":0.18500000028871},{""stimulus"":""run_exp/static/images/task_images/land.jpg"",""time"":973.2600000001839},{""stimulus"":""run_exp/static/images/task_images/dig.jpg"",""time"":1942.5550000000512}]",[],5,,,,,,,,,,,,,,
harvest,114,469447,0.0-35.0-1.0,,null,run_exp/static/images/task_images/gems/22.jpg,null,,,,,,9,,,5,,,,,22,0.401844886,0.409090909,,,,,,,
decision,115,469884,0.0-35.0-2.0,,434.805,run_exp/static/images/task_images/land.jpg,76,,,,,,9,,,5,,,,,,,,115184,1,2,TRUE,,,
travel,116,479450,0.0-36.0-0.0,,,,,,,,,,,"[{""stimulus"":""run_exp/static/images/task_images/rocket-01.jpg"",""time"":0.18499999988125637},{""stimulus"":""run_exp/static/images/task_images/rocket-02.jpg"",""time"":1066.6200000000536},{""stimulus"":""run_exp/static/images/task_images/rocket-03.jpg"",""time"":2127.304999999993},{""stimulus"":""run_exp/static/images/task_images/rocket-04.jpg"",""time"":3192.160000000091},{""stimulus"":""run_exp/static/images/task_images/rocket-05.jpg"",""time"":4252.044999999751},{""stimulus"":""run_exp/static/images/task_images/rocket-06.jpg"",""time"":5315.849999999977},{""stimulus"":""run_exp/static/images/task_images/rocket-07.jpg"",""time"":6378.264999999839},{""stimulus"":""run_exp/static/images/task_images/rocket-08.jpg"",""time"":7439.030000000028},{""stimulus"":""run_exp/static/images/task_images/rocket-09.jpg"",""time"":8498.680000000168}]",[],5,,,,,,,,,,,,,,
alien_welcome,117,484458,0.0-36.0-1.0,,null,run_exp/static/images/task_images/aliens/old_aliens/planet/alien_planet-71.jpg,null,,,,,,,,,,,,71,"47,50,37,76,54,71,26,41,11,60,1,23,17,65,30,56,14,35,5,9,72,39,18,43,31,73,21,44,28,45,24,34,80,66,20,16,57,36,42,55,64,59,25,77,70",,,,,,,,,,
land,118,484963,0.0-36.0-2.0,,null,run_exp/static/images/task_images/land.jpg,null,,,,,,98,,,6,,,,,,,,,,,,,,
dig,119,486971,0.0-36.0-3.0,,,,,,,,,,,"[{""stimulus"":""run_exp/static/images/task_images/dig.jpg"",""time"":0.31500000023515895},{""stimulus"":""run_exp/static/images/task_images/land.jpg"",""time"":669.6150000002817},{""stimulus"":""run_exp/static/images/task_images/dig.jpg"",""time"":1336.7700000003097}]",[],6,,,,,,,,,,,,,,
harvest,120,487977,0.0-36.0-4.0,,null,run_exp/static/images/task_images/gems/98.jpg,null,,,,,,84,,,6,,,,,98,0.858924469,0.857142857,,,,,,,
decision,121,488603,0.0-36.0-5.0,,623.61,run_exp/static/images/task_images/land.jpg,65,,,,,,84,,,6,,,,,,,,133903,1,0,FALSE,,,
dig,122,490984,0.0-37.0-0.0,,,,,,,,,,,"[{""stimulus"":""run_exp/static/images/task_images/dig.jpg"",""time"":0.1900000001769513},{""stimulus"":""run_exp/static/images/task_images/land.jpg"",""time"":798.2849999997998},{""stimulus"":""run_exp/static/images/task_images/dig.jpg"",""time"":1586.8699999999953}]",[],6,,,,,,,,,,,,,,
harvest,123,491990,0.0-37.0-1.0,,null,run_exp/static/images/task_images/gems/84.jpg,null,,,,,,68,,,6,,,,,84,0.808814642,0.80952381,,,,,,,
decision,124,492337,0.0-37.0-2.0,,344.82,run_exp/static/images/task_images/land.jpg,65,,,,,,68,,,6,,,,,,,,137637,1,1,FALSE,,,
dig,125,494997,0.0-38.0-0.0,,,,,,,,,,,"[{""stimulus"":""run_exp/static/images/task_images/dig.jpg"",""time"":0.19500000006519258},{""stimulus"":""run_exp/static/images/task_images/land.jpg"",""time"":886.2200000003213},{""stimulus"":""run_exp/static/images/task_images/dig.jpg"",""time"":1775.0049999998882}]",[],6,,,,,,,,,,,,,,
harvest,126,496003,0.0-38.0-1.0,,null,run_exp/static/images/task_images/gems/68.jpg,null,,,,,,52,,,6,,,,,68,0.760419367,0.764705882,,,,,,,
decision,127,496549,0.0-38.0-2.0,,544.195,run_exp/static/images/task_images/land.jpg,65,,,,,,52,,,6,,,,,,,,141849,1,2,FALSE,,,
dig,128,499024,0.0-39.0-0.0,,,,,,,,,,,"[{""stimulus"":""run_exp/static/images/task_images/dig.jpg"",""time"":0.2649999996647239},{""stimulus"":""run_exp/static/images/task_images/land.jpg"",""time"":820.6649999998044},{""stimulus"":""run_exp/static/images/task_images/dig.jpg"",""time"":1637.4449999998324}]",[],6,,,,,,,,,,,,,,
harvest,129,500029,0.0-39.0-1.0,,null,run_exp/static/images/task_images/gems/52.jpg,null,,,,,,39,,,6,,,,,52,0.744703731,0.75,,,,,,,
decision,130,500205,0.0-39.0-2.0,,173.61,run_exp/static/images/task_images/land.jpg,65,,,,,,39,,,6,,,,,,,,145505,1,3,FALSE,,,
dig,131,503036,0.0-40.0-0.0,,,,,,,,,,,"[{""stimulus"":""run_exp/static/images/task_images/dig.jpg"",""time"":0.18999999971129},{""stimulus"":""run_exp/static/images/task_images/land.jpg"",""time"":948.1799999998184},{""stimulus"":""run_exp/static/images/task_images/dig.jpg"",""time"":1888.7249999997439}]",[],6,,,,,,,,,,,,,,
harvest,132,504041,0.0-40.0-1.0,,null,run_exp/static/images/task_images/gems/39.jpg,null,,,,,,31,,,6,,,,,39,0.806889052,0.794871795,,,,,,,
decision,133,504164,0.0-40.0-2.0,,120.02,run_exp/static/images/task_images/land.jpg,65,,,,,,31,,,6,,,,,,,,149464,1,4,FALSE,,,
dig,134,507046,0.0-41.0-0.0,,,,,,,,,,,"[{""stimulus"":""run_exp/static/images/task_images/dig.jpg"",""time"":0.18999999982770532},{""stimulus"":""run_exp/static/images/task_images/land.jpg"",""time"":965.2399999999907},{""stimulus"":""run_exp/static/images/task_images/dig.jpg"",""time"":1923.7199999998556}]",[],6,,,,,,,,,,,,,,
harvest,135,508048,0.0-41.0-1.0,,null,run_exp/static/images/task_images/gems/31.jpg,null,,,,,,26,,,6,,,,,31,0.843431347,0.838709677,,,,,,,
decision,136,508483,0.0-41.0-2.0,,433.52,run_exp/static/images/task_images/land.jpg,65,,,,,,26,,,6,,,,,,,,153783,1,5,FALSE,,,
dig,137,511055,0.0-42.0-0.0,,,,,,,,,,,"[{""stimulus"":""run_exp/static/images/task_images/dig.jpg"",""time"":0.18999999982770532},{""stimulus"":""run_exp/static/images/task_images/land.jpg"",""time"":861.1750000000466},{""stimulus"":""run_exp/static/images/task_images/dig.jpg"",""time"":1714.1749999996973}]",[],6,,,,,,,,,,,,,,
harvest,138,512059,0.0-42.0-1.0,,null,run_exp/static/images/task_images/gems/26.jpg,null,,,,,,23,,,6,,,,,26,0.880075046,0.884615385,,,,,,,
decision,139,513217,0.0-42.0-2.0,,1156.315,run_exp/static/images/task_images/land.jpg,65,,,,,,23,,,6,,,,,,,,158517,1,6,FALSE,,,
dig,140,515066,0.0-43.0-0.0,,,,,,,,,,,"[{""stimulus"":""run_exp/static/images/task_images/dig.jpg"",""time"":0.20500000019092113},{""stimulus"":""run_exp/static/images/task_images/land.jpg"",""time"":617.4350000000559},{""stimulus"":""run_exp/static/images/task_images/dig.jpg"",""time"":1230.7100000001956}]",[],6,,,,,,,,,,,,,,
harvest,141,516072,0.0-43.0-1.0,,null,run_exp/static/images/task_images/gems/23.jpg,null,,,,,,19,,,6,,,,,23,0.823262321,0.826086957,,,,,,,
decision,142,516689,0.0-43.0-2.0,,615.28,run_exp/static/images/task_images/land.jpg,65,,,,,,19,,,6,,,,,,,,161989,1,7,FALSE,,,
dig,143,519077,0.0-44.0-0.0,,,,,,,,,,,"[{""stimulus"":""run_exp/static/images/task_images/dig.jpg"",""time"":0.19500000006519258},{""stimulus"":""run_exp/static/images/task_images/land.jpg"",""time"":798.085000000312},{""stimulus"":""run_exp/static/images/task_images/dig.jpg"",""time"":1589.16500000027}]",[],6,,,,,,,,,,,,,,
harvest,144,520079,0.0-44.0-1.0,,null,run_exp/static/images/task_images/gems/19.jpg,null,,,,,,14,,,6,,,,,19,0.730115698,0.736842105,,,,,,,
decision,145,521423,0.0-44.0-2.0,,1341.825,run_exp/static/images/task_images/land.jpg,76,,,,,,14,,,6,,,,,,,,166723,1,8,TRUE,,,
travel,146,530091,0.0-45.0-0.0,,,,,,,,,,,"[{""stimulus"":""run_exp/static/images/task_images/rocket-01.jpg"",""time"":0.23000000009778887},{""stimulus"":""run_exp/static/images/task_images/rocket-02.jpg"",""time"":965.1750000002794},{""stimulus"":""run_exp/static/images/task_images/rocket-03.jpg"",""time"":1928.7550000000047},{""stimulus"":""run_exp/static/images/task_images/rocket-04.jpg"",""time"":2888.745000000228},{""stimulus"":""run_exp/static/images/task_images/rocket-05.jpg"",""time"":3849.9200000001583},{""stimulus"":""run_exp/static/images/task_images/rocket-06.jpg"",""time"":4813.5299999999115},{""stimulus"":""run_exp/static/images/task_images/rocket-07.jpg"",""time"":5776.1900000000605},{""stimulus"":""run_exp/static/images/task_images/rocket-08.jpg"",""time"":6735.729999999865},{""stimulus"":""run_exp/static/images/task_images/rocket-09.jpg"",""time"":7699.015000000247}]",[],6,,,,,,,,,,,,,,
alien_welcome,147,535094,0.0-45.0-1.0,,null,run_exp/static/images/task_images/aliens/old_aliens/planet/alien_planet-26.jpg,null,,,,,,,,,,,,26,"47,50,37,76,54,71,26,41,11,60,1,23,17,65,30,56,14,35,5,9,72,39,18,43,31,73,21,44,28,45,24,34,80,66,20,16,57,36,42,55,64,59,25,77,70",,,,,,,,,,
land,148,535601,0.0-45.0-2.0,,null,run_exp/static/images/task_images/land.jpg,null,,,,,,96,,,7,,,,,,,,,,,,,,
dig,149,537607,0.0-45.0-3.0,,,,,,,,,,,"[{""stimulus"":""run_exp/static/images/task_images/dig.jpg"",""time"":0.43499999993946403},{""stimulus"":""run_exp/static/images/task_images/land.jpg"",""time"":672.1550000001444},{""stimulus"":""run_exp/static/images/task_images/dig.jpg"",""time"":1340.1399999997811}]",[],7,,,,,,,,,,,,,,
harvest,150,538612,0.0-45.0-4.0,,null,run_exp/static/images/task_images/gems/96.jpg,null,,,,,,79,,,7,,,,,96,0.819444003,0.822916667,,,,,,,
decision,151,538944,0.0-45.0-5.0,,329.635,run_exp/static/images/task_images/land.jpg,65,,,,,,79,,,7,,,,,,,,184244,1,0,FALSE,,,
dig,152,541619,0.0-46.0-0.0,,,,,,,,,,,"[{""stimulus"":""run_exp/static/images/task_images/dig.jpg"",""time"":0.23000000009778887},{""stimulus"":""run_exp/static/images/task_images/land.jpg"",""time"":896.2200000000885},{""stimulus"":""run_exp/static/images/task_images/dig.jpg"",""time"":1781.9300000000512}]",[],7,,,,,,,,,,,,,,
harvest,153,542622,0.0-46.0-1.0,,null,run_exp/static/images/task_images/gems/79.jpg,null,,,,,,66,,,7,,,,,79,0.834624385,0.835443038,,,,,,,
decision,154,543217,0.0-46.0-2.0,,592.965,run_exp/static/images/task_images/land.jpg,65,,,,,,66,,,7,,,,,,,,188517,1,1,FALSE,,,
dig,155,545629,0.0-47.0-0.0,,,,,,,,,,,"[{""stimulus"":""run_exp/static/images/task_images/dig.jpg"",""time"":0.3100000004051253},{""stimulus"":""run_exp/static/images/task_images/land.jpg"",""time"":803.9050000002608},{""stimulus"":""run_exp/static/images/task_images/dig.jpg"",""time"":1608.3149999999441}]",[],7,,,,,,,,,,,,,,
harvest,156,546632,0.0-47.0-1.0,,null,run_exp/static/images/task_images/gems/66.jpg,null,,,,,,54,,,7,,,,,66,0.82535457,0.818181818,,,,,,,
decision,157,547421,0.0-47.0-2.0,,787.21,run_exp/static/images/task_images/land.jpg,65,,,,,,54,,,7,,,,,,,,192721,1,2,FALSE,,,
dig,158,549638,0.0-48.0-0.0,,,,,,,,,,,"[{""stimulus"":""run_exp/static/images/task_images/dig.jpg"",""time"":0.2149999999674037},{""stimulus"":""run_exp/static/images/task_images/land.jpg"",""time"":740.0250000000233},{""stimulus"":""run_exp/static/images/task_images/dig.jpg"",""time"":1479.4400000000605}]",[],7,,,,,,,,,,,,,,
harvest,159,550641,0.0-48.0-1.0,,null,run_exp/static/images/task_images/gems/54.jpg,null,,,,,,44,,,7,,,,,54,0.820679188,0.814814815,,,,,,,
decision,160,550797,0.0-48.0-2.0,,154.245,run_exp/static/images/task_images/land.jpg,65,,,,,,44,,,7,,,,,,,,196097,1,3,FALSE,,,
dig,161,553647,0.0-49.0-0.0,,,,,,,,,,,"[{""stimulus"":""run_exp/static/images/task_images/dig.jpg"",""time"":0.18999999982770532},{""stimulus"":""run_exp/static/images/task_images/land.jpg"",""time"":954.2050000000745},{""stimulus"":""run_exp/static/images/task_images/dig.jpg"",""time"":1902.1699999999255}]",[],7,,,,,,,,,,,,,,
harvest,162,554649,0.0-49.0-1.0,,null,run_exp/static/images/task_images/gems/44.jpg,null,,,,,,39,,,7,,,,,44,0.891233628,0.886363636,,,,,,,
decision,163,555691,0.0-49.0-2.0,,1040.87,run_exp/static/images/task_images/land.jpg,65,,,,,,39,,,7,,,,,,,,200992,1,4,FALSE,,,
dig,164,557663,0.0-50.0-0.0,,,,,,,,,,,"[{""stimulus"":""run_exp/static/images/task_images/dig.jpg"",""time"":0.18000000005122274},{""stimulus"":""run_exp/static/images/task_images/land.jpg"",""time"":658.6500000003725},{""stimulus"":""run_exp/static/images/task_images/dig.jpg"",""time"":1311.4150000001537}]",[],7,,,,,,,,,,,,,,
harvest,165,558669,0.0-50.0-1.0,,null,run_exp/static/images/task_images/gems/39.jpg,null,,,,,,30,,,7,,,,,39,0.758491787,0.769230769,,,,,,,
decision,166,558733,0.0-50.0-2.0,,61.5,run_exp/static/images/task_images/land.jpg,65,,,,,,30,,,7,,,,,,,,204033,1,5,FALSE,,,
dig,167,561680,0.0-51.0-0.0,,,,,,,,,,,"[{""stimulus"":""run_exp/static/images/task_images/dig.jpg"",""time"":0.24499999976251274},{""stimulus"":""run_exp/static/images/task_images/land.jpg"",""time"":985.2499999997672},{""stimulus"":""run_exp/static/images/task_images/dig.jpg"",""time"":1962.9099999996834}]",[],7,,,,,,,,,,,,,,
harvest,168,562683,0.0-51.0-1.0,,null,run_exp/static/images/task_images/gems/30.jpg,null,,,,,,23,,,7,,,,,30,0.765092534,0.766666667,,,,,,,
decision,169,563409,0.0-51.0-2.0,,724.31,run_exp/static/images/task_images/land.jpg,76,,,,,,23,,,7,,,,,,,,208710,1,6,TRUE,,,
travel,170,572690,0.0-52.0-0.0,,,,,,,,,,,"[{""stimulus"":""run_exp/static/images/task_images/rocket-01.jpg"",""time"":0.27000000001862645},{""stimulus"":""run_exp/static/images/task_images/rocket-02.jpg"",""time"":1031.3700000001118},{""stimulus"":""run_exp/static/images/task_images/rocket-03.jpg"",""time"":2066.350000000093},{""stimulus"":""run_exp/static/images/task_images/rocket-04.jpg"",""time"":3095.3300000000745},{""stimulus"":""run_exp/static/images/task_images/rocket-05.jpg"",""time"":4126.374999999767},{""stimulus"":""run_exp/static/images/task_images/rocket-06.jpg"",""time"":5151.989999999874},{""stimulus"":""run_exp/static/images/task_images/rocket-07.jpg"",""time"":6185.175000000047},{""stimulus"":""run_exp/static/images/task_images/rocket-08.jpg"",""time"":7214.520000000019},{""stimulus"":""run_exp/static/images/task_images/rocket-09.jpg"",""time"":8243.47500000021}]",[],7,,,,,,,,,,,,,,
alien_welcome,171,577704,0.0-52.0-1.0,,null,run_exp/static/images/task_images/aliens/old_aliens/planet/alien_planet-41.jpg,null,,,,,,,,,,,,41,"47,50,37,76,54,71,26,41,11,60,1,23,17,65,30,56,14,35,5,9,72,39,18,43,31,73,21,44,28,45,24,34,80,66,20,16,57,36,42,55,64,59,25,77,70",,,,,,,,,,
land,172,578211,0.0-52.0-2.0,,null,run_exp/static/images/task_images/land.jpg,null,,,,,,102,,,8,,,,,,,,,,,,,,
dig,173,580218,0.0-52.0-3.0,,,,,,,,,,,"[{""stimulus"":""run_exp/static/images/task_images/dig.jpg"",""time"":0.7399999998742715},{""stimulus"":""run_exp/static/images/task_images/land.jpg"",""time"":669.0849999999627},{""stimulus"":""run_exp/static/images/task_images/dig.jpg"",""time"":1336.0900000002002}]",[],8,,,,,,,,,,,,,,
harvest,174,581223,0.0-52.0-4.0,,null,run_exp/static/images/task_images/gems/102.jpg,null,,,,,,92,,,8,,,,,102,0.90394413,0.901960784,,,,,,,
decision,175,581694,0.0-52.0-5.0,,468.97,run_exp/static/images/task_images/land.jpg,65,,,,,,92,,,8,,,,,,,,226994,1,0,FALSE,,,
dig,176,584229,0.0-53.0-0.0,,,,,,,,,,,"[{""stimulus"":""run_exp/static/images/task_images/dig.jpg"",""time"":0.19999999995343387},{""stimulus"":""run_exp/static/images/task_images/land.jpg"",""time"":849.2099999998463},{""stimulus"":""run_exp/static/images/task_images/dig.jpg"",""time"":1689.7749999997905}]",[],8,,,,,,,,,,,,,,
harvest,177,585232,0.0-53.0-1.0,,null,run_exp/static/images/task_images/gems/92.jpg,null,,,,,,77,,,8,,,,,92,0.837666269,0.836956522,,,,,,,
decision,178,585613,0.0-53.0-2.0,,378.855,run_exp/static/images/task_images/land.jpg,65,,,,,,77,,,8,,,,,,,,230914,1,1,FALSE,,,
dig,179,588240,0.0-54.0-0.0,,,,,,,,,,,"[{""stimulus"":""run_exp/static/images/task_images/dig.jpg"",""time"":0.21000000019557774},{""stimulus"":""run_exp/static/images/task_images/land.jpg"",""time"":879.1900000000605},{""stimulus"":""run_exp/static/images/task_images/dig.jpg"",""time"":1752.2300000000978}]",[],8,,,,,,,,,,,,,,
harvest,180,589244,0.0-54.0-1.0,,null,run_exp/static/images/task_images/gems/77.jpg,null,,,,,,56,,,8,,,,,77,0.721989647,0.727272727,,,,,,,
decision,181,589525,0.0-54.0-2.0,,278.55,run_exp/static/images/task_images/land.jpg,65,,,,,,56,,,8,,,,,,,,234825,1,2,FALSE,,,
dig,182,592252,0.0-55.0-0.0,,,,,,,,,,,"[{""stimulus"":""run_exp/static/images/task_images/dig.jpg"",""time"":0.18500000028871},{""stimulus"":""run_exp/static/images/task_images/land.jpg"",""time"":909.3350000001956},{""stimulus"":""run_exp/static/images/task_images/dig.jpg"",""time"":1820.1899999998277}]",[],8,,,,,,,,,,,,,,
harvest,183,593258,0.0-55.0-1.0,,null,run_exp/static/images/task_images/gems/56.jpg,null,,,,,,49,,,8,,,,,56,0.877613011,0.875,,,,,,,
decision,184,593582,0.0-55.0-2.0,,322.74,run_exp/static/images/task_images/land.jpg,65,,,,,,49,,,8,,,,,,,,238883,1,3,FALSE,,,
dig,185,596265,0.0-56.0-0.0,,,,,,,,,,,"[{""stimulus"":""run_exp/static/images/task_images/dig.jpg"",""time"":0.19999999995343387},{""stimulus"":""run_exp/static/images/task_images/land.jpg"",""time"":898.1849999999395},{""stimulus"":""run_exp/static/images/task_images/dig.jpg"",""time"":1788.4399999997113}]",[],8,,,,,,,,,,,,,,
harvest,186,597267,0.0-56.0-1.0,,null,run_exp/static/images/task_images/gems/49.jpg,null,,,,,,33,,,8,,,,,49,0.674443931,0.673469388,,,,,,,
decision,187,597383,0.0-56.0-2.0,,114.09,run_exp/static/images/task_images/land.jpg,65,,,,,,33,,,8,,,,,,,,242683,1,4,FALSE,,,
dig,188,600271,0.0-57.0-0.0,,,,,,,,,,,"[{""stimulus"":""run_exp/static/images/task_images/dig.jpg"",""time"":0.19500000006519258},{""stimulus"":""run_exp/static/images/task_images/land.jpg"",""time"":962.7450000003446},{""stimulus"":""run_exp/static/images/task_images/dig.jpg"",""time"":1923.180000000284}]",[],8,,,,,,,,,,,,,,
harvest,189,601273,0.0-57.0-1.0,,null,run_exp/static/images/task_images/gems/33.jpg,null,,,,,,28,,,8,,,,,33,0.854742079,0.848484848,,,,,,,
decision,190,602073,0.0-57.0-2.0,,798.445,run_exp/static/images/task_images/land.jpg,65,,,,,,28,,,8,,,,,,,,247373,1,5,FALSE,,,
dig,191,604280,0.0-58.0-0.0,,,,,,,,,,,"[{""stimulus"":""run_exp/static/images/task_images/dig.jpg"",""time"":0.13999999966472387},{""stimulus"":""run_exp/static/images/task_images/land.jpg"",""time"":737.5949999996228},{""stimulus"":""run_exp/static/images/task_images/dig.jpg"",""time"":1470.0349999999162}]",[],8,,,,,,,,,,,,,,
harvest,192,605286,0.0-58.0-1.0,,null,run_exp/static/images/task_images/gems/28.jpg,null,,,,,,22,,,8,,,,,28,0.791259566,0.785714286,,,,,,,
decision,193,605969,0.0-58.0-2.0,,680.76,run_exp/static/images/task_images/land.jpg,65,,,,,,22,,,8,,,,,,,,251269,1,6,FALSE,,,
dig,194,608294,0.0-59.0-0.0,,,,,,,,,,,"[{""stimulus"":""run_exp/static/images/task_images/dig.jpg"",""time"":0.2149999999674037},{""stimulus"":""run_exp/static/images/task_images/land.jpg"",""time"":774.859999999986},{""stimulus"":""run_exp/static/images/task_images/dig.jpg"",""time"":1552.4100000002654}]",[],8,,,,,,,,,,,,,,
harvest,195,609300,0.0-59.0-1.0,,null,run_exp/static/images/task_images/gems/22.jpg,null,,,,,,17,,,8,,,,,22,0.769012662,0.772727273,,,,,,,
decision,196,609342,0.0-59.0-2.0,,40.035,run_exp/static/images/task_images/land.jpg,76,,,,,,17,,,8,,,,,,,,254642,1,7,TRUE,,,
travel,197,619302,0.0-60.0-0.0,,,,,,,,,,,"[{""stimulus"":""run_exp/static/images/task_images/rocket-01.jpg"",""time"":0.21000000007916242},{""stimulus"":""run_exp/static/images/task_images/rocket-02.jpg"",""time"":1108.4000000000233},{""stimulus"":""run_exp/static/images/task_images/rocket-03.jpg"",""time"":2216.679999999935},{""stimulus"":""run_exp/static/images/task_images/rocket-04.jpg"",""time"":3323.980000000098},{""stimulus"":""run_exp/static/images/task_images/rocket-05.jpg"",""time"":4428.330000000191},{""stimulus"":""run_exp/static/images/task_images/rocket-06.jpg"",""time"":5533.845000000321},{""stimulus"":""run_exp/static/images/task_images/rocket-07.jpg"",""time"":6642.185000000172},{""stimulus"":""run_exp/static/images/task_images/rocket-08.jpg"",""time"":7748.380000000005},{""stimulus"":""run_exp/static/images/task_images/rocket-09.jpg"",""time"":8852.390000000014}]",[],8,,,,,,,,,,,,,,
alien_welcome,198,624306,0.0-60.0-1.0,,null,run_exp/static/images/task_images/aliens/old_aliens/planet/alien_planet-11.jpg,null,,,,,,,,,,,,11,"47,50,37,76,54,71,26,41,11,60,1,23,17,65,30,56,14,35,5,9,72,39,18,43,31,73,21,44,28,45,24,34,80,66,20,16,57,36,42,55,64,59,25,77,70",,,,,,,,,,
land,199,624813,0.0-60.0-2.0,,null,run_exp/static/images/task_images/land.jpg,null,,,,,,104,,,9,,,,,,,,,,,,,,
dig,200,626821,0.0-60.0-3.0,,,,,,,,,,,"[{""stimulus"":""run_exp/static/images/task_images/dig.jpg"",""time"":0.344999999855645},{""stimulus"":""run_exp/static/images/task_images/land.jpg"",""time"":671.3349999999627},{""stimulus"":""run_exp/static/images/task_images/dig.jpg"",""time"":1338.2750000000233}]",[],9,,,,,,,,,,,,,,
harvest,201,627823,0.0-60.0-4.0,,null,run_exp/static/images/task_images/gems/104.jpg,null,,,,,,21,,,9,,,,,104,0.203453855,0.201923077,,,,,,,
decision,202,628253,0.0-60.0-5.0,,428.16,run_exp/static/images/task_images/land.jpg,65,,,,,,21,,,9,,,,,,,,273553,1,0,FALSE,,,
dig,203,630831,0.0-61.0-0.0,,,,,,,,,,,"[{""stimulus"":""run_exp/static/images/task_images/dig.jpg"",""time"":0.1900000001769513},{""stimulus"":""run_exp/static/images/task_images/land.jpg"",""time"":859.1950000000652},{""stimulus"":""run_exp/static/images/task_images/dig.jpg"",""time"":1715.2249999999767}]",[],9,,,,,,,,,,,,,,
harvest,204,631835,0.0-61.0-1.0,,null,run_exp/static/images/task_images/gems/21.jpg,null,,,,,,5,,,9,,,,,21,0.261116024,0.238095238,,,,,,,
decision,205,632335,0.0-61.0-2.0,,498.995,run_exp/static/images/task_images/land.jpg,76,,,,,,5,,,9,,,,,,,,277635,1,1,TRUE,,,
travel,206,641837,0.0-62.0-0.0,,,,,,,,,,,"[{""stimulus"":""run_exp/static/images/task_images/rocket-01.jpg"",""time"":0.18999999971129},{""stimulus"":""run_exp/static/images/task_images/rocket-02.jpg"",""time"":1056.5400000000373},{""stimulus"":""run_exp/static/images/task_images/rocket-03.jpg"",""time"":2115.5849999999627},{""stimulus"":""run_exp/static/images/task_images/rocket-04.jpg"",""time"":3171.229999999865},{""stimulus"":""run_exp/static/images/task_images/rocket-05.jpg"",""time"":4221.480000000098},{""stimulus"":""run_exp/static/images/task_images/rocket-06.jpg"",""time"":5276.864999999758},{""stimulus"":""run_exp/static/images/task_images/rocket-07.jpg"",""time"":6331.499999999767},{""stimulus"":""run_exp/static/images/task_images/rocket-08.jpg"",""time"":7391.340000000084},{""stimulus"":""run_exp/static/images/task_images/rocket-09.jpg"",""time"":8443.32499999972}]",[],9,,,,,,,,,,,,,,
alien_welcome,207,646840,0.0-62.0-1.0,,null,run_exp/static/images/task_images/aliens/old_aliens/planet/alien_planet-60.jpg,null,,,,,,,,,,,,60,"47,50,37,76,54,71,26,41,11,60,1,23,17,65,30,56,14,35,5,9,72,39,18,43,31,73,21,44,28,45,24,34,80,66,20,16,57,36,42,55,64,59,25,77,70",,,,,,,,,,
land,208,647342,0.0-62.0-2.0,,null,run_exp/static/images/task_images/land.jpg,null,,,,,,103,,,10,,,,,,,,,,,,,,
dig,209,649351,0.0-62.0-3.0,,,,,,,,,,,"[{""stimulus"":""run_exp/static/images/task_images/dig.jpg"",""time"":0.32999999984167516},{""stimulus"":""run_exp/static/images/task_images/land.jpg"",""time"":670.0449999998091},{""stimulus"":""run_exp/static/images/task_images/dig.jpg"",""time"":1335.4999999996508}]",[],10,,,,,,,,,,,,,,
harvest,210,650358,0.0-62.0-4.0,,null,run_exp/static/images/task_images/gems/103.jpg,null,,,,,,30,,,10,,,,,103,0.291029151,0.291262136,,,,,,,
decision,211,650733,0.0-62.0-5.0,,373.02,run_exp/static/images/task_images/land.jpg,65,,,,,,30,,,10,,,,,,,,296033,1,0,FALSE,,,
dig,212,653365,0.0-63.0-0.0,,,,,,,,,,,"[{""stimulus"":""run_exp/static/images/task_images/dig.jpg"",""time"":0.1950000001816079},{""stimulus"":""run_exp/static/images/task_images/land.jpg"",""time"":876.75},{""stimulus"":""run_exp/static/images/task_images/dig.jpg"",""time"":1756.184999999823}]",[],10,,,,,,,,,,,,,,
harvest,213,654368,0.0-63.0-1.0,,null,run_exp/static/images/task_images/gems/30.jpg,null,,,,,,7,,,10,,,,,30,0.240463274,0.233333333,,,,,,,
decision,214,655097,0.0-63.0-2.0,,727.155,run_exp/static/images/task_images/land.jpg,76,,,,,,7,,,10,,,,,,,,300397,1,1,TRUE,,,
end_of_block_continue,215,663946,0.0-64.0-0.0,,null,run_exp/static/audio/clip_32_block_end.m4a,,,,,,null,,,,,,,,,,,,,,,,,,
alien_welcome,216,668968,0.0-65.0-0.0,,null,run_exp/static/images/task_images/aliens/old_aliens/planet/alien_planet-1.jpg,null,,,,,,,,,,,,1,"47,50,37,76,54,71,26,41,11,60,1,23,17,65,30,56,14,35,5,9,72,39,18,43,31,73,21,44,28,45,24,34,80,66,20,16,57,36,42,55,64,59,25,77,70",,,,,,,,,,
land,217,669472,0.0-65.0-1.0,,null,run_exp/static/images/task_images/land.jpg,null,,,,,,97,,,11,,,,,,,,,,,,,,
dig,218,671480,0.0-65.0-2.0,,,,,,,,,,,"[{""stimulus"":""run_exp/static/images/task_images/dig.jpg"",""time"":0.33500000019557774},{""stimulus"":""run_exp/static/images/task_images/land.jpg"",""time"":671.5899999999674},{""stimulus"":""run_exp/static/images/task_images/dig.jpg"",""time"":1337.36500000034}]",[],11,,,,,,,,,,,,,,
harvest,219,672486,0.0-65.0-3.0,,null,run_exp/static/images/task_images/gems/97.jpg,null,,,,,,14,,,11,,,,,97,0.139496651,0.144329897,,,,,,,
decision,220,673153,0.0-65.0-4.0,,665.025,run_exp/static/images/task_images/land.jpg,65,,,,,,14,,,11,,,,,,,,9189,2,0,FALSE,,,
dig,221,675493,0.0-66.0-0.0,,,,,,,,,,,"[{""stimulus"":""run_exp/static/images/task_images/dig.jpg"",""time"":0.18499999993946403},{""stimulus"":""run_exp/static/images/task_images/land.jpg"",""time"":781.5599999999395},{""stimulus"":""run_exp/static/images/task_images/dig.jpg"",""time"":1560.5599999999395}]",[],11,,,,,,,,,,,,,,
harvest,222,676496,0.0-66.0-1.0,,null,run_exp/static/images/task_images/gems/14.jpg,null,,,,,,3,,,11,,,,,14,0.212819915,0.214285714,,,,,,,
decision,223,676560,0.0-66.0-2.0,,62.48,run_exp/static/images/task_images/land.jpg,76,,,,,,3,,,11,,,,,,,,12596,2,1,TRUE,,,
travel,224,686504,0.0-67.0-0.0,,,,,,,,,,,"[{""stimulus"":""run_exp/static/images/task_images/rocket-01.jpg"",""time"":0.14000000001396984},{""stimulus"":""run_exp/static/images/task_images/rocket-02.jpg"",""time"":1104.9849999998696},{""stimulus"":""run_exp/static/images/task_images/rocket-03.jpg"",""time"":2210.960000000312},{""stimulus"":""run_exp/static/images/task_images/rocket-04.jpg"",""time"":3314.4400000000605},{""stimulus"":""run_exp/static/images/task_images/rocket-05.jpg"",""time"":4419.0200000002515},{""stimulus"":""run_exp/static/images/task_images/rocket-06.jpg"",""time"":5525.445000000182},{""stimulus"":""run_exp/static/images/task_images/rocket-07.jpg"",""time"":6630.065000000293},{""stimulus"":""run_exp/static/images/task_images/rocket-08.jpg"",""time"":7730.635000000359},{""stimulus"":""run_exp/static/images/task_images/rocket-09.jpg"",""time"":8836.970000000205}]",[],11,,,,,,,,,,,,,,
alien_welcome,225,691506,0.0-67.0-1.0,,null,run_exp/static/images/task_images/aliens/old_aliens/planet/alien_planet-23.jpg,null,,,,,,,,,,,,23,"47,50,37,76,54,71,26,41,11,60,1,23,17,65,30,56,14,35,5,9,72,39,18,43,31,73,21,44,28,45,24,34,80,66,20,16,57,36,42,55,64,59,25,77,70",,,,,,,,,,
land,226,692013,0.0-67.0-2.0,,null,run_exp/static/images/task_images/land.jpg,null,,,,,,101,,,12,,,,,,,,,,,,,,
dig,227,694020,0.0-67.0-3.0,,,,,,,,,,,"[{""stimulus"":""run_exp/static/images/task_images/dig.jpg"",""time"":0.33500000019557774},{""stimulus"":""run_exp/static/images/task_images/land.jpg"",""time"":671.1150000001071},{""stimulus"":""run_exp/static/images/task_images/dig.jpg"",""time"":1337.0500000000466}]",[],12,,,,,,,,,,,,,,
harvest,228,695024,0.0-67.0-4.0,,null,run_exp/static/images/task_images/gems/101.jpg,null,,,,,,28,,,12,,,,,101,0.273417495,0.277227723,,,,,,,
decision,229,695463,0.0-67.0-5.0,,437.37,run_exp/static/images/task_images/land.jpg,65,,,,,,28,,,12,,,,,,,,31499,2,0,FALSE,,,
dig,230,698031,0.0-68.0-0.0,,,,,,,,,,,"[{""stimulus"":""run_exp/static/images/task_images/dig.jpg"",""time"":0.17999999993480742},{""stimulus"":""run_exp/static/images/task_images/land.jpg"",""time"":855.4649999996182},{""stimulus"":""run_exp/static/images/task_images/dig.jpg"",""time"":1714.184999999823}]",[],12,,,,,,,,,,,,,,
harvest,231,699034,0.0-68.0-1.0,,null,run_exp/static/images/task_images/gems/28.jpg,null,,,,,,6,,,12,,,,,28,0.227555777,0.214285714,,,,,,,
decision,232,700175,0.0-68.0-2.0,,1139.43,run_exp/static/images/task_images/land.jpg,76,,,,,,6,,,12,,,,,,,,36212,2,1,TRUE,,,
travel,233,709038,0.0-69.0-0.0,,,,,,,,,,,"[{""stimulus"":""run_exp/static/images/task_images/rocket-01.jpg"",""time"":0.1849999998230487},{""stimulus"":""run_exp/static/images/task_images/rocket-02.jpg"",""time"":986.7700000000186},{""stimulus"":""run_exp/static/images/task_images/rocket-03.jpg"",""time"":1973.4300000000512},{""stimulus"":""run_exp/static/images/task_images/rocket-04.jpg"",""time"":2958.180000000051},{""stimulus"":""run_exp/static/images/task_images/rocket-05.jpg"",""time"":3937.335000000079},{""stimulus"":""run_exp/static/images/task_images/rocket-06.jpg"",""time"":4924.155000000144},{""stimulus"":""run_exp/static/images/task_images/rocket-07.jpg"",""time"":5909.439999999944},{""stimulus"":""run_exp/static/images/task_images/rocket-08.jpg"",""time"":6893.454999999842},{""stimulus"":""run_exp/static/images/task_images/rocket-09.jpg"",""time"":7874.409999999916}]",[],12,,,,,,,,,,,,,,
alien_welcome,234,714042,0.0-69.0-1.0,,null,run_exp/static/images/task_images/aliens/old_aliens/planet/alien_planet-17.jpg,null,,,,,,,,,,,,17,"47,50,37,76,54,71,26,41,11,60,1,23,17,65,30,56,14,35,5,9,72,39,18,43,31,73,21,44,28,45,24,34,80,66,20,16,57,36,42,55,64,59,25,77,70",,,,,,,,,,
land,235,714545,0.0-69.0-2.0,,null,run_exp/static/images/task_images/land.jpg,null,,,,,,101,,,13,,,,,,,,,,,,,,
dig,236,716553,0.0-69.0-3.0,,,,,,,,,,,"[{""stimulus"":""run_exp/static/images/task_images/dig.jpg"",""time"":0.34000000008381903},{""stimulus"":""run_exp/static/images/task_images/land.jpg"",""time"":669.6999999999534},{""stimulus"":""run_exp/static/images/task_images/dig.jpg"",""time"":1338.405000000028}]",[],13,,,,,,,,,,,,,,
harvest,237,717560,0.0-69.0-4.0,,null,run_exp/static/images/task_images/gems/101.jpg,null,,,,,,19,,,13,,,,,101,0.188638523,0.188118812,,,,,,,
decision,238,717649,0.0-69.0-5.0,,87.075,run_exp/static/images/task_images/land.jpg,65,,,,,,19,,,13,,,,,,,,53686,2,0,FALSE,,,
dig,239,720565,0.0-70.0-0.0,,,,,,,,,,,"[{""stimulus"":""run_exp/static/images/task_images/dig.jpg"",""time"":0.30000000016298145},{""stimulus"":""run_exp/static/images/task_images/land.jpg"",""time"":974.4599999998463},{""stimulus"":""run_exp/static/images/task_images/dig.jpg"",""time"":1946.3000000000466}]",[],13,,,,,,,,,,,,,,
harvest,240,721571,0.0-70.0-1.0,,null,run_exp/static/images/task_images/gems/19.jpg,null,,,,,,2,,,13,,,,,19,0.099621973,0.105263158,,,,,,,
decision,241,721933,0.0-70.0-2.0,,360.53,run_exp/static/images/task_images/land.jpg,76,,,,,,2,,,13,,,,,,,,57969,2,1,TRUE,,,
travel,242,731583,0.0-71.0-0.0,,,,,,,,,,,"[{""stimulus"":""run_exp/static/images/task_images/rocket-01.jpg"",""time"":0.1949999995995313},{""stimulus"":""run_exp/static/images/task_images/rocket-02.jpg"",""time"":1077.170000000042},{""stimulus"":""run_exp/static/images/task_images/rocket-03.jpg"",""time"":2143.229999999632},{""stimulus"":""run_exp/static/images/task_images/rocket-04.jpg"",""time"":3215.689999999944},{""stimulus"":""run_exp/static/images/task_images/rocket-05.jpg"",""time"":4288.224999999744},{""stimulus"":""run_exp/static/images/task_images/rocket-06.jpg"",""time"":5360.2299999997485},{""stimulus"":""run_exp/static/images/task_images/rocket-07.jpg"",""time"":6432.29999999993},{""stimulus"":""run_exp/static/images/task_images/rocket-08.jpg"",""time"":7499.604999999981},{""stimulus"":""run_exp/static/images/task_images/rocket-09.jpg"",""time"":8570.584999999846}]",[],13,,,,,,,,,,,,,,
alien_welcome,243,736589,0.0-71.0-1.0,,null,run_exp/static/images/task_images/aliens/old_aliens/planet/alien_planet-65.jpg,null,,,,,,,,,,,,65,"47,50,37,76,54,71,26,41,11,60,1,23,17,65,30,56,14,35,5,9,72,39,18,43,31,73,21,44,28,45,24,34,80,66,20,16,57,36,42,55,64,59,25,77,70",,,,,,,,,,
land,244,737093,0.0-71.0-2.0,,null,run_exp/static/images/task_images/land.jpg,null,,,,,,89,,,14,,,,,,,,,,,,,,
dig,245,739098,0.0-71.0-3.0,,,,,,,,,,,"[{""stimulus"":""run_exp/static/images/task_images/dig.jpg"",""time"":0.32499999995343387},{""stimulus"":""run_exp/static/images/task_images/land.jpg"",""time"":669.2949999996927},{""stimulus"":""run_exp/static/images/task_images/dig.jpg"",""time"":1340.4099999997998}]",[],14,,,,,,,,,,,,,,
harvest,246,740102,0.0-71.0-4.0,,null,run_exp/static/images/task_images/gems/89.jpg,null,,,,,,71,,,14,,,,,89,0.797672673,0.797752809,,,,,,,
decision,247,740510,0.0-71.0-5.0,,405.925,run_exp/static/images/task_images/land.jpg,65,,,,,,71,,,14,,,,,,,,76546,2,0,FALSE,,,
dig,248,743108,0.0-72.0-0.0,,,,,,,,,,,"[{""stimulus"":""run_exp/static/images/task_images/dig.jpg"",""time"":0.20000000030267984},{""stimulus"":""run_exp/static/images/task_images/land.jpg"",""time"":869.9399999999441},{""stimulus"":""run_exp/static/images/task_images/dig.jpg"",""time"":1732.5600000002887}]",[],14,,,,,,,,,,,,,,
harvest,249,744116,0.0-72.0-1.0,,null,run_exp/static/images/task_images/gems/71.jpg,null,,,,,,61,,,14,,,,,71,0.865173503,0.85915493,,,,,,,
decision,250,744455,0.0-72.0-2.0,,336.825,run_exp/static/images/task_images/land.jpg,65,,,,,,61,,,14,,,,,,,,80491,2,1,FALSE,,,
dig,251,747121,0.0-73.0-0.0,,,,,,,,,,,"[{""stimulus"":""run_exp/static/images/task_images/dig.jpg"",""time"":0.18000000005122274},{""stimulus"":""run_exp/static/images/task_images/land.jpg"",""time"":888.0200000003679},{""stimulus"":""run_exp/static/images/task_images/dig.jpg"",""time"":1778.9649999999674}]",[],14,,,,,,,,,,,,,,
harvest,252,748128,0.0-73.0-1.0,,null,run_exp/static/images/task_images/gems/61.jpg,null,,,,,,43,,,14,,,,,61,0.71135204,0.704918033,,,,,,,
decision,253,748376,0.0-73.0-2.0,,246.49,run_exp/static/images/task_images/land.jpg,65,,,,,,43,,,14,,,,,,,,84412,2,2,FALSE,,,
dig,254,751131,0.0-74.0-0.0,,,,,,,,,,,"[{""stimulus"":""run_exp/static/images/task_images/dig.jpg"",""time"":0.14499999990221113},{""stimulus"":""run_exp/static/images/task_images/land.jpg"",""time"":919.1150000001071},{""stimulus"":""run_exp/static/images/task_images/dig.jpg"",""time"":1840.0900000000838}]",[],14,,,,,,,,,,,,,,
harvest,255,752136,0.0-74.0-1.0,,null,run_exp/static/images/task_images/gems/43.jpg,null,,,,,,35,,,14,,,,,43,0.808758673,0.813953488,,,,,,,
decision,256,752507,0.0-74.0-2.0,,368.675,run_exp/static/images/task_images/land.jpg,65,,,,,,35,,,14,,,,,,,,88543,2,3,FALSE,,,
dig,257,755143,0.0-75.0-0.0,,,,,,,,,,,"[{""stimulus"":""run_exp/static/images/task_images/dig.jpg"",""time"":0.1849999998230487},{""stimulus"":""run_exp/static/images/task_images/land.jpg"",""time"":879.9999999996508},{""stimulus"":""run_exp/static/images/task_images/dig.jpg"",""time"":1760.164999999688}]",[],14,,,,,,,,,,,,,,
harvest,258,756149,0.0-75.0-1.0,,null,run_exp/static/images/task_images/gems/35.jpg,null,,,,,,30,,,14,,,,,35,0.843717268,0.857142857,,,,,,,
decision,259,756423,0.0-75.0-2.0,,272.13,run_exp/static/images/task_images/land.jpg,65,,,,,,30,,,14,,,,,,,,92460,2,4,FALSE,,,
dig,260,759157,0.0-76.0-0.0,,,,,,,,,,,"[{""stimulus"":""run_exp/static/images/task_images/dig.jpg"",""time"":0.1900000001769513},{""stimulus"":""run_exp/static/images/task_images/land.jpg"",""time"":910.675000000163},{""stimulus"":""run_exp/static/images/task_images/dig.jpg"",""time"":1820.1800000001676}]",[],14,,,,,,,,,,,,,,
harvest,261,760159,0.0-76.0-1.0,,null,run_exp/static/images/task_images/gems/30.jpg,null,,,,,,24,,,14,,,,,30,0.815700847,0.8,,,,,,,
decision,262,760453,0.0-76.0-2.0,,291.975,run_exp/static/images/task_images/land.jpg,65,,,,,,24,,,14,,,,,,,,96489,2,5,FALSE,,,
dig,263,763165,0.0-77.0-0.0,,,,,,,,,,,"[{""stimulus"":""run_exp/static/images/task_images/dig.jpg"",""time"":0.18999999971129},{""stimulus"":""run_exp/static/images/task_images/land.jpg"",""time"":904.9850000001024},{""stimulus"":""run_exp/static/images/task_images/dig.jpg"",""time"":1809.054999999702}]",[],14,,,,,,,,,,,,,,
harvest,264,764171,0.0-77.0-1.0,,null,run_exp/static/images/task_images/gems/24.jpg,null,,,,,,20,,,14,,,,,24,0.833407626,0.833333333,,,,,,,
decision,265,764530,0.0-77.0-2.0,,356.915,run_exp/static/images/task_images/land.jpg,65,,,,,,20,,,14,,,,,,,,100566,2,6,FALSE,,,
dig,266,767179,0.0-78.0-0.0,,,,,,,,,,,"[{""stimulus"":""run_exp/static/images/task_images/dig.jpg"",""time"":0.1900000001769513},{""stimulus"":""run_exp/static/images/task_images/land.jpg"",""time"":882.9949999998789},{""stimulus"":""run_exp/static/images/task_images/dig.jpg"",""time"":1767.280000000028}]",[],14,,,,,,,,,,,,,,
harvest,267,768181,0.0-78.0-1.0,,null,run_exp/static/images/task_images/gems/20.jpg,null,,,,,,15,,,14,,,,,20,0.728708426,0.75,,,,,,,
decision,268,768662,0.0-78.0-2.0,,477.735,run_exp/static/images/task_images/land.jpg,65,,,,,,15,,,14,,,,,,,,104698,2,7,FALSE,,,
dig,269,771195,0.0-79.0-0.0,,,,,,,,,,,"[{""stimulus"":""run_exp/static/images/task_images/dig.jpg"",""time"":0.43499999993946403},{""stimulus"":""run_exp/static/images/task_images/land.jpg"",""time"":843.940000000177},{""stimulus"":""run_exp/static/images/task_images/dig.jpg"",""time"":1685.785000000149}]",[],14,,,,,,,,,,,,,,
harvest,270,772200,0.0-79.0-1.0,,null,run_exp/static/images/task_images/gems/15.jpg,null,,,,,,10,,,14,,,,,15,0.699146583,0.666666667,,,,,,,
decision,271,773070,0.0-79.0-2.0,,868.305,run_exp/static/images/task_images/land.jpg,76,,,,,,10,,,14,,,,,,,,109107,2,8,TRUE,,,
travel,272,782203,0.0-80.0-0.0,,,,,,,,,,,"[{""stimulus"":""run_exp/static/images/task_images/rocket-01.jpg"",""time"":0.1900000001769513},{""stimulus"":""run_exp/static/images/task_images/rocket-02.jpg"",""time"":1017.265000000014},{""stimulus"":""run_exp/static/images/task_images/rocket-03.jpg"",""time"":2029.4300000000512},{""stimulus"":""run_exp/static/images/task_images/rocket-04.jpg"",""time"":3045.935000000056},{""stimulus"":""run_exp/static/images/task_images/rocket-05.jpg"",""time"":4059.390000000363},{""stimulus"":""run_exp/static/images/task_images/rocket-06.jpg"",""time"":5072.510000000009},{""stimulus"":""run_exp/static/images/task_images/rocket-07.jpg"",""time"":6087.885000000359},{""stimulus"":""run_exp/static/images/task_images/rocket-08.jpg"",""time"":7101.305000000168},{""stimulus"":""run_exp/static/images/task_images/rocket-09.jpg"",""time"":8115.209999999963}]",[],14,,,,,,,,,,,,,,
alien_welcome,273,787206,0.0-80.0-1.0,,null,run_exp/static/images/task_images/aliens/old_aliens/planet/alien_planet-30.jpg,null,,,,,,,,,,,,30,"47,50,37,76,54,71,26,41,11,60,1,23,17,65,30,56,14,35,5,9,72,39,18,43,31,73,21,44,28,45,24,34,80,66,20,16,57,36,42,55,64,59,25,77,70",,,,,,,,,,
land,274,787710,0.0-80.0-2.0,,null,run_exp/static/images/task_images/land.jpg,null,,,,,,108,,,15,,,,,,,,,,,,,,
dig,275,789719,0.0-80.0-3.0,,,,,,,,,,,"[{""stimulus"":""run_exp/static/images/task_images/dig.jpg"",""time"":0.3399999999674037},{""stimulus"":""run_exp/static/images/task_images/land.jpg"",""time"":673.2849999997998},{""stimulus"":""run_exp/static/images/task_images/dig.jpg"",""time"":1340.4249999998137}]",[],15,,,,,,,,,,,,,,
harvest,276,790725,0.0-80.0-4.0,,null,run_exp/static/images/task_images/gems/108.jpg,null,,,,,,90,,,15,,,,,108,0.835186865,0.833333333,,,,,,,
decision,277,790782,0.0-80.0-5.0,,54.975,run_exp/static/images/task_images/land.jpg,65,,,,,,90,,,15,,,,,,,,126818,2,0,FALSE,,,
dig,278,793732,0.0-81.0-0.0,,,,,,,,,,,"[{""stimulus"":""run_exp/static/images/task_images/dig.jpg"",""time"":0.18500000040512532},{""stimulus"":""run_exp/static/images/task_images/land.jpg"",""time"":986.2000000003027},{""stimulus"":""run_exp/static/images/task_images/dig.jpg"",""time"":1963.5850000004284}]",[],15,,,,,,,,,,,,,,
harvest,279,794739,0.0-81.0-1.0,,null,run_exp/static/images/task_images/gems/90.jpg,null,,,,,,82,,,15,,,,,90,0.911677476,0.911111111,,,,,,,
decision,280,794796,0.0-81.0-2.0,,55.315,run_exp/static/images/task_images/land.jpg,65,,,,,,82,,,15,,,,,,,,130832,2,1,FALSE,,,
dig,281,797745,0.0-82.0-0.0,,,,,,,,,,,"[{""stimulus"":""run_exp/static/images/task_images/dig.jpg"",""time"":0.1950000001816079},{""stimulus"":""run_exp/static/images/task_images/land.jpg"",""time"":985.8850000001257},{""stimulus"":""run_exp/static/images/task_images/dig.jpg"",""time"":1967.3250000000698}]",[],15,,,,,,,,,,,,,,
harvest,282,798751,0.0-82.0-1.0,,null,run_exp/static/images/task_images/gems/82.jpg,null,,,,,,63,,,15,,,,,82,0.767776954,0.768292683,,,,,,,
decision,283,798794,0.0-82.0-2.0,,40.915,run_exp/static/images/task_images/land.jpg,65,,,,,,63,,,15,,,,,,,,134830,2,2,FALSE,,,
dig,284,801760,0.0-83.0-0.0,,,,,,,,,,,"[{""stimulus"":""run_exp/static/images/task_images/dig.jpg"",""time"":0.1900000001769513},{""stimulus"":""run_exp/static/images/task_images/land.jpg"",""time"":990.7150000003166},{""stimulus"":""run_exp/static/images/task_images/dig.jpg"",""time"":1978.1700000002747}]",[],15,,,,,,,,,,,,,,
harvest,285,802761,0.0-83.0-1.0,,null,run_exp/static/images/task_images/gems/63.jpg,null,,,,,,53,,,15,,,,,63,0.837850476,0.841269841,,,,,,,
decision,286,803032,0.0-83.0-2.0,,268.98,run_exp/static/images/task_images/land.jpg,65,,,,,,53,,,15,,,,,,,,139068,2,3,FALSE,,,
dig,287,805769,0.0-84.0-0.0,,,,,,,,,,,"[{""stimulus"":""run_exp/static/images/task_images/dig.jpg"",""time"":0.20499999984167516},{""stimulus"":""run_exp/static/images/task_images/land.jpg"",""time"":916.1849999995902},{""stimulus"":""run_exp/static/images/task_images/dig.jpg"",""time"":1826.1949999995995}]",[],15,,,,,,,,,,,,,,
harvest,288,806775,0.0-84.0-1.0,,null,run_exp/static/images/task_images/gems/53.jpg,null,,,,,,41,,,15,,,,,53,0.767882746,0.773584906,,,,,,,
decision,289,807009,0.0-84.0-2.0,,231.305,run_exp/static/images/task_images/land.jpg,65,,,,,,41,,,15,,,,,,,,143045,2,4,FALSE,,,
dig,290,809780,0.0-85.0-0.0,,,,,,,,,,,"[{""stimulus"":""run_exp/static/images/task_images/dig.jpg"",""time"":0.19999999995343387},{""stimulus"":""run_exp/static/images/task_images/land.jpg"",""time"":923.6449999997858},{""stimulus"":""run_exp/static/images/task_images/dig.jpg"",""time"":1850.1849999997066}]",[],15,,,,,,,,,,,,,,
harvest,291,810786,0.0-85.0-1.0,,null,run_exp/static/images/task_images/gems/41.jpg,null,,,,,,31,,,15,,,,,41,0.75595279,0.756097561,,,,,,,
decision,292,811007,0.0-85.0-2.0,,218.8,run_exp/static/images/task_images/land.jpg,65,,,,,,31,,,15,,,,,,,,147043,2,5,FALSE,,,
dig,293,813795,0.0-86.0-0.0,,,,,,,,,,,"[{""stimulus"":""run_exp/static/images/task_images/dig.jpg"",""time"":0.21500000008381903},{""stimulus"":""run_exp/static/images/task_images/land.jpg"",""time"":930.0450000000419},{""stimulus"":""run_exp/static/images/task_images/dig.jpg"",""time"":1856.6000000000931}]",[],15,,,,,,,,,,,,,,
harvest,294,814801,0.0-86.0-1.0,,null,run_exp/static/images/task_images/gems/31.jpg,null,,,,,,26,,,15,,,,,31,0.840557371,0.838709677,,,,,,,
decision,295,815153,0.0-86.0-2.0,,349.66,run_exp/static/images/task_images/land.jpg,76,,,,,,26,,,15,,,,,,,,151189,2,6,TRUE,,,
travel,296,824811,0.0-87.0-0.0,,,,,,,,,,,"[{""stimulus"":""run_exp/static/images/task_images/rocket-01.jpg"",""time"":0.23000000009778887},{""stimulus"":""run_exp/static/images/task_images/rocket-02.jpg"",""time"":1077.119999999879},{""stimulus"":""run_exp/static/images/task_images/rocket-03.jpg"",""time"":2146.1800000001676},{""stimulus"":""run_exp/static/images/task_images/rocket-04.jpg"",""time"":3219.180000000051},{""stimulus"":""run_exp/static/images/task_images/rocket-05.jpg"",""time"":4291.590000000317},{""stimulus"":""run_exp/static/images/task_images/rocket-06.jpg"",""time"":5362.8400000002},{""stimulus"":""run_exp/static/images/task_images/rocket-07.jpg"",""time"":6435.870000000228},{""stimulus"":""run_exp/static/images/task_images/rocket-08.jpg"",""time"":7510.2200000000885},{""stimulus"":""run_exp/static/images/task_images/rocket-09.jpg"",""time"":8580.960000000196}]",[],15,,,,,,,,,,,,,,
alien_welcome,297,829817,0.0-87.0-1.0,,null,run_exp/static/images/task_images/aliens/old_aliens/planet/alien_planet-56.jpg,null,,,,,,,,,,,,56,"47,50,37,76,54,71,26,41,11,60,1,23,17,65,30,56,14,35,5,9,72,39,18,43,31,73,21,44,28,45,24,34,80,66,20,16,57,36,42,55,64,59,25,77,70",,,,,,,,,,
land,298,830319,0.0-87.0-2.0,,null,run_exp/static/images/task_images/land.jpg,null,,,,,,95,,,16,,,,,,,,,,,,,,
dig,299,832328,0.0-87.0-3.0,,,,,,,,,,,"[{""stimulus"":""run_exp/static/images/task_images/dig.jpg"",""time"":0.23999999987427145},{""stimulus"":""run_exp/static/images/task_images/land.jpg"",""time"":673.1249999998836},{""stimulus"":""run_exp/static/images/task_images/dig.jpg"",""time"":1339.785000000149}]",[],16,,,,,,,,,,,,,,
harvest,300,833335,0.0-87.0-4.0,,null,run_exp/static/images/task_images/gems/95.jpg,null,,,,,,78,,,16,,,,,95,0.82276192,0.821052632,,,,,,,
decision,301,835026,0.0-87.0-5.0,,1689.395,run_exp/static/images/task_images/land.jpg,76,,,,,,78,,,16,,,,,,,,171062,2,0,TRUE,,,
travel,302,843340,0.0-88.0-0.0,,,,,,,,,,,"[{""stimulus"":""run_exp/static/images/task_images/rocket-01.jpg"",""time"":0.24500000022817403},{""stimulus"":""run_exp/static/images/task_images/rocket-02.jpg"",""time"":929.2550000000047},{""stimulus"":""run_exp/static/images/task_images/rocket-03.jpg"",""time"":1852.230000000447},{""stimulus"":""run_exp/static/images/task_images/rocket-04.jpg"",""time"":2773.4800000003306},{""stimulus"":""run_exp/static/images/task_images/rocket-05.jpg"",""time"":3696.3600000003353},{""stimulus"":""run_exp/static/images/task_images/rocket-06.jpg"",""time"":4621.290000000037},{""stimulus"":""run_exp/static/images/task_images/rocket-07.jpg"",""time"":5542.60000000021},{""stimulus"":""run_exp/static/images/task_images/rocket-08.jpg"",""time"":6462.35000000021},{""stimulus"":""run_exp/static/images/task_images/rocket-09.jpg"",""time"":7388.310000000289}]",[],16,,,,,,,,,,,,,,
alien_welcome,303,848347,0.0-88.0-1.0,,null,run_exp/static/images/task_images/aliens/old_aliens/planet/alien_planet-14.jpg,null,,,,,,,,,,,,14,"47,50,37,76,54,71,26,41,11,60,1,23,17,65,30,56,14,35,5,9,72,39,18,43,31,73,21,44,28,45,24,34,80,66,20,16,57,36,42,55,64,59,25,77,70",,,,,,,,,,
land,304,848851,0.0-88.0-2.0,,null,run_exp/static/images/task_images/land.jpg,null,,,,,,97,,,17,,,,,,,,,,,,,,
dig,305,850860,0.0-88.0-3.0,,,,,,,,,,,"[{""stimulus"":""run_exp/static/images/task_images/dig.jpg"",""time"":0.33499999972991645},{""stimulus"":""run_exp/static/images/task_images/land.jpg"",""time"":671.7199999998556},{""stimulus"":""run_exp/static/images/task_images/dig.jpg"",""time"":1337.5599999999395}]",[],17,,,,,,,,,,,,,,
harvest,306,851863,0.0-88.0-4.0,,null,run_exp/static/images/task_images/gems/97.jpg,null,,,,,,84,,,17,,,,,97,0.868017168,0.865979381,,,,,,,
decision,307,852983,0.0-88.0-5.0,,1117.895,run_exp/static/images/task_images/land.jpg,65,,,,,,84,,,17,,,,,,,,189019,2,0,FALSE,,,
dig,308,854870,0.0-89.0-0.0,,,,,,,,,,,"[{""stimulus"":""run_exp/static/images/task_images/dig.jpg"",""time"":0.1900000002933666},{""stimulus"":""run_exp/static/images/task_images/land.jpg"",""time"":630.4550000000745},{""stimulus"":""run_exp/static/images/task_images/dig.jpg"",""time"":1258.4250000000466}]",[],17,,,,,,,,,,,,,,
harvest,309,855872,0.0-89.0-1.0,,null,run_exp/static/images/task_images/gems/84.jpg,null,,,,,,78,,,17,,,,,84,0.926415398,0.928571429,,,,,,,
decision,310,856622,0.0-89.0-2.0,,747.92,run_exp/static/images/task_images/land.jpg,65,,,,,,78,,,17,,,,,,,,192658,2,1,FALSE,,,
dig,311,858878,0.0-90.0-0.0,,,,,,,,,,,"[{""stimulus"":""run_exp/static/images/task_images/dig.jpg"",""time"":0.1900000001769513},{""stimulus"":""run_exp/static/images/task_images/land.jpg"",""time"":752.5550000000512},{""stimulus"":""run_exp/static/images/task_images/dig.jpg"",""time"":1506.1599999999162}]",[],17,,,,,,,,,,,,,,
harvest,312,859881,0.0-90.0-1.0,,null,run_exp/static/images/task_images/gems/78.jpg,null,,,,,,58,,,17,,,,,78,0.738042885,0.743589744,,,,,,,
decision,313,860198,0.0-90.0-2.0,,315.27,run_exp/static/images/task_images/land.jpg,65,,,,,,58,,,17,,,,,,,,196235,2,2,FALSE,,,
dig,314,862886,0.0-91.0-0.0,,,,,,,,,,,"[{""stimulus"":""run_exp/static/images/task_images/dig.jpg"",""time"":0.1849999998230487},{""stimulus"":""run_exp/static/images/task_images/land.jpg"",""time"":896.8600000003353},{""stimulus"":""run_exp/static/images/task_images/dig.jpg"",""time"":1791.0700000001816}]",[],17,,,,,,,,,,,,,,
harvest,315,863891,0.0-91.0-1.0,,null,run_exp/static/images/task_images/gems/58.jpg,null,,,,,,47,,,17,,,,,58,0.817373369,0.810344828,,,,,,,
decision,316,864510,0.0-91.0-2.0,,615.68,run_exp/static/images/task_images/land.jpg,76,,,,,,47,,,17,,,,,,,,200546,2,3,TRUE,,,
travel,317,873894,0.0-92.0-0.0,,,,,,,,,,,"[{""stimulus"":""run_exp/static/images/task_images/rocket-01.jpg"",""time"":0.1950000001816079},{""stimulus"":""run_exp/static/images/task_images/rocket-02.jpg"",""time"":1046.7850000000326},{""stimulus"":""run_exp/static/images/task_images/rocket-03.jpg"",""time"":2087.9100000002654},{""stimulus"":""run_exp/static/images/task_images/rocket-04.jpg"",""time"":3127.105000000098},{""stimulus"":""run_exp/static/images/task_images/rocket-05.jpg"",""time"":4171.539999999921},{""stimulus"":""run_exp/static/images/task_images/rocket-06.jpg"",""time"":5212.195000000065},{""stimulus"":""run_exp/static/images/task_images/rocket-07.jpg"",""time"":6256.875000000116},{""stimulus"":""run_exp/static/images/task_images/rocket-08.jpg"",""time"":7295.209999999846},{""stimulus"":""run_exp/static/images/task_images/rocket-09.jpg"",""time"":8337.720000000088}]",[],17,,,,,,,,,,,,,,
alien_welcome,318,878899,0.0-92.0-1.0,,null,run_exp/static/images/task_images/aliens/old_aliens/planet/alien_planet-35.jpg,null,,,,,,,,,,,,35,"47,50,37,76,54,71,26,41,11,60,1,23,17,65,30,56,14,35,5,9,72,39,18,43,31,73,21,44,28,45,24,34,80,66,20,16,57,36,42,55,64,59,25,77,70",,,,,,,,,,
land,319,879405,0.0-92.0-2.0,,null,run_exp/static/images/task_images/land.jpg,null,,,,,,101,,,18,,,,,,,,,,,,,,
dig,320,881414,0.0-92.0-3.0,,,,,,,,,,,"[{""stimulus"":""run_exp/static/images/task_images/dig.jpg"",""time"":0.44999999995343387},{""stimulus"":""run_exp/static/images/task_images/land.jpg"",""time"":673.9099999999162},{""stimulus"":""run_exp/static/images/task_images/dig.jpg"",""time"":1338.2750000000233}]",[],18,,,,,,,,,,,,,,
harvest,321,882418,0.0-92.0-4.0,,null,run_exp/static/images/task_images/gems/101.jpg,null,,,,,,77,,,18,,,,,101,0.761131819,0.762376238,,,,,,,
decision,322,883108,0.0-92.0-5.0,,688.72,run_exp/static/images/task_images/land.jpg,65,,,,,,77,,,18,,,,,,,,219144,2,0,FALSE,,,
dig,323,885424,0.0-93.0-0.0,,,,,,,,,,,"[{""stimulus"":""run_exp/static/images/task_images/dig.jpg"",""time"":0.20000000041909516},{""stimulus"":""run_exp/static/images/task_images/land.jpg"",""time"":773.0000000001164},{""stimulus"":""run_exp/static/images/task_images/dig.jpg"",""time"":1544.1150000002235}]",[],18,,,,,,,,,,,,,,
harvest,324,886428,0.0-93.0-1.0,,null,run_exp/static/images/task_images/gems/77.jpg,null,,,,,,62,,,18,,,,,77,0.806659331,0.805194805,,,,,,,
decision,325,886800,0.0-93.0-2.0,,369.975,run_exp/static/images/task_images/land.jpg,65,,,,,,62,,,18,,,,,,,,222836,2,1,FALSE,,,
dig,326,889434,0.0-94.0-0.0,,,,,,,,,,,"[{""stimulus"":""run_exp/static/images/task_images/dig.jpg"",""time"":0.1900000002933666},{""stimulus"":""run_exp/static/images/task_images/land.jpg"",""time"":882.3800000001211},{""stimulus"":""run_exp/static/images/task_images/dig.jpg"",""time"":1754.6900000002934}]",[],18,,,,,,,,,,,,,,
harvest,327,890439,0.0-94.0-1.0,,null,run_exp/static/images/task_images/gems/62.jpg,null,,,,,,47,,,18,,,,,62,0.75517054,0.758064516,,,,,,,
decision,328,892392,0.0-94.0-2.0,,1950.94,run_exp/static/images/task_images/land.jpg,65,,,,,,47,,,18,,,,,,,,228429,2,2,FALSE,,,
dig,329,893446,0.0-95.0-0.0,,,,,,,,,,,"[{""stimulus"":""run_exp/static/images/task_images/dig.jpg"",""time"":0.19999999995343387},{""stimulus"":""run_exp/static/images/task_images/land.jpg"",""time"":351.1050000002142},{""stimulus"":""run_exp/static/images/task_images/dig.jpg"",""time"":706.4549999999581}]",[],18,,,,,,,,,,,,,,
harvest,330,894448,0.0-95.0-1.0,,null,run_exp/static/images/task_images/gems/47.jpg,null,,,,,,42,,,18,,,,,47,0.885668012,0.893617021,,,,,,,
decision,331,894888,0.0-95.0-2.0,,438.175,run_exp/static/images/task_images/land.jpg,76,,,,,,42,,,18,,,,,,,,230924,2,3,TRUE,,,
travel,332,904456,0.0-96.0-0.0,,,,,,,,,,,"[{""stimulus"":""run_exp/static/images/task_images/rocket-01.jpg"",""time"":0.18999999971129},{""stimulus"":""run_exp/static/images/task_images/rocket-02.jpg"",""time"":1067.3950000000186},{""stimulus"":""run_exp/static/images/task_images/rocket-03.jpg"",""time"":2125.0299999996787},{""stimulus"":""run_exp/static/images/task_images/rocket-04.jpg"",""time"":3190.094999999972},{""stimulus"":""run_exp/static/images/task_images/rocket-05.jpg"",""time"":4248.92499999993},{""stimulus"":""run_exp/static/images/task_images/rocket-06.jpg"",""time"":5311.204999999958},{""stimulus"":""run_exp/static/images/task_images/rocket-07.jpg"",""time"":6372.919999999809},{""stimulus"":""run_exp/static/images/task_images/rocket-08.jpg"",""time"":7445.92499999993},{""stimulus"":""run_exp/static/images/task_images/rocket-09.jpg"",""time"":8499.399999999674}]",[],18,,,,,,,,,,,,,,
alien_welcome,333,909460,0.0-96.0-1.0,,null,run_exp/static/images/task_images/aliens/old_aliens/planet/alien_planet-5.jpg,null,,,,,,,,,,,,5,"47,50,37,76,54,71,26,41,11,60,1,23,17,65,30,56,14,35,5,9,72,39,18,43,31,73,21,44,28,45,24,34,80,66,20,16,57,36,42,55,64,59,25,77,70",,,,,,,,,,
land,334,909966,0.0-96.0-2.0,,null,run_exp/static/images/task_images/land.jpg,null,,,,,,93,,,19,,,,,,,,,,,,,,
dig,335,911976,0.0-96.0-3.0,,,,,,,,,,,"[{""stimulus"":""run_exp/static/images/task_images/dig.jpg"",""time"":0.3399999999674037},{""stimulus"":""run_exp/static/images/task_images/land.jpg"",""time"":671.5699999999488},{""stimulus"":""run_exp/static/images/task_images/dig.jpg"",""time"":1336.5650000000605}]",[],19,,,,,,,,,,,,,,
harvest,336,912982,0.0-96.0-4.0,,null,run_exp/static/images/task_images/gems/93.jpg,null,,,,,,48,,,19,,,,,93,0.517674336,0.516129032,,,,,,,
decision,337,913552,0.0-96.0-5.0,,567.175,run_exp/static/images/task_images/land.jpg,65,,,,,,48,,,19,,,,,,,,249588,2,0,FALSE,,,
dig,338,915987,0.0-97.0-0.0,,,,,,,,,,,"[{""stimulus"":""run_exp/static/images/task_images/dig.jpg"",""time"":0.17499999969732016},{""stimulus"":""run_exp/static/images/task_images/land.jpg"",""time"":816.1549999999115},{""stimulus"":""run_exp/static/images/task_images/dig.jpg"",""time"":1626.1350000000093}]",[],19,,,,,,,,,,,,,,
harvest,339,916993,0.0-97.0-1.0,,null,run_exp/static/images/task_images/gems/48.jpg,null,,,,,,22,,,19,,,,,48,0.452902347,0.458333333,,,,,,,
decision,340,917129,0.0-97.0-2.0,,133.9,run_exp/static/images/task_images/land.jpg,76,,,,,,22,,,19,,,,,,,,253165,2,1,TRUE,,,
travel,341,927004,0.0-98.0-0.0,,,,,,,,,,,"[{""stimulus"":""run_exp/static/images/task_images/rocket-01.jpg"",""time"":0.18999999982770532},{""stimulus"":""run_exp/static/images/task_images/rocket-02.jpg"",""time"":1100.5700000000652},{""stimulus"":""run_exp/static/images/task_images/rocket-03.jpg"",""time"":2193.659999999916},{""stimulus"":""run_exp/static/images/task_images/rocket-04.jpg"",""time"":3290.939999999944},{""stimulus"":""run_exp/static/images/task_images/rocket-05.jpg"",""time"":4385.449999999837},{""stimulus"":""run_exp/static/images/task_images/rocket-06.jpg"",""time"":5483.73499999987},{""stimulus"":""run_exp/static/images/task_images/rocket-07.jpg"",""time"":6580.430000000051},{""stimulus"":""run_exp/static/images/task_images/rocket-08.jpg"",""time"":7675.060000000056},{""stimulus"":""run_exp/static/images/task_images/rocket-09.jpg"",""time"":8770.954999999958}]",[],19,,,,,,,,,,,,,,
alien_welcome,342,932008,0.0-98.0-1.0,,null,run_exp/static/images/task_images/aliens/old_aliens/planet/alien_planet-9.jpg,null,,,,,,,,,,,,9,"47,50,37,76,54,71,26,41,11,60,1,23,17,65,30,56,14,35,5,9,72,39,18,43,31,73,21,44,28,45,24,34,80,66,20,16,57,36,42,55,64,59,25,77,70",,,,,,,,,,
land,343,932512,0.0-98.0-2.0,,null,run_exp/static/images/task_images/land.jpg,null,,,,,,105,,,20,,,,,,,,,,,,,,
dig,344,934521,0.0-98.0-3.0,,,,,,,,,,,"[{""stimulus"":""run_exp/static/images/task_images/dig.jpg"",""time"":0.34000000008381903},{""stimulus"":""run_exp/static/images/task_images/land.jpg"",""time"":669.3100000001723},{""stimulus"":""run_exp/static/images/task_images/dig.jpg"",""time"":1340.395000000135}]",[],20,,,,,,,,,,,,,,
harvest,345,935526,0.0-98.0-4.0,,null,run_exp/static/images/task_images/gems/105.jpg,null,,,,,,74,,,20,,,,,105,0.701460307,0.704761905,,,,,,,
decision,346,936034,0.0-98.0-5.0,,506.72,run_exp/static/images/task_images/land.jpg,65,,,,,,74,,,20,,,,,,,,272071,2,0,FALSE,,,
dig,347,938533,0.0-99.0-0.0,,,,,,,,,,,"[{""stimulus"":""run_exp/static/images/task_images/dig.jpg"",""time"":0.21999999997206032},{""stimulus"":""run_exp/static/images/task_images/land.jpg"",""time"":833.7750000001397},{""stimulus"":""run_exp/static/images/task_images/dig.jpg"",""time"":1668.1750000002794}]",[],20,,,,,,,,,,,,,,
harvest,348,939536,0.0-99.0-1.0,,null,run_exp/static/images/task_images/gems/74.jpg,null,,,,,,62,,,20,,,,,74,0.841639524,0.837837838,,,,,,,
decision,349,939720,0.0-99.0-2.0,,181.56,run_exp/static/images/task_images/land.jpg,65,,,,,,62,,,20,,,,,,,,275756,2,1,FALSE,,,
dig,350,942544,0.0-100.0-0.0,,,,,,,,,,,"[{""stimulus"":""run_exp/static/images/task_images/dig.jpg"",""time"":0.18499999993946403},{""stimulus"":""run_exp/static/images/task_images/land.jpg"",""time"":940.9949999999953},{""stimulus"":""run_exp/static/images/task_images/dig.jpg"",""time"":1883.580000000191}]",[],20,,,,,,,,,,,,,,
harvest,351,943545,0.0-100.0-1.0,,null,run_exp/static/images/task_images/gems/62.jpg,null,,,,,,53,,,20,,,,,62,0.847812546,0.85483871,,,,,,,
decision,352,945125,0.0-100.0-2.0,,1577.74,run_exp/static/images/task_images/land.jpg,76,,,,,,53,,,20,,,,,,,,281161,2,2,TRUE,,,
travel,353,953551,0.0-101.0-0.0,,,,,,,,,,,"[{""stimulus"":""run_exp/static/images/task_images/rocket-01.jpg"",""time"":0.18000000005122274},{""stimulus"":""run_exp/static/images/task_images/rocket-02.jpg"",""time"":940.1699999999255},{""stimulus"":""run_exp/static/images/task_images/rocket-03.jpg"",""time"":1875.1350000002421},{""stimulus"":""run_exp/static/images/task_images/rocket-04.jpg"",""time"":2808.5599999999395},{""stimulus"":""run_exp/static/images/task_images/rocket-05.jpg"",""time"":3742.600000000093},{""stimulus"":""run_exp/static/images/task_images/rocket-06.jpg"",""time"":4676.305000000051},{""stimulus"":""run_exp/static/images/task_images/rocket-07.jpg"",""time"":5613.650000000256},{""stimulus"":""run_exp/static/images/task_images/rocket-08.jpg"",""time"":6551.164999999921},{""stimulus"":""run_exp/static/images/task_images/rocket-09.jpg"",""time"":7486.2400000002235}]",[],20,,,,,,,,,,,,,,
alien_welcome,354,958558,0.0-101.0-1.0,,null,run_exp/static/images/task_images/aliens/old_aliens/planet/alien_planet-72.jpg,null,,,,,,,,,,,,72,"47,50,37,76,54,71,26,41,11,60,1,23,17,65,30,56,14,35,5,9,72,39,18,43,31,73,21,44,28,45,24,34,80,66,20,16,57,36,42,55,64,59,25,77,70",,,,,,,,,,
land,355,959066,0.0-101.0-2.0,,null,run_exp/static/images/task_images/land.jpg,null,,,,,,101,,,21,,,,,,,,,,,,,,
dig,356,961069,0.0-101.0-3.0,,,,,,,,,,,"[{""stimulus"":""run_exp/static/images/task_images/dig.jpg"",""time"":0.3150000002933666},{""stimulus"":""run_exp/static/images/task_images/land.jpg"",""time"":671.9100000000326},{""stimulus"":""run_exp/static/images/task_images/dig.jpg"",""time"":1338.0999999999767}]",[],21,,,,,,,,,,,,,,
harvest,357,962074,0.0-101.0-4.0,,null,run_exp/static/images/task_images/gems/101.jpg,null,,,,,,88,,,21,,,,,101,0.871149649,0.871287129,,,,,,,
decision,358,962517,0.0-101.0-5.0,,441.655,run_exp/static/images/task_images/land.jpg,65,,,,,,88,,,21,,,,,,,,298554,2,0,FALSE,,,
dig,359,965080,0.0-102.0-0.0,,,,,,,,,,,"[{""stimulus"":""run_exp/static/images/task_images/dig.jpg"",""time"":0.18999999971129},{""stimulus"":""run_exp/static/images/task_images/land.jpg"",""time"":855.2799999997951},{""stimulus"":""run_exp/static/images/task_images/dig.jpg"",""time"":1710.169999999809}]",[],21,,,,,,,,,,,,,,
harvest,360,966087,0.0-102.0-1.0,,null,run_exp/static/images/task_images/gems/88.jpg,null,,,,,,71,,,21,,,,,88,0.807702096,0.806818182,,,,,,,
decision,361,966467,0.0-102.0-2.0,,378.165,run_exp/static/images/task_images/land.jpg,65,,,,,,71,,,21,,,,,,,,302503,2,1,TRUE,,,
end_of_block_continue,362,975312,0.0-103.0-0.0,,null,run_exp/static/audio/clip_32_block_end.m4a,,,,,,null,,,,,,,,,,,,,,,,,,
alien_welcome,363,980341,0.0-104.0-0.0,,null,run_exp/static/images/task_images/aliens/old_aliens/planet/alien_planet-39.jpg,null,,,,,,,,,,,,39,"47,50,37,76,54,71,26,41,11,60,1,23,17,65,30,56,14,35,5,9,72,39,18,43,31,73,21,44,28,45,24,34,80,66,20,16,57,36,42,55,64,59,25,77,70",,,,,,,,,,
land,364,980847,0.0-104.0-1.0,,null,run_exp/static/images/task_images/land.jpg,null,,,,,,101,,,22,,,,,,,,,,,,,,
dig,365,982851,0.0-104.0-2.0,,,,,,,,,,,"[{""stimulus"":""run_exp/static/images/task_images/dig.jpg"",""time"":0.5400000000372529},{""stimulus"":""run_exp/static/images/task_images/land.jpg"",""time"":673.1100000002189},{""stimulus"":""run_exp/static/images/task_images/dig.jpg"",""time"":1335.9850000002189}]",[],22,,,,,,,,,,,,,,
harvest,366,983854,0.0-104.0-3.0,,null,run_exp/static/images/task_images/gems/101.jpg,null,,,,,,48,,,22,,,,,101,0.472673554,0.475247525,,,,,,,
decision,367,984194,0.0-104.0-4.0,,337.67,run_exp/static/images/task_images/land.jpg,65,,,,,,48,,,22,,,,,,,,8869,3,0,FALSE,,,
dig,368,986862,0.0-105.0-0.0,,,,,,,,,,,"[{""stimulus"":""run_exp/static/images/task_images/dig.jpg"",""time"":0.19500000006519258},{""stimulus"":""run_exp/static/images/task_images/land.jpg"",""time"":890.5400000002701},{""stimulus"":""run_exp/static/images/task_images/dig.jpg"",""time"":1775.5600000000559}]",[],22,,,,,,,,,,,,,,
harvest,369,987867,0.0-105.0-1.0,,null,run_exp/static/images/task_images/gems/48.jpg,null,,,,,,31,,,22,,,,,48,0.638198899,0.645833333,,,,,,,
decision,370,988754,0.0-105.0-2.0,,884.34,run_exp/static/images/task_images/land.jpg,76,,,,,,31,,,22,,,,,,,,13429,3,1,TRUE,,,
travel,371,997868,0.0-106.0-0.0,,,,,,,,,,,"[{""stimulus"":""run_exp/static/images/task_images/rocket-01.jpg"",""time"":0.14500000001862645},{""stimulus"":""run_exp/static/images/task_images/rocket-02.jpg"",""time"":1014.7400000001071},{""stimulus"":""run_exp/static/images/task_images/rocket-03.jpg"",""time"":2025.0400000000373},{""stimulus"":""run_exp/static/images/task_images/rocket-04.jpg"",""time"":3038.4150000000373},{""stimulus"":""run_exp/static/images/task_images/rocket-05.jpg"",""time"":4051.300000000163},{""stimulus"":""run_exp/static/images/task_images/rocket-06.jpg"",""time"":5062.385000000242},{""stimulus"":""run_exp/static/images/task_images/rocket-07.jpg"",""time"":6074.040000000037},{""stimulus"":""run_exp/static/images/task_images/rocket-08.jpg"",""time"":7086.479999999981},{""stimulus"":""run_exp/static/images/task_images/rocket-09.jpg"",""time"":8098.415000000037}]",[],22,,,,,,,,,,,,,,
alien_welcome,372,1002872,0.0-106.0-1.0,,null,run_exp/static/images/task_images/aliens/old_aliens/planet/alien_planet-18.jpg,null,,,,,,,,,,,,18,"47,50,37,76,54,71,26,41,11,60,1,23,17,65,30,56,14,35,5,9,72,39,18,43,31,73,21,44,28,45,24,34,80,66,20,16,57,36,42,55,64,59,25,77,70",,,,,,,,,,
land,373,1003376,0.0-106.0-2.0,,null,run_exp/static/images/task_images/land.jpg,null,,,,,,98,,,23,,,,,,,,,,,,,,
dig,374,1005380,0.0-106.0-3.0,,,,,,,,,,,"[{""stimulus"":""run_exp/static/images/task_images/dig.jpg"",""time"":0.3399999999674037},{""stimulus"":""run_exp/static/images/task_images/land.jpg"",""time"":670.5650000002934},{""stimulus"":""run_exp/static/images/task_images/dig.jpg"",""time"":1335.4550000003073}]",[],23,,,,,,,,,,,,,,
harvest,375,1006383,0.0-106.0-4.0,,null,run_exp/static/images/task_images/gems/98.jpg,null,,,,,,67,,,23,,,,,98,0.688488405,0.683673469,,,,,,,
decision,376,1007699,0.0-106.0-5.0,,1313.79,run_exp/static/images/task_images/land.jpg,65,,,,,,67,,,23,,,,,,,,32374,3,0,FALSE,,,
dig,377,1009393,0.0-107.0-0.0,,,,,,,,,,,"[{""stimulus"":""run_exp/static/images/task_images/dig.jpg"",""time"":0.20000000041909516},{""stimulus"":""run_exp/static/images/task_images/land.jpg"",""time"":568.2200000000885},{""stimulus"":""run_exp/static/images/task_images/dig.jpg"",""time"":1125.234999999986}]",[],23,,,,,,,,,,,,,,
harvest,378,1010397,0.0-107.0-1.0,,null,run_exp/static/images/task_images/gems/67.jpg,null,,,,,,55,,,23,,,,,67,0.817960711,0.820895522,,,,,,,
decision,379,1011355,0.0-107.0-2.0,,955.86,run_exp/static/images/task_images/land.jpg,65,,,,,,55,,,23,,,,,,,,36030,3,1,FALSE,,,
dig,380,1013404,0.0-108.0-0.0,,,,,,,,,,,"[{""stimulus"":""run_exp/static/images/task_images/dig.jpg"",""time"":0.19999999995343387},{""stimulus"":""run_exp/static/images/task_images/land.jpg"",""time"":684.809999999823},{""stimulus"":""run_exp/static/images/task_images/dig.jpg"",""time"":1365.6449999997858}]",[],23,,,,,,,,,,,,,,
harvest,381,1014409,0.0-108.0-1.0,,null,run_exp/static/images/task_images/gems/55.jpg,null,,,,,,40,,,23,,,,,55,0.735858965,0.727272727,,,,,,,
decision,382,1015020,0.0-108.0-2.0,,609.01,run_exp/static/images/task_images/land.jpg,76,,,,,,40,,,23,,,,,,,,39695,3,2,TRUE,,,
travel,383,1024419,0.0-109.0-0.0,,,,,,,,,,,"[{""stimulus"":""run_exp/static/images/task_images/rocket-01.jpg"",""time"":0.18500000028871},{""stimulus"":""run_exp/static/images/task_images/rocket-02.jpg"",""time"":1047.089999999851},{""stimulus"":""run_exp/static/images/task_images/rocket-03.jpg"",""time"":2092.195000000065},{""stimulus"":""run_exp/static/images/task_images/rocket-04.jpg"",""time"":3135.2650000001304},{""stimulus"":""run_exp/static/images/task_images/rocket-05.jpg"",""time"":4176.630000000354},{""stimulus"":""run_exp/static/images/task_images/rocket-06.jpg"",""time"":5219.715000000084},{""stimulus"":""run_exp/static/images/task_images/rocket-07.jpg"",""time"":6264.005000000354},{""stimulus"":""run_exp/static/images/task_images/rocket-08.jpg"",""time"":7304.574999999953},{""stimulus"":""run_exp/static/images/task_images/rocket-09.jpg"",""time"":8350.195000000298}]",[],23,,,,,,,,,,,,,,
