"trial_type","trial_index","time_elapsed","internal_node_id","interactions","blur_events","focus_events","fullscreenenter_events","fullscreenexit_events","success"
"pavlovia","0","1","0.0-0.0","""event"",""trial"",""time""
""fullscreenenter"",""1"",""1353""
","
","
","""event"",""trial"",""time""
""fullscreenenter"",""1"",""1353""
","
",""
"fullscreen","1","2328","0.0-1.0","""event"",""trial"",""time""
""fullscreenenter"",""1"",""1353""
""fullscreenexit"",""2"",""104990""
""blur"",""2"",""111468""
""focus"",""2"",""111497""
","""event"",""trial"",""time""
""blur"",""2"",""111468""
","""event"",""trial"",""time""
""focus"",""2"",""111497""
","""event"",""trial"",""time""
""fullscreenenter"",""1"",""1353""
","""event"",""trial"",""time""
""fullscreenexit"",""2"",""104990""
","true"
