trial_type,trial_index,time_elapsed,internal_node_id,interactions,blur_events,focus_events,fullscreenenter_events,fullscreenexit_events,success,rt,stimulus,key_press,prompt,subject_id,participant_id,age,gender,button_pressed,next_reward,animation_sequence,responses,planet,curr_prac_trial,n_prac_rounds,alien,aliens,reward_received,decay_rate_actual,decay_rate_exp,time_in_block,block_num,prt,last_trial_on_planet,button_html,bonus,num_failures
pavlovia,0,3,0.0-0.0,"""event"",""trial"",""time""
""fullscreenenter"",""1"",""8986""
","
","
","""event"",""trial"",""time""
""fullscreenenter"",""1"",""8986""
","
",,,,,,,,,,,,,,,,,,,,,,,,,,,,
fullscreen,1,9943,0.0-1.0,"""event"",""trial"",""time""
""fullscreenenter"",""1"",""8986""
","
","
","""event"",""trial"",""time""
""fullscreenenter"",""1"",""8986""
","
",TRUE,,,,,,,,,,,,,,,,,,,,,,,,,,,
instruc_welcome,2,19748,0.0-2.0,"""event"",""trial"",""time""
""fullscreenenter"",""1"",""8986""
","
","
","""event"",""trial"",""time""
""fullscreenenter"",""1"",""8986""
","
",,null,run_exp/static/audio/clip_1_welcome.m4a,null,"<p>Howdy! In this experiment, you’ll be an explorer traveling through space to collect space treasure.</p><p>Your mission is to collect as much treasure as possible.</p><br><br><p><img src='run_exp/static/images/task_images/opening_img-01.jpg' height='300' width='auto'></p>",8015,2124,14.47,Female,,,,,,,,,,,,,,,,,,,
audio-keyboard-response,3,36328,0.0-3.0,"""event"",""trial"",""time""
""fullscreenenter"",""1"",""8986""
","
","
","""event"",""trial"",""time""
""fullscreenenter"",""1"",""8986""
","
",,null,run_exp/static/audio/clip_2_move.m4a,null,,,,,,,,,,,,,,,,,,,,,,,,
welcome_dec,4,40476,0.0-4.0,"""event"",""trial"",""time""
""fullscreenenter"",""1"",""8986""
","
","
","""event"",""trial"",""time""
""fullscreenenter"",""1"",""8986""
","
",,4146.8,"<p>Howdy! In this experiment, you’ll be an explorer traveling through space to collect space treasure.</p><p>Your mission is to collect as much treasure as possible.</p><br><br><p><img src='run_exp/static/images/task_images/opening_img-01.jpg' height='300' width='auto'></p>",,,,,,,1,,,,,,,,,,,,,,,,,,
html-keyboard-response,5,42438,0.0-5.0,"""event"",""trial"",""time""
""fullscreenenter"",""1"",""8986""
","
","
","""event"",""trial"",""time""
""fullscreenenter"",""1"",""8986""
","
",,1960.1,"<p>Howdy! In this experiment, you’ll be an explorer traveling through space to collect space treasure.</p><p>Your mission is to collect as much treasure as possible.</p><br><br><p><img src='run_exp/static/images/task_images/opening_img-01.jpg' height='300' width='auto'></p><button class=""jspsych-html-btn-unchosen""><img src=""run_exp/static/images/task_images/planet-01.jpg"" height=""50""></button><button class=""jspsych-html-btn-chosen""><img src=""run_exp/static/images/task_images/planet-02.jpg"" height=""50""></button><p><b>[press the space bar to lock in your answer]<b><br></p>",32,,,,,,,,,,,,,,,,,,,,,,,,
instruc_goal,6,52507,0.0-6.0-0.0,"""event"",""trial"",""time""
""fullscreenenter"",""1"",""8986""
","
","
","""event"",""trial"",""time""
""fullscreenenter"",""1"",""8986""
","
",,null,run_exp/static/audio/clip_3_goal.m4a,null,"<p> As a space explorer, you’ll visit different planets to dig for space treasure, these pink gems.</p> <p> The more treasure you dig up, the more bonus money you’ll win! </p><br><br><p><img src='run_exp/static/images/task_images/pink_gem.jpg' height='300' width='auto'></p>",,,,,,,,,,,,,,,,,,,,,,,
instruc_goal,7,90078,0.0-6.0-1.0,"""event"",""trial"",""time""
""fullscreenenter"",""1"",""8986""
","
","
","""event"",""trial"",""time""
""fullscreenenter"",""1"",""8986""
","
",,37568.6,"<p> As a space explorer, you’ll visit different planets to dig for space treasure, these pink gems.</p> <p> The more treasure you dig up, the more bonus money you’ll win! </p><br><br><p><img src='run_exp/static/images/task_images/pink_gem.jpg' height='300' width='auto'></p>",,,,,,,0,,,,,,,,,,,,,,,,,,
html-keyboard-response,8,92978,0.0-6.0-2.0,"""event"",""trial"",""time""
""fullscreenenter"",""1"",""8986""
","
","
","""event"",""trial"",""time""
""fullscreenenter"",""1"",""8986""
","
",,2897.1,"<p> As a space explorer, you’ll visit different planets to dig for space treasure, these pink gems.</p> <p> The more treasure you dig up, the more bonus money you’ll win! </p><br><br><p><img src='run_exp/static/images/task_images/pink_gem.jpg' height='300' width='auto'></p><button class=""jspsych-html-btn-chosen""><img src=""run_exp/static/images/task_images/planet-01.jpg"" height=""50""></button><button class=""jspsych-html-btn-unchosen""><img src=""run_exp/static/images/task_images/planet-02.jpg"" height=""50""></button><p><b>[press the space bar to lock in your answer]<b><br></p>",32,,,,,,,,,,,,,,,,,,,,,,,,
instruc_welcome,9,103413,0.0-7.0-0.0,"""event"",""trial"",""time""
""fullscreenenter"",""1"",""8986""
","
","
","""event"",""trial"",""time""
""fullscreenenter"",""1"",""8986""
","
",,null,run_exp/static/audio/clip_1_welcome.m4a,null,"<p>Howdy! In this experiment, you’ll be an explorer traveling through space to collect space treasure.</p><p>Your mission is to collect as much treasure as possible.</p><br><br><p><img src='run_exp/static/images/task_images/opening_img-01.jpg' height='300' width='auto'></p>",8015,2124,14.47,Female,,,,,,,,,,,,,,,,,,,
audio-keyboard-response,10,120012,0.0-7.0-1.0,"""event"",""trial"",""time""
""fullscreenenter"",""1"",""8986""
","
","
","""event"",""trial"",""time""
""fullscreenenter"",""1"",""8986""
","
",,null,run_exp/static/audio/clip_2_move.m4a,null,,,,,,,,,,,,,,,,,,,,,,,,
welcome_dec,11,170806,0.0-7.0-2.0,"""event"",""trial"",""time""
""fullscreenenter"",""1"",""8986""
","
","
","""event"",""trial"",""time""
""fullscreenenter"",""1"",""8986""
","
",,50791.4,"<p>Howdy! In this experiment, you’ll be an explorer traveling through space to collect space treasure.</p><p>Your mission is to collect as much treasure as possible.</p><br><br><p><img src='run_exp/static/images/task_images/opening_img-01.jpg' height='300' width='auto'></p>",,,,,,,1,,,,,,,,,,,,,,,,,,
html-keyboard-response,12,175976,0.0-7.0-3.0,"""event"",""trial"",""time""
""fullscreenenter"",""1"",""8986""
","
","
","""event"",""trial"",""time""
""fullscreenenter"",""1"",""8986""
","
",,5168.1,"<p>Howdy! In this experiment, you’ll be an explorer traveling through space to collect space treasure.</p><p>Your mission is to collect as much treasure as possible.</p><br><br><p><img src='run_exp/static/images/task_images/opening_img-01.jpg' height='300' width='auto'></p><button class=""jspsych-html-btn-unchosen""><img src=""run_exp/static/images/task_images/planet-01.jpg"" height=""50""></button><button class=""jspsych-html-btn-chosen""><img src=""run_exp/static/images/task_images/planet-02.jpg"" height=""50""></button><p><b>[press the space bar to lock in your answer]<b><br></p>",32,,,,,,,,,,,,,,,,,,,,,,,,
instruc_goal,13,186684,0.0-8.0-0.0,"""event"",""trial"",""time""
""fullscreenenter"",""1"",""8986""
","
","
","""event"",""trial"",""time""
""fullscreenenter"",""1"",""8986""
","
",,null,run_exp/static/audio/clip_3_goal.m4a,null,"<p> As a space explorer, you’ll visit different planets to dig for space treasure, these pink gems.</p> <p> The more treasure you dig up, the more bonus money you’ll win! </p><br><br><p><img src='run_exp/static/images/task_images/pink_gem.jpg' height='300' width='auto'></p>",,,,,,,,,,,,,,,,,,,,,,,
instruc_goal,14,195581,0.0-8.0-1.0,"""event"",""trial"",""time""
""fullscreenenter"",""1"",""8986""
","
","
","""event"",""trial"",""time""
""fullscreenenter"",""1"",""8986""
","
",,8895.3,"<p> As a space explorer, you’ll visit different planets to dig for space treasure, these pink gems.</p> <p> The more treasure you dig up, the more bonus money you’ll win! </p><br><br><p><img src='run_exp/static/images/task_images/pink_gem.jpg' height='300' width='auto'></p>",,,,,,,1,,,,,,,,,,,,,,,,,,
html-keyboard-response,15,196997,0.0-8.0-2.0,"""event"",""trial"",""time""
""fullscreenenter"",""1"",""8986""
","
","
","""event"",""trial"",""time""
""fullscreenenter"",""1"",""8986""
","
",,1414.7,"<p> As a space explorer, you’ll visit different planets to dig for space treasure, these pink gems.</p> <p> The more treasure you dig up, the more bonus money you’ll win! </p><br><br><p><img src='run_exp/static/images/task_images/pink_gem.jpg' height='300' width='auto'></p><button class=""jspsych-html-btn-unchosen""><img src=""run_exp/static/images/task_images/planet-01.jpg"" height=""50""></button><button class=""jspsych-html-btn-chosen""><img src=""run_exp/static/images/task_images/planet-02.jpg"" height=""50""></button><p><b>[press the space bar to lock in your answer]<b><br></p>",32,,,,,,,,,,,,,,,,,,,,,,,,
instruc_dig,16,212974,0.0-9.0-0.0,"""event"",""trial"",""time""
""fullscreenenter"",""1"",""8986""
","
","
","""event"",""trial"",""time""
""fullscreenenter"",""1"",""8986""
","
",,null,run_exp/static/audio/clip_4_dig.m4a,null,,,,,,,100,,,,,,,,,,,,,,,,,
instruc_dig_try,17,213889,0.0-9.0-1.0,"""event"",""trial"",""time""
""fullscreenenter"",""1"",""8986""
","
","
","""event"",""trial"",""time""
""fullscreenenter"",""1"",""8986""
","
",,913.6,"<p> When you’ve arrived at a new planet, you will dig once. </p> <p>Then, you get to decide if you want to stay on the planet and dig again or travel to a new planet and dig there.</p> <p> To stay and dig, press the letter <strong>‘A’</strong> on your keyboard. Try pressing it now! </p><p><img src='run_exp/static/images/task_images/land.jpg'  height='700' width='auto'></p>",65,"<p> When you’ve arrived at a new planet, you will dig once. </p> <p>Then, you get to decide if you want to stay on the planet and dig again or travel to a new planet and dig there.</p> <p> To stay and dig, press the letter <strong>‘A’</strong> on your keyboard. Try pressing it now! </p><p><img src='run_exp/static/images/task_images/land.jpg'  height='700' width='auto'></p>",,,,,,100,,,,,,,,,,,,,,,,,
dig_prac,18,215900,0.0-9.0-2.0,"""event"",""trial"",""time""
""fullscreenenter"",""1"",""8986""
","
","
","""event"",""trial"",""time""
""fullscreenenter"",""1"",""8986""
","
",,,,,,,,,,,,"[{""stimulus"":""run_exp/static/images/task_images/dig.jpg"",""time"":0.29999999701976776},{""stimulus"":""run_exp/static/images/task_images/land.jpg"",""time"":669.2999999970198},{""stimulus"":""run_exp/static/images/task_images/dig.jpg"",""time"":1335.9000000059605}]",[],,,,,,,,,,,,,,,
instruc_travel,19,252134,0.0-9.0-3.0,"""event"",""trial"",""time""
""fullscreenenter"",""1"",""8986""
","
","
","""event"",""trial"",""time""
""fullscreenenter"",""1"",""8986""
","
",,null,run_exp/static/audio/clip_5_travel.m4a,null,"<p>Every time you dig up gems, there are less gems on the planet, so the more you dig on a planet the fewer gems you’ll get with each dig.</p><p>When gems are running low, you may want to travel to a new planet. </p> <p>  Planets are very far apart in this galaxy, so it will take some time to travel between them. </p> <br><p>There are lots and lots of planets for you to visit, so you won’t be able to return to any planets you’ve seen before. </p><br><p>To leave this planet and travel to a new one, press the letter <strong>‘L’</strong> on your keyboard. Try pressing it now! </p><p><img src='run_exp/static/images/task_images/rocket-01.jpg'  height='600' width='auto'></p>",,,,,,,,,,,,,,,,,,,,,,,
instruc_travel_try,20,256234,0.0-9.0-4.0,"""event"",""trial"",""time""
""fullscreenenter"",""1"",""8986""
","
","
","""event"",""trial"",""time""
""fullscreenenter"",""1"",""8986""
","
",,4097.6,"<p>Every time you dig up gems, there are less gems on the planet, so the more you dig on a planet the fewer gems you’ll get with each dig.</p><p>When gems are running low, you may want to travel to a new planet. </p> <p>  Planets are very far apart in this galaxy, so it will take some time to travel between them. </p> <br><p>There are lots and lots of planets for you to visit, so you won’t be able to return to any planets you’ve seen before. </p><br><p>To leave this planet and travel to a new one, press the letter <strong>‘L’</strong> on your keyboard. Try pressing it now! </p><p><img src='run_exp/static/images/task_images/rocket-01.jpg'  height='600' width='auto'></p>",76,"<p>Every time you dig up gems, there are less gems on the planet, so the more you dig on a planet the fewer gems you’ll get with each dig.</p><p>When gems are running low, you may want to travel to a new planet. </p> <p>  Planets are very far apart in this galaxy, so it will take some time to travel between them. </p> <br><p>There are lots and lots of planets for you to visit, so you won’t be able to return to any planets you’ve seen before. </p><br><p>To leave this planet and travel to a new one, press the letter <strong>‘L’</strong> on your keyboard. Try pressing it now! </p><p><img src='run_exp/static/images/task_images/rocket-01.jpg'  height='600' width='auto'></p>",,,,,,,,,,,,,,,,,,,,,,,
travel_prac,21,266237,0.0-9.0-5.0,"""event"",""trial"",""time""
""fullscreenenter"",""1"",""8986""
","
","
","""event"",""trial"",""time""
""fullscreenenter"",""1"",""8986""
","
",,,,,,,,,,,,"[{""stimulus"":""run_exp/static/images/task_images/rocket-01.jpg"",""time"":0.20000000298023224},{""stimulus"":""run_exp/static/images/task_images/rocket-02.jpg"",""time"":1112.5},{""stimulus"":""run_exp/static/images/task_images/rocket-03.jpg"",""time"":2224.7999999970198},{""stimulus"":""run_exp/static/images/task_images/rocket-04.jpg"",""time"":3334.4000000059605},{""stimulus"":""run_exp/static/images/task_images/rocket-05.jpg"",""time"":4447.100000008941},{""stimulus"":""run_exp/static/images/task_images/rocket-06.jpg"",""time"":5557.20000000298},{""stimulus"":""run_exp/static/images/task_images/rocket-07.jpg"",""time"":6668},{""stimulus"":""run_exp/static/images/task_images/rocket-08.jpg"",""time"":7778.79999999702},{""stimulus"":""run_exp/static/images/task_images/rocket-09.jpg"",""time"":8889.10000000894}]",[],0,,,,,,,,,,,,,,
instruc_alien_greet,22,293414,0.0-9.0-6.0,"""event"",""trial"",""time""
""fullscreenenter"",""1"",""8986""
","
","
","""event"",""trial"",""time""
""fullscreenenter"",""1"",""8986""
","
",,null,run_exp/static/audio/clip_6_alien.m4a,null,"<p>When you arrive at a new planet, the alien who owns the treasure mine on that planet will greet you!</p><p>The better an alien takes care of their mine the easier it is to dig for gems. Some aliens take better care of their mine than others. So, you won’t get exactly the same amount of gems on each planet.</p><p>What the alien looks like does not tell you anything about how many gems there are on the planet.</p><br><p><img src=""run_exp/static/images/task_images/aliens/instructions_aliens/planet/alien_planet-1.jpg""  height=""600"" width=""auto""></p>",,,,,,,,,,,,,,,,,,,,,,,
instruc_alien_greet,23,296392,0.0-9.0-7.0,"""event"",""trial"",""time""
""fullscreenenter"",""1"",""8986""
","
","
","""event"",""trial"",""time""
""fullscreenenter"",""1"",""8986""
","
",,2975.9,"<p>When you arrive at a new planet, the alien who owns the treasure mine on that planet will greet you!</p><p>The better an alien takes care of their mine the easier it is to dig for gems. Some aliens take better care of their mine than others. So, you won’t get exactly the same amount of gems on each planet.</p><p>What the alien looks like does not tell you anything about how many gems there are on the planet.</p><br><p><img src=""run_exp/static/images/task_images/aliens/instructions_aliens/planet/alien_planet-1.jpg""  height=""600"" width=""auto""></p>",,,,,,,1,,,,,,,,,,,,,,,,,,
html-keyboard-response,24,297180,0.0-9.0-8.0,"""event"",""trial"",""time""
""fullscreenenter"",""1"",""8986""
","
","
","""event"",""trial"",""time""
""fullscreenenter"",""1"",""8986""
","
",,785.8,"<p>When you arrive at a new planet, the alien who owns the treasure mine on that planet will greet you!</p><p>The better an alien takes care of their mine the easier it is to dig for gems. Some aliens take better care of their mine than others. So, you won’t get exactly the same amount of gems on each planet.</p><p>What the alien looks like does not tell you anything about how many gems there are on the planet.</p><br><p><img src=""run_exp/static/images/task_images/aliens/instructions_aliens/planet/alien_planet-1.jpg""  height=""600"" width=""auto""></p><button class=""jspsych-html-btn-unchosen""><img src=""run_exp/static/images/task_images/planet-01.jpg"" height=""50""></button><button class=""jspsych-html-btn-chosen""><img src=""run_exp/static/images/task_images/planet-02.jpg"" height=""50""></button><p><b>[press the space bar to lock in your answer]<b><br></p>",32,,,,,,,,,,,,,,,,,,,,,,,,
time_out,25,308254,0.0-10.0-0.0,"""event"",""trial"",""time""
""fullscreenenter"",""1"",""8986""
","
","
","""event"",""trial"",""time""
""fullscreenenter"",""1"",""8986""
","
",,null,run_exp/static/audio/clip_7_timeout.m4a,null,"<p>If you don't make your choice fast enough, you’ll have to wait a few seconds before you can make another one.</p><p>You can’t dig for more gems or travel to new planets. You just have to sit and wait.</p><br><p><img src='run_exp/static/images/task_images/time_out.jpg'  height='600' width='auto'></p>",,,,,,,,,,,,,,,,,,,,,,,
time_out,26,310622,0.0-10.0-1.0,"""event"",""trial"",""time""
""fullscreenenter"",""1"",""8986""
","
","
","""event"",""trial"",""time""
""fullscreenenter"",""1"",""8986""
","
",,2366.4,"<p>If you don't make your choice fast enough, you’ll have to wait a few seconds before you can make another one.</p><p>You can’t dig for more gems or travel to new planets. You just have to sit and wait.</p><br><p><img src='run_exp/static/images/task_images/time_out.jpg'  height='600' width='auto'></p>",,,,,,,1,,,,,,,,,,,,,,,,,,
html-keyboard-response,27,317815,0.0-10.0-2.0,"""event"",""trial"",""time""
""fullscreenenter"",""1"",""8986""
","
","
","""event"",""trial"",""time""
""fullscreenenter"",""1"",""8986""
","
",,7191.2,"<p>If you don't make your choice fast enough, you’ll have to wait a few seconds before you can make another one.</p><p>You can’t dig for more gems or travel to new planets. You just have to sit and wait.</p><br><p><img src='run_exp/static/images/task_images/time_out.jpg'  height='600' width='auto'></p><button class=""jspsych-html-btn-unchosen""><img src=""run_exp/static/images/task_images/planet-01.jpg"" height=""50""></button><button class=""jspsych-html-btn-chosen""><img src=""run_exp/static/images/task_images/planet-02.jpg"" height=""50""></button><p><b>[press the space bar to lock in your answer]<b><br></p>",32,,,,,,,,,,,,,,,,,,,,,,,,
instruc_break,28,333473,0.0-11.0-0.0,"""event"",""trial"",""time""
""fullscreenenter"",""1"",""8986""
","
","
","""event"",""trial"",""time""
""fullscreenenter"",""1"",""8986""
","
",,null,run_exp/static/audio/clip_8_break.m4a,null,"<p> After digging and traveling for a while, you’ll be able to take a break at home base. </p><p>The game will last 20 minutes no matter what.</p><p>You will visit home base every 5 minutes, so, you will visit home base three times during the game.</p><br><p><img src='run_exp/static/images/task_images/home_base.jpg' height='600' width='auto'></p>",,,,,,,,,,,,,,,,,,,,,,,
instruc_break,29,336538,0.0-11.0-1.0,"""event"",""trial"",""time""
""fullscreenenter"",""1"",""8986""
","
","
","""event"",""trial"",""time""
""fullscreenenter"",""1"",""8986""
","
",,3063.1,"<p> After digging and traveling for a while, you’ll be able to take a break at home base. </p><p>The game will last 20 minutes no matter what.</p><p>You will visit home base every 5 minutes, so, you will visit home base three times during the game.</p><br><p><img src='run_exp/static/images/task_images/home_base.jpg' height='600' width='auto'></p>",,,,,,,1,,,,,,,,,,,,,,,,,,
html-keyboard-response,30,341865,0.0-11.0-2.0,"""event"",""trial"",""time""
""fullscreenenter"",""1"",""8986""
","
","
","""event"",""trial"",""time""
""fullscreenenter"",""1"",""8986""
","
",,5325.9,"<p> After digging and traveling for a while, you’ll be able to take a break at home base. </p><p>The game will last 20 minutes no matter what.</p><p>You will visit home base every 5 minutes, so, you will visit home base three times during the game.</p><br><p><img src='run_exp/static/images/task_images/home_base.jpg' height='600' width='auto'></p><button class=""jspsych-html-btn-unchosen""><img src=""run_exp/static/images/task_images/planet-01.jpg"" height=""50""></button><button class=""jspsych-html-btn-chosen""><img src=""run_exp/static/images/task_images/planet-02.jpg"" height=""50""></button><p><b>[press the space bar to lock in your answer]<b><br></p>",32,,,,,,,,,,,,,,,,,,,,,,,,
instruc_prac_game,31,351994,0.0-12.0-0.0,"""event"",""trial"",""time""
""fullscreenenter"",""1"",""8986""
","
","
","""event"",""trial"",""time""
""fullscreenenter"",""1"",""8986""
","
",,null,run_exp/static/audio/clip_9_practice.m4a,null,"<p> Are you ready to play a practice game? </p> <p>In this practice game, you'll be digging up barrels of gems. But, in the real game, you'll be digging up the gems themselves. </p>",,,,,,,,,,,,,,,,,,,,,,,
html-button-response,32,355333,0.0-12.0-1.0,"""event"",""trial"",""time""
""fullscreenenter"",""1"",""8986""
","
","
","""event"",""trial"",""time""
""fullscreenenter"",""1"",""8986""
","
",,3336.8,"<p> Are you ready to play a practice game? </p> <p>In this practice game, you'll be digging up barrels of gems. But, in the real game, you'll be digging up the gems themselves. </p>",,,,,,,0,,,,,,,,,,,,,,,,,,
alien_welcome_prac,33,360350,0.0-13.0-0.0,"""event"",""trial"",""time""
""fullscreenenter"",""1"",""8986""
","
","
","""event"",""trial"",""time""
""fullscreenenter"",""1"",""8986""
","
",,null,run_exp/static/images/task_images/aliens/practice_aliens/planet/alien_planet-5.jpg,null,,,,,,,,,,,,,,,,,,,,,,,,
land_prac,34,360853,0.0-13.0-1.0,"""event"",""trial"",""time""
""fullscreenenter"",""1"",""8986""
","
","
","""event"",""trial"",""time""
""fullscreenenter"",""1"",""8986""
","
",,null,run_exp/static/images/task_images/land.jpg,null,,,,,,,103,,,0,,,,,,,,,,,,,,
dig_prac,35,362856,0.0-13.0-2.0,"""event"",""trial"",""time""
""fullscreenenter"",""1"",""8986""
","
","
","""event"",""trial"",""time""
""fullscreenenter"",""1"",""8986""
","
",,,,,,,,,,,,"[{""stimulus"":""run_exp/static/images/task_images/dig.jpg"",""time"":0.29999999701976776},{""stimulus"":""run_exp/static/images/task_images/land.jpg"",""time"":670},{""stimulus"":""run_exp/static/images/task_images/dig.jpg"",""time"":1343.7000000029802}]",[],,,,,,,,,,,,,,,
harvest_prac,36,363859,0.0-13.0-3.0,"""event"",""trial"",""time""
""fullscreenenter"",""1"",""8986""
","
","
","""event"",""trial"",""time""
""fullscreenenter"",""1"",""8986""
","
",,null,run_exp/static/images/task_images/barrel_text.jpg,null,,,,,,,,,,,,,,,,,,,,,,,,
decision_prac,37,364635,0.0-13.0-4.0,"""event"",""trial"",""time""
""fullscreenenter"",""1"",""8986""
","
","
","""event"",""trial"",""time""
""fullscreenenter"",""1"",""8986""
","
",,774.7,run_exp/static/images/task_images/land.jpg,65,,,,,,,,,,,1,,,,,,,,,,,,,
dig_prac,38,366638,0.0-14.0-0.0,"""event"",""trial"",""time""
""fullscreenenter"",""1"",""8986""
","
","
","""event"",""trial"",""time""
""fullscreenenter"",""1"",""8986""
","
",,,,,,,,,,,,"[{""stimulus"":""run_exp/static/images/task_images/dig.jpg"",""time"":0.09999999403953552},{""stimulus"":""run_exp/static/images/task_images/land.jpg"",""time"":668.7999999970198},{""stimulus"":""run_exp/static/images/task_images/dig.jpg"",""time"":1334.7000000029802}]",[],,,,,,,,,,,,,,,
harvest_prac,39,367641,0.0-14.0-1.0,"""event"",""trial"",""time""
""fullscreenenter"",""1"",""8986""
","
","
","""event"",""trial"",""time""
""fullscreenenter"",""1"",""8986""
","
",,null,run_exp/static/images/task_images/barrel_text.jpg,null,,,,,,,,,,,,,,,,,,,,,,,,
decision_prac,40,368741,0.0-14.0-2.0,"""event"",""trial"",""time""
""fullscreenenter"",""1"",""8986""
","
","
","""event"",""trial"",""time""
""fullscreenenter"",""1"",""8986""
","
",,1099.6,run_exp/static/images/task_images/land.jpg,65,,,,,,,,,,,2,,,,,,,,,,,,,
dig_prac,41,370745,0.0-15.0-0.0,"""event"",""trial"",""time""
""fullscreenenter"",""1"",""8986""
","
","
","""event"",""trial"",""time""
""fullscreenenter"",""1"",""8986""
","
",,,,,,,,,,,,"[{""stimulus"":""run_exp/static/images/task_images/dig.jpg"",""time"":0.20000000298023224},{""stimulus"":""run_exp/static/images/task_images/land.jpg"",""time"":668.4000000059605},{""stimulus"":""run_exp/static/images/task_images/dig.jpg"",""time"":1350.5999999940395}]",[],,,,,,,,,,,,,,,
harvest_prac,42,371752,0.0-15.0-1.0,"""event"",""trial"",""time""
""fullscreenenter"",""1"",""8986""
","
","
","""event"",""trial"",""time""
""fullscreenenter"",""1"",""8986""
","
",,null,run_exp/static/images/task_images/barrel_text.jpg,null,,,,,,,,,,,,,,,,,,,,,,,,
decision_prac,43,373400,0.0-15.0-2.0,"""event"",""trial"",""time""
""fullscreenenter"",""1"",""8986""
","
","
","""event"",""trial"",""time""
""fullscreenenter"",""1"",""8986""
","
",,1647.6,run_exp/static/images/task_images/land.jpg,65,,,,,,,,,,,3,,,,,,,,,,,,,
dig_prac,44,375407,0.0-16.0-0.0,"""event"",""trial"",""time""
""fullscreenenter"",""1"",""8986""
","
","
","""event"",""trial"",""time""
""fullscreenenter"",""1"",""8986""
","
",,,,,,,,,,,,"[{""stimulus"":""run_exp/static/images/task_images/dig.jpg"",""time"":0.10000000894069672},{""stimulus"":""run_exp/static/images/task_images/land.jpg"",""time"":668.4000000059605},{""stimulus"":""run_exp/static/images/task_images/dig.jpg"",""time"":1335.4000000059605}]",[],,,,,,,,,,,,,,,
harvest_prac,45,376409,0.0-16.0-1.0,"""event"",""trial"",""time""
""fullscreenenter"",""1"",""8986""
","
","
","""event"",""trial"",""time""
""fullscreenenter"",""1"",""8986""
","
",,null,run_exp/static/images/task_images/barrel_text.jpg,null,,,,,,,,,,,,,,,,,,,,,,,,
decision_prac,46,377265,0.0-16.0-2.0,"""event"",""trial"",""time""
""fullscreenenter"",""1"",""8986""
","
","
","""event"",""trial"",""time""
""fullscreenenter"",""1"",""8986""
","
",,855.4,run_exp/static/images/task_images/land.jpg,65,,,,,,,,,,,4,,,,,,,,,,,,,
dig_prac,47,379270,0.0-17.0-0.0,"""event"",""trial"",""time""
""fullscreenenter"",""1"",""8986""
","
","
","""event"",""trial"",""time""
""fullscreenenter"",""1"",""8986""
","
",,,,,,,,,,,,"[{""stimulus"":""run_exp/static/images/task_images/dig.jpg"",""time"":0.09999999403953552},{""stimulus"":""run_exp/static/images/task_images/land.jpg"",""time"":668.2999999970198},{""stimulus"":""run_exp/static/images/task_images/dig.jpg"",""time"":1336.2000000029802}]",[],,,,,,,,,,,,,,,
harvest_prac,48,380272,0.0-17.0-1.0,"""event"",""trial"",""time""
""fullscreenenter"",""1"",""8986""
","
","
","""event"",""trial"",""time""
""fullscreenenter"",""1"",""8986""
","
",,null,run_exp/static/images/task_images/barrel_text.jpg,null,,,,,,,,,,,,,,,,,,,,,,,,
decision_prac,49,381146,0.0-17.0-2.0,"""event"",""trial"",""time""
""fullscreenenter"",""1"",""8986""
","
","
","""event"",""trial"",""time""
""fullscreenenter"",""1"",""8986""
","
",,872.4,run_exp/static/images/task_images/land.jpg,65,,,,,,,,,,,,1,,,,,,,,,,,,
quiz_instruc,50,392252,0.0-18.0-0.0,"""event"",""trial"",""time""
""fullscreenenter"",""1"",""8986""
","
","
","""event"",""trial"",""time""
""fullscreenenter"",""1"",""8986""
","
",,11103.6,run_exp/static/audio/clip_10_quiz.m4a,,,,,,,0,,,,,,,,,,,,,,,,,,
instruc_repeat,51,435004,0.0-18.0-1.0,"""event"",""trial"",""time""
""fullscreenenter"",""1"",""8986""
","
","
","""event"",""trial"",""time""
""fullscreenenter"",""1"",""8986""
","
",,null,"<p> Are you ready to play a practice game? </p> <p>In this practice game, you'll be digging up barrels of gems. But, in the real game, you'll be digging up the gems themselves. </p>",null,"<p>In this game, your goal is to collect as many gems as you can. That’s how you will win bonus money. </p> <p>The entire game will last 20 minutes no matter how many gems you collect or how many planets you visit. </p><p>To stay on a planet and dig again, press the letter A on your keyboard. To leave for a new planet, press the letter L.</p><p>The more you dig on a planet, the fewer gems you’ll get with each dig which is why you might consider leaving for a new planet. </p><p>When you arrive at a new planet, you’ll be greeted by an alien. What the alien looks like does not tell you anything about how much treasure is on the planet. </p>",,,,,,,,,,,,,,,,,,,,,,,
instruc_repeat_continue,52,437722,0.0-18.0-2.0,"""event"",""trial"",""time""
""fullscreenenter"",""1"",""8986""
","
","
","""event"",""trial"",""time""
""fullscreenenter"",""1"",""8986""
","
",,2717.1,"<p> Are you ready to play a practice game? </p> <p>In this practice game, you'll be digging up barrels of gems. But, in the real game, you'll be digging up the gems themselves. </p>",,,,,,,0,,,,,,,,,,,,,,,,,,
quiz_q_1_ask,53,448371,0.0-18.0-3.0,"""event"",""trial"",""time""
""fullscreenenter"",""1"",""8986""
","
","
","""event"",""trial"",""time""
""fullscreenenter"",""1"",""8986""
","
",,10646.7,run_exp/static/audio/clip_11_q1_ask.m4a,,,,,,,2,,,,,,,,,,,,,,,,,,
quiz_q_1_fb_correct,54,452223,0.0-19.0-0.0,"""event"",""trial"",""time""
""fullscreenenter"",""1"",""8986""
","
","
","""event"",""trial"",""time""
""fullscreenenter"",""1"",""8986""
","
",,null,run_exp/static/audio/clip_12_q1_correct.m4a,null,<p>That’s correct. You win extra money by collecting more gems.</p>,,,,,,,,,,,,,,,,,,,,,,,
quiz_q_2_ask,55,464097,0.0-19.0-1.0,"""event"",""trial"",""time""
""fullscreenenter"",""1"",""8986""
","
","
","""event"",""trial"",""time""
""fullscreenenter"",""1"",""8986""
","
",,11872.1,run_exp/static/audio/clip_14_q2_ask.m4a,,,,,,,1,,,,,,,,,,,,,,,,,,
quiz_q_2_fb_correct,56,468103,0.0-20.0-0.0,"""event"",""trial"",""time""
""fullscreenenter"",""1"",""8986""
","
","
","""event"",""trial"",""time""
""fullscreenenter"",""1"",""8986""
","
",,null,run_exp/static/audio/clip_15_q2_correct.m4a,null,<p>That’s correct. The experiment is 20 minutes no matter what.</p>,,,,,,,,,,,,,,,,,,,,,,,
quiz_q_3_ask,57,472935,0.0-20.0-1.0,"""event"",""trial"",""time""
""fullscreenenter"",""1"",""8986""
","
","
","""event"",""trial"",""time""
""fullscreenenter"",""1"",""8986""
","
",,4831,run_exp/static/audio/clip_17_q3_ask.m4a,,,,,,,1,,,,,,,,,,,,,,,,,,
quiz_q_3_fb_correct,58,476923,0.0-21.0-0.0,"""event"",""trial"",""time""
""fullscreenenter"",""1"",""8986""
","
","
","""event"",""trial"",""time""
""fullscreenenter"",""1"",""8986""
","
",,null,run_exp/static/audio/clip_18_q3_correct.m4a,null,<p> That’s correct. You press the letter L to travel to a new planet.</p>,,,,,,,,,,,,,,,,,,,,,,,
quiz_q_4_ask,59,486550,0.0-21.0-1.0,"""event"",""trial"",""time""
""fullscreenenter"",""1"",""8986""
","
","
","""event"",""trial"",""time""
""fullscreenenter"",""1"",""8986""
","
",,9624.9,run_exp/static/audio/clip_20_q4_ask.m4a,,,,,,,0,,,,,,,,,,,,,,,,,,
quiz_q_4_fb_correct,60,491883,0.0-22.0-0.0,"""event"",""trial"",""time""
""fullscreenenter"",""1"",""8986""
","
","
","""event"",""trial"",""time""
""fullscreenenter"",""1"",""8986""
","
",,null,run_exp/static/audio/clip_21_q4_correct.m4a,null,<p> That’s correct. The more you dig on a planet the fewer gems you’ll get with each dig. </p>,,,,,,,,,,,,,,,,,,,,,,,
quiz_q_5_ask,61,497350,0.0-22.0-1.0,"""event"",""trial"",""time""
""fullscreenenter"",""1"",""8986""
","
","
","""event"",""trial"",""time""
""fullscreenenter"",""1"",""8986""
","
",,5466,run_exp/static/audio/clip_23_q5_ask.m4a,,,,,,,1,,,,,,,,,,,,,,,,,,
quiz_q_5_fb_correct,62,502363,0.0-23.0-0.0,"""event"",""trial"",""time""
""fullscreenenter"",""1"",""8986""
","
","
","""event"",""trial"",""time""
""fullscreenenter"",""1"",""8986""
","
",,null,run_exp/static/audio/clip_24_q5_correct.m4a,null,<p> That’s correct. The alien tells you nothing about how much treasure is on the planet.</p>,,,,,,,,,,,,,,,,,,,,,,,
quiz_correct,63,505824,0.0-24.0-0.0,"""event"",""trial"",""time""
""fullscreenenter"",""1"",""8986""
","
","
","""event"",""trial"",""time""
""fullscreenenter"",""1"",""8986""
","
",,null,run_exp/static/audio/clip_26_correct_quiz.m4a,null,,,,,,,,,,,,,,,,,,,,,,,,
quiz_correct_continue,64,507258,0.0-24.0-1.0,"""event"",""trial"",""time""
""fullscreenenter"",""1"",""8986""
","
","
","""event"",""trial"",""time""
""fullscreenenter"",""1"",""8986""
","
",,1432.9,<p>Good job! You're now ready to move on to the real game!</p>,,,,,,,0,,,,,,,,,,,,,,,,,,
audio-keyboard-response,65,517383,0.0-24.0-2.0,"""event"",""trial"",""time""
""fullscreenenter"",""1"",""8986""
","
","
","""event"",""trial"",""time""
""fullscreenenter"",""1"",""8986""
","
",,null,run_exp/static/audio/clip_28_real_game.m4a,null,,,,,,,,,,,,,,,,,,,,,,,,
instruc_begin_exp_contine,66,519145,0.0-24.0-3.0,"""event"",""trial"",""time""
""fullscreenenter"",""1"",""8986""
","
","
","""event"",""trial"",""time""
""fullscreenenter"",""1"",""8986""
","
",,1760.2,"<p>Now that you know how  to dig for space treasure and travel to new planets,you can start exploring! </p><p>Do you want to go over the instructions again or get started with the real game?</p>",,,,,,,1,,,,,,1,,,,,,,,,,,,
alien_welcome,67,524149,0.0-25.0-0.0,"""event"",""trial"",""time""
""fullscreenenter"",""1"",""8986""
","
","
","""event"",""trial"",""time""
""fullscreenenter"",""1"",""8986""
","
",,null,run_exp/static/images/task_images/aliens/old_aliens/planet/alien_planet-1.jpg,null,,,,,,,,,,,,,1,"1,46,21,29,72,16,71,36,48,66,26,43,63,62,28,49,79,67,14,18,7,60,20,42,51,57,38,17,32,19,52,11,47,34,74,10",,,,,,,,,,
land,68,524652,0.0-25.0-1.0,"""event"",""trial"",""time""
""fullscreenenter"",""1"",""8986""
","
","
","""event"",""trial"",""time""
""fullscreenenter"",""1"",""8986""
","
",,null,run_exp/static/images/task_images/land.jpg,null,,,,,,,103,,,1,,,,,,,,,,,,,,
dig,69,526656,0.0-25.0-2.0,"""event"",""trial"",""time""
""fullscreenenter"",""1"",""8986""
","
","
","""event"",""trial"",""time""
""fullscreenenter"",""1"",""8986""
","
",,,,,,,,,,,,"[{""stimulus"":""run_exp/static/images/task_images/dig.jpg"",""time"":0.29999999701976776},{""stimulus"":""run_exp/static/images/task_images/land.jpg"",""time"":684.7000000029802},{""stimulus"":""run_exp/static/images/task_images/dig.jpg"",""time"":1336.8999999910593}]",[],1,,,,,,,,,,,,,,
harvest,70,527659,0.0-25.0-3.0,"""event"",""trial"",""time""
""fullscreenenter"",""1"",""8986""
","
","
","""event"",""trial"",""time""
""fullscreenenter"",""1"",""8986""
","
",,null,run_exp/static/images/task_images/gems/103.jpg,null,,,,,,,22,,,1,,,,,103,0.212497699,0.213592233,,,,,,,
decision,71,528330,0.0-25.0-4.0,"""event"",""trial"",""time""
""fullscreenenter"",""1"",""8986""
","
","
","""event"",""trial"",""time""
""fullscreenenter"",""1"",""8986""
","
",,669.8,run_exp/static/images/task_images/land.jpg,65,,,,,,,22,,,1,,,,,,,,9184,1,0,FALSE,,,
dig,72,530661,0.0-26.0-0.0,"""event"",""trial"",""time""
""fullscreenenter"",""1"",""8986""
","
","
","""event"",""trial"",""time""
""fullscreenenter"",""1"",""8986""
","
",,,,,,,,,,,,"[{""stimulus"":""run_exp/static/images/task_images/dig.jpg"",""time"":0.20000000298023224},{""stimulus"":""run_exp/static/images/task_images/land.jpg"",""time"":778.1000000089407},{""stimulus"":""run_exp/static/images/task_images/dig.jpg"",""time"":1553.6000000089407}]",[],1,,,,,,,,,,,,,,
harvest,73,531664,0.0-26.0-1.0,"""event"",""trial"",""time""
""fullscreenenter"",""1"",""8986""
","
","
","""event"",""trial"",""time""
""fullscreenenter"",""1"",""8986""
","
",,null,run_exp/static/images/task_images/gems/22.jpg,null,,,,,,,4,,,1,,,,,22,0.159312968,0.181818182,,,,,,,
decision,74,532398,0.0-26.0-2.0,"""event"",""trial"",""time""
""fullscreenenter"",""1"",""8986""
","
","
","""event"",""trial"",""time""
""fullscreenenter"",""1"",""8986""
","
",,733.3,run_exp/static/images/task_images/land.jpg,65,,,,,,,4,,,1,,,,,,,,13251,1,1,FALSE,,,
dig,75,534666,0.0-27.0-0.0,"""event"",""trial"",""time""
""fullscreenenter"",""1"",""8986""
","
","
","""event"",""trial"",""time""
""fullscreenenter"",""1"",""8986""
","
",,,,,,,,,,,,"[{""stimulus"":""run_exp/static/images/task_images/dig.jpg"",""time"":0.09999999403953552},{""stimulus"":""run_exp/static/images/task_images/land.jpg"",""time"":757.5},{""stimulus"":""run_exp/static/images/task_images/dig.jpg"",""time"":1511.7999999970198}]",[],1,,,,,,,,,,,,,,
harvest,76,535667,0.0-27.0-1.0,"""event"",""trial"",""time""
""fullscreenenter"",""1"",""8986""
","
","
","""event"",""trial"",""time""
""fullscreenenter"",""1"",""8986""
","
",,null,run_exp/static/images/task_images/gems/4.jpg,null,,,,,,,1,,,1,,,,,4,0.164990706,0.25,,,,,,,
decision,77,535951,0.0-27.0-2.0,"""event"",""trial"",""time""
""fullscreenenter"",""1"",""8986""
","
","
","""event"",""trial"",""time""
""fullscreenenter"",""1"",""8986""
","
",,282.5,run_exp/static/images/task_images/land.jpg,76,,,,,,,1,,,1,,,,,,,,16804,1,2,TRUE,,,
travel,78,545668,0.0-28.0-0.0,"""event"",""trial"",""time""
""fullscreenenter"",""1"",""8986""
","
","
","""event"",""trial"",""time""
""fullscreenenter"",""1"",""8986""
","
",,,,,,,,,,,,"[{""stimulus"":""run_exp/static/images/task_images/rocket-01.jpg"",""time"":0.09999999403953552},{""stimulus"":""run_exp/static/images/task_images/rocket-02.jpg"",""time"":1080.4000000059605},{""stimulus"":""run_exp/static/images/task_images/rocket-03.jpg"",""time"":2160.5},{""stimulus"":""run_exp/static/images/task_images/rocket-04.jpg"",""time"":3237.9000000059605},{""stimulus"":""run_exp/static/images/task_images/rocket-05.jpg"",""time"":4317.5999999940395},{""stimulus"":""run_exp/static/images/task_images/rocket-06.jpg"",""time"":5396.20000000298},{""stimulus"":""run_exp/static/images/task_images/rocket-07.jpg"",""time"":6475.29999999702},{""stimulus"":""run_exp/static/images/task_images/rocket-08.jpg"",""time"":7554.20000000298},{""stimulus"":""run_exp/static/images/task_images/rocket-09.jpg"",""time"":8633.40000000596}]",[],1,,,,,,,,,,,,,,
alien_welcome,79,550671,0.0-28.0-1.0,"""event"",""trial"",""time""
""fullscreenenter"",""1"",""8986""
","
","
","""event"",""trial"",""time""
""fullscreenenter"",""1"",""8986""
","
",,null,run_exp/static/images/task_images/aliens/old_aliens/planet/alien_planet-46.jpg,null,,,,,,,,,,,,,46,"1,46,21,29,72,16,71,36,48,66,26,43,63,62,28,49,79,67,14,18,7,60,20,42,51,57,38,17,32,19,52,11,47,34,74,10",,,,,,,,,,
land,80,551174,0.0-28.0-2.0,"""event"",""trial"",""time""
""fullscreenenter"",""1"",""8986""
","
","
","""event"",""trial"",""time""
""fullscreenenter"",""1"",""8986""
","
",,null,run_exp/static/images/task_images/land.jpg,null,,,,,,,104,,,2,,,,,,,,,,,,,,
dig,81,553177,0.0-28.0-3.0,"""event"",""trial"",""time""
""fullscreenenter"",""1"",""8986""
","
","
","""event"",""trial"",""time""
""fullscreenenter"",""1"",""8986""
","
",,,,,,,,,,,,"[{""stimulus"":""run_exp/static/images/task_images/dig.jpg"",""time"":0.20000000298023224},{""stimulus"":""run_exp/static/images/task_images/land.jpg"",""time"":669},{""stimulus"":""run_exp/static/images/task_images/dig.jpg"",""time"":1336.4000000059605}]",[],2,,,,,,,,,,,,,,
harvest,82,554179,0.0-28.0-4.0,"""event"",""trial"",""time""
""fullscreenenter"",""1"",""8986""
","
","
","""event"",""trial"",""time""
""fullscreenenter"",""1"",""8986""
","
",,null,run_exp/static/images/task_images/gems/104.jpg,null,,,,,,,26,,,2,,,,,104,0.246249228,0.25,,,,,,,
decision,83,554681,0.0-28.0-5.0,"""event"",""trial"",""time""
""fullscreenenter"",""1"",""8986""
","
","
","""event"",""trial"",""time""
""fullscreenenter"",""1"",""8986""
","
",,501.5,run_exp/static/images/task_images/land.jpg,65,,,,,,,26,,,2,,,,,,,,35534,1,0,FALSE,,,
dig,84,557181,0.0-29.0-0.0,"""event"",""trial"",""time""
""fullscreenenter"",""1"",""8986""
","
","
","""event"",""trial"",""time""
""fullscreenenter"",""1"",""8986""
","
",,,,,,,,,,,,"[{""stimulus"":""run_exp/static/images/task_images/dig.jpg"",""time"":0.29999999701976776},{""stimulus"":""run_exp/static/images/task_images/land.jpg"",""time"":834.0999999940395},{""stimulus"":""run_exp/static/images/task_images/dig.jpg"",""time"":1666}]",[],2,,,,,,,,,,,,,,
harvest,85,558184,0.0-29.0-1.0,"""event"",""trial"",""time""
""fullscreenenter"",""1"",""8986""
","
","
","""event"",""trial"",""time""
""fullscreenenter"",""1"",""8986""
","
",,null,run_exp/static/images/task_images/gems/26.jpg,null,,,,,,,8,,,2,,,,,26,0.310655821,0.307692308,,,,,,,
decision,86,559259,0.0-29.0-2.0,"""event"",""trial"",""time""
""fullscreenenter"",""1"",""8986""
","
","
","""event"",""trial"",""time""
""fullscreenenter"",""1"",""8986""
","
",,1074.2,run_exp/static/images/task_images/land.jpg,65,,,,,,,8,,,2,,,,,,,,40112,1,1,FALSE,,,
dig,87,561186,0.0-30.0-0.0,"""event"",""trial"",""time""
""fullscreenenter"",""1"",""8986""
","
","
","""event"",""trial"",""time""
""fullscreenenter"",""1"",""8986""
","
",,,,,,,,,,,,"[{""stimulus"":""run_exp/static/images/task_images/dig.jpg"",""time"":0.10000000894069672},{""stimulus"":""run_exp/static/images/task_images/land.jpg"",""time"":653.5},{""stimulus"":""run_exp/static/images/task_images/dig.jpg"",""time"":1283.7000000029802}]",[],2,,,,,,,,,,,,,,
harvest,88,562189,0.0-30.0-1.0,"""event"",""trial"",""time""
""fullscreenenter"",""1"",""8986""
","
","
","""event"",""trial"",""time""
""fullscreenenter"",""1"",""8986""
","
",,null,run_exp/static/images/task_images/gems/8.jpg,null,,,,,,,1,,,2,,,,,8,0.173534637,0.125,,,,,,,
decision,89,562616,0.0-30.0-2.0,"""event"",""trial"",""time""
""fullscreenenter"",""1"",""8986""
","
","
","""event"",""trial"",""time""
""fullscreenenter"",""1"",""8986""
","
",,425.1,run_exp/static/images/task_images/land.jpg,76,,,,,,,1,,,2,,,,,,,,43469,1,2,TRUE,,,
travel,90,572186,0.0-31.0-0.0,"""event"",""trial"",""time""
""fullscreenenter"",""1"",""8986""
","
","
","""event"",""trial"",""time""
""fullscreenenter"",""1"",""8986""
","
",,,,,,,,,,,,"[{""stimulus"":""run_exp/static/images/task_images/rocket-01.jpg"",""time"":0.09999999403953552},{""stimulus"":""run_exp/static/images/task_images/rocket-02.jpg"",""time"":1063.8999999910593},{""stimulus"":""run_exp/static/images/task_images/rocket-03.jpg"",""time"":2127.5999999940395},{""stimulus"":""run_exp/static/images/task_images/rocket-04.jpg"",""time"":3191.2000000029802},{""stimulus"":""run_exp/static/images/task_images/rocket-05.jpg"",""time"":4253.79999999702},{""stimulus"":""run_exp/static/images/task_images/rocket-06.jpg"",""time"":5329.0999999940395},{""stimulus"":""run_exp/static/images/task_images/rocket-07.jpg"",""time"":6379},{""stimulus"":""run_exp/static/images/task_images/rocket-08.jpg"",""time"":7442.79999999702},{""stimulus"":""run_exp/static/images/task_images/rocket-09.jpg"",""time"":8506.5}]",[],2,,,,,,,,,,,,,,
alien_welcome,91,577189,0.0-31.0-1.0,"""event"",""trial"",""time""
""fullscreenenter"",""1"",""8986""
","
","
","""event"",""trial"",""time""
""fullscreenenter"",""1"",""8986""
","
",,null,run_exp/static/images/task_images/aliens/old_aliens/planet/alien_planet-21.jpg,null,,,,,,,,,,,,,21,"1,46,21,29,72,16,71,36,48,66,26,43,63,62,28,49,79,67,14,18,7,60,20,42,51,57,38,17,32,19,52,11,47,34,74,10",,,,,,,,,,
land,92,577690,0.0-31.0-2.0,"""event"",""trial"",""time""
""fullscreenenter"",""1"",""8986""
","
","
","""event"",""trial"",""time""
""fullscreenenter"",""1"",""8986""
","
",,null,run_exp/static/images/task_images/land.jpg,null,,,,,,,94,,,3,,,,,,,,,,,,,,
dig,93,579693,0.0-31.0-3.0,"""event"",""trial"",""time""
""fullscreenenter"",""1"",""8986""
","
","
","""event"",""trial"",""time""
""fullscreenenter"",""1"",""8986""
","
",,,,,,,,,,,,"[{""stimulus"":""run_exp/static/images/task_images/dig.jpg"",""time"":0.30000001192092896},{""stimulus"":""run_exp/static/images/task_images/land.jpg"",""time"":667.7000000029802},{""stimulus"":""run_exp/static/images/task_images/dig.jpg"",""time"":1335.4000000059605}]",[],3,,,,,,,,,,,,,,
harvest,94,580694,0.0-31.0-4.0,"""event"",""trial"",""time""
""fullscreenenter"",""1"",""8986""
","
","
","""event"",""trial"",""time""
""fullscreenenter"",""1"",""8986""
","
",,null,run_exp/static/images/task_images/gems/94.jpg,null,,,,,,,45,,,3,,,,,94,0.481833064,0.478723404,,,,,,,
decision,95,581325,0.0-31.0-5.0,"""event"",""trial"",""time""
""fullscreenenter"",""1"",""8986""
","
","
","""event"",""trial"",""time""
""fullscreenenter"",""1"",""8986""
","
",,630,run_exp/static/images/task_images/land.jpg,65,,,,,,,45,,,3,,,,,,,,62178,1,0,FALSE,,,
dig,96,583699,0.0-32.0-0.0,"""event"",""trial"",""time""
""fullscreenenter"",""1"",""8986""
","
","
","""event"",""trial"",""time""
""fullscreenenter"",""1"",""8986""
","
",,,,,,,,,,,,"[{""stimulus"":""run_exp/static/images/task_images/dig.jpg"",""time"":0},{""stimulus"":""run_exp/static/images/task_images/land.jpg"",""time"":805.9000000059605},{""stimulus"":""run_exp/static/images/task_images/dig.jpg"",""time"":1581.0999999940395}]",[],3,,,,,,,,,,,,,,
harvest,97,584701,0.0-32.0-1.0,"""event"",""trial"",""time""
""fullscreenenter"",""1"",""8986""
","
","
","""event"",""trial"",""time""
""fullscreenenter"",""1"",""8986""
","
",,null,run_exp/static/images/task_images/gems/45.jpg,null,,,,,,,21,,,3,,,,,45,0.477451814,0.466666667,,,,,,,
decision,98,585435,0.0-32.0-2.0,"""event"",""trial"",""time""
""fullscreenenter"",""1"",""8986""
","
","
","""event"",""trial"",""time""
""fullscreenenter"",""1"",""8986""
","
",,733.1,run_exp/static/images/task_images/land.jpg,65,,,,,,,21,,,3,,,,,,,,66288,1,1,FALSE,,,
dig,99,587704,0.0-33.0-0.0,"""event"",""trial"",""time""
""fullscreenenter"",""1"",""8986""
","
","
","""event"",""trial"",""time""
""fullscreenenter"",""1"",""8986""
","
",,,,,,,,,,,,"[{""stimulus"":""run_exp/static/images/task_images/dig.jpg"",""time"":0.20000000298023224},{""stimulus"":""run_exp/static/images/task_images/land.jpg"",""time"":756.1000000089407},{""stimulus"":""run_exp/static/images/task_images/dig.jpg"",""time"":1511.4000000059605}]",[],3,,,,,,,,,,,,,,
harvest,100,588706,0.0-33.0-1.0,"""event"",""trial"",""time""
""fullscreenenter"",""1"",""8986""
","
","
","""event"",""trial"",""time""
""fullscreenenter"",""1"",""8986""
","
",,null,run_exp/static/images/task_images/gems/21.jpg,null,,,,,,,14,,,3,,,,,21,0.644083835,0.666666667,,,,,,,
decision,101,589379,0.0-33.0-2.0,"""event"",""trial"",""time""
""fullscreenenter"",""1"",""8986""
","
","
","""event"",""trial"",""time""
""fullscreenenter"",""1"",""8986""
","
",,671.9,run_exp/static/images/task_images/land.jpg,65,,,,,,,14,,,3,,,,,,,,70232,1,2,FALSE,,,
dig,102,591711,0.0-34.0-0.0,"""event"",""trial"",""time""
""fullscreenenter"",""1"",""8986""
","
","
","""event"",""trial"",""time""
""fullscreenenter"",""1"",""8986""
","
",,,,,,,,,,,,"[{""stimulus"":""run_exp/static/images/task_images/dig.jpg"",""time"":0.19999998807907104},{""stimulus"":""run_exp/static/images/task_images/land.jpg"",""time"":777.3999999910593},{""stimulus"":""run_exp/static/images/task_images/dig.jpg"",""time"":1552.7999999970198}]",[],3,,,,,,,,,,,,,,
harvest,103,592713,0.0-34.0-1.0,"""event"",""trial"",""time""
""fullscreenenter"",""1"",""8986""
","
","
","""event"",""trial"",""time""
""fullscreenenter"",""1"",""8986""
","
",,null,run_exp/static/images/task_images/gems/14.jpg,null,,,,,,,8,,,3,,,,,14,0.544297959,0.571428571,,,,,,,
decision,104,593433,0.0-34.0-2.0,"""event"",""trial"",""time""
""fullscreenenter"",""1"",""8986""
","
","
","""event"",""trial"",""time""
""fullscreenenter"",""1"",""8986""
","
",,718.7,run_exp/static/images/task_images/land.jpg,65,,,,,,,8,,,3,,,,,,,,74286,1,3,FALSE,,,
dig,105,595715,0.0-35.0-0.0,"""event"",""trial"",""time""
""fullscreenenter"",""1"",""8986""
","
","
","""event"",""trial"",""time""
""fullscreenenter"",""1"",""8986""
","
",,,,,,,,,,,,"[{""stimulus"":""run_exp/static/images/task_images/dig.jpg"",""time"":0.10000000894069672},{""stimulus"":""run_exp/static/images/task_images/land.jpg"",""time"":761.4000000059605},{""stimulus"":""run_exp/static/images/task_images/dig.jpg"",""time"":1521.7000000029802}]",[],3,,,,,,,,,,,,,,
harvest,106,596728,0.0-35.0-1.0,"""event"",""trial"",""time""
""fullscreenenter"",""1"",""8986""
","
","
","""event"",""trial"",""time""
""fullscreenenter"",""1"",""8986""
","
",,null,run_exp/static/images/task_images/gems/8.jpg,null,,,,,,,4,,,3,,,,,8,0.470069746,0.5,,,,,,,
decision,107,597758,0.0-35.0-2.0,"""event"",""trial"",""time""
""fullscreenenter"",""1"",""8986""
","
","
","""event"",""trial"",""time""
""fullscreenenter"",""1"",""8986""
","
",,1028.3,run_exp/static/images/task_images/land.jpg,65,,,,,,,4,,,3,,,,,,,,78611,1,4,FALSE,,,
dig,108,599733,0.0-36.0-0.0,"""event"",""trial"",""time""
""fullscreenenter"",""1"",""8986""
","
","
","""event"",""trial"",""time""
""fullscreenenter"",""1"",""8986""
","
",,,,,,,,,,,,"[{""stimulus"":""run_exp/static/images/task_images/dig.jpg"",""time"":0.20000000298023224},{""stimulus"":""run_exp/static/images/task_images/land.jpg"",""time"":658.8000000119209},{""stimulus"":""run_exp/static/images/task_images/dig.jpg"",""time"":1315.800000011921}]",[],3,,,,,,,,,,,,,,
harvest,109,600734,0.0-36.0-1.0,"""event"",""trial"",""time""
""fullscreenenter"",""1"",""8986""
","
","
","""event"",""trial"",""time""
""fullscreenenter"",""1"",""8986""
","
",,null,run_exp/static/images/task_images/gems/4.jpg,null,,,,,,,2,,,3,,,,,4,0.45603302,0.5,,,,,,,
decision,110,601011,0.0-36.0-2.0,"""event"",""trial"",""time""
""fullscreenenter"",""1"",""8986""
","
","
","""event"",""trial"",""time""
""fullscreenenter"",""1"",""8986""
","
",,276.6,run_exp/static/images/task_images/land.jpg,76,,,,,,,2,,,3,,,,,,,,81864,1,5,TRUE,,,
travel,111,610734,0.0-37.0-0.0,"""event"",""trial"",""time""
""fullscreenenter"",""1"",""8986""
","
","
","""event"",""trial"",""time""
""fullscreenenter"",""1"",""8986""
","
",,,,,,,,,,,,"[{""stimulus"":""run_exp/static/images/task_images/rocket-01.jpg"",""time"":0.09999999403953552},{""stimulus"":""run_exp/static/images/task_images/rocket-02.jpg"",""time"":1082},{""stimulus"":""run_exp/static/images/task_images/rocket-03.jpg"",""time"":2161.0999999940395},{""stimulus"":""run_exp/static/images/task_images/rocket-04.jpg"",""time"":3241.699999988079},{""stimulus"":""run_exp/static/images/task_images/rocket-05.jpg"",""time"":4321.399999991059},{""stimulus"":""run_exp/static/images/task_images/rocket-06.jpg"",""time"":5401},{""stimulus"":""run_exp/static/images/task_images/rocket-07.jpg"",""time"":6482.5999999940395},{""stimulus"":""run_exp/static/images/task_images/rocket-08.jpg"",""time"":7561.79999999702},{""stimulus"":""run_exp/static/images/task_images/rocket-09.jpg"",""time"":8641.5}]",[],3,,,,,,,,,,,,,,
alien_welcome,112,615737,0.0-37.0-1.0,"""event"",""trial"",""time""
""fullscreenenter"",""1"",""8986""
","
","
","""event"",""trial"",""time""
""fullscreenenter"",""1"",""8986""
","
",,null,run_exp/static/images/task_images/aliens/old_aliens/planet/alien_planet-29.jpg,null,,,,,,,,,,,,,29,"1,46,21,29,72,16,71,36,48,66,26,43,63,62,28,49,79,67,14,18,7,60,20,42,51,57,38,17,32,19,52,11,47,34,74,10",,,,,,,,,,
land,113,616238,0.0-37.0-2.0,"""event"",""trial"",""time""
""fullscreenenter"",""1"",""8986""
","
","
","""event"",""trial"",""time""
""fullscreenenter"",""1"",""8986""
","
",,null,run_exp/static/images/task_images/land.jpg,null,,,,,,,100,,,4,,,,,,,,,,,,,,
dig,114,618241,0.0-37.0-3.0,"""event"",""trial"",""time""
""fullscreenenter"",""1"",""8986""
","
","
","""event"",""trial"",""time""
""fullscreenenter"",""1"",""8986""
","
",,,,,,,,,,,,"[{""stimulus"":""run_exp/static/images/task_images/dig.jpg"",""time"":0.10000000894069672},{""stimulus"":""run_exp/static/images/task_images/land.jpg"",""time"":668.7999999970198},{""stimulus"":""run_exp/static/images/task_images/dig.jpg"",""time"":1335.9000000059605}]",[],4,,,,,,,,,,,,,,
harvest,115,619243,0.0-37.0-4.0,"""event"",""trial"",""time""
""fullscreenenter"",""1"",""8986""
","
","
","""event"",""trial"",""time""
""fullscreenenter"",""1"",""8986""
","
",,null,run_exp/static/images/task_images/gems/100.jpg,null,,,,,,,59,,,4,,,,,100,0.590460608,0.59,,,,,,,
decision,116,619672,0.0-37.0-5.0,"""event"",""trial"",""time""
""fullscreenenter"",""1"",""8986""
","
","
","""event"",""trial"",""time""
""fullscreenenter"",""1"",""8986""
","
",,427.8,run_exp/static/images/task_images/land.jpg,65,,,,,,,59,,,4,,,,,,,,100525,1,0,FALSE,,,
dig,117,622246,0.0-38.0-0.0,"""event"",""trial"",""time""
""fullscreenenter"",""1"",""8986""
","
","
","""event"",""trial"",""time""
""fullscreenenter"",""1"",""8986""
","
",,,,,,,,,,,,"[{""stimulus"":""run_exp/static/images/task_images/dig.jpg"",""time"":0.10000000894069672},{""stimulus"":""run_exp/static/images/task_images/land.jpg"",""time"":868.7000000029802},{""stimulus"":""run_exp/static/images/task_images/dig.jpg"",""time"":1715.800000011921}]",[],4,,,,,,,,,,,,,,
harvest,118,623248,0.0-38.0-1.0,"""event"",""trial"",""time""
""fullscreenenter"",""1"",""8986""
","
","
","""event"",""trial"",""time""
""fullscreenenter"",""1"",""8986""
","
",,null,run_exp/static/images/task_images/gems/59.jpg,null,,,,,,,28,,,4,,,,,59,0.466168354,0.474576271,,,,,,,
decision,119,623896,0.0-38.0-2.0,"""event"",""trial"",""time""
""fullscreenenter"",""1"",""8986""
","
","
","""event"",""trial"",""time""
""fullscreenenter"",""1"",""8986""
","
",,647.4,run_exp/static/images/task_images/land.jpg,65,,,,,,,28,,,4,,,,,,,,104750,1,1,FALSE,,,
dig,120,626264,0.0-39.0-0.0,"""event"",""trial"",""time""
""fullscreenenter"",""1"",""8986""
","
","
","""event"",""trial"",""time""
""fullscreenenter"",""1"",""8986""
","
",,,,,,,,,,,,"[{""stimulus"":""run_exp/static/images/task_images/dig.jpg"",""time"":0.20000000298023224},{""stimulus"":""run_exp/static/images/task_images/land.jpg"",""time"":785.2999999970198},{""stimulus"":""run_exp/static/images/task_images/dig.jpg"",""time"":1569.2000000029802}]",[],4,,,,,,,,,,,,,,
harvest,121,627267,0.0-39.0-1.0,"""event"",""trial"",""time""
""fullscreenenter"",""1"",""8986""
","
","
","""event"",""trial"",""time""
""fullscreenenter"",""1"",""8986""
","
",,null,run_exp/static/images/task_images/gems/28.jpg,null,,,,,,,12,,,4,,,,,28,0.442345099,0.428571429,,,,,,,
decision,122,630214,0.0-39.0-2.0,"""event"",""trial"",""time""
""fullscreenenter"",""1"",""8986""
","
","
","""event"",""trial"",""time""
""fullscreenenter"",""1"",""8986""
","
",,2947.1,run_exp/static/images/task_images/land.jpg,76,,,,,,,12,,,4,,,,,,,,111067,1,2,TRUE,,,
travel,123,637266,0.0-40.0-0.0,"""event"",""trial"",""time""
""fullscreenenter"",""1"",""8986""
","
","
","""event"",""trial"",""time""
""fullscreenenter"",""1"",""8986""
","
",,,,,,,,,,,,"[{""stimulus"":""run_exp/static/images/task_images/rocket-01.jpg"",""time"":0.10000000894069672},{""stimulus"":""run_exp/static/images/task_images/rocket-02.jpg"",""time"":785.2000000029802},{""stimulus"":""run_exp/static/images/task_images/rocket-03.jpg"",""time"":1567.9000000059605},{""stimulus"":""run_exp/static/images/task_images/rocket-04.jpg"",""time"":2350.7000000029802},{""stimulus"":""run_exp/static/images/task_images/rocket-05.jpg"",""time"":3134},{""stimulus"":""run_exp/static/images/task_images/rocket-06.jpg"",""time"":3916.6000000089407},{""stimulus"":""run_exp/static/images/task_images/rocket-07.jpg"",""time"":4699},{""stimulus"":""run_exp/static/images/task_images/rocket-08.jpg"",""time"":5484.4000000059605},{""stimulus"":""run_exp/static/images/task_images/rocket-09.jpg"",""time"":6265.20000000298}]",[],4,,,,,,,,,,,,,,
alien_welcome,124,642269,0.0-40.0-1.0,"""event"",""trial"",""time""
""fullscreenenter"",""1"",""8986""
","
","
","""event"",""trial"",""time""
""fullscreenenter"",""1"",""8986""
","
",,null,run_exp/static/images/task_images/aliens/old_aliens/planet/alien_planet-72.jpg,null,,,,,,,,,,,,,72,"1,46,21,29,72,16,71,36,48,66,26,43,63,62,28,49,79,67,14,18,7,60,20,42,51,57,38,17,32,19,52,11,47,34,74,10",,,,,,,,,,
land,125,642770,0.0-40.0-2.0,"""event"",""trial"",""time""
""fullscreenenter"",""1"",""8986""
","
","
","""event"",""trial"",""time""
""fullscreenenter"",""1"",""8986""
","
",,null,run_exp/static/images/task_images/land.jpg,null,,,,,,,105,,,5,,,,,,,,,,,,,,
dig,126,644773,0.0-40.0-3.0,"""event"",""trial"",""time""
""fullscreenenter"",""1"",""8986""
","
","
","""event"",""trial"",""time""
""fullscreenenter"",""1"",""8986""
","
",,,,,,,,,,,,"[{""stimulus"":""run_exp/static/images/task_images/dig.jpg"",""time"":0.09999999403953552},{""stimulus"":""run_exp/static/images/task_images/land.jpg"",""time"":668.5},{""stimulus"":""run_exp/static/images/task_images/dig.jpg"",""time"":1335.2000000029802}]",[],5,,,,,,,,,,,,,,
harvest,127,645775,0.0-40.0-4.0,"""event"",""trial"",""time""
""fullscreenenter"",""1"",""8986""
","
","
","""event"",""trial"",""time""
""fullscreenenter"",""1"",""8986""
","
",,null,run_exp/static/images/task_images/gems/105.jpg,null,,,,,,,58,,,5,,,,,105,0.548115045,0.552380952,,,,,,,
decision,128,646215,0.0-40.0-5.0,"""event"",""trial"",""time""
""fullscreenenter"",""1"",""8986""
","
","
","""event"",""trial"",""time""
""fullscreenenter"",""1"",""8986""
","
",,438.2,run_exp/static/images/task_images/land.jpg,65,,,,,,,58,,,5,,,,,,,,127068,1,0,FALSE,,,
dig,129,648779,0.0-41.0-0.0,"""event"",""trial"",""time""
""fullscreenenter"",""1"",""8986""
","
","
","""event"",""trial"",""time""
""fullscreenenter"",""1"",""8986""
","
",,,,,,,,,,,,"[{""stimulus"":""run_exp/static/images/task_images/dig.jpg"",""time"":0.29999999701976776},{""stimulus"":""run_exp/static/images/task_images/land.jpg"",""time"":855.2999999970198},{""stimulus"":""run_exp/static/images/task_images/dig.jpg"",""time"":1708.8999999910593}]",[],5,,,,,,,,,,,,,,
harvest,130,649791,0.0-41.0-1.0,"""event"",""trial"",""time""
""fullscreenenter"",""1"",""8986""
","
","
","""event"",""trial"",""time""
""fullscreenenter"",""1"",""8986""
","
",,null,run_exp/static/images/task_images/gems/58.jpg,null,,,,,,,30,,,5,,,,,58,0.510301026,0.517241379,,,,,,,
decision,131,650173,0.0-41.0-2.0,"""event"",""trial"",""time""
""fullscreenenter"",""1"",""8986""
","
","
","""event"",""trial"",""time""
""fullscreenenter"",""1"",""8986""
","
",,380.7,run_exp/static/images/task_images/land.jpg,65,,,,,,,30,,,5,,,,,,,,131026,1,1,FALSE,,,
dig,132,652795,0.0-42.0-0.0,"""event"",""trial"",""time""
""fullscreenenter"",""1"",""8986""
","
","
","""event"",""trial"",""time""
""fullscreenenter"",""1"",""8986""
","
",,,,,,,,,,,,"[{""stimulus"":""run_exp/static/images/task_images/dig.jpg"",""time"":0.09999999403953552},{""stimulus"":""run_exp/static/images/task_images/land.jpg"",""time"":874.1999999880791},{""stimulus"":""run_exp/static/images/task_images/dig.jpg"",""time"":1748.3999999910593}]",[],5,,,,,,,,,,,,,,
harvest,133,653798,0.0-42.0-1.0,"""event"",""trial"",""time""
""fullscreenenter"",""1"",""8986""
","
","
","""event"",""trial"",""time""
""fullscreenenter"",""1"",""8986""
","
",,null,run_exp/static/images/task_images/gems/30.jpg,null,,,,,,,17,,,5,,,,,30,0.569209826,0.566666667,,,,,,,
decision,134,654339,0.0-42.0-2.0,"""event"",""trial"",""time""
""fullscreenenter"",""1"",""8986""
","
","
","""event"",""trial"",""time""
""fullscreenenter"",""1"",""8986""
","
",,540.1,run_exp/static/images/task_images/land.jpg,65,,,,,,,17,,,5,,,,,,,,135192,1,2,FALSE,,,
dig,135,656801,0.0-43.0-0.0,"""event"",""trial"",""time""
""fullscreenenter"",""1"",""8986""
","
","
","""event"",""trial"",""time""
""fullscreenenter"",""1"",""8986""
","
",,,,,,,,,,,,"[{""stimulus"":""run_exp/static/images/task_images/dig.jpg"",""time"":0.10000000894069672},{""stimulus"":""run_exp/static/images/task_images/land.jpg"",""time"":820.9000000059605},{""stimulus"":""run_exp/static/images/task_images/dig.jpg"",""time"":1640.2000000029802}]",[],5,,,,,,,,,,,,,,
harvest,136,657804,0.0-43.0-1.0,"""event"",""trial"",""time""
""fullscreenenter"",""1"",""8986""
","
","
","""event"",""trial"",""time""
""fullscreenenter"",""1"",""8986""
","
",,null,run_exp/static/images/task_images/gems/17.jpg,null,,,,,,,8,,,5,,,,,17,0.479055385,0.470588235,,,,,,,
decision,137,659543,0.0-43.0-2.0,"""event"",""trial"",""time""
""fullscreenenter"",""1"",""8986""
","
","
","""event"",""trial"",""time""
""fullscreenenter"",""1"",""8986""
","
",,1737.4,run_exp/static/images/task_images/land.jpg,76,,,,,,,8,,,5,,,,,,,,140396,1,3,TRUE,,,
travel,138,667808,0.0-44.0-0.0,"""event"",""trial"",""time""
""fullscreenenter"",""1"",""8986""
","
","
","""event"",""trial"",""time""
""fullscreenenter"",""1"",""8986""
","
",,,,,,,,,,,,"[{""stimulus"":""run_exp/static/images/task_images/rocket-01.jpg"",""time"":0.09999999403953552},{""stimulus"":""run_exp/static/images/task_images/rocket-02.jpg"",""time"":919.1999999880791},{""stimulus"":""run_exp/static/images/task_images/rocket-03.jpg"",""time"":1837.8999999910593},{""stimulus"":""run_exp/static/images/task_images/rocket-04.jpg"",""time"":2755.5},{""stimulus"":""run_exp/static/images/task_images/rocket-05.jpg"",""time"":3673.2999999970198},{""stimulus"":""run_exp/static/images/task_images/rocket-06.jpg"",""time"":4592.0999999940395},{""stimulus"":""run_exp/static/images/task_images/rocket-07.jpg"",""time"":5520.79999999702},{""stimulus"":""run_exp/static/images/task_images/rocket-08.jpg"",""time"":6427.699999988079},{""stimulus"":""run_exp/static/images/task_images/rocket-09.jpg"",""time"":7345.5}]",[],5,,,,,,,,,,,,,,
alien_welcome,139,672810,0.0-44.0-1.0,"""event"",""trial"",""time""
""fullscreenenter"",""1"",""8986""
","
","
","""event"",""trial"",""time""
""fullscreenenter"",""1"",""8986""
","
",,null,run_exp/static/images/task_images/aliens/old_aliens/planet/alien_planet-16.jpg,null,,,,,,,,,,,,,16,"1,46,21,29,72,16,71,36,48,66,26,43,63,62,28,49,79,67,14,18,7,60,20,42,51,57,38,17,32,19,52,11,47,34,74,10",,,,,,,,,,
land,140,673313,0.0-44.0-2.0,"""event"",""trial"",""time""
""fullscreenenter"",""1"",""8986""
","
","
","""event"",""trial"",""time""
""fullscreenenter"",""1"",""8986""
","
",,null,run_exp/static/images/task_images/land.jpg,null,,,,,,,103,,,6,,,,,,,,,,,,,,
dig,141,675316,0.0-44.0-3.0,"""event"",""trial"",""time""
""fullscreenenter"",""1"",""8986""
","
","
","""event"",""trial"",""time""
""fullscreenenter"",""1"",""8986""
","
",,,,,,,,,,,,"[{""stimulus"":""run_exp/static/images/task_images/dig.jpg"",""time"":0.4000000059604645},{""stimulus"":""run_exp/static/images/task_images/land.jpg"",""time"":668.5},{""stimulus"":""run_exp/static/images/task_images/dig.jpg"",""time"":1336}]",[],6,,,,,,,,,,,,,,
harvest,142,676318,0.0-44.0-4.0,"""event"",""trial"",""time""
""fullscreenenter"",""1"",""8986""
","
","
","""event"",""trial"",""time""
""fullscreenenter"",""1"",""8986""
","
",,null,run_exp/static/images/task_images/gems/103.jpg,null,,,,,,,84,,,6,,,,,103,0.819600559,0.815533981,,,,,,,
decision,143,676642,0.0-44.0-5.0,"""event"",""trial"",""time""
""fullscreenenter"",""1"",""8986""
","
","
","""event"",""trial"",""time""
""fullscreenenter"",""1"",""8986""
","
",,323.7,run_exp/static/images/task_images/land.jpg,65,,,,,,,84,,,6,,,,,,,,157496,1,0,FALSE,,,
dig,144,679324,0.0-45.0-0.0,"""event"",""trial"",""time""
""fullscreenenter"",""1"",""8986""
","
","
","""event"",""trial"",""time""
""fullscreenenter"",""1"",""8986""
","
",,,,,,,,,,,,"[{""stimulus"":""run_exp/static/images/task_images/dig.jpg"",""time"":0.20000000298023224},{""stimulus"":""run_exp/static/images/task_images/land.jpg"",""time"":893.2000000029802},{""stimulus"":""run_exp/static/images/task_images/dig.jpg"",""time"":1785.7000000029802}]",[],6,,,,,,,,,,,,,,
harvest,145,680328,0.0-45.0-1.0,"""event"",""trial"",""time""
""fullscreenenter"",""1"",""8986""
","
","
","""event"",""trial"",""time""
""fullscreenenter"",""1"",""8986""
","
",,null,run_exp/static/images/task_images/gems/84.jpg,null,,,,,,,71,,,6,,,,,84,0.841686534,0.845238095,,,,,,,
decision,146,681042,0.0-45.0-2.0,"""event"",""trial"",""time""
""fullscreenenter"",""1"",""8986""
","
","
","""event"",""trial"",""time""
""fullscreenenter"",""1"",""8986""
","
",,712.7,run_exp/static/images/task_images/land.jpg,65,,,,,,,71,,,6,,,,,,,,161895,1,1,FALSE,,,
dig,147,683333,0.0-46.0-0.0,"""event"",""trial"",""time""
""fullscreenenter"",""1"",""8986""
","
","
","""event"",""trial"",""time""
""fullscreenenter"",""1"",""8986""
","
",,,,,,,,,,,,"[{""stimulus"":""run_exp/static/images/task_images/dig.jpg"",""time"":0.10000000894069672},{""stimulus"":""run_exp/static/images/task_images/land.jpg"",""time"":763.5},{""stimulus"":""run_exp/static/images/task_images/dig.jpg"",""time"":1526.7000000029802}]",[],6,,,,,,,,,,,,,,
harvest,148,684335,0.0-46.0-1.0,"""event"",""trial"",""time""
""fullscreenenter"",""1"",""8986""
","
","
","""event"",""trial"",""time""
""fullscreenenter"",""1"",""8986""
","
",,null,run_exp/static/images/task_images/gems/71.jpg,null,,,,,,,53,,,6,,,,,71,0.745364526,0.746478873,,,,,,,
decision,149,684843,0.0-46.0-2.0,"""event"",""trial"",""time""
""fullscreenenter"",""1"",""8986""
","
","
","""event"",""trial"",""time""
""fullscreenenter"",""1"",""8986""
","
",,507.2,run_exp/static/images/task_images/land.jpg,65,,,,,,,53,,,6,,,,,,,,165696,1,2,FALSE,,,
dig,150,687338,0.0-47.0-0.0,"""event"",""trial"",""time""
""fullscreenenter"",""1"",""8986""
","
","
","""event"",""trial"",""time""
""fullscreenenter"",""1"",""8986""
","
",,,,,,,,,,,,"[{""stimulus"":""run_exp/static/images/task_images/dig.jpg"",""time"":0.20000000298023224},{""stimulus"":""run_exp/static/images/task_images/land.jpg"",""time"":831.9000000059605},{""stimulus"":""run_exp/static/images/task_images/dig.jpg"",""time"":1661.9000000059605}]",[],6,,,,,,,,,,,,,,
harvest,151,688340,0.0-47.0-1.0,"""event"",""trial"",""time""
""fullscreenenter"",""1"",""8986""
","
","
","""event"",""trial"",""time""
""fullscreenenter"",""1"",""8986""
","
",,null,run_exp/static/images/task_images/gems/53.jpg,null,,,,,,,40,,,6,,,,,53,0.758992676,0.754716981,,,,,,,
decision,152,688777,0.0-47.0-2.0,"""event"",""trial"",""time""
""fullscreenenter"",""1"",""8986""
","
","
","""event"",""trial"",""time""
""fullscreenenter"",""1"",""8986""
","
",,435.3,run_exp/static/images/task_images/land.jpg,65,,,,,,,40,,,6,,,,,,,,169630,1,3,FALSE,,,
dig,153,691341,0.0-48.0-0.0,"""event"",""trial"",""time""
""fullscreenenter"",""1"",""8986""
","
","
","""event"",""trial"",""time""
""fullscreenenter"",""1"",""8986""
","
",,,,,,,,,,,,"[{""stimulus"":""run_exp/static/images/task_images/dig.jpg"",""time"":0.09999999403953552},{""stimulus"":""run_exp/static/images/task_images/land.jpg"",""time"":856.1999999880791},{""stimulus"":""run_exp/static/images/task_images/dig.jpg"",""time"":1709.5999999940395}]",[],6,,,,,,,,,,,,,,
harvest,154,692343,0.0-48.0-1.0,"""event"",""trial"",""time""
""fullscreenenter"",""1"",""8986""
","
","
","""event"",""trial"",""time""
""fullscreenenter"",""1"",""8986""
","
",,null,run_exp/static/images/task_images/gems/40.jpg,null,,,,,,,28,,,6,,,,,40,0.698569251,0.7,,,,,,,
decision,155,692850,0.0-48.0-2.0,"""event"",""trial"",""time""
""fullscreenenter"",""1"",""8986""
","
","
","""event"",""trial"",""time""
""fullscreenenter"",""1"",""8986""
","
",,505.4,run_exp/static/images/task_images/land.jpg,65,,,,,,,28,,,6,,,,,,,,173703,1,4,FALSE,,,
dig,156,695349,0.0-49.0-0.0,"""event"",""trial"",""time""
""fullscreenenter"",""1"",""8986""
","
","
","""event"",""trial"",""time""
""fullscreenenter"",""1"",""8986""
","
",,,,,,,,,,,,"[{""stimulus"":""run_exp/static/images/task_images/dig.jpg"",""time"":0.30000001192092896},{""stimulus"":""run_exp/static/images/task_images/land.jpg"",""time"":832.4000000059605},{""stimulus"":""run_exp/static/images/task_images/dig.jpg"",""time"":1663.300000011921}]",[],6,,,,,,,,,,,,,,
harvest,157,696353,0.0-49.0-1.0,"""event"",""trial"",""time""
""fullscreenenter"",""1"",""8986""
","
","
","""event"",""trial"",""time""
""fullscreenenter"",""1"",""8986""
","
",,null,run_exp/static/images/task_images/gems/28.jpg,null,,,,,,,23,,,6,,,,,28,0.807667071,0.821428571,,,,,,,
decision,158,697002,0.0-49.0-2.0,"""event"",""trial"",""time""
""fullscreenenter"",""1"",""8986""
","
","
","""event"",""trial"",""time""
""fullscreenenter"",""1"",""8986""
","
",,648.2,run_exp/static/images/task_images/land.jpg,65,,,,,,,23,,,6,,,,,,,,177855,1,5,FALSE,,,
dig,159,699357,0.0-50.0-0.0,"""event"",""trial"",""time""
""fullscreenenter"",""1"",""8986""
","
","
","""event"",""trial"",""time""
""fullscreenenter"",""1"",""8986""
","
",,,,,,,,,,,,"[{""stimulus"":""run_exp/static/images/task_images/dig.jpg"",""time"":0.20000000298023224},{""stimulus"":""run_exp/static/images/task_images/land.jpg"",""time"":799.6000000089407},{""stimulus"":""run_exp/static/images/task_images/dig.jpg"",""time"":1567}]",[],6,,,,,,,,,,,,,,
harvest,160,700359,0.0-50.0-1.0,"""event"",""trial"",""time""
""fullscreenenter"",""1"",""8986""
","
","
","""event"",""trial"",""time""
""fullscreenenter"",""1"",""8986""
","
",,null,run_exp/static/images/task_images/gems/23.jpg,null,,,,,,,18,,,6,,,,,23,0.777284349,0.782608696,,,,,,,
decision,161,701096,0.0-50.0-2.0,"""event"",""trial"",""time""
""fullscreenenter"",""1"",""8986""
","
","
","""event"",""trial"",""time""
""fullscreenenter"",""1"",""8986""
","
",,735.6,run_exp/static/images/task_images/land.jpg,65,,,,,,,18,,,6,,,,,,,,181949,1,6,FALSE,,,
dig,162,703361,0.0-51.0-0.0,"""event"",""trial"",""time""
""fullscreenenter"",""1"",""8986""
","
","
","""event"",""trial"",""time""
""fullscreenenter"",""1"",""8986""
","
",,,,,,,,,,,,"[{""stimulus"":""run_exp/static/images/task_images/dig.jpg"",""time"":0.09999999403953552},{""stimulus"":""run_exp/static/images/task_images/land.jpg"",""time"":755.5999999940395},{""stimulus"":""run_exp/static/images/task_images/dig.jpg"",""time"":1509.7000000029802}]",[],6,,,,,,,,,,,,,,
harvest,163,704363,0.0-51.0-1.0,"""event"",""trial"",""time""
""fullscreenenter"",""1"",""8986""
","
","
","""event"",""trial"",""time""
""fullscreenenter"",""1"",""8986""
","
",,null,run_exp/static/images/task_images/gems/18.jpg,null,,,,,,,14,,,6,,,,,18,0.759305464,0.777777778,,,,,,,
decision,164,705073,0.0-51.0-2.0,"""event"",""trial"",""time""
""fullscreenenter"",""1"",""8986""
","
","
","""event"",""trial"",""time""
""fullscreenenter"",""1"",""8986""
","
",,708.5,run_exp/static/images/task_images/land.jpg,65,,,,,,,14,,,6,,,,,,,,185926,1,7,FALSE,,,
dig,165,707367,0.0-52.0-0.0,"""event"",""trial"",""time""
""fullscreenenter"",""1"",""8986""
","
","
","""event"",""trial"",""time""
""fullscreenenter"",""1"",""8986""
","
",,,,,,,,,,,,"[{""stimulus"":""run_exp/static/images/task_images/dig.jpg"",""time"":0.20000000298023224},{""stimulus"":""run_exp/static/images/task_images/land.jpg"",""time"":764.9000000059605},{""stimulus"":""run_exp/static/images/task_images/dig.jpg"",""time"":1528.2000000029802}]",[],6,,,,,,,,,,,,,,
harvest,166,708368,0.0-52.0-1.0,"""event"",""trial"",""time""
""fullscreenenter"",""1"",""8986""
","
","
","""event"",""trial"",""time""
""fullscreenenter"",""1"",""8986""
","
",,null,run_exp/static/images/task_images/gems/14.jpg,null,,,,,,,11,,,6,,,,,14,0.784053604,0.785714286,,,,,,,
decision,167,710902,0.0-52.0-2.0,"""event"",""trial"",""time""
""fullscreenenter"",""1"",""8986""
","
","
","""event"",""trial"",""time""
""fullscreenenter"",""1"",""8986""
","
",,2531.9,run_exp/static/images/task_images/land.jpg,76,,,,,,,11,,,6,,,,,,,,191755,1,8,TRUE,,,
travel,168,718367,0.0-53.0-0.0,"""event"",""trial"",""time""
""fullscreenenter"",""1"",""8986""
","
","
","""event"",""trial"",""time""
""fullscreenenter"",""1"",""8986""
","
",,,,,,,,,,,,"[{""stimulus"":""run_exp/static/images/task_images/rocket-01.jpg"",""time"":0.09999999403953552},{""stimulus"":""run_exp/static/images/task_images/rocket-02.jpg"",""time"":831.0999999940395},{""stimulus"":""run_exp/static/images/task_images/rocket-03.jpg"",""time"":1661},{""stimulus"":""run_exp/static/images/task_images/rocket-04.jpg"",""time"":2488.7999999970198},{""stimulus"":""run_exp/static/images/task_images/rocket-05.jpg"",""time"":3317.8999999910593},{""stimulus"":""run_exp/static/images/task_images/rocket-06.jpg"",""time"":4146.79999999702},{""stimulus"":""run_exp/static/images/task_images/rocket-07.jpg"",""time"":4976.20000000298},{""stimulus"":""run_exp/static/images/task_images/rocket-08.jpg"",""time"":5804.5999999940395},{""stimulus"":""run_exp/static/images/task_images/rocket-09.jpg"",""time"":6633.899999991059}]",[],6,,,,,,,,,,,,,,
alien_welcome,169,723371,0.0-53.0-1.0,"""event"",""trial"",""time""
""fullscreenenter"",""1"",""8986""
","
","
","""event"",""trial"",""time""
""fullscreenenter"",""1"",""8986""
","
",,null,run_exp/static/images/task_images/aliens/old_aliens/planet/alien_planet-71.jpg,null,,,,,,,,,,,,,71,"1,46,21,29,72,16,71,36,48,66,26,43,63,62,28,49,79,67,14,18,7,60,20,42,51,57,38,17,32,19,52,11,47,34,74,10",,,,,,,,,,
land,170,723873,0.0-53.0-2.0,"""event"",""trial"",""time""
""fullscreenenter"",""1"",""8986""
","
","
","""event"",""trial"",""time""
""fullscreenenter"",""1"",""8986""
","
",,null,run_exp/static/images/task_images/land.jpg,null,,,,,,,97,,,7,,,,,,,,,,,,,,
dig,171,725877,0.0-53.0-3.0,"""event"",""trial"",""time""
""fullscreenenter"",""1"",""8986""
","
","
","""event"",""trial"",""time""
""fullscreenenter"",""1"",""8986""
","
",,,,,,,,,,,,"[{""stimulus"":""run_exp/static/images/task_images/dig.jpg"",""time"":0.20000000298023224},{""stimulus"":""run_exp/static/images/task_images/land.jpg"",""time"":668.5},{""stimulus"":""run_exp/static/images/task_images/dig.jpg"",""time"":1335.4000000059605}]",[],7,,,,,,,,,,,,,,
harvest,172,726879,0.0-53.0-4.0,"""event"",""trial"",""time""
""fullscreenenter"",""1"",""8986""
","
","
","""event"",""trial"",""time""
""fullscreenenter"",""1"",""8986""
","
",,null,run_exp/static/images/task_images/gems/97.jpg,null,,,,,,,76,,,7,,,,,97,0.78374001,0.783505155,,,,,,,
decision,173,727435,0.0-53.0-5.0,"""event"",""trial"",""time""
""fullscreenenter"",""1"",""8986""
","
","
","""event"",""trial"",""time""
""fullscreenenter"",""1"",""8986""
","
",,554.4,run_exp/static/images/task_images/land.jpg,65,,,,,,,76,,,7,,,,,,,,208288,1,0,FALSE,,,
dig,174,729884,0.0-54.0-0.0,"""event"",""trial"",""time""
""fullscreenenter"",""1"",""8986""
","
","
","""event"",""trial"",""time""
""fullscreenenter"",""1"",""8986""
","
",,,,,,,,,,,,"[{""stimulus"":""run_exp/static/images/task_images/dig.jpg"",""time"":0.19999998807907104},{""stimulus"":""run_exp/static/images/task_images/land.jpg"",""time"":815.8999999910593},{""stimulus"":""run_exp/static/images/task_images/dig.jpg"",""time"":1632}]",[],7,,,,,,,,,,,,,,
harvest,175,730886,0.0-54.0-1.0,"""event"",""trial"",""time""
""fullscreenenter"",""1"",""8986""
","
","
","""event"",""trial"",""time""
""fullscreenenter"",""1"",""8986""
","
",,null,run_exp/static/images/task_images/gems/76.jpg,null,,,,,,,67,,,7,,,,,76,0.877479229,0.881578947,,,,,,,
decision,176,733368,0.0-54.0-2.0,"""event"",""trial"",""time""
""fullscreenenter"",""1"",""8986""
","
","
","""event"",""trial"",""time""
""fullscreenenter"",""1"",""8986""
","
",,2481.3,run_exp/static/images/task_images/land.jpg,65,,,,,,,67,,,7,,,,,,,,214221,1,1,FALSE,,,
dig,177,733889,0.0-55.0-0.0,"""event"",""trial"",""time""
""fullscreenenter"",""1"",""8986""
","
","
","""event"",""trial"",""time""
""fullscreenenter"",""1"",""8986""
","
",,,,,,,,,,,,"[{""stimulus"":""run_exp/static/images/task_images/dig.jpg"",""time"":0.20000000298023224},{""stimulus"":""run_exp/static/images/task_images/land.jpg"",""time"":174.3999999910593},{""stimulus"":""run_exp/static/images/task_images/dig.jpg"",""time"":347.8999999910593}]",[],7,,,,,,,,,,,,,,
harvest,178,734891,0.0-55.0-1.0,"""event"",""trial"",""time""
""fullscreenenter"",""1"",""8986""
","
","
","""event"",""trial"",""time""
""fullscreenenter"",""1"",""8986""
","
",,null,run_exp/static/images/task_images/gems/67.jpg,null,,,,,,,53,,,7,,,,,67,0.784590485,0.791044776,,,,,,,
decision,179,736014,0.0-55.0-2.0,"""event"",""trial"",""time""
""fullscreenenter"",""1"",""8986""
","
","
","""event"",""trial"",""time""
""fullscreenenter"",""1"",""8986""
","
",,1121.4,run_exp/static/images/task_images/land.jpg,65,,,,,,,53,,,7,,,,,,,,216867,1,2,FALSE,,,
dig,180,737897,0.0-56.0-0.0,"""event"",""trial"",""time""
""fullscreenenter"",""1"",""8986""
","
","
","""event"",""trial"",""time""
""fullscreenenter"",""1"",""8986""
","
",,,,,,,,,,,,"[{""stimulus"":""run_exp/static/images/task_images/dig.jpg"",""time"":0.20000000298023224},{""stimulus"":""run_exp/static/images/task_images/land.jpg"",""time"":627.7999999970198},{""stimulus"":""run_exp/static/images/task_images/dig.jpg"",""time"":1253}]",[],7,,,,,,,,,,,,,,
harvest,181,738899,0.0-56.0-1.0,"""event"",""trial"",""time""
""fullscreenenter"",""1"",""8986""
","
","
","""event"",""trial"",""time""
""fullscreenenter"",""1"",""8986""
","
",,null,run_exp/static/images/task_images/gems/53.jpg,null,,,,,,,43,,,7,,,,,53,0.803389983,0.811320755,,,,,,,
decision,182,739312,0.0-56.0-2.0,"""event"",""trial"",""time""
""fullscreenenter"",""1"",""8986""
","
","
","""event"",""trial"",""time""
""fullscreenenter"",""1"",""8986""
","
",,412.2,run_exp/static/images/task_images/land.jpg,65,,,,,,,43,,,7,,,,,,,,220165,1,3,FALSE,,,
dig,183,741903,0.0-57.0-0.0,"""event"",""trial"",""time""
""fullscreenenter"",""1"",""8986""
","
","
","""event"",""trial"",""time""
""fullscreenenter"",""1"",""8986""
","
",,,,,,,,,,,,"[{""stimulus"":""run_exp/static/images/task_images/dig.jpg"",""time"":0.20000000298023224},{""stimulus"":""run_exp/static/images/task_images/land.jpg"",""time"":864.6000000089407},{""stimulus"":""run_exp/static/images/task_images/dig.jpg"",""time"":1726.5}]",[],7,,,,,,,,,,,,,,
harvest,184,742906,0.0-57.0-1.0,"""event"",""trial"",""time""
""fullscreenenter"",""1"",""8986""
","
","
","""event"",""trial"",""time""
""fullscreenenter"",""1"",""8986""
","
",,null,run_exp/static/images/task_images/gems/43.jpg,null,,,,,,,34,,,7,,,,,43,0.786053079,0.790697674,,,,,,,
decision,185,743436,0.0-57.0-2.0,"""event"",""trial"",""time""
""fullscreenenter"",""1"",""8986""
","
","
","""event"",""trial"",""time""
""fullscreenenter"",""1"",""8986""
","
",,529.3,run_exp/static/images/task_images/land.jpg,65,,,,,,,34,,,7,,,,,,,,224289,1,4,FALSE,,,
dig,186,745908,0.0-58.0-0.0,"""event"",""trial"",""time""
""fullscreenenter"",""1"",""8986""
","
","
","""event"",""trial"",""time""
""fullscreenenter"",""1"",""8986""
","
",,,,,,,,,,,,"[{""stimulus"":""run_exp/static/images/task_images/dig.jpg"",""time"":0.20000000298023224},{""stimulus"":""run_exp/static/images/task_images/land.jpg"",""time"":825.0999999940395},{""stimulus"":""run_exp/static/images/task_images/dig.jpg"",""time"":1647.9000000059605}]",[],7,,,,,,,,,,,,,,
harvest,187,746910,0.0-58.0-1.0,"""event"",""trial"",""time""
""fullscreenenter"",""1"",""8986""
","
","
","""event"",""trial"",""time""
""fullscreenenter"",""1"",""8986""
","
",,null,run_exp/static/images/task_images/gems/34.jpg,null,,,,,,,28,,,7,,,,,34,0.82185474,0.823529412,,,,,,,
decision,188,747441,0.0-58.0-2.0,"""event"",""trial"",""time""
""fullscreenenter"",""1"",""8986""
","
","
","""event"",""trial"",""time""
""fullscreenenter"",""1"",""8986""
","
",,529.6,run_exp/static/images/task_images/land.jpg,65,,,,,,,28,,,7,,,,,,,,228294,1,5,FALSE,,,
dig,189,749915,0.0-59.0-0.0,"""event"",""trial"",""time""
""fullscreenenter"",""1"",""8986""
","
","
","""event"",""trial"",""time""
""fullscreenenter"",""1"",""8986""
","
",,,,,,,,,,,,"[{""stimulus"":""run_exp/static/images/task_images/dig.jpg"",""time"":0.29999999701976776},{""stimulus"":""run_exp/static/images/task_images/land.jpg"",""time"":824.5},{""stimulus"":""run_exp/static/images/task_images/dig.jpg"",""time"":1647.5}]",[],7,,,,,,,,,,,,,,
harvest,190,750917,0.0-59.0-1.0,"""event"",""trial"",""time""
""fullscreenenter"",""1"",""8986""
","
","
","""event"",""trial"",""time""
""fullscreenenter"",""1"",""8986""
","
",,null,run_exp/static/images/task_images/gems/28.jpg,null,,,,,,,19,,,7,,,,,28,0.671314353,0.678571429,,,,,,,
decision,191,753376,0.0-59.0-2.0,"""event"",""trial"",""time""
""fullscreenenter"",""1"",""8986""
","
","
","""event"",""trial"",""time""
""fullscreenenter"",""1"",""8986""
","
",,2458,run_exp/static/images/task_images/land.jpg,76,,,,,,,19,,,7,,,,,,,,234229,1,6,TRUE,,,
travel,192,760923,0.0-60.0-0.0,"""event"",""trial"",""time""
""fullscreenenter"",""1"",""8986""
","
","
","""event"",""trial"",""time""
""fullscreenenter"",""1"",""8986""
","
",,,,,,,,,,,,"[{""stimulus"":""run_exp/static/images/task_images/rocket-01.jpg"",""time"":0.20000000298023224},{""stimulus"":""run_exp/static/images/task_images/rocket-02.jpg"",""time"":839.2999999970198},{""stimulus"":""run_exp/static/images/task_images/rocket-03.jpg"",""time"":1677.2999999970198},{""stimulus"":""run_exp/static/images/task_images/rocket-04.jpg"",""time"":2516.2999999970198},{""stimulus"":""run_exp/static/images/task_images/rocket-05.jpg"",""time"":3358.4000000059605},{""stimulus"":""run_exp/static/images/task_images/rocket-06.jpg"",""time"":4192.0999999940395},{""stimulus"":""run_exp/static/images/task_images/rocket-07.jpg"",""time"":5030.29999999702},{""stimulus"":""run_exp/static/images/task_images/rocket-08.jpg"",""time"":5868.20000000298},{""stimulus"":""run_exp/static/images/task_images/rocket-09.jpg"",""time"":6705.5999999940395}]",[],7,,,,,,,,,,,,,,
alien_welcome,193,765926,0.0-60.0-1.0,"""event"",""trial"",""time""
""fullscreenenter"",""1"",""8986""
","
","
","""event"",""trial"",""time""
""fullscreenenter"",""1"",""8986""
","
",,null,run_exp/static/images/task_images/aliens/old_aliens/planet/alien_planet-36.jpg,null,,,,,,,,,,,,,36,"1,46,21,29,72,16,71,36,48,66,26,43,63,62,28,49,79,67,14,18,7,60,20,42,51,57,38,17,32,19,52,11,47,34,74,10",,,,,,,,,,
land,194,766429,0.0-60.0-2.0,"""event"",""trial"",""time""
""fullscreenenter"",""1"",""8986""
","
","
","""event"",""trial"",""time""
""fullscreenenter"",""1"",""8986""
","
",,null,run_exp/static/images/task_images/land.jpg,null,,,,,,,105,,,8,,,,,,,,,,,,,,
dig,195,768435,0.0-60.0-3.0,"""event"",""trial"",""time""
""fullscreenenter"",""1"",""8986""
","
","
","""event"",""trial"",""time""
""fullscreenenter"",""1"",""8986""
","
",,,,,,,,,,,,"[{""stimulus"":""run_exp/static/images/task_images/dig.jpg"",""time"":0.20000000298023224},{""stimulus"":""run_exp/static/images/task_images/land.jpg"",""time"":668.5},{""stimulus"":""run_exp/static/images/task_images/dig.jpg"",""time"":1334.800000011921}]",[],8,,,,,,,,,,,,,,
harvest,196,769445,0.0-60.0-4.0,"""event"",""trial"",""time""
""fullscreenenter"",""1"",""8986""
","
","
","""event"",""trial"",""time""
""fullscreenenter"",""1"",""8986""
","
",,null,run_exp/static/images/task_images/gems/105.jpg,null,,,,,,,92,,,8,,,,,105,0.872178745,0.876190476,,,,,,,
decision,197,770817,0.0-60.0-5.0,"""event"",""trial"",""time""
""fullscreenenter"",""1"",""8986""
","
","
","""event"",""trial"",""time""
""fullscreenenter"",""1"",""8986""
","
",,1370.2,run_exp/static/images/task_images/land.jpg,65,,,,,,,92,,,8,,,,,,,,251670,1,0,FALSE,,,
dig,198,772450,0.0-61.0-0.0,"""event"",""trial"",""time""
""fullscreenenter"",""1"",""8986""
","
","
","""event"",""trial"",""time""
""fullscreenenter"",""1"",""8986""
","
",,,,,,,,,,,,"[{""stimulus"":""run_exp/static/images/task_images/dig.jpg"",""time"":0.10000000894069672},{""stimulus"":""run_exp/static/images/task_images/land.jpg"",""time"":544.2999999970198},{""stimulus"":""run_exp/static/images/task_images/dig.jpg"",""time"":1086.6000000089407}]",[],8,,,,,,,,,,,,,,
harvest,199,773453,0.0-61.0-1.0,"""event"",""trial"",""time""
""fullscreenenter"",""1"",""8986""
","
","
","""event"",""trial"",""time""
""fullscreenenter"",""1"",""8986""
","
",,null,run_exp/static/images/task_images/gems/92.jpg,null,,,,,,,72,,,8,,,,,92,0.781336245,0.782608696,,,,,,,
decision,200,775735,0.0-61.0-2.0,"""event"",""trial"",""time""
""fullscreenenter"",""1"",""8986""
","
","
","""event"",""trial"",""time""
""fullscreenenter"",""1"",""8986""
","
",,2281.7,run_exp/static/images/task_images/land.jpg,65,,,,,,,72,,,8,,,,,,,,256588,1,1,FALSE,,,
dig,201,776456,0.0-62.0-0.0,"""event"",""trial"",""time""
""fullscreenenter"",""1"",""8986""
","
","
","""event"",""trial"",""time""
""fullscreenenter"",""1"",""8986""
","
",,,,,,,,,,,,"[{""stimulus"":""run_exp/static/images/task_images/dig.jpg"",""time"":0.09999999403953552},{""stimulus"":""run_exp/static/images/task_images/land.jpg"",""time"":240.5},{""stimulus"":""run_exp/static/images/task_images/dig.jpg"",""time"":479.70000000298023}]",[],8,,,,,,,,,,,,,,
harvest,202,777458,0.0-62.0-1.0,"""event"",""trial"",""time""
""fullscreenenter"",""1"",""8986""
","
","
","""event"",""trial"",""time""
""fullscreenenter"",""1"",""8986""
","
",,null,run_exp/static/images/task_images/gems/72.jpg,null,,,,,,,56,,,8,,,,,72,0.778496821,0.777777778,,,,,,,
decision,203,778651,0.0-62.0-2.0,"""event"",""trial"",""time""
""fullscreenenter"",""1"",""8986""
","
","
","""event"",""trial"",""time""
""fullscreenenter"",""1"",""8986""
","
",,1192.9,run_exp/static/images/task_images/land.jpg,65,,,,,,,56,,,8,,,,,,,,259505,1,2,FALSE,,,
dig,204,780461,0.0-63.0-0.0,"""event"",""trial"",""time""
""fullscreenenter"",""1"",""8986""
","
","
","""event"",""trial"",""time""
""fullscreenenter"",""1"",""8986""
","
",,,,,,,,,,,,"[{""stimulus"":""run_exp/static/images/task_images/dig.jpg"",""time"":0.09999999403953552},{""stimulus"":""run_exp/static/images/task_images/land.jpg"",""time"":603.9000000059605},{""stimulus"":""run_exp/static/images/task_images/dig.jpg"",""time"":1205.9000000059605}]",[],8,,,,,,,,,,,,,,
harvest,205,781463,0.0-63.0-1.0,"""event"",""trial"",""time""
""fullscreenenter"",""1"",""8986""
","
","
","""event"",""trial"",""time""
""fullscreenenter"",""1"",""8986""
","
",,null,run_exp/static/images/task_images/gems/56.jpg,null,,,,,,,49,,,8,,,,,56,0.874412635,0.875,,,,,,,
decision,206,782835,0.0-63.0-2.0,"""event"",""trial"",""time""
""fullscreenenter"",""1"",""8986""
","
","
","""event"",""trial"",""time""
""fullscreenenter"",""1"",""8986""
","
",,1370.5,run_exp/static/images/task_images/land.jpg,65,,,,,,,49,,,8,,,,,,,,263688,1,3,FALSE,,,
dig,207,784469,0.0-64.0-0.0,"""event"",""trial"",""time""
""fullscreenenter"",""1"",""8986""
","
","
","""event"",""trial"",""time""
""fullscreenenter"",""1"",""8986""
","
",,,,,,,,,,,,"[{""stimulus"":""run_exp/static/images/task_images/dig.jpg"",""time"":0.20000000298023224},{""stimulus"":""run_exp/static/images/task_images/land.jpg"",""time"":543.7000000029802},{""stimulus"":""run_exp/static/images/task_images/dig.jpg"",""time"":1087.5}]",[],8,,,,,,,,,,,,,,
harvest,208,785470,0.0-64.0-1.0,"""event"",""trial"",""time""
""fullscreenenter"",""1"",""8986""
","
","
","""event"",""trial"",""time""
""fullscreenenter"",""1"",""8986""
","
",,null,run_exp/static/images/task_images/gems/49.jpg,null,,,,,,,38,,,8,,,,,49,0.773739038,0.775510204,,,,,,,
decision,209,787112,0.0-64.0-2.0,"""event"",""trial"",""time""
""fullscreenenter"",""1"",""8986""
","
","
","""event"",""trial"",""time""
""fullscreenenter"",""1"",""8986""
","
",,1640.2,run_exp/static/images/task_images/land.jpg,65,,,,,,,38,,,8,,,,,,,,267965,1,4,FALSE,,,
dig,210,788477,0.0-65.0-0.0,"""event"",""trial"",""time""
""fullscreenenter"",""1"",""8986""
","
","
","""event"",""trial"",""time""
""fullscreenenter"",""1"",""8986""
","
",,,,,,,,,,,,"[{""stimulus"":""run_exp/static/images/task_images/dig.jpg"",""time"":0.29999999701976776},{""stimulus"":""run_exp/static/images/task_images/land.jpg"",""time"":454.79999999701977},{""stimulus"":""run_exp/static/images/task_images/dig.jpg"",""time"":908.1999999880791}]",[],8,,,,,,,,,,,,,,
harvest,211,789479,0.0-65.0-1.0,"""event"",""trial"",""time""
""fullscreenenter"",""1"",""8986""
","
","
","""event"",""trial"",""time""
""fullscreenenter"",""1"",""8986""
","
",,null,run_exp/static/images/task_images/gems/38.jpg,null,,,,,,,28,,,8,,,,,38,0.743562697,0.736842105,,,,,,,
decision,212,791420,0.0-65.0-2.0,"""event"",""trial"",""time""
""fullscreenenter"",""1"",""8986""
","
","
","""event"",""trial"",""time""
""fullscreenenter"",""1"",""8986""
","
",,1939,run_exp/static/images/task_images/land.jpg,65,,,,,,,28,,,8,,,,,,,,272273,1,5,FALSE,,,
dig,213,792484,0.0-66.0-0.0,"""event"",""trial"",""time""
""fullscreenenter"",""1"",""8986""
","
","
","""event"",""trial"",""time""
""fullscreenenter"",""1"",""8986""
","
",,,,,,,,,,,,"[{""stimulus"":""run_exp/static/images/task_images/dig.jpg"",""time"":0.20000000298023224},{""stimulus"":""run_exp/static/images/task_images/land.jpg"",""time"":353.90000000596046},{""stimulus"":""run_exp/static/images/task_images/dig.jpg"",""time"":707.9000000059605}]",[],8,,,,,,,,,,,,,,
harvest,214,793487,0.0-66.0-1.0,"""event"",""trial"",""time""
""fullscreenenter"",""1"",""8986""
","
","
","""event"",""trial"",""time""
""fullscreenenter"",""1"",""8986""
","
",,null,run_exp/static/images/task_images/gems/28.jpg,null,,,,,,,23,,,8,,,,,28,0.836808916,0.821428571,,,,,,,
decision,215,795987,0.0-66.0-2.0,"""event"",""trial"",""time""
""fullscreenenter"",""1"",""8986""
","
","
","""event"",""trial"",""time""
""fullscreenenter"",""1"",""8986""
","
",,2498.1,run_exp/static/images/task_images/land.jpg,65,,,,,,,23,,,8,,,,,,,,276840,1,6,FALSE,,,
dig,216,796493,0.0-67.0-0.0,"""event"",""trial"",""time""
""fullscreenenter"",""1"",""8986""
","
","
","""event"",""trial"",""time""
""fullscreenenter"",""1"",""8986""
","
",,,,,,,,,,,,"[{""stimulus"":""run_exp/static/images/task_images/dig.jpg"",""time"":0.09999999403953552},{""stimulus"":""run_exp/static/images/task_images/land.jpg"",""time"":168.5},{""stimulus"":""run_exp/static/images/task_images/dig.jpg"",""time"":351.19999998807907}]",[],8,,,,,,,,,,,,,,
harvest,217,797495,0.0-67.0-1.0,"""event"",""trial"",""time""
""fullscreenenter"",""1"",""8986""
","
","
","""event"",""trial"",""time""
""fullscreenenter"",""1"",""8986""
","
",,null,run_exp/static/images/task_images/gems/23.jpg,null,,,,,,,19,,,8,,,,,23,0.831828685,0.826086957,,,,,,,
decision,218,798928,0.0-67.0-2.0,"""event"",""trial"",""time""
""fullscreenenter"",""1"",""8986""
","
","
","""event"",""trial"",""time""
""fullscreenenter"",""1"",""8986""
","
",,1431.5,run_exp/static/images/task_images/land.jpg,76,,,,,,,19,,,8,,,,,,,,279781,1,7,TRUE,,,
travel,219,807501,0.0-68.0-0.0,"""event"",""trial"",""time""
""fullscreenenter"",""1"",""8986""
","
","
","""event"",""trial"",""time""
""fullscreenenter"",""1"",""8986""
","
",,,,,,,,,,,,"[{""stimulus"":""run_exp/static/images/task_images/rocket-01.jpg"",""time"":0.19999998807907104},{""stimulus"":""run_exp/static/images/task_images/rocket-02.jpg"",""time"":954.0999999940395},{""stimulus"":""run_exp/static/images/task_images/rocket-03.jpg"",""time"":1905},{""stimulus"":""run_exp/static/images/task_images/rocket-04.jpg"",""time"":2858},{""stimulus"":""run_exp/static/images/task_images/rocket-05.jpg"",""time"":3809.699999988079},{""stimulus"":""run_exp/static/images/task_images/rocket-06.jpg"",""time"":4775.899999991059},{""stimulus"":""run_exp/static/images/task_images/rocket-07.jpg"",""time"":5714.5999999940395},{""stimulus"":""run_exp/static/images/task_images/rocket-08.jpg"",""time"":6681.399999991059},{""stimulus"":""run_exp/static/images/task_images/rocket-09.jpg"",""time"":7619.0999999940395}]",[],8,,,,,,,,,,,,,,
alien_welcome,220,812503,0.0-68.0-1.0,"""event"",""trial"",""time""
""fullscreenenter"",""1"",""8986""
","
","
","""event"",""trial"",""time""
""fullscreenenter"",""1"",""8986""
","
",,null,run_exp/static/images/task_images/aliens/old_aliens/planet/alien_planet-48.jpg,null,,,,,,,,,,,,,48,"1,46,21,29,72,16,71,36,48,66,26,43,63,62,28,49,79,67,14,18,7,60,20,42,51,57,38,17,32,19,52,11,47,34,74,10",,,,,,,,,,
land,221,813005,0.0-68.0-2.0,"""event"",""trial"",""time""
""fullscreenenter"",""1"",""8986""
","
","
","""event"",""trial"",""time""
""fullscreenenter"",""1"",""8986""
","
",,null,run_exp/static/images/task_images/land.jpg,null,,,,,,,99,,,9,,,,,,,,,,,,,,
dig,222,815010,0.0-68.0-3.0,"""event"",""trial"",""time""
""fullscreenenter"",""1"",""8986""
","
","
","""event"",""trial"",""time""
""fullscreenenter"",""1"",""8986""
","
",,,,,,,,,,,,"[{""stimulus"":""run_exp/static/images/task_images/dig.jpg"",""time"":0.3999999910593033},{""stimulus"":""run_exp/static/images/task_images/land.jpg"",""time"":668.8999999910593},{""stimulus"":""run_exp/static/images/task_images/dig.jpg"",""time"":1336.5}]",[],9,,,,,,,,,,,,,,
harvest,223,816012,0.0-68.0-4.0,"""event"",""trial"",""time""
""fullscreenenter"",""1"",""8986""
","
","
","""event"",""trial"",""time""
""fullscreenenter"",""1"",""8986""
","
",,null,run_exp/static/images/task_images/gems/99.jpg,null,,,,,,,20,,,9,,,,,99,0.197127013,0.202020202,,,,,,,
decision,224,816930,0.0-68.0-5.0,"""event"",""trial"",""time""
""fullscreenenter"",""1"",""8986""
","
","
","""event"",""trial"",""time""
""fullscreenenter"",""1"",""8986""
","
",,917.5,run_exp/static/images/task_images/land.jpg,65,,,,,,,20,,,9,,,,,,,,297783,1,0,FALSE,,,
dig,225,819017,0.0-69.0-0.0,"""event"",""trial"",""time""
""fullscreenenter"",""1"",""8986""
","
","
","""event"",""trial"",""time""
""fullscreenenter"",""1"",""8986""
","
",,,,,,,,,,,,"[{""stimulus"":""run_exp/static/images/task_images/dig.jpg"",""time"":0.20000000298023224},{""stimulus"":""run_exp/static/images/task_images/land.jpg"",""time"":695.5999999940395},{""stimulus"":""run_exp/static/images/task_images/dig.jpg"",""time"":1389.9000000059605}]",[],9,,,,,,,,,,,,,,
harvest,226,820019,0.0-69.0-1.0,"""event"",""trial"",""time""
""fullscreenenter"",""1"",""8986""
","
","
","""event"",""trial"",""time""
""fullscreenenter"",""1"",""8986""
","
",,null,run_exp/static/images/task_images/gems/20.jpg,null,,,,,,,3,,,9,,,,,20,0.15598408,0.15,,,,,,,
decision,227,821078,0.0-69.0-2.0,"""event"",""trial"",""time""
""fullscreenenter"",""1"",""8986""
","
","
","""event"",""trial"",""time""
""fullscreenenter"",""1"",""8986""
","
",,1058.1,run_exp/static/images/task_images/land.jpg,65,,,,,,,3,,,9,,,,,,,,301931,1,1,TRUE,,,
end_of_block_continue,228,829912,0.0-70.0-0.0,"""event"",""trial"",""time""
""fullscreenenter"",""1"",""8986""
","
","
","""event"",""trial"",""time""
""fullscreenenter"",""1"",""8986""
","
",,null,run_exp/static/audio/clip_32_block_end.m4a,,,,,,,null,,,,,,,,,,,,,,,,,,
alien_welcome,229,834917,0.0-71.0-0.0,"""event"",""trial"",""time""
""fullscreenenter"",""1"",""8986""
","
","
","""event"",""trial"",""time""
""fullscreenenter"",""1"",""8986""
","
",,null,run_exp/static/images/task_images/aliens/old_aliens/planet/alien_planet-66.jpg,null,,,,,,,,,,,,,66,"1,46,21,29,72,16,71,36,48,66,26,43,63,62,28,49,79,67,14,18,7,60,20,42,51,57,38,17,32,19,52,11,47,34,74,10",,,,,,,,,,
land,230,835419,0.0-71.0-1.0,"""event"",""trial"",""time""
""fullscreenenter"",""1"",""8986""
","
","
","""event"",""trial"",""time""
""fullscreenenter"",""1"",""8986""
","
",,null,run_exp/static/images/task_images/land.jpg,null,,,,,,,101,,,10,,,,,,,,,,,,,,
dig,231,837431,0.0-71.0-2.0,"""event"",""trial"",""time""
""fullscreenenter"",""1"",""8986""
","
","
","""event"",""trial"",""time""
""fullscreenenter"",""1"",""8986""
","
",,,,,,,,,,,,"[{""stimulus"":""run_exp/static/images/task_images/dig.jpg"",""time"":0.4000000059604645},{""stimulus"":""run_exp/static/images/task_images/land.jpg"",""time"":668.9000000059605},{""stimulus"":""run_exp/static/images/task_images/dig.jpg"",""time"":1335.7000000029802}]",[],10,,,,,,,,,,,,,,
harvest,232,838432,0.0-71.0-3.0,"""event"",""trial"",""time""
""fullscreenenter"",""1"",""8986""
","
","
","""event"",""trial"",""time""
""fullscreenenter"",""1"",""8986""
","
",,null,run_exp/static/images/task_images/gems/101.jpg,null,,,,,,,20,,,10,,,,,101,0.200845867,0.198019802,,,,,,,
decision,233,839303,0.0-71.0-4.0,"""event"",""trial"",""time""
""fullscreenenter"",""1"",""8986""
","
","
","""event"",""trial"",""time""
""fullscreenenter"",""1"",""8986""
","
",,871.1,run_exp/static/images/task_images/land.jpg,65,,,,,,,20,,,10,,,,,,,,9388,2,0,FALSE,,,
dig,234,841436,0.0-72.0-0.0,"""event"",""trial"",""time""
""fullscreenenter"",""1"",""8986""
","
","
","""event"",""trial"",""time""
""fullscreenenter"",""1"",""8986""
","
",,,,,,,,,,,,"[{""stimulus"":""run_exp/static/images/task_images/dig.jpg"",""time"":0.09999999403953552},{""stimulus"":""run_exp/static/images/task_images/land.jpg"",""time"":711.0999999940395},{""stimulus"":""run_exp/static/images/task_images/dig.jpg"",""time"":1419.2000000029802}]",[],10,,,,,,,,,,,,,,
harvest,235,842438,0.0-72.0-1.0,"""event"",""trial"",""time""
""fullscreenenter"",""1"",""8986""
","
","
","""event"",""trial"",""time""
""fullscreenenter"",""1"",""8986""
","
",,null,run_exp/static/images/task_images/gems/20.jpg,null,,,,,,,8,,,10,,,,,20,0.397600879,0.4,,,,,,,
decision,236,843019,0.0-72.0-2.0,"""event"",""trial"",""time""
""fullscreenenter"",""1"",""8986""
","
","
","""event"",""trial"",""time""
""fullscreenenter"",""1"",""8986""
","
",,579.3,run_exp/static/images/task_images/land.jpg,76,,,,,,,8,,,10,,,,,,,,13103,2,1,TRUE,,,
travel,237,852437,0.0-73.0-0.0,"""event"",""trial"",""time""
""fullscreenenter"",""1"",""8986""
","
","
","""event"",""trial"",""time""
""fullscreenenter"",""1"",""8986""
","
",,,,,,,,,,,,"[{""stimulus"":""run_exp/static/images/task_images/rocket-01.jpg"",""time"":0.20000000298023224},{""stimulus"":""run_exp/static/images/task_images/rocket-02.jpg"",""time"":1047.7000000029802},{""stimulus"":""run_exp/static/images/task_images/rocket-03.jpg"",""time"":2094},{""stimulus"":""run_exp/static/images/task_images/rocket-04.jpg"",""time"":3139.2999999970198},{""stimulus"":""run_exp/static/images/task_images/rocket-05.jpg"",""time"":4185.70000000298},{""stimulus"":""run_exp/static/images/task_images/rocket-06.jpg"",""time"":5230.9000000059605},{""stimulus"":""run_exp/static/images/task_images/rocket-07.jpg"",""time"":6277.79999999702},{""stimulus"":""run_exp/static/images/task_images/rocket-08.jpg"",""time"":7323.70000000298},{""stimulus"":""run_exp/static/images/task_images/rocket-09.jpg"",""time"":8369.40000000596}]",[],10,,,,,,,,,,,,,,
alien_welcome,238,857440,0.0-73.0-1.0,"""event"",""trial"",""time""
""fullscreenenter"",""1"",""8986""
","
","
","""event"",""trial"",""time""
""fullscreenenter"",""1"",""8986""
","
",,null,run_exp/static/images/task_images/aliens/old_aliens/planet/alien_planet-26.jpg,null,,,,,,,,,,,,,26,"1,46,21,29,72,16,71,36,48,66,26,43,63,62,28,49,79,67,14,18,7,60,20,42,51,57,38,17,32,19,52,11,47,34,74,10",,,,,,,,,,
land,239,857942,0.0-73.0-2.0,"""event"",""trial"",""time""
""fullscreenenter"",""1"",""8986""
","
","
","""event"",""trial"",""time""
""fullscreenenter"",""1"",""8986""
","
",,null,run_exp/static/images/task_images/land.jpg,null,,,,,,,108,,,11,,,,,,,,,,,,,,
dig,240,859946,0.0-73.0-3.0,"""event"",""trial"",""time""
""fullscreenenter"",""1"",""8986""
","
","
","""event"",""trial"",""time""
""fullscreenenter"",""1"",""8986""
","
",,,,,,,,,,,,"[{""stimulus"":""run_exp/static/images/task_images/dig.jpg"",""time"":0.29999999701976776},{""stimulus"":""run_exp/static/images/task_images/land.jpg"",""time"":668.2999999970198},{""stimulus"":""run_exp/static/images/task_images/dig.jpg"",""time"":1337.9000000059605}]",[],11,,,,,,,,,,,,,,
harvest,241,860951,0.0-73.0-4.0,"""event"",""trial"",""time""
""fullscreenenter"",""1"",""8986""
","
","
","""event"",""trial"",""time""
""fullscreenenter"",""1"",""8986""
","
",,null,run_exp/static/images/task_images/gems/108.jpg,null,,,,,,,13,,,11,,,,,108,0.123374596,0.12037037,,,,,,,
decision,242,861449,0.0-73.0-5.0,"""event"",""trial"",""time""
""fullscreenenter"",""1"",""8986""
","
","
","""event"",""trial"",""time""
""fullscreenenter"",""1"",""8986""
","
",,496.2,run_exp/static/images/task_images/land.jpg,65,,,,,,,13,,,11,,,,,,,,31533,2,0,FALSE,,,
dig,243,863955,0.0-74.0-0.0,"""event"",""trial"",""time""
""fullscreenenter"",""1"",""8986""
","
","
","""event"",""trial"",""time""
""fullscreenenter"",""1"",""8986""
","
",,,,,,,,,,,,"[{""stimulus"":""run_exp/static/images/task_images/dig.jpg"",""time"":0.20000000298023224},{""stimulus"":""run_exp/static/images/task_images/land.jpg"",""time"":835.8000000119209},{""stimulus"":""run_exp/static/images/task_images/dig.jpg"",""time"":1669.6000000089407}]",[],11,,,,,,,,,,,,,,
harvest,244,864957,0.0-74.0-1.0,"""event"",""trial"",""time""
""fullscreenenter"",""1"",""8986""
","
","
","""event"",""trial"",""time""
""fullscreenenter"",""1"",""8986""
","
