trial_type,trial_index,time_elapsed,internal_node_id,interactions,blur_events,focus_events,fullscreenenter_events,fullscreenexit_events,success,rt,stimulus,key_press,prompt,subject_id,participant_id,age,gender,button_pressed,next_reward,animation_sequence,responses,planet,curr_prac_trial,n_prac_rounds,alien,aliens,reward_received,decay_rate_actual,decay_rate_exp,time_in_block,block_num,prt,last_trial_on_planet,button_html,bonus,num_failures
pavlovia,0,3,0.0-0.0,"""event"",""trial"",""time""
""fullscreenenter"",""1"",""2632""
","
","
","""event"",""trial"",""time""
""fullscreenenter"",""1"",""2632""
","
",,,,,,,,,,,,,,,,,,,,,,,,,,,,
fullscreen,1,3619,0.0-1.0,"""event"",""trial"",""time""
""fullscreenenter"",""1"",""2632""
","
","
","""event"",""trial"",""time""
""fullscreenenter"",""1"",""2632""
","
",TRUE,,,,,,,,,,,,,,,,,,,,,,,,,,,
instruc_welcome,2,13447,0.0-2.0,"""event"",""trial"",""time""
""fullscreenenter"",""1"",""2632""
","
","
","""event"",""trial"",""time""
""fullscreenenter"",""1"",""2632""
","
",,null,run_exp/static/audio/clip_1_welcome.m4a,null,"<p>Howdy! In this experiment, you’ll be an explorer traveling through space to collect space treasure.</p><p>Your mission is to collect as much treasure as possible.</p><br><br><p><img src='run_exp/static/images/task_images/opening_img-01.jpg' height='300' width='auto'></p>",7934,220,20.41,Female,,,,,,,,,,,,,,,,,,,
audio-keyboard-response,3,30085,0.0-3.0,"""event"",""trial"",""time""
""fullscreenenter"",""1"",""2632""
","
","
","""event"",""trial"",""time""
""fullscreenenter"",""1"",""2632""
","
",,null,run_exp/static/audio/clip_2_move.m4a,null,,,,,,,,,,,,,,,,,,,,,,,,
welcome_dec,4,32551,0.0-4.0,"""event"",""trial"",""time""
""fullscreenenter"",""1"",""2632""
","
","
","""event"",""trial"",""time""
""fullscreenenter"",""1"",""2632""
","
",,2463.9,"<p>Howdy! In this experiment, you’ll be an explorer traveling through space to collect space treasure.</p><p>Your mission is to collect as much treasure as possible.</p><br><br><p><img src='run_exp/static/images/task_images/opening_img-01.jpg' height='300' width='auto'></p>",,,,,,,1,,,,,,,,,,,,,,,,,,
html-keyboard-response,5,34277,0.0-5.0,"""event"",""trial"",""time""
""fullscreenenter"",""1"",""2632""
","
","
","""event"",""trial"",""time""
""fullscreenenter"",""1"",""2632""
","
",,1725.3,"<p>Howdy! In this experiment, you’ll be an explorer traveling through space to collect space treasure.</p><p>Your mission is to collect as much treasure as possible.</p><br><br><p><img src='run_exp/static/images/task_images/opening_img-01.jpg' height='300' width='auto'></p><button class=""jspsych-html-btn-unchosen""><img src=""run_exp/static/images/task_images/planet-01.jpg"" height=""50""></button><button class=""jspsych-html-btn-chosen""><img src=""run_exp/static/images/task_images/planet-02.jpg"" height=""50""></button><p><b>[press the space bar to lock in your answer]<b><br></p>",32,,,,,,,,,,,,,,,,,,,,,,,,
instruc_goal,6,44385,0.0-6.0-0.0,"""event"",""trial"",""time""
""fullscreenenter"",""1"",""2632""
","
","
","""event"",""trial"",""time""
""fullscreenenter"",""1"",""2632""
","
",,null,run_exp/static/audio/clip_3_goal.m4a,null,"<p> As a space explorer, you’ll visit different planets to dig for space treasure, these pink gems.</p> <p> The more treasure you dig up, the more bonus money you’ll win! </p><br><br><p><img src='run_exp/static/images/task_images/pink_gem.jpg' height='300' width='auto'></p>",,,,,,,,,,,,,,,,,,,,,,,
instruc_goal,7,52191,0.0-6.0-1.0,"""event"",""trial"",""time""
""fullscreenenter"",""1"",""2632""
","
","
","""event"",""trial"",""time""
""fullscreenenter"",""1"",""2632""
","
",,7803.1,"<p> As a space explorer, you’ll visit different planets to dig for space treasure, these pink gems.</p> <p> The more treasure you dig up, the more bonus money you’ll win! </p><br><br><p><img src='run_exp/static/images/task_images/pink_gem.jpg' height='300' width='auto'></p>",,,,,,,1,,,,,,,,,,,,,,,,,,
html-keyboard-response,8,52603,0.0-6.0-2.0,"""event"",""trial"",""time""
""fullscreenenter"",""1"",""2632""
","
","
","""event"",""trial"",""time""
""fullscreenenter"",""1"",""2632""
","
",,411.3,"<p> As a space explorer, you’ll visit different planets to dig for space treasure, these pink gems.</p> <p> The more treasure you dig up, the more bonus money you’ll win! </p><br><br><p><img src='run_exp/static/images/task_images/pink_gem.jpg' height='300' width='auto'></p><button class=""jspsych-html-btn-unchosen""><img src=""run_exp/static/images/task_images/planet-01.jpg"" height=""50""></button><button class=""jspsych-html-btn-chosen""><img src=""run_exp/static/images/task_images/planet-02.jpg"" height=""50""></button><p><b>[press the space bar to lock in your answer]<b><br></p>",32,,,,,,,,,,,,,,,,,,,,,,,,
instruc_dig,9,68665,0.0-7.0-0.0,"""event"",""trial"",""time""
""fullscreenenter"",""1"",""2632""
","
","
","""event"",""trial"",""time""
""fullscreenenter"",""1"",""2632""
","
",,null,run_exp/static/audio/clip_4_dig.m4a,null,,,,,,,100,,,,,,,,,,,,,,,,,
instruc_dig_try,10,70087,0.0-7.0-1.0,"""event"",""trial"",""time""
""fullscreenenter"",""1"",""2632""
","
","
","""event"",""trial"",""time""
""fullscreenenter"",""1"",""2632""
","
",,1419,"<p> When you’ve arrived at a new planet, you will dig once. </p> <p>Then, you get to decide if you want to stay on the planet and dig again or travel to a new planet and dig there.</p> <p> To stay and dig, press the letter <strong>‘A’</strong> on your keyboard. Try pressing it now! </p><p><img src='run_exp/static/images/task_images/land.jpg'  height='700' width='auto'></p>",65,"<p> When you’ve arrived at a new planet, you will dig once. </p> <p>Then, you get to decide if you want to stay on the planet and dig again or travel to a new planet and dig there.</p> <p> To stay and dig, press the letter <strong>‘A’</strong> on your keyboard. Try pressing it now! </p><p><img src='run_exp/static/images/task_images/land.jpg'  height='700' width='auto'></p>",,,,,,100,,,,,,,,,,,,,,,,,
dig_prac,11,72108,0.0-7.0-2.0,"""event"",""trial"",""time""
""fullscreenenter"",""1"",""2632""
","
","
","""event"",""trial"",""time""
""fullscreenenter"",""1"",""2632""
","
",,,,,,,,,,,,"[{""stimulus"":""run_exp/static/images/task_images/dig.jpg"",""time"":0.20000000018626451},{""stimulus"":""run_exp/static/images/task_images/land.jpg"",""time"":680.7999999998137},{""stimulus"":""run_exp/static/images/task_images/dig.jpg"",""time"":1335.5}]",[],,,,,,,,,,,,,,,
instruc_travel,12,108406,0.0-7.0-3.0,"""event"",""trial"",""time""
""fullscreenenter"",""1"",""2632""
","
","
","""event"",""trial"",""time""
""fullscreenenter"",""1"",""2632""
","
",,null,run_exp/static/audio/clip_5_travel.m4a,null,"<p>Every time you dig up gems, there are less gems on the planet, so the more you dig on a planet the fewer gems you’ll get with each dig.</p><p>When gems are running low, you may want to travel to a new planet. </p> <p>  Planets are very far apart in this galaxy, so it will take some time to travel between them. </p> <br><p>There are lots and lots of planets for you to visit, so you won’t be able to return to any planets you’ve seen before. </p><br><p>To leave this planet and travel to a new one, press the letter <strong>‘L’</strong> on your keyboard. Try pressing it now! </p><p><img src='run_exp/static/images/task_images/rocket-01.jpg'  height='600' width='auto'></p>",,,,,,,,,,,,,,,,,,,,,,,
instruc_travel_try,13,109685,0.0-7.0-4.0,"""event"",""trial"",""time""
""fullscreenenter"",""1"",""2632""
","
","
","""event"",""trial"",""time""
""fullscreenenter"",""1"",""2632""
","
",,1276.3,"<p>Every time you dig up gems, there are less gems on the planet, so the more you dig on a planet the fewer gems you’ll get with each dig.</p><p>When gems are running low, you may want to travel to a new planet. </p> <p>  Planets are very far apart in this galaxy, so it will take some time to travel between them. </p> <br><p>There are lots and lots of planets for you to visit, so you won’t be able to return to any planets you’ve seen before. </p><br><p>To leave this planet and travel to a new one, press the letter <strong>‘L’</strong> on your keyboard. Try pressing it now! </p><p><img src='run_exp/static/images/task_images/rocket-01.jpg'  height='600' width='auto'></p>",76,"<p>Every time you dig up gems, there are less gems on the planet, so the more you dig on a planet the fewer gems you’ll get with each dig.</p><p>When gems are running low, you may want to travel to a new planet. </p> <p>  Planets are very far apart in this galaxy, so it will take some time to travel between them. </p> <br><p>There are lots and lots of planets for you to visit, so you won’t be able to return to any planets you’ve seen before. </p><br><p>To leave this planet and travel to a new one, press the letter <strong>‘L’</strong> on your keyboard. Try pressing it now! </p><p><img src='run_exp/static/images/task_images/rocket-01.jpg'  height='600' width='auto'></p>",,,,,,,,,,,,,,,,,,,,,,,
travel_prac,14,119690,0.0-7.0-5.0,"""event"",""trial"",""time""
""fullscreenenter"",""1"",""2632""
","
","
","""event"",""trial"",""time""
""fullscreenenter"",""1"",""2632""
","
",,,,,,,,,,,,"[{""stimulus"":""run_exp/static/images/task_images/rocket-01.jpg"",""time"":0.5},{""stimulus"":""run_exp/static/images/task_images/rocket-02.jpg"",""time"":1119.7000000001863},{""stimulus"":""run_exp/static/images/task_images/rocket-03.jpg"",""time"":2237.5},{""stimulus"":""run_exp/static/images/task_images/rocket-04.jpg"",""time"":3336.5999999996275},{""stimulus"":""run_exp/static/images/task_images/rocket-05.jpg"",""time"":4452.799999999814},{""stimulus"":""run_exp/static/images/task_images/rocket-06.jpg"",""time"":5566.5},{""stimulus"":""run_exp/static/images/task_images/rocket-07.jpg"",""time"":6671.5},{""stimulus"":""run_exp/static/images/task_images/rocket-08.jpg"",""time"":7789.0999999996275},{""stimulus"":""run_exp/static/images/task_images/rocket-09.jpg"",""time"":8901.599999999627}]",[],0,,,,,,,,,,,,,,
instruc_alien_greet,15,146925,0.0-7.0-6.0,"""event"",""trial"",""time""
""fullscreenenter"",""1"",""2632""
","
","
","""event"",""trial"",""time""
""fullscreenenter"",""1"",""2632""
","
",,null,run_exp/static/audio/clip_6_alien.m4a,null,"<p>When you arrive at a new planet, the alien who owns the treasure mine on that planet will greet you!</p><p>The better an alien takes care of their mine the easier it is to dig for gems. Some aliens take better care of their mine than others. So, you won’t get exactly the same amount of gems on each planet.</p><p>What the alien looks like does not tell you anything about how many gems there are on the planet.</p><br><p><img src=""run_exp/static/images/task_images/aliens/instructions_aliens/planet/alien_planet-1.jpg""  height=""600"" width=""auto""></p>",,,,,,,,,,,,,,,,,,,,,,,
instruc_alien_greet,16,148876,0.0-7.0-7.0,"""event"",""trial"",""time""
""fullscreenenter"",""1"",""2632""
","
","
","""event"",""trial"",""time""
""fullscreenenter"",""1"",""2632""
","
",,1949.9,"<p>When you arrive at a new planet, the alien who owns the treasure mine on that planet will greet you!</p><p>The better an alien takes care of their mine the easier it is to dig for gems. Some aliens take better care of their mine than others. So, you won’t get exactly the same amount of gems on each planet.</p><p>What the alien looks like does not tell you anything about how many gems there are on the planet.</p><br><p><img src=""run_exp/static/images/task_images/aliens/instructions_aliens/planet/alien_planet-1.jpg""  height=""600"" width=""auto""></p>",,,,,,,1,,,,,,,,,,,,,,,,,,
html-keyboard-response,17,150262,0.0-7.0-8.0,"""event"",""trial"",""time""
""fullscreenenter"",""1"",""2632""
","
","
","""event"",""trial"",""time""
""fullscreenenter"",""1"",""2632""
","
",,1384.8,"<p>When you arrive at a new planet, the alien who owns the treasure mine on that planet will greet you!</p><p>The better an alien takes care of their mine the easier it is to dig for gems. Some aliens take better care of their mine than others. So, you won’t get exactly the same amount of gems on each planet.</p><p>What the alien looks like does not tell you anything about how many gems there are on the planet.</p><br><p><img src=""run_exp/static/images/task_images/aliens/instructions_aliens/planet/alien_planet-1.jpg""  height=""600"" width=""auto""></p><button class=""jspsych-html-btn-unchosen""><img src=""run_exp/static/images/task_images/planet-01.jpg"" height=""50""></button><button class=""jspsych-html-btn-chosen""><img src=""run_exp/static/images/task_images/planet-02.jpg"" height=""50""></button><p><b>[press the space bar to lock in your answer]<b><br></p>",32,,,,,,,,,,,,,,,,,,,,,,,,
time_out,18,161426,0.0-8.0-0.0,"""event"",""trial"",""time""
""fullscreenenter"",""1"",""2632""
","
","
","""event"",""trial"",""time""
""fullscreenenter"",""1"",""2632""
","
",,null,run_exp/static/audio/clip_7_timeout.m4a,null,"<p>If you don't make your choice fast enough, you’ll have to wait a few seconds before you can make another one.</p><p>You can’t dig for more gems or travel to new planets. You just have to sit and wait.</p><br><p><img src='run_exp/static/images/task_images/time_out.jpg'  height='600' width='auto'></p>",,,,,,,,,,,,,,,,,,,,,,,
time_out,19,168335,0.0-8.0-1.0,"""event"",""trial"",""time""
""fullscreenenter"",""1"",""2632""
","
","
","""event"",""trial"",""time""
""fullscreenenter"",""1"",""2632""
","
",,6905.3,"<p>If you don't make your choice fast enough, you’ll have to wait a few seconds before you can make another one.</p><p>You can’t dig for more gems or travel to new planets. You just have to sit and wait.</p><br><p><img src='run_exp/static/images/task_images/time_out.jpg'  height='600' width='auto'></p>",,,,,,,1,,,,,,,,,,,,,,,,,,
html-keyboard-response,20,168787,0.0-8.0-2.0,"""event"",""trial"",""time""
""fullscreenenter"",""1"",""2632""
","
","
","""event"",""trial"",""time""
""fullscreenenter"",""1"",""2632""
","
",,451.1,"<p>If you don't make your choice fast enough, you’ll have to wait a few seconds before you can make another one.</p><p>You can’t dig for more gems or travel to new planets. You just have to sit and wait.</p><br><p><img src='run_exp/static/images/task_images/time_out.jpg'  height='600' width='auto'></p><button class=""jspsych-html-btn-unchosen""><img src=""run_exp/static/images/task_images/planet-01.jpg"" height=""50""></button><button class=""jspsych-html-btn-chosen""><img src=""run_exp/static/images/task_images/planet-02.jpg"" height=""50""></button><p><b>[press the space bar to lock in your answer]<b><br></p>",32,,,,,,,,,,,,,,,,,,,,,,,,
instruc_break,21,184506,0.0-9.0-0.0,"""event"",""trial"",""time""
""fullscreenenter"",""1"",""2632""
","
","
","""event"",""trial"",""time""
""fullscreenenter"",""1"",""2632""
","
",,null,run_exp/static/audio/clip_8_break.m4a,null,"<p> After digging and traveling for a while, you’ll be able to take a break at home base. </p><p>The game will last 20 minutes no matter what.</p><p>You will visit home base every 5 minutes, so, you will visit home base three times during the game.</p><br><p><img src='run_exp/static/images/task_images/home_base.jpg' height='600' width='auto'></p>",,,,,,,,,,,,,,,,,,,,,,,
instruc_break,22,200331,0.0-9.0-1.0,"""event"",""trial"",""time""
""fullscreenenter"",""1"",""2632""
","
","
","""event"",""trial"",""time""
""fullscreenenter"",""1"",""2632""
","
",,15821.7,"<p> After digging and traveling for a while, you’ll be able to take a break at home base. </p><p>The game will last 20 minutes no matter what.</p><p>You will visit home base every 5 minutes, so, you will visit home base three times during the game.</p><br><p><img src='run_exp/static/images/task_images/home_base.jpg' height='600' width='auto'></p>",,,,,,,1,,,,,,,,,,,,,,,,,,
html-keyboard-response,23,200518,0.0-9.0-2.0,"""event"",""trial"",""time""
""fullscreenenter"",""1"",""2632""
","
","
","""event"",""trial"",""time""
""fullscreenenter"",""1"",""2632""
","
",,185.4,"<p> After digging and traveling for a while, you’ll be able to take a break at home base. </p><p>The game will last 20 minutes no matter what.</p><p>You will visit home base every 5 minutes, so, you will visit home base three times during the game.</p><br><p><img src='run_exp/static/images/task_images/home_base.jpg' height='600' width='auto'></p><button class=""jspsych-html-btn-unchosen""><img src=""run_exp/static/images/task_images/planet-01.jpg"" height=""50""></button><button class=""jspsych-html-btn-chosen""><img src=""run_exp/static/images/task_images/planet-02.jpg"" height=""50""></button><p><b>[press the space bar to lock in your answer]<b><br></p>",32,,,,,,,,,,,,,,,,,,,,,,,,
instruc_prac_game,24,210915,0.0-10.0-0.0,"""event"",""trial"",""time""
""fullscreenenter"",""1"",""2632""
","
","
","""event"",""trial"",""time""
""fullscreenenter"",""1"",""2632""
","
",,null,run_exp/static/audio/clip_9_practice.m4a,null,"<p> Are you ready to play a practice game? </p> <p>In this practice game, you'll be digging up barrels of gems. But, in the real game, you'll be digging up the gems themselves. </p>",,,,,,,,,,,,,,,,,,,,,,,
html-button-response,25,231858,0.0-10.0-1.0,"""event"",""trial"",""time""
""fullscreenenter"",""1"",""2632""
","
","
","""event"",""trial"",""time""
""fullscreenenter"",""1"",""2632""
","
",,20942.1,"<p> Are you ready to play a practice game? </p> <p>In this practice game, you'll be digging up barrels of gems. But, in the real game, you'll be digging up the gems themselves. </p>",,,,,,,0,,,,,,,,,,,,,,,,,,
alien_welcome_prac,26,236863,0.0-11.0-0.0,"""event"",""trial"",""time""
""fullscreenenter"",""1"",""2632""
","
","
","""event"",""trial"",""time""
""fullscreenenter"",""1"",""2632""
","
",,null,run_exp/static/images/task_images/aliens/practice_aliens/planet/alien_planet-5.jpg,null,,,,,,,,,,,,,,,,,,,,,,,,
land_prac,27,237380,0.0-11.0-1.0,"""event"",""trial"",""time""
""fullscreenenter"",""1"",""2632""
","
","
","""event"",""trial"",""time""
""fullscreenenter"",""1"",""2632""
","
",,null,run_exp/static/images/task_images/land.jpg,null,,,,,,,100,,,0,,,,,,,,,,,,,,
dig_prac,28,239402,0.0-11.0-2.0,"""event"",""trial"",""time""
""fullscreenenter"",""1"",""2632""
","
","
","""event"",""trial"",""time""
""fullscreenenter"",""1"",""2632""
","
",,,,,,,,,,,,"[{""stimulus"":""run_exp/static/images/task_images/dig.jpg"",""time"":0.39999999944120646},{""stimulus"":""run_exp/static/images/task_images/land.jpg"",""time"":681.5999999996275},{""stimulus"":""run_exp/static/images/task_images/dig.jpg"",""time"":1336.0999999996275}]",[],,,,,,,,,,,,,,,
harvest_prac,29,240409,0.0-11.0-3.0,"""event"",""trial"",""time""
""fullscreenenter"",""1"",""2632""
","
","
","""event"",""trial"",""time""
""fullscreenenter"",""1"",""2632""
","
",,null,run_exp/static/images/task_images/barrel_text.jpg,null,,,,,,,,,,,,,,,,,,,,,,,,
decision_prac,30,242534,0.0-11.0-4.0,"""event"",""trial"",""time""
""fullscreenenter"",""1"",""2632""
","
","
","""event"",""trial"",""time""
""fullscreenenter"",""1"",""2632""
","
",,2124.2,run_exp/static/images/task_images/land.jpg,65,,,,,,,,,,,1,,,,,,,,,,,,,
dig_prac,31,244551,0.0-12.0-0.0,"""event"",""trial"",""time""
""fullscreenenter"",""1"",""2632""
","
","
","""event"",""trial"",""time""
""fullscreenenter"",""1"",""2632""
","
",,,,,,,,,,,,"[{""stimulus"":""run_exp/static/images/task_images/dig.jpg"",""time"":0},{""stimulus"":""run_exp/static/images/task_images/land.jpg"",""time"":668.7000000001863},{""stimulus"":""run_exp/static/images/task_images/dig.jpg"",""time"":1350.7000000001863}]",[],,,,,,,,,,,,,,,
harvest_prac,32,245568,0.0-12.0-1.0,"""event"",""trial"",""time""
""fullscreenenter"",""1"",""2632""
","
","
","""event"",""trial"",""time""
""fullscreenenter"",""1"",""2632""
","
",,null,run_exp/static/images/task_images/barrel_text.jpg,null,,,,,,,,,,,,,,,,,,,,,,,,
decision_prac,33,246312,0.0-12.0-2.0,"""event"",""trial"",""time""
""fullscreenenter"",""1"",""2632""
","
","
","""event"",""trial"",""time""
""fullscreenenter"",""1"",""2632""
","
",,741.8,run_exp/static/images/task_images/land.jpg,65,,,,,,,,,,,2,,,,,,,,,,,,,
dig_prac,34,248333,0.0-13.0-0.0,"""event"",""trial"",""time""
""fullscreenenter"",""1"",""2632""
","
","
","""event"",""trial"",""time""
""fullscreenenter"",""1"",""2632""
","
",,,,,,,,,,,,"[{""stimulus"":""run_exp/static/images/task_images/dig.jpg"",""time"":0.2999999998137355},{""stimulus"":""run_exp/static/images/task_images/land.jpg"",""time"":677.6999999992549},{""stimulus"":""run_exp/static/images/task_images/dig.jpg"",""time"":1350.8999999994412}]",[],,,,,,,,,,,,,,,
harvest_prac,35,249350,0.0-13.0-1.0,"""event"",""trial"",""time""
""fullscreenenter"",""1"",""2632""
","
","
","""event"",""trial"",""time""
""fullscreenenter"",""1"",""2632""
","
",,null,run_exp/static/images/task_images/barrel_text.jpg,null,,,,,,,,,,,,,,,,,,,,,,,,
decision_prac,36,249559,0.0-13.0-2.0,"""event"",""trial"",""time""
""fullscreenenter"",""1"",""2632""
","
","
","""event"",""trial"",""time""
""fullscreenenter"",""1"",""2632""
","
",,208,run_exp/static/images/task_images/land.jpg,65,,,,,,,,,,,3,,,,,,,,,,,,,
dig_prac,37,251579,0.0-14.0-0.0,"""event"",""trial"",""time""
""fullscreenenter"",""1"",""2632""
","
","
","""event"",""trial"",""time""
""fullscreenenter"",""1"",""2632""
","
",,,,,,,,,,,,"[{""stimulus"":""run_exp/static/images/task_images/dig.jpg"",""time"":0.10000000055879354},{""stimulus"":""run_exp/static/images/task_images/land.jpg"",""time"":670.7000000001863},{""stimulus"":""run_exp/static/images/task_images/dig.jpg"",""time"":1346.2000000001863}]",[],,,,,,,,,,,,,,,
harvest_prac,38,252582,0.0-14.0-1.0,"""event"",""trial"",""time""
""fullscreenenter"",""1"",""2632""
","
","
","""event"",""trial"",""time""
""fullscreenenter"",""1"",""2632""
","
",,null,run_exp/static/images/task_images/barrel_text.jpg,null,,,,,,,,,,,,,,,,,,,,,,,,
decision_prac,39,252616,0.0-14.0-2.0,"""event"",""trial"",""time""
""fullscreenenter"",""1"",""2632""
","
","
","""event"",""trial"",""time""
""fullscreenenter"",""1"",""2632""
","
",,32.6,run_exp/static/images/task_images/land.jpg,65,,,,,,,,,,,4,,,,,,,,,,,,,
dig_prac,40,254631,0.0-15.0-0.0,"""event"",""trial"",""time""
""fullscreenenter"",""1"",""2632""
","
","
","""event"",""trial"",""time""
""fullscreenenter"",""1"",""2632""
","
",,,,,,,,,,,,"[{""stimulus"":""run_exp/static/images/task_images/dig.jpg"",""time"":0.30000000074505806},{""stimulus"":""run_exp/static/images/task_images/land.jpg"",""time"":671.1000000005588},{""stimulus"":""run_exp/static/images/task_images/dig.jpg"",""time"":1339.800000000745}]",[],,,,,,,,,,,,,,,
harvest_prac,41,255643,0.0-15.0-1.0,"""event"",""trial"",""time""
""fullscreenenter"",""1"",""2632""
","
","
","""event"",""trial"",""time""
""fullscreenenter"",""1"",""2632""
","
",,null,run_exp/static/images/task_images/barrel_text.jpg,null,,,,,,,,,,,,,,,,,,,,,,,,
decision_prac,42,255928,0.0-15.0-2.0,"""event"",""trial"",""time""
""fullscreenenter"",""1"",""2632""
","
","
","""event"",""trial"",""time""
""fullscreenenter"",""1"",""2632""
","
",,283.1,run_exp/static/images/task_images/land.jpg,65,,,,,,,,,,,,1,,,,,,,,,,,,
quiz_instruc,43,260331,0.0-16.0-0.0,"""event"",""trial"",""time""
""fullscreenenter"",""1"",""2632""
","
","
","""event"",""trial"",""time""
""fullscreenenter"",""1"",""2632""
","
",,4397.8,run_exp/static/audio/clip_10_quiz.m4a,,,,,,,0,,,,,,,,,,,,,,,,,,
instruc_repeat,44,303145,0.0-16.0-1.0,"""event"",""trial"",""time""
""fullscreenenter"",""1"",""2632""
","
","
","""event"",""trial"",""time""
""fullscreenenter"",""1"",""2632""
","
",,null,"<p> Are you ready to play a practice game? </p> <p>In this practice game, you'll be digging up barrels of gems. But, in the real game, you'll be digging up the gems themselves. </p>",null,"<p>In this game, your goal is to collect as many gems as you can. That’s how you will win bonus money. </p> <p>The entire game will last 20 minutes no matter how many gems you collect or how many planets you visit. </p><p>To stay on a planet and dig again, press the letter A on your keyboard. To leave for a new planet, press the letter L.</p><p>The more you dig on a planet, the fewer gems you’ll get with each dig which is why you might consider leaving for a new planet. </p><p>When you arrive at a new planet, you’ll be greeted by an alien. What the alien looks like does not tell you anything about how much treasure is on the planet. </p>",,,,,,,,,,,,,,,,,,,,,,,
instruc_repeat_continue,45,308759,0.0-16.0-2.0,"""event"",""trial"",""time""
""fullscreenenter"",""1"",""2632""
","
","
","""event"",""trial"",""time""
""fullscreenenter"",""1"",""2632""
","
",,5611.6,"<p> Are you ready to play a practice game? </p> <p>In this practice game, you'll be digging up barrels of gems. But, in the real game, you'll be digging up the gems themselves. </p>",,,,,,,0,,,,,,,,,,,,,,,,,,
quiz_q_1_ask,46,312211,0.0-16.0-3.0,"""event"",""trial"",""time""
""fullscreenenter"",""1"",""2632""
","
","
","""event"",""trial"",""time""
""fullscreenenter"",""1"",""2632""
","
",,3450.5,run_exp/static/audio/clip_11_q1_ask.m4a,,,,,,,2,,,,,,,,,,,,,,,,,,
quiz_q_1_fb_correct,47,316124,0.0-17.0-0.0,"""event"",""trial"",""time""
""fullscreenenter"",""1"",""2632""
","
","
","""event"",""trial"",""time""
""fullscreenenter"",""1"",""2632""
","
",,null,run_exp/static/audio/clip_12_q1_correct.m4a,null,<p>That’s correct. You win extra money by collecting more gems.</p>,,,,,,,,,,,,,,,,,,,,,,,
quiz_q_2_ask,48,318409,0.0-17.0-1.0,"""event"",""trial"",""time""
""fullscreenenter"",""1"",""2632""
","
","
","""event"",""trial"",""time""
""fullscreenenter"",""1"",""2632""
","
",,2281.2,run_exp/static/audio/clip_14_q2_ask.m4a,,,,,,,1,,,,,,,,,,,,,,,,,,
quiz_q_2_fb_correct,49,322445,0.0-18.0-0.0,"""event"",""trial"",""time""
""fullscreenenter"",""1"",""2632""
","
","
","""event"",""trial"",""time""
""fullscreenenter"",""1"",""2632""
","
",,null,run_exp/static/audio/clip_15_q2_correct.m4a,null,<p>That’s correct. The experiment is 20 minutes no matter what.</p>,,,,,,,,,,,,,,,,,,,,,,,
quiz_q_3_ask,50,324419,0.0-18.0-1.0,"""event"",""trial"",""time""
""fullscreenenter"",""1"",""2632""
","
","
","""event"",""trial"",""time""
""fullscreenenter"",""1"",""2632""
","
",,1971.9,run_exp/static/audio/clip_17_q3_ask.m4a,,,,,,,1,,,,,,,,,,,,,,,,,,
quiz_q_3_fb_correct,51,328445,0.0-19.0-0.0,"""event"",""trial"",""time""
""fullscreenenter"",""1"",""2632""
","
","
","""event"",""trial"",""time""
""fullscreenenter"",""1"",""2632""
","
",,null,run_exp/static/audio/clip_18_q3_correct.m4a,null,<p> That’s correct. You press the letter L to travel to a new planet.</p>,,,,,,,,,,,,,,,,,,,,,,,
quiz_q_4_ask,52,332300,0.0-19.0-1.0,"""event"",""trial"",""time""
""fullscreenenter"",""1"",""2632""
","
","
","""event"",""trial"",""time""
""fullscreenenter"",""1"",""2632""
","
",,3853.1,run_exp/static/audio/clip_20_q4_ask.m4a,,,,,,,0,,,,,,,,,,,,,,,,,,
quiz_q_4_fb_correct,53,337664,0.0-20.0-0.0,"""event"",""trial"",""time""
""fullscreenenter"",""1"",""2632""
","
","
","""event"",""trial"",""time""
""fullscreenenter"",""1"",""2632""
","
",,null,run_exp/static/audio/clip_21_q4_correct.m4a,null,<p> That’s correct. The more you dig on a planet the fewer gems you’ll get with each dig. </p>,,,,,,,,,,,,,,,,,,,,,,,
quiz_q_5_ask,54,339684,0.0-20.0-1.0,"""event"",""trial"",""time""
""fullscreenenter"",""1"",""2632""
","
","
","""event"",""trial"",""time""
""fullscreenenter"",""1"",""2632""
","
",,2017.9,run_exp/static/audio/clip_23_q5_ask.m4a,,,,,,,1,,,,,,,,,,,,,,,,,,
quiz_q_5_fb_correct,55,344744,0.0-21.0-0.0,"""event"",""trial"",""time""
""fullscreenenter"",""1"",""2632""
","
","
","""event"",""trial"",""time""
""fullscreenenter"",""1"",""2632""
","
",,null,run_exp/static/audio/clip_24_q5_correct.m4a,null,<p> That’s correct. The alien tells you nothing about how much treasure is on the planet.</p>,,,,,,,,,,,,,,,,,,,,,,,
quiz_correct,56,348264,0.0-22.0-0.0,"""event"",""trial"",""time""
""fullscreenenter"",""1"",""2632""
","
","
","""event"",""trial"",""time""
""fullscreenenter"",""1"",""2632""
","
",,null,run_exp/static/audio/clip_26_correct_quiz.m4a,null,,,,,,,,,,,,,,,,,,,,,,,,
quiz_correct_continue,57,349517,0.0-22.0-1.0,"""event"",""trial"",""time""
""fullscreenenter"",""1"",""2632""
","
","
","""event"",""trial"",""time""
""fullscreenenter"",""1"",""2632""
","
",,1251.4,<p>Good job! You're now ready to move on to the real game!</p>,,,,,,,0,,,,,,,,,,,,,,,,,,
audio-keyboard-response,58,359684,0.0-22.0-2.0,"""event"",""trial"",""time""
""fullscreenenter"",""1"",""2632""
","
","
","""event"",""trial"",""time""
""fullscreenenter"",""1"",""2632""
","
",,null,run_exp/static/audio/clip_28_real_game.m4a,null,,,,,,,,,,,,,,,,,,,,,,,,
instruc_begin_exp_contine,59,361670,0.0-22.0-3.0,"""event"",""trial"",""time""
""fullscreenenter"",""1"",""2632""
","
","
","""event"",""trial"",""time""
""fullscreenenter"",""1"",""2632""
","
",,1984,"<p>Now that you know how  to dig for space treasure and travel to new planets,you can start exploring! </p><p>Do you want to go over the instructions again or get started with the real game?</p>",,,,,,,1,,,,,,1,,,,,,,,,,,,
alien_welcome,60,366673,0.0-23.0-0.0,"""event"",""trial"",""time""
""fullscreenenter"",""1"",""2632""
","
","
","""event"",""trial"",""time""
""fullscreenenter"",""1"",""2632""
","
",,null,run_exp/static/images/task_images/aliens/old_aliens/planet/alien_planet-14.jpg,null,,,,,,,,,,,,,14,"14,40,78,5,16,45,26,73,63,43,33,44,18,53,75,46,34,30,13,66,58,31,56,29,62,39,70,9,12,57,68,77,1,49,27,23,35,37,47,32",,,,,,,,,,
land,61,367177,0.0-23.0-1.0,"""event"",""trial"",""time""
""fullscreenenter"",""1"",""2632""
","
","
","""event"",""trial"",""time""
""fullscreenenter"",""1"",""2632""
","
",,null,run_exp/static/images/task_images/land.jpg,null,,,,,,,86,,,1,,,,,,,,,,,,,,
dig,62,369188,0.0-23.0-2.0,"""event"",""trial"",""time""
""fullscreenenter"",""1"",""2632""
","
","
","""event"",""trial"",""time""
""fullscreenenter"",""1"",""2632""
","
",,,,,,,,,,,,"[{""stimulus"":""run_exp/static/images/task_images/dig.jpg"",""time"":0.39999999944120646},{""stimulus"":""run_exp/static/images/task_images/land.jpg"",""time"":679.5},{""stimulus"":""run_exp/static/images/task_images/dig.jpg"",""time"":1337.8999999994412}]",[],1,,,,,,,,,,,,,,
harvest,63,370190,0.0-23.0-3.0,"""event"",""trial"",""time""
""fullscreenenter"",""1"",""2632""
","
","
","""event"",""trial"",""time""
""fullscreenenter"",""1"",""2632""
","
",,null,run_exp/static/images/task_images/gems/86.jpg,null,,,,,,,17,,,1,,,,,86,0.193934956,0.197674419,,,,,,,
decision,64,370913,0.0-23.0-4.0,"""event"",""trial"",""time""
""fullscreenenter"",""1"",""2632""
","
","
","""event"",""trial"",""time""
""fullscreenenter"",""1"",""2632""
","
",,719.6,run_exp/static/images/task_images/land.jpg,65,,,,,,,17,,,1,,,,,,,,9243,1,0,FALSE,,,
dig,65,373206,0.0-24.0-0.0,"""event"",""trial"",""time""
""fullscreenenter"",""1"",""2632""
","
","
","""event"",""trial"",""time""
""fullscreenenter"",""1"",""2632""
","
",,,,,,,,,,,,"[{""stimulus"":""run_exp/static/images/task_images/dig.jpg"",""time"":0.40000000037252903},{""stimulus"":""run_exp/static/images/task_images/land.jpg"",""time"":770.2999999998137},{""stimulus"":""run_exp/static/images/task_images/dig.jpg"",""time"":1522.5999999996275}]",[],1,,,,,,,,,,,,,,
harvest,66,374208,0.0-24.0-1.0,"""event"",""trial"",""time""
""fullscreenenter"",""1"",""2632""
","
","
","""event"",""trial"",""time""
""fullscreenenter"",""1"",""2632""
","
",,null,run_exp/static/images/task_images/gems/17.jpg,null,,,,,,,5,,,1,,,,,17,0.277573799,0.294117647,,,,,,,
decision,67,374450,0.0-24.0-2.0,"""event"",""trial"",""time""
""fullscreenenter"",""1"",""2632""
","
","
","""event"",""trial"",""time""
""fullscreenenter"",""1"",""2632""
","
",,240.3,run_exp/static/images/task_images/land.jpg,65,,,,,,,5,,,1,,,,,,,,12779,1,1,FALSE,,,
dig,68,377221,0.0-25.0-0.0,"""event"",""trial"",""time""
""fullscreenenter"",""1"",""2632""
","
","
","""event"",""trial"",""time""
""fullscreenenter"",""1"",""2632""
","
",,,,,,,,,,,,"[{""stimulus"":""run_exp/static/images/task_images/dig.jpg"",""time"":0.09999999962747097},{""stimulus"":""run_exp/static/images/task_images/land.jpg"",""time"":920.2999999998137},{""stimulus"":""run_exp/static/images/task_images/dig.jpg"",""time"":1853.0999999996275}]",[],1,,,,,,,,,,,,,,
harvest,69,378233,0.0-25.0-1.0,"""event"",""trial"",""time""
""fullscreenenter"",""1"",""2632""
","
","
","""event"",""trial"",""time""
""fullscreenenter"",""1"",""2632""
","
",,null,run_exp/static/images/task_images/gems/5.jpg,null,,,,,,,1,,,1,,,,,5,0.217673347,0.2,,,,,,,
decision,70,378368,0.0-25.0-2.0,"""event"",""trial"",""time""
""fullscreenenter"",""1"",""2632""
","
","
","""event"",""trial"",""time""
""fullscreenenter"",""1"",""2632""
","
",,132.4,run_exp/static/images/task_images/land.jpg,76,,,,,,,1,,,1,,,,,,,,16697,1,2,TRUE,,,
travel,71,388255,0.0-26.0-0.0,"""event"",""trial"",""time""
""fullscreenenter"",""1"",""2632""
","
","
","""event"",""trial"",""time""
""fullscreenenter"",""1"",""2632""
","
",,,,,,,,,,,,"[{""stimulus"":""run_exp/static/images/task_images/rocket-01.jpg"",""time"":0.40000000037252903},{""stimulus"":""run_exp/static/images/task_images/rocket-02.jpg"",""time"":1098.1000000005588},{""stimulus"":""run_exp/static/images/task_images/rocket-03.jpg"",""time"":2198.5},{""stimulus"":""run_exp/static/images/task_images/rocket-04.jpg"",""time"":3301.5},{""stimulus"":""run_exp/static/images/task_images/rocket-05.jpg"",""time"":4399.4000000003725},{""stimulus"":""run_exp/static/images/task_images/rocket-06.jpg"",""time"":5497.800000000745},{""stimulus"":""run_exp/static/images/task_images/rocket-07.jpg"",""time"":6580.5},{""stimulus"":""run_exp/static/images/task_images/rocket-08.jpg"",""time"":7685.700000000186},{""stimulus"":""run_exp/static/images/task_images/rocket-09.jpg"",""time"":8782.100000000559}]",[],1,,,,,,,,,,,,,,
alien_welcome,72,393262,0.0-26.0-1.0,"""event"",""trial"",""time""
""fullscreenenter"",""1"",""2632""
","
","
","""event"",""trial"",""time""
""fullscreenenter"",""1"",""2632""
","
",,null,run_exp/static/images/task_images/aliens/old_aliens/planet/alien_planet-40.jpg,null,,,,,,,,,,,,,40,"14,40,78,5,16,45,26,73,63,43,33,44,18,53,75,46,34,30,13,66,58,31,56,29,62,39,70,9,12,57,68,77,1,49,27,23,35,37,47,32",,,,,,,,,,
land,73,393773,0.0-26.0-2.0,"""event"",""trial"",""time""
""fullscreenenter"",""1"",""2632""
","
","
","""event"",""trial"",""time""
""fullscreenenter"",""1"",""2632""
","
",,null,run_exp/static/images/task_images/land.jpg,null,,,,,,,106,,,2,,,,,,,,,,,,,,
dig,74,395786,0.0-26.0-3.0,"""event"",""trial"",""time""
""fullscreenenter"",""1"",""2632""
","
","
","""event"",""trial"",""time""
""fullscreenenter"",""1"",""2632""
","
",,,,,,,,,,,,"[{""stimulus"":""run_exp/static/images/task_images/dig.jpg"",""time"":0.09999999962747097},{""stimulus"":""run_exp/static/images/task_images/land.jpg"",""time"":684.2000000001863},{""stimulus"":""run_exp/static/images/task_images/dig.jpg"",""time"":1346.0999999996275}]",[],2,,,,,,,,,,,,,,
harvest,75,396790,0.0-26.0-4.0,"""event"",""trial"",""time""
""fullscreenenter"",""1"",""2632""
","
","
","""event"",""trial"",""time""
""fullscreenenter"",""1"",""2632""
","
",,null,run_exp/static/images/task_images/gems/106.jpg,null,,,,,,,13,,,2,,,,,106,0.119994033,0.122641509,,,,,,,
decision,76,398319,0.0-26.0-5.0,"""event"",""trial"",""time""
""fullscreenenter"",""1"",""2632""
","
","
","""event"",""trial"",""time""
""fullscreenenter"",""1"",""2632""
","
",,1526.1,run_exp/static/images/task_images/land.jpg,65,,,,,,,13,,,2,,,,,,,,36648,1,0,FALSE,,,
dig,77,399806,0.0-27.0-0.0,"""event"",""trial"",""time""
""fullscreenenter"",""1"",""2632""
","
","
","""event"",""trial"",""time""
""fullscreenenter"",""1"",""2632""
","
",,,,,,,,,,,,"[{""stimulus"":""run_exp/static/images/task_images/dig.jpg"",""time"":0.40000000037252903},{""stimulus"":""run_exp/static/images/task_images/land.jpg"",""time"":501.70000000018626},{""stimulus"":""run_exp/static/images/task_images/dig.jpg"",""time"":985.7000000001863}]",[],2,,,,,,,,,,,,,,
harvest,78,400822,0.0-27.0-1.0,"""event"",""trial"",""time""
""fullscreenenter"",""1"",""2632""
","
","
","""event"",""trial"",""time""
""fullscreenenter"",""1"",""2632""
","
",,null,run_exp/static/images/task_images/gems/13.jpg,null,,,,,,,4,,,2,,,,,13,0.314904542,0.307692308,,,,,,,
decision,79,401514,0.0-27.0-2.0,"""event"",""trial"",""time""
""fullscreenenter"",""1"",""2632""
","
","
","""event"",""trial"",""time""
""fullscreenenter"",""1"",""2632""
","
",,690,run_exp/static/images/task_images/land.jpg,65,,,,,,,4,,,2,,,,,,,,39843,1,1,FALSE,,,
dig,80,403839,0.0-28.0-0.0,"""event"",""trial"",""time""
""fullscreenenter"",""1"",""2632""
","
","
","""event"",""trial"",""time""
""fullscreenenter"",""1"",""2632""
","
",,,,,,,,,,,,"[{""stimulus"":""run_exp/static/images/task_images/dig.jpg"",""time"":0},{""stimulus"":""run_exp/static/images/task_images/land.jpg"",""time"":770.7000000001863},{""stimulus"":""run_exp/static/images/task_images/dig.jpg"",""time"":1555.4000000003725}]",[],2,,,,,,,,,,,,,,
harvest,81,404856,0.0-28.0-1.0,"""event"",""trial"",""time""
""fullscreenenter"",""1"",""2632""
","
","
","""event"",""trial"",""time""
""fullscreenenter"",""1"",""2632""
","
",,null,run_exp/static/images/task_images/gems/4.jpg,null,,,,,,,1,,,2,,,,,4,0.237314402,0.25,,,,,,,
decision,82,407868,0.0-28.0-2.0,"""event"",""trial"",""time""
""fullscreenenter"",""1"",""2632""
","
","
","""event"",""trial"",""time""
""fullscreenenter"",""1"",""2632""
","
",,null,run_exp/static/images/task_images/land.jpg,null,,,,,,,1,,,2,,,,,,,,46197,1,2,FALSE,,,
time_out,83,409873,0.0-29.0-0.0,"""event"",""trial"",""time""
""fullscreenenter"",""1"",""2632""
","
","
","""event"",""trial"",""time""
""fullscreenenter"",""1"",""2632""
","
",,null,run_exp/static/images/task_images/time_out.jpg,null,,,,,,,1,,,,,,,,,,,,,,,,,
decision,84,411192,0.0-29.0-1.0,"""event"",""trial"",""time""
""fullscreenenter"",""1"",""2632""
","
","
","""event"",""trial"",""time""
""fullscreenenter"",""1"",""2632""
","
",,1317.7,run_exp/static/images/task_images/land.jpg,65,,,,,,,1,,,2,,,,,,,,49521,1,2,FALSE,,,
dig,85,412888,0.0-30.0-0.0,"""event"",""trial"",""time""
""fullscreenenter"",""1"",""2632""
","
","
","""event"",""trial"",""time""
""fullscreenenter"",""1"",""2632""
","
",,,,,,,,,,,,"[{""stimulus"":""run_exp/static/images/task_images/dig.jpg"",""time"":0.10000000055879354},{""stimulus"":""run_exp/static/images/task_images/land.jpg"",""time"":561.2000000001863},{""stimulus"":""run_exp/static/images/task_images/dig.jpg"",""time"":1128.800000000745}]",[],2,,,,,,,,,,,,,,
harvest,86,413891,0.0-30.0-1.0,"""event"",""trial"",""time""
""fullscreenenter"",""1"",""2632""
","
","
","""event"",""trial"",""time""
""fullscreenenter"",""1"",""2632""
","
",,null,run_exp/static/images/task_images/gems/1.jpg,null,,,,,,,0,,,2,,,,,1,0.383250326,0,,,,,,,
decision,87,414543,0.0-30.0-2.0,"""event"",""trial"",""time""
""fullscreenenter"",""1"",""2632""
","
","
","""event"",""trial"",""time""
""fullscreenenter"",""1"",""2632""
","
",,649,run_exp/static/images/task_images/land.jpg,76,,,,,,,0,,,2,,,,,,,,52872,1,3,TRUE,,,
travel,88,423905,0.0-31.0-0.0,"""event"",""trial"",""time""
""fullscreenenter"",""1"",""2632""
","
","
","""event"",""trial"",""time""
""fullscreenenter"",""1"",""2632""
","
",,,,,,,,,,,,"[{""stimulus"":""run_exp/static/images/task_images/rocket-01.jpg"",""time"":0.09999999962747097},{""stimulus"":""run_exp/static/images/task_images/rocket-02.jpg"",""time"":1048.7000000001863},{""stimulus"":""run_exp/static/images/task_images/rocket-03.jpg"",""time"":2089.2999999998137},{""stimulus"":""run_exp/static/images/task_images/rocket-04.jpg"",""time"":3124.2999999998137},{""stimulus"":""run_exp/static/images/task_images/rocket-05.jpg"",""time"":4158.700000000186},{""stimulus"":""run_exp/static/images/task_images/rocket-06.jpg"",""time"":5207.200000000186},{""stimulus"":""run_exp/static/images/task_images/rocket-07.jpg"",""time"":6245.200000000186},{""stimulus"":""run_exp/static/images/task_images/rocket-08.jpg"",""time"":7278.5},{""stimulus"":""run_exp/static/images/task_images/rocket-09.jpg"",""time"":8313.299999999814}]",[],2,,,,,,,,,,,,,,
alien_welcome,89,428908,0.0-31.0-1.0,"""event"",""trial"",""time""
""fullscreenenter"",""1"",""2632""
","
","
","""event"",""trial"",""time""
""fullscreenenter"",""1"",""2632""
","
",,null,run_exp/static/images/task_images/aliens/old_aliens/planet/alien_planet-78.jpg,null,,,,,,,,,,,,,78,"14,40,78,5,16,45,26,73,63,43,33,44,18,53,75,46,34,30,13,66,58,31,56,29,62,39,70,9,12,57,68,77,1,49,27,23,35,37,47,32",,,,,,,,,,
land,90,429425,0.0-31.0-2.0,"""event"",""trial"",""time""
""fullscreenenter"",""1"",""2632""
","
","
","""event"",""trial"",""time""
""fullscreenenter"",""1"",""2632""
","
",,null,run_exp/static/images/task_images/land.jpg,null,,,,,,,95,,,3,,,,,,,,,,,,,,
dig,91,431438,0.0-31.0-3.0,"""event"",""trial"",""time""
""fullscreenenter"",""1"",""2632""
","
","
","""event"",""trial"",""time""
""fullscreenenter"",""1"",""2632""
","
",,,,,,,,,,,,"[{""stimulus"":""run_exp/static/images/task_images/dig.jpg"",""time"":0.2999999998137355},{""stimulus"":""run_exp/static/images/task_images/land.jpg"",""time"":678.1000000005588},{""stimulus"":""run_exp/static/images/task_images/dig.jpg"",""time"":1347}]",[],3,,,,,,,,,,,,,,
harvest,92,432439,0.0-31.0-4.0,"""event"",""trial"",""time""
""fullscreenenter"",""1"",""2632""
","
","
","""event"",""trial"",""time""
""fullscreenenter"",""1"",""2632""
","
",,null,run_exp/static/images/task_images/gems/95.jpg,null,,,,,,,52,,,3,,,,,95,0.547548148,0.547368421,,,,,,,
decision,93,433504,0.0-31.0-5.0,"""event"",""trial"",""time""
""fullscreenenter"",""1"",""2632""
","
","
","""event"",""trial"",""time""
""fullscreenenter"",""1"",""2632""
","
",,1064,run_exp/static/images/task_images/land.jpg,76,,,,,,,52,,,3,,,,,,,,71833,1,0,TRUE,,,
travel,94,442438,0.0-32.0-0.0,"""event"",""trial"",""time""
""fullscreenenter"",""1"",""2632""
","
","
","""event"",""trial"",""time""
""fullscreenenter"",""1"",""2632""
","
",,,,,,,,,,,,"[{""stimulus"":""run_exp/static/images/task_images/rocket-01.jpg"",""time"":0.40000000037252903},{""stimulus"":""run_exp/static/images/task_images/rocket-02.jpg"",""time"":994.2000000001863},{""stimulus"":""run_exp/static/images/task_images/rocket-03.jpg"",""time"":1997.7000000001863},{""stimulus"":""run_exp/static/images/task_images/rocket-04.jpg"",""time"":2980.100000000559},{""stimulus"":""run_exp/static/images/task_images/rocket-05.jpg"",""time"":3980},{""stimulus"":""run_exp/static/images/task_images/rocket-06.jpg"",""time"":4963.100000000559},{""stimulus"":""run_exp/static/images/task_images/rocket-07.jpg"",""time"":5963.200000000186},{""stimulus"":""run_exp/static/images/task_images/rocket-08.jpg"",""time"":6947.600000000559},{""stimulus"":""run_exp/static/images/task_images/rocket-09.jpg"",""time"":7943.200000000186}]",[],3,,,,,,,,,,,,,,
alien_welcome,95,447452,0.0-32.0-1.0,"""event"",""trial"",""time""
""fullscreenenter"",""1"",""2632""
","
","
","""event"",""trial"",""time""
""fullscreenenter"",""1"",""2632""
","
",,null,run_exp/static/images/task_images/aliens/old_aliens/planet/alien_planet-5.jpg,null,,,,,,,,,,,,,5,"14,40,78,5,16,45,26,73,63,43,33,44,18,53,75,46,34,30,13,66,58,31,56,29,62,39,70,9,12,57,68,77,1,49,27,23,35,37,47,32",,,,,,,,,,
land,96,447972,0.0-32.0-2.0,"""event"",""trial"",""time""
""fullscreenenter"",""1"",""2632""
","
","
","""event"",""trial"",""time""
""fullscreenenter"",""1"",""2632""
","
",,null,run_exp/static/images/task_images/land.jpg,null,,,,,,,94,,,4,,,,,,,,,,,,,,
dig,97,449988,0.0-32.0-3.0,"""event"",""trial"",""time""
""fullscreenenter"",""1"",""2632""
","
","
","""event"",""trial"",""time""
""fullscreenenter"",""1"",""2632""
","
",,,,,,,,,,,,"[{""stimulus"":""run_exp/static/images/task_images/dig.jpg"",""time"":0.5},{""stimulus"":""run_exp/static/images/task_images/land.jpg"",""time"":677.2000000001863},{""stimulus"":""run_exp/static/images/task_images/dig.jpg"",""time"":1350.6000000005588}]",[],4,,,,,,,,,,,,,,
harvest,98,451005,0.0-32.0-4.0,"""event"",""trial"",""time""
""fullscreenenter"",""1"",""2632""
","
","
","""event"",""trial"",""time""
""fullscreenenter"",""1"",""2632""
","
",,null,run_exp/static/images/task_images/gems/94.jpg,null,,,,,,,52,,,4,,,,,94,0.558007913,0.553191489,,,,,,,
decision,99,451512,0.0-32.0-5.0,"""event"",""trial"",""time""
""fullscreenenter"",""1"",""2632""
","
","
","""event"",""trial"",""time""
""fullscreenenter"",""1"",""2632""
","
",,504.5,run_exp/static/images/task_images/land.jpg,65,,,,,,,52,,,4,,,,,,,,89841,1,0,FALSE,,,
dig,100,454019,0.0-33.0-0.0,"""event"",""trial"",""time""
""fullscreenenter"",""1"",""2632""
","
","
","""event"",""trial"",""time""
""fullscreenenter"",""1"",""2632""
","
",,,,,,,,,,,,"[{""stimulus"":""run_exp/static/images/task_images/dig.jpg"",""time"":0.39999999944120646},{""stimulus"":""run_exp/static/images/task_images/land.jpg"",""time"":833.3999999994412},{""stimulus"":""run_exp/static/images/task_images/dig.jpg"",""time"":1666.2999999998137}]",[],4,,,,,,,,,,,,,,
harvest,101,455035,0.0-33.0-1.0,"""event"",""trial"",""time""
""fullscreenenter"",""1"",""2632""
","
","
","""event"",""trial"",""time""
""fullscreenenter"",""1"",""2632""
","
",,null,run_exp/static/images/task_images/gems/52.jpg,null,,,,,,,24,,,4,,,,,52,0.464283878,0.461538462,,,,,,,
decision,102,456080,0.0-33.0-2.0,"""event"",""trial"",""time""
""fullscreenenter"",""1"",""2632""
","
","
","""event"",""trial"",""time""
""fullscreenenter"",""1"",""2632""
","
",,1042.3,run_exp/static/images/task_images/land.jpg,65,,,,,,,24,,,4,,,,,,,,94409,1,1,FALSE,,,
dig,103,458053,0.0-34.0-0.0,"""event"",""trial"",""time""
""fullscreenenter"",""1"",""2632""
","
","
","""event"",""trial"",""time""
""fullscreenenter"",""1"",""2632""
","
",,,,,,,,,,,,"[{""stimulus"":""run_exp/static/images/task_images/dig.jpg"",""time"":0.39999999944120646},{""stimulus"":""run_exp/static/images/task_images/land.jpg"",""time"":668.5},{""stimulus"":""run_exp/static/images/task_images/dig.jpg"",""time"":1306.8999999994412}]",[],4,,,,,,,,,,,,,,
harvest,104,459070,0.0-34.0-1.0,"""event"",""trial"",""time""
""fullscreenenter"",""1"",""2632""
","
","
","""event"",""trial"",""time""
""fullscreenenter"",""1"",""2632""
","
",,null,run_exp/static/images/task_images/gems/24.jpg,null,,,,,,,12,,,4,,,,,24,0.486496514,0.5,,,,,,,
decision,105,459656,0.0-34.0-2.0,"""event"",""trial"",""time""
""fullscreenenter"",""1"",""2632""
","
","
","""event"",""trial"",""time""
""fullscreenenter"",""1"",""2632""
","
",,585,run_exp/static/images/task_images/land.jpg,65,,,,,,,12,,,4,,,,,,,,97985,1,2,FALSE,,,
dig,106,462084,0.0-35.0-0.0,"""event"",""trial"",""time""
""fullscreenenter"",""1"",""2632""
","
","
","""event"",""trial"",""time""
""fullscreenenter"",""1"",""2632""
","
",,,,,,,,,,,,"[{""stimulus"":""run_exp/static/images/task_images/dig.jpg"",""time"":0.2999999998137355},{""stimulus"":""run_exp/static/images/task_images/land.jpg"",""time"":806.7999999998137},{""stimulus"":""run_exp/static/images/task_images/dig.jpg"",""time"":1625.3999999994412}]",[],4,,,,,,,,,,,,,,
harvest,107,463087,0.0-35.0-1.0,"""event"",""trial"",""time""
""fullscreenenter"",""1"",""2632""
","
","
","""event"",""trial"",""time""
""fullscreenenter"",""1"",""2632""
","
",,null,run_exp/static/images/task_images/gems/12.jpg,null,,,,,,,6,,,4,,,,,12,0.536727608,0.5,,,,,,,
decision,108,463376,0.0-35.0-2.0,"""event"",""trial"",""time""
""fullscreenenter"",""1"",""2632""
","
","
","""event"",""trial"",""time""
""fullscreenenter"",""1"",""2632""
","
",,287.7,run_exp/static/images/task_images/land.jpg,65,,,,,,,6,,,4,,,,,,,,101705,1,3,FALSE,,,
dig,109,466101,0.0-36.0-0.0,"""event"",""trial"",""time""
""fullscreenenter"",""1"",""2632""
","
","
","""event"",""trial"",""time""
""fullscreenenter"",""1"",""2632""
","
",,,,,,,,,,,,"[{""stimulus"":""run_exp/static/images/task_images/dig.jpg"",""time"":0.19999999925494194},{""stimulus"":""run_exp/static/images/task_images/land.jpg"",""time"":908.2999999998137},{""stimulus"":""run_exp/static/images/task_images/dig.jpg"",""time"":1822.5}]",[],4,,,,,,,,,,,,,,
harvest,110,467114,0.0-36.0-1.0,"""event"",""trial"",""time""
""fullscreenenter"",""1"",""2632""
","
","
","""event"",""trial"",""time""
""fullscreenenter"",""1"",""2632""
","
",,null,run_exp/static/images/task_images/gems/6.jpg,null,,,,,,,3,,,4,,,,,6,0.493132947,0.5,,,,,,,
decision,111,467248,0.0-36.0-2.0,"""event"",""trial"",""time""
""fullscreenenter"",""1"",""2632""
","
","
","""event"",""trial"",""time""
""fullscreenenter"",""1"",""2632""
","
",,132,run_exp/static/images/task_images/land.jpg,76,,,,,,,3,,,4,,,,,,,,105577,1,4,TRUE,,,
travel,112,477120,0.0-37.0-0.0,"""event"",""trial"",""time""
""fullscreenenter"",""1"",""2632""
","
","
","""event"",""trial"",""time""
""fullscreenenter"",""1"",""2632""
","
",,,,,,,,,,,,"[{""stimulus"":""run_exp/static/images/task_images/rocket-01.jpg"",""time"":0.10000000055879354},{""stimulus"":""run_exp/static/images/task_images/rocket-02.jpg"",""time"":1099.7000000001863},{""stimulus"":""run_exp/static/images/task_images/rocket-03.jpg"",""time"":2201.100000000559},{""stimulus"":""run_exp/static/images/task_images/rocket-04.jpg"",""time"":3300},{""stimulus"":""run_exp/static/images/task_images/rocket-05.jpg"",""time"":4400.100000000559},{""stimulus"":""run_exp/static/images/task_images/rocket-06.jpg"",""time"":5484.5},{""stimulus"":""run_exp/static/images/task_images/rocket-07.jpg"",""time"":6580.600000000559},{""stimulus"":""run_exp/static/images/task_images/rocket-08.jpg"",""time"":7686.100000000559},{""stimulus"":""run_exp/static/images/task_images/rocket-09.jpg"",""time"":8781.700000000186}]",[],4,,,,,,,,,,,,,,
alien_welcome,113,482137,0.0-37.0-1.0,"""event"",""trial"",""time""
""fullscreenenter"",""1"",""2632""
","
","
","""event"",""trial"",""time""
""fullscreenenter"",""1"",""2632""
","
",,null,run_exp/static/images/task_images/aliens/old_aliens/planet/alien_planet-16.jpg,null,,,,,,,,,,,,,16,"14,40,78,5,16,45,26,73,63,43,33,44,18,53,75,46,34,30,13,66,58,31,56,29,62,39,70,9,12,57,68,77,1,49,27,23,35,37,47,32",,,,,,,,,,
land,114,482653,0.0-37.0-2.0,"""event"",""trial"",""time""
""fullscreenenter"",""1"",""2632""
","
","
","""event"",""trial"",""time""
""fullscreenenter"",""1"",""2632""
","
",,null,run_exp/static/images/task_images/land.jpg,null,,,,,,,110,,,5,,,,,,,,,,,,,,
dig,115,484668,0.0-37.0-3.0,"""event"",""trial"",""time""
""fullscreenenter"",""1"",""2632""
","
","
","""event"",""trial"",""time""
""fullscreenenter"",""1"",""2632""
","
",,,,,,,,,,,,"[{""stimulus"":""run_exp/static/images/task_images/dig.jpg"",""time"":0.20000000018626451},{""stimulus"":""run_exp/static/images/task_images/land.jpg"",""time"":683.2000000001863},{""stimulus"":""run_exp/static/images/task_images/dig.jpg"",""time"":1350.7000000001863}]",[],5,,,,,,,,,,,,,,
harvest,116,485684,0.0-37.0-4.0,"""event"",""trial"",""time""
""fullscreenenter"",""1"",""2632""
","
","
","""event"",""trial"",""time""
""fullscreenenter"",""1"",""2632""
","
",,null,run_exp/static/images/task_images/gems/110.jpg,null,,,,,,,45,,,5,,,,,110,0.411762551,0.409090909,,,,,,,
decision,117,486055,0.0-37.0-5.0,"""event"",""trial"",""time""
""fullscreenenter"",""1"",""2632""
","
","
","""event"",""trial"",""time""
""fullscreenenter"",""1"",""2632""
","
",,368.9,run_exp/static/images/task_images/land.jpg,65,,,,,,,45,,,5,,,,,,,,124384,1,0,FALSE,,,
dig,118,488698,0.0-38.0-0.0,"""event"",""trial"",""time""
""fullscreenenter"",""1"",""2632""
","
","
","""event"",""trial"",""time""
""fullscreenenter"",""1"",""2632""
","
",,,,,,,,,,,,"[{""stimulus"":""run_exp/static/images/task_images/dig.jpg"",""time"":0.09999999962747097},{""stimulus"":""run_exp/static/images/task_images/land.jpg"",""time"":878.0999999996275},{""stimulus"":""run_exp/static/images/task_images/dig.jpg"",""time"":1757}]",[],5,,,,,,,,,,,,,,
harvest,119,489707,0.0-38.0-1.0,"""event"",""trial"",""time""
""fullscreenenter"",""1"",""2632""
","
","
","""event"",""trial"",""time""
""fullscreenenter"",""1"",""2632""
","
",,null,run_exp/static/images/task_images/gems/45.jpg,null,,,,,,,21,,,5,,,,,45,0.456959335,0.466666667,,,,,,,
decision,120,489927,0.0-38.0-2.0,"""event"",""trial"",""time""
""fullscreenenter"",""1"",""2632""
","
","
","""event"",""trial"",""time""
""fullscreenenter"",""1"",""2632""
","
",,217.3,run_exp/static/images/task_images/land.jpg,65,,,,,,,21,,,5,,,,,,,,128256,1,1,FALSE,,,
dig,121,492716,0.0-39.0-0.0,"""event"",""trial"",""time""
""fullscreenenter"",""1"",""2632""
","
","
","""event"",""trial"",""time""
""fullscreenenter"",""1"",""2632""
","
",,,,,,,,,,,,"[{""stimulus"":""run_exp/static/images/task_images/dig.jpg"",""time"":0.20000000018626451},{""stimulus"":""run_exp/static/images/task_images/land.jpg"",""time"":942},{""stimulus"":""run_exp/static/images/task_images/dig.jpg"",""time"":1870.6000000005588}]",[],5,,,,,,,,,,,,,,
harvest,122,493729,0.0-39.0-1.0,"""event"",""trial"",""time""
""fullscreenenter"",""1"",""2632""
","
","
","""event"",""trial"",""time""
""fullscreenenter"",""1"",""2632""
","
",,null,run_exp/static/images/task_images/gems/21.jpg,null,,,,,,,10,,,5,,,,,21,0.484490897,0.476190476,,,,,,,
decision,123,493958,0.0-39.0-2.0,"""event"",""trial"",""time""
""fullscreenenter"",""1"",""2632""
","
","
","""event"",""trial"",""time""
""fullscreenenter"",""1"",""2632""
","
",,226.9,run_exp/static/images/task_images/land.jpg,65,,,,,,,10,,,5,,,,,,,,132287,1,2,FALSE,,,
dig,124,496749,0.0-40.0-0.0,"""event"",""trial"",""time""
""fullscreenenter"",""1"",""2632""
","
","
","""event"",""trial"",""time""
""fullscreenenter"",""1"",""2632""
","
",,,,,,,,,,,,"[{""stimulus"":""run_exp/static/images/task_images/dig.jpg"",""time"":0.30000000074505806},{""stimulus"":""run_exp/static/images/task_images/land.jpg"",""time"":925.4000000003725},{""stimulus"":""run_exp/static/images/task_images/dig.jpg"",""time"":1856.800000000745}]",[],5,,,,,,,,,,,,,,
harvest,125,497762,0.0-40.0-1.0,"""event"",""trial"",""time""
""fullscreenenter"",""1"",""2632""
","
","
","""event"",""trial"",""time""
""fullscreenenter"",""1"",""2632""
","
",,null,run_exp/static/images/task_images/gems/10.jpg,null,,,,,,,4,,,5,,,,,10,0.398932793,0.4,,,,,,,
decision,126,498406,0.0-40.0-2.0,"""event"",""trial"",""time""
""fullscreenenter"",""1"",""2632""
","
","
","""event"",""trial"",""time""
""fullscreenenter"",""1"",""2632""
","
",,642.3,run_exp/static/images/task_images/land.jpg,65,,,,,,,4,,,5,,,,,,,,136735,1,3,FALSE,,,
dig,127,500776,0.0-41.0-0.0,"""event"",""trial"",""time""
""fullscreenenter"",""1"",""2632""
","
","
","""event"",""trial"",""time""
""fullscreenenter"",""1"",""2632""
","
",,,,,,,,,,,,"[{""stimulus"":""run_exp/static/images/task_images/dig.jpg"",""time"":0},{""stimulus"":""run_exp/static/images/task_images/land.jpg"",""time"":790.9000000003725},{""stimulus"":""run_exp/static/images/task_images/dig.jpg"",""time"":1579}]",[],5,,,,,,,,,,,,,,
harvest,128,501785,0.0-41.0-1.0,"""event"",""trial"",""time""
""fullscreenenter"",""1"",""2632""
","
","
","""event"",""trial"",""time""
""fullscreenenter"",""1"",""2632""
","
",,null,run_exp/static/images/task_images/gems/4.jpg,null,,,,,,,2,,,5,,,,,4,0.562931211,0.5,,,,,,,
decision,129,501967,0.0-41.0-2.0,"""event"",""trial"",""time""
""fullscreenenter"",""1"",""2632""
","
","
","""event"",""trial"",""time""
""fullscreenenter"",""1"",""2632""
","
",,179.8,run_exp/static/images/task_images/land.jpg,76,,,,,,,2,,,5,,,,,,,,140296,1,4,TRUE,,,
travel,130,511799,0.0-42.0-0.0,"""event"",""trial"",""time""
""fullscreenenter"",""1"",""2632""
","
","
","""event"",""trial"",""time""
""fullscreenenter"",""1"",""2632""
","
",,,,,,,,,,,,"[{""stimulus"":""run_exp/static/images/task_images/rocket-01.jpg"",""time"":0.20000000018626451},{""stimulus"":""run_exp/static/images/task_images/rocket-02.jpg"",""time"":1092.6000000005588},{""stimulus"":""run_exp/static/images/task_images/rocket-03.jpg"",""time"":2200},{""stimulus"":""run_exp/static/images/task_images/rocket-04.jpg"",""time"":3282.600000000559},{""stimulus"":""run_exp/static/images/task_images/rocket-05.jpg"",""time"":4381.4000000003725},{""stimulus"":""run_exp/static/images/task_images/rocket-06.jpg"",""time"":5456.800000000745},{""stimulus"":""run_exp/static/images/task_images/rocket-07.jpg"",""time"":6549.700000000186},{""stimulus"":""run_exp/static/images/task_images/rocket-08.jpg"",""time"":7648},{""stimulus"":""run_exp/static/images/task_images/rocket-09.jpg"",""time"":8729.800000000745}]",[],5,,,,,,,,,,,,,,
alien_welcome,131,516818,0.0-42.0-1.0,"""event"",""trial"",""time""
""fullscreenenter"",""1"",""2632""
","
","
","""event"",""trial"",""time""
""fullscreenenter"",""1"",""2632""
","
",,null,run_exp/static/images/task_images/aliens/old_aliens/planet/alien_planet-45.jpg,null,,,,,,,,,,,,,45,"14,40,78,5,16,45,26,73,63,43,33,44,18,53,75,46,34,30,13,66,58,31,56,29,62,39,70,9,12,57,68,77,1,49,27,23,35,37,47,32",,,,,,,,,,
land,132,517334,0.0-42.0-2.0,"""event"",""trial"",""time""
""fullscreenenter"",""1"",""2632""
","
","
","""event"",""trial"",""time""
""fullscreenenter"",""1"",""2632""
","
",,null,run_exp/static/images/task_images/land.jpg,null,,,,,,,103,,,6,,,,,,,,,,,,,,
dig,133,519346,0.0-42.0-3.0,"""event"",""trial"",""time""
""fullscreenenter"",""1"",""2632""
","
","
","""event"",""trial"",""time""
""fullscreenenter"",""1"",""2632""
","
",,,,,,,,,,,,"[{""stimulus"":""run_exp/static/images/task_images/dig.jpg"",""time"":0.40000000037252903},{""stimulus"":""run_exp/static/images/task_images/land.jpg"",""time"":681.1000000005588},{""stimulus"":""run_exp/static/images/task_images/dig.jpg"",""time"":1351.1000000005588}]",[],6,,,,,,,,,,,,,,
harvest,134,520348,0.0-42.0-4.0,"""event"",""trial"",""time""
""fullscreenenter"",""1"",""2632""
","
","
","""event"",""trial"",""time""
""fullscreenenter"",""1"",""2632""
","
",,null,run_exp/static/images/task_images/gems/103.jpg,null,,,,,,,80,,,6,,,,,103,0.777979392,0.776699029,,,,,,,
decision,135,520886,0.0-42.0-5.0,"""event"",""trial"",""time""
""fullscreenenter"",""1"",""2632""
","
","
","""event"",""trial"",""time""
""fullscreenenter"",""1"",""2632""
","
",,536.2,run_exp/static/images/task_images/land.jpg,65,,,,,,,80,,,6,,,,,,,,159215,1,0,FALSE,,,
dig,136,523364,0.0-43.0-0.0,"""event"",""trial"",""time""
""fullscreenenter"",""1"",""2632""
","
","
","""event"",""trial"",""time""
""fullscreenenter"",""1"",""2632""
","
",,,,,,,,,,,,"[{""stimulus"":""run_exp/static/images/task_images/dig.jpg"",""time"":0.20000000018626451},{""stimulus"":""run_exp/static/images/task_images/land.jpg"",""time"":822.5},{""stimulus"":""run_exp/static/images/task_images/dig.jpg"",""time"":1647.800000000745}]",[],6,,,,,,,,,,,,,,
harvest,137,524380,0.0-43.0-1.0,"""event"",""trial"",""time""
""fullscreenenter"",""1"",""2632""
","
","
","""event"",""trial"",""time""
""fullscreenenter"",""1"",""2632""
","
",,null,run_exp/static/images/task_images/gems/80.jpg,null,,,,,,,66,,,6,,,,,80,0.824325462,0.825,,,,,,,
decision,138,524991,0.0-43.0-2.0,"""event"",""trial"",""time""
""fullscreenenter"",""1"",""2632""
","
","
","""event"",""trial"",""time""
""fullscreenenter"",""1"",""2632""
","
",,610.3,run_exp/static/images/task_images/land.jpg,65,,,,,,,66,,,6,,,,,,,,163321,1,1,FALSE,,,
dig,139,527396,0.0-44.0-0.0,"""event"",""trial"",""time""
""fullscreenenter"",""1"",""2632""
","
","
","""event"",""trial"",""time""
""fullscreenenter"",""1"",""2632""
","
",,,,,,,,,,,,"[{""stimulus"":""run_exp/static/images/task_images/dig.jpg"",""time"":0.39999999944120646},{""stimulus"":""run_exp/static/images/task_images/land.jpg"",""time"":799.7999999998137},{""stimulus"":""run_exp/static/images/task_images/dig.jpg"",""time"":1602}]",[],6,,,,,,,,,,,,,,
harvest,140,528413,0.0-44.0-1.0,"""event"",""trial"",""time""
""fullscreenenter"",""1"",""2632""
","
","
","""event"",""trial"",""time""
""fullscreenenter"",""1"",""2632""
","
",,null,run_exp/static/images/task_images/gems/66.jpg,null,,,,,,,54,,,6,,,,,66,0.816457997,0.818181818,,,,,,,
decision,141,528674,0.0-44.0-2.0,"""event"",""trial"",""time""
""fullscreenenter"",""1"",""2632""
","
","
","""event"",""trial"",""time""
""fullscreenenter"",""1"",""2632""
","
",,260.6,run_exp/static/images/task_images/land.jpg,65,,,,,,,54,,,6,,,,,,,,167003,1,2,FALSE,,,
dig,142,531432,0.0-45.0-0.0,"""event"",""trial"",""time""
""fullscreenenter"",""1"",""2632""
","
","
","""event"",""trial"",""time""
""fullscreenenter"",""1"",""2632""
","
",,,,,,,,,,,,"[{""stimulus"":""run_exp/static/images/task_images/dig.jpg"",""time"":0.10000000055879354},{""stimulus"":""run_exp/static/images/task_images/land.jpg"",""time"":921.9000000003725},{""stimulus"":""run_exp/static/images/task_images/dig.jpg"",""time"":1834.1000000005588}]",[],6,,,,,,,,,,,,,,
harvest,143,532445,0.0-45.0-1.0,"""event"",""trial"",""time""
""fullscreenenter"",""1"",""2632""
","
","
","""event"",""trial"",""time""
""fullscreenenter"",""1"",""2632""
","
",,null,run_exp/static/images/task_images/gems/54.jpg,null,,,,,,,42,,,6,,,,,54,0.776005005,0.777777778,,,,,,,
decision,144,532680,0.0-45.0-2.0,"""event"",""trial"",""time""
""fullscreenenter"",""1"",""2632""
","
","
","""event"",""trial"",""time""
""fullscreenenter"",""1"",""2632""
","
",,232,run_exp/static/images/task_images/land.jpg,65,,,,,,,42,,,6,,,,,,,,171009,1,3,FALSE,,,
dig,145,535462,0.0-46.0-0.0,"""event"",""trial"",""time""
""fullscreenenter"",""1"",""2632""
","
","
","""event"",""trial"",""time""
""fullscreenenter"",""1"",""2632""
","
",,,,,,,,,,,,"[{""stimulus"":""run_exp/static/images/task_images/dig.jpg"",""time"":0.40000000037252903},{""stimulus"":""run_exp/static/images/task_images/land.jpg"",""time"":928.5},{""stimulus"":""run_exp/static/images/task_images/dig.jpg"",""time"":1846}]",[],6,,,,,,,,,,,,,,
harvest,146,536472,0.0-46.0-1.0,"""event"",""trial"",""time""
""fullscreenenter"",""1"",""2632""
","
","
","""event"",""trial"",""time""
""fullscreenenter"",""1"",""2632""
","
",,null,run_exp/static/images/task_images/gems/42.jpg,null,,,,,,,36,,,6,,,,,42,0.848920049,0.857142857,,,,,,,
decision,147,536575,0.0-46.0-2.0,"""event"",""trial"",""time""
""fullscreenenter"",""1"",""2632""
","
","
","""event"",""trial"",""time""
""fullscreenenter"",""1"",""2632""
","
",,101.5,run_exp/static/images/task_images/land.jpg,65,,,,,,,36,,,6,,,,,,,,174904,1,4,FALSE,,,
dig,148,539482,0.0-47.0-0.0,"""event"",""trial"",""time""
""fullscreenenter"",""1"",""2632""
","
","
","""event"",""trial"",""time""
""fullscreenenter"",""1"",""2632""
","
",,,,,,,,,,,,"[{""stimulus"":""run_exp/static/images/task_images/dig.jpg"",""time"":0.09999999962747097},{""stimulus"":""run_exp/static/images/task_images/land.jpg"",""time"":981.5999999996275},{""stimulus"":""run_exp/static/images/task_images/dig.jpg"",""time"":1935.7000000001863}]",[],6,,,,,,,,,,,,,,
harvest,149,540484,0.0-47.0-1.0,"""event"",""trial"",""time""
""fullscreenenter"",""1"",""2632""
","
","
","""event"",""trial"",""time""
""fullscreenenter"",""1"",""2632""
","
",,null,run_exp/static/images/task_images/gems/36.jpg,null,,,,,,,29,,,6,,,,,36,0.807742604,0.805555556,,,,,,,
decision,150,540631,0.0-47.0-2.0,"""event"",""trial"",""time""
""fullscreenenter"",""1"",""2632""
","
","
","""event"",""trial"",""time""
""fullscreenenter"",""1"",""2632""
","
",,145.4,run_exp/static/images/task_images/land.jpg,65,,,,,,,29,,,6,,,,,,,,178960,1,5,FALSE,,,
dig,151,543496,0.0-48.0-0.0,"""event"",""trial"",""time""
""fullscreenenter"",""1"",""2632""
","
","
","""event"",""trial"",""time""
""fullscreenenter"",""1"",""2632""
","
",,,,,,,,,,,,"[{""stimulus"":""run_exp/static/images/task_images/dig.jpg"",""time"":0.2999999998137355},{""stimulus"":""run_exp/static/images/task_images/land.jpg"",""time"":965.1000000005588},{""stimulus"":""run_exp/static/images/task_images/dig.jpg"",""time"":1913.7000000001863}]",[],6,,,,,,,,,,,,,,
harvest,152,544504,0.0-48.0-1.0,"""event"",""trial"",""time""
""fullscreenenter"",""1"",""2632""
","
","
","""event"",""trial"",""time""
""fullscreenenter"",""1"",""2632""
","
",,null,run_exp/static/images/task_images/gems/29.jpg,null,,,,,,,23,,,6,,,,,29,0.803248915,0.793103448,,,,,,,
decision,153,544648,0.0-48.0-2.0,"""event"",""trial"",""time""
""fullscreenenter"",""1"",""2632""
","
","
","""event"",""trial"",""time""
""fullscreenenter"",""1"",""2632""
","
",,142.3,run_exp/static/images/task_images/land.jpg,65,,,,,,,23,,,6,,,,,,,,182977,1,6,FALSE,,,
dig,154,547510,0.0-49.0-0.0,"""event"",""trial"",""time""
""fullscreenenter"",""1"",""2632""
","
","
","""event"",""trial"",""time""
""fullscreenenter"",""1"",""2632""
","
",,,,,,,,,,,,"[{""stimulus"":""run_exp/static/images/task_images/dig.jpg"",""time"":0.19999999925494194},{""stimulus"":""run_exp/static/images/task_images/land.jpg"",""time"":961.8999999994412},{""stimulus"":""run_exp/static/images/task_images/dig.jpg"",""time"":1913}]",[],6,,,,,,,,,,,,,,
harvest,155,548523,0.0-49.0-1.0,"""event"",""trial"",""time""
""fullscreenenter"",""1"",""2632""
","
","
","""event"",""trial"",""time""
""fullscreenenter"",""1"",""2632""
","
",,null,run_exp/static/images/task_images/gems/23.jpg,null,,,,,,,18,,,6,,,,,23,0.770325837,0.782608696,,,,,,,
decision,156,548648,0.0-49.0-2.0,"""event"",""trial"",""time""
""fullscreenenter"",""1"",""2632""
","
","
","""event"",""trial"",""time""
""fullscreenenter"",""1"",""2632""
","
",,122.7,run_exp/static/images/task_images/land.jpg,65,,,,,,,18,,,6,,,,,,,,186977,1,7,FALSE,,,
dig,157,551543,0.0-50.0-0.0,"""event"",""trial"",""time""
""fullscreenenter"",""1"",""2632""
","
","
","""event"",""trial"",""time""
""fullscreenenter"",""1"",""2632""
","
",,,,,,,,,,,,"[{""stimulus"":""run_exp/static/images/task_images/dig.jpg"",""time"":0.2999999998137355},{""stimulus"":""run_exp/static/images/task_images/land.jpg"",""time"":977.0999999996275},{""stimulus"":""run_exp/static/images/task_images/dig.jpg"",""time"":1926.4000000003725}]",[],6,,,,,,,,,,,,,,
harvest,158,552552,0.0-50.0-1.0,"""event"",""trial"",""time""
""fullscreenenter"",""1"",""2632""
","
","
","""event"",""trial"",""time""
""fullscreenenter"",""1"",""2632""
","
",,null,run_exp/static/images/task_images/gems/18.jpg,null,,,,,,,13,,,6,,,,,18,0.743557256,0.722222222,,,,,,,
decision,159,552575,0.0-50.0-2.0,"""event"",""trial"",""time""
""fullscreenenter"",""1"",""2632""
","
","
","""event"",""trial"",""time""
""fullscreenenter"",""1"",""2632""
","
",,21.2,run_exp/static/images/task_images/land.jpg,65,,,,,,,13,,,6,,,,,,,,190904,1,8,FALSE,,,
dig,160,555562,0.0-51.0-0.0,"""event"",""trial"",""time""
""fullscreenenter"",""1"",""2632""
","
","
","""event"",""trial"",""time""
""fullscreenenter"",""1"",""2632""
","
",,,,,,,,,,,,"[{""stimulus"":""run_exp/static/images/task_images/dig.jpg"",""time"":0.40000000037252903},{""stimulus"":""run_exp/static/images/task_images/land.jpg"",""time"":998.9000000003725},{""stimulus"":""run_exp/static/images/task_images/dig.jpg"",""time"":2001.800000000745}]",[],6,,,,,,,,,,,,,,
harvest,161,556566,0.0-51.0-1.0,"""event"",""trial"",""time""
""fullscreenenter"",""1"",""2632""
","
","
","""event"",""trial"",""time""
""fullscreenenter"",""1"",""2632""
","
",,null,run_exp/static/images/task_images/gems/13.jpg,null,,,,,,,10,,,6,,,,,13,0.801875748,0.769230769,,,,,,,
decision,162,556861,0.0-51.0-2.0,"""event"",""trial"",""time""
""fullscreenenter"",""1"",""2632""
","
","
","""event"",""trial"",""time""
""fullscreenenter"",""1"",""2632""
","
",,293.5,run_exp/static/images/task_images/land.jpg,76,,,,,,,10,,,6,,,,,,,,195190,1,9,TRUE,,,
travel,163,566578,0.0-52.0-0.0,"""event"",""trial"",""time""
""fullscreenenter"",""1"",""2632""
","
","
","""event"",""trial"",""time""
""fullscreenenter"",""1"",""2632""
","
",,,,,,,,,,,,"[{""stimulus"":""run_exp/static/images/task_images/rocket-01.jpg"",""time"":0.10000000055879354},{""stimulus"":""run_exp/static/images/task_images/rocket-02.jpg"",""time"":1085.6000000005588},{""stimulus"":""run_exp/static/images/task_images/rocket-03.jpg"",""time"":2158.5},{""stimulus"":""run_exp/static/images/task_images/rocket-04.jpg"",""time"":3235.600000000559},{""stimulus"":""run_exp/static/images/task_images/rocket-05.jpg"",""time"":4313.4000000003725},{""stimulus"":""run_exp/static/images/task_images/rocket-06.jpg"",""time"":5403},{""stimulus"":""run_exp/static/images/task_images/rocket-07.jpg"",""time"":6470.100000000559},{""stimulus"":""run_exp/static/images/task_images/rocket-08.jpg"",""time"":7551.700000000186},{""stimulus"":""run_exp/static/images/task_images/rocket-09.jpg"",""time"":8634.400000000373}]",[],6,,,,,,,,,,,,,,
alien_welcome,164,571581,0.0-52.0-1.0,"""event"",""trial"",""time""
""fullscreenenter"",""1"",""2632""
","
","
","""event"",""trial"",""time""
""fullscreenenter"",""1"",""2632""
","
",,null,run_exp/static/images/task_images/aliens/old_aliens/planet/alien_planet-26.jpg,null,,,,,,,,,,,,,26,"14,40,78,5,16,45,26,73,63,43,33,44,18,53,75,46,34,30,13,66,58,31,56,29,62,39,70,9,12,57,68,77,1,49,27,23,35,37,47,32",,,,,,,,,,
land,165,572097,0.0-52.0-2.0,"""event"",""trial"",""time""
""fullscreenenter"",""1"",""2632""
","
","
","""event"",""trial"",""time""
""fullscreenenter"",""1"",""2632""
","
",,null,run_exp/static/images/task_images/land.jpg,null,,,,,,,113,,,7,,,,,,,,,,,,,,
dig,166,574110,0.0-52.0-3.0,"""event"",""trial"",""time""
""fullscreenenter"",""1"",""2632""
","
","
","""event"",""trial"",""time""
""fullscreenenter"",""1"",""2632""
","
",,,,,,,,,,,,"[{""stimulus"":""run_exp/static/images/task_images/dig.jpg"",""time"":0.5},{""stimulus"":""run_exp/static/images/task_images/land.jpg"",""time"":682.3000000007451},{""stimulus"":""run_exp/static/images/task_images/dig.jpg"",""time"":1339.6000000005588}]",[],7,,,,,,,,,,,,,,
harvest,167,575127,0.0-52.0-4.0,"""event"",""trial"",""time""
""fullscreenenter"",""1"",""2632""
","
","
","""event"",""trial"",""time""
""fullscreenenter"",""1"",""2632""
","
",,null,run_exp/static/images/task_images/gems/113.jpg,null,,,,,,,94,,,7,,,,,113,0.82966718,0.831858407,,,,,,,
decision,168,575375,0.0-52.0-5.0,"""event"",""trial"",""time""
""fullscreenenter"",""1"",""2632""
","
","
","""event"",""trial"",""time""
""fullscreenenter"",""1"",""2632""
","
",,245.4,run_exp/static/images/task_images/land.jpg,65,,,,,,,94,,,7,,,,,,,,213704,1,0,FALSE,,,
dig,169,578142,0.0-53.0-0.0,"""event"",""trial"",""time""
""fullscreenenter"",""1"",""2632""
","
","
","""event"",""trial"",""time""
""fullscreenenter"",""1"",""2632""
","
",,,,,,,,,,,,"[{""stimulus"":""run_exp/static/images/task_images/dig.jpg"",""time"":0},{""stimulus"":""run_exp/static/images/task_images/land.jpg"",""time"":919.5},{""stimulus"":""run_exp/static/images/task_images/dig.jpg"",""time"":1846.800000000745}]",[],7,,,,,,,,,,,,,,
harvest,170,579156,0.0-53.0-1.0,"""event"",""trial"",""time""
""fullscreenenter"",""1"",""2632""
","
","
","""event"",""trial"",""time""
""fullscreenenter"",""1"",""2632""
","
",,null,run_exp/static/images/task_images/gems/94.jpg,null,,,,,,,79,,,7,,,,,94,0.837812286,0.840425532,,,,,,,
decision,171,579816,0.0-53.0-2.0,"""event"",""trial"",""time""
""fullscreenenter"",""1"",""2632""
","
","
","""event"",""trial"",""time""
""fullscreenenter"",""1"",""2632""
","
",,657.7,run_exp/static/images/task_images/land.jpg,65,,,,,,,79,,,7,,,,,,,,218145,1,1,FALSE,,,
dig,172,582174,0.0-54.0-0.0,"""event"",""trial"",""time""
""fullscreenenter"",""1"",""2632""
","
","
","""event"",""trial"",""time""
""fullscreenenter"",""1"",""2632""
","
",,,,,,,,,,,,"[{""stimulus"":""run_exp/static/images/task_images/dig.jpg"",""time"":0.09999999962747097},{""stimulus"":""run_exp/static/images/task_images/land.jpg"",""time"":792.5},{""stimulus"":""run_exp/static/images/task_images/dig.jpg"",""time"":1577.699999999255}]",[],7,,,,,,,,,,,,,,
harvest,173,583179,0.0-54.0-1.0,"""event"",""trial"",""time""
""fullscreenenter"",""1"",""2632""
","
","
","""event"",""trial"",""time""
""fullscreenenter"",""1"",""2632""
","
",,null,run_exp/static/images/task_images/gems/79.jpg,null,,,,,,,56,,,7,,,,,79,0.711521658,0.708860759,,,,,,,
decision,174,583487,0.0-54.0-2.0,"""event"",""trial"",""time""
""fullscreenenter"",""1"",""2632""
","
","
","""event"",""trial"",""time""
""fullscreenenter"",""1"",""2632""
","
",,306.6,run_exp/static/images/task_images/land.jpg,65,,,,,,,56,,,7,,,,,,,,221816,1,2,FALSE,,,
dig,175,586192,0.0-55.0-0.0,"""event"",""trial"",""time""
""fullscreenenter"",""1"",""2632""
","
","
","""event"",""trial"",""time""
""fullscreenenter"",""1"",""2632""
","
",,,,,,,,,,,,"[{""stimulus"":""run_exp/static/images/task_images/dig.jpg"",""time"":0.2999999998137355},{""stimulus"":""run_exp/static/images/task_images/land.jpg"",""time"":905.4000000003725},{""stimulus"":""run_exp/static/images/task_images/dig.jpg"",""time"":1800.7000000001863}]",[],7,,,,,,,,,,,,,,
harvest,176,587198,0.0-55.0-1.0,"""event"",""trial"",""time""
""fullscreenenter"",""1"",""2632""
","
","
","""event"",""trial"",""time""
""fullscreenenter"",""1"",""2632""
","
",,null,run_exp/static/images/task_images/gems/56.jpg,null,,,,,,,44,,,7,,,,,56,0.7907433,0.785714286,,,,,,,
decision,177,588336,0.0-55.0-2.0,"""event"",""trial"",""time""
""fullscreenenter"",""1"",""2632""
","
","
","""event"",""trial"",""time""
""fullscreenenter"",""1"",""2632""
","
",,1134.8,run_exp/static/images/task_images/land.jpg,65,,,,,,,44,,,7,,,,,,,,226665,1,3,FALSE,,,
dig,178,590209,0.0-56.0-0.0,"""event"",""trial"",""time""
""fullscreenenter"",""1"",""2632""
","
","
","""event"",""trial"",""time""
""fullscreenenter"",""1"",""2632""
","
",,,,,,,,,,,,"[{""stimulus"":""run_exp/static/images/task_images/dig.jpg"",""time"":0.20000000018626451},{""stimulus"":""run_exp/static/images/task_images/land.jpg"",""time"":622.6000000005588},{""stimulus"":""run_exp/static/images/task_images/dig.jpg"",""time"":1244.4000000003725}]",[],7,,,,,,,,,,,,,,
harvest,179,591211,0.0-56.0-1.0,"""event"",""trial"",""time""
""fullscreenenter"",""1"",""2632""
","
","
","""event"",""trial"",""time""
""fullscreenenter"",""1"",""2632""
","
",,null,run_exp/static/images/task_images/gems/44.jpg,null,,,,,,,37,,,7,,,,,44,0.844452562,0.840909091,,,,,,,
decision,180,591919,0.0-56.0-2.0,"""event"",""trial"",""time""
""fullscreenenter"",""1"",""2632""
","
","
","""event"",""trial"",""time""
""fullscreenenter"",""1"",""2632""
","
",,705.5,run_exp/static/images/task_images/land.jpg,65,,,,,,,37,,,7,,,,,,,,230248,1,4,FALSE,,,
dig,181,594226,0.0-57.0-0.0,"""event"",""trial"",""time""
""fullscreenenter"",""1"",""2632""
","
","
","""event"",""trial"",""time""
""fullscreenenter"",""1"",""2632""
","
",,,,,,,,,,,,"[{""stimulus"":""run_exp/static/images/task_images/dig.jpg"",""time"":0.09999999962747097},{""stimulus"":""run_exp/static/images/task_images/land.jpg"",""time"":766.5999999996275},{""stimulus"":""run_exp/static/images/task_images/dig.jpg"",""time"":1542.0999999996275}]",[],7,,,,,,,,,,,,,,
harvest,182,595228,0.0-57.0-1.0,"""event"",""trial"",""time""
""fullscreenenter"",""1"",""2632""
","
","
","""event"",""trial"",""time""
""fullscreenenter"",""1"",""2632""
","
",,null,run_exp/static/images/task_images/gems/37.jpg,null,,,,,,,31,,,7,,,,,37,0.833242629,0.837837838,,,,,,,
decision,183,595520,0.0-57.0-2.0,"""event"",""trial"",""time""
""fullscreenenter"",""1"",""2632""
","
","
","""event"",""trial"",""time""
""fullscreenenter"",""1"",""2632""
","
",,289.6,run_exp/static/images/task_images/land.jpg,65,,,,,,,31,,,7,,,,,,,,233849,1,5,FALSE,,,
dig,184,598244,0.0-58.0-0.0,"""event"",""trial"",""time""
""fullscreenenter"",""1"",""2632""
","
","
","""event"",""trial"",""time""
""fullscreenenter"",""1"",""2632""
","
",,,,,,,,,,,,"[{""stimulus"":""run_exp/static/images/task_images/dig.jpg"",""time"":0.39999999944120646},{""stimulus"":""run_exp/static/images/task_images/land.jpg"",""time"":905.2999999998137},{""stimulus"":""run_exp/static/images/task_images/dig.jpg"",""time"":1816.3999999994412}]",[],7,,,,,,,,,,,,,,
harvest,185,599256,0.0-58.0-1.0,"""event"",""trial"",""time""
""fullscreenenter"",""1"",""2632""
","
","
","""event"",""trial"",""time""
""fullscreenenter"",""1"",""2632""
","
",,null,run_exp/static/images/task_images/gems/31.jpg,null,,,,,,,23,,,7,,,,,31,0.74010618,0.741935484,,,,,,,
decision,186,599434,0.0-58.0-2.0,"""event"",""trial"",""time""
""fullscreenenter"",""1"",""2632""
","
","
","""event"",""trial"",""time""
""fullscreenenter"",""1"",""2632""
","
",,176.2,run_exp/static/images/task_images/land.jpg,76,,,,,,,23,,,7,,,,,,,,237763,1,6,TRUE,,,
travel,187,609274,0.0-59.0-0.0,"""event"",""trial"",""time""
""fullscreenenter"",""1"",""2632""
","
","
","""event"",""trial"",""time""
""fullscreenenter"",""1"",""2632""
","
",,,,,,,,,,,,"[{""stimulus"":""run_exp/static/images/task_images/rocket-01.jpg"",""time"":0.09999999962747097},{""stimulus"":""run_exp/static/images/task_images/rocket-02.jpg"",""time"":1092.7000000001863},{""stimulus"":""run_exp/static/images/task_images/rocket-03.jpg"",""time"":2193.2000000001863},{""stimulus"":""run_exp/static/images/task_images/rocket-04.jpg"",""time"":3273.9000000003725},{""stimulus"":""run_exp/static/images/task_images/rocket-05.jpg"",""time"":4372.9000000003725},{""stimulus"":""run_exp/static/images/task_images/rocket-06.jpg"",""time"":5456.799999999814},{""stimulus"":""run_exp/static/images/task_images/rocket-07.jpg"",""time"":6553.299999999814},{""stimulus"":""run_exp/static/images/task_images/rocket-08.jpg"",""time"":7639.9000000003725},{""stimulus"":""run_exp/static/images/task_images/rocket-09.jpg"",""time"":8737.700000000186}]",[],7,,,,,,,,,,,,,,
alien_welcome,188,614280,0.0-59.0-1.0,"""event"",""trial"",""time""
""fullscreenenter"",""1"",""2632""
","
","
","""event"",""trial"",""time""
""fullscreenenter"",""1"",""2632""
","
",,null,run_exp/static/images/task_images/aliens/old_aliens/planet/alien_planet-73.jpg,null,,,,,,,,,,,,,73,"14,40,78,5,16,45,26,73,63,43,33,44,18,53,75,46,34,30,13,66,58,31,56,29,62,39,70,9,12,57,68,77,1,49,27,23,35,37,47,32",,,,,,,,,,
land,189,614796,0.0-59.0-2.0,"""event"",""trial"",""time""
""fullscreenenter"",""1"",""2632""
","
","
","""event"",""trial"",""time""
""fullscreenenter"",""1"",""2632""
","
",,null,run_exp/static/images/task_images/land.jpg,null,,,,,,,93,,,8,,,,,,,,,,,,,,
dig,190,616808,0.0-59.0-3.0,"""event"",""trial"",""time""
""fullscreenenter"",""1"",""2632""
","
","
","""event"",""trial"",""time""
""fullscreenenter"",""1"",""2632""
","
",,,,,,,,,,,,"[{""stimulus"":""run_exp/static/images/task_images/dig.jpg"",""time"":0.5},{""stimulus"":""run_exp/static/images/task_images/land.jpg"",""time"":681.1000000005588},{""stimulus"":""run_exp/static/images/task_images/dig.jpg"",""time"":1347.6000000005588}]",[],8,,,,,,,,,,,,,,
harvest,191,617811,0.0-59.0-4.0,"""event"",""trial"",""time""
""fullscreenenter"",""1"",""2632""
","
","
","""event"",""trial"",""time""
""fullscreenenter"",""1"",""2632""
","
",,null,run_exp/static/images/task_images/gems/93.jpg,null,,,,,,,76,,,8,,,,,93,0.819829254,0.817204301,,,,,,,
decision,192,618335,0.0-59.0-5.0,"""event"",""trial"",""time""
""fullscreenenter"",""1"",""2632""
","
","
","""event"",""trial"",""time""
""fullscreenenter"",""1"",""2632""
","
",,523.2,run_exp/static/images/task_images/land.jpg,65,,,,,,,76,,,8,,,,,,,,256664,1,0,FALSE,,,
dig,193,620825,0.0-60.0-0.0,"""event"",""trial"",""time""
""fullscreenenter"",""1"",""2632""
","
","
","""event"",""trial"",""time""
""fullscreenenter"",""1"",""2632""
","
",,,,,,,,,,,,"[{""stimulus"":""run_exp/static/images/task_images/dig.jpg"",""time"":0.2999999998137355},{""stimulus"":""run_exp/static/images/task_images/land.jpg"",""time"":826.9000000003725},{""stimulus"":""run_exp/static/images/task_images/dig.jpg"",""time"":1656.2999999998137}]",[],8,,,,,,,,,,,,,,
harvest,194,621836,0.0-60.0-1.0,"""event"",""trial"",""time""
""fullscreenenter"",""1"",""2632""
","
","
","""event"",""trial"",""time""
""fullscreenenter"",""1"",""2632""
","
",,null,run_exp/static/images/task_images/gems/76.jpg,null,,,,,,,60,,,8,,,,,76,0.787243809,0.789473684,,,,,,,
decision,195,621911,0.0-60.0-2.0,"""event"",""trial"",""time""
""fullscreenenter"",""1"",""2632""
","
","
","""event"",""trial"",""time""
""fullscreenenter"",""1"",""2632""
","
",,73.6,run_exp/static/images/task_images/land.jpg,65,,,,,,,60,,,8,,,,,,,,260240,1,1,FALSE,,,
dig,196,624857,0.0-61.0-0.0,"""event"",""trial"",""time""
""fullscreenenter"",""1"",""2632""
","
","
","""event"",""trial"",""time""
""fullscreenenter"",""1"",""2632""
","
",,,,,,,,,,,,"[{""stimulus"":""run_exp/static/images/task_images/dig.jpg"",""time"":0.40000000037252903},{""stimulus"":""run_exp/static/images/task_images/land.jpg"",""time"":977.5},{""stimulus"":""run_exp/static/images/task_images/dig.jpg"",""time"":1961.6000000005588}]",[],8,,,,,,,,,,,,,,
harvest,197,625860,0.0-61.0-1.0,"""event"",""trial"",""time""
""fullscreenenter"",""1"",""2632""
","
","
","""event"",""trial"",""time""
""fullscreenenter"",""1"",""2632""
","
",,null,run_exp/static/images/task_images/gems/60.jpg,null,,,,,,,46,,,8,,,,,60,0.76521575,0.766666667,,,,,,,
decision,198,626543,0.0-61.0-2.0,"""event"",""trial"",""time""
""fullscreenenter"",""1"",""2632""
","
","
","""event"",""trial"",""time""
""fullscreenenter"",""1"",""2632""
","
",,680.7,run_exp/static/images/task_images/land.jpg,65,,,,,,,46,,,8,,,,,,,,264873,1,2,FALSE,,,
dig,199,628876,0.0-62.0-0.0,"""event"",""trial"",""time""
""fullscreenenter"",""1"",""2632""
","
","
","""event"",""trial"",""time""
""fullscreenenter"",""1"",""2632""
","
",,,,,,,,,,,,"[{""stimulus"":""run_exp/static/images/task_images/dig.jpg"",""time"":0.5},{""stimulus"":""run_exp/static/images/task_images/land.jpg"",""time"":778.7000000001863},{""stimulus"":""run_exp/static/images/task_images/dig.jpg"",""time"":1556.2000000001863}]",[],8,,,,,,,,,,,,,,
harvest,200,629891,0.0-62.0-1.0,"""event"",""trial"",""time""
""fullscreenenter"",""1"",""2632""
","
","
","""event"",""trial"",""time""
""fullscreenenter"",""1"",""2632""
","
",,null,run_exp/static/images/task_images/gems/46.jpg,null,,,,,,,39,,,8,,,,,46,0.841997223,0.847826087,,,,,,,
decision,201,630975,0.0-62.0-2.0,"""event"",""trial"",""time""
""fullscreenenter"",""1"",""2632""
","
","
","""event"",""trial"",""time""
""fullscreenenter"",""1"",""2632""
","
",,1083.9,run_exp/static/images/task_images/land.jpg,65,,,,,,,39,,,8,,,,,,,,269305,1,3,FALSE,,,
dig,202,632907,0.0-63.0-0.0,"""event"",""trial"",""time""
""fullscreenenter"",""1"",""2632""
","
","
","""event"",""trial"",""time""
""fullscreenenter"",""1"",""2632""
","
",,,,,,,,,,,,"[{""stimulus"":""run_exp/static/images/task_images/dig.jpg"",""time"":0.39999999944120646},{""stimulus"":""run_exp/static/images/task_images/land.jpg"",""time"":644.6999999992549},{""stimulus"":""run_exp/static/images/task_images/dig.jpg"",""time"":1278.3999999994412}]",[],8,,,,,,,,,,,,,,
harvest,203,633925,0.0-63.0-1.0,"""event"",""trial"",""time""
""fullscreenenter"",""1"",""2632""
","
","
","""event"",""trial"",""time""
""fullscreenenter"",""1"",""2632""
","
",,null,run_exp/static/images/task_images/gems/39.jpg,null,,,,,,,31,,,8,,,,,39,0.789800957,0.794871795,,,,,,,
decision,204,634703,0.0-63.0-2.0,"""event"",""trial"",""time""
""fullscreenenter"",""1"",""2632""
","
","
","""event"",""trial"",""time""
""fullscreenenter"",""1"",""2632""
","
",,776,run_exp/static/images/task_images/land.jpg,65,,,,,,,31,,,8,,,,,,,,273033,1,4,FALSE,,,
dig,205,636941,0.0-64.0-0.0,"""event"",""trial"",""time""
""fullscreenenter"",""1"",""2632""
","
","
","""event"",""trial"",""time""
""fullscreenenter"",""1"",""2632""
","
",,,,,,,,,,,,"[{""stimulus"":""run_exp/static/images/task_images/dig.jpg"",""time"":0.40000000037252903},{""stimulus"":""run_exp/static/images/task_images/land.jpg"",""time"":752.0999999996275},{""stimulus"":""run_exp/static/images/task_images/dig.jpg"",""time"":1486.5999999996275}]",[],8,,,,,,,,,,,,,,
harvest,206,637958,0.0-64.0-1.0,"""event"",""trial"",""time""
""fullscreenenter"",""1"",""2632""
","
","
","""event"",""trial"",""time""
""fullscreenenter"",""1"",""2632""
","
",,null,run_exp/static/images/task_images/gems/31.jpg,null,,,,,,,24,,,8,,,,,31,0.764943748,0.774193548,,,,,,,
decision,207,638511,0.0-64.0-2.0,"""event"",""trial"",""time""
""fullscreenenter"",""1"",""2632""
","
","
","""event"",""trial"",""time""
""fullscreenenter"",""1"",""2632""
","
",,550.7,run_exp/static/images/task_images/land.jpg,65,,,,,,,24,,,8,,,,,,,,276840,1,5,FALSE,,,
dig,208,640974,0.0-65.0-0.0,"""event"",""trial"",""time""
""fullscreenenter"",""1"",""2632""
","
","
","""event"",""trial"",""time""
""fullscreenenter"",""1"",""2632""
","
",,,,,,,,,,,,"[{""stimulus"":""run_exp/static/images/task_images/dig.jpg"",""time"":0.40000000037252903},{""stimulus"":""run_exp/static/images/task_images/land.jpg"",""time"":817.5},{""stimulus"":""run_exp/static/images/task_images/dig.jpg"",""time"":1645}]",[],8,,,,,,,,,,,,,,
harvest,209,641991,0.0-65.0-1.0,"""event"",""trial"",""time""
""fullscreenenter"",""1"",""2632""
","
","
","""event"",""trial"",""time""
""fullscreenenter"",""1"",""2632""
","
",,null,run_exp/static/images/task_images/gems/24.jpg,null,,,,,,,21,,,8,,,,,24,0.89487483,0.875,,,,,,,
decision,210,643433,0.0-65.0-2.0,"""event"",""trial"",""time""
""fullscreenenter"",""1"",""2632""
","
","
","""event"",""trial"",""time""
""fullscreenenter"",""1"",""2632""
","
",,1440.3,run_exp/static/images/task_images/land.jpg,65,,,,,,,21,,,8,,,,,,,,281763,1,6,FALSE,,,
dig,211,645006,0.0-66.0-0.0,"""event"",""trial"",""time""
""fullscreenenter"",""1"",""2632""
","
","
","""event"",""trial"",""time""
""fullscreenenter"",""1"",""2632""
","
",,,,,,,,,,,,"[{""stimulus"":""run_exp/static/images/task_images/dig.jpg"",""time"":0.39999999944120646},{""stimulus"":""run_exp/static/images/task_images/land.jpg"",""time"":521.1999999992549},{""stimulus"":""run_exp/static/images/task_images/dig.jpg"",""time"":1040.0999999996275}]",[],8,,,,,,,,,,,,,,
harvest,212,646009,0.0-66.0-1.0,"""event"",""trial"",""time""
""fullscreenenter"",""1"",""2632""
","
","
","""event"",""trial"",""time""
""fullscreenenter"",""1"",""2632""
","
",,null,run_exp/static/images/task_images/gems/21.jpg,null,,,,,,,16,,,8,,,,,21,0.775288561,0.761904762,,,,,,,
decision,213,646184,0.0-66.0-2.0,"""event"",""trial"",""time""
""fullscreenenter"",""1"",""2632""
","
","
","""event"",""trial"",""time""
""fullscreenenter"",""1"",""2632""
","
",,173.7,run_exp/static/images/task_images/land.jpg,76,,,,,,,16,,,8,,,,,,,,284513,1,7,TRUE,,,
travel,214,656006,0.0-67.0-0.0,"""event"",""trial"",""time""
""fullscreenenter"",""1"",""2632""
","
","
","""event"",""trial"",""time""
""fullscreenenter"",""1"",""2632""
","
",,,,,,,,,,,,"[{""stimulus"":""run_exp/static/images/task_images/rocket-01.jpg"",""time"":0.09999999962747097},{""stimulus"":""run_exp/static/images/task_images/rocket-02.jpg"",""time"":1093},{""stimulus"":""run_exp/static/images/task_images/rocket-03.jpg"",""time"":2193.9000000003725},{""stimulus"":""run_exp/static/images/task_images/rocket-04.jpg"",""time"":3284.0999999996275},{""stimulus"":""run_exp/static/images/task_images/rocket-05.jpg"",""time"":4373.799999999814},{""stimulus"":""run_exp/static/images/task_images/rocket-06.jpg"",""time"":5457},{""stimulus"":""run_exp/static/images/task_images/rocket-07.jpg"",""time"":6559.5999999996275},{""stimulus"":""run_exp/static/images/task_images/rocket-08.jpg"",""time"":7641.9000000003725},{""stimulus"":""run_exp/static/images/task_images/rocket-09.jpg"",""time"":8739.599999999627}]",[],8,,,,,,,,,,,,,,
alien_welcome,215,661025,0.0-67.0-1.0,"""event"",""trial"",""time""
""fullscreenenter"",""1"",""2632""
","
","
","""event"",""trial"",""time""
""fullscreenenter"",""1"",""2632""
","
",,null,run_exp/static/images/task_images/aliens/old_aliens/planet/alien_planet-63.jpg,null,,,,,,,,,,,,,63,"14,40,78,5,16,45,26,73,63,43,33,44,18,53,75,46,34,30,13,66,58,31,56,29,62,39,70,9,12,57,68,77,1,49,27,23,35,37,47,32",,,,,,,,,,
land,216,661542,0.0-67.0-2.0,"""event"",""trial"",""time""
""fullscreenenter"",""1"",""2632""
","
","
","""event"",""trial"",""time""
""fullscreenenter"",""1"",""2632""
","
",,null,run_exp/static/images/task_images/land.jpg,null,,,,,,,99,,,9,,,,,,,,,,,,,,
dig,217,663554,0.0-67.0-3.0,"""event"",""trial"",""time""
""fullscreenenter"",""1"",""2632""
","
","
","""event"",""trial"",""time""
""fullscreenenter"",""1"",""2632""
","
",,,,,,,,,,,,"[{""stimulus"":""run_exp/static/images/task_images/dig.jpg"",""time"":0.40000000037252903},{""stimulus"":""run_exp/static/images/task_images/land.jpg"",""time"":682.6000000005588},{""stimulus"":""run_exp/static/images/task_images/dig.jpg"",""time"":1349.6000000005588}]",[],9,,,,,,,,,,,,,,
harvest,218,664557,0.0-67.0-4.0,"""event"",""trial"",""time""
""fullscreenenter"",""1"",""2632""
","
","
","""event"",""trial"",""time""
""fullscreenenter"",""1"",""2632""
","
",,null,run_exp/static/images/task_images/gems/99.jpg,null,,,,,,,18,,,9,,,,,99,0.185376122,0.181818182,,,,,,,
decision,219,665281,0.0-67.0-5.0,"""event"",""trial"",""time""
""fullscreenenter"",""1"",""2632""
","
","
","""event"",""trial"",""time""
""fullscreenenter"",""1"",""2632""
","
",,722.4,run_exp/static/images/task_images/land.jpg,65,,,,,,,18,,,9,,,,,,,,303610,1,0,TRUE,,,
end_of_block_continue,220,671209,0.0-68.0-0.0,"""event"",""trial"",""time""
""fullscreenenter"",""1"",""2632""
","
","
","""event"",""trial"",""time""
""fullscreenenter"",""1"",""2632""
","
",,5920.8,run_exp/static/audio/clip_32_block_end.m4a,,,,,,,0,,,,,,,,,,,,,,,,,,
alien_welcome,221,676226,0.0-69.0-0.0,"""event"",""trial"",""time""
""fullscreenenter"",""1"",""2632""
","
","
","""event"",""trial"",""time""
""fullscreenenter"",""1"",""2632""
","
",,null,run_exp/static/images/task_images/aliens/old_aliens/planet/alien_planet-43.jpg,null,,,,,,,,,,,,,43,"14,40,78,5,16,45,26,73,63,43,33,44,18,53,75,46,34,30,13,66,58,31,56,29,62,39,70,9,12,57,68,77,1,49,27,23,35,37,47,32",,,,,,,,,,
land,222,676741,0.0-69.0-1.0,"""event"",""trial"",""time""
""fullscreenenter"",""1"",""2632""
","
","
","""event"",""trial"",""time""
""fullscreenenter"",""1"",""2632""
","
",,null,run_exp/static/images/task_images/land.jpg,null,,,,,,,100,,,10,,,,,,,,,,,,,,
dig,223,678755,0.0-69.0-2.0,"""event"",""trial"",""time""
""fullscreenenter"",""1"",""2632""
","
","
","""event"",""trial"",""time""
""fullscreenenter"",""1"",""2632""
","
",,,,,,,,,,,,"[{""stimulus"":""run_exp/static/images/task_images/dig.jpg"",""time"":0.40000000037252903},{""stimulus"":""run_exp/static/images/task_images/land.jpg"",""time"":682.4000000003725},{""stimulus"":""run_exp/static/images/task_images/dig.jpg"",""time"":1336.5999999996275}]",[],10,,,,,,,,,,,,,,
harvest,224,679758,0.0-69.0-3.0,"""event"",""trial"",""time""
""fullscreenenter"",""1"",""2632""
","
","
","""event"",""trial"",""time""
""fullscreenenter"",""1"",""2632""
","
",,null,run_exp/static/images/task_images/gems/100.jpg,null,,,,,,,22,,,10,,,,,100,0.215209346,0.22,,,,,,,
decision,225,680097,0.0-69.0-4.0,"""event"",""trial"",""time""
""fullscreenenter"",""1"",""2632""
","
","
","""event"",""trial"",""time""
""fullscreenenter"",""1"",""2632""
","
",,336.7,run_exp/static/images/task_images/land.jpg,65,,,,,,,22,,,10,,,,,,,,8887,2,0,FALSE,,,
dig,226,682770,0.0-70.0-0.0,"""event"",""trial"",""time""
""fullscreenenter"",""1"",""2632""
","
","
","""event"",""trial"",""time""
""fullscreenenter"",""1"",""2632""
","
",,,,,,,,,,,,"[{""stimulus"":""run_exp/static/images/task_images/dig.jpg"",""time"":0.20000000018626451},{""stimulus"":""run_exp/static/images/task_images/land.jpg"",""time"":887.6000000005588},{""stimulus"":""run_exp/static/images/task_images/dig.jpg"",""time"":1785.6000000005588}]",[],10,,,,,,,,,,,,,,
harvest,227,683782,0.0-70.0-1.0,"""event"",""trial"",""time""
""fullscreenenter"",""1"",""2632""
","
","
","""event"",""trial"",""time""
""fullscreenenter"",""1"",""2632""
","
",,null,run_exp/static/images/task_images/gems/22.jpg,null,,,,,,,5,,,10,,,,,22,0.216888303,0.227272727,,,,,,,
decision,228,684383,0.0-70.0-2.0,"""event"",""trial"",""time""
""fullscreenenter"",""1"",""2632""
","
","
","""event"",""trial"",""time""
""fullscreenenter"",""1"",""2632""
","
",,599.5,run_exp/static/images/task_images/land.jpg,76,,,,,,,5,,,10,,,,,,,,13173,2,1,TRUE,,,
travel,229,693788,0.0-71.0-0.0,"""event"",""trial"",""time""
""fullscreenenter"",""1"",""2632""
","
","
","""event"",""trial"",""time""
""fullscreenenter"",""1"",""2632""
","
",,,,,,,,,,,,"[{""stimulus"":""run_exp/static/images/task_images/rocket-01.jpg"",""time"":0.2999999998137355},{""stimulus"":""run_exp/static/images/task_images/rocket-02.jpg"",""time"":1045.7000000001863},{""stimulus"":""run_exp/static/images/task_images/rocket-03.jpg"",""time"":2102.5},{""stimulus"":""run_exp/static/images/task_images/rocket-04.jpg"",""time"":3137.2999999998137},{""stimulus"":""run_exp/static/images/task_images/rocket-05.jpg"",""time"":4180.700000000186},{""stimulus"":""run_exp/static/images/task_images/rocket-06.jpg"",""time"":5224.700000000186},{""stimulus"":""run_exp/static/images/task_images/rocket-07.jpg"",""time"":6267.200000000186},{""stimulus"":""run_exp/static/images/task_images/rocket-08.jpg"",""time"":7314.5},{""stimulus"":""run_exp/static/images/task_images/rocket-09.jpg"",""time"":8367.600000000559}]",[],10,,,,,,,,,,,,,,
alien_welcome,230,698792,0.0-71.0-1.0,"""event"",""trial"",""time""
""fullscreenenter"",""1"",""2632""
","
","
","""event"",""trial"",""time""
""fullscreenenter"",""1"",""2632""
","
",,null,run_exp/static/images/task_images/aliens/old_aliens/planet/alien_planet-33.jpg,null,,,,,,,,,,,,,33,"14,40,78,5,16,45,26,73,63,43,33,44,18,53,75,46,34,30,13,66,58,31,56,29,62,39,70,9,12,57,68,77,1,49,27,23,35,37,47,32",,,,,,,,,,
land,231,699308,0.0-71.0-2.0,"""event"",""trial"",""time""
""fullscreenenter"",""1"",""2632""
","
","
","""event"",""trial"",""time""
""fullscreenenter"",""1"",""2632""
","
",,null,run_exp/static/images/task_images/land.jpg,null,,,,,,,96,,,11,,,,,,,,,,,,,,
dig,232,701320,0.0-71.0-3.0,"""event"",""trial"",""time""
""fullscreenenter"",""1"",""2632""
","
","
","""event"",""trial"",""time""
""fullscreenenter"",""1"",""2632""
","
",,,,,,,,,,,,"[{""stimulus"":""run_exp/static/images/task_images/dig.jpg"",""time"":0.20000000018626451},{""stimulus"":""run_exp/static/images/task_images/land.jpg"",""time"":681.9000000003725},{""stimulus"":""run_exp/static/images/task_images/dig.jpg"",""time"":1336.9000000003725}]",[],11,,,,,,,,,,,,,,
harvest,233,702323,0.0-71.0-4.0,"""event"",""trial"",""time""
""fullscreenenter"",""1"",""2632""
","
","
","""event"",""trial"",""time""
""fullscreenenter"",""1"",""2632""
","
",,null,run_exp/static/images/task_images/gems/96.jpg,null,,,,,,,14,,,11,,,,,96,0.149582579,0.145833333,,,,,,,
decision,234,702679,0.0-71.0-5.0,"""event"",""trial"",""time""
""fullscreenenter"",""1"",""2632""
","
","
","""event"",""trial"",""time""
""fullscreenenter"",""1"",""2632""
","
",,354.5,run_exp/static/images/task_images/land.jpg,65,,,,,,,14,,,11,,,,,,,,31470,2,0,FALSE,,,
dig,235,705338,0.0-72.0-0.0,"""event"",""trial"",""time""
""fullscreenenter"",""1"",""2632""
","
","
","""event"",""trial"",""time""
""fullscreenenter"",""1"",""2632""
","
",,,,,,,,,,,,"[{""stimulus"":""run_exp/static/images/task_images/dig.jpg"",""time"":0.10000000055879354},{""stimulus"":""run_exp/static/images/task_images/land.jpg"",""time"":882.8000000007451},{""stimulus"":""run_exp/static/images/task_images/dig.jpg"",""time"":1771.5}]",[],11,,,,,,,,,,,,,,
harvest,236,706343,0.0-72.0-1.0,"""event"",""trial"",""time""
""fullscreenenter"",""1"",""2632""
","
","
","""event"",""trial"",""time""
""fullscreenenter"",""1"",""2632""
","
",,null,run_exp/static/images/task_images/gems/14.jpg,null,,,,,,,4,,,11,,,,,14,0.253895902,0.285714286,,,,,,,
decision,237,706421,0.0-72.0-2.0,"""event"",""trial"",""time""
""fullscreenenter"",""1"",""2632""
","
","
","""event"",""trial"",""time""
""fullscreenenter"",""1"",""2632""
","
",,76.5,run_exp/static/images/task_images/land.jpg,76,,,,,,,4,,,11,,,,,,,,35211,2,1,TRUE,,,
travel,238,716354,0.0-73.0-0.0,"""event"",""trial"",""time""
""fullscreenenter"",""1"",""2632""
","
","
","""event"",""trial"",""time""
""fullscreenenter"",""1"",""2632""
","
",,,,,,,,,,,,"[{""stimulus"":""run_exp/static/images/task_images/rocket-01.jpg"",""time"":0.09999999962747097},{""stimulus"":""run_exp/static/images/task_images/rocket-02.jpg"",""time"":1108.5},{""stimulus"":""run_exp/static/images/task_images/rocket-03.jpg"",""time"":2217.5999999996275},{""stimulus"":""run_exp/static/images/task_images/rocket-04.jpg"",""time"":3315.199999999255},{""stimulus"":""run_exp/static/images/task_images/rocket-05.jpg"",""time"":4417.199999999255},{""stimulus"":""run_exp/static/images/task_images/rocket-06.jpg"",""time"":5514.199999999255},{""stimulus"":""run_exp/static/images/task_images/rocket-07.jpg"",""time"":6613.299999999814},{""stimulus"":""run_exp/static/images/task_images/rocket-08.jpg"",""time"":7727.5},{""stimulus"":""run_exp/static/images/task_images/rocket-09.jpg"",""time"":8817.399999999441}]",[],11,,,,,,,,,,,,,,
alien_welcome,239,721371,0.0-73.0-1.0,"""event"",""trial"",""time""
""fullscreenenter"",""1"",""2632""
","
","
","""event"",""trial"",""time""
""fullscreenenter"",""1"",""2632""
","
",,null,run_exp/static/images/task_images/aliens/old_aliens/planet/alien_planet-44.jpg,null,,,,,,,,,,,,,44,"14,40,78,5,16,45,26,73,63,43,33,44,18,53,75,46,34,30,13,66,58,31,56,29,62,39,70,9,12,57,68,77,1,49,27,23,35,37,47,32",,,,,,,,,,
land,240,721873,0.0-73.0-2.0,"""event"",""trial"",""time""
""fullscreenenter"",""1"",""2632""
","
","
","""event"",""trial"",""time""
""fullscreenenter"",""1"",""2632""
","
",,null,run_exp/static/images/task_images/land.jpg,null,,,,,,,98,,,12,,,,,,,,,,,,,,
dig,241,723885,0.0-73.0-3.0,"""event"",""trial"",""time""
""fullscreenenter"",""1"",""2632""
","
","
","""event"",""trial"",""time""
""fullscreenenter"",""1"",""2632""
","
",,,,,,,,,,,,"[{""stimulus"":""run_exp/static/images/task_images/dig.jpg"",""time"":0.09999999962747097},{""stimulus"":""run_exp/static/images/task_images/land.jpg"",""time"":681},{""stimulus"":""run_exp/static/images/task_images/dig.jpg"",""time"":1337.0999999996275}]",[],12,,,,,,,,,,,,,,
harvest,242,724888,0.0-73.0-4.0,"""event"",""trial"",""time""
""fullscreenenter"",""1"",""2632""
","
","
","""event"",""trial"",""time""
""fullscreenenter"",""1"",""2632""
","
",,null,run_exp/static/images/task_images/gems/98.jpg,null,,,,,,,18,,,12,,,,,98,0.179113226,0.183673469,,,,,,,
decision,243,725055,0.0-73.0-5.0,"""event"",""trial"",""time""
""fullscreenenter"",""1"",""2632""
","
","
","""event"",""trial"",""time""
""fullscreenenter"",""1"",""2632""
","
",,164,run_exp/static/images/task_images/land.jpg,65,,,,,,,18,,,12,,,,,,,,53845,2,0,FALSE,,,
dig,244,727904,0.0-74.0-0.0,"""event"",""trial"",""time""
""fullscreenenter"",""1"",""2632""
","
","
","""event"",""trial"",""time""
""fullscreenenter"",""1"",""2632""
","
",,,,,,,,,,,,"[{""stimulus"":""run_exp/static/images/task_images/dig.jpg"",""time"":0.39999999944120646},{""stimulus"":""run_exp/static/images/task_images/land.jpg"",""time"":960.2999999998137},{""stimulus"":""run_exp/static/images/task_images/dig.jpg"",""time"":1893.5999999996275}]",[],12,,,,,,,,,,,,,,
harvest,245,728916,0.0-74.0-1.0,"""event"",""trial"",""time""
""fullscreenenter"",""1"",""2632""
","
","
","""event"",""trial"",""time""
""fullscreenenter"",""1"",""2632""
","
",,null,run_exp/static/images/task_images/gems/18.jpg,null,,,,,,,4,,,12,,,,,18,0.238447845,0.222222222,,,,,,,
decision,246,728933,0.0-74.0-2.0,"""event"",""trial"",""time""
""fullscreenenter"",""1"",""2632""
","
","
","""event"",""trial"",""time""
""fullscreenenter"",""1"",""2632""
","
",,16.6,run_exp/static/images/task_images/land.jpg,76,,,,,,,4,,,12,,,,,,,,57723,2,1,TRUE,,,
travel,247,738918,0.0-75.0-0.0,"""event"",""trial"",""time""
""fullscreenenter"",""1"",""2632""
","
","
","""event"",""trial"",""time""
""fullscreenenter"",""1"",""2632""
","
